trial_nr	onset	event_type	phase	response	nr_frames	movie_index	movie_duration	movie_file	blank	onset_abs	duration
0	0.14986515045166016	stim	0		110					19.020576000213623	0.916632890701294
0	1.05857515335083	response	0	space						19.929286003112793	
1	1.066498041152954	stim	0		3241					19.937208890914917	27.008212089538574
1	28.07048010826111	pulse	0	t						46.94119095802307	
1	28.07471013069153	stim	1		1717					46.94542098045349	14.308281898498535
1	29.66663122177124	pulse	1	t						48.5373420715332	
1	31.266648054122925	pulse	1	t						50.13735890388489	
1	32.86646914482117	pulse	1	t						51.73717999458313	
1	34.466538190841675	pulse	1	t						53.33724904060364	
1	36.06653618812561	pulse	1	t						54.93724703788757	
1	37.66659712791443	pulse	1	t						56.53730797767639	
1	39.26650619506836	pulse	1	t						58.13721704483032	
1	40.866539001464844	pulse	1	t						59.73724985122681	
2	42.38299202919006	fix_pre	0		11	0.0	2.5	/experiments/aot_oldvideos/S_yt-O6FS0xnF0CU_106.mp4	0.0	61.253702878952026	0.09160518646240234
2	42.46651816368103	pulse	0	t		0.0	2.5	/experiments/aot_oldvideos/S_yt-O6FS0xnF0CU_106.mp4	0.0	61.33722901344299	
2	42.474597215652466	movie	1		297	0.0	2.5	/experiments/aot_oldvideos/S_yt-O6FS0xnF0CU_106.mp4	0.0	61.34530806541443	2.508543014526367
2	44.06650900840759	pulse	1	t		0.0	2.5	/experiments/aot_oldvideos/S_yt-O6FS0xnF0CU_106.mp4	0.0	62.937219858169556	
2	44.98314023017883	fix_post	2		12	0.0	2.5	/experiments/aot_oldvideos/S_yt-O6FS0xnF0CU_106.mp4	0.0	63.853851079940796	0.09990477561950684
3	45.08304500579834	fix_pre	0		120	1.0	2.5	/experiments/aot_oldvideos/S_yt-yQrDeFlFmfM_138.mp4	0.0	63.9537558555603	0.9999680519104004
3	45.666516065597534	pulse	0	t		1.0	2.5	/experiments/aot_oldvideos/S_yt-yQrDeFlFmfM_138.mp4	0.0	64.5372269153595	
3	46.08301305770874	movie	1		300	1.0	2.5	/experiments/aot_oldvideos/S_yt-yQrDeFlFmfM_138.mp4	0.0	64.9537239074707	2.500051975250244
3	47.266510009765625	pulse	1	t		1.0	2.5	/experiments/aot_oldvideos/S_yt-yQrDeFlFmfM_138.mp4	0.0	66.13722085952759	
3	48.583065032958984	fix_post	2		12	1.0	2.5	/experiments/aot_oldvideos/S_yt-yQrDeFlFmfM_138.mp4	0.0	67.45377588272095	0.09987211227416992
4	48.682937145233154	fix_pre	0		120	2.0	2.5	/experiments/aot_oldvideos/S_yt-PaxmJhMoP3w_87.mp4	0.0	67.55364799499512	1.0000550746917725
4	48.86646914482117	pulse	0	t		2.0	2.5	/experiments/aot_oldvideos/S_yt-PaxmJhMoP3w_87.mp4	0.0	67.73717999458313	
4	49.68299221992493	movie	1		299	2.0	2.5	/experiments/aot_oldvideos/S_yt-PaxmJhMoP3w_87.mp4	0.0	68.55370306968689	2.4999868869781494
4	50.46643805503845	pulse	1	t		2.0	2.5	/experiments/aot_oldvideos/S_yt-PaxmJhMoP3w_87.mp4	0.0	69.33714890480042	
4	52.06638312339783	pulse	1	t		2.0	2.5	/experiments/aot_oldvideos/S_yt-PaxmJhMoP3w_87.mp4	0.0	70.93709397315979	
4	52.182979106903076	fix_post	2		12	2.0	2.5	/experiments/aot_oldvideos/S_yt-PaxmJhMoP3w_87.mp4	0.0	71.05368995666504	0.10004591941833496
5	52.28302502632141	fix_pre	0		120	3.0	2.5	/experiments/aot_oldvideos/S_yt-QqSceHxY3d0_356.mp4	0.0	71.15373587608337	0.999993085861206
5	53.28301811218262	movie	1		300	3.0	2.5	/experiments/aot_oldvideos/S_yt-QqSceHxY3d0_356.mp4	0.0	72.15372896194458	2.4998700618743896
5	53.66646909713745	pulse	1	t		3.0	2.5	/experiments/aot_oldvideos/S_yt-QqSceHxY3d0_356.mp4	0.0	72.53717994689941	
5	55.2663311958313	pulse	1	t		3.0	2.5	/experiments/aot_oldvideos/S_yt-QqSceHxY3d0_356.mp4	0.0	74.13704204559326	
5	55.78288817405701	fix_post	2		12	3.0	2.5	/experiments/aot_oldvideos/S_yt-QqSceHxY3d0_356.mp4	0.0	74.65359902381897	0.10013103485107422
6	55.88301920890808	fix_pre	0		119	4.0	2.5	/experiments/aot_oldvideos/S_yt-Wr5vs_0Iypw_161.mp4	0.0	74.75373005867004	0.99161696434021
6	56.86646318435669	pulse	0	t		4.0	2.5	/experiments/aot_oldvideos/S_yt-Wr5vs_0Iypw_161.mp4	0.0	75.73717403411865	
6	56.87463617324829	movie	1		301	4.0	2.5	/experiments/aot_oldvideos/S_yt-Wr5vs_0Iypw_161.mp4	0.0	75.74534702301025	2.5083060264587402
6	58.4663770198822	pulse	1	t		4.0	2.5	/experiments/aot_oldvideos/S_yt-Wr5vs_0Iypw_161.mp4	0.0	77.33708786964417	
6	59.38294219970703	fix_post	2		12	4.0	2.5	/experiments/aot_oldvideos/S_yt-Wr5vs_0Iypw_161.mp4	0.0	78.253653049469	0.10005998611450195
7	59.48300218582153	fix_pre	0		120	5.0	2.5	/experiments/aot_oldvideos/S_yt-bwSRV1Vr21s_435.mp4	0.0	78.3537130355835	0.9998910427093506
7	60.066429138183594	pulse	0	t		5.0	2.5	/experiments/aot_oldvideos/S_yt-bwSRV1Vr21s_435.mp4	0.0	78.93713998794556	
7	60.482893228530884	movie	1		300	5.0	2.5	/experiments/aot_oldvideos/S_yt-bwSRV1Vr21s_435.mp4	0.0	79.35360407829285	2.500333786010742
7	61.66596817970276	pulse	1	t		5.0	2.5	/experiments/aot_oldvideos/S_yt-bwSRV1Vr21s_435.mp4	0.0	80.53667902946472	
7	62.983227014541626	fix_post	2		12	5.0	2.5	/experiments/aot_oldvideos/S_yt-bwSRV1Vr21s_435.mp4	0.0	81.85393786430359	0.09954214096069336
8	63.08276915550232	fix_pre	0		120	6.0	2.5	/experiments/aot_oldvideos/S_yt-LB9LoYfH_EA_15.mp4	0.0	81.95348000526428	1.0001599788665771
8	63.266425132751465	pulse	0	t		6.0	2.5	/experiments/aot_oldvideos/S_yt-LB9LoYfH_EA_15.mp4	0.0	82.13713598251343	
8	64.0829291343689	movie	1		300	6.0	2.5	/experiments/aot_oldvideos/S_yt-LB9LoYfH_EA_15.mp4	0.0	82.95363998413086	2.4999349117279053
8	64.8664071559906	pulse	1	t		6.0	2.5	/experiments/aot_oldvideos/S_yt-LB9LoYfH_EA_15.mp4	0.0	83.73711800575256	
8	66.46632623672485	pulse	1	t		6.0	2.5	/experiments/aot_oldvideos/S_yt-LB9LoYfH_EA_15.mp4	0.0	85.33703708648682	
8	66.5828640460968	fix_post	2		12	6.0	2.5	/experiments/aot_oldvideos/S_yt-LB9LoYfH_EA_15.mp4	0.0	85.45357489585876	0.09998607635498047
9	66.68285012245178	fix_pre	0		120	7.0	2.5	blank	1.0	85.55356097221375	1.0000410079956055
9	67.68289113044739	movie	1		300	7.0	2.5	blank	1.0	86.55360198020935	2.499974012374878
9	68.06640315055847	pulse	1	t		7.0	2.5	blank	1.0	86.93711400032043	
9	69.66633105278015	pulse	1	t		7.0	2.5	blank	1.0	88.53704190254211	
9	70.18286514282227	fix_post	2		12	7.0	2.5	blank	1.0	89.05357599258423	0.09998488426208496
10	70.28285002708435	fix_pre	0		119	8.0	2.5	blank	1.0	89.15356087684631	0.9916131496429443
10	71.26625800132751	pulse	0	t		8.0	2.5	blank	1.0	90.13696885108948	
10	71.2744631767273	movie	1		301	8.0	2.5	blank	1.0	90.14517402648926	2.5083229541778564
10	72.86629009246826	pulse	1	t		8.0	2.5	blank	1.0	91.73700094223022	
10	73.78278613090515	fix_post	2		12	8.0	2.5	blank	1.0	92.65349698066711	0.10004091262817383
11	73.88282704353333	fix_pre	0		120	9.0	2.5	/experiments/aot_oldvideos/S_yt-aSEKRE_FNaI_62.mp4	0.0	92.75353789329529	1.0000410079956055
11	74.46628904342651	pulse	0	t		9.0	2.5	/experiments/aot_oldvideos/S_yt-aSEKRE_FNaI_62.mp4	0.0	93.33699989318848	
11	74.88286805152893	movie	1		300	9.0	2.5	/experiments/aot_oldvideos/S_yt-aSEKRE_FNaI_62.mp4	0.0	93.7535789012909	2.4999840259552
11	76.06632423400879	pulse	1	t		9.0	2.5	/experiments/aot_oldvideos/S_yt-aSEKRE_FNaI_62.mp4	0.0	94.93703508377075	
11	77.38285207748413	fix_post	2		12	9.0	2.5	/experiments/aot_oldvideos/S_yt-aSEKRE_FNaI_62.mp4	0.0	96.2535629272461	0.09993815422058105
12	77.48279023170471	fix_pre	0		120	10.0	2.5	/experiments/aot_oldvideos/S_yt-O4wUEZwHLyI_114.mp4	0.0	96.35350108146667	0.9999837875366211
12	77.66636419296265	pulse	0	t		10.0	2.5	/experiments/aot_oldvideos/S_yt-O4wUEZwHLyI_114.mp4	0.0	96.53707504272461	
12	78.48277401924133	movie	1		300	10.0	2.5	/experiments/aot_oldvideos/S_yt-O4wUEZwHLyI_114.mp4	0.0	97.3534848690033	2.5000531673431396
12	79.26634907722473	pulse	1	t		10.0	2.5	/experiments/aot_oldvideos/S_yt-O4wUEZwHLyI_114.mp4	0.0	98.1370599269867	
12	80.86628723144531	pulse	1	t		10.0	2.5	/experiments/aot_oldvideos/S_yt-O4wUEZwHLyI_114.mp4	0.0	99.73699808120728	
12	80.98282718658447	fix_post	2		12	10.0	2.5	/experiments/aot_oldvideos/S_yt-O4wUEZwHLyI_114.mp4	0.0	99.85353803634644	0.09999299049377441
13	81.08282017707825	fix_pre	0		120	11.0	2.5	blank	1.0	99.95353102684021	0.9999408721923828
13	82.08276104927063	movie	1		300	11.0	2.5	blank	1.0	100.95347189903259	2.5000979900360107
13	82.46630001068115	pulse	1	t		11.0	2.5	blank	1.0	101.33701086044312	
13	84.06630611419678	pulse	1	t		11.0	2.5	blank	1.0	102.93701696395874	
13	84.58285903930664	fix_post	2		12	11.0	2.5	blank	1.0	103.4535698890686	0.09987497329711914
14	84.68273401260376	fix_pre	0		119	12.0	2.5	/experiments/aot_oldvideos/S_yt-iO0efV_PV-k_102.mp4	0.0	103.55344486236572	0.9916911125183105
14	85.6663122177124	pulse	0	t		12.0	2.5	/experiments/aot_oldvideos/S_yt-iO0efV_PV-k_102.mp4	0.0	104.53702306747437	
14	85.67442512512207	movie	1		301	12.0	2.5	/experiments/aot_oldvideos/S_yt-iO0efV_PV-k_102.mp4	0.0	104.54513597488403	2.508344888687134
14	87.26622414588928	pulse	1	t		12.0	2.5	/experiments/aot_oldvideos/S_yt-iO0efV_PV-k_102.mp4	0.0	106.13693499565125	
14	88.1827700138092	fix_post	2		12	12.0	2.5	/experiments/aot_oldvideos/S_yt-iO0efV_PV-k_102.mp4	0.0	107.05348086357117	0.09999799728393555
15	88.28276801109314	fix_pre	0		120	13.0	2.5	/experiments/aot_oldvideos/S_yt-54kx8P3L1ns_6.mp4	0.0	107.1534788608551	1.00002121925354
15	88.86630821228027	pulse	0	t		13.0	2.5	/experiments/aot_oldvideos/S_yt-54kx8P3L1ns_6.mp4	0.0	107.73701906204224	
15	89.28278923034668	movie	1		300	13.0	2.5	/experiments/aot_oldvideos/S_yt-54kx8P3L1ns_6.mp4	0.0	108.15350008010864	2.5000147819519043
15	90.46631121635437	pulse	1	t		13.0	2.5	/experiments/aot_oldvideos/S_yt-54kx8P3L1ns_6.mp4	0.0	109.33702206611633	
15	91.78280401229858	fix_post	2		12	13.0	2.5	/experiments/aot_oldvideos/S_yt-54kx8P3L1ns_6.mp4	0.0	110.65351486206055	0.10000419616699219
16	91.88280820846558	fix_pre	0		120	14.0	2.5	/experiments/aot_oldvideos/S_Pexels_Videos_2786546.mp4	0.0	110.75351905822754	1.0000360012054443
16	92.06628608703613	pulse	0	t		14.0	2.5	/experiments/aot_oldvideos/S_Pexels_Videos_2786546.mp4	0.0	110.9369969367981	
16	92.88284420967102	movie	1		162	14.0	2.5	/experiments/aot_oldvideos/S_Pexels_Videos_2786546.mp4	0.0	111.75355505943298	2.4999279975891113
16	93.66630005836487	pulse	1	t		14.0	2.5	/experiments/aot_oldvideos/S_Pexels_Videos_2786546.mp4	0.0	112.53701090812683	
16	95.26583218574524	pulse	1	t		14.0	2.5	/experiments/aot_oldvideos/S_Pexels_Videos_2786546.mp4	0.0	114.1365430355072	
16	95.38277220726013	fix_post	2		12	14.0	2.5	/experiments/aot_oldvideos/S_Pexels_Videos_2786546.mp4	0.0	114.2534830570221	0.0999448299407959
17	95.48271703720093	fix_pre	0		120	15.0	2.5	blank	1.0	114.35342788696289	0.9999961853027344
17	96.48271322250366	movie	1		300	15.0	2.5	blank	1.0	115.35342407226562	2.5000879764556885
17	96.86624217033386	pulse	1	t		15.0	2.5	blank	1.0	115.73695302009583	
17	98.46621608734131	pulse	1	t		15.0	2.5	blank	1.0	117.33692693710327	
17	98.98280119895935	fix_post	2		12	15.0	2.5	blank	1.0	117.85351204872131	0.0999908447265625
18	99.08279204368591	fix_pre	0		119	16.0	2.5	/experiments/aot_oldvideos/S_ILSVRC2015_train_00165008.mp4	0.0	117.95350289344788	0.9916691780090332
18	100.0662271976471	pulse	0	t		16.0	2.5	/experiments/aot_oldvideos/S_ILSVRC2015_train_00165008.mp4	0.0	118.93693804740906	
18	100.07446122169495	movie	1		301	16.0	2.5	/experiments/aot_oldvideos/S_ILSVRC2015_train_00165008.mp4	0.0	118.94517207145691	2.508314847946167
18	101.66628408432007	pulse	1	t		16.0	2.5	/experiments/aot_oldvideos/S_ILSVRC2015_train_00165008.mp4	0.0	120.53699493408203	
18	102.58277606964111	fix_post	2		12	16.0	2.5	/experiments/aot_oldvideos/S_ILSVRC2015_train_00165008.mp4	0.0	121.45348691940308	0.09988999366760254
19	102.68266606330872	fix_pre	0		120	17.0	2.5	/experiments/aot_oldvideos/S_yt-b7JAHOeiTqU_44.mp4	0.0	121.55337691307068	1.0001370906829834
19	103.2662901878357	pulse	0	t		17.0	2.5	/experiments/aot_oldvideos/S_yt-b7JAHOeiTqU_44.mp4	0.0	122.13700103759766	
19	103.6828031539917	movie	1		300	17.0	2.5	/experiments/aot_oldvideos/S_yt-b7JAHOeiTqU_44.mp4	0.0	122.55351400375366	2.4999489784240723
19	104.86622500419617	pulse	1	t		17.0	2.5	/experiments/aot_oldvideos/S_yt-b7JAHOeiTqU_44.mp4	0.0	123.73693585395813	
19	106.18275213241577	fix_post	2		12	17.0	2.5	/experiments/aot_oldvideos/S_yt-b7JAHOeiTqU_44.mp4	0.0	125.05346298217773	0.10018801689147949
20	106.28294014930725	fix_pre	0		120	18.0	2.5	blank	1.0	125.15365099906921	0.9997379779815674
20	106.46642017364502	pulse	0	t		18.0	2.5	blank	1.0	125.33713102340698	
20	107.28267812728882	movie	1		300	18.0	2.5	blank	1.0	126.15338897705078	2.499974012374878
20	108.06616616249084	pulse	1	t		18.0	2.5	blank	1.0	126.93687701225281	
20	109.66620206832886	pulse	1	t		18.0	2.5	blank	1.0	128.53691291809082	
20	109.7826521396637	fix_post	2		12	18.0	2.5	blank	1.0	128.65336298942566	0.09997296333312988
21	109.88262510299683	fix_pre	0		120	19.0	2.5	/experiments/aot_oldvideos/S_ILSVRC2015_train_00569003.mp4	0.0	128.7533359527588	1.0000700950622559
21	110.88269519805908	movie	1		299	19.0	2.5	/experiments/aot_oldvideos/S_ILSVRC2015_train_00569003.mp4	0.0	129.75340604782104	2.50003981590271
21	111.26617002487183	pulse	1	t		19.0	2.5	/experiments/aot_oldvideos/S_ILSVRC2015_train_00569003.mp4	0.0	130.1368808746338	
21	112.86619114875793	pulse	1	t		19.0	2.5	/experiments/aot_oldvideos/S_ILSVRC2015_train_00569003.mp4	0.0	131.7369019985199	
21	113.38273501396179	fix_post	2		12	19.0	2.5	/experiments/aot_oldvideos/S_ILSVRC2015_train_00569003.mp4	0.0	132.25344586372375	0.09989213943481445
22	113.4826271533966	fix_pre	0		119	20.0	2.5	/experiments/aot_oldvideos/S_yt-TxU1H5A6BaQ_52.mp4	0.0	132.35333800315857	0.9918198585510254
22	114.46617722511292	pulse	0	t		20.0	2.5	/experiments/aot_oldvideos/S_yt-TxU1H5A6BaQ_52.mp4	0.0	133.33688807487488	
22	114.47444701194763	movie	1		301	20.0	2.5	/experiments/aot_oldvideos/S_yt-TxU1H5A6BaQ_52.mp4	0.0	133.3451578617096	2.5078041553497314
22	116.06570410728455	pulse	1	t		20.0	2.5	/experiments/aot_oldvideos/S_yt-TxU1H5A6BaQ_52.mp4	0.0	134.9364149570465	
22	116.98225116729736	fix_post	2		12	20.0	2.5	/experiments/aot_oldvideos/S_yt-TxU1H5A6BaQ_52.mp4	0.0	135.85296201705933	0.09997797012329102
23	117.08222913742065	fix_pre	0		120	21.0	2.5	blank	1.0	135.95293998718262	1.0005979537963867
23	117.6658890247345	pulse	0	t		21.0	2.5	blank	1.0	136.53659987449646	
23	118.08282709121704	movie	1		300	21.0	2.5	blank	1.0	136.953537940979	2.4998250007629395
23	119.26603412628174	pulse	1	t		21.0	2.5	blank	1.0	138.1367449760437	
23	120.58265209197998	fix_post	2		12	21.0	2.5	blank	1.0	139.45336294174194	0.09998893737792969
24	120.68264102935791	fix_pre	0		120	22.0	2.5	/experiments/aot_oldvideos/S_yt-gmiyqQDGN78_7.mp4	0.0	139.55335187911987	0.9996500015258789
24	120.8661880493164	pulse	0	t		22.0	2.5	/experiments/aot_oldvideos/S_yt-gmiyqQDGN78_7.mp4	0.0	139.73689889907837	
24	121.68229103088379	movie	1		300	22.0	2.5	/experiments/aot_oldvideos/S_yt-gmiyqQDGN78_7.mp4	0.0	140.55300188064575	2.5002830028533936
24	122.46610713005066	pulse	1	t		22.0	2.5	/experiments/aot_oldvideos/S_yt-gmiyqQDGN78_7.mp4	0.0	141.33681797981262	
24	124.06604218482971	pulse	1	t		22.0	2.5	/experiments/aot_oldvideos/S_yt-gmiyqQDGN78_7.mp4	0.0	142.93675303459167	
24	124.18257403373718	fix_post	2		12	22.0	2.5	/experiments/aot_oldvideos/S_yt-gmiyqQDGN78_7.mp4	0.0	143.05328488349915	0.09996914863586426
25	124.28254318237305	fix_pre	0		120	23.0	2.5	/experiments/aot_oldvideos/S_yt-MTo50ReVNmU_2.mp4	0.0	143.153254032135	1.0000178813934326
25	125.28256106376648	movie	1		299	23.0	2.5	/experiments/aot_oldvideos/S_yt-MTo50ReVNmU_2.mp4	0.0	144.15327191352844	2.5000109672546387
25	125.66602301597595	pulse	1	t		23.0	2.5	/experiments/aot_oldvideos/S_yt-MTo50ReVNmU_2.mp4	0.0	144.53673386573792	
25	127.26605200767517	pulse	1	t		23.0	2.5	/experiments/aot_oldvideos/S_yt-MTo50ReVNmU_2.mp4	0.0	146.13676285743713	
25	127.78257203102112	fix_post	2		12	23.0	2.5	/experiments/aot_oldvideos/S_yt-MTo50ReVNmU_2.mp4	0.0	146.65328288078308	0.09998607635498047
26	127.8825581073761	fix_pre	0		119	24.0	2.5	/experiments/aot_oldvideos/S_yt-aiWUhl8MCto_71.mp4	0.0	146.75326895713806	0.9917209148406982
26	128.86611008644104	pulse	0	t		24.0	2.5	/experiments/aot_oldvideos/S_yt-aiWUhl8MCto_71.mp4	0.0	147.736820936203	
26	128.8742790222168	movie	1		301	24.0	2.5	/experiments/aot_oldvideos/S_yt-aiWUhl8MCto_71.mp4	0.0	147.74498987197876	2.508263111114502
26	130.46610713005066	pulse	1	t		24.0	2.5	/experiments/aot_oldvideos/S_yt-aiWUhl8MCto_71.mp4	0.0	149.33681797981262	
26	131.3825421333313	fix_post	2		12	24.0	2.5	/experiments/aot_oldvideos/S_yt-aiWUhl8MCto_71.mp4	0.0	150.25325298309326	0.09998202323913574
27	131.48252415657043	fix_pre	0		120	25.0	2.5	/experiments/aot_oldvideos/S_yt-AuQ_WxaNy4Y_255.mp4	0.0	150.3532350063324	0.999985933303833
27	132.0660741329193	pulse	0	t		25.0	2.5	/experiments/aot_oldvideos/S_yt-AuQ_WxaNy4Y_255.mp4	0.0	150.93678498268127	
27	132.48251008987427	movie	1		300	25.0	2.5	/experiments/aot_oldvideos/S_yt-AuQ_WxaNy4Y_255.mp4	0.0	151.35322093963623	2.499969959259033
27	133.66601300239563	pulse	1	t		25.0	2.5	/experiments/aot_oldvideos/S_yt-AuQ_WxaNy4Y_255.mp4	0.0	152.5367238521576	
27	134.9824800491333	fix_post	2		12	25.0	2.5	/experiments/aot_oldvideos/S_yt-AuQ_WxaNy4Y_255.mp4	0.0	153.85319089889526	0.10002708435058594
28	135.0825071334839	fix_pre	0		120	26.0	2.5	blank	1.0	153.95321798324585	0.9999558925628662
28	135.26602411270142	pulse	0	t		26.0	2.5	blank	1.0	154.13673496246338	
28	136.08246302604675	movie	1		300	26.0	2.5	blank	1.0	154.95317387580872	2.5001280307769775
28	136.86599802970886	pulse	1	t		26.0	2.5	blank	1.0	155.73670887947083	
28	138.4659562110901	pulse	1	t		26.0	2.5	blank	1.0	157.33666706085205	
28	138.58259105682373	fix_post	2		12	26.0	2.5	blank	1.0	157.4533019065857	0.09990906715393066
29	138.68250012397766	fix_pre	0		120	27.0	2.5	/experiments/aot_oldvideos/S_yt-6mRpmfIvdew_1435.mp4	0.0	157.55321097373962	1.0000300407409668
29	139.68253016471863	movie	1		300	27.0	2.5	/experiments/aot_oldvideos/S_yt-6mRpmfIvdew_1435.mp4	0.0	158.5532410144806	2.499955892562866
29	140.06602907180786	pulse	1	t		27.0	2.5	/experiments/aot_oldvideos/S_yt-6mRpmfIvdew_1435.mp4	0.0	158.93673992156982	
29	141.66602110862732	pulse	1	t		27.0	2.5	/experiments/aot_oldvideos/S_yt-6mRpmfIvdew_1435.mp4	0.0	160.53673195838928	
29	142.1824860572815	fix_post	2		12	27.0	2.5	/experiments/aot_oldvideos/S_yt-6mRpmfIvdew_1435.mp4	0.0	161.05319690704346	0.10004496574401855
30	142.2825310230255	fix_pre	0		119	28.0	2.5	/experiments/aot_oldvideos/S_production_ID_4802710.mp4	0.0	161.15324187278748	0.9916801452636719
30	143.26599717140198	pulse	0	t		28.0	2.5	/experiments/aot_oldvideos/S_production_ID_4802710.mp4	0.0	162.13670802116394	
30	143.27421116828918	movie	1		164	28.0	2.5	/experiments/aot_oldvideos/S_production_ID_4802710.mp4	0.0	162.14492201805115	2.5083160400390625
30	144.86568307876587	pulse	1	t		28.0	2.5	/experiments/aot_oldvideos/S_production_ID_4802710.mp4	0.0	163.73639392852783	
30	145.78252720832825	fix_post	2		12	28.0	2.5	/experiments/aot_oldvideos/S_production_ID_4802710.mp4	0.0	164.6532380580902	0.10005784034729004
31	145.88258504867554	fix_pre	0		120	29.0	2.5	blank	1.0	164.7532958984375	0.9999871253967285
31	146.46599817276	pulse	0	t		29.0	2.5	blank	1.0	165.33670902252197	
31	146.88257217407227	movie	1		300	29.0	2.5	blank	1.0	165.75328302383423	2.4999358654022217
31	148.0660011768341	pulse	1	t		29.0	2.5	blank	1.0	166.93671202659607	
31	149.3825080394745	fix_post	2		12	29.0	2.5	blank	1.0	168.25321888923645	0.09998416900634766
32	149.48249220848083	fix_pre	0		120	30.0	2.5	/experiments/aot_oldvideos/S_yt-RO4mhuXBVrY_67.mp4	0.0	168.3532030582428	1.0002079010009766
32	149.66599822044373	pulse	0	t		30.0	2.5	/experiments/aot_oldvideos/S_yt-RO4mhuXBVrY_67.mp4	0.0	168.5367090702057	
32	150.4827001094818	movie	1		300	30.0	2.5	/experiments/aot_oldvideos/S_yt-RO4mhuXBVrY_67.mp4	0.0	169.35341095924377	2.499358892440796
32	151.265949010849	pulse	1	t		30.0	2.5	/experiments/aot_oldvideos/S_yt-RO4mhuXBVrY_67.mp4	0.0	170.13665986061096	
32	152.86552715301514	pulse	1	t		30.0	2.5	/experiments/aot_oldvideos/S_yt-RO4mhuXBVrY_67.mp4	0.0	171.7362380027771	
32	152.9820590019226	fix_post	2		12	30.0	2.5	/experiments/aot_oldvideos/S_yt-RO4mhuXBVrY_67.mp4	0.0	171.85276985168457	0.10040712356567383
33	153.08246612548828	fix_pre	0		120	31.0	2.5	/experiments/aot_oldvideos/S_production_ID_3712945.mp4	0.0	171.95317697525024	1.0000009536743164
33	154.0824670791626	movie	1		163	31.0	2.5	/experiments/aot_oldvideos/S_production_ID_3712945.mp4	0.0	172.95317792892456	2.4999849796295166
33	154.46603512763977	pulse	1	t		31.0	2.5	/experiments/aot_oldvideos/S_production_ID_3712945.mp4	0.0	173.33674597740173	
33	156.06600403785706	pulse	1	t		31.0	2.5	/experiments/aot_oldvideos/S_production_ID_3712945.mp4	0.0	174.93671488761902	
33	156.58245205879211	fix_post	2		12	31.0	2.5	/experiments/aot_oldvideos/S_production_ID_3712945.mp4	0.0	175.45316290855408	0.09993815422058105
34	156.6823902130127	fix_pre	0		119	32.0	2.5	/experiments/aot_oldvideos/S_Nh81j72Utbs_5.mp4	0.0	175.55310106277466	0.9917299747467041
34	157.66603302955627	pulse	0	t		32.0	2.5	/experiments/aot_oldvideos/S_Nh81j72Utbs_5.mp4	0.0	176.53674387931824	
34	157.6741201877594	movie	1		301	32.0	2.5	/experiments/aot_oldvideos/S_Nh81j72Utbs_5.mp4	0.0	176.54483103752136	2.5083389282226562
34	159.2660210132599	pulse	1	t		32.0	2.5	/experiments/aot_oldvideos/S_Nh81j72Utbs_5.mp4	0.0	178.13673186302185	
34	160.18245911598206	fix_post	2		12	32.0	2.5	/experiments/aot_oldvideos/S_Nh81j72Utbs_5.mp4	0.0	179.05316996574402	0.09997296333312988
35	160.28243207931519	fix_pre	0		120	33.0	2.5	/experiments/aot_oldvideos/S_yt-ieA3XwoSko4_98.mp4	0.0	179.15314292907715	1.000054121017456
35	160.8658480644226	pulse	0	t		33.0	2.5	/experiments/aot_oldvideos/S_yt-ieA3XwoSko4_98.mp4	0.0	179.73655891418457	
35	161.28248620033264	movie	1		300	33.0	2.5	/experiments/aot_oldvideos/S_yt-ieA3XwoSko4_98.mp4	0.0	180.1531970500946	2.4999239444732666
35	162.46586108207703	pulse	1	t		33.0	2.5	/experiments/aot_oldvideos/S_yt-ieA3XwoSko4_98.mp4	0.0	181.336571931839	
35	163.7824101448059	fix_post	2		12	33.0	2.5	/experiments/aot_oldvideos/S_yt-ieA3XwoSko4_98.mp4	0.0	182.65312099456787	0.10004687309265137
36	163.88245701789856	fix_pre	0		120	34.0	2.5	/experiments/aot_oldvideos/S_yt-OFnDCbW9Ebo_31.mp4	0.0	182.75316786766052	0.9999911785125732
36	164.06597423553467	pulse	0	t		34.0	2.5	/experiments/aot_oldvideos/S_yt-OFnDCbW9Ebo_31.mp4	0.0	182.93668508529663	
36	164.88244819641113	movie	1		299	34.0	2.5	/experiments/aot_oldvideos/S_yt-OFnDCbW9Ebo_31.mp4	0.0	183.7531590461731	2.4999289512634277
36	165.6658821105957	pulse	1	t		34.0	2.5	/experiments/aot_oldvideos/S_yt-OFnDCbW9Ebo_31.mp4	0.0	184.53659296035767	
36	167.26540517807007	pulse	1	t		34.0	2.5	/experiments/aot_oldvideos/S_yt-OFnDCbW9Ebo_31.mp4	0.0	186.13611602783203	
36	167.38237714767456	fix_post	2		12	34.0	2.5	/experiments/aot_oldvideos/S_yt-OFnDCbW9Ebo_31.mp4	0.0	186.25308799743652	0.09998893737792969
37	167.4823660850525	fix_pre	0		120	35.0	2.5	/experiments/aot_oldvideos/S_yt-PCSXJ5YB_AE_3.mp4	0.0	186.35307693481445	1.0001261234283447
37	168.48249220848083	movie	1		299	35.0	2.5	/experiments/aot_oldvideos/S_yt-PCSXJ5YB_AE_3.mp4	0.0	187.3532030582428	2.49992299079895
37	168.86590218544006	pulse	1	t		35.0	2.5	/experiments/aot_oldvideos/S_yt-PCSXJ5YB_AE_3.mp4	0.0	187.73661303520203	
37	170.46584701538086	pulse	1	t		35.0	2.5	/experiments/aot_oldvideos/S_yt-PCSXJ5YB_AE_3.mp4	0.0	189.33655786514282	
37	170.98241519927979	fix_post	2		12	35.0	2.5	/experiments/aot_oldvideos/S_yt-PCSXJ5YB_AE_3.mp4	0.0	189.85312604904175	0.10013890266418457
38	171.08255410194397	fix_pre	0		119	36.0	2.5	blank	1.0	189.95326495170593	0.9914860725402832
38	172.06587719917297	pulse	0	t		36.0	2.5	blank	1.0	190.93658804893494	
38	172.07404017448425	movie	1		301	36.0	2.5	blank	1.0	190.94475102424622	2.5086288452148438
38	173.66563200950623	pulse	1	t		36.0	2.5	blank	1.0	192.5363428592682	
38	174.5826690196991	fix_post	2		12	36.0	2.5	blank	1.0	193.45337986946106	0.09995508193969727
39	174.6826241016388	fix_pre	0		120	37.0	2.5	/experiments/aot_oldvideos/S_production_ID_5119260.mp4	0.0	193.55333495140076	0.999812126159668
39	175.26577806472778	pulse	0	t		37.0	2.5	/experiments/aot_oldvideos/S_production_ID_5119260.mp4	0.0	194.13648891448975	
39	175.68243622779846	movie	1		161	37.0	2.5	/experiments/aot_oldvideos/S_production_ID_5119260.mp4	0.0	194.55314707756042	2.4999618530273438
39	176.86594104766846	pulse	1	t		37.0	2.5	/experiments/aot_oldvideos/S_production_ID_5119260.mp4	0.0	195.73665189743042	
39	178.1823980808258	fix_post	2		12	37.0	2.5	/experiments/aot_oldvideos/S_production_ID_5119260.mp4	0.0	197.05310893058777	0.10002398490905762
40	178.28242206573486	fix_pre	0		120	38.0	2.5	/experiments/aot_oldvideos/S_yt-HwEfWfFJhRo_73.mp4	0.0	197.15313291549683	0.9999599456787109
40	178.4658670425415	pulse	0	t		38.0	2.5	/experiments/aot_oldvideos/S_yt-HwEfWfFJhRo_73.mp4	0.0	197.33657789230347	
40	179.28238201141357	movie	1		300	38.0	2.5	/experiments/aot_oldvideos/S_yt-HwEfWfFJhRo_73.mp4	0.0	198.15309286117554	2.5
40	180.06572103500366	pulse	1	t		38.0	2.5	/experiments/aot_oldvideos/S_yt-HwEfWfFJhRo_73.mp4	0.0	198.93643188476562	
40	181.66578817367554	pulse	1	t		38.0	2.5	/experiments/aot_oldvideos/S_yt-HwEfWfFJhRo_73.mp4	0.0	200.5364990234375	
40	181.78238201141357	fix_post	2		12	38.0	2.5	/experiments/aot_oldvideos/S_yt-HwEfWfFJhRo_73.mp4	0.0	200.65309286117554	0.09990501403808594
41	181.88228702545166	fix_pre	0		120	39.0	2.5	/experiments/aot_oldvideos/S_yt-6vkiJedss6g_5.mp4	0.0	200.75299787521362	1.0000660419464111
41	182.88235306739807	movie	1		300	39.0	2.5	/experiments/aot_oldvideos/S_yt-6vkiJedss6g_5.mp4	0.0	201.75306391716003	2.49995493888855
41	183.26576900482178	pulse	1	t		39.0	2.5	/experiments/aot_oldvideos/S_yt-6vkiJedss6g_5.mp4	0.0	202.13647985458374	
41	184.86575603485107	pulse	1	t		39.0	2.5	/experiments/aot_oldvideos/S_yt-6vkiJedss6g_5.mp4	0.0	203.73646688461304	
41	185.38230800628662	fix_post	2		12	39.0	2.5	/experiments/aot_oldvideos/S_yt-6vkiJedss6g_5.mp4	0.0	204.25301885604858	0.09998106956481934
42	185.48228907585144	fix_pre	0		119	40.0	2.5	/experiments/aot_oldvideos/S_yt-hTkrnNr39dk_202.mp4	0.0	204.3529999256134	0.9916970729827881
42	186.46585321426392	pulse	0	t		40.0	2.5	/experiments/aot_oldvideos/S_yt-hTkrnNr39dk_202.mp4	0.0	205.33656406402588	
42	186.47398614883423	movie	1		301	40.0	2.5	/experiments/aot_oldvideos/S_yt-hTkrnNr39dk_202.mp4	0.0	205.3446969985962	2.5082929134368896
42	188.0657501220703	pulse	1	t		40.0	2.5	/experiments/aot_oldvideos/S_yt-hTkrnNr39dk_202.mp4	0.0	206.93646097183228	
42	188.98227906227112	fix_post	2		12	40.0	2.5	/experiments/aot_oldvideos/S_yt-hTkrnNr39dk_202.mp4	0.0	207.85298991203308	0.09999299049377441
43	189.0822720527649	fix_pre	0		120	41.0	2.5	/experiments/aot_oldvideos/S_pexels-kelly-lacy-6756531.mp4	0.0	207.95298290252686	0.9999749660491943
43	189.66576504707336	pulse	0	t		41.0	2.5	/experiments/aot_oldvideos/S_pexels-kelly-lacy-6756531.mp4	0.0	208.53647589683533	
43	190.0822470188141	movie	1		164	41.0	2.5	/experiments/aot_oldvideos/S_pexels-kelly-lacy-6756531.mp4	0.0	208.95295786857605	2.500040054321289
43	191.26592206954956	pulse	1	t		41.0	2.5	/experiments/aot_oldvideos/S_pexels-kelly-lacy-6756531.mp4	0.0	210.13663291931152	
43	192.58228707313538	fix_post	2		12	41.0	2.5	/experiments/aot_oldvideos/S_pexels-kelly-lacy-6756531.mp4	0.0	211.45299792289734	0.09998893737792969
44	192.6822760105133	fix_pre	0		120	42.0	2.5	/experiments/aot_oldvideos/S_yt-c-H45QS0CF4_147.mp4	0.0	211.55298686027527	1.0000791549682617
44	192.86577200889587	pulse	0	t		42.0	2.5	/experiments/aot_oldvideos/S_yt-c-H45QS0CF4_147.mp4	0.0	211.73648285865784	
44	193.68235516548157	movie	1		300	42.0	2.5	/experiments/aot_oldvideos/S_yt-c-H45QS0CF4_147.mp4	0.0	212.55306601524353	2.499850034713745
44	194.46591806411743	pulse	1	t		42.0	2.5	/experiments/aot_oldvideos/S_yt-c-H45QS0CF4_147.mp4	0.0	213.3366289138794	
44	196.06632900238037	pulse	1	t		42.0	2.5	/experiments/aot_oldvideos/S_yt-c-H45QS0CF4_147.mp4	0.0	214.93703985214233	
44	196.1822052001953	fix_post	2		12	42.0	2.5	/experiments/aot_oldvideos/S_yt-c-H45QS0CF4_147.mp4	0.0	215.05291604995728	0.10003995895385742
45	196.28224515914917	fix_pre	0		120	43.0	2.5	/experiments/aot_oldvideos/S_yt-EvKV7iY1_HM_193.mp4	0.0	215.15295600891113	0.9999918937683105
45	197.28223705291748	movie	1		299	43.0	2.5	/experiments/aot_oldvideos/S_yt-EvKV7iY1_HM_193.mp4	0.0	216.15294790267944	2.4999990463256836
45	197.66574716567993	pulse	1	t		43.0	2.5	/experiments/aot_oldvideos/S_yt-EvKV7iY1_HM_193.mp4	0.0	216.5364580154419	
45	199.26575016975403	pulse	1	t		43.0	2.5	/experiments/aot_oldvideos/S_yt-EvKV7iY1_HM_193.mp4	0.0	218.136461019516	
45	199.78223609924316	fix_post	2		12	43.0	2.5	/experiments/aot_oldvideos/S_yt-EvKV7iY1_HM_193.mp4	0.0	218.65294694900513	0.09998512268066406
46	199.88222122192383	fix_pre	0		119	44.0	2.5	/experiments/aot_oldvideos/S_yt-1sn8u-rQRas_7.mp4	0.0	218.7529320716858	0.9916768074035645
46	200.86564707756042	pulse	0	t		44.0	2.5	/experiments/aot_oldvideos/S_yt-1sn8u-rQRas_7.mp4	0.0	219.7363579273224	
46	200.8738980293274	movie	1		301	44.0	2.5	/experiments/aot_oldvideos/S_yt-1sn8u-rQRas_7.mp4	0.0	219.74460887908936	2.5082831382751465
46	202.46582412719727	pulse	1	t		44.0	2.5	/experiments/aot_oldvideos/S_yt-1sn8u-rQRas_7.mp4	0.0	221.33653497695923	
46	203.38218116760254	fix_post	2		12	44.0	2.5	/experiments/aot_oldvideos/S_yt-1sn8u-rQRas_7.mp4	0.0	222.2528920173645	0.10008597373962402
47	203.48226714134216	fix_pre	0		120	45.0	2.5	blank	1.0	222.35297799110413	0.9999558925628662
47	204.06571006774902	pulse	0	t		45.0	2.5	blank	1.0	222.936420917511	
47	204.48222303390503	movie	1		300	45.0	2.5	blank	1.0	223.352933883667	2.499994993209839
47	205.66568517684937	pulse	1	t		45.0	2.5	blank	1.0	224.53639602661133	
47	206.98221802711487	fix_post	2		12	45.0	2.5	blank	1.0	225.85292887687683	0.09993720054626465
48	207.08215522766113	fix_pre	0		120	46.0	2.5	/experiments/aot_oldvideos/S_ILSVRC2015_train_00219004.mp4	0.0	225.9528660774231	1.0000128746032715
48	207.26564812660217	pulse	0	t		46.0	2.5	/experiments/aot_oldvideos/S_ILSVRC2015_train_00219004.mp4	0.0	226.13635897636414	
48	208.0821681022644	movie	1		300	46.0	2.5	/experiments/aot_oldvideos/S_ILSVRC2015_train_00219004.mp4	0.0	226.95287895202637	2.500030994415283
48	208.86568212509155	pulse	1	t		46.0	2.5	/experiments/aot_oldvideos/S_ILSVRC2015_train_00219004.mp4	0.0	227.73639297485352	
48	210.46567606925964	pulse	1	t		46.0	2.5	/experiments/aot_oldvideos/S_ILSVRC2015_train_00219004.mp4	0.0	229.3363869190216	
48	210.5821990966797	fix_post	2		12	46.0	2.5	/experiments/aot_oldvideos/S_ILSVRC2015_train_00219004.mp4	0.0	229.45290994644165	0.09996390342712402
49	210.6821630001068	fix_pre	0		120	47.0	2.5	blank	1.0	229.55287384986877	1.0000121593475342
49	211.68217515945435	movie	1		299	47.0	2.5	blank	1.0	230.5528860092163	2.50004506111145
49	212.06569004058838	pulse	1	t		47.0	2.5	blank	1.0	230.93640089035034	
49	213.66566109657288	pulse	1	t		47.0	2.5	blank	1.0	232.53637194633484	
49	214.1822202205658	fix_post	2		12	47.0	2.5	blank	1.0	233.05293107032776	0.09995889663696289
50	214.28217911720276	fix_pre	0		119	48.0	2.5	/experiments/aot_oldvideos/S_yt-9EnchawJ3pA_90.mp4	0.0	233.15288996696472	0.9915909767150879
50	215.26567220687866	pulse	0	t		48.0	2.5	/experiments/aot_oldvideos/S_yt-9EnchawJ3pA_90.mp4	0.0	234.13638305664062	
50	215.27377009391785	movie	1		301	48.0	2.5	/experiments/aot_oldvideos/S_yt-9EnchawJ3pA_90.mp4	0.0	234.1444809436798	2.5084171295166016
50	216.86577010154724	pulse	1	t		48.0	2.5	/experiments/aot_oldvideos/S_yt-9EnchawJ3pA_90.mp4	0.0	235.7364809513092	
50	217.78218722343445	fix_post	2		12	48.0	2.5	/experiments/aot_oldvideos/S_yt-9EnchawJ3pA_90.mp4	0.0	236.6528980731964	0.10001683235168457
51	217.88220405578613	fix_pre	0		120	49.0	2.5	/experiments/aot_oldvideos/S_yt-Fm97IY0Z2LU_110.mp4	0.0	236.7529149055481	0.9999580383300781
51	218.46554112434387	pulse	0	t		49.0	2.5	/experiments/aot_oldvideos/S_yt-Fm97IY0Z2LU_110.mp4	0.0	237.33625197410583	
51	218.8821620941162	movie	1		300	49.0	2.5	/experiments/aot_oldvideos/S_yt-Fm97IY0Z2LU_110.mp4	0.0	237.75287294387817	2.5000550746917725
51	220.06563806533813	pulse	1	t		49.0	2.5	/experiments/aot_oldvideos/S_yt-Fm97IY0Z2LU_110.mp4	0.0	238.9363489151001	
51	221.38221716880798	fix_post	2		12	49.0	2.5	/experiments/aot_oldvideos/S_yt-Fm97IY0Z2LU_110.mp4	0.0	240.25292801856995	0.0999138355255127
52	221.4821310043335	fix_pre	0		120	50.0	2.5	/experiments/aot_oldvideos/S_yt-JTuopUgmg1w_101.mp4	0.0	240.35284185409546	1.0001001358032227
52	221.6656892299652	pulse	0	t		50.0	2.5	/experiments/aot_oldvideos/S_yt-JTuopUgmg1w_101.mp4	0.0	240.53640007972717	
52	222.48223114013672	movie	1		299	50.0	2.5	/experiments/aot_oldvideos/S_yt-JTuopUgmg1w_101.mp4	0.0	241.35294198989868	2.4995689392089844
52	223.2656090259552	pulse	1	t		50.0	2.5	/experiments/aot_oldvideos/S_yt-JTuopUgmg1w_101.mp4	0.0	242.13631987571716	
52	224.86565017700195	pulse	1	t		50.0	2.5	/experiments/aot_oldvideos/S_yt-JTuopUgmg1w_101.mp4	0.0	243.73636102676392	
52	224.9818000793457	fix_post	2		12	50.0	2.5	/experiments/aot_oldvideos/S_yt-JTuopUgmg1w_101.mp4	0.0	243.85251092910767	0.0999150276184082
53	225.0817151069641	fix_pre	0		120	51.0	2.5	/experiments/aot_oldvideos/S_yt-ibDaDIEazxg_3.mp4	0.0	243.95242595672607	1.0004711151123047
53	226.08218622207642	movie	1		300	51.0	2.5	/experiments/aot_oldvideos/S_yt-ibDaDIEazxg_3.mp4	0.0	244.95289707183838	2.499572992324829
53	226.46570205688477	pulse	1	t		51.0	2.5	/experiments/aot_oldvideos/S_yt-ibDaDIEazxg_3.mp4	0.0	245.33641290664673	
53	228.0651512145996	pulse	1	t		51.0	2.5	/experiments/aot_oldvideos/S_yt-ibDaDIEazxg_3.mp4	0.0	246.93586206436157	
53	228.58175921440125	fix_post	2		12	51.0	2.5	/experiments/aot_oldvideos/S_yt-ibDaDIEazxg_3.mp4	0.0	247.4524700641632	0.10038280487060547
54	228.68214201927185	fix_pre	0		119	52.0	2.5	/experiments/aot_oldvideos/S_ILSVRC2015_train_00067005.mp4	0.0	247.5528528690338	0.9913702011108398
54	229.66532802581787	pulse	0	t		52.0	2.5	/experiments/aot_oldvideos/S_ILSVRC2015_train_00067005.mp4	0.0	248.53603887557983	
54	229.6735122203827	movie	1		301	52.0	2.5	/experiments/aot_oldvideos/S_ILSVRC2015_train_00067005.mp4	0.0	248.54422307014465	2.508161783218384
54	231.26560711860657	pulse	1	t		52.0	2.5	/experiments/aot_oldvideos/S_ILSVRC2015_train_00067005.mp4	0.0	250.13631796836853	
54	232.18167400360107	fix_post	2		12	52.0	2.5	/experiments/aot_oldvideos/S_ILSVRC2015_train_00067005.mp4	0.0	251.05238485336304	0.10045814514160156
55	232.28213214874268	fix_pre	0		120	53.0	2.5	/experiments/aot_oldvideos/S_xq822dX6DDM_1.mp4	0.0	251.15284299850464	0.9999830722808838
55	232.86560106277466	pulse	0	t		53.0	2.5	/experiments/aot_oldvideos/S_xq822dX6DDM_1.mp4	0.0	251.73631191253662	
55	233.28211522102356	movie	1		300	53.0	2.5	/experiments/aot_oldvideos/S_xq822dX6DDM_1.mp4	0.0	252.15282607078552	2.499907970428467
55	234.46572923660278	pulse	1	t		53.0	2.5	/experiments/aot_oldvideos/S_xq822dX6DDM_1.mp4	0.0	253.33644008636475	
55	235.78202319145203	fix_post	2		12	53.0	2.5	/experiments/aot_oldvideos/S_xq822dX6DDM_1.mp4	0.0	254.652734041214	0.10008597373962402
56	235.88210916519165	fix_pre	0		120	54.0	2.5	/experiments/aot_oldvideos/S_yt-qsyDLtXcyHc_8.mp4	0.0	254.7528200149536	1.0000078678131104
56	236.06548810005188	pulse	0	t		54.0	2.5	/experiments/aot_oldvideos/S_yt-qsyDLtXcyHc_8.mp4	0.0	254.93619894981384	
56	236.88211703300476	movie	1		300	54.0	2.5	/experiments/aot_oldvideos/S_yt-qsyDLtXcyHc_8.mp4	0.0	255.75282788276672	2.499886989593506
56	237.66549015045166	pulse	1	t		54.0	2.5	/experiments/aot_oldvideos/S_yt-qsyDLtXcyHc_8.mp4	0.0	256.5362010002136	
56	239.26540422439575	pulse	1	t		54.0	2.5	/experiments/aot_oldvideos/S_yt-qsyDLtXcyHc_8.mp4	0.0	258.1361150741577	
56	239.38200402259827	fix_post	2		12	54.0	2.5	/experiments/aot_oldvideos/S_yt-qsyDLtXcyHc_8.mp4	0.0	258.25271487236023	0.10008406639099121
57	239.48208808898926	fix_pre	0		120	55.0	2.5	/experiments/aot_oldvideos/S_flickr-clarkstonscamp-4863427159_1.mp4	0.0	258.3527989387512	0.9999279975891113
57	240.48201608657837	movie	1		299	55.0	2.5	/experiments/aot_oldvideos/S_flickr-clarkstonscamp-4863427159_1.mp4	0.0	259.35272693634033	2.4999771118164062
57	240.86546921730042	pulse	1	t		55.0	2.5	/experiments/aot_oldvideos/S_flickr-clarkstonscamp-4863427159_1.mp4	0.0	259.7361800670624	
57	242.4655740261078	pulse	1	t		55.0	2.5	/experiments/aot_oldvideos/S_flickr-clarkstonscamp-4863427159_1.mp4	0.0	261.33628487586975	
57	242.98199319839478	fix_post	2		12	55.0	2.5	/experiments/aot_oldvideos/S_flickr-clarkstonscamp-4863427159_1.mp4	0.0	261.85270404815674	0.09999799728393555
58	243.0819911956787	fix_pre	0		119	56.0	2.5	/experiments/aot_oldvideos/S_yt-NZIhxK5NvWE_152.mp4	0.0	261.9527020454407	0.9917969703674316
58	244.06561017036438	pulse	0	t		56.0	2.5	/experiments/aot_oldvideos/S_yt-NZIhxK5NvWE_152.mp4	0.0	262.93632102012634	
58	244.07378816604614	movie	1		301	56.0	2.5	/experiments/aot_oldvideos/S_yt-NZIhxK5NvWE_152.mp4	0.0	262.9444990158081	2.508201837539673
58	245.6655821800232	pulse	1	t		56.0	2.5	/experiments/aot_oldvideos/S_yt-NZIhxK5NvWE_152.mp4	0.0	264.53629302978516	
58	246.58199000358582	fix_post	2		12	56.0	2.5	/experiments/aot_oldvideos/S_yt-NZIhxK5NvWE_152.mp4	0.0	265.4527008533478	0.10006403923034668
59	246.68205404281616	fix_pre	0		120	57.0	2.5	/experiments/aot_oldvideos/S_yt-oxUpc8I5wWQ_238.mp4	0.0	265.5527648925781	1.0000791549682617
59	247.26555609703064	pulse	0	t		57.0	2.5	/experiments/aot_oldvideos/S_yt-oxUpc8I5wWQ_238.mp4	0.0	266.1362669467926	
59	247.68213319778442	movie	1		300	57.0	2.5	/experiments/aot_oldvideos/S_yt-oxUpc8I5wWQ_238.mp4	0.0	266.5528440475464	2.4994189739227295
59	248.8655490875244	pulse	1	t		57.0	2.5	/experiments/aot_oldvideos/S_yt-oxUpc8I5wWQ_238.mp4	0.0	267.7362599372864	
59	250.18155217170715	fix_post	2		12	57.0	2.5	/experiments/aot_oldvideos/S_yt-oxUpc8I5wWQ_238.mp4	0.0	269.0522630214691	0.10040688514709473
60	250.28195905685425	fix_pre	0		120	58.0	2.5	/experiments/aot_oldvideos/S_yt--koo4FOfZE0_86.mp4	0.0	269.1526699066162	1.0000901222229004
60	250.46549701690674	pulse	0	t		58.0	2.5	/experiments/aot_oldvideos/S_yt--koo4FOfZE0_86.mp4	0.0	269.3362078666687	
60	251.28204917907715	movie	1		300	58.0	2.5	/experiments/aot_oldvideos/S_yt--koo4FOfZE0_86.mp4	0.0	270.1527600288391	2.499955892562866
60	252.06549906730652	pulse	1	t		58.0	2.5	/experiments/aot_oldvideos/S_yt--koo4FOfZE0_86.mp4	0.0	270.9362099170685	
60	253.66550207138062	pulse	1	t		58.0	2.5	/experiments/aot_oldvideos/S_yt--koo4FOfZE0_86.mp4	0.0	272.5362129211426	
60	253.78200507164001	fix_post	2		12	58.0	2.5	/experiments/aot_oldvideos/S_yt--koo4FOfZE0_86.mp4	0.0	272.652715921402	0.09992814064025879
61	253.88193321228027	fix_pre	0		120	59.0	2.5	/experiments/aot_oldvideos/S_ILSVRC2015_train_00369004.mp4	0.0	272.75264406204224	1.0000519752502441
61	254.88198518753052	movie	1		300	59.0	2.5	/experiments/aot_oldvideos/S_ILSVRC2015_train_00369004.mp4	0.0	273.7526960372925	2.5000078678131104
61	255.26548314094543	pulse	1	t		59.0	2.5	/experiments/aot_oldvideos/S_ILSVRC2015_train_00369004.mp4	0.0	274.1361939907074	
61	256.8655300140381	pulse	1	t		59.0	2.5	/experiments/aot_oldvideos/S_ILSVRC2015_train_00369004.mp4	0.0	275.73624086380005	
61	257.3819930553436	fix_post	2		12	59.0	2.5	/experiments/aot_oldvideos/S_ILSVRC2015_train_00369004.mp4	0.0	276.2527039051056	0.09989404678344727
62	257.4818871021271	fix_pre	0		119	60.0	2.5	blank	1.0	276.35259795188904	0.9916720390319824
62	258.46537804603577	pulse	0	t		60.0	2.5	blank	1.0	277.33608889579773	
62	258.47355914115906	movie	1		301	60.0	2.5	blank	1.0	277.344269990921	2.5083749294281006
62	260.06542801856995	pulse	1	t		60.0	2.5	blank	1.0	278.9361388683319	
62	260.98193407058716	fix_post	2		12	60.0	2.5	blank	1.0	279.8526449203491	0.09993696212768555
63	261.08187103271484	fix_pre	0		120	61.0	2.5	/experiments/aot_oldvideos/S_pexels-tima-miroshnichenko-5717005.mp4	0.0	279.9525818824768	1.0000100135803223
63	261.66550302505493	pulse	0	t		61.0	2.5	/experiments/aot_oldvideos/S_pexels-tima-miroshnichenko-5717005.mp4	0.0	280.5362138748169	
63	262.08188104629517	movie	1		161	61.0	2.5	/experiments/aot_oldvideos/S_pexels-tima-miroshnichenko-5717005.mp4	0.0	280.95259189605713	2.5000500679016113
63	263.26550006866455	pulse	1	t		61.0	2.5	/experiments/aot_oldvideos/S_pexels-tima-miroshnichenko-5717005.mp4	0.0	282.1362109184265	
63	264.5819311141968	fix_post	2		12	61.0	2.5	/experiments/aot_oldvideos/S_pexels-tima-miroshnichenko-5717005.mp4	0.0	283.45264196395874	0.10003304481506348
64	264.68196415901184	fix_pre	0		120	62.0	2.5	/experiments/aot_oldvideos/S_yt-XA6RBioito4_18.mp4	0.0	283.5526750087738	0.9999499320983887
64	264.86549520492554	pulse	0	t		62.0	2.5	/experiments/aot_oldvideos/S_yt-XA6RBioito4_18.mp4	0.0	283.7362060546875	
64	265.68191409111023	movie	1		300	62.0	2.5	/experiments/aot_oldvideos/S_yt-XA6RBioito4_18.mp4	0.0	284.5526249408722	2.500037908554077
64	266.4655191898346	pulse	1	t		62.0	2.5	/experiments/aot_oldvideos/S_yt-XA6RBioito4_18.mp4	0.0	285.33623003959656	
64	268.06494402885437	pulse	1	t		62.0	2.5	/experiments/aot_oldvideos/S_yt-XA6RBioito4_18.mp4	0.0	286.93565487861633	
64	268.1819519996643	fix_post	2		12	62.0	2.5	/experiments/aot_oldvideos/S_yt-XA6RBioito4_18.mp4	0.0	287.05266284942627	0.10004901885986328
65	268.28200101852417	fix_pre	0		120	63.0	2.5	blank	1.0	287.15271186828613	0.9999330043792725
65	269.28193402290344	movie	1		300	63.0	2.5	blank	1.0	288.1526448726654	2.4999330043792725
65	269.665372133255	pulse	1	t		63.0	2.5	blank	1.0	288.53608298301697	
65	271.26529717445374	pulse	1	t		63.0	2.5	blank	1.0	290.1360080242157	
65	271.7818670272827	fix_post	2		12	63.0	2.5	blank	1.0	290.6525778770447	0.10007619857788086
66	271.8819432258606	fix_pre	0		119	64.0	2.5	/experiments/aot_oldvideos/S_ILSVRC2015_train_00515000.mp4	0.0	290.75265407562256	0.9916079044342041
66	272.865355014801	pulse	0	t		64.0	2.5	/experiments/aot_oldvideos/S_ILSVRC2015_train_00515000.mp4	0.0	291.736065864563	
66	272.8735511302948	movie	1		301	64.0	2.5	/experiments/aot_oldvideos/S_ILSVRC2015_train_00515000.mp4	0.0	291.74426198005676	2.5082459449768066
66	274.4654140472412	pulse	1	t		64.0	2.5	/experiments/aot_oldvideos/S_ILSVRC2015_train_00515000.mp4	0.0	293.3361248970032	
66	275.3817970752716	fix_post	2		12	64.0	2.5	/experiments/aot_oldvideos/S_ILSVRC2015_train_00515000.mp4	0.0	294.25250792503357	0.10002708435058594
67	275.4818241596222	fix_pre	0		120	65.0	2.5	/experiments/aot_oldvideos/S_yt-xBwq6sHHF5M_21.mp4	0.0	294.35253500938416	1.0000760555267334
67	276.06534814834595	pulse	0	t		65.0	2.5	/experiments/aot_oldvideos/S_yt-xBwq6sHHF5M_21.mp4	0.0	294.9360589981079	
67	276.4819002151489	movie	1		299	65.0	2.5	/experiments/aot_oldvideos/S_yt-xBwq6sHHF5M_21.mp4	0.0	295.3526110649109	2.5000150203704834
67	277.6653881072998	pulse	1	t		65.0	2.5	/experiments/aot_oldvideos/S_yt-xBwq6sHHF5M_21.mp4	0.0	296.53609895706177	
67	278.9819152355194	fix_post	2		12	65.0	2.5	/experiments/aot_oldvideos/S_yt-xBwq6sHHF5M_21.mp4	0.0	297.8526260852814	0.10003280639648438
68	279.0819480419159	fix_pre	0		120	66.0	2.5	/experiments/aot_oldvideos/S_yt-9Ow95khYa_M_91.mp4	0.0	297.95265889167786	0.9999480247497559
68	279.26539301872253	pulse	0	t		66.0	2.5	/experiments/aot_oldvideos/S_yt-9Ow95khYa_M_91.mp4	0.0	298.1361038684845	
68	280.08189606666565	movie	1		300	66.0	2.5	/experiments/aot_oldvideos/S_yt-9Ow95khYa_M_91.mp4	0.0	298.9526069164276	2.4999279975891113
68	280.8653841018677	pulse	1	t		66.0	2.5	/experiments/aot_oldvideos/S_yt-9Ow95khYa_M_91.mp4	0.0	299.73609495162964	
68	282.4655261039734	pulse	1	t		66.0	2.5	/experiments/aot_oldvideos/S_yt-9Ow95khYa_M_91.mp4	0.0	301.33623695373535	
68	282.58182406425476	fix_post	2		12	66.0	2.5	/experiments/aot_oldvideos/S_yt-9Ow95khYa_M_91.mp4	0.0	301.4525349140167	0.10005497932434082
69	282.6818790435791	fix_pre	0		120	67.0	2.5	/experiments/aot_oldvideos/S_yt-GWlwb2QsxIA_48.mp4	0.0	301.55258989334106	0.9999351501464844
69	283.6818141937256	movie	1		299	67.0	2.5	/experiments/aot_oldvideos/S_yt-GWlwb2QsxIA_48.mp4	0.0	302.55252504348755	2.500304937362671
69	284.06491112709045	pulse	1	t		67.0	2.5	/experiments/aot_oldvideos/S_yt-GWlwb2QsxIA_48.mp4	0.0	302.9356219768524	
69	285.6655812263489	pulse	1	t		67.0	2.5	/experiments/aot_oldvideos/S_yt-GWlwb2QsxIA_48.mp4	0.0	304.53629207611084	
69	286.18211913108826	fix_post	2		12	67.0	2.5	/experiments/aot_oldvideos/S_yt-GWlwb2QsxIA_48.mp4	0.0	305.0528299808502	0.09948396682739258
70	286.28160309791565	fix_pre	0		119	68.0	2.5	/experiments/aot_oldvideos/S_wc-8bTJmWfuVyJ4_8.mp4	0.0	305.1523139476776	0.9918320178985596
70	287.265349149704	pulse	0	t		68.0	2.5	/experiments/aot_oldvideos/S_wc-8bTJmWfuVyJ4_8.mp4	0.0	306.13605999946594	
70	287.2734351158142	movie	1		163	68.0	2.5	/experiments/aot_oldvideos/S_wc-8bTJmWfuVyJ4_8.mp4	0.0	306.1441459655762	2.508431911468506
70	288.86645102500916	pulse	1	t		68.0	2.5	/experiments/aot_oldvideos/S_wc-8bTJmWfuVyJ4_8.mp4	0.0	307.7371618747711	
70	289.7818670272827	fix_post	2		12	68.0	2.5	/experiments/aot_oldvideos/S_wc-8bTJmWfuVyJ4_8.mp4	0.0	308.6525778770447	0.09996199607849121
71	289.8818290233612	fix_pre	0		120	69.0	2.5	blank	1.0	308.75253987312317	1.0000030994415283
71	290.46656823158264	pulse	0	t		69.0	2.5	blank	1.0	309.3372790813446	
71	290.88183212280273	movie	1		300	69.0	2.5	blank	1.0	309.7525429725647	2.4999051094055176
71	292.065229177475	pulse	1	t		69.0	2.5	blank	1.0	310.93594002723694	
71	293.38173723220825	fix_post	2		12	69.0	2.5	blank	1.0	312.2524480819702	0.10000896453857422
72	293.4817461967468	fix_pre	0		120	70.0	2.5	/experiments/aot_oldvideos/S_yt-vQ-rd-1gwH4_238.mp4	0.0	312.3524570465088	1.0000529289245605
72	293.66526317596436	pulse	0	t		70.0	2.5	/experiments/aot_oldvideos/S_yt-vQ-rd-1gwH4_238.mp4	0.0	312.5359740257263	
72	294.4817991256714	movie	1		299	70.0	2.5	/experiments/aot_oldvideos/S_yt-vQ-rd-1gwH4_238.mp4	0.0	313.35250997543335	2.499936103820801
72	295.26525616645813	pulse	1	t		70.0	2.5	/experiments/aot_oldvideos/S_yt-vQ-rd-1gwH4_238.mp4	0.0	314.1359670162201	
72	296.864874124527	pulse	1	t		70.0	2.5	/experiments/aot_oldvideos/S_yt-vQ-rd-1gwH4_238.mp4	0.0	315.73558497428894	
72	296.9817352294922	fix_post	2		12	70.0	2.5	/experiments/aot_oldvideos/S_yt-vQ-rd-1gwH4_238.mp4	0.0	315.85244607925415	0.10004281997680664
73	297.081778049469	fix_pre	0		120	71.0	2.5	/experiments/aot_oldvideos/S_production_ID_4325516.mp4	0.0	315.95248889923096	1.0000340938568115
73	298.0818121433258	movie	1		163	71.0	2.5	/experiments/aot_oldvideos/S_production_ID_4325516.mp4	0.0	316.95252299308777	2.4999399185180664
73	298.4652781486511	pulse	1	t		71.0	2.5	/experiments/aot_oldvideos/S_production_ID_4325516.mp4	0.0	317.3359889984131	
73	300.0653610229492	pulse	1	t		71.0	2.5	/experiments/aot_oldvideos/S_production_ID_4325516.mp4	0.0	318.9360718727112	
73	300.5817520618439	fix_post	2		12	71.0	2.5	/experiments/aot_oldvideos/S_production_ID_4325516.mp4	0.0	319.45246291160583	0.09996414184570312
74	300.6817162036896	fix_pre	0		119	72.0	2.5	blank	1.0	319.55242705345154	0.9917008876800537
74	301.66540002822876	pulse	0	t		72.0	2.5	blank	1.0	320.5361108779907	
74	301.67341709136963	movie	1		301	72.0	2.5	blank	1.0	320.5441279411316	2.508239984512329
74	303.26527309417725	pulse	1	t		72.0	2.5	blank	1.0	322.1359839439392	
74	304.18165707588196	fix_post	2		12	72.0	2.5	blank	1.0	323.0523679256439	0.10006213188171387
75	304.2817192077637	fix_pre	0		120	73.0	2.5	blank	1.0	323.15243005752563	0.9999709129333496
75	304.86520504951477	pulse	0	t		73.0	2.5	blank	1.0	323.73591589927673	
75	305.281690120697	movie	1		300	73.0	2.5	blank	1.0	324.152400970459	2.4999780654907227
75	306.46522212028503	pulse	1	t		73.0	2.5	blank	1.0	325.335932970047	
75	307.78166818618774	fix_post	2		12	73.0	2.5	blank	1.0	326.6523790359497	0.10007786750793457
76	307.8817460536957	fix_pre	0		120	74.0	2.5	/experiments/aot_oldvideos/S_yt-AiXq1oDrEXI_123.mp4	0.0	326.75245690345764	0.9998970031738281
76	308.0652480125427	pulse	0	t		74.0	2.5	/experiments/aot_oldvideos/S_yt-AiXq1oDrEXI_123.mp4	0.0	326.9359588623047	
76	308.8816430568695	movie	1		300	74.0	2.5	/experiments/aot_oldvideos/S_yt-AiXq1oDrEXI_123.mp4	0.0	327.75235390663147	2.500040054321289
76	309.6652591228485	pulse	1	t		74.0	2.5	/experiments/aot_oldvideos/S_yt-AiXq1oDrEXI_123.mp4	0.0	328.5359699726105	
76	311.26519107818604	pulse	1	t		74.0	2.5	/experiments/aot_oldvideos/S_yt-AiXq1oDrEXI_123.mp4	0.0	330.135901927948	
76	311.3816831111908	fix_post	2		12	74.0	2.5	/experiments/aot_oldvideos/S_yt-AiXq1oDrEXI_123.mp4	0.0	330.25239396095276	0.09996604919433594
77	311.48164916038513	fix_pre	0		120	75.0	2.5	/experiments/aot_oldvideos/S_WCwb-DeQOSg_85.mp4	0.0	330.3523600101471	0.9997129440307617
77	312.4813621044159	movie	1		298	75.0	2.5	/experiments/aot_oldvideos/S_WCwb-DeQOSg_85.mp4	0.0	331.35207295417786	2.500317096710205
77	312.8651580810547	pulse	1	t		75.0	2.5	/experiments/aot_oldvideos/S_WCwb-DeQOSg_85.mp4	0.0	331.73586893081665	
77	314.46520614624023	pulse	1	t		75.0	2.5	/experiments/aot_oldvideos/S_WCwb-DeQOSg_85.mp4	0.0	333.3359169960022	
77	314.9816792011261	fix_post	2		12	75.0	2.5	/experiments/aot_oldvideos/S_WCwb-DeQOSg_85.mp4	0.0	333.85239005088806	0.10013985633850098
78	315.0818190574646	fix_pre	0		119	76.0	2.5	/experiments/aot_oldvideos/S_yt-KV8X9IBWuJk_48.mp4	0.0	333.95252990722656	0.9915001392364502
78	316.0651822090149	pulse	0	t		76.0	2.5	/experiments/aot_oldvideos/S_yt-KV8X9IBWuJk_48.mp4	0.0	334.93589305877686	
78	316.07331919670105	movie	1		301	76.0	2.5	/experiments/aot_oldvideos/S_yt-KV8X9IBWuJk_48.mp4	0.0	334.944030046463	2.508347988128662
78	317.6652030944824	pulse	1	t		76.0	2.5	/experiments/aot_oldvideos/S_yt-KV8X9IBWuJk_48.mp4	0.0	336.5359139442444	
78	318.5816671848297	fix_post	2		12	76.0	2.5	/experiments/aot_oldvideos/S_yt-KV8X9IBWuJk_48.mp4	0.0	337.4523780345917	0.09999585151672363
79	318.68166303634644	fix_pre	0		120	77.0	2.5	/experiments/aot_oldvideos/S_yt-Jro_TRE8NUQ_234.mp4	0.0	337.5523738861084	0.9999940395355225
79	319.26522421836853	pulse	0	t		77.0	2.5	/experiments/aot_oldvideos/S_yt-Jro_TRE8NUQ_234.mp4	0.0	338.1359350681305	
79	319.68165707588196	movie	1		300	77.0	2.5	/experiments/aot_oldvideos/S_yt-Jro_TRE8NUQ_234.mp4	0.0	338.5523679256439	2.499964952468872
79	320.86527705192566	pulse	1	t		77.0	2.5	/experiments/aot_oldvideos/S_yt-Jro_TRE8NUQ_234.mp4	0.0	339.7359879016876	
79	322.18162202835083	fix_post	2		12	77.0	2.5	/experiments/aot_oldvideos/S_yt-Jro_TRE8NUQ_234.mp4	0.0	341.0523328781128	0.09998917579650879
80	322.28161120414734	fix_pre	0		120	78.0	2.5	blank	1.0	341.1523220539093	0.9999918937683105
80	322.4650661945343	pulse	0	t		78.0	2.5	blank	1.0	341.33577704429626	
80	323.28160309791565	movie	1		300	78.0	2.5	blank	1.0	342.1523139476776	2.4999589920043945
80	324.06518721580505	pulse	1	t		78.0	2.5	blank	1.0	342.935898065567	
80	325.66506600379944	pulse	1	t		78.0	2.5	blank	1.0	344.5357768535614	
80	325.78156208992004	fix_post	2		12	78.0	2.5	blank	1.0	344.652272939682	0.10000395774841309
81	325.88156604766846	fix_pre	0		120	79.0	2.5	blank	1.0	344.7522768974304	1.0000920295715332
81	326.88165807724	movie	1		300	79.0	2.5	blank	1.0	345.75236892700195	2.500046968460083
81	327.26508712768555	pulse	1	t		79.0	2.5	blank	1.0	346.1357979774475	
81	328.865088224411	pulse	1	t		79.0	2.5	blank	1.0	347.735799074173	
81	329.3817050457001	fix_post	2		12	79.0	2.5	blank	1.0	348.25241589546204	0.09997916221618652
82	329.48168420791626	fix_pre	0		119	80.0	2.5	/experiments/aot_oldvideos/S_yt-K-iCphzt_RE_17.mp4	0.0	348.3523950576782	0.9915549755096436
82	330.46512603759766	pulse	0	t		80.0	2.5	/experiments/aot_oldvideos/S_yt-K-iCphzt_RE_17.mp4	0.0	349.3358368873596	
82	330.4732391834259	movie	1		301	80.0	2.5	/experiments/aot_oldvideos/S_yt-K-iCphzt_RE_17.mp4	0.0	349.34395003318787	2.5083978176116943
82	332.0651550292969	pulse	1	t		80.0	2.5	/experiments/aot_oldvideos/S_yt-K-iCphzt_RE_17.mp4	0.0	350.93586587905884	
82	332.9816370010376	fix_post	2		12	80.0	2.5	/experiments/aot_oldvideos/S_yt-K-iCphzt_RE_17.mp4	0.0	351.85234785079956	0.09999322891235352
83	333.08163022994995	fix_pre	0		120	81.0	2.5	/experiments/aot_oldvideos/S_yt-n_eO-7KedAE_21.mp4	0.0	351.9523410797119	1.0000019073486328
83	333.6650381088257	pulse	0	t		81.0	2.5	/experiments/aot_oldvideos/S_yt-n_eO-7KedAE_21.mp4	0.0	352.53574895858765	
83	334.0816321372986	movie	1		300	81.0	2.5	/experiments/aot_oldvideos/S_yt-n_eO-7KedAE_21.mp4	0.0	352.95234298706055	2.499885082244873
83	335.265105009079	pulse	1	t		81.0	2.5	/experiments/aot_oldvideos/S_yt-n_eO-7KedAE_21.mp4	0.0	354.13581585884094	
83	336.58151721954346	fix_post	2		12	81.0	2.5	/experiments/aot_oldvideos/S_yt-n_eO-7KedAE_21.mp4	0.0	355.4522280693054	0.10017585754394531
84	336.6816930770874	fix_pre	0		120	82.0	2.5	/experiments/aot_oldvideos/S_yt--OkafQ5VFHs_51.mp4	0.0	355.55240392684937	0.9999220371246338
84	336.8650391101837	pulse	0	t		82.0	2.5	/experiments/aot_oldvideos/S_yt--OkafQ5VFHs_51.mp4	0.0	355.7357499599457	
84	337.68161511421204	movie	1		300	82.0	2.5	/experiments/aot_oldvideos/S_yt--OkafQ5VFHs_51.mp4	0.0	356.552325963974	2.499527931213379
84	338.46501207351685	pulse	1	t		82.0	2.5	/experiments/aot_oldvideos/S_yt--OkafQ5VFHs_51.mp4	0.0	357.3357229232788	
84	340.06472611427307	pulse	1	t		82.0	2.5	/experiments/aot_oldvideos/S_yt--OkafQ5VFHs_51.mp4	0.0	358.93543696403503	
84	340.1811430454254	fix_post	2		12	82.0	2.5	/experiments/aot_oldvideos/S_yt--OkafQ5VFHs_51.mp4	0.0	359.0518538951874	0.10040807723999023
85	340.2815511226654	fix_pre	0		120	83.0	2.5	blank	1.0	359.15226197242737	1.000133991241455
85	341.28168511390686	movie	1		300	83.0	2.5	blank	1.0	360.1523959636688	2.5
85	341.6652901172638	pulse	1	t		83.0	2.5	blank	1.0	360.53600096702576	
85	343.2649521827698	pulse	1	t		83.0	2.5	blank	1.0	362.13566303253174	
85	343.78168511390686	fix_post	2		12	83.0	2.5	blank	1.0	362.6523959636688	0.0998389720916748
86	343.88152408599854	fix_pre	0		119	84.0	2.5	blank	1.0	362.7522349357605	0.9917020797729492
86	344.8651921749115	pulse	0	t		84.0	2.5	blank	1.0	363.73590302467346	
86	344.8732261657715	movie	1		301	84.0	2.5	blank	1.0	363.74393701553345	2.5083508491516113
86	346.46493101119995	pulse	1	t		84.0	2.5	blank	1.0	365.3356418609619	
86	347.3815770149231	fix_post	2		12	84.0	2.5	blank	1.0	366.25228786468506	0.0999751091003418
87	347.48155212402344	fix_pre	0		120	85.0	2.5	/experiments/aot_oldvideos/S_yt-deiWoIfK6vg_44.mp4	0.0	366.3522629737854	0.9999470710754395
87	348.06493306159973	pulse	0	t		85.0	2.5	/experiments/aot_oldvideos/S_yt-deiWoIfK6vg_44.mp4	0.0	366.9356439113617	
87	348.4814991950989	movie	1		300	85.0	2.5	/experiments/aot_oldvideos/S_yt-deiWoIfK6vg_44.mp4	0.0	367.35221004486084	2.499629020690918
87	349.6649281978607	pulse	1	t		85.0	2.5	/experiments/aot_oldvideos/S_yt-deiWoIfK6vg_44.mp4	0.0	368.5356390476227	
87	350.9811282157898	fix_post	2		12	85.0	2.5	/experiments/aot_oldvideos/S_yt-deiWoIfK6vg_44.mp4	0.0	369.85183906555176	0.1003258228302002
88	351.08145403862	fix_pre	0		120	86.0	2.5	/experiments/aot_oldvideos/S_yt-y3tyx6cZjmA_412.mp4	0.0	369.95216488838196	0.9999890327453613
88	351.26493310928345	pulse	0	t		86.0	2.5	/experiments/aot_oldvideos/S_yt-y3tyx6cZjmA_412.mp4	0.0	370.1356439590454	
88	352.08144307136536	movie	1		300	86.0	2.5	/experiments/aot_oldvideos/S_yt-y3tyx6cZjmA_412.mp4	0.0	370.9521539211273	2.5000131130218506
88	352.8649101257324	pulse	1	t		86.0	2.5	/experiments/aot_oldvideos/S_yt-y3tyx6cZjmA_412.mp4	0.0	371.7356209754944	
88	354.4645221233368	pulse	1	t		86.0	2.5	/experiments/aot_oldvideos/S_yt-y3tyx6cZjmA_412.mp4	0.0	373.33523297309875	
88	354.5814561843872	fix_post	2		12	86.0	2.5	/experiments/aot_oldvideos/S_yt-y3tyx6cZjmA_412.mp4	0.0	373.45216703414917	0.0999748706817627
89	354.68143105506897	fix_pre	0		120	87.0	2.5	/experiments/aot_oldvideos/S_ILSVRC2015_train_00411000.mp4	0.0	373.55214190483093	1.0001001358032227
89	355.6815311908722	movie	1		299	87.0	2.5	/experiments/aot_oldvideos/S_ILSVRC2015_train_00411000.mp4	0.0	374.55224204063416	2.4995148181915283
89	356.0650191307068	pulse	1	t		87.0	2.5	/experiments/aot_oldvideos/S_ILSVRC2015_train_00411000.mp4	0.0	374.93572998046875	
89	357.6649580001831	pulse	1	t		87.0	2.5	/experiments/aot_oldvideos/S_ILSVRC2015_train_00411000.mp4	0.0	376.53566884994507	
89	358.1810460090637	fix_post	2		12	87.0	2.5	/experiments/aot_oldvideos/S_ILSVRC2015_train_00411000.mp4	0.0	377.0517568588257	0.10045814514160156
90	358.2815041542053	fix_pre	0		119	88.0	2.5	/experiments/aot_oldvideos/S_production_ID_3967181.mp4	0.0	377.1522150039673	0.9915590286254883
90	359.26490116119385	pulse	0	t		88.0	2.5	/experiments/aot_oldvideos/S_production_ID_3967181.mp4	0.0	378.1356120109558	
90	359.2730631828308	movie	1		166	88.0	2.5	/experiments/aot_oldvideos/S_production_ID_3967181.mp4	0.0	378.1437740325928	2.5083818435668945
90	360.86455821990967	pulse	1	t		88.0	2.5	/experiments/aot_oldvideos/S_production_ID_3967181.mp4	0.0	379.73526906967163	
90	361.7814450263977	fix_post	2		12	88.0	2.5	/experiments/aot_oldvideos/S_production_ID_3967181.mp4	0.0	380.65215587615967	0.09993815422058105
91	361.8813831806183	fix_pre	0		120	89.0	2.5	/experiments/aot_oldvideos/S_production_ID_5144823.mp4	0.0	380.75209403038025	1.0000579357147217
91	362.4649381637573	pulse	0	t		89.0	2.5	/experiments/aot_oldvideos/S_production_ID_5144823.mp4	0.0	381.3356490135193	
91	362.881441116333	movie	1		163	89.0	2.5	/experiments/aot_oldvideos/S_production_ID_5144823.mp4	0.0	381.75215196609497	2.499495029449463
91	364.0652050971985	pulse	1	t		89.0	2.5	/experiments/aot_oldvideos/S_production_ID_5144823.mp4	0.0	382.93591594696045	
91	365.38093614578247	fix_post	2		12	89.0	2.5	/experiments/aot_oldvideos/S_production_ID_5144823.mp4	0.0	384.25164699554443	0.10049200057983398
92	365.4814281463623	fix_pre	0		120	90.0	2.5	/experiments/aot_oldvideos/S_yt-QTGIhecBZjc_19.mp4	0.0	384.35213899612427	0.9999959468841553
92	365.6649100780487	pulse	0	t		90.0	2.5	/experiments/aot_oldvideos/S_yt-QTGIhecBZjc_19.mp4	0.0	384.53562092781067	
92	366.48142409324646	movie	1		299	90.0	2.5	/experiments/aot_oldvideos/S_yt-QTGIhecBZjc_19.mp4	0.0	385.3521349430084	2.4999821186065674
92	367.26481223106384	pulse	1	t		90.0	2.5	/experiments/aot_oldvideos/S_yt-QTGIhecBZjc_19.mp4	0.0	386.1355230808258	
92	368.8644640445709	pulse	1	t		90.0	2.5	/experiments/aot_oldvideos/S_yt-QTGIhecBZjc_19.mp4	0.0	387.7351748943329	
92	368.981406211853	fix_post	2		12	90.0	2.5	/experiments/aot_oldvideos/S_yt-QTGIhecBZjc_19.mp4	0.0	387.852117061615	0.09992384910583496
93	369.08133006095886	fix_pre	0		120	91.0	2.5	/experiments/aot_oldvideos/S_pexels-mikhail-nilov-8410084_1.mp4	0.0	387.9520409107208	1.0000629425048828
93	370.08139300346375	movie	1		161	91.0	2.5	/experiments/aot_oldvideos/S_pexels-mikhail-nilov-8410084_1.mp4	0.0	388.9521038532257	2.499605178833008
93	370.4648621082306	pulse	1	t		91.0	2.5	/experiments/aot_oldvideos/S_pexels-mikhail-nilov-8410084_1.mp4	0.0	389.33557295799255	
93	372.064866065979	pulse	1	t		91.0	2.5	/experiments/aot_oldvideos/S_pexels-mikhail-nilov-8410084_1.mp4	0.0	390.93557691574097	
93	372.58099818229675	fix_post	2		12	91.0	2.5	/experiments/aot_oldvideos/S_pexels-mikhail-nilov-8410084_1.mp4	0.0	391.4517090320587	0.10045099258422852
95	372.681449174881	stim	0		1716					391.55216002464294	14.299898862838745
95	373.6648771762848	pulse	0	t						392.53558802604675	
95	375.2648160457611	pulse	0	t						394.13552689552307	
95	376.86487102508545	pulse	0	t						395.7355818748474	
95	378.4648320674896	pulse	0	t						397.3355429172516	
95	380.06487822532654	pulse	0	t						398.9355890750885	
95	381.6648452281952	pulse	0	t						400.53555607795715	
95	383.26475715637207	pulse	0	t						402.13546800613403	
95	384.8647861480713	pulse	0	t						403.73549699783325	
95	386.4647431373596	pulse	0	t						405.3354539871216	
