trial_nr	onset	event_type	phase	response	nr_frames	movie_index	movie_duration	movie_file	blank	onset_abs	duration
0	0.1495800018310547	stim	0		35					17.938465118408203	0.29163289070129395
0	0.43358492851257324	response	0	space						18.22247004508972	
1	0.44121289253234863	stim	0		829					18.230098009109497	6.9082911014556885
1	7.344526052474976	pulse	0	t						25.133411169052124	
1	7.349503993988037	stim	1		1717					25.138389110565186	14.308334112167358
1	8.941728115081787	pulse	1	t						26.730613231658936	
1	10.541759014129639	pulse	1	t						28.330644130706787	
1	12.141722917556763	pulse	1	t						29.93060803413391	
1	13.74169111251831	pulse	1	t						31.53057622909546	
1	15.341635942459106	pulse	1	t						33.130521059036255	
1	16.94170904159546	pulse	1	t						34.73059415817261	
1	18.54169201850891	pulse	1	t						36.33057713508606	
1	20.141664028167725	pulse	1	t						37.93054914474487	
2	21.657838106155396	fix_pre	0		11	0.0	2.5	blank	1.0	39.446723222732544	0.09168100357055664
2	21.741700887680054	pulse	0	t		0.0	2.5	blank	1.0	39.5305860042572	
2	21.749519109725952	movie	1		301	0.0	2.5	blank	1.0	39.5384042263031	2.5082998275756836
2	23.34165906906128	pulse	1	t		0.0	2.5	blank	1.0	41.13054418563843	
2	24.257818937301636	fix_post	2		72	0.0	2.5	blank	1.0	42.046704053878784	0.5999860763549805
3	24.857805013656616	fix_pre	0		11	1.0	2.5	/experiments/aot/S_production_ID_4325516.mp4	0.0	42.646690130233765	0.09250688552856445
3	24.94165802001953	pulse	0	t		1.0	2.5	/experiments/aot/S_production_ID_4325516.mp4	0.0	42.73054313659668	
3	24.95031189918518	movie	1		161	1.0	2.5	/experiments/aot/S_production_ID_4325516.mp4	0.0	42.73919701576233	2.507460117340088
3	26.54133892059326	pulse	1	t		1.0	2.5	/experiments/aot/S_production_ID_4325516.mp4	0.0	44.33022403717041	
3	27.45777201652527	fix_post	2		72	1.0	2.5	/experiments/aot/S_production_ID_4325516.mp4	0.0	45.24665713310242	0.6001420021057129
4	28.05791401863098	fix_pre	0		11	2.0	2.5	/experiments/aot/S_yt-O6FS0xnF0CU_106.mp4	0.0	45.84679913520813	0.09265494346618652
4	28.14180898666382	pulse	0	t		2.0	2.5	/experiments/aot/S_yt-O6FS0xnF0CU_106.mp4	0.0	45.93069410324097	
4	28.150568962097168	movie	1		301	2.0	2.5	/experiments/aot/S_yt-O6FS0xnF0CU_106.mp4	0.0	45.939454078674316	2.507233142852783
4	29.741684913635254	pulse	1	t		2.0	2.5	/experiments/aot/S_yt-O6FS0xnF0CU_106.mp4	0.0	47.5305700302124	
4	30.65780210494995	fix_post	2		72	2.0	2.5	/experiments/aot/S_yt-O6FS0xnF0CU_106.mp4	0.0	48.4466872215271	0.6001358032226562
5	31.257937908172607	fix_pre	0		11	3.0	2.5	/experiments/aot/S_yt--OkafQ5VFHs_51.mp4	0.0	49.046823024749756	0.09189200401306152
5	31.341623067855835	pulse	0	t		3.0	2.5	/experiments/aot/S_yt--OkafQ5VFHs_51.mp4	0.0	49.13050818443298	
5	31.34982991218567	movie	1		300	3.0	2.5	/experiments/aot/S_yt--OkafQ5VFHs_51.mp4	0.0	49.13871502876282	2.507925033569336
5	32.93979787826538	pulse	1	t		3.0	2.5	/experiments/aot/S_yt--OkafQ5VFHs_51.mp4	0.0	50.72868299484253	
5	33.857754945755005	fix_post	2		72	3.0	2.5	/experiments/aot/S_yt--OkafQ5VFHs_51.mp4	0.0	51.64664006233215	0.5999870300292969
6	34.4577419757843	fix_pre	0		11	4.0	2.5	/experiments/aot/S_yt-JTuopUgmg1w_101.mp4	0.0	52.24662709236145	0.09166193008422852
6	34.541558027267456	pulse	0	t		4.0	2.5	/experiments/aot/S_yt-JTuopUgmg1w_101.mp4	0.0	52.330443143844604	
6	34.54940390586853	movie	1		301	4.0	2.5	/experiments/aot/S_yt-JTuopUgmg1w_101.mp4	0.0	52.33828902244568	2.508310079574585
6	36.141627073287964	pulse	1	t		4.0	2.5	/experiments/aot/S_yt-JTuopUgmg1w_101.mp4	0.0	53.93051218986511	
6	37.057713985443115	fix_post	2		72	4.0	2.5	/experiments/aot/S_yt-JTuopUgmg1w_101.mp4	0.0	54.846599102020264	0.6008729934692383
7	37.65858697891235	fix_pre	0		11	5.0	2.5	/experiments/aot/S_yt-AuQ_WxaNy4Y_255.mp4	0.0	55.4474720954895	0.09165596961975098
7	37.74154996871948	pulse	0	t		5.0	2.5	/experiments/aot/S_yt-AuQ_WxaNy4Y_255.mp4	0.0	55.53043508529663	
7	37.750242948532104	movie	1		301	5.0	2.5	/experiments/aot/S_yt-AuQ_WxaNy4Y_255.mp4	0.0	55.53912806510925	2.5074620246887207
7	39.3415949344635	pulse	1	t		5.0	2.5	/experiments/aot/S_yt-AuQ_WxaNy4Y_255.mp4	0.0	57.13048005104065	
7	40.257704973220825	fix_post	2		72	5.0	2.5	/experiments/aot/S_yt-AuQ_WxaNy4Y_255.mp4	0.0	58.046590089797974	0.5999429225921631
8	40.85764789581299	fix_pre	0		11	6.0	2.5	blank	1.0	58.64653301239014	0.0916740894317627
8	40.94172811508179	pulse	0	t		6.0	2.5	blank	1.0	58.730613231658936	
8	40.94932198524475	movie	1		301	6.0	2.5	blank	1.0	58.7382071018219	2.508363962173462
8	42.54149389266968	pulse	1	t		6.0	2.5	blank	1.0	60.330379009246826	
8	43.45768594741821	fix_post	2		72	6.0	2.5	blank	1.0	61.24657106399536	0.6000540256500244
9	44.05773997306824	fix_pre	0		11	7.0	2.5	/experiments/aot/S_yt-HwEfWfFJhRo_73.mp4	0.0	61.846625089645386	0.09164905548095703
9	44.14158010482788	pulse	0	t		7.0	2.5	/experiments/aot/S_yt-HwEfWfFJhRo_73.mp4	0.0	61.93046522140503	
9	44.149389028549194	movie	1		301	7.0	2.5	/experiments/aot/S_yt-HwEfWfFJhRo_73.mp4	0.0	61.93827414512634	2.5091018676757812
9	45.74162697792053	pulse	1	t		7.0	2.5	/experiments/aot/S_yt-HwEfWfFJhRo_73.mp4	0.0	63.53051209449768	
9	46.658490896224976	fix_post	2		72	7.0	2.5	/experiments/aot/S_yt-HwEfWfFJhRo_73.mp4	0.0	64.44737601280212	0.5991790294647217
10	47.2576699256897	fix_pre	0		11	8.0	2.5	/experiments/aot/S_yt-y3tyx6cZjmA_412.mp4	0.0	65.04655504226685	0.09249114990234375
10	47.34148693084717	pulse	0	t		8.0	2.5	/experiments/aot/S_yt-y3tyx6cZjmA_412.mp4	0.0	65.13037204742432	
10	47.35016107559204	movie	1		301	8.0	2.5	/experiments/aot/S_yt-y3tyx6cZjmA_412.mp4	0.0	65.13904619216919	2.507506847381592
10	48.94152092933655	pulse	1	t		8.0	2.5	/experiments/aot/S_yt-y3tyx6cZjmA_412.mp4	0.0	66.7304060459137	
10	49.85766792297363	fix_post	2		72	8.0	2.5	/experiments/aot/S_yt-y3tyx6cZjmA_412.mp4	0.0	67.64655303955078	0.5999281406402588
11	50.45759606361389	fix_pre	0		11	9.0	2.5	blank	1.0	68.24648118019104	0.09166193008422852
11	50.54151892662048	pulse	0	t		9.0	2.5	blank	1.0	68.33040404319763	
11	50.54925799369812	movie	1		301	9.0	2.5	blank	1.0	68.33814311027527	2.508470058441162
11	52.14147710800171	pulse	1	t		9.0	2.5	blank	1.0	69.93036222457886	
11	53.05772805213928	fix_post	2		72	9.0	2.5	blank	1.0	70.84661316871643	0.5998899936676025
12	53.657618045806885	fix_pre	0		11	10.0	2.5	/experiments/aot/S_yt-qsyDLtXcyHc_8.mp4	0.0	71.44650316238403	0.09166288375854492
12	53.74147295951843	pulse	0	t		10.0	2.5	/experiments/aot/S_yt-qsyDLtXcyHc_8.mp4	0.0	71.53035807609558	
12	53.74928092956543	movie	1		301	10.0	2.5	/experiments/aot/S_yt-qsyDLtXcyHc_8.mp4	0.0	71.53816604614258	2.5083651542663574
12	55.34158802032471	pulse	1	t		10.0	2.5	/experiments/aot/S_yt-qsyDLtXcyHc_8.mp4	0.0	73.13047313690186	
12	56.25764608383179	fix_post	2		72	10.0	2.5	/experiments/aot/S_yt-qsyDLtXcyHc_8.mp4	0.0	74.04653120040894	0.5999939441680908
13	56.85764002799988	fix_pre	0		11	11.0	2.5	blank	1.0	74.64652514457703	0.09160304069519043
13	56.94159388542175	pulse	0	t		11.0	2.5	blank	1.0	74.7304790019989	
13	56.94924306869507	movie	1		301	11.0	2.5	blank	1.0	74.73812818527222	2.508342981338501
13	58.54147696495056	pulse	1	t		11.0	2.5	blank	1.0	76.33036208152771	
13	59.45758605003357	fix_post	2		72	11.0	2.5	blank	1.0	77.24647116661072	0.6000058650970459
14	60.057591915130615	fix_pre	0		11	12.0	2.5	/experiments/aot/S_yt-ieA3XwoSko4_98.mp4	0.0	77.84647703170776	0.09169316291809082
14	60.14150094985962	pulse	0	t		12.0	2.5	/experiments/aot/S_yt-ieA3XwoSko4_98.mp4	0.0	77.93038606643677	
14	60.149285078048706	movie	1		301	12.0	2.5	/experiments/aot/S_yt-ieA3XwoSko4_98.mp4	0.0	77.93817019462585	2.508500814437866
14	61.74150609970093	pulse	1	t		12.0	2.5	/experiments/aot/S_yt-ieA3XwoSko4_98.mp4	0.0	79.53039121627808	
14	62.65778589248657	fix_post	2		72	12.0	2.5	/experiments/aot/S_yt-ieA3XwoSko4_98.mp4	0.0	80.44667100906372	0.6006619930267334
15	63.258447885513306	fix_pre	0		11	13.0	2.5	/experiments/aot/S_yt-OFnDCbW9Ebo_31.mp4	0.0	81.04733300209045	0.09078621864318848
15	63.34144401550293	pulse	0	t		13.0	2.5	/experiments/aot/S_yt-OFnDCbW9Ebo_31.mp4	0.0	81.13032913208008	
15	63.349234104156494	movie	1		301	13.0	2.5	/experiments/aot/S_yt-OFnDCbW9Ebo_31.mp4	0.0	81.13811922073364	2.5091848373413086
15	64.94144105911255	pulse	1	t		13.0	2.5	/experiments/aot/S_yt-OFnDCbW9Ebo_31.mp4	0.0	82.7303261756897	
15	65.8584189414978	fix_post	2		72	13.0	2.5	/experiments/aot/S_yt-OFnDCbW9Ebo_31.mp4	0.0	83.64730405807495	0.5999410152435303
16	66.45835995674133	fix_pre	0		11	14.0	2.5	/experiments/aot/S_yt-1sn8u-rQRas_7.mp4	0.0	84.24724507331848	0.09083104133605957
16	66.54148387908936	pulse	0	t		14.0	2.5	/experiments/aot/S_yt-1sn8u-rQRas_7.mp4	0.0	84.3303689956665	
16	66.54919099807739	movie	1		301	14.0	2.5	/experiments/aot/S_yt-1sn8u-rQRas_7.mp4	0.0	84.33807611465454	2.5084800720214844
16	68.14151501655579	pulse	1	t		14.0	2.5	/experiments/aot/S_yt-1sn8u-rQRas_7.mp4	0.0	85.93040013313293	
16	69.05767107009888	fix_post	2		72	14.0	2.5	/experiments/aot/S_yt-1sn8u-rQRas_7.mp4	0.0	86.84655618667603	0.600787878036499
17	69.65845894813538	fix_pre	0		11	15.0	2.5	/experiments/aot/S_pexels-mikhail-nilov-8410084_1.mp4	0.0	87.44734406471252	0.09079313278198242
17	69.7414219379425	pulse	0	t		15.0	2.5	/experiments/aot/S_pexels-mikhail-nilov-8410084_1.mp4	0.0	87.53030705451965	
17	69.74925208091736	movie	1		161	15.0	2.5	/experiments/aot/S_pexels-mikhail-nilov-8410084_1.mp4	0.0	87.5381371974945	2.5091118812561035
17	71.34150910377502	pulse	1	t		15.0	2.5	/experiments/aot/S_pexels-mikhail-nilov-8410084_1.mp4	0.0	89.13039422035217	
17	72.25836396217346	fix_post	2		72	15.0	2.5	/experiments/aot/S_pexels-mikhail-nilov-8410084_1.mp4	0.0	90.04724907875061	0.5991990566253662
18	72.85756301879883	fix_pre	0		11	16.0	2.5	/experiments/aot/S_yt-9Ow95khYa_M_91.mp4	0.0	90.64644813537598	0.09260892868041992
18	72.94145894050598	pulse	0	t		16.0	2.5	/experiments/aot/S_yt-9Ow95khYa_M_91.mp4	0.0	90.73034405708313	
18	72.95017194747925	movie	1		301	16.0	2.5	/experiments/aot/S_yt-9Ow95khYa_M_91.mp4	0.0	90.7390570640564	2.5074470043182373
18	74.54153895378113	pulse	1	t		16.0	2.5	/experiments/aot/S_yt-9Ow95khYa_M_91.mp4	0.0	92.33042407035828	
18	75.45761895179749	fix_post	2		72	16.0	2.5	/experiments/aot/S_yt-9Ow95khYa_M_91.mp4	0.0	93.24650406837463	0.5998971462249756
19	76.05751609802246	fix_pre	0		11	17.0	2.5	/experiments/aot/S_ILSVRC2015_train_00569003.mp4	0.0	93.84640121459961	0.09169888496398926
19	76.14138603210449	pulse	0	t		17.0	2.5	/experiments/aot/S_ILSVRC2015_train_00569003.mp4	0.0	93.93027114868164	
19	76.14921498298645	movie	1		301	17.0	2.5	/experiments/aot/S_ILSVRC2015_train_00569003.mp4	0.0	93.9381000995636	2.50915789604187
19	77.7413809299469	pulse	1	t		17.0	2.5	/experiments/aot/S_ILSVRC2015_train_00569003.mp4	0.0	95.53026604652405	
19	78.65837287902832	fix_post	2		72	17.0	2.5	/experiments/aot/S_ILSVRC2015_train_00569003.mp4	0.0	96.44725799560547	0.5991201400756836
20	79.257493019104	fix_pre	0		11	18.0	2.5	blank	1.0	97.04637813568115	0.09163689613342285
20	79.34147810935974	pulse	0	t		18.0	2.5	blank	1.0	97.13036322593689	
20	79.34912991523743	movie	1		301	18.0	2.5	blank	1.0	97.13801503181458	2.5084099769592285
20	80.94147109985352	pulse	1	t		18.0	2.5	blank	1.0	98.73035621643066	
20	81.85753989219666	fix_post	2		72	18.0	2.5	blank	1.0	99.6464250087738	0.5999870300292969
21	82.45752692222595	fix_pre	0		11	19.0	2.5	/experiments/aot/S_production_ID_5144823.mp4	0.0	100.2464120388031	0.09171509742736816
21	82.54098510742188	pulse	0	t		19.0	2.5	/experiments/aot/S_production_ID_5144823.mp4	0.0	100.32987022399902	
21	82.54924201965332	movie	1		161	19.0	2.5	/experiments/aot/S_production_ID_5144823.mp4	0.0	100.33812713623047	2.5085558891296387
21	84.14221596717834	pulse	1	t		19.0	2.5	/experiments/aot/S_production_ID_5144823.mp4	0.0	101.9311010837555	
21	85.05779790878296	fix_post	2		72	19.0	2.5	/experiments/aot/S_production_ID_5144823.mp4	0.0	102.84668302536011	0.6005141735076904
22	85.65831208229065	fix_pre	0		11	20.0	2.5	/experiments/aot/S_production_ID_4802710.mp4	0.0	103.4471971988678	0.09295988082885742
22	85.74135088920593	pulse	0	t		20.0	2.5	/experiments/aot/S_production_ID_4802710.mp4	0.0	103.53023600578308	
22	85.7512719631195	movie	1		161	20.0	2.5	/experiments/aot/S_production_ID_4802710.mp4	0.0	103.54015707969666	2.506175994873047
22	87.34109997749329	pulse	1	t		20.0	2.5	/experiments/aot/S_production_ID_4802710.mp4	0.0	105.12998509407043	
22	88.25744795799255	fix_post	2		72	20.0	2.5	/experiments/aot/S_production_ID_4802710.mp4	0.0	106.0463330745697	0.599992036819458
23	88.85743999481201	fix_pre	0		11	21.0	2.5	blank	1.0	106.64632511138916	0.09168291091918945
23	88.94131708145142	pulse	0	t		21.0	2.5	blank	1.0	106.73020219802856	
23	88.9491229057312	movie	1		301	21.0	2.5	blank	1.0	106.73800802230835	2.508388042449951
23	90.54129600524902	pulse	1	t		21.0	2.5	blank	1.0	108.33018112182617	
23	91.45751094818115	fix_post	2		72	21.0	2.5	blank	1.0	109.2463960647583	0.6008260250091553
24	92.05833697319031	fix_pre	0		11	22.0	2.5	/experiments/aot/S_ILSVRC2015_train_00219004.mp4	0.0	109.84722208976746	0.09078001976013184
24	92.14130711555481	pulse	0	t		22.0	2.5	/experiments/aot/S_ILSVRC2015_train_00219004.mp4	0.0	109.93019223213196	
24	92.14911699295044	movie	1		301	22.0	2.5	/experiments/aot/S_ILSVRC2015_train_00219004.mp4	0.0	109.93800210952759	2.5083088874816895
24	93.7413580417633	pulse	1	t		22.0	2.5	/experiments/aot/S_ILSVRC2015_train_00219004.mp4	0.0	111.53024315834045	
24	94.65742588043213	fix_post	2		72	22.0	2.5	/experiments/aot/S_ILSVRC2015_train_00219004.mp4	0.0	112.44631099700928	0.600966215133667
25	95.2583920955658	fix_pre	0		11	23.0	2.5	/experiments/aot/S_yt-Wr5vs_0Iypw_161.mp4	0.0	113.04727721214294	0.09166383743286133
25	95.34130692481995	pulse	0	t		23.0	2.5	/experiments/aot/S_yt-Wr5vs_0Iypw_161.mp4	0.0	113.1301920413971	
25	95.35005593299866	movie	1		301	23.0	2.5	/experiments/aot/S_yt-Wr5vs_0Iypw_161.mp4	0.0	113.1389410495758	2.508286952972412
25	96.94133710861206	pulse	1	t		23.0	2.5	/experiments/aot/S_yt-Wr5vs_0Iypw_161.mp4	0.0	114.73022222518921	
25	97.85834288597107	fix_post	2		72	23.0	2.5	/experiments/aot/S_yt-Wr5vs_0Iypw_161.mp4	0.0	115.64722800254822	0.5998990535736084
26	98.45824193954468	fix_pre	0		11	24.0	2.5	/experiments/aot/S_yt-UzWRbs9Syf4_7.mp4	0.0	116.24712705612183	0.09161615371704102
26	98.54125094413757	pulse	0	t		24.0	2.5	/experiments/aot/S_yt-UzWRbs9Syf4_7.mp4	0.0	116.33013606071472	
26	98.54985809326172	movie	1		301	24.0	2.5	/experiments/aot/S_yt-UzWRbs9Syf4_7.mp4	0.0	116.33874320983887	2.5083529949188232
26	100.1412239074707	pulse	1	t		24.0	2.5	/experiments/aot/S_yt-UzWRbs9Syf4_7.mp4	0.0	117.93010902404785	
26	101.05821108818054	fix_post	2		72	24.0	2.5	/experiments/aot/S_yt-UzWRbs9Syf4_7.mp4	0.0	118.84709620475769	0.6000878810882568
27	101.6582989692688	fix_pre	0		11	25.0	2.5	/experiments/aot/S_ILSVRC2015_train_00594001.mp4	0.0	119.44718408584595	0.09076094627380371
27	101.74124503135681	pulse	0	t		25.0	2.5	/experiments/aot/S_ILSVRC2015_train_00594001.mp4	0.0	119.53013014793396	
27	101.7490599155426	movie	1		301	25.0	2.5	/experiments/aot/S_ILSVRC2015_train_00594001.mp4	0.0	119.53794503211975	2.508380174636841
27	103.34145903587341	pulse	1	t		25.0	2.5	/experiments/aot/S_ILSVRC2015_train_00594001.mp4	0.0	121.13034415245056	
27	104.25744009017944	fix_post	2		72	25.0	2.5	/experiments/aot/S_ILSVRC2015_train_00594001.mp4	0.0	122.04632520675659	0.6007900238037109
28	104.85823011398315	fix_pre	0		11	26.0	2.5	/experiments/aot/S_pexels-kelly-lacy-6756531.mp4	0.0	122.6471152305603	0.09081578254699707
28	104.94122004508972	pulse	0	t		26.0	2.5	/experiments/aot/S_pexels-kelly-lacy-6756531.mp4	0.0	122.73010516166687	
28	104.94904589653015	movie	1		163	26.0	2.5	/experiments/aot/S_pexels-kelly-lacy-6756531.mp4	0.0	122.7379310131073	2.5083072185516357
28	106.54074096679688	pulse	1	t		26.0	2.5	/experiments/aot/S_pexels-kelly-lacy-6756531.mp4	0.0	124.32962608337402	
28	107.45735311508179	fix_post	2		72	26.0	2.5	/experiments/aot/S_pexels-kelly-lacy-6756531.mp4	0.0	125.24623823165894	0.6000759601593018
29	108.05742907524109	fix_pre	0		11	27.0	2.5	/experiments/aot/S_WCwb-DeQOSg_85.mp4	0.0	125.84631419181824	0.09370684623718262
29	108.14126896858215	pulse	0	t		27.0	2.5	/experiments/aot/S_WCwb-DeQOSg_85.mp4	0.0	125.9301540851593	
29	108.15113592147827	movie	1		301	27.0	2.5	/experiments/aot/S_WCwb-DeQOSg_85.mp4	0.0	125.94002103805542	2.5062179565429688
29	109.74129796028137	pulse	1	t		27.0	2.5	/experiments/aot/S_WCwb-DeQOSg_85.mp4	0.0	127.53018307685852	
29	110.65735387802124	fix_post	2		72	27.0	2.5	/experiments/aot/S_WCwb-DeQOSg_85.mp4	0.0	128.4462389945984	0.6000461578369141
30	111.25740003585815	fix_pre	0		11	28.0	2.5	/experiments/aot/S_Pexels_Videos_2786546.mp4	0.0	129.0462851524353	0.09164905548095703
30	111.34123492240906	pulse	0	t		28.0	2.5	/experiments/aot/S_Pexels_Videos_2786546.mp4	0.0	129.1301200389862	
30	111.34904909133911	movie	1		161	28.0	2.5	/experiments/aot/S_Pexels_Videos_2786546.mp4	0.0	129.13793420791626	2.50917387008667
30	112.94145393371582	pulse	1	t		28.0	2.5	/experiments/aot/S_Pexels_Videos_2786546.mp4	0.0	130.73033905029297	
30	113.85822296142578	fix_post	2		72	28.0	2.5	/experiments/aot/S_Pexels_Videos_2786546.mp4	0.0	131.64710807800293	0.5990910530090332
31	114.45731401443481	fix_pre	0		11	29.0	2.5	/experiments/aot/S_production_ID_3967181.mp4	0.0	132.24619913101196	0.09166693687438965
31	114.54253888130188	pulse	0	t		29.0	2.5	/experiments/aot/S_production_ID_3967181.mp4	0.0	132.33142399787903	
31	114.5489809513092	movie	1		164	29.0	2.5	/experiments/aot/S_production_ID_3967181.mp4	0.0	132.33786606788635	2.5083701610565186
31	116.14049005508423	pulse	1	t		29.0	2.5	/experiments/aot/S_production_ID_3967181.mp4	0.0	133.92937517166138	
31	117.05735111236572	fix_post	2		72	29.0	2.5	/experiments/aot/S_production_ID_3967181.mp4	0.0	134.84623622894287	0.600928783416748
32	117.65827989578247	fix_pre	0		11	30.0	2.5	blank	1.0	135.44716501235962	0.09069013595581055
32	117.74121904373169	pulse	0	t		30.0	2.5	blank	1.0	135.53010416030884	
32	117.74897003173828	movie	1		301	30.0	2.5	blank	1.0	135.53785514831543	2.508316993713379
32	119.34117388725281	pulse	1	t		30.0	2.5	blank	1.0	137.13005900382996	
32	120.25728702545166	fix_post	2		72	30.0	2.5	blank	1.0	138.0461721420288	0.6000490188598633
33	120.85733604431152	fix_pre	0		11	31.0	2.5	/experiments/aot/S_yt-xBwq6sHHF5M_21.mp4	0.0	138.64622116088867	0.09245991706848145
33	120.94124794006348	pulse	0	t		31.0	2.5	/experiments/aot/S_yt-xBwq6sHHF5M_21.mp4	0.0	138.73013305664062	
33	120.94979596138	movie	1		301	31.0	2.5	/experiments/aot/S_yt-xBwq6sHHF5M_21.mp4	0.0	138.73868107795715	2.5074989795684814
33	122.5411970615387	pulse	1	t		31.0	2.5	/experiments/aot/S_yt-xBwq6sHHF5M_21.mp4	0.0	140.33008217811584	
33	123.45729494094849	fix_post	2		72	31.0	2.5	/experiments/aot/S_yt-xBwq6sHHF5M_21.mp4	0.0	141.24618005752563	0.5999701023101807
34	124.05726504325867	fix_pre	0		11	32.0	2.5	/experiments/aot/S_yt-6vkiJedss6g_5.mp4	0.0	141.84615015983582	0.09170198440551758
34	124.14116787910461	pulse	0	t		32.0	2.5	/experiments/aot/S_yt-6vkiJedss6g_5.mp4	0.0	141.93005299568176	
34	124.14896702766418	movie	1		301	32.0	2.5	/experiments/aot/S_yt-6vkiJedss6g_5.mp4	0.0	141.93785214424133	2.5082790851593018
34	125.74121594429016	pulse	1	t		32.0	2.5	/experiments/aot/S_yt-6vkiJedss6g_5.mp4	0.0	143.5301010608673	
34	126.65724611282349	fix_post	2		72	32.0	2.5	/experiments/aot/S_yt-6vkiJedss6g_5.mp4	0.0	144.44613122940063	0.5999979972839355
35	127.25724411010742	fix_pre	0		11	33.0	2.5	/experiments/aot/S_yt-Fm97IY0Z2LU_110.mp4	0.0	145.04612922668457	0.09167289733886719
35	127.34117197990417	pulse	0	t		33.0	2.5	/experiments/aot/S_yt-Fm97IY0Z2LU_110.mp4	0.0	145.13005709648132	
35	127.34891700744629	movie	1		301	33.0	2.5	/experiments/aot/S_yt-Fm97IY0Z2LU_110.mp4	0.0	145.13780212402344	2.5083138942718506
35	128.94125890731812	pulse	1	t		33.0	2.5	/experiments/aot/S_yt-Fm97IY0Z2LU_110.mp4	0.0	146.73014402389526	
35	129.85723090171814	fix_post	2		72	33.0	2.5	/experiments/aot/S_yt-Fm97IY0Z2LU_110.mp4	0.0	147.6461160182953	0.600020170211792
36	130.45725107192993	fix_pre	0		11	34.0	2.5	/experiments/aot/S_yt-LB9LoYfH_EA_15.mp4	0.0	148.24613618850708	0.09166789054870605
36	130.54115200042725	pulse	0	t		34.0	2.5	/experiments/aot/S_yt-LB9LoYfH_EA_15.mp4	0.0	148.3300371170044	
36	130.54891896247864	movie	1		301	34.0	2.5	/experiments/aot/S_yt-LB9LoYfH_EA_15.mp4	0.0	148.3378040790558	2.5092339515686035
36	132.14124608039856	pulse	1	t		34.0	2.5	/experiments/aot/S_yt-LB9LoYfH_EA_15.mp4	0.0	149.9301311969757	
36	133.05815291404724	fix_post	2		72	34.0	2.5	/experiments/aot/S_yt-LB9LoYfH_EA_15.mp4	0.0	150.8470380306244	0.5991029739379883
37	133.65725588798523	fix_pre	0		11	35.0	2.5	blank	1.0	151.44614100456238	0.09167098999023438
37	133.74119901657104	pulse	0	t		35.0	2.5	blank	1.0	151.5300841331482	
37	133.74892687797546	movie	1		301	35.0	2.5	blank	1.0	151.5378119945526	2.509165048599243
37	135.34112095832825	pulse	1	t		35.0	2.5	blank	1.0	153.1300060749054	
37	136.2580919265747	fix_post	2		72	35.0	2.5	blank	1.0	154.04697704315186	0.6001131534576416
38	136.85820508003235	fix_pre	0		11	36.0	2.5	/experiments/aot/S_production_ID_5119260.mp4	0.0	154.6470901966095	0.09167695045471191
38	136.94110703468323	pulse	0	t		36.0	2.5	/experiments/aot/S_production_ID_5119260.mp4	0.0	154.72999215126038	
38	136.94988203048706	movie	1		160	36.0	2.5	/experiments/aot/S_production_ID_5119260.mp4	0.0	154.7387671470642	2.5074660778045654
38	138.54081106185913	pulse	1	t		36.0	2.5	/experiments/aot/S_production_ID_5119260.mp4	0.0	156.32969617843628	
38	139.45734810829163	fix_post	2		72	36.0	2.5	/experiments/aot/S_production_ID_5119260.mp4	0.0	157.24623322486877	0.6009848117828369
39	140.05833292007446	fix_pre	0		11	37.0	2.5	/experiments/aot/S_xq822dX6DDM_1.mp4	0.0	157.8472180366516	0.09170913696289062
39	140.14134097099304	pulse	0	t		37.0	2.5	/experiments/aot/S_xq822dX6DDM_1.mp4	0.0	157.9302260875702	
39	140.15004205703735	movie	1		301	37.0	2.5	/experiments/aot/S_xq822dX6DDM_1.mp4	0.0	157.9389271736145	2.5071868896484375
39	141.74114203453064	pulse	1	t		37.0	2.5	/experiments/aot/S_xq822dX6DDM_1.mp4	0.0	159.5300271511078	
39	142.6572289466858	fix_post	2		72	37.0	2.5	/experiments/aot/S_xq822dX6DDM_1.mp4	0.0	160.44611406326294	0.5999939441680908
40	143.25722289085388	fix_pre	0		11	38.0	2.5	/experiments/aot/S_yt-XA6RBioito4_18.mp4	0.0	161.04610800743103	0.0916900634765625
40	143.34109687805176	pulse	0	t		38.0	2.5	/experiments/aot/S_yt-XA6RBioito4_18.mp4	0.0	161.1299819946289	
40	143.34891295433044	movie	1		301	38.0	2.5	/experiments/aot/S_yt-XA6RBioito4_18.mp4	0.0	161.1377980709076	2.5082321166992188
40	144.94109296798706	pulse	1	t		38.0	2.5	/experiments/aot/S_yt-XA6RBioito4_18.mp4	0.0	162.7299780845642	
40	145.85714507102966	fix_post	2		72	38.0	2.5	/experiments/aot/S_yt-XA6RBioito4_18.mp4	0.0	163.6460301876068	0.6000089645385742
41	146.45715403556824	fix_pre	0		11	39.0	2.5	/experiments/aot/S_yt-hTkrnNr39dk_202.mp4	0.0	164.24603915214539	0.09169507026672363
41	146.54098892211914	pulse	0	t		39.0	2.5	/experiments/aot/S_yt-hTkrnNr39dk_202.mp4	0.0	164.3298740386963	
41	146.54884910583496	movie	1		301	39.0	2.5	/experiments/aot/S_yt-hTkrnNr39dk_202.mp4	0.0	164.3377342224121	2.5083608627319336
41	148.14122796058655	pulse	1	t		39.0	2.5	/experiments/aot/S_yt-hTkrnNr39dk_202.mp4	0.0	165.9301130771637	
41	149.0572099685669	fix_post	2		72	39.0	2.5	/experiments/aot/S_yt-hTkrnNr39dk_202.mp4	0.0	166.84609508514404	0.6000270843505859
42	149.65723705291748	fix_pre	0		11	40.0	2.5	blank	1.0	167.44612216949463	0.09162092208862305
42	149.7410409450531	pulse	0	t		40.0	2.5	blank	1.0	167.52992606163025	
42	149.7488579750061	movie	1		301	40.0	2.5	blank	1.0	167.53774309158325	2.508345127105713
42	151.34100699424744	pulse	1	t		40.0	2.5	blank	1.0	169.12989211082458	
42	152.25720310211182	fix_post	2		72	40.0	2.5	blank	1.0	170.04608821868896	0.5999720096588135
43	152.85717511177063	fix_pre	0		11	41.0	2.5	blank	1.0	170.64606022834778	0.09166884422302246
43	152.9410059452057	pulse	0	t		41.0	2.5	blank	1.0	170.72989106178284	
43	152.94884395599365	movie	1		301	41.0	2.5	blank	1.0	170.7377290725708	2.5083250999450684
43	154.54100394248962	pulse	1	t		41.0	2.5	blank	1.0	172.32988905906677	
43	155.45716905593872	fix_post	2		72	41.0	2.5	blank	1.0	173.24605417251587	0.599984884262085
44	156.0571539402008	fix_pre	0		11	42.0	2.5	/experiments/aot/S_ILSVRC2015_train_00515000.mp4	0.0	173.84603905677795	0.0916740894317627
44	156.1409831047058	pulse	0	t		42.0	2.5	/experiments/aot/S_ILSVRC2015_train_00515000.mp4	0.0	173.92986822128296	
44	156.14882802963257	movie	1		301	42.0	2.5	/experiments/aot/S_ILSVRC2015_train_00515000.mp4	0.0	173.93771314620972	2.5083348751068115
44	157.74104499816895	pulse	1	t		42.0	2.5	/experiments/aot/S_ILSVRC2015_train_00515000.mp4	0.0	175.5299301147461	
44	158.65716290473938	fix_post	2		72	42.0	2.5	/experiments/aot/S_ILSVRC2015_train_00515000.mp4	0.0	176.44604802131653	0.5999400615692139
45	159.2571029663086	fix_pre	0		11	43.0	2.5	/experiments/aot/S_yt--koo4FOfZE0_86.mp4	0.0	177.04598808288574	0.09166097640991211
45	159.34097599983215	pulse	0	t		43.0	2.5	/experiments/aot/S_yt--koo4FOfZE0_86.mp4	0.0	177.1298611164093	
45	159.3487639427185	movie	1		301	43.0	2.5	/experiments/aot/S_yt--koo4FOfZE0_86.mp4	0.0	177.13764905929565	2.5083069801330566
45	160.94102597236633	pulse	1	t		43.0	2.5	/experiments/aot/S_yt--koo4FOfZE0_86.mp4	0.0	178.72991108894348	
45	161.85707092285156	fix_post	2		72	43.0	2.5	/experiments/aot/S_yt--koo4FOfZE0_86.mp4	0.0	179.6459560394287	0.6000430583953857
46	162.45711398124695	fix_pre	0		11	44.0	2.5	/experiments/aot/S_yt-PaxmJhMoP3w_87.mp4	0.0	180.2459990978241	0.09170889854431152
46	162.54096794128418	pulse	0	t		44.0	2.5	/experiments/aot/S_yt-PaxmJhMoP3w_87.mp4	0.0	180.32985305786133	
46	162.54882287979126	movie	1		301	44.0	2.5	/experiments/aot/S_yt-PaxmJhMoP3w_87.mp4	0.0	180.3377079963684	2.5083401203155518
46	164.1411008834839	pulse	1	t		44.0	2.5	/experiments/aot/S_yt-PaxmJhMoP3w_87.mp4	0.0	181.92998600006104	
46	165.0571630001068	fix_post	2		72	44.0	2.5	/experiments/aot/S_yt-PaxmJhMoP3w_87.mp4	0.0	182.84604811668396	0.5998880863189697
47	165.65705108642578	fix_pre	0		11	45.0	2.5	/experiments/aot/S_yt-PCSXJ5YB_AE_3.mp4	0.0	183.44593620300293	0.09170389175415039
47	165.74090909957886	pulse	0	t		45.0	2.5	/experiments/aot/S_yt-PCSXJ5YB_AE_3.mp4	0.0	183.529794216156	
47	165.74875497817993	movie	1		301	45.0	2.5	/experiments/aot/S_yt-PCSXJ5YB_AE_3.mp4	0.0	183.53764009475708	2.508296012878418
47	167.34094905853271	pulse	1	t		45.0	2.5	/experiments/aot/S_yt-PCSXJ5YB_AE_3.mp4	0.0	185.12983417510986	
47	168.25705099105835	fix_post	2		72	45.0	2.5	/experiments/aot/S_yt-PCSXJ5YB_AE_3.mp4	0.0	186.0459361076355	0.5999889373779297
48	168.85703992843628	fix_pre	0		11	46.0	2.5	/experiments/aot/S_yt-yQrDeFlFmfM_138.mp4	0.0	186.64592504501343	0.09165811538696289
48	168.94090294837952	pulse	0	t		46.0	2.5	/experiments/aot/S_yt-yQrDeFlFmfM_138.mp4	0.0	186.72978806495667	
48	168.94869804382324	movie	1		301	46.0	2.5	/experiments/aot/S_yt-yQrDeFlFmfM_138.mp4	0.0	186.7375831604004	2.5083439350128174
48	170.54094910621643	pulse	1	t		46.0	2.5	/experiments/aot/S_yt-yQrDeFlFmfM_138.mp4	0.0	188.32983422279358	
48	171.45704197883606	fix_post	2		72	46.0	2.5	/experiments/aot/S_yt-yQrDeFlFmfM_138.mp4	0.0	189.2459270954132	0.600059986114502
49	172.05710196495056	fix_pre	0		11	47.0	2.5	/experiments/aot/S_yt-K-iCphzt_RE_17.mp4	0.0	189.8459870815277	0.09270310401916504
49	172.14104199409485	pulse	0	t		47.0	2.5	/experiments/aot/S_yt-K-iCphzt_RE_17.mp4	0.0	189.929927110672	
49	172.14980506896973	movie	1		301	47.0	2.5	/experiments/aot/S_yt-K-iCphzt_RE_17.mp4	0.0	189.93869018554688	2.5072779655456543
49	173.74103593826294	pulse	1	t		47.0	2.5	/experiments/aot/S_yt-K-iCphzt_RE_17.mp4	0.0	191.5299210548401	
49	174.65708303451538	fix_post	2		72	47.0	2.5	/experiments/aot/S_yt-K-iCphzt_RE_17.mp4	0.0	192.44596815109253	0.5999820232391357
50	175.25706505775452	fix_pre	0		11	48.0	2.5	/experiments/aot/S_yt-c-H45QS0CF4_147.mp4	0.0	193.04595017433167	0.0916588306427002
50	175.3408908843994	pulse	0	t		48.0	2.5	/experiments/aot/S_yt-c-H45QS0CF4_147.mp4	0.0	193.12977600097656	
50	175.34872388839722	movie	1		301	48.0	2.5	/experiments/aot/S_yt-c-H45QS0CF4_147.mp4	0.0	193.13760900497437	2.5092380046844482
50	176.9409499168396	pulse	1	t		48.0	2.5	/experiments/aot/S_yt-c-H45QS0CF4_147.mp4	0.0	194.72983503341675	
50	177.85796189308167	fix_post	2		72	48.0	2.5	/experiments/aot/S_yt-c-H45QS0CF4_147.mp4	0.0	195.6468470096588	0.5999770164489746
51	178.45793890953064	fix_pre	0		11	49.0	2.5	/experiments/aot/S_yt-Jro_TRE8NUQ_234.mp4	0.0	196.2468240261078	0.09077000617980957
51	178.54095196723938	pulse	0	t		49.0	2.5	/experiments/aot/S_yt-Jro_TRE8NUQ_234.mp4	0.0	196.32983708381653	
51	178.54870891571045	movie	1		301	49.0	2.5	/experiments/aot/S_yt-Jro_TRE8NUQ_234.mp4	0.0	196.3375940322876	2.5083420276641846
51	180.14091897010803	pulse	1	t		49.0	2.5	/experiments/aot/S_yt-Jro_TRE8NUQ_234.mp4	0.0	197.92980408668518	
51	181.05705094337463	fix_post	2		72	49.0	2.5	/experiments/aot/S_yt-Jro_TRE8NUQ_234.mp4	0.0	198.84593605995178	0.5999851226806641
52	181.6570360660553	fix_pre	0		11	50.0	2.5	/experiments/aot/S_yt-vQ-rd-1gwH4_238.mp4	0.0	199.44592118263245	0.09169292449951172
52	181.74092507362366	pulse	0	t		50.0	2.5	/experiments/aot/S_yt-vQ-rd-1gwH4_238.mp4	0.0	199.5298101902008	
52	181.7487289905548	movie	1		301	50.0	2.5	/experiments/aot/S_yt-vQ-rd-1gwH4_238.mp4	0.0	199.53761410713196	2.50823712348938
52	183.34100103378296	pulse	1	t		50.0	2.5	/experiments/aot/S_yt-vQ-rd-1gwH4_238.mp4	0.0	201.1298861503601	
52	184.2569661140442	fix_post	2		72	50.0	2.5	/experiments/aot/S_yt-vQ-rd-1gwH4_238.mp4	0.0	202.04585123062134	0.6000478267669678
53	184.85701394081116	fix_pre	0		11	51.0	2.5	/experiments/aot/S_production_ID_3735542.mp4	0.0	202.6458990573883	0.09161710739135742
53	184.94085788726807	pulse	0	t		51.0	2.5	/experiments/aot/S_production_ID_3735542.mp4	0.0	202.72974300384521	
53	184.94863104820251	movie	1		158	51.0	2.5	/experiments/aot/S_production_ID_3735542.mp4	0.0	202.73751616477966	2.5091300010681152
53	186.54091906547546	pulse	1	t		51.0	2.5	/experiments/aot/S_production_ID_3735542.mp4	0.0	204.3298041820526	
53	187.45776104927063	fix_post	2		72	51.0	2.5	/experiments/aot/S_production_ID_3735542.mp4	0.0	205.24664616584778	0.5992269515991211
54	188.05698800086975	fix_pre	0		11	52.0	2.5	/experiments/aot/S_nTA7B2uHaCQ_1.mp4	0.0	205.8458731174469	0.09165501594543457
54	188.14088702201843	pulse	0	t		52.0	2.5	/experiments/aot/S_nTA7B2uHaCQ_1.mp4	0.0	205.92977213859558	
54	188.14864301681519	movie	1		301	52.0	2.5	/experiments/aot/S_nTA7B2uHaCQ_1.mp4	0.0	205.93752813339233	2.5083138942718506
54	189.74090790748596	pulse	1	t		52.0	2.5	/experiments/aot/S_nTA7B2uHaCQ_1.mp4	0.0	207.5297930240631	
54	190.65695691108704	fix_post	2		72	52.0	2.5	/experiments/aot/S_nTA7B2uHaCQ_1.mp4	0.0	208.44584202766418	0.5999820232391357
55	191.25693893432617	fix_pre	0		11	53.0	2.5	/experiments/aot/S_ILSVRC2015_train_00411000.mp4	0.0	209.04582405090332	0.09167003631591797
55	191.3408510684967	pulse	0	t		53.0	2.5	/experiments/aot/S_ILSVRC2015_train_00411000.mp4	0.0	209.12973618507385	
55	191.3486089706421	movie	1		301	53.0	2.5	/experiments/aot/S_ILSVRC2015_train_00411000.mp4	0.0	209.13749408721924	2.508328914642334
55	192.94089007377625	pulse	1	t		53.0	2.5	/experiments/aot/S_ILSVRC2015_train_00411000.mp4	0.0	210.7297751903534	
55	193.85693788528442	fix_post	2		72	53.0	2.5	/experiments/aot/S_ILSVRC2015_train_00411000.mp4	0.0	211.64582300186157	0.5999882221221924
56	194.45692610740662	fix_pre	0		11	54.0	2.5	/experiments/aot/S_yt-TxU1H5A6BaQ_52.mp4	0.0	212.24581122398376	0.09165692329406738
56	194.5403709411621	pulse	0	t		54.0	2.5	/experiments/aot/S_yt-TxU1H5A6BaQ_52.mp4	0.0	212.32925605773926	
56	194.54858303070068	movie	1		301	54.0	2.5	/experiments/aot/S_yt-TxU1H5A6BaQ_52.mp4	0.0	212.33746814727783	2.5086870193481445
56	196.1406569480896	pulse	1	t		54.0	2.5	/experiments/aot/S_yt-TxU1H5A6BaQ_52.mp4	0.0	213.92954206466675	
56	197.05727005004883	fix_post	2		72	54.0	2.5	/experiments/aot/S_yt-TxU1H5A6BaQ_52.mp4	0.0	214.84615516662598	0.5996649265289307
57	197.65693497657776	fix_pre	0		11	55.0	2.5	/experiments/aot/S_yt-aSEKRE_FNaI_62.mp4	0.0	215.4458200931549	0.09172606468200684
57	197.74084210395813	pulse	0	t		55.0	2.5	/experiments/aot/S_yt-aSEKRE_FNaI_62.mp4	0.0	215.52972722053528	
57	197.74866104125977	movie	1		301	55.0	2.5	/experiments/aot/S_yt-aSEKRE_FNaI_62.mp4	0.0	215.5375461578369	2.508219003677368
57	199.34082889556885	pulse	1	t		55.0	2.5	/experiments/aot/S_yt-aSEKRE_FNaI_62.mp4	0.0	217.129714012146	
57	200.25688004493713	fix_post	2		72	55.0	2.5	/experiments/aot/S_yt-aSEKRE_FNaI_62.mp4	0.0	218.04576516151428	0.6008639335632324
58	200.85774397850037	fix_pre	0		11	56.0	2.5	blank	1.0	218.64662909507751	0.09082198143005371
58	200.94076704978943	pulse	0	t		56.0	2.5	blank	1.0	218.72965216636658	
58	200.94856595993042	movie	1		301	56.0	2.5	blank	1.0	218.73745107650757	2.5083279609680176
58	202.54072093963623	pulse	1	t		56.0	2.5	blank	1.0	220.32960605621338	
58	203.45689392089844	fix_post	2		72	56.0	2.5	blank	1.0	221.2457790374756	0.599999189376831
59	204.05689311027527	fix_pre	0		11	57.0	2.5	/experiments/aot/S_Nh81j72Utbs_5.mp4	0.0	221.84577822685242	0.09163689613342285
59	204.14077305793762	pulse	0	t		57.0	2.5	/experiments/aot/S_Nh81j72Utbs_5.mp4	0.0	221.92965817451477	
59	204.1485300064087	movie	1		301	57.0	2.5	/experiments/aot/S_Nh81j72Utbs_5.mp4	0.0	221.93741512298584	2.5083470344543457
59	205.7407829761505	pulse	1	t		57.0	2.5	/experiments/aot/S_Nh81j72Utbs_5.mp4	0.0	223.52966809272766	
59	206.65687704086304	fix_post	2		72	57.0	2.5	/experiments/aot/S_Nh81j72Utbs_5.mp4	0.0	224.44576215744019	0.5999710559844971
60	207.25684809684753	fix_pre	0		11	58.0	2.5	/experiments/aot/S_yt-54kx8P3L1ns_6.mp4	0.0	225.04573321342468	0.09160900115966797
60	207.34073305130005	pulse	0	t		58.0	2.5	/experiments/aot/S_yt-54kx8P3L1ns_6.mp4	0.0	225.1296181678772	
60	207.3484570980072	movie	1		301	58.0	2.5	/experiments/aot/S_yt-54kx8P3L1ns_6.mp4	0.0	225.13734221458435	2.508359909057617
60	208.9407229423523	pulse	1	t		58.0	2.5	/experiments/aot/S_yt-54kx8P3L1ns_6.mp4	0.0	226.72960805892944	
60	209.85681700706482	fix_post	2		72	58.0	2.5	/experiments/aot/S_yt-54kx8P3L1ns_6.mp4	0.0	227.64570212364197	0.6000609397888184
61	210.45687794685364	fix_pre	0		11	59.0	2.5	blank	1.0	228.2457630634308	0.09259200096130371
61	210.54068398475647	pulse	0	t		59.0	2.5	blank	1.0	228.32956910133362	
61	210.54946994781494	movie	1		301	59.0	2.5	blank	1.0	228.3383550643921	2.507488965988159
61	212.1406979560852	pulse	1	t		59.0	2.5	blank	1.0	229.92958307266235	
61	213.0569589138031	fix_post	2		72	59.0	2.5	blank	1.0	230.84584403038025	0.5998849868774414
62	213.65684390068054	fix_pre	0		11	60.0	2.5	/experiments/aot/S_yt-bwSRV1Vr21s_435.mp4	0.0	231.4457290172577	0.09168314933776855
62	213.74070811271667	pulse	0	t		60.0	2.5	/experiments/aot/S_yt-bwSRV1Vr21s_435.mp4	0.0	231.52959322929382	
62	213.7485270500183	movie	1		301	60.0	2.5	/experiments/aot/S_yt-bwSRV1Vr21s_435.mp4	0.0	231.53741216659546	2.508328914642334
62	215.3407380580902	pulse	1	t		60.0	2.5	/experiments/aot/S_yt-bwSRV1Vr21s_435.mp4	0.0	233.12962317466736	
62	216.25685596466064	fix_post	2		72	60.0	2.5	/experiments/aot/S_yt-bwSRV1Vr21s_435.mp4	0.0	234.0457410812378	0.6008889675140381
63	216.85774493217468	fix_pre	0		11	61.0	2.5	/experiments/aot/S_yt-gmiyqQDGN78_7.mp4	0.0	234.64663004875183	0.09071207046508789
63	216.9407069683075	pulse	0	t		61.0	2.5	/experiments/aot/S_yt-gmiyqQDGN78_7.mp4	0.0	234.72959208488464	
63	216.94845700263977	movie	1		301	61.0	2.5	/experiments/aot/S_yt-gmiyqQDGN78_7.mp4	0.0	234.73734211921692	2.508323907852173
63	218.5408570766449	pulse	1	t		61.0	2.5	/experiments/aot/S_yt-gmiyqQDGN78_7.mp4	0.0	236.32974219322205	
63	219.45678091049194	fix_post	2		72	61.0	2.5	/experiments/aot/S_yt-gmiyqQDGN78_7.mp4	0.0	237.2456660270691	0.6000421047210693
64	220.056823015213	fix_pre	0		11	62.0	2.5	/experiments/aot/S_yt-ibDaDIEazxg_3.mp4	0.0	237.84570813179016	0.09203886985778809
64	220.1406741142273	pulse	0	t		62.0	2.5	/experiments/aot/S_yt-ibDaDIEazxg_3.mp4	0.0	237.92955923080444	
64	220.1488618850708	movie	1		301	62.0	2.5	/experiments/aot/S_yt-ibDaDIEazxg_3.mp4	0.0	237.93774700164795	2.5079410076141357
64	221.7407031059265	pulse	1	t		62.0	2.5	/experiments/aot/S_yt-ibDaDIEazxg_3.mp4	0.0	239.52958822250366	
64	222.65680289268494	fix_post	2		72	62.0	2.5	/experiments/aot/S_yt-ibDaDIEazxg_3.mp4	0.0	240.44568800926208	0.5999281406402588
65	223.2567310333252	fix_pre	0		11	63.0	2.5	/experiments/aot/S_yt-AiXq1oDrEXI_123.mp4	0.0	241.04561614990234	0.09170103073120117
65	223.34063410758972	pulse	0	t		63.0	2.5	/experiments/aot/S_yt-AiXq1oDrEXI_123.mp4	0.0	241.12951922416687	
65	223.3484320640564	movie	1		301	63.0	2.5	/experiments/aot/S_yt-AiXq1oDrEXI_123.mp4	0.0	241.13731718063354	2.50934100151062
65	224.94084095954895	pulse	1	t		63.0	2.5	/experiments/aot/S_yt-AiXq1oDrEXI_123.mp4	0.0	242.7297260761261	
65	225.85777306556702	fix_post	2		72	63.0	2.5	/experiments/aot/S_yt-AiXq1oDrEXI_123.mp4	0.0	243.64665818214417	0.599005937576294
66	226.4567790031433	fix_pre	0		11	64.0	2.5	blank	1.0	244.24566411972046	0.09163498878479004
66	226.54066109657288	pulse	0	t		64.0	2.5	blank	1.0	244.32954621315002	
66	226.5484139919281	movie	1		301	64.0	2.5	blank	1.0	244.33729910850525	2.508344888687134
66	228.14057397842407	pulse	1	t		64.0	2.5	blank	1.0	245.92945909500122	
66	229.05675888061523	fix_post	2		72	64.0	2.5	blank	1.0	246.84564399719238	0.5999801158905029
67	229.65673899650574	fix_pre	0		11	65.0	2.5	blank	1.0	247.44562411308289	0.09172296524047852
67	229.7405469417572	pulse	0	t		65.0	2.5	blank	1.0	247.52943205833435	
67	229.74846196174622	movie	1		301	65.0	2.5	blank	1.0	247.53734707832336	2.5082690715789795
67	231.3406240940094	pulse	1	t		65.0	2.5	blank	1.0	249.12950921058655	
67	232.2567310333252	fix_post	2		72	65.0	2.5	blank	1.0	250.04561614990234	0.5999670028686523
68	232.85669803619385	fix_pre	0		11	66.0	2.5	/experiments/aot/S_yt-oxUpc8I5wWQ_238.mp4	0.0	250.645583152771	0.09169697761535645
68	232.94065189361572	pulse	0	t		66.0	2.5	/experiments/aot/S_yt-oxUpc8I5wWQ_238.mp4	0.0	250.72953701019287	
68	232.9483950138092	movie	1		301	66.0	2.5	/experiments/aot/S_yt-oxUpc8I5wWQ_238.mp4	0.0	250.73728013038635	2.508323907852173
68	234.54066801071167	pulse	1	t		66.0	2.5	/experiments/aot/S_yt-oxUpc8I5wWQ_238.mp4	0.0	252.32955312728882	
68	235.45671892166138	fix_post	2		72	66.0	2.5	/experiments/aot/S_yt-oxUpc8I5wWQ_238.mp4	0.0	253.24560403823853	0.6000151634216309
69	236.056734085083	fix_pre	0		11	67.0	2.5	/experiments/aot/S_yt-b7JAHOeiTqU_44.mp4	0.0	253.84561920166016	0.09168291091918945
69	236.1406021118164	pulse	0	t		67.0	2.5	/experiments/aot/S_yt-b7JAHOeiTqU_44.mp4	0.0	253.92948722839355	
69	236.1484169960022	movie	1		301	67.0	2.5	/experiments/aot/S_yt-b7JAHOeiTqU_44.mp4	0.0	253.93730211257935	2.508301019668579
69	237.74064588546753	pulse	1	t		67.0	2.5	/experiments/aot/S_yt-b7JAHOeiTqU_44.mp4	0.0	255.52953100204468	
69	238.65671801567078	fix_post	2		72	67.0	2.5	/experiments/aot/S_yt-b7JAHOeiTqU_44.mp4	0.0	256.4456031322479	0.5999579429626465
70	239.25667595863342	fix_pre	0		11	68.0	2.5	/experiments/aot/S_yt-MTo50ReVNmU_2.mp4	0.0	257.04556107521057	0.09165096282958984
70	239.3406000137329	pulse	0	t		68.0	2.5	/experiments/aot/S_yt-MTo50ReVNmU_2.mp4	0.0	257.12948513031006	
70	239.348326921463	movie	1		301	68.0	2.5	/experiments/aot/S_yt-MTo50ReVNmU_2.mp4	0.0	257.13721203804016	2.508345127105713
70	240.94061088562012	pulse	1	t		68.0	2.5	/experiments/aot/S_yt-MTo50ReVNmU_2.mp4	0.0	258.72949600219727	
70	241.85667204856873	fix_post	2		72	68.0	2.5	/experiments/aot/S_yt-MTo50ReVNmU_2.mp4	0.0	259.6455571651459	0.6000280380249023
71	242.45670008659363	fix_pre	0		11	69.0	2.5	/experiments/aot/S_flickr-clarkstonscamp-4863427159_1.mp4	0.0	260.2455852031708	0.09202980995178223
71	242.54058599472046	pulse	0	t		69.0	2.5	/experiments/aot/S_flickr-clarkstonscamp-4863427159_1.mp4	0.0	260.3294711112976	
71	242.5487298965454	movie	1		301	69.0	2.5	/experiments/aot/S_flickr-clarkstonscamp-4863427159_1.mp4	0.0	260.33761501312256	2.5079550743103027
71	244.14060497283936	pulse	1	t		69.0	2.5	/experiments/aot/S_flickr-clarkstonscamp-4863427159_1.mp4	0.0	261.9294900894165	
71	245.0566849708557	fix_post	2		72	69.0	2.5	/experiments/aot/S_flickr-clarkstonscamp-4863427159_1.mp4	0.0	262.84557008743286	0.5999870300292969
72	245.656672000885	fix_pre	0		11	70.0	2.5	/experiments/aot/S_yt-iO0efV_PV-k_102.mp4	0.0	263.44555711746216	0.09167909622192383
72	245.74060606956482	pulse	0	t		70.0	2.5	/experiments/aot/S_yt-iO0efV_PV-k_102.mp4	0.0	263.52949118614197	
72	245.74835109710693	movie	1		301	70.0	2.5	/experiments/aot/S_yt-iO0efV_PV-k_102.mp4	0.0	263.5372362136841	2.5083189010620117
72	247.34062790870667	pulse	1	t		70.0	2.5	/experiments/aot/S_yt-iO0efV_PV-k_102.mp4	0.0	265.1295130252838	
72	248.25666999816895	fix_post	2		72	70.0	2.5	/experiments/aot/S_yt-iO0efV_PV-k_102.mp4	0.0	266.0455551147461	0.5999829769134521
73	248.8566529750824	fix_pre	0		11	71.0	2.5	/experiments/aot/S_yt-NZIhxK5NvWE_152.mp4	0.0	266.64553809165955	0.09166812896728516
73	248.94072008132935	pulse	0	t		71.0	2.5	/experiments/aot/S_yt-NZIhxK5NvWE_152.mp4	0.0	266.7296051979065	
73	248.94832110404968	movie	1		301	71.0	2.5	/experiments/aot/S_yt-NZIhxK5NvWE_152.mp4	0.0	266.73720622062683	2.509262800216675
73	250.5404920578003	pulse	1	t		71.0	2.5	/experiments/aot/S_yt-NZIhxK5NvWE_152.mp4	0.0	268.32937717437744	
73	251.45758390426636	fix_post	2		72	71.0	2.5	/experiments/aot/S_yt-NZIhxK5NvWE_152.mp4	0.0	269.2464690208435	0.6002311706542969
74	252.05781507492065	fix_pre	0		11	72.0	2.5	/experiments/aot/S_production_ID_3712945.mp4	0.0	269.8467001914978	0.09159302711486816
74	252.1403350830078	pulse	0	t		72.0	2.5	/experiments/aot/S_production_ID_3712945.mp4	0.0	269.92922019958496	
74	252.14940810203552	movie	1		161	72.0	2.5	/experiments/aot/S_production_ID_3712945.mp4	0.0	269.93829321861267	2.507239818572998
74	253.74080109596252	pulse	1	t		72.0	2.5	/experiments/aot/S_production_ID_3712945.mp4	0.0	271.5296862125397	
74	254.65664792060852	fix_post	2		72	72.0	2.5	/experiments/aot/S_production_ID_3712945.mp4	0.0	272.44553303718567	0.5999550819396973
75	255.25660300254822	fix_pre	0		11	73.0	2.5	blank	1.0	273.04548811912537	0.09163594245910645
75	255.34057998657227	pulse	0	t		73.0	2.5	blank	1.0	273.1294651031494	
75	255.34823894500732	movie	1		301	73.0	2.5	blank	1.0	273.1371240615845	2.508413076400757
75	256.94052505493164	pulse	1	t		73.0	2.5	blank	1.0	274.7294101715088	
75	257.8566520214081	fix_post	2		72	73.0	2.5	blank	1.0	275.64553713798523	0.5999588966369629
76	258.45661091804504	fix_pre	0		11	74.0	2.5	blank	1.0	276.2454960346222	0.09157896041870117
76	258.540540933609	pulse	0	t		74.0	2.5	blank	1.0	276.32942605018616	
76	258.54818987846375	movie	1		301	74.0	2.5	blank	1.0	276.3370749950409	2.5092661380767822
76	260.1404390335083	pulse	1	t		74.0	2.5	blank	1.0	277.92932415008545	
76	261.0574560165405	fix_post	2		72	74.0	2.5	blank	1.0	278.8463411331177	0.5991380214691162
77	261.65659403800964	fix_pre	0		11	75.0	2.5	/experiments/aot/S_ILSVRC2015_train_00165008.mp4	0.0	279.4454791545868	0.09163999557495117
77	261.74048495292664	pulse	0	t		75.0	2.5	/experiments/aot/S_ILSVRC2015_train_00165008.mp4	0.0	279.5293700695038	
77	261.7482340335846	movie	1		301	75.0	2.5	/experiments/aot/S_ILSVRC2015_train_00165008.mp4	0.0	279.53711915016174	2.5083210468292236
77	263.340518951416	pulse	1	t		75.0	2.5	/experiments/aot/S_ILSVRC2015_train_00165008.mp4	0.0	281.12940406799316	
77	264.2565550804138	fix_post	2		72	75.0	2.5	/experiments/aot/S_ILSVRC2015_train_00165008.mp4	0.0	282.04544019699097	0.600059986114502
78	264.8566150665283	fix_pre	0		11	76.0	2.5	/experiments/aot/S_yt-n_eO-7KedAE_21.mp4	0.0	282.64550018310547	0.09171390533447266
78	264.9404048919678	pulse	0	t		76.0	2.5	/experiments/aot/S_yt-n_eO-7KedAE_21.mp4	0.0	282.7292900085449	
78	264.9483289718628	movie	1		301	76.0	2.5	/experiments/aot/S_yt-n_eO-7KedAE_21.mp4	0.0	282.73721408843994	2.5082170963287354
78	266.54051899909973	pulse	1	t		76.0	2.5	/experiments/aot/S_yt-n_eO-7KedAE_21.mp4	0.0	284.3294041156769	
78	267.4565460681915	fix_post	2		72	76.0	2.5	/experiments/aot/S_yt-n_eO-7KedAE_21.mp4	0.0	285.2454311847687	0.600013017654419
79	268.05655908584595	fix_pre	0		11	77.0	2.5	/experiments/aot/S_yt-KV8X9IBWuJk_48.mp4	0.0	285.8454442024231	0.09171080589294434
79	268.14045000076294	pulse	0	t		77.0	2.5	/experiments/aot/S_yt-KV8X9IBWuJk_48.mp4	0.0	285.9293351173401	
79	268.1482698917389	movie	1		301	77.0	2.5	/experiments/aot/S_yt-KV8X9IBWuJk_48.mp4	0.0	285.93715500831604	2.509139060974121
79	269.74044704437256	pulse	1	t		77.0	2.5	/experiments/aot/S_yt-KV8X9IBWuJk_48.mp4	0.0	287.5293321609497	
79	270.657408952713	fix_post	2		72	77.0	2.5	/experiments/aot/S_yt-KV8X9IBWuJk_48.mp4	0.0	288.44629406929016	0.5999560356140137
80	271.257364988327	fix_pre	0		11	78.0	2.5	/experiments/aot/S_yt-EvKV7iY1_HM_193.mp4	0.0	289.0462501049042	0.0916450023651123
80	271.3403670787811	pulse	0	t		78.0	2.5	/experiments/aot/S_yt-EvKV7iY1_HM_193.mp4	0.0	289.1292521953583	
80	271.34900999069214	movie	1		301	78.0	2.5	/experiments/aot/S_yt-EvKV7iY1_HM_193.mp4	0.0	289.1378951072693	2.5084280967712402
80	272.9404799938202	pulse	1	t		78.0	2.5	/experiments/aot/S_yt-EvKV7iY1_HM_193.mp4	0.0	290.72936511039734	
80	273.8574380874634	fix_post	2		72	78.0	2.5	/experiments/aot/S_yt-EvKV7iY1_HM_193.mp4	0.0	291.6463232040405	0.5990538597106934
81	274.4564919471741	fix_pre	0		11	79.0	2.5	/experiments/aot/S_yt-AOP7QYQntPI_28.mp4	0.0	292.2453770637512	0.09190511703491211
81	274.5404179096222	pulse	0	t		79.0	2.5	/experiments/aot/S_yt-AOP7QYQntPI_28.mp4	0.0	292.32930302619934	
81	274.548397064209	movie	1		301	79.0	2.5	/experiments/aot/S_yt-AOP7QYQntPI_28.mp4	0.0	292.33728218078613	2.50815486907959
81	276.14045095443726	pulse	1	t		79.0	2.5	/experiments/aot/S_yt-AOP7QYQntPI_28.mp4	0.0	293.9293360710144	
81	277.0565519332886	fix_post	2		72	79.0	2.5	/experiments/aot/S_yt-AOP7QYQntPI_28.mp4	0.0	294.8454370498657	0.5999460220336914
82	277.65649795532227	fix_pre	0		11	80.0	2.5	/experiments/aot/S_yt-O4wUEZwHLyI_114.mp4	0.0	295.4453830718994	0.0916750431060791
82	277.7403988838196	pulse	0	t		80.0	2.5	/experiments/aot/S_yt-O4wUEZwHLyI_114.mp4	0.0	295.52928400039673	
82	277.74817299842834	movie	1		301	80.0	2.5	/experiments/aot/S_yt-O4wUEZwHLyI_114.mp4	0.0	295.5370581150055	2.508281946182251
82	279.34042596817017	pulse	1	t		80.0	2.5	/experiments/aot/S_yt-O4wUEZwHLyI_114.mp4	0.0	297.1293110847473	
82	280.2564549446106	fix_post	2		72	80.0	2.5	/experiments/aot/S_yt-O4wUEZwHLyI_114.mp4	0.0	298.04534006118774	0.5999600887298584
83	280.85641503334045	fix_pre	0		11	81.0	2.5	blank	1.0	298.6453001499176	0.09168601036071777
83	280.940388917923	pulse	0	t		81.0	2.5	blank	1.0	298.7292740345001	
83	280.9481010437012	movie	1		301	81.0	2.5	blank	1.0	298.7369861602783	2.508347988128662
83	282.54034209251404	pulse	1	t		81.0	2.5	blank	1.0	300.3292272090912	
83	283.45644903182983	fix_post	2		72	81.0	2.5	blank	1.0	301.245334148407	0.6000430583953857
84	284.0564920902252	fix_pre	0		11	82.0	2.5	/experiments/aot/S_pexels-tima-miroshnichenko-5717005.mp4	0.0	301.84537720680237	0.09253382682800293
84	284.1403388977051	pulse	0	t		82.0	2.5	/experiments/aot/S_pexels-tima-miroshnichenko-5717005.mp4	0.0	301.9292240142822	
84	284.1490259170532	movie	1		163	82.0	2.5	/experiments/aot/S_pexels-tima-miroshnichenko-5717005.mp4	0.0	301.93791103363037	2.508390188217163
84	285.74004793167114	pulse	1	t		82.0	2.5	/experiments/aot/S_pexels-tima-miroshnichenko-5717005.mp4	0.0	303.5289330482483	
84	286.6574161052704	fix_post	2		72	82.0	2.5	/experiments/aot/S_pexels-tima-miroshnichenko-5717005.mp4	0.0	304.44630122184753	0.5999338626861572
85	287.25734996795654	fix_pre	0		11	83.0	2.5	/experiments/aot/S_yt-6mRpmfIvdew_1435.mp4	0.0	305.0462350845337	0.09288311004638672
85	287.3403708934784	pulse	0	t		83.0	2.5	/experiments/aot/S_yt-6mRpmfIvdew_1435.mp4	0.0	305.12925601005554	
85	287.35023307800293	movie	1		301	83.0	2.5	/experiments/aot/S_yt-6mRpmfIvdew_1435.mp4	0.0	305.1391181945801	2.506279945373535
85	288.9404900074005	pulse	1	t		83.0	2.5	/experiments/aot/S_yt-6mRpmfIvdew_1435.mp4	0.0	306.72937512397766	
85	289.85651302337646	fix_post	2		72	83.0	2.5	/experiments/aot/S_yt-6mRpmfIvdew_1435.mp4	0.0	307.6453981399536	0.5999350547790527
86	290.4564480781555	fix_pre	0		11	84.0	2.5	/experiments/aot/S_yt-zam74qlzGtQ_122.mp4	0.0	308.24533319473267	0.09166097640991211
86	290.5402879714966	pulse	0	t		84.0	2.5	/experiments/aot/S_yt-zam74qlzGtQ_122.mp4	0.0	308.32917308807373	
86	290.54810905456543	movie	1		301	84.0	2.5	/experiments/aot/S_yt-zam74qlzGtQ_122.mp4	0.0	308.3369941711426	2.508359909057617
86	292.1403889656067	pulse	1	t		84.0	2.5	/experiments/aot/S_yt-zam74qlzGtQ_122.mp4	0.0	309.92927408218384	
86	293.05646896362305	fix_post	2		72	84.0	2.5	/experiments/aot/S_yt-zam74qlzGtQ_122.mp4	0.0	310.8453540802002	0.5998890399932861
87	293.65635800361633	fix_pre	0		11	85.0	2.5	/experiments/aot/S_yt-deiWoIfK6vg_44.mp4	0.0	311.4452431201935	0.0920419692993164
87	293.7403230667114	pulse	0	t		85.0	2.5	/experiments/aot/S_yt-deiWoIfK6vg_44.mp4	0.0	311.5292081832886	
87	293.74839997291565	movie	1		301	85.0	2.5	/experiments/aot/S_yt-deiWoIfK6vg_44.mp4	0.0	311.5372850894928	2.5079870223999023
87	295.3403129577637	pulse	1	t		85.0	2.5	/experiments/aot/S_yt-deiWoIfK6vg_44.mp4	0.0	313.1291980743408	
87	296.25638699531555	fix_post	2		72	85.0	2.5	/experiments/aot/S_yt-deiWoIfK6vg_44.mp4	0.0	314.0452721118927	0.5999999046325684
88	296.8563868999481	fix_pre	0		11	86.0	2.5	/experiments/aot/S_yt-9EnchawJ3pA_90.mp4	0.0	314.64527201652527	0.09264016151428223
88	296.94034790992737	pulse	0	t		86.0	2.5	/experiments/aot/S_yt-9EnchawJ3pA_90.mp4	0.0	314.7292330265045	
88	296.9490270614624	movie	1		301	86.0	2.5	/experiments/aot/S_yt-9EnchawJ3pA_90.mp4	0.0	314.73791217803955	2.508194923400879
88	298.54028511047363	pulse	1	t		86.0	2.5	/experiments/aot/S_yt-9EnchawJ3pA_90.mp4	0.0	316.3291702270508	
88	299.4572219848633	fix_post	2		72	86.0	2.5	/experiments/aot/S_yt-9EnchawJ3pA_90.mp4	0.0	317.24610710144043	0.6000211238861084
89	300.0572431087494	fix_pre	0		11	87.0	2.5	/experiments/aot/S_video-10.mp4	0.0	317.84612822532654	0.09077692031860352
89	300.140340089798	pulse	0	t		87.0	2.5	/experiments/aot/S_video-10.mp4	0.0	317.9292252063751	
89	300.148020029068	movie	1		162	87.0	2.5	/experiments/aot/S_video-10.mp4	0.0	317.93690514564514	2.509194850921631
89	301.7403860092163	pulse	1	t		87.0	2.5	/experiments/aot/S_video-10.mp4	0.0	319.52927112579346	
89	302.6572148799896	fix_post	2		72	87.0	2.5	/experiments/aot/S_video-10.mp4	0.0	320.4460999965668	0.6000161170959473
90	303.25723099708557	fix_pre	0		11	88.0	2.5	/experiments/aot/S_ILSVRC2015_train_00067005.mp4	0.0	321.0461161136627	0.09183001518249512
90	303.34033703804016	pulse	0	t		88.0	2.5	/experiments/aot/S_ILSVRC2015_train_00067005.mp4	0.0	321.1292221546173	
90	303.34906101226807	movie	1		301	88.0	2.5	/experiments/aot/S_ILSVRC2015_train_00067005.mp4	0.0	321.1379461288452	2.5073959827423096
90	304.93983006477356	pulse	1	t		88.0	2.5	/experiments/aot/S_ILSVRC2015_train_00067005.mp4	0.0	322.7287151813507	
90	305.8564569950104	fix_post	2		72	88.0	2.5	/experiments/aot/S_ILSVRC2015_train_00067005.mp4	0.0	323.6453421115875	0.6000180244445801
91	306.45647501945496	fix_pre	0		11	89.0	2.5	/experiments/aot/S_yt-RO4mhuXBVrY_67.mp4	0.0	324.2453601360321	0.09160709381103516
91	306.53985810279846	pulse	0	t		89.0	2.5	/experiments/aot/S_yt-RO4mhuXBVrY_67.mp4	0.0	324.3287432193756	
91	306.548082113266	movie	1		301	89.0	2.5	/experiments/aot/S_yt-RO4mhuXBVrY_67.mp4	0.0	324.33696722984314	2.5083208084106445
91	308.14019107818604	pulse	1	t		89.0	2.5	/experiments/aot/S_yt-RO4mhuXBVrY_67.mp4	0.0	325.9290761947632	
91	309.05640292167664	fix_post	2		72	89.0	2.5	/experiments/aot/S_yt-RO4mhuXBVrY_67.mp4	0.0	326.8452880382538	0.6009411811828613
92	309.6573441028595	fix_pre	0		11	90.0	2.5	/experiments/aot/S_yt-QTGIhecBZjc_19.mp4	0.0	327.44622921943665	0.09163880348205566
92	309.7402811050415	pulse	0	t		90.0	2.5	/experiments/aot/S_yt-QTGIhecBZjc_19.mp4	0.0	327.52916622161865	
92	309.74898290634155	movie	1		301	90.0	2.5	/experiments/aot/S_yt-QTGIhecBZjc_19.mp4	0.0	327.5378680229187	2.507397174835205
92	311.3402850627899	pulse	1	t		90.0	2.5	/experiments/aot/S_yt-QTGIhecBZjc_19.mp4	0.0	329.12917017936707	
92	312.25638008117676	fix_post	2		72	90.0	2.5	/experiments/aot/S_yt-QTGIhecBZjc_19.mp4	0.0	330.0452651977539	0.6008868217468262
93	312.8572669029236	fix_pre	0		11	91.0	2.5	blank	1.0	330.64615201950073	0.0920259952545166
93	312.94026803970337	pulse	0	t		91.0	2.5	blank	1.0	330.7291531562805	
93	312.9492928981781	movie	1		301	91.0	2.5	blank	1.0	330.73817801475525	2.507021188735962
93	314.54018688201904	pulse	1	t		91.0	2.5	blank	1.0	332.3290719985962	
93	315.45631408691406	fix_post	2		72	91.0	2.5	blank	1.0	333.2451992034912	0.6000199317932129
94	316.0563340187073	fix_pre	0		11	92.0	2.5	/experiments/aot/S_yt-GWlwb2QsxIA_48.mp4	0.0	333.8452191352844	0.09165191650390625
94	316.1401278972626	pulse	0	t		92.0	2.5	/experiments/aot/S_yt-GWlwb2QsxIA_48.mp4	0.0	333.9290130138397	
94	316.1479859352112	movie	1		301	92.0	2.5	/experiments/aot/S_yt-GWlwb2QsxIA_48.mp4	0.0	333.93687105178833	2.5083141326904297
94	317.74018597602844	pulse	1	t		92.0	2.5	/experiments/aot/S_yt-GWlwb2QsxIA_48.mp4	0.0	335.5290710926056	
94	318.6563000679016	fix_post	2		72	92.0	2.5	/experiments/aot/S_yt-GWlwb2QsxIA_48.mp4	0.0	336.44518518447876	0.6000218391418457
95	319.25632190704346	fix_pre	0		11	93.0	2.5	blank	1.0	337.0452070236206	0.0917060375213623
95	319.3401188850403	pulse	0	t		93.0	2.5	blank	1.0	337.12900400161743	
95	319.3480279445648	movie	1		301	93.0	2.5	blank	1.0	337.13691306114197	2.5082781314849854
95	320.9401500225067	pulse	1	t		93.0	2.5	blank	1.0	338.72903513908386	
95	321.8563060760498	fix_post	2		72	93.0	2.5	blank	1.0	339.64519119262695	0.6008009910583496
96	322.45710706710815	fix_pre	0		11	94.0	2.5	/experiments/aot/S_ILSVRC2015_train_00369004.mp4	0.0	340.2459921836853	0.09087395668029785
96	322.5400810241699	pulse	0	t		94.0	2.5	/experiments/aot/S_ILSVRC2015_train_00369004.mp4	0.0	340.32896614074707	
96	322.54798102378845	movie	1		301	94.0	2.5	/experiments/aot/S_ILSVRC2015_train_00369004.mp4	0.0	340.3368661403656	2.5083038806915283
96	324.140261888504	pulse	1	t		94.0	2.5	/experiments/aot/S_ILSVRC2015_train_00369004.mp4	0.0	341.9291470050812	
96	325.05628490448	fix_post	2		72	94.0	2.5	/experiments/aot/S_ILSVRC2015_train_00369004.mp4	0.0	342.84517002105713	0.5999941825866699
97	325.65627908706665	fix_pre	0		11	95.0	2.5	blank	1.0	343.4451642036438	0.09170699119567871
97	325.74019289016724	pulse	0	t		95.0	2.5	blank	1.0	343.5290780067444	
97	325.74798607826233	movie	1		301	95.0	2.5	blank	1.0	343.5368711948395	2.508296012878418
97	327.3400809764862	pulse	1	t		95.0	2.5	blank	1.0	345.12896609306335	
97	328.25628209114075	fix_post	2		72	95.0	2.5	blank	1.0	346.0451672077179	0.5999679565429688
98	328.8562500476837	fix_pre	0		11	96.0	2.5	/experiments/aot/S_wc-8bTJmWfuVyJ4_8.mp4	0.0	346.64513516426086	0.09167885780334473
98	328.94016695022583	pulse	0	t		96.0	2.5	/experiments/aot/S_wc-8bTJmWfuVyJ4_8.mp4	0.0	346.729052066803	
98	328.94792890548706	movie	1		162	96.0	2.5	/experiments/aot/S_wc-8bTJmWfuVyJ4_8.mp4	0.0	346.7368140220642	2.5083460807800293
98	330.5401289463043	pulse	1	t		96.0	2.5	/experiments/aot/S_wc-8bTJmWfuVyJ4_8.mp4	0.0	348.32901406288147	
98	331.4562749862671	fix_post	2		72	96.0	2.5	/experiments/aot/S_wc-8bTJmWfuVyJ4_8.mp4	0.0	349.24516010284424	0.599963903427124
99	332.0562388896942	fix_pre	0		11	97.0	2.5	/experiments/aot/S_yt-aiWUhl8MCto_71.mp4	0.0	349.84512400627136	0.09167218208312988
99	332.1401228904724	pulse	0	t		97.0	2.5	/experiments/aot/S_yt-aiWUhl8MCto_71.mp4	0.0	349.92900800704956	
99	332.14791107177734	movie	1		301	97.0	2.5	/experiments/aot/S_yt-aiWUhl8MCto_71.mp4	0.0	349.9367961883545	2.5082929134368896
99	333.7400999069214	pulse	1	t		97.0	2.5	/experiments/aot/S_yt-aiWUhl8MCto_71.mp4	0.0	351.52898502349854	
99	334.65620398521423	fix_post	2		72	97.0	2.5	/experiments/aot/S_yt-aiWUhl8MCto_71.mp4	0.0	352.4450891017914	0.6009020805358887
100	335.2571060657501	fix_pre	0		11	98.0	2.5	/experiments/aot/S_ILSVRC2015_train_00423000.mp4	0.0	353.04599118232727	0.0916290283203125
100	335.3401310443878	pulse	0	t		98.0	2.5	/experiments/aot/S_ILSVRC2015_train_00423000.mp4	0.0	353.12901616096497	
100	335.34873509407043	movie	1		301	98.0	2.5	/experiments/aot/S_ILSVRC2015_train_00423000.mp4	0.0	353.1376202106476	2.5083417892456055
100	336.9403290748596	pulse	1	t		98.0	2.5	/experiments/aot/S_ILSVRC2015_train_00423000.mp4	0.0	354.72921419143677	
100	337.85707688331604	fix_post	2		72	98.0	2.5	/experiments/aot/S_ILSVRC2015_train_00423000.mp4	0.0	355.6459619998932	0.5990931987762451
101	338.4561700820923	fix_pre	0		11	99.0	2.5	/experiments/aot/S_yt-QqSceHxY3d0_356.mp4	0.0	356.24505519866943	0.09169387817382812
101	338.54006910324097	pulse	0	t		99.0	2.5	/experiments/aot/S_yt-QqSceHxY3d0_356.mp4	0.0	356.3289542198181	
101	338.5478639602661	movie	1		301	99.0	2.5	/experiments/aot/S_yt-QqSceHxY3d0_356.mp4	0.0	356.33674907684326	2.5083630084991455
101	340.1401619911194	pulse	1	t		99.0	2.5	/experiments/aot/S_yt-QqSceHxY3d0_356.mp4	0.0	357.92904710769653	
101	341.05622696876526	fix_post	2		72	99.0	2.5	/experiments/aot/S_yt-QqSceHxY3d0_356.mp4	0.0	358.8451120853424	0.5999751091003418
103	341.6562020778656	stim	0		1716					359.44508719444275	14.300364971160889
103	341.7401599884033	pulse	0	t						359.52904510498047	
103	343.34006690979004	pulse	0	t						361.1289520263672	
103	344.9400908946991	pulse	0	t						362.72897601127625	
103	346.54004192352295	pulse	0	t						364.3289270401001	
103	348.14018988609314	pulse	0	t						365.9290750026703	
103	349.74001693725586	pulse	0	t						367.528902053833	
103	351.33997797966003	pulse	0	t						369.1288630962372	
103	352.93995690345764	pulse	0	t						370.7288420200348	
103	354.53996896743774	pulse	0	t						372.3288540840149	
