trial_nr	onset	event_type	phase	response	nr_frames	movie_index	movie_duration	movie_file	blank	onset_abs	duration
0	0.15773582458496094	stim	0		1996					22.839290857315063	16.6332790851593
0	16.78337001800537	response	0	space						39.464925050735474	
1	16.791014909744263	stim	0		5449					39.472569942474365	45.408488035202026
1	62.1935830116272	pulse	0	t						84.8751380443573	
1	62.19950294494629	stim	1		1717					84.88105797767639	14.307903051376343
1	63.79130792617798	pulse	1	t						86.47286295890808	
1	65.39130187034607	pulse	1	t						88.07285690307617	
1	66.99135184288025	pulse	1	t						89.67290687561035	
1	68.59125399589539	pulse	1	t						91.27280902862549	
1	70.1912670135498	pulse	1	t						92.87282204627991	
1	71.79125595092773	pulse	1	t						94.47281098365784	
1	73.39118885993958	pulse	1	t						96.07274389266968	
1	74.99124598503113	pulse	1	t						97.67280101776123	
2	76.50740599632263	fix_pre	0		11	0.0	2.5	/experiments/aot/S_ILSVRC2015_train_00515000.mp4	0.0	99.18896102905273	0.09164690971374512
2	76.59122800827026	pulse	0	t		0.0	2.5	/experiments/aot/S_ILSVRC2015_train_00515000.mp4	0.0	99.27278304100037	
2	76.59905290603638	movie	1		301	0.0	2.5	/experiments/aot/S_ILSVRC2015_train_00515000.mp4	0.0	99.28060793876648	2.508302927017212
2	78.1912670135498	pulse	1	t		0.0	2.5	/experiments/aot/S_ILSVRC2015_train_00515000.mp4	0.0	100.87282204627991	
2	79.10735583305359	fix_post	2		72	0.0	2.5	/experiments/aot/S_ILSVRC2015_train_00515000.mp4	0.0	101.78891086578369	0.6000070571899414
3	79.70736289024353	fix_pre	0		11	1.0	2.5	/experiments/aot/S_WCwb-DeQOSg_85.mp4	0.0	102.38891792297363	0.09171700477600098
3	79.79123282432556	pulse	0	t		1.0	2.5	/experiments/aot/S_WCwb-DeQOSg_85.mp4	0.0	102.47278785705566	
3	79.79907989501953	movie	1		301	1.0	2.5	/experiments/aot/S_WCwb-DeQOSg_85.mp4	0.0	102.48063492774963	2.5082790851593018
3	81.39131498336792	pulse	1	t		1.0	2.5	/experiments/aot/S_WCwb-DeQOSg_85.mp4	0.0	104.07287001609802	
3	82.30735898017883	fix_post	2		72	1.0	2.5	/experiments/aot/S_WCwb-DeQOSg_85.mp4	0.0	104.98891401290894	0.5999958515167236
4	82.90735483169556	fix_pre	0		11	2.0	2.5	blank	1.0	105.58890986442566	0.09165811538696289
4	82.99120092391968	pulse	0	t		2.0	2.5	blank	1.0	105.67275595664978	
4	82.99901294708252	movie	1		301	2.0	2.5	blank	1.0	105.68056797981262	2.5082879066467285
4	84.59114384651184	pulse	1	t		2.0	2.5	blank	1.0	107.27269887924194	
4	85.50730085372925	fix_post	2		72	2.0	2.5	blank	1.0	108.18885588645935	0.6000299453735352
5	86.10733079910278	fix_pre	0		11	3.0	2.5	/experiments/aot/S_ILSVRC2015_train_00165008.mp4	0.0	108.78888583183289	0.0916750431060791
5	86.19117879867554	pulse	0	t		3.0	2.5	/experiments/aot/S_ILSVRC2015_train_00165008.mp4	0.0	108.87273383140564	
5	86.19900584220886	movie	1		300	3.0	2.5	/experiments/aot/S_ILSVRC2015_train_00165008.mp4	0.0	108.88056087493896	2.5082991123199463
5	87.7911548614502	pulse	1	t		3.0	2.5	/experiments/aot/S_ILSVRC2015_train_00165008.mp4	0.0	110.4727098941803	
5	88.70730495452881	fix_post	2		72	3.0	2.5	/experiments/aot/S_ILSVRC2015_train_00165008.mp4	0.0	111.38885998725891	0.600916862487793
6	89.3082218170166	fix_pre	0		11	4.0	2.5	/experiments/aot/S_yt-6mRpmfIvdew_1435.mp4	0.0	111.9897768497467	0.09078001976013184
6	89.39118385314941	pulse	0	t		4.0	2.5	/experiments/aot/S_yt-6mRpmfIvdew_1435.mp4	0.0	112.07273888587952	
6	89.39900183677673	movie	1		301	4.0	2.5	/experiments/aot/S_yt-6mRpmfIvdew_1435.mp4	0.0	112.08055686950684	2.508592128753662
6	90.99090194702148	pulse	1	t		4.0	2.5	/experiments/aot/S_yt-6mRpmfIvdew_1435.mp4	0.0	113.67245697975159	
6	91.9075939655304	fix_post	2		72	4.0	2.5	/experiments/aot/S_yt-6mRpmfIvdew_1435.mp4	0.0	114.5891489982605	0.6009519100189209
7	92.50854587554932	fix_pre	0		11	5.0	2.5	/experiments/aot/S_yt-K-iCphzt_RE_17.mp4	0.0	115.19010090827942	0.09041500091552734
7	92.59130597114563	pulse	0	t		5.0	2.5	/experiments/aot/S_yt-K-iCphzt_RE_17.mp4	0.0	115.27286100387573	
7	92.59896087646484	movie	1		301	5.0	2.5	/experiments/aot/S_yt-K-iCphzt_RE_17.mp4	0.0	115.28051590919495	2.5083279609680176
7	94.19121289253235	pulse	1	t		5.0	2.5	/experiments/aot/S_yt-K-iCphzt_RE_17.mp4	0.0	116.87276792526245	
7	95.10728883743286	fix_post	2		72	5.0	2.5	/experiments/aot/S_yt-K-iCphzt_RE_17.mp4	0.0	117.78884387016296	0.599998950958252
8	95.70728778839111	fix_pre	0		11	6.0	2.5	/experiments/aot/S_production_ID_3735542.mp4	0.0	118.38884282112122	0.09165120124816895
8	95.79114198684692	pulse	0	t		6.0	2.5	/experiments/aot/S_production_ID_3735542.mp4	0.0	118.47269701957703	
8	95.79893898963928	movie	1		161	6.0	2.5	/experiments/aot/S_production_ID_3735542.mp4	0.0	118.48049402236938	2.508275032043457
8	97.39068484306335	pulse	1	t		6.0	2.5	/experiments/aot/S_production_ID_3735542.mp4	0.0	120.07223987579346	
8	98.30721402168274	fix_post	2		72	6.0	2.5	/experiments/aot/S_production_ID_3735542.mp4	0.0	120.98876905441284	0.6000499725341797
9	98.90726399421692	fix_pre	0		11	7.0	2.5	blank	1.0	121.58881902694702	0.09163379669189453
9	98.99114799499512	pulse	0	t		7.0	2.5	blank	1.0	121.67270302772522	
9	98.99889779090881	movie	1		301	7.0	2.5	blank	1.0	121.68045282363892	2.5083370208740234
9	100.59107780456543	pulse	1	t		7.0	2.5	blank	1.0	123.27263283729553	
9	101.50723481178284	fix_post	2		72	7.0	2.5	blank	1.0	124.18878984451294	0.5999741554260254
10	102.10720896720886	fix_pre	0		11	8.0	2.5	/experiments/aot/S_yt-yQrDeFlFmfM_138.mp4	0.0	124.78876399993896	0.09218883514404297
10	102.19106483459473	pulse	0	t		8.0	2.5	/experiments/aot/S_yt-yQrDeFlFmfM_138.mp4	0.0	124.87261986732483	
10	102.1993978023529	movie	1		301	8.0	2.5	/experiments/aot/S_yt-yQrDeFlFmfM_138.mp4	0.0	124.88095283508301	2.5078070163726807
10	103.79112195968628	pulse	1	t		8.0	2.5	/experiments/aot/S_yt-yQrDeFlFmfM_138.mp4	0.0	126.47267699241638	
10	104.70720481872559	fix_post	2		72	8.0	2.5	/experiments/aot/S_yt-yQrDeFlFmfM_138.mp4	0.0	127.38875985145569	0.5999610424041748
11	105.30716586112976	fix_pre	0		11	9.0	2.5	blank	1.0	127.98872089385986	0.09255599975585938
11	105.39107584953308	pulse	0	t		9.0	2.5	blank	1.0	128.07263088226318	
11	105.39972186088562	movie	1		301	9.0	2.5	blank	1.0	128.08127689361572	2.5075180530548096
11	106.99100279808044	pulse	1	t		9.0	2.5	blank	1.0	129.67255783081055	
11	107.90723991394043	fix_post	2		72	9.0	2.5	blank	1.0	130.58879494667053	0.5999341011047363
12	108.50717401504517	fix_pre	0		11	10.0	2.5	/experiments/aot/S_yt-zam74qlzGtQ_122.mp4	0.0	131.18872904777527	0.09250688552856445
12	108.59108686447144	pulse	0	t		10.0	2.5	/experiments/aot/S_yt-zam74qlzGtQ_122.mp4	0.0	131.27264189720154	
12	108.59968090057373	movie	1		301	10.0	2.5	/experiments/aot/S_yt-zam74qlzGtQ_122.mp4	0.0	131.28123593330383	2.507469892501831
12	110.19108390808105	pulse	1	t		10.0	2.5	/experiments/aot/S_yt-zam74qlzGtQ_122.mp4	0.0	132.87263894081116	
12	111.10715079307556	fix_post	2		72	10.0	2.5	/experiments/aot/S_yt-zam74qlzGtQ_122.mp4	0.0	133.78870582580566	0.5999500751495361
13	111.7071008682251	fix_pre	0		11	11.0	2.5	/experiments/aot/S_yt-O6FS0xnF0CU_106.mp4	0.0	134.3886559009552	0.09168505668640137
13	111.79111385345459	pulse	0	t		11.0	2.5	/experiments/aot/S_yt-O6FS0xnF0CU_106.mp4	0.0	134.4726688861847	
13	111.7987859249115	movie	1		301	11.0	2.5	/experiments/aot/S_yt-O6FS0xnF0CU_106.mp4	0.0	134.4803409576416	2.508316993713379
13	113.391117811203	pulse	1	t		11.0	2.5	/experiments/aot/S_yt-O6FS0xnF0CU_106.mp4	0.0	136.0726728439331	
13	114.30710291862488	fix_post	2		72	11.0	2.5	/experiments/aot/S_yt-O6FS0xnF0CU_106.mp4	0.0	136.98865795135498	0.6002569198608398
14	114.90735983848572	fix_pre	0		11	12.0	2.5	/experiments/aot/S_xq822dX6DDM_1.mp4	0.0	137.58891487121582	0.0915830135345459
14	114.99107098579407	pulse	0	t		12.0	2.5	/experiments/aot/S_xq822dX6DDM_1.mp4	0.0	137.67262601852417	
14	114.99894285202026	movie	1		301	12.0	2.5	/experiments/aot/S_xq822dX6DDM_1.mp4	0.0	137.68049788475037	2.5082409381866455
14	116.59103083610535	pulse	1	t		12.0	2.5	/experiments/aot/S_xq822dX6DDM_1.mp4	0.0	139.27258586883545	
14	117.50718379020691	fix_post	2		72	12.0	2.5	/experiments/aot/S_xq822dX6DDM_1.mp4	0.0	140.188738822937	0.5999910831451416
15	118.10717487335205	fix_pre	0		11	13.0	2.5	/experiments/aot/S_production_ID_4325516.mp4	0.0	140.78872990608215	0.09255313873291016
15	118.190997838974	pulse	0	t		13.0	2.5	/experiments/aot/S_production_ID_4325516.mp4	0.0	140.8725528717041	
15	118.19972801208496	movie	1		163	13.0	2.5	/experiments/aot/S_production_ID_4325516.mp4	0.0	140.88128304481506	2.507401943206787
15	119.79011988639832	pulse	1	t		13.0	2.5	/experiments/aot/S_production_ID_4325516.mp4	0.0	142.47167491912842	
15	120.70712995529175	fix_post	2		72	13.0	2.5	/experiments/aot/S_production_ID_4325516.mp4	0.0	143.38868498802185	0.6000938415527344
16	121.30722379684448	fix_pre	0		11	14.0	2.5	/experiments/aot/S_production_ID_3967181.mp4	0.0	143.98877882957458	0.09247517585754395
16	121.39104199409485	pulse	0	t		14.0	2.5	/experiments/aot/S_production_ID_3967181.mp4	0.0	144.07259702682495	
16	121.39969897270203	movie	1		163	14.0	2.5	/experiments/aot/S_production_ID_3967181.mp4	0.0	144.08125400543213	2.5083019733428955
16	122.9913718700409	pulse	1	t		14.0	2.5	/experiments/aot/S_production_ID_3967181.mp4	0.0	145.672926902771	
16	123.90800094604492	fix_post	2		72	14.0	2.5	/experiments/aot/S_production_ID_3967181.mp4	0.0	146.58955597877502	0.5990979671478271
17	124.50709891319275	fix_pre	0		11	15.0	2.5	blank	1.0	147.18865394592285	0.09259200096130371
17	124.59096693992615	pulse	0	t		15.0	2.5	blank	1.0	147.27252197265625	
17	124.59969091415405	movie	1		301	15.0	2.5	blank	1.0	147.28124594688416	2.507354974746704
17	126.1909909248352	pulse	1	t		15.0	2.5	blank	1.0	148.8725459575653	
17	127.10704588890076	fix_post	2		72	15.0	2.5	blank	1.0	149.78860092163086	0.60099196434021
18	127.70803785324097	fix_pre	0		11	16.0	2.5	/experiments/aot/S_yt--koo4FOfZE0_86.mp4	0.0	150.38959288597107	0.09071493148803711
18	127.79101300239563	pulse	0	t		16.0	2.5	/experiments/aot/S_yt--koo4FOfZE0_86.mp4	0.0	150.47256803512573	
18	127.798752784729	movie	1		301	16.0	2.5	/experiments/aot/S_yt--koo4FOfZE0_86.mp4	0.0	150.4803078174591	2.5083651542663574
18	129.39102387428284	pulse	1	t		16.0	2.5	/experiments/aot/S_yt--koo4FOfZE0_86.mp4	0.0	152.07257890701294	
18	130.30711793899536	fix_post	2		72	16.0	2.5	/experiments/aot/S_yt--koo4FOfZE0_86.mp4	0.0	152.98867297172546	0.6008410453796387
19	130.907958984375	fix_pre	0		11	17.0	2.5	/experiments/aot/S_flickr-clarkstonscamp-4863427159_1.mp4	0.0	153.5895140171051	0.09081196784973145
19	130.99101281166077	pulse	0	t		17.0	2.5	/experiments/aot/S_flickr-clarkstonscamp-4863427159_1.mp4	0.0	153.67256784439087	
19	130.99877095222473	movie	1		301	17.0	2.5	/experiments/aot/S_flickr-clarkstonscamp-4863427159_1.mp4	0.0	153.68032598495483	2.5083210468292236
19	132.59095883369446	pulse	1	t		17.0	2.5	/experiments/aot/S_flickr-clarkstonscamp-4863427159_1.mp4	0.0	155.27251386642456	
19	133.50709199905396	fix_post	2		72	17.0	2.5	/experiments/aot/S_flickr-clarkstonscamp-4863427159_1.mp4	0.0	156.18864703178406	0.599951982498169
20	134.10704398155212	fix_pre	0		11	18.0	2.5	blank	1.0	156.78859901428223	0.09167194366455078
20	134.1909589767456	pulse	0	t		18.0	2.5	blank	1.0	156.8725140094757	
20	134.19871592521667	movie	1		301	18.0	2.5	blank	1.0	156.88027095794678	2.5083839893341064
20	135.7909379005432	pulse	1	t		18.0	2.5	blank	1.0	158.47249293327332	
20	136.70709991455078	fix_post	2		72	18.0	2.5	blank	1.0	159.38865494728088	0.5999770164489746
21	137.30707693099976	fix_pre	0		11	19.0	2.5	/experiments/aot/S_ILSVRC2015_train_00594001.mp4	0.0	159.98863196372986	0.09166598320007324
21	137.39095401763916	pulse	0	t		19.0	2.5	/experiments/aot/S_ILSVRC2015_train_00594001.mp4	0.0	160.07250905036926	
21	137.39874291419983	movie	1		301	19.0	2.5	/experiments/aot/S_ILSVRC2015_train_00594001.mp4	0.0	160.08029794692993	2.5083210468292236
21	138.99102091789246	pulse	1	t		19.0	2.5	/experiments/aot/S_ILSVRC2015_train_00594001.mp4	0.0	161.67257595062256	
21	139.90706396102905	fix_post	2		72	19.0	2.5	/experiments/aot/S_ILSVRC2015_train_00594001.mp4	0.0	162.58861899375916	0.5999898910522461
22	140.5070538520813	fix_pre	0		11	20.0	2.5	blank	1.0	163.1886088848114	0.09166693687438965
22	140.59099888801575	pulse	0	t		20.0	2.5	blank	1.0	163.27255392074585	
22	140.5987207889557	movie	1		301	20.0	2.5	blank	1.0	163.2802758216858	2.5082571506500244
22	142.19093799591064	pulse	1	t		20.0	2.5	blank	1.0	164.87249302864075	
22	143.1069779396057	fix_post	2		72	20.0	2.5	blank	1.0	165.78853297233582	0.6000618934631348
23	143.70703983306885	fix_pre	0		11	21.0	2.5	/experiments/aot/S_wc-8bTJmWfuVyJ4_8.mp4	0.0	166.38859486579895	0.09260702133178711
23	143.79097294807434	pulse	0	t		21.0	2.5	/experiments/aot/S_wc-8bTJmWfuVyJ4_8.mp4	0.0	166.47252798080444	
23	143.79964685440063	movie	1		162	21.0	2.5	/experiments/aot/S_wc-8bTJmWfuVyJ4_8.mp4	0.0	166.48120188713074	2.507436990737915
23	145.39121294021606	pulse	1	t		21.0	2.5	/experiments/aot/S_wc-8bTJmWfuVyJ4_8.mp4	0.0	168.07276797294617	
23	146.30708384513855	fix_post	2		72	21.0	2.5	/experiments/aot/S_wc-8bTJmWfuVyJ4_8.mp4	0.0	168.98863887786865	0.6001081466674805
24	146.90719199180603	fix_pre	0		11	22.0	2.5	/experiments/aot/S_yt-qsyDLtXcyHc_8.mp4	0.0	169.58874702453613	0.09164595603942871
24	146.99105191230774	pulse	0	t		22.0	2.5	/experiments/aot/S_yt-qsyDLtXcyHc_8.mp4	0.0	169.67260694503784	
24	146.99883794784546	movie	1		301	22.0	2.5	/experiments/aot/S_yt-qsyDLtXcyHc_8.mp4	0.0	169.68039298057556	2.5081779956817627
24	148.59090089797974	pulse	1	t		22.0	2.5	/experiments/aot/S_yt-qsyDLtXcyHc_8.mp4	0.0	171.27245593070984	
24	149.50701594352722	fix_post	2		72	22.0	2.5	/experiments/aot/S_yt-qsyDLtXcyHc_8.mp4	0.0	172.18857097625732	0.5999939441680908
25	150.1070098876953	fix_pre	0		11	23.0	2.5	/experiments/aot/S_yt-6vkiJedss6g_5.mp4	0.0	172.78856492042542	0.0919489860534668
25	150.190997838974	pulse	0	t		23.0	2.5	/experiments/aot/S_yt-6vkiJedss6g_5.mp4	0.0	172.8725528717041	
25	150.19895887374878	movie	1		301	23.0	2.5	/experiments/aot/S_yt-6vkiJedss6g_5.mp4	0.0	172.88051390647888	2.508023977279663
25	151.79088592529297	pulse	1	t		23.0	2.5	/experiments/aot/S_yt-6vkiJedss6g_5.mp4	0.0	174.47244095802307	
25	152.70698285102844	fix_post	2		72	23.0	2.5	/experiments/aot/S_yt-6vkiJedss6g_5.mp4	0.0	175.38853788375854	0.5999481678009033
26	153.30693101882935	fix_pre	0		11	24.0	2.5	/experiments/aot/S_yt-y3tyx6cZjmA_412.mp4	0.0	175.98848605155945	0.09167289733886719
26	153.39076685905457	pulse	0	t		24.0	2.5	/experiments/aot/S_yt-y3tyx6cZjmA_412.mp4	0.0	176.07232189178467	
26	153.3986039161682	movie	1		301	24.0	2.5	/experiments/aot/S_yt-y3tyx6cZjmA_412.mp4	0.0	176.08015894889832	2.5084149837493896
26	154.99092197418213	pulse	1	t		24.0	2.5	/experiments/aot/S_yt-y3tyx6cZjmA_412.mp4	0.0	177.67247700691223	
26	155.9070188999176	fix_post	2		72	24.0	2.5	/experiments/aot/S_yt-y3tyx6cZjmA_412.mp4	0.0	178.5885739326477	0.5999369621276855
27	156.5069558620453	fix_pre	0		11	25.0	2.5	/experiments/aot/S_production_ID_5144823.mp4	0.0	179.1885108947754	0.09165596961975098
27	156.59084391593933	pulse	0	t		25.0	2.5	/experiments/aot/S_production_ID_5144823.mp4	0.0	179.27239894866943	
27	156.59861183166504	movie	1		161	25.0	2.5	/experiments/aot/S_production_ID_5144823.mp4	0.0	179.28016686439514	2.5084149837493896
27	158.19077396392822	pulse	1	t		25.0	2.5	/experiments/aot/S_production_ID_5144823.mp4	0.0	180.87232899665833	
27	159.10702681541443	fix_post	2		72	25.0	2.5	/experiments/aot/S_production_ID_5144823.mp4	0.0	181.78858184814453	0.5999500751495361
28	159.70697689056396	fix_pre	0		11	26.0	2.5	/experiments/aot/S_yt-1sn8u-rQRas_7.mp4	0.0	182.38853192329407	0.09297299385070801
28	159.79077887535095	pulse	0	t		26.0	2.5	/experiments/aot/S_yt-1sn8u-rQRas_7.mp4	0.0	182.47233390808105	
28	159.79994988441467	movie	1		301	26.0	2.5	/experiments/aot/S_yt-1sn8u-rQRas_7.mp4	0.0	182.48150491714478	2.507017135620117
28	161.39086198806763	pulse	1	t		26.0	2.5	/experiments/aot/S_yt-1sn8u-rQRas_7.mp4	0.0	184.07241702079773	
28	162.3069670200348	fix_post	2		72	26.0	2.5	/experiments/aot/S_yt-1sn8u-rQRas_7.mp4	0.0	184.9885220527649	0.6009078025817871
29	162.90787482261658	fix_pre	0		11	27.0	2.5	/experiments/aot/S_yt-EvKV7iY1_HM_193.mp4	0.0	185.58942985534668	0.09164214134216309
29	162.9908618927002	pulse	0	t		27.0	2.5	/experiments/aot/S_yt-EvKV7iY1_HM_193.mp4	0.0	185.6724169254303	
29	162.99951696395874	movie	1		301	27.0	2.5	/experiments/aot/S_yt-EvKV7iY1_HM_193.mp4	0.0	185.68107199668884	2.5074338912963867
29	164.59086179733276	pulse	1	t		27.0	2.5	/experiments/aot/S_yt-EvKV7iY1_HM_193.mp4	0.0	187.27241683006287	
29	165.50695085525513	fix_post	2		72	27.0	2.5	/experiments/aot/S_yt-EvKV7iY1_HM_193.mp4	0.0	188.18850588798523	0.5999541282653809
30	166.1069049835205	fix_pre	0		11	28.0	2.5	/experiments/aot/S_yt-vQ-rd-1gwH4_238.mp4	0.0	188.7884600162506	0.0925588607788086
30	166.19085001945496	pulse	0	t		28.0	2.5	/experiments/aot/S_yt-vQ-rd-1gwH4_238.mp4	0.0	188.87240505218506	
30	166.19946384429932	movie	1		301	28.0	2.5	/experiments/aot/S_yt-vQ-rd-1gwH4_238.mp4	0.0	188.88101887702942	2.5074830055236816
30	167.790846824646	pulse	1	t		28.0	2.5	/experiments/aot/S_yt-vQ-rd-1gwH4_238.mp4	0.0	190.4724018573761	
30	168.706946849823	fix_post	2		72	28.0	2.5	/experiments/aot/S_yt-vQ-rd-1gwH4_238.mp4	0.0	191.3885018825531	0.6000189781188965
31	169.3069658279419	fix_pre	0		11	29.0	2.5	/experiments/aot/S_production_ID_5119260.mp4	0.0	191.988520860672	0.09263396263122559
31	169.39081287384033	pulse	0	t		29.0	2.5	/experiments/aot/S_production_ID_5119260.mp4	0.0	192.07236790657043	
31	169.39959979057312	movie	1		160	29.0	2.5	/experiments/aot/S_production_ID_5119260.mp4	0.0	192.08115482330322	2.507338047027588
31	170.99067497253418	pulse	1	t		29.0	2.5	/experiments/aot/S_production_ID_5119260.mp4	0.0	193.67223000526428	
31	171.9069378376007	fix_post	2		72	29.0	2.5	/experiments/aot/S_production_ID_5119260.mp4	0.0	194.5884928703308	0.599998950958252
32	172.50693678855896	fix_pre	0		11	30.0	2.5	/experiments/aot/S_yt-Fm97IY0Z2LU_110.mp4	0.0	195.18849182128906	0.0929250717163086
32	172.59084391593933	pulse	0	t		30.0	2.5	/experiments/aot/S_yt-Fm97IY0Z2LU_110.mp4	0.0	195.27239894866943	
32	172.59986186027527	movie	1		301	30.0	2.5	/experiments/aot/S_yt-Fm97IY0Z2LU_110.mp4	0.0	195.28141689300537	2.507035970687866
32	174.19080686569214	pulse	1	t		30.0	2.5	/experiments/aot/S_yt-Fm97IY0Z2LU_110.mp4	0.0	196.87236189842224	
32	175.10689783096313	fix_post	2		72	30.0	2.5	/experiments/aot/S_yt-Fm97IY0Z2LU_110.mp4	0.0	197.78845286369324	0.5999550819396973
33	175.70685291290283	fix_pre	0		11	31.0	2.5	/experiments/aot/S_pexels-tima-miroshnichenko-5717005.mp4	0.0	198.38840794563293	0.09261488914489746
33	175.79078102111816	pulse	0	t		31.0	2.5	/experiments/aot/S_pexels-tima-miroshnichenko-5717005.mp4	0.0	198.47233605384827	
33	175.79946780204773	movie	1		160	31.0	2.5	/experiments/aot/S_pexels-tima-miroshnichenko-5717005.mp4	0.0	198.48102283477783	2.5074150562286377
33	177.39075779914856	pulse	1	t		31.0	2.5	/experiments/aot/S_pexels-tima-miroshnichenko-5717005.mp4	0.0	200.07231283187866	
33	178.30688285827637	fix_post	2		72	31.0	2.5	/experiments/aot/S_pexels-tima-miroshnichenko-5717005.mp4	0.0	200.98843789100647	0.600006103515625
34	178.906888961792	fix_pre	0		11	32.0	2.5	blank	1.0	201.5884439945221	0.09255290031433105
34	178.9920837879181	pulse	0	t		32.0	2.5	blank	1.0	201.6736388206482	
34	178.99944186210632	movie	1		301	32.0	2.5	blank	1.0	201.68099689483643	2.508341073989868
34	180.5907678604126	pulse	1	t		32.0	2.5	blank	1.0	203.2723228931427	
34	181.5077829360962	fix_post	2		72	32.0	2.5	blank	1.0	204.1893379688263	0.5990939140319824
35	182.10687685012817	fix_pre	0		11	33.0	2.5	/experiments/aot/S_yt-UzWRbs9Syf4_7.mp4	0.0	204.78843188285828	0.0926060676574707
35	182.19075679779053	pulse	0	t		33.0	2.5	/experiments/aot/S_yt-UzWRbs9Syf4_7.mp4	0.0	204.87231183052063	
35	182.19948291778564	movie	1		301	33.0	2.5	/experiments/aot/S_yt-UzWRbs9Syf4_7.mp4	0.0	204.88103795051575	2.507366895675659
35	183.79080295562744	pulse	1	t		33.0	2.5	/experiments/aot/S_yt-UzWRbs9Syf4_7.mp4	0.0	206.47235798835754	
35	184.7068498134613	fix_post	2		72	33.0	2.5	/experiments/aot/S_yt-UzWRbs9Syf4_7.mp4	0.0	207.3884048461914	0.6000080108642578
36	185.30685782432556	fix_pre	0		11	34.0	2.5	/experiments/aot/S_yt-xBwq6sHHF5M_21.mp4	0.0	207.98841285705566	0.09166097640991211
36	185.39068794250488	pulse	0	t		34.0	2.5	/experiments/aot/S_yt-xBwq6sHHF5M_21.mp4	0.0	208.07224297523499	
36	185.39851880073547	movie	1		301	34.0	2.5	/experiments/aot/S_yt-xBwq6sHHF5M_21.mp4	0.0	208.08007383346558	2.509193181991577
36	186.9907329082489	pulse	1	t		34.0	2.5	/experiments/aot/S_yt-xBwq6sHHF5M_21.mp4	0.0	209.672287940979	
36	187.90771198272705	fix_post	2		72	34.0	2.5	/experiments/aot/S_yt-xBwq6sHHF5M_21.mp4	0.0	210.58926701545715	0.6000049114227295
37	188.50771689414978	fix_pre	0		11	35.0	2.5	blank	1.0	211.18927192687988	0.09080100059509277
37	188.5908010005951	pulse	0	t		35.0	2.5	blank	1.0	211.2723560333252	
37	188.59851789474487	movie	1		301	35.0	2.5	blank	1.0	211.28007292747498	2.508263111114502
37	190.190673828125	pulse	1	t		35.0	2.5	blank	1.0	212.8722288608551	
37	191.10678100585938	fix_post	2		72	35.0	2.5	blank	1.0	213.78833603858948	0.6010057926177979
38	191.70778679847717	fix_pre	0		11	36.0	2.5	/experiments/aot/S_Pexels_Videos_2786546.mp4	0.0	214.38934183120728	0.09168505668640137
38	191.79073691368103	pulse	0	t		36.0	2.5	/experiments/aot/S_Pexels_Videos_2786546.mp4	0.0	214.47229194641113	
38	191.79947185516357	movie	1		162	36.0	2.5	/experiments/aot/S_Pexels_Videos_2786546.mp4	0.0	214.48102688789368	2.5082499980926514
38	193.3904368877411	pulse	1	t		36.0	2.5	/experiments/aot/S_Pexels_Videos_2786546.mp4	0.0	216.0719919204712	
38	194.30772185325623	fix_post	2		72	36.0	2.5	/experiments/aot/S_Pexels_Videos_2786546.mp4	0.0	216.98927688598633	0.5999979972839355
39	194.90771985054016	fix_pre	0		11	37.0	2.5	/experiments/aot/S_pexels-kelly-lacy-6756531.mp4	0.0	217.58927488327026	0.09086394309997559
39	194.9907078742981	pulse	0	t		37.0	2.5	/experiments/aot/S_pexels-kelly-lacy-6756531.mp4	0.0	217.6722629070282	
39	194.99858379364014	movie	1		164	37.0	2.5	/experiments/aot/S_pexels-kelly-lacy-6756531.mp4	0.0	217.68013882637024	2.5090692043304443
39	196.59036684036255	pulse	1	t		37.0	2.5	/experiments/aot/S_pexels-kelly-lacy-6756531.mp4	0.0	219.27192187309265	
39	197.50765299797058	fix_post	2		72	37.0	2.5	/experiments/aot/S_pexels-kelly-lacy-6756531.mp4	0.0	220.18920803070068	0.5991330146789551
40	198.10678601264954	fix_pre	0		11	38.0	2.5	/experiments/aot/S_yt-AiXq1oDrEXI_123.mp4	0.0	220.78834104537964	0.09172391891479492
40	198.19071578979492	pulse	0	t		38.0	2.5	/experiments/aot/S_yt-AiXq1oDrEXI_123.mp4	0.0	220.87227082252502	
40	198.19850993156433	movie	1		301	38.0	2.5	/experiments/aot/S_yt-AiXq1oDrEXI_123.mp4	0.0	220.88006496429443	2.508280038833618
40	199.7909758090973	pulse	1	t		38.0	2.5	/experiments/aot/S_yt-AiXq1oDrEXI_123.mp4	0.0	222.4725308418274	
40	200.70678997039795	fix_post	2		72	38.0	2.5	/experiments/aot/S_yt-AiXq1oDrEXI_123.mp4	0.0	223.38834500312805	0.6000118255615234
41	201.30680179595947	fix_pre	0		11	39.0	2.5	blank	1.0	223.98835682868958	0.09166908264160156
41	201.39018201828003	pulse	0	t		39.0	2.5	blank	1.0	224.07173705101013	
41	201.39847087860107	movie	1		301	39.0	2.5	blank	1.0	224.08002591133118	2.5095441341400146
41	202.990797996521	pulse	1	t		39.0	2.5	blank	1.0	225.6723530292511	
41	203.9080150127411	fix_post	2		72	39.0	2.5	blank	1.0	226.5895700454712	0.5996739864349365
42	204.50768899917603	fix_pre	0		11	40.0	2.5	/experiments/aot/S_yt-OFnDCbW9Ebo_31.mp4	0.0	227.18924403190613	0.09066295623779297
42	204.59055089950562	pulse	0	t		40.0	2.5	/experiments/aot/S_yt-OFnDCbW9Ebo_31.mp4	0.0	227.27210593223572	
42	204.59835195541382	movie	1		301	40.0	2.5	/experiments/aot/S_yt-OFnDCbW9Ebo_31.mp4	0.0	227.27990698814392	2.508424997329712
42	206.19063782691956	pulse	1	t		40.0	2.5	/experiments/aot/S_yt-OFnDCbW9Ebo_31.mp4	0.0	228.87219285964966	
42	207.10677695274353	fix_post	2		72	40.0	2.5	/experiments/aot/S_yt-OFnDCbW9Ebo_31.mp4	0.0	229.78833198547363	0.5999510288238525
43	207.70672798156738	fix_pre	0		11	41.0	2.5	/experiments/aot/S_yt-RO4mhuXBVrY_67.mp4	0.0	230.38828301429749	0.09255599975585938
43	207.79063987731934	pulse	0	t		41.0	2.5	/experiments/aot/S_yt-RO4mhuXBVrY_67.mp4	0.0	230.47219491004944	
43	207.79928398132324	movie	1		301	41.0	2.5	/experiments/aot/S_yt-RO4mhuXBVrY_67.mp4	0.0	230.48083901405334	2.508389949798584
43	209.39048981666565	pulse	1	t		41.0	2.5	/experiments/aot/S_yt-RO4mhuXBVrY_67.mp4	0.0	232.07204484939575	
43	210.30767393112183	fix_post	2		72	41.0	2.5	/experiments/aot/S_yt-RO4mhuXBVrY_67.mp4	0.0	232.98922896385193	0.5990700721740723
44	210.9067440032959	fix_pre	0		11	42.0	2.5	/experiments/aot/S_yt-JTuopUgmg1w_101.mp4	0.0	233.588299036026	0.09164786338806152
44	210.99062490463257	pulse	0	t		42.0	2.5	/experiments/aot/S_yt-JTuopUgmg1w_101.mp4	0.0	233.67217993736267	
44	210.99839186668396	movie	1		301	42.0	2.5	/experiments/aot/S_yt-JTuopUgmg1w_101.mp4	0.0	233.67994689941406	2.509321928024292
44	212.59072184562683	pulse	1	t		42.0	2.5	/experiments/aot/S_yt-JTuopUgmg1w_101.mp4	0.0	235.27227687835693	
44	213.50771379470825	fix_post	2		72	42.0	2.5	/experiments/aot/S_yt-JTuopUgmg1w_101.mp4	0.0	236.18926882743835	0.5999619960784912
45	214.10767579078674	fix_pre	0		11	43.0	2.5	/experiments/aot/S_nTA7B2uHaCQ_1.mp4	0.0	236.78923082351685	0.0920259952545166
45	214.19070100784302	pulse	0	t		43.0	2.5	/experiments/aot/S_nTA7B2uHaCQ_1.mp4	0.0	236.87225604057312	
45	214.19970178604126	movie	1		301	43.0	2.5	/experiments/aot/S_nTA7B2uHaCQ_1.mp4	0.0	236.88125681877136	2.507866144180298
45	215.79059982299805	pulse	1	t		43.0	2.5	/experiments/aot/S_nTA7B2uHaCQ_1.mp4	0.0	238.47215485572815	
45	216.70756793022156	fix_post	2		72	43.0	2.5	/experiments/aot/S_nTA7B2uHaCQ_1.mp4	0.0	239.38912296295166	0.5999898910522461
46	217.3075578212738	fix_pre	0		11	44.0	2.5	/experiments/aot/S_yt--OkafQ5VFHs_51.mp4	0.0	239.9891128540039	0.0917201042175293
46	217.39051294326782	pulse	0	t		44.0	2.5	/experiments/aot/S_yt--OkafQ5VFHs_51.mp4	0.0	240.07206797599792	
46	217.39927792549133	movie	1		301	44.0	2.5	/experiments/aot/S_yt--OkafQ5VFHs_51.mp4	0.0	240.08083295822144	2.50740909576416
46	218.9906189441681	pulse	1	t		44.0	2.5	/experiments/aot/S_yt--OkafQ5VFHs_51.mp4	0.0	241.6721739768982	
46	219.9066870212555	fix_post	2		72	44.0	2.5	/experiments/aot/S_yt--OkafQ5VFHs_51.mp4	0.0	242.5882420539856	0.5999817848205566
47	220.50666880607605	fix_pre	0		11	45.0	2.5	/experiments/aot/S_ILSVRC2015_train_00067005.mp4	0.0	243.18822383880615	0.09256720542907715
47	220.59063386917114	pulse	0	t		45.0	2.5	/experiments/aot/S_ILSVRC2015_train_00067005.mp4	0.0	243.27218890190125	
47	220.59923601150513	movie	1		301	45.0	2.5	/experiments/aot/S_ILSVRC2015_train_00067005.mp4	0.0	243.28079104423523	2.507375955581665
47	222.19053101539612	pulse	1	t		45.0	2.5	/experiments/aot/S_ILSVRC2015_train_00067005.mp4	0.0	244.87208604812622	
47	223.1066119670868	fix_post	2		72	45.0	2.5	/experiments/aot/S_ILSVRC2015_train_00067005.mp4	0.0	245.7881669998169	0.6001148223876953
48	223.7067267894745	fix_pre	0		11	46.0	2.5	/experiments/aot/S_ILSVRC2015_train_00569003.mp4	0.0	246.3882818222046	0.0925900936126709
48	223.7904829978943	pulse	0	t		46.0	2.5	/experiments/aot/S_ILSVRC2015_train_00569003.mp4	0.0	246.4720380306244	
48	223.79931688308716	movie	1		301	46.0	2.5	/experiments/aot/S_ILSVRC2015_train_00569003.mp4	0.0	246.48087191581726	2.50826096534729
48	225.39056992530823	pulse	1	t		46.0	2.5	/experiments/aot/S_ILSVRC2015_train_00569003.mp4	0.0	248.07212495803833	
48	226.30757784843445	fix_post	2		72	46.0	2.5	/experiments/aot/S_ILSVRC2015_train_00569003.mp4	0.0	248.98913288116455	0.5990500450134277
49	226.90662789344788	fix_pre	0		11	47.0	2.5	/experiments/aot/S_yt-TxU1H5A6BaQ_52.mp4	0.0	249.58818292617798	0.09168004989624023
49	226.99048900604248	pulse	0	t		47.0	2.5	/experiments/aot/S_yt-TxU1H5A6BaQ_52.mp4	0.0	249.67204403877258	
49	226.99830794334412	movie	1		301	47.0	2.5	/experiments/aot/S_yt-TxU1H5A6BaQ_52.mp4	0.0	249.67986297607422	2.508333921432495
49	228.59052181243896	pulse	1	t		47.0	2.5	/experiments/aot/S_yt-TxU1H5A6BaQ_52.mp4	0.0	251.27207684516907	
49	229.5066418647766	fix_post	2		72	47.0	2.5	/experiments/aot/S_yt-TxU1H5A6BaQ_52.mp4	0.0	252.1881968975067	0.5999350547790527
50	230.10657691955566	fix_pre	0		11	48.0	2.5	/experiments/aot/S_yt-PCSXJ5YB_AE_3.mp4	0.0	252.78813195228577	0.09169507026672363
50	230.19054293632507	pulse	0	t		48.0	2.5	/experiments/aot/S_yt-PCSXJ5YB_AE_3.mp4	0.0	252.87209796905518	
50	230.1982719898224	movie	1		301	48.0	2.5	/experiments/aot/S_yt-PCSXJ5YB_AE_3.mp4	0.0	252.8798270225525	2.5082969665527344
50	231.7905068397522	pulse	1	t		48.0	2.5	/experiments/aot/S_yt-PCSXJ5YB_AE_3.mp4	0.0	254.4720618724823	
50	232.70656895637512	fix_post	2		72	48.0	2.5	/experiments/aot/S_yt-PCSXJ5YB_AE_3.mp4	0.0	255.38812398910522	0.6000359058380127
51	233.30660486221313	fix_pre	0		11	49.0	2.5	/experiments/aot/S_yt-b7JAHOeiTqU_44.mp4	0.0	255.98815989494324	0.0916740894317627
51	233.3905119895935	pulse	0	t		49.0	2.5	/experiments/aot/S_yt-b7JAHOeiTqU_44.mp4	0.0	256.0720670223236	
51	233.3982789516449	movie	1		301	49.0	2.5	/experiments/aot/S_yt-b7JAHOeiTqU_44.mp4	0.0	256.079833984375	2.5083539485931396
51	234.9905970096588	pulse	1	t		49.0	2.5	/experiments/aot/S_yt-b7JAHOeiTqU_44.mp4	0.0	257.6721520423889	
51	235.90663290023804	fix_post	2		72	49.0	2.5	/experiments/aot/S_yt-b7JAHOeiTqU_44.mp4	0.0	258.58818793296814	0.5999610424041748
52	236.5065939426422	fix_pre	0		11	50.0	2.5	blank	1.0	259.1881489753723	0.09166407585144043
52	236.59045386314392	pulse	0	t		50.0	2.5	blank	1.0	259.272008895874	
52	236.59825801849365	movie	1		301	50.0	2.5	blank	1.0	259.27981305122375	2.5083038806915283
52	238.19045996665955	pulse	1	t		50.0	2.5	blank	1.0	260.87201499938965	
52	239.10656189918518	fix_post	2		72	50.0	2.5	blank	1.0	261.7881169319153	0.599945068359375
53	239.70650696754456	fix_pre	0		11	51.0	2.5	/experiments/aot/S_yt-Wr5vs_0Iypw_161.mp4	0.0	262.38806200027466	0.0920560359954834
53	239.790442943573	pulse	0	t		51.0	2.5	/experiments/aot/S_yt-Wr5vs_0Iypw_161.mp4	0.0	262.4719979763031	
53	239.79856300354004	movie	1		301	51.0	2.5	/experiments/aot/S_yt-Wr5vs_0Iypw_161.mp4	0.0	262.48011803627014	2.5079128742218018
53	241.39063596725464	pulse	1	t		51.0	2.5	/experiments/aot/S_yt-Wr5vs_0Iypw_161.mp4	0.0	264.07219099998474	
53	242.30647587776184	fix_post	2		72	51.0	2.5	/experiments/aot/S_yt-Wr5vs_0Iypw_161.mp4	0.0	264.98803091049194	0.6000790596008301
54	242.90655493736267	fix_pre	0		11	52.0	2.5	blank	1.0	265.5881099700928	0.0916440486907959
54	242.99046301841736	pulse	0	t		52.0	2.5	blank	1.0	265.67201805114746	
54	242.99819898605347	movie	1		301	52.0	2.5	blank	1.0	265.67975401878357	2.508349895477295
54	244.59037399291992	pulse	1	t		52.0	2.5	blank	1.0	267.27192902565	
54	245.50654888153076	fix_post	2		72	52.0	2.5	blank	1.0	268.18810391426086	0.6008379459381104
55	246.10738682746887	fix_pre	0		11	53.0	2.5	blank	1.0	268.788941860199	0.09074902534484863
55	246.19045090675354	pulse	0	t		53.0	2.5	blank	1.0	268.87200593948364	
55	246.19813585281372	movie	1		301	53.0	2.5	blank	1.0	268.8796908855438	2.508286952972412
55	247.7903928756714	pulse	1	t		53.0	2.5	blank	1.0	270.4719479084015	
55	248.70642280578613	fix_post	2		72	53.0	2.5	blank	1.0	271.38797783851624	0.6005129814147949
56	249.30693578720093	fix_pre	0		11	54.0	2.5	blank	1.0	271.98849081993103	0.09123110771179199
56	249.39040279388428	pulse	0	t		54.0	2.5	blank	1.0	272.0719578266144	
56	249.39816689491272	movie	1		301	54.0	2.5	blank	1.0	272.0797219276428	2.508323907852173
56	250.99038195610046	pulse	1	t		54.0	2.5	blank	1.0	273.67193698883057	
56	251.9064908027649	fix_post	2		72	54.0	2.5	blank	1.0	274.588045835495	0.5999670028686523
57	252.50645780563354	fix_pre	0		11	55.0	2.5	/experiments/aot/S_yt-Jro_TRE8NUQ_234.mp4	0.0	275.18801283836365	0.0916900634765625
57	252.59027981758118	pulse	0	t		55.0	2.5	/experiments/aot/S_yt-Jro_TRE8NUQ_234.mp4	0.0	275.2718348503113	
57	252.5981478691101	movie	1		301	55.0	2.5	/experiments/aot/S_yt-Jro_TRE8NUQ_234.mp4	0.0	275.2797029018402	2.5092220306396484
57	254.19045495986938	pulse	1	t		55.0	2.5	/experiments/aot/S_yt-Jro_TRE8NUQ_234.mp4	0.0	276.8720099925995	
57	255.10736989974976	fix_post	2		72	55.0	2.5	/experiments/aot/S_yt-Jro_TRE8NUQ_234.mp4	0.0	277.78892493247986	0.5999660491943359
58	255.7073359489441	fix_pre	0		11	56.0	2.5	/experiments/aot/S_yt-9EnchawJ3pA_90.mp4	0.0	278.3888909816742	0.09081602096557617
58	255.79051685333252	pulse	0	t		56.0	2.5	/experiments/aot/S_yt-9EnchawJ3pA_90.mp4	0.0	278.4720718860626	
58	255.79815196990967	movie	1		301	56.0	2.5	/experiments/aot/S_yt-9EnchawJ3pA_90.mp4	0.0	278.47970700263977	2.5083959102630615
58	257.3898949623108	pulse	1	t		56.0	2.5	/experiments/aot/S_yt-9EnchawJ3pA_90.mp4	0.0	280.0714499950409	
58	258.30654788017273	fix_post	2		72	56.0	2.5	/experiments/aot/S_yt-9EnchawJ3pA_90.mp4	0.0	280.98810291290283	0.6001420021057129
59	258.90668988227844	fix_pre	0		11	57.0	2.5	/experiments/aot/S_production_ID_4802710.mp4	0.0	281.58824491500854	0.0924689769744873
59	258.99013590812683	pulse	0	t		57.0	2.5	/experiments/aot/S_production_ID_4802710.mp4	0.0	281.67169094085693	
59	258.99915885925293	movie	1		162	57.0	2.5	/experiments/aot/S_production_ID_4802710.mp4	0.0	281.68071389198303	2.507308006286621
59	260.58992290496826	pulse	1	t		57.0	2.5	/experiments/aot/S_production_ID_4802710.mp4	0.0	283.27147793769836	
59	261.50646686553955	fix_post	2		72	57.0	2.5	/experiments/aot/S_production_ID_4802710.mp4	0.0	284.18802189826965	0.5999569892883301
60	262.1064238548279	fix_pre	0		11	58.0	2.5	/experiments/aot/S_pexels-mikhail-nilov-8410084_1.mp4	0.0	284.787978887558	0.09164905548095703
60	262.1902949810028	pulse	0	t		58.0	2.5	/experiments/aot/S_pexels-mikhail-nilov-8410084_1.mp4	0.0	284.8718500137329	
60	262.19807291030884	movie	1		162	58.0	2.5	/experiments/aot/S_pexels-mikhail-nilov-8410084_1.mp4	0.0	284.87962794303894	2.5083670616149902
60	263.7912619113922	pulse	1	t		58.0	2.5	/experiments/aot/S_pexels-mikhail-nilov-8410084_1.mp4	0.0	286.4728169441223	
60	264.7064399719238	fix_post	2		72	58.0	2.5	/experiments/aot/S_pexels-mikhail-nilov-8410084_1.mp4	0.0	287.38799500465393	0.5999870300292969
61	265.3064270019531	fix_pre	0		11	59.0	2.5	/experiments/aot/S_video-10.mp4	0.0	287.9879820346832	0.0916438102722168
61	265.3902449607849	pulse	0	t		59.0	2.5	/experiments/aot/S_video-10.mp4	0.0	288.071799993515	
61	265.39807081222534	movie	1		161	59.0	2.5	/experiments/aot/S_video-10.mp4	0.0	288.07962584495544	2.508315086364746
61	266.9902548789978	pulse	1	t		59.0	2.5	/experiments/aot/S_video-10.mp4	0.0	289.6718099117279	
61	267.9063858985901	fix_post	2		72	59.0	2.5	/experiments/aot/S_video-10.mp4	0.0	290.5879409313202	0.600006103515625
62	268.5063920021057	fix_pre	0		11	60.0	2.5	/experiments/aot/S_ILSVRC2015_train_00423000.mp4	0.0	291.1879470348358	0.0916910171508789
62	268.59026885032654	pulse	0	t		60.0	2.5	/experiments/aot/S_ILSVRC2015_train_00423000.mp4	0.0	291.27182388305664	
62	268.5980830192566	movie	1		301	60.0	2.5	/experiments/aot/S_ILSVRC2015_train_00423000.mp4	0.0	291.2796380519867	2.5083329677581787
62	270.19030594825745	pulse	1	t		60.0	2.5	/experiments/aot/S_ILSVRC2015_train_00423000.mp4	0.0	292.87186098098755	
62	271.10641598701477	fix_post	2		72	60.0	2.5	/experiments/aot/S_ILSVRC2015_train_00423000.mp4	0.0	293.7879710197449	0.6001079082489014
63	271.7065238952637	fix_pre	0		11	61.0	2.5	/experiments/aot/S_yt-ieA3XwoSko4_98.mp4	0.0	294.3880789279938	0.09154796600341797
63	271.7902100086212	pulse	0	t		61.0	2.5	/experiments/aot/S_yt-ieA3XwoSko4_98.mp4	0.0	294.4717650413513	
63	271.7980718612671	movie	1		301	61.0	2.5	/experiments/aot/S_yt-ieA3XwoSko4_98.mp4	0.0	294.4796268939972	2.5083000659942627
63	273.3903319835663	pulse	1	t		61.0	2.5	/experiments/aot/S_yt-ieA3XwoSko4_98.mp4	0.0	296.0718870162964	
63	274.30637192726135	fix_post	2		72	61.0	2.5	/experiments/aot/S_yt-ieA3XwoSko4_98.mp4	0.0	296.98792695999146	0.6000468730926514
64	274.906418800354	fix_pre	0		11	62.0	2.5	/experiments/aot/S_production_ID_3712945.mp4	0.0	297.5879738330841	0.0916140079498291
64	274.99021792411804	pulse	0	t		62.0	2.5	/experiments/aot/S_production_ID_3712945.mp4	0.0	297.67177295684814	
64	274.99803280830383	movie	1		162	62.0	2.5	/experiments/aot/S_production_ID_3712945.mp4	0.0	297.67958784103394	2.508338212966919
64	276.58945178985596	pulse	1	t		62.0	2.5	/experiments/aot/S_production_ID_3712945.mp4	0.0	299.27100682258606	
64	277.50637102127075	fix_post	2		72	62.0	2.5	/experiments/aot/S_production_ID_3712945.mp4	0.0	300.18792605400085	0.5999419689178467
65	278.1063129901886	fix_pre	0		11	63.0	2.5	/experiments/aot/S_yt-54kx8P3L1ns_6.mp4	0.0	300.7878680229187	0.09172487258911133
65	278.1902108192444	pulse	0	t		63.0	2.5	/experiments/aot/S_yt-54kx8P3L1ns_6.mp4	0.0	300.8717658519745	
65	278.1980378627777	movie	1		301	63.0	2.5	/experiments/aot/S_yt-54kx8P3L1ns_6.mp4	0.0	300.8795928955078	2.5082550048828125
65	279.7901678085327	pulse	1	t		63.0	2.5	/experiments/aot/S_yt-54kx8P3L1ns_6.mp4	0.0	302.4717228412628	
65	280.7062928676605	fix_post	2		72	63.0	2.5	/experiments/aot/S_yt-54kx8P3L1ns_6.mp4	0.0	303.3878479003906	0.600074052810669
66	281.3063669204712	fix_pre	0		11	64.0	2.5	/experiments/aot/S_yt-QqSceHxY3d0_356.mp4	0.0	303.9879219532013	0.09162497520446777
66	281.39023184776306	pulse	0	t		64.0	2.5	/experiments/aot/S_yt-QqSceHxY3d0_356.mp4	0.0	304.07178688049316	
66	281.39799189567566	movie	1		301	64.0	2.5	/experiments/aot/S_yt-QqSceHxY3d0_356.mp4	0.0	304.07954692840576	2.508342981338501
66	282.99029898643494	pulse	1	t		64.0	2.5	/experiments/aot/S_yt-QqSceHxY3d0_356.mp4	0.0	305.67185401916504	
66	283.90633487701416	fix_post	2		72	64.0	2.5	/experiments/aot/S_yt-QqSceHxY3d0_356.mp4	0.0	306.58788990974426	0.5999701023101807
67	284.50630497932434	fix_pre	0		11	65.0	2.5	/experiments/aot/S_ILSVRC2015_train_00219004.mp4	0.0	307.18786001205444	0.09166789054870605
67	284.5901868343353	pulse	0	t		65.0	2.5	/experiments/aot/S_ILSVRC2015_train_00219004.mp4	0.0	307.27174186706543	
67	284.59797286987305	movie	1		301	65.0	2.5	/experiments/aot/S_ILSVRC2015_train_00219004.mp4	0.0	307.27952790260315	2.5083250999450684
67	286.1902120113373	pulse	1	t		65.0	2.5	/experiments/aot/S_ILSVRC2015_train_00219004.mp4	0.0	308.8717670440674	
67	287.1062979698181	fix_post	2		72	65.0	2.5	/experiments/aot/S_ILSVRC2015_train_00219004.mp4	0.0	309.7878530025482	0.5999648571014404
68	287.70626282691956	fix_pre	0		11	66.0	2.5	/experiments/aot/S_yt-QTGIhecBZjc_19.mp4	0.0	310.38781785964966	0.09168696403503418
68	287.79012989997864	pulse	0	t		66.0	2.5	/experiments/aot/S_yt-QTGIhecBZjc_19.mp4	0.0	310.47168493270874	
68	287.7979497909546	movie	1		301	66.0	2.5	/experiments/aot/S_yt-QTGIhecBZjc_19.mp4	0.0	310.4795048236847	2.508324146270752
68	289.39018082618713	pulse	1	t		66.0	2.5	/experiments/aot/S_yt-QTGIhecBZjc_19.mp4	0.0	312.07173585891724	
68	290.30627393722534	fix_post	2		72	66.0	2.5	/experiments/aot/S_yt-QTGIhecBZjc_19.mp4	0.0	312.98782896995544	0.6000969409942627
69	290.9063708782196	fix_pre	0		11	67.0	2.5	blank	1.0	313.5879259109497	0.09158492088317871
69	290.99017691612244	pulse	0	t		67.0	2.5	blank	1.0	313.67173194885254	
69	290.9979557991028	movie	1		301	67.0	2.5	blank	1.0	313.6795108318329	2.50925612449646
69	292.5901439189911	pulse	1	t		67.0	2.5	blank	1.0	315.2716989517212	
69	293.50721192359924	fix_post	2		72	67.0	2.5	blank	1.0	316.18876695632935	0.5990350246429443
70	294.1062469482422	fix_pre	0		11	68.0	2.5	/experiments/aot/S_yt-9Ow95khYa_M_91.mp4	0.0	316.7878019809723	0.09170794486999512
70	294.1900999546051	pulse	0	t		68.0	2.5	/experiments/aot/S_yt-9Ow95khYa_M_91.mp4	0.0	316.8716549873352	
70	294.1979548931122	movie	1		301	68.0	2.5	/experiments/aot/S_yt-9Ow95khYa_M_91.mp4	0.0	316.8795099258423	2.5091910362243652
70	295.7901339530945	pulse	1	t		68.0	2.5	/experiments/aot/S_yt-9Ow95khYa_M_91.mp4	0.0	318.4716889858246	
70	296.70714592933655	fix_post	2		72	68.0	2.5	/experiments/aot/S_yt-9Ow95khYa_M_91.mp4	0.0	319.38870096206665	0.5990610122680664
71	297.3062069416046	fix_pre	0		11	69.0	2.5	blank	1.0	319.9877619743347	0.09251999855041504
71	297.39011788368225	pulse	0	t		69.0	2.5	blank	1.0	320.07167291641235	
71	297.39872694015503	movie	1		301	69.0	2.5	blank	1.0	320.08028197288513	2.5075619220733643
71	298.9901909828186	pulse	1	t		69.0	2.5	blank	1.0	321.6717460155487	
71	299.9062888622284	fix_post	2		72	69.0	2.5	blank	1.0	322.5878438949585	0.5999021530151367
72	300.50619101524353	fix_pre	0		11	70.0	2.5	/experiments/aot/S_yt-bwSRV1Vr21s_435.mp4	0.0	323.18774604797363	0.0917198657989502
72	300.5901708602905	pulse	0	t		70.0	2.5	/experiments/aot/S_yt-bwSRV1Vr21s_435.mp4	0.0	323.27172589302063	
72	300.5979108810425	movie	1		301	70.0	2.5	/experiments/aot/S_yt-bwSRV1Vr21s_435.mp4	0.0	323.2794659137726	2.5082859992980957
72	302.19015097618103	pulse	1	t		70.0	2.5	/experiments/aot/S_yt-bwSRV1Vr21s_435.mp4	0.0	324.87170600891113	
72	303.1061968803406	fix_post	2		72	70.0	2.5	/experiments/aot/S_yt-bwSRV1Vr21s_435.mp4	0.0	325.7877519130707	0.6000430583953857
73	303.70623993873596	fix_pre	0		11	71.0	2.5	/experiments/aot/S_yt-NZIhxK5NvWE_152.mp4	0.0	326.38779497146606	0.09160995483398438
73	303.79009985923767	pulse	0	t		71.0	2.5	/experiments/aot/S_yt-NZIhxK5NvWE_152.mp4	0.0	326.4716548919678	
73	303.79784989356995	movie	1		301	71.0	2.5	/experiments/aot/S_yt-NZIhxK5NvWE_152.mp4	0.0	326.47940492630005	2.5092759132385254
73	305.390172958374	pulse	1	t		71.0	2.5	/experiments/aot/S_yt-NZIhxK5NvWE_152.mp4	0.0	328.0717279911041	
73	306.3071258068085	fix_post	2		72	71.0	2.5	/experiments/aot/S_yt-NZIhxK5NvWE_152.mp4	0.0	328.9886808395386	0.5991580486297607
74	306.90628385543823	fix_pre	0		11	72.0	2.5	/experiments/aot/S_ILSVRC2015_train_00369004.mp4	0.0	329.58783888816833	0.09163904190063477
74	306.99015378952026	pulse	0	t		72.0	2.5	/experiments/aot/S_ILSVRC2015_train_00369004.mp4	0.0	329.67170882225037	
74	306.99792289733887	movie	1		301	72.0	2.5	/experiments/aot/S_ILSVRC2015_train_00369004.mp4	0.0	329.67947793006897	2.509247064590454
74	308.5902099609375	pulse	1	t		72.0	2.5	/experiments/aot/S_ILSVRC2015_train_00369004.mp4	0.0	331.2717649936676	
74	309.5071699619293	fix_post	2		72	72.0	2.5	/experiments/aot/S_ILSVRC2015_train_00369004.mp4	0.0	332.1887249946594	0.5990049839019775
75	310.1061749458313	fix_pre	0		11	73.0	2.5	blank	1.0	332.7877299785614	0.09259796142578125
75	310.1900429725647	pulse	0	t		73.0	2.5	blank	1.0	332.8715980052948	
75	310.1987729072571	movie	1		301	73.0	2.5	blank	1.0	332.8803279399872	2.5074799060821533
75	311.7901198863983	pulse	1	t		73.0	2.5	blank	1.0	334.4716749191284	
75	312.70625281333923	fix_post	2		72	73.0	2.5	blank	1.0	335.38780784606934	0.6008880138397217
76	313.30714082717896	fix_pre	0		11	74.0	2.5	/experiments/aot/S_yt-c-H45QS0CF4_147.mp4	0.0	335.98869585990906	0.09186196327209473
76	313.3898057937622	pulse	0	t		74.0	2.5	/experiments/aot/S_yt-c-H45QS0CF4_147.mp4	0.0	336.0713608264923	
76	313.39900279045105	movie	1		301	74.0	2.5	/experiments/aot/S_yt-c-H45QS0CF4_147.mp4	0.0	336.08055782318115	2.507575035095215
76	314.9903099536896	pulse	1	t		74.0	2.5	/experiments/aot/S_yt-c-H45QS0CF4_147.mp4	0.0	337.6718649864197	
76	315.90657782554626	fix_post	2		72	74.0	2.5	/experiments/aot/S_yt-c-H45QS0CF4_147.mp4	0.0	338.58813285827637	0.599675178527832
77	316.5062530040741	fix_pre	0		11	75.0	2.5	/experiments/aot/S_yt-HwEfWfFJhRo_73.mp4	0.0	339.1878080368042	0.09264588356018066
77	316.5901508331299	pulse	0	t		75.0	2.5	/experiments/aot/S_yt-HwEfWfFJhRo_73.mp4	0.0	339.27170586586	
77	316.5988988876343	movie	1		301	75.0	2.5	/experiments/aot/S_yt-HwEfWfFJhRo_73.mp4	0.0	339.2804539203644	2.508197069168091
77	318.19010496139526	pulse	1	t		75.0	2.5	/experiments/aot/S_yt-HwEfWfFJhRo_73.mp4	0.0	340.87165999412537	
77	319.10709595680237	fix_post	2		72	75.0	2.5	/experiments/aot/S_yt-HwEfWfFJhRo_73.mp4	0.0	341.78865098953247	0.5999970436096191
78	319.707093000412	fix_pre	0		11	76.0	2.5	/experiments/aot/S_yt-aiWUhl8MCto_71.mp4	0.0	342.3886480331421	0.09080791473388672
78	319.7900619506836	pulse	0	t		76.0	2.5	/experiments/aot/S_yt-aiWUhl8MCto_71.mp4	0.0	342.4716169834137	
78	319.7979009151459	movie	1		301	76.0	2.5	/experiments/aot/S_yt-aiWUhl8MCto_71.mp4	0.0	342.479455947876	2.5092599391937256
78	321.39007782936096	pulse	1	t		76.0	2.5	/experiments/aot/S_yt-aiWUhl8MCto_71.mp4	0.0	344.07163286209106	
78	322.3071608543396	fix_post	2		72	76.0	2.5	/experiments/aot/S_yt-aiWUhl8MCto_71.mp4	0.0	344.9887158870697	0.5999231338500977
79	322.9070839881897	fix_pre	0		11	77.0	2.5	/experiments/aot/S_yt-iO0efV_PV-k_102.mp4	0.0	345.5886390209198	0.09164786338806152
79	322.9899859428406	pulse	0	t		77.0	2.5	/experiments/aot/S_yt-iO0efV_PV-k_102.mp4	0.0	345.6715409755707	
79	322.99873185157776	movie	1		301	77.0	2.5	/experiments/aot/S_yt-iO0efV_PV-k_102.mp4	0.0	345.68028688430786	2.508319139480591
79	324.59007692337036	pulse	1	t		77.0	2.5	/experiments/aot/S_yt-iO0efV_PV-k_102.mp4	0.0	347.27163195610046	
79	325.50705099105835	fix_post	2		72	77.0	2.5	/experiments/aot/S_yt-iO0efV_PV-k_102.mp4	0.0	348.18860602378845	0.5990979671478271
80	326.1061489582062	fix_pre	0		11	78.0	2.5	/experiments/aot/S_ILSVRC2015_train_00411000.mp4	0.0	348.7877039909363	0.09169983863830566
80	326.19003987312317	pulse	0	t		78.0	2.5	/experiments/aot/S_ILSVRC2015_train_00411000.mp4	0.0	348.87159490585327	
80	326.1978487968445	movie	1		301	78.0	2.5	/experiments/aot/S_ILSVRC2015_train_00411000.mp4	0.0	348.8794038295746	2.508312225341797
80	327.790011882782	pulse	1	t		78.0	2.5	/experiments/aot/S_ILSVRC2015_train_00411000.mp4	0.0	350.4715669155121	
80	328.7061610221863	fix_post	2		72	78.0	2.5	/experiments/aot/S_ILSVRC2015_train_00411000.mp4	0.0	351.3877160549164	0.6008257865905762
81	329.30698680877686	fix_pre	0		11	79.0	2.5	/experiments/aot/S_yt-n_eO-7KedAE_21.mp4	0.0	351.98854184150696	0.09164714813232422
81	329.3899710178375	pulse	0	t		79.0	2.5	/experiments/aot/S_yt-n_eO-7KedAE_21.mp4	0.0	352.0715260505676	
81	329.3986339569092	movie	1		301	79.0	2.5	/experiments/aot/S_yt-n_eO-7KedAE_21.mp4	0.0	352.0801889896393	2.507488965988159
81	330.99002289772034	pulse	1	t		79.0	2.5	/experiments/aot/S_yt-n_eO-7KedAE_21.mp4	0.0	353.67157793045044	
81	331.90612292289734	fix_post	2		72	79.0	2.5	/experiments/aot/S_yt-n_eO-7KedAE_21.mp4	0.0	354.58767795562744	0.5999979972839355
82	332.5061209201813	fix_pre	0		11	80.0	2.5	/experiments/aot/S_yt-GWlwb2QsxIA_48.mp4	0.0	355.1876759529114	0.09261894226074219
82	332.58997678756714	pulse	0	t		80.0	2.5	/experiments/aot/S_yt-GWlwb2QsxIA_48.mp4	0.0	355.27153182029724	
82	332.598739862442	movie	1		301	80.0	2.5	/experiments/aot/S_yt-GWlwb2QsxIA_48.mp4	0.0	355.2802948951721	2.5073299407958984
82	334.19003200531006	pulse	1	t		80.0	2.5	/experiments/aot/S_yt-GWlwb2QsxIA_48.mp4	0.0	356.87158703804016	
82	335.1060698032379	fix_post	2		72	80.0	2.5	/experiments/aot/S_yt-GWlwb2QsxIA_48.mp4	0.0	357.787624835968	0.6009030342102051
83	335.7069728374481	fix_pre	0		11	81.0	2.5	/experiments/aot/S_yt-oxUpc8I5wWQ_238.mp4	0.0	358.3885278701782	0.09081816673278809
83	335.78993582725525	pulse	0	t		81.0	2.5	/experiments/aot/S_yt-oxUpc8I5wWQ_238.mp4	0.0	358.47149085998535	
83	335.7977910041809	movie	1		301	81.0	2.5	/experiments/aot/S_yt-oxUpc8I5wWQ_238.mp4	0.0	358.479346036911	2.508305788040161
83	337.3899908065796	pulse	1	t		81.0	2.5	/experiments/aot/S_yt-oxUpc8I5wWQ_238.mp4	0.0	360.0715458393097	
83	338.30609679222107	fix_post	2		72	81.0	2.5	/experiments/aot/S_yt-oxUpc8I5wWQ_238.mp4	0.0	360.9876518249512	0.6000142097473145
84	338.9061110019684	fix_pre	0		11	82.0	2.5	/experiments/aot/S_yt-gmiyqQDGN78_7.mp4	0.0	361.5876660346985	0.09165382385253906
84	338.990051984787	pulse	0	t		82.0	2.5	/experiments/aot/S_yt-gmiyqQDGN78_7.mp4	0.0	361.6716070175171	
84	338.9977648258209	movie	1		301	82.0	2.5	/experiments/aot/S_yt-gmiyqQDGN78_7.mp4	0.0	361.679319858551	2.5082600116729736
84	340.58994483947754	pulse	1	t		82.0	2.5	/experiments/aot/S_yt-gmiyqQDGN78_7.mp4	0.0	363.27149987220764	
84	341.5060248374939	fix_post	2		72	82.0	2.5	/experiments/aot/S_yt-gmiyqQDGN78_7.mp4	0.0	364.187579870224	0.6000430583953857
85	342.1060678958893	fix_pre	0		11	83.0	2.5	blank	1.0	364.7876229286194	0.0916299819946289
85	342.1899149417877	pulse	0	t		83.0	2.5	blank	1.0	364.8714699745178	
85	342.1976978778839	movie	1		301	83.0	2.5	blank	1.0	364.879252910614	2.5083560943603516
85	343.7899339199066	pulse	1	t		83.0	2.5	blank	1.0	366.4714889526367	
85	344.70605397224426	fix_post	2		72	83.0	2.5	blank	1.0	367.38760900497437	0.599963903427124
86	345.3060178756714	fix_pre	0		11	84.0	2.5	/experiments/aot/S_yt-deiWoIfK6vg_44.mp4	0.0	367.9875729084015	0.09165310859680176
86	345.3898859024048	pulse	0	t		84.0	2.5	/experiments/aot/S_yt-deiWoIfK6vg_44.mp4	0.0	368.0714409351349	
86	345.3976709842682	movie	1		301	84.0	2.5	/experiments/aot/S_yt-deiWoIfK6vg_44.mp4	0.0	368.0792260169983	2.5083470344543457
86	346.9899089336395	pulse	1	t		84.0	2.5	/experiments/aot/S_yt-deiWoIfK6vg_44.mp4	0.0	369.67146396636963	
86	347.90601801872253	fix_post	2		72	84.0	2.5	/experiments/aot/S_yt-deiWoIfK6vg_44.mp4	0.0	370.58757305145264	0.599949836730957
87	348.5059678554535	fix_pre	0		11	85.0	2.5	/experiments/aot/S_yt-KV8X9IBWuJk_48.mp4	0.0	371.1875228881836	0.09166193008422852
87	348.58989691734314	pulse	0	t		85.0	2.5	/experiments/aot/S_yt-KV8X9IBWuJk_48.mp4	0.0	371.27145195007324	
87	348.5976297855377	movie	1		301	85.0	2.5	/experiments/aot/S_yt-KV8X9IBWuJk_48.mp4	0.0	371.2791848182678	2.508402109146118
87	350.18990993499756	pulse	1	t		85.0	2.5	/experiments/aot/S_yt-KV8X9IBWuJk_48.mp4	0.0	372.87146496772766	
87	351.10603189468384	fix_post	2		72	85.0	2.5	/experiments/aot/S_yt-KV8X9IBWuJk_48.mp4	0.0	373.78758692741394	0.5999789237976074
88	351.70601081848145	fix_pre	0		11	86.0	2.5	/experiments/aot/S_Nh81j72Utbs_5.mp4	0.0	374.38756585121155	0.09168601036071777
88	351.7898459434509	pulse	0	t		86.0	2.5	/experiments/aot/S_Nh81j72Utbs_5.mp4	0.0	374.47140097618103	
88	351.79769682884216	movie	1		301	86.0	2.5	/experiments/aot/S_Nh81j72Utbs_5.mp4	0.0	374.47925186157227	2.5082781314849854
88	353.38993883132935	pulse	1	t		86.0	2.5	/experiments/aot/S_Nh81j72Utbs_5.mp4	0.0	376.07149386405945	
88	354.30597496032715	fix_post	2		72	86.0	2.5	/experiments/aot/S_Nh81j72Utbs_5.mp4	0.0	376.98752999305725	0.5999870300292969
89	354.90596199035645	fix_pre	0		11	87.0	2.5	/experiments/aot/S_yt-AuQ_WxaNy4Y_255.mp4	0.0	377.58751702308655	0.09167885780334473
89	354.98990201950073	pulse	0	t		87.0	2.5	/experiments/aot/S_yt-AuQ_WxaNy4Y_255.mp4	0.0	377.67145705223083	
89	354.9976408481598	movie	1		301	87.0	2.5	/experiments/aot/S_yt-AuQ_WxaNy4Y_255.mp4	0.0	377.6791958808899	2.5082709789276123
89	356.58983397483826	pulse	1	t		87.0	2.5	/experiments/aot/S_yt-AuQ_WxaNy4Y_255.mp4	0.0	379.27138900756836	
89	357.5059118270874	fix_post	2		72	87.0	2.5	/experiments/aot/S_yt-AuQ_WxaNy4Y_255.mp4	0.0	380.1874668598175	0.6000151634216309
90	358.10592699050903	fix_pre	0		11	88.0	2.5	/experiments/aot/S_yt-PaxmJhMoP3w_87.mp4	0.0	380.78748202323914	0.09169292449951172
90	358.18987584114075	pulse	0	t		88.0	2.5	/experiments/aot/S_yt-PaxmJhMoP3w_87.mp4	0.0	380.87143087387085	
90	358.19761991500854	movie	1		301	88.0	2.5	/experiments/aot/S_yt-PaxmJhMoP3w_87.mp4	0.0	380.87917494773865	2.5083510875701904
90	359.78992795944214	pulse	1	t		88.0	2.5	/experiments/aot/S_yt-PaxmJhMoP3w_87.mp4	0.0	382.47148299217224	
90	360.70597100257874	fix_post	2		72	88.0	2.5	/experiments/aot/S_yt-PaxmJhMoP3w_87.mp4	0.0	383.38752603530884	0.600017786026001
91	361.30598878860474	fix_pre	0		11	89.0	2.5	/experiments/aot/S_yt-XA6RBioito4_18.mp4	0.0	383.98754382133484	0.09163713455200195
91	361.38986992836	pulse	0	t		89.0	2.5	/experiments/aot/S_yt-XA6RBioito4_18.mp4	0.0	384.0714249610901	
91	361.39762592315674	movie	1		301	89.0	2.5	/experiments/aot/S_yt-XA6RBioito4_18.mp4	0.0	384.07918095588684	2.508347988128662
91	362.98987579345703	pulse	1	t		89.0	2.5	/experiments/aot/S_yt-XA6RBioito4_18.mp4	0.0	385.67143082618713	
91	363.9059739112854	fix_post	2		72	89.0	2.5	/experiments/aot/S_yt-XA6RBioito4_18.mp4	0.0	386.5875289440155	0.5999460220336914
92	364.5059199333191	fix_pre	0		11	90.0	2.5	blank	1.0	387.1874749660492	0.09253907203674316
92	364.5898129940033	pulse	0	t		90.0	2.5	blank	1.0	387.2713680267334	
92	364.59845900535583	movie	1		301	90.0	2.5	blank	1.0	387.28001403808594	2.507499933242798
92	366.18980979919434	pulse	1	t		90.0	2.5	blank	1.0	388.87136483192444	
92	367.10595893859863	fix_post	2		72	90.0	2.5	blank	1.0	389.78751397132874	0.5999970436096191
93	367.70595598220825	fix_pre	0		11	91.0	2.5	blank	1.0	390.38751101493835	0.09164595603942871
93	367.7898738384247	pulse	0	t		91.0	2.5	blank	1.0	390.4714288711548	
93	367.7976019382477	movie	1		301	91.0	2.5	blank	1.0	390.4791569709778	2.5085160732269287
93	369.38943099975586	pulse	1	t		91.0	2.5	blank	1.0	392.07098603248596	
93	370.3061180114746	fix_post	2		72	91.0	2.5	blank	1.0	392.9876730442047	0.600153923034668
94	370.9062719345093	fix_pre	0		11	92.0	2.5	/experiments/aot/S_yt-ibDaDIEazxg_3.mp4	0.0	393.5878269672394	0.09160089492797852
94	370.9896459579468	pulse	0	t		92.0	2.5	/experiments/aot/S_yt-ibDaDIEazxg_3.mp4	0.0	393.6712009906769	
94	370.99787282943726	movie	1		301	92.0	2.5	/experiments/aot/S_yt-ibDaDIEazxg_3.mp4	0.0	393.67942786216736	2.508080005645752
94	372.5898768901825	pulse	1	t		92.0	2.5	/experiments/aot/S_yt-ibDaDIEazxg_3.mp4	0.0	395.2714319229126	
94	373.505952835083	fix_post	2		72	92.0	2.5	/experiments/aot/S_yt-ibDaDIEazxg_3.mp4	0.0	396.1875078678131	0.5999860763549805
95	374.105938911438	fix_pre	0		11	93.0	2.5	blank	1.0	396.7874939441681	0.09167695045471191
95	374.18976283073425	pulse	0	t		93.0	2.5	blank	1.0	396.87131786346436	
95	374.1976158618927	movie	1		301	93.0	2.5	blank	1.0	396.8791708946228	2.5083069801330566
95	375.7897799015045	pulse	1	t		93.0	2.5	blank	1.0	398.4713349342346	
95	376.70592284202576	fix_post	2		72	93.0	2.5	blank	1.0	399.38747787475586	0.600006103515625
96	377.3059289455414	fix_pre	0		11	94.0	2.5	/experiments/aot/S_yt-AOP7QYQntPI_28.mp4	0.0	399.9874839782715	0.09263086318969727
96	377.38980293273926	pulse	0	t		94.0	2.5	/experiments/aot/S_yt-AOP7QYQntPI_28.mp4	0.0	400.07135796546936	
96	377.3985598087311	movie	1		301	94.0	2.5	/experiments/aot/S_yt-AOP7QYQntPI_28.mp4	0.0	400.0801148414612	2.507312059402466
96	378.9898188114166	pulse	1	t		94.0	2.5	/experiments/aot/S_yt-AOP7QYQntPI_28.mp4	0.0	401.67137384414673	
96	379.90587186813354	fix_post	2		72	94.0	2.5	/experiments/aot/S_yt-AOP7QYQntPI_28.mp4	0.0	402.58742690086365	0.5999701023101807
97	380.5058419704437	fix_pre	0		11	95.0	2.5	/experiments/aot/S_yt-MTo50ReVNmU_2.mp4	0.0	403.1873970031738	0.09164285659790039
97	380.5898377895355	pulse	0	t		95.0	2.5	/experiments/aot/S_yt-MTo50ReVNmU_2.mp4	0.0	403.2713928222656	
97	380.5974848270416	movie	1		301	95.0	2.5	/experiments/aot/S_yt-MTo50ReVNmU_2.mp4	0.0	403.27903985977173	2.50833797454834
97	382.1897118091583	pulse	1	t		95.0	2.5	/experiments/aot/S_yt-MTo50ReVNmU_2.mp4	0.0	404.8712668418884	
97	383.10582280158997	fix_post	2		72	95.0	2.5	/experiments/aot/S_yt-MTo50ReVNmU_2.mp4	0.0	405.78737783432007	0.6000630855560303
98	383.705885887146	fix_pre	0		11	96.0	2.5	/experiments/aot/S_yt-LB9LoYfH_EA_15.mp4	0.0	406.3874409198761	0.09163093566894531
98	383.7896978855133	pulse	0	t		96.0	2.5	/experiments/aot/S_yt-LB9LoYfH_EA_15.mp4	0.0	406.4712529182434	
98	383.79751682281494	movie	1		301	96.0	2.5	/experiments/aot/S_yt-LB9LoYfH_EA_15.mp4	0.0	406.47907185554504	2.5083351135253906
98	385.3898389339447	pulse	1	t		96.0	2.5	/experiments/aot/S_yt-LB9LoYfH_EA_15.mp4	0.0	408.0713939666748	
98	386.30585193634033	fix_post	2		72	96.0	2.5	/experiments/aot/S_yt-LB9LoYfH_EA_15.mp4	0.0	408.98740696907043	0.6001379489898682
99	386.9059898853302	fix_pre	0		11	97.0	2.5	/experiments/aot/S_yt-aSEKRE_FNaI_62.mp4	0.0	409.5875449180603	0.0915229320526123
99	386.9897418022156	pulse	0	t		97.0	2.5	/experiments/aot/S_yt-aSEKRE_FNaI_62.mp4	0.0	409.6712968349457	
99	386.9975128173828	movie	1		301	97.0	2.5	/experiments/aot/S_yt-aSEKRE_FNaI_62.mp4	0.0	409.6790678501129	2.5082972049713135
99	388.589781999588	pulse	1	t		97.0	2.5	/experiments/aot/S_yt-aSEKRE_FNaI_62.mp4	0.0	411.2713370323181	
99	389.5058100223541	fix_post	2		72	97.0	2.5	/experiments/aot/S_yt-aSEKRE_FNaI_62.mp4	0.0	412.18736505508423	0.599984884262085
100	390.1057949066162	fix_pre	0		11	98.0	2.5	/experiments/aot/S_yt-hTkrnNr39dk_202.mp4	0.0	412.7873499393463	0.0916740894317627
100	390.18969202041626	pulse	0	t		98.0	2.5	/experiments/aot/S_yt-hTkrnNr39dk_202.mp4	0.0	412.87124705314636	
100	390.197468996048	movie	1		301	98.0	2.5	/experiments/aot/S_yt-hTkrnNr39dk_202.mp4	0.0	412.8790240287781	2.508375883102417
100	391.7897529602051	pulse	1	t		98.0	2.5	/experiments/aot/S_yt-hTkrnNr39dk_202.mp4	0.0	414.4713079929352	
100	392.7058448791504	fix_post	2		72	98.0	2.5	/experiments/aot/S_yt-hTkrnNr39dk_202.mp4	0.0	415.3873999118805	0.6009259223937988
101	393.3067708015442	fix_pre	0		11	99.0	2.5	/experiments/aot/S_yt-O4wUEZwHLyI_114.mp4	0.0	415.9883258342743	0.09069609642028809
101	393.38972997665405	pulse	0	t		99.0	2.5	/experiments/aot/S_yt-O4wUEZwHLyI_114.mp4	0.0	416.07128500938416	
101	393.3974668979645	movie	1		301	99.0	2.5	/experiments/aot/S_yt-O4wUEZwHLyI_114.mp4	0.0	416.0790219306946	2.5083720684051514
101	394.98979687690735	pulse	1	t		99.0	2.5	/experiments/aot/S_yt-O4wUEZwHLyI_114.mp4	0.0	417.67135190963745	
101	395.90583896636963	fix_post	2		72	99.0	2.5	/experiments/aot/S_yt-O4wUEZwHLyI_114.mp4	0.0	418.58739399909973	0.5999839305877686
103	396.5058228969574	stim	0		1716					419.1873779296875	14.300363063812256
103	396.5897078514099	pulse	0	t						419.27126288414	
103	398.189701795578	pulse	0	t						420.8712568283081	
103	399.78967094421387	pulse	0	t						422.47122597694397	
103	401.3896059989929	pulse	0	t						424.071161031723	
103	402.9896469116211	pulse	0	t						425.6712019443512	
103	404.5896329879761	pulse	0	t						427.2711880207062	
103	406.1896347999573	pulse	0	t						428.8711898326874	
103	407.78961396217346	pulse	0	t						430.47116899490356	
103	409.38957381248474	pulse	0	t						432.07112884521484	
