trial_nr	onset	event_type	phase	response	nr_frames	movie_index	movie_duration	movie_file	blank	onset_abs	duration
0	0.14948582649230957	stim	0		37					20.290499687194824	0.30875205993652344
0	0.45027589797973633	response	0	space						20.59128975868225	
1	0.458237886428833	stim	0		4634					20.599251747131348	38.61645793914795
1	39.069180965423584	pulse	0	t						59.2101948261261	
1	39.07469582557678	stim	1		1717					59.2157096862793	14.308274030685425
1	40.666504859924316	pulse	1	t						60.80751872062683	
1	42.26608490943909	pulse	1	t						62.4070987701416	
1	43.86674189567566	pulse	1	t						64.00775575637817	
1	45.46656084060669	pulse	1	t						65.6075747013092	
1	47.0665009021759	pulse	1	t						67.20751476287842	
1	48.666483879089355	pulse	1	t						68.80749773979187	
1	50.26641583442688	pulse	1	t						70.4074296951294	
1	51.866429805755615	pulse	1	t						72.00744366645813	
2	53.38296985626221	fix_pre	0		11	0.0	2.5	/experiments/aot_oldvideos/S_production_ID_4802710.mp4	0.0	73.52398371696472	0.09157395362854004
2	53.46643280982971	pulse	0	t		0.0	2.5	/experiments/aot_oldvideos/S_production_ID_4802710.mp4	0.0	73.60744667053223	
2	53.47454380989075	movie	1		162	0.0	2.5	/experiments/aot_oldvideos/S_production_ID_4802710.mp4	0.0	73.61555767059326	2.5084340572357178
2	55.067885875701904	pulse	1	t		0.0	2.5	/experiments/aot_oldvideos/S_production_ID_4802710.mp4	0.0	75.20889973640442	
2	55.982977867126465	fix_post	2		12	0.0	2.5	/experiments/aot_oldvideos/S_production_ID_4802710.mp4	0.0	76.12399172782898	0.09995198249816895
3	56.082929849624634	fix_pre	0		120	1.0	2.5	/experiments/aot_oldvideos/S_yt-KV8X9IBWuJk_48.mp4	0.0	76.22394371032715	0.9996099472045898
3	56.666393995285034	pulse	0	t		1.0	2.5	/experiments/aot_oldvideos/S_yt-KV8X9IBWuJk_48.mp4	0.0	76.80740785598755	
3	57.082539796829224	movie	1		300	1.0	2.5	/experiments/aot_oldvideos/S_yt-KV8X9IBWuJk_48.mp4	0.0	77.22355365753174	2.5003931522369385
3	58.26638579368591	pulse	1	t		1.0	2.5	/experiments/aot_oldvideos/S_yt-KV8X9IBWuJk_48.mp4	0.0	78.40739965438843	
3	59.58293294906616	fix_post	2		12	1.0	2.5	/experiments/aot_oldvideos/S_yt-KV8X9IBWuJk_48.mp4	0.0	79.72394680976868	0.10010290145874023
4	59.6830358505249	fix_pre	0		120	2.0	2.5	/experiments/aot_oldvideos/S_yt-n_eO-7KedAE_21.mp4	0.0	79.82404971122742	0.9999001026153564
4	59.86639976501465	pulse	0	t		2.0	2.5	/experiments/aot_oldvideos/S_yt-n_eO-7KedAE_21.mp4	0.0	80.00741362571716	
4	60.68293595314026	movie	1		300	2.0	2.5	/experiments/aot_oldvideos/S_yt-n_eO-7KedAE_21.mp4	0.0	80.82394981384277	2.4999380111694336
4	61.46642994880676	pulse	1	t		2.0	2.5	/experiments/aot_oldvideos/S_yt-n_eO-7KedAE_21.mp4	0.0	81.60744380950928	
4	63.06631398200989	pulse	1	t		2.0	2.5	/experiments/aot_oldvideos/S_yt-n_eO-7KedAE_21.mp4	0.0	83.2073278427124	
4	63.18287396430969	fix_post	2		12	2.0	2.5	/experiments/aot_oldvideos/S_yt-n_eO-7KedAE_21.mp4	0.0	83.3238878250122	0.10001182556152344
5	63.282885789871216	fix_pre	0		120	3.0	2.5	/experiments/aot_oldvideos/S_yt-ibDaDIEazxg_3.mp4	0.0	83.42389965057373	1.0000641345977783
5	64.282949924469	movie	1		300	3.0	2.5	/experiments/aot_oldvideos/S_yt-ibDaDIEazxg_3.mp4	0.0	84.42396378517151	2.4999639987945557
5	64.66645693778992	pulse	1	t		3.0	2.5	/experiments/aot_oldvideos/S_yt-ibDaDIEazxg_3.mp4	0.0	84.80747079849243	
5	66.26635980606079	pulse	1	t		3.0	2.5	/experiments/aot_oldvideos/S_yt-ibDaDIEazxg_3.mp4	0.0	86.4073736667633	
5	66.78291392326355	fix_post	2		12	3.0	2.5	/experiments/aot_oldvideos/S_yt-ibDaDIEazxg_3.mp4	0.0	86.92392778396606	0.09997701644897461
6	66.88289093971252	fix_pre	0		119	4.0	2.5	/experiments/aot_oldvideos/S_wc-8bTJmWfuVyJ4_8.mp4	0.0	87.02390480041504	0.9916210174560547
6	67.8664779663086	pulse	0	t		4.0	2.5	/experiments/aot_oldvideos/S_wc-8bTJmWfuVyJ4_8.mp4	0.0	88.00749182701111	
6	67.87451195716858	movie	1		163	4.0	2.5	/experiments/aot_oldvideos/S_wc-8bTJmWfuVyJ4_8.mp4	0.0	88.0155258178711	2.5079329013824463
6	69.46658086776733	pulse	1	t		4.0	2.5	/experiments/aot_oldvideos/S_wc-8bTJmWfuVyJ4_8.mp4	0.0	89.60759472846985	
6	70.38244485855103	fix_post	2		12	4.0	2.5	/experiments/aot_oldvideos/S_wc-8bTJmWfuVyJ4_8.mp4	0.0	90.52345871925354	0.10048103332519531
7	70.48292589187622	fix_pre	0		120	5.0	2.5	/experiments/aot_oldvideos/S_yt-vQ-rd-1gwH4_238.mp4	0.0	90.62393975257874	0.9999649524688721
7	71.06646394729614	pulse	0	t		5.0	2.5	/experiments/aot_oldvideos/S_yt-vQ-rd-1gwH4_238.mp4	0.0	91.20747780799866	
7	71.48289084434509	movie	1		299	5.0	2.5	/experiments/aot_oldvideos/S_yt-vQ-rd-1gwH4_238.mp4	0.0	91.62390470504761	2.49989914894104
7	72.66637897491455	pulse	1	t		5.0	2.5	/experiments/aot_oldvideos/S_yt-vQ-rd-1gwH4_238.mp4	0.0	92.80739283561707	
7	73.98278999328613	fix_post	2		12	5.0	2.5	/experiments/aot_oldvideos/S_yt-vQ-rd-1gwH4_238.mp4	0.0	94.12380385398865	0.10010695457458496
8	74.08289694786072	fix_pre	0		120	6.0	2.5	/experiments/aot_oldvideos/S_yt-1sn8u-rQRas_7.mp4	0.0	94.22391080856323	0.9999148845672607
8	74.26634979248047	pulse	0	t		6.0	2.5	/experiments/aot_oldvideos/S_yt-1sn8u-rQRas_7.mp4	0.0	94.40736365318298	
8	75.08281183242798	movie	1		299	6.0	2.5	/experiments/aot_oldvideos/S_yt-1sn8u-rQRas_7.mp4	0.0	95.2238256931305	2.5000810623168945
8	75.86642599105835	pulse	1	t		6.0	2.5	/experiments/aot_oldvideos/S_yt-1sn8u-rQRas_7.mp4	0.0	96.00743985176086	
8	77.46642780303955	pulse	1	t		6.0	2.5	/experiments/aot_oldvideos/S_yt-1sn8u-rQRas_7.mp4	0.0	97.60744166374207	
8	77.58289289474487	fix_post	2		12	6.0	2.5	/experiments/aot_oldvideos/S_yt-1sn8u-rQRas_7.mp4	0.0	97.72390675544739	0.09998106956481934
9	77.68287396430969	fix_pre	0		120	7.0	2.5	/experiments/aot_oldvideos/S_production_ID_5119260.mp4	0.0	97.8238878250122	0.9999480247497559
9	78.68282198905945	movie	1		163	7.0	2.5	/experiments/aot_oldvideos/S_production_ID_5119260.mp4	0.0	98.82383584976196	2.499990940093994
9	79.06640982627869	pulse	1	t		7.0	2.5	/experiments/aot_oldvideos/S_production_ID_5119260.mp4	0.0	99.2074236869812	
9	80.66640877723694	pulse	1	t		7.0	2.5	/experiments/aot_oldvideos/S_production_ID_5119260.mp4	0.0	100.80742263793945	
9	81.18281292915344	fix_post	2		12	7.0	2.5	/experiments/aot_oldvideos/S_production_ID_5119260.mp4	0.0	101.32382678985596	0.10002803802490234
10	81.28284096717834	fix_pre	0		119	8.0	2.5	blank	1.0	101.42385482788086	0.9916369915008545
10	82.26631283760071	pulse	0	t		8.0	2.5	blank	1.0	102.40732669830322	
10	82.2744779586792	movie	1		301	8.0	2.5	blank	1.0	102.41549181938171	2.5083658695220947
10	83.8663158416748	pulse	1	t		8.0	2.5	blank	1.0	104.00732970237732	
10	84.7828438282013	fix_post	2		12	8.0	2.5	blank	1.0	104.92385768890381	0.09990215301513672
11	84.88274598121643	fix_pre	0		120	9.0	2.5	blank	1.0	105.02375984191895	1.0000958442687988
11	85.46625280380249	pulse	0	t		9.0	2.5	blank	1.0	105.607266664505	
11	85.88284182548523	movie	1		300	9.0	2.5	blank	1.0	106.02385568618774	2.499878168106079
11	87.06635189056396	pulse	1	t		9.0	2.5	blank	1.0	107.20736575126648	
11	88.38271999359131	fix_post	2		12	9.0	2.5	blank	1.0	108.52373385429382	0.10000181198120117
12	88.48272180557251	fix_pre	0		120	10.0	2.5	/experiments/aot_oldvideos/S_yt-y3tyx6cZjmA_412.mp4	0.0	108.62373566627502	1.0000810623168945
12	88.66625380516052	pulse	0	t		10.0	2.5	/experiments/aot_oldvideos/S_yt-y3tyx6cZjmA_412.mp4	0.0	108.80726766586304	
12	89.4828028678894	movie	1		300	10.0	2.5	/experiments/aot_oldvideos/S_yt-y3tyx6cZjmA_412.mp4	0.0	109.62381672859192	2.500035047531128
12	90.26622986793518	pulse	1	t		10.0	2.5	/experiments/aot_oldvideos/S_yt-y3tyx6cZjmA_412.mp4	0.0	110.4072437286377	
12	91.86676287651062	pulse	1	t		10.0	2.5	/experiments/aot_oldvideos/S_yt-y3tyx6cZjmA_412.mp4	0.0	112.00777673721313	
12	91.98283791542053	fix_post	2		12	10.0	2.5	/experiments/aot_oldvideos/S_yt-y3tyx6cZjmA_412.mp4	0.0	112.12385177612305	0.09998607635498047
13	92.08282399177551	fix_pre	0		120	11.0	2.5	/experiments/aot_oldvideos/S_yt-OFnDCbW9Ebo_31.mp4	0.0	112.22383785247803	0.9999938011169434
13	93.08281779289246	movie	1		299	11.0	2.5	/experiments/aot_oldvideos/S_yt-OFnDCbW9Ebo_31.mp4	0.0	113.22383165359497	2.500063180923462
13	93.46619081497192	pulse	1	t		11.0	2.5	/experiments/aot_oldvideos/S_yt-OFnDCbW9Ebo_31.mp4	0.0	113.60720467567444	
13	95.06618690490723	pulse	1	t		11.0	2.5	/experiments/aot_oldvideos/S_yt-OFnDCbW9Ebo_31.mp4	0.0	115.20720076560974	
13	95.58288097381592	fix_post	2		12	11.0	2.5	/experiments/aot_oldvideos/S_yt-OFnDCbW9Ebo_31.mp4	0.0	115.72389483451843	0.09993195533752441
14	95.68281292915344	fix_pre	0		119	12.0	2.5	/experiments/aot_oldvideos/S_yt-9Ow95khYa_M_91.mp4	0.0	115.82382678985596	0.9916069507598877
14	96.66624188423157	pulse	0	t		12.0	2.5	/experiments/aot_oldvideos/S_yt-9Ow95khYa_M_91.mp4	0.0	116.80725574493408	
14	96.67441987991333	movie	1		301	12.0	2.5	/experiments/aot_oldvideos/S_yt-9Ow95khYa_M_91.mp4	0.0	116.81543374061584	2.5081229209899902
14	98.26633477210999	pulse	1	t		12.0	2.5	/experiments/aot_oldvideos/S_yt-9Ow95khYa_M_91.mp4	0.0	118.4073486328125	
14	99.18254280090332	fix_post	2		12	12.0	2.5	/experiments/aot_oldvideos/S_yt-9Ow95khYa_M_91.mp4	0.0	119.32355666160583	0.09998202323913574
15	99.28252482414246	fix_pre	0		120	13.0	2.5	/experiments/aot_oldvideos/S_ILSVRC2015_train_00515000.mp4	0.0	119.42353868484497	1.0002391338348389
15	99.86648893356323	pulse	0	t		13.0	2.5	/experiments/aot_oldvideos/S_ILSVRC2015_train_00515000.mp4	0.0	120.00750279426575	
15	100.2827639579773	movie	1		300	13.0	2.5	/experiments/aot_oldvideos/S_ILSVRC2015_train_00515000.mp4	0.0	120.42377781867981	2.5000269412994385
15	101.46627593040466	pulse	1	t		13.0	2.5	/experiments/aot_oldvideos/S_ILSVRC2015_train_00515000.mp4	0.0	121.60728979110718	
15	102.78279089927673	fix_post	2		12	13.0	2.5	/experiments/aot_oldvideos/S_ILSVRC2015_train_00515000.mp4	0.0	122.92380475997925	0.09996199607849121
16	102.88275289535522	fix_pre	0		120	14.0	2.5	/experiments/aot_oldvideos/S_yt-HwEfWfFJhRo_73.mp4	0.0	123.02376675605774	0.999967098236084
16	103.06618976593018	pulse	0	t		14.0	2.5	/experiments/aot_oldvideos/S_yt-HwEfWfFJhRo_73.mp4	0.0	123.20720362663269	
16	103.88271999359131	movie	1		300	14.0	2.5	/experiments/aot_oldvideos/S_yt-HwEfWfFJhRo_73.mp4	0.0	124.02373385429382	2.5000147819519043
16	104.66614580154419	pulse	1	t		14.0	2.5	/experiments/aot_oldvideos/S_yt-HwEfWfFJhRo_73.mp4	0.0	124.8071596622467	
16	106.26605987548828	pulse	1	t		14.0	2.5	/experiments/aot_oldvideos/S_yt-HwEfWfFJhRo_73.mp4	0.0	126.4070737361908	
16	106.38273477554321	fix_post	2		12	14.0	2.5	/experiments/aot_oldvideos/S_yt-HwEfWfFJhRo_73.mp4	0.0	126.52374863624573	0.0999150276184082
17	106.48264980316162	fix_pre	0		120	15.0	2.5	/experiments/aot_oldvideos/S_flickr-clarkstonscamp-4863427159_1.mp4	0.0	126.62366366386414	1.0001561641693115
17	107.48280596733093	movie	1		300	15.0	2.5	/experiments/aot_oldvideos/S_flickr-clarkstonscamp-4863427159_1.mp4	0.0	127.62381982803345	2.4994328022003174
17	107.8661048412323	pulse	1	t		15.0	2.5	/experiments/aot_oldvideos/S_flickr-clarkstonscamp-4863427159_1.mp4	0.0	128.00711870193481	
17	109.46606588363647	pulse	1	t		15.0	2.5	/experiments/aot_oldvideos/S_flickr-clarkstonscamp-4863427159_1.mp4	0.0	129.607079744339	
17	109.98223876953125	fix_post	2		12	15.0	2.5	/experiments/aot_oldvideos/S_flickr-clarkstonscamp-4863427159_1.mp4	0.0	130.12325263023376	0.10041308403015137
18	110.0826518535614	fix_pre	0		119	16.0	2.5	/experiments/aot_oldvideos/S_yt-O4wUEZwHLyI_114.mp4	0.0	130.22366571426392	0.9917240142822266
18	111.06614899635315	pulse	0	t		16.0	2.5	/experiments/aot_oldvideos/S_yt-O4wUEZwHLyI_114.mp4	0.0	131.20716285705566	
18	111.07437586784363	movie	1		301	16.0	2.5	/experiments/aot_oldvideos/S_yt-O4wUEZwHLyI_114.mp4	0.0	131.21538972854614	2.5082929134368896
18	112.66616797447205	pulse	1	t		16.0	2.5	/experiments/aot_oldvideos/S_yt-O4wUEZwHLyI_114.mp4	0.0	132.80718183517456	
18	113.58266878128052	fix_post	2		12	16.0	2.5	/experiments/aot_oldvideos/S_yt-O4wUEZwHLyI_114.mp4	0.0	133.72368264198303	0.09999513626098633
19	113.6826639175415	fix_pre	0		120	17.0	2.5	blank	1.0	133.82367777824402	0.9999639987945557
19	114.26613879203796	pulse	0	t		17.0	2.5	blank	1.0	134.40715265274048	
19	114.68262791633606	movie	1		300	17.0	2.5	blank	1.0	134.82364177703857	2.5000839233398438
19	115.86611890792847	pulse	1	t		17.0	2.5	blank	1.0	136.00713276863098	
19	117.1827118396759	fix_post	2		12	17.0	2.5	blank	1.0	137.32372570037842	0.09988999366760254
20	117.2826018333435	fix_pre	0		120	18.0	2.5	/experiments/aot_oldvideos/S_ILSVRC2015_train_00067005.mp4	0.0	137.42361569404602	1.000007152557373
20	117.46609592437744	pulse	0	t		18.0	2.5	/experiments/aot_oldvideos/S_ILSVRC2015_train_00067005.mp4	0.0	137.60710978507996	
20	118.28260898590088	movie	1		299	18.0	2.5	/experiments/aot_oldvideos/S_ILSVRC2015_train_00067005.mp4	0.0	138.4236228466034	2.5000948905944824
20	119.06607580184937	pulse	1	t		18.0	2.5	/experiments/aot_oldvideos/S_ILSVRC2015_train_00067005.mp4	0.0	139.20708966255188	
20	120.66607689857483	pulse	1	t		18.0	2.5	/experiments/aot_oldvideos/S_ILSVRC2015_train_00067005.mp4	0.0	140.80709075927734	
20	120.78270387649536	fix_post	2		12	18.0	2.5	/experiments/aot_oldvideos/S_ILSVRC2015_train_00067005.mp4	0.0	140.92371773719788	0.09999489784240723
21	120.88269877433777	fix_pre	0		120	19.0	2.5	blank	1.0	141.02371263504028	0.9999852180480957
21	121.88268399238586	movie	1		300	19.0	2.5	blank	1.0	142.02369785308838	2.4998879432678223
21	122.26604890823364	pulse	1	t		19.0	2.5	blank	1.0	142.40706276893616	
21	123.8660638332367	pulse	1	t		19.0	2.5	blank	1.0	144.0070776939392	
21	124.38257193565369	fix_post	2		12	19.0	2.5	blank	1.0	144.5235857963562	0.10005784034729004
22	124.48262977600098	fix_pre	0		119	20.0	2.5	/experiments/aot_oldvideos/S_pexels-tima-miroshnichenko-5717005.mp4	0.0	144.6236436367035	0.9915900230407715
22	125.46615791320801	pulse	0	t		20.0	2.5	/experiments/aot_oldvideos/S_pexels-tima-miroshnichenko-5717005.mp4	0.0	145.60717177391052	
22	125.47421979904175	movie	1		160	20.0	2.5	/experiments/aot_oldvideos/S_pexels-tima-miroshnichenko-5717005.mp4	0.0	145.61523365974426	2.5083751678466797
22	127.0660879611969	pulse	1	t		20.0	2.5	/experiments/aot_oldvideos/S_pexels-tima-miroshnichenko-5717005.mp4	0.0	147.2071018218994	
22	127.98259496688843	fix_post	2		12	20.0	2.5	/experiments/aot_oldvideos/S_pexels-tima-miroshnichenko-5717005.mp4	0.0	148.12360882759094	0.10002589225769043
23	128.08262085914612	fix_pre	0		120	21.0	2.5	blank	1.0	148.22363471984863	1.0000231266021729
23	128.66605877876282	pulse	0	t		21.0	2.5	blank	1.0	148.80707263946533	
23	129.0826439857483	movie	1		300	21.0	2.5	blank	1.0	149.2236578464508	2.4999539852142334
23	130.26608681678772	pulse	1	t		21.0	2.5	blank	1.0	150.40710067749023	
23	131.58259797096252	fix_post	2		12	21.0	2.5	blank	1.0	151.72361183166504	0.0999748706817627
24	131.6825728416443	fix_pre	0		120	22.0	2.5	/experiments/aot_oldvideos/S_yt-ieA3XwoSko4_98.mp4	0.0	151.8235867023468	1.0000009536743164
24	131.8660078048706	pulse	0	t		22.0	2.5	/experiments/aot_oldvideos/S_yt-ieA3XwoSko4_98.mp4	0.0	152.00702166557312	
24	132.6825737953186	movie	1		300	22.0	2.5	/experiments/aot_oldvideos/S_yt-ieA3XwoSko4_98.mp4	0.0	152.82358765602112	2.4996039867401123
24	133.4660348892212	pulse	1	t		22.0	2.5	/experiments/aot_oldvideos/S_yt-ieA3XwoSko4_98.mp4	0.0	153.6070487499237	
24	135.0656337738037	pulse	1	t		22.0	2.5	/experiments/aot_oldvideos/S_yt-ieA3XwoSko4_98.mp4	0.0	155.20664763450623	
24	135.18217778205872	fix_post	2		12	22.0	2.5	/experiments/aot_oldvideos/S_yt-ieA3XwoSko4_98.mp4	0.0	155.32319164276123	0.10037899017333984
25	135.28255677223206	fix_pre	0		120	23.0	2.5	blank	1.0	155.42357063293457	1.0000622272491455
25	136.2826189994812	movie	1		300	23.0	2.5	blank	1.0	156.42363286018372	2.4998419284820557
25	136.66606187820435	pulse	1	t		23.0	2.5	blank	1.0	156.80707573890686	
25	138.2660048007965	pulse	1	t		23.0	2.5	blank	1.0	158.40701866149902	
25	138.78246092796326	fix_post	2		12	23.0	2.5	blank	1.0	158.92347478866577	0.10008883476257324
26	138.88254976272583	fix_pre	0		119	24.0	2.5	/experiments/aot_oldvideos/S_yt-AuQ_WxaNy4Y_255.mp4	0.0	159.02356362342834	0.9916610717773438
26	139.8659999370575	pulse	0	t		24.0	2.5	/experiments/aot_oldvideos/S_yt-AuQ_WxaNy4Y_255.mp4	0.0	160.00701379776	
26	139.87421083450317	movie	1		301	24.0	2.5	/experiments/aot_oldvideos/S_yt-AuQ_WxaNy4Y_255.mp4	0.0	160.0152246952057	2.508357048034668
26	141.46610188484192	pulse	1	t		24.0	2.5	/experiments/aot_oldvideos/S_yt-AuQ_WxaNy4Y_255.mp4	0.0	161.60711574554443	
26	142.38256788253784	fix_post	2		12	24.0	2.5	/experiments/aot_oldvideos/S_yt-AuQ_WxaNy4Y_255.mp4	0.0	162.52358174324036	0.09991002082824707
27	142.4824779033661	fix_pre	0		120	25.0	2.5	/experiments/aot_oldvideos/S_yt-JTuopUgmg1w_101.mp4	0.0	162.6234917640686	1.000025987625122
27	143.06611680984497	pulse	0	t		25.0	2.5	/experiments/aot_oldvideos/S_yt-JTuopUgmg1w_101.mp4	0.0	163.20713067054749	
27	143.4825038909912	movie	1		300	25.0	2.5	/experiments/aot_oldvideos/S_yt-JTuopUgmg1w_101.mp4	0.0	163.62351775169373	2.4995288848876953
27	144.665953874588	pulse	1	t		25.0	2.5	/experiments/aot_oldvideos/S_yt-JTuopUgmg1w_101.mp4	0.0	164.80696773529053	
27	145.9820327758789	fix_post	2		12	25.0	2.5	/experiments/aot_oldvideos/S_yt-JTuopUgmg1w_101.mp4	0.0	166.12304663658142	0.10044407844543457
28	146.08247685432434	fix_pre	0		120	26.0	2.5	/experiments/aot_oldvideos/S_production_ID_5144823.mp4	0.0	166.22349071502686	1.0000081062316895
28	146.26607584953308	pulse	0	t		26.0	2.5	/experiments/aot_oldvideos/S_production_ID_5144823.mp4	0.0	166.4070897102356	
28	147.08248496055603	movie	1		159	26.0	2.5	/experiments/aot_oldvideos/S_production_ID_5144823.mp4	0.0	167.22349882125854	2.50003981590271
28	147.8660728931427	pulse	1	t		26.0	2.5	/experiments/aot_oldvideos/S_production_ID_5144823.mp4	0.0	168.00708675384521	
28	149.46686577796936	pulse	1	t		26.0	2.5	/experiments/aot_oldvideos/S_production_ID_5144823.mp4	0.0	169.60787963867188	
28	149.58252477645874	fix_post	2		12	26.0	2.5	/experiments/aot_oldvideos/S_production_ID_5144823.mp4	0.0	169.72353863716125	0.10010600090026855
29	149.682630777359	fix_pre	0		120	27.0	2.5	/experiments/aot_oldvideos/S_yt--koo4FOfZE0_86.mp4	0.0	169.82364463806152	0.9999620914459229
29	150.68259286880493	movie	1		300	27.0	2.5	/experiments/aot_oldvideos/S_yt--koo4FOfZE0_86.mp4	0.0	170.82360672950745	2.4999210834503174
29	151.0660879611969	pulse	1	t		27.0	2.5	/experiments/aot_oldvideos/S_yt--koo4FOfZE0_86.mp4	0.0	171.2071018218994	
29	152.66603899002075	pulse	1	t		27.0	2.5	/experiments/aot_oldvideos/S_yt--koo4FOfZE0_86.mp4	0.0	172.80705285072327	
29	153.18251395225525	fix_post	2		12	27.0	2.5	/experiments/aot_oldvideos/S_yt--koo4FOfZE0_86.mp4	0.0	173.32352781295776	0.09998893737792969
30	153.28250288963318	fix_pre	0		119	28.0	2.5	/experiments/aot_oldvideos/S_yt-PCSXJ5YB_AE_3.mp4	0.0	173.4235167503357	0.991771936416626
30	154.26604676246643	pulse	0	t		28.0	2.5	/experiments/aot_oldvideos/S_yt-PCSXJ5YB_AE_3.mp4	0.0	174.40706062316895	
30	154.2742748260498	movie	1		301	28.0	2.5	/experiments/aot_oldvideos/S_yt-PCSXJ5YB_AE_3.mp4	0.0	174.41528868675232	2.5082311630249023
30	155.86582493782043	pulse	1	t		28.0	2.5	/experiments/aot_oldvideos/S_yt-PCSXJ5YB_AE_3.mp4	0.0	176.00683879852295	
30	156.7825059890747	fix_post	2		12	28.0	2.5	/experiments/aot_oldvideos/S_yt-PCSXJ5YB_AE_3.mp4	0.0	176.92351984977722	0.10006189346313477
31	156.88256788253784	fix_pre	0		120	29.0	2.5	/experiments/aot_oldvideos/S_yt-K-iCphzt_RE_17.mp4	0.0	177.02358174324036	0.9999001026153564
31	157.46599888801575	pulse	0	t		29.0	2.5	/experiments/aot_oldvideos/S_yt-K-iCphzt_RE_17.mp4	0.0	177.60701274871826	
31	157.8824679851532	movie	1		300	29.0	2.5	/experiments/aot_oldvideos/S_yt-K-iCphzt_RE_17.mp4	0.0	178.0234818458557	2.4999728202819824
31	159.06580591201782	pulse	1	t		29.0	2.5	/experiments/aot_oldvideos/S_yt-K-iCphzt_RE_17.mp4	0.0	179.20681977272034	
31	160.38244080543518	fix_post	2		12	29.0	2.5	/experiments/aot_oldvideos/S_yt-K-iCphzt_RE_17.mp4	0.0	180.5234546661377	0.09999418258666992
32	160.48243498802185	fix_pre	0		120	30.0	2.5	blank	1.0	180.62344884872437	0.9999778270721436
32	160.6659209728241	pulse	0	t		30.0	2.5	blank	1.0	180.8069348335266	
32	161.482412815094	movie	1		300	30.0	2.5	blank	1.0	181.6234266757965	2.499983072280884
32	162.26587986946106	pulse	1	t		30.0	2.5	blank	1.0	182.40689373016357	
32	163.86584997177124	pulse	1	t		30.0	2.5	blank	1.0	184.00686383247375	
32	163.98239588737488	fix_post	2		12	30.0	2.5	blank	1.0	184.1234097480774	0.09994006156921387
33	164.0823359489441	fix_pre	0		120	31.0	2.5	blank	1.0	184.2233498096466	1.0001418590545654
33	165.08247780799866	movie	1		300	31.0	2.5	blank	1.0	185.22349166870117	2.4998881816864014
33	165.46586179733276	pulse	1	t		31.0	2.5	blank	1.0	185.60687565803528	
33	167.0658528804779	pulse	1	t		31.0	2.5	blank	1.0	187.20686674118042	
33	167.58236598968506	fix_post	2		12	31.0	2.5	blank	1.0	187.72337985038757	0.09999299049377441
34	167.68235898017883	fix_pre	0		119	32.0	2.5	/experiments/aot_oldvideos/S_yt-XA6RBioito4_18.mp4	0.0	187.82337284088135	0.9916257858276367
34	168.66584587097168	pulse	0	t		32.0	2.5	/experiments/aot_oldvideos/S_yt-XA6RBioito4_18.mp4	0.0	188.8068597316742	
34	168.67398476600647	movie	1		301	32.0	2.5	/experiments/aot_oldvideos/S_yt-XA6RBioito4_18.mp4	0.0	188.81499862670898	2.5084080696105957
34	170.2658748626709	pulse	1	t		32.0	2.5	/experiments/aot_oldvideos/S_yt-XA6RBioito4_18.mp4	0.0	190.4068887233734	
34	171.18239283561707	fix_post	2		12	32.0	2.5	/experiments/aot_oldvideos/S_yt-XA6RBioito4_18.mp4	0.0	191.32340669631958	0.0999760627746582
35	171.28236889839172	fix_pre	0		120	33.0	2.5	/experiments/aot_oldvideos/S_Nh81j72Utbs_5.mp4	0.0	191.42338275909424	0.9999980926513672
35	171.8658618927002	pulse	0	t		33.0	2.5	/experiments/aot_oldvideos/S_Nh81j72Utbs_5.mp4	0.0	192.0068757534027	
35	172.2823669910431	movie	1		300	33.0	2.5	/experiments/aot_oldvideos/S_Nh81j72Utbs_5.mp4	0.0	192.4233808517456	2.5000159740448
35	173.46595096588135	pulse	1	t		33.0	2.5	/experiments/aot_oldvideos/S_Nh81j72Utbs_5.mp4	0.0	193.60696482658386	
35	174.7823829650879	fix_post	2		12	33.0	2.5	/experiments/aot_oldvideos/S_Nh81j72Utbs_5.mp4	0.0	194.9233968257904	0.0998849868774414
36	174.88226795196533	fix_pre	0		120	34.0	2.5	blank	1.0	195.02328181266785	1.0000908374786377
36	175.06578087806702	pulse	0	t		34.0	2.5	blank	1.0	195.20679473876953	
36	175.88235878944397	movie	1		300	34.0	2.5	blank	1.0	196.02337265014648	2.4999351501464844
36	176.6657989025116	pulse	1	t		34.0	2.5	blank	1.0	196.8068127632141	
36	178.26585388183594	pulse	1	t		34.0	2.5	blank	1.0	198.40686774253845	
36	178.38229393959045	fix_post	2		12	34.0	2.5	blank	1.0	198.52330780029297	0.09998798370361328
37	178.48228192329407	fix_pre	0		120	35.0	2.5	/experiments/aot_oldvideos/S_ILSVRC2015_train_00219004.mp4	0.0	198.62329578399658	1.0000278949737549
37	179.48230981826782	movie	1		299	35.0	2.5	/experiments/aot_oldvideos/S_ILSVRC2015_train_00219004.mp4	0.0	199.62332367897034	2.499964952468872
37	179.86586594581604	pulse	1	t		35.0	2.5	/experiments/aot_oldvideos/S_ILSVRC2015_train_00219004.mp4	0.0	200.00687980651855	
37	181.46585297584534	pulse	1	t		35.0	2.5	/experiments/aot_oldvideos/S_ILSVRC2015_train_00219004.mp4	0.0	201.60686683654785	
37	181.9822747707367	fix_post	2		12	35.0	2.5	/experiments/aot_oldvideos/S_ILSVRC2015_train_00219004.mp4	0.0	202.1232886314392	0.09998106956481934
38	182.0822558403015	fix_pre	0		119	36.0	2.5	/experiments/aot_oldvideos/S_yt-bwSRV1Vr21s_435.mp4	0.0	202.22326970100403	0.9916529655456543
38	183.06584882736206	pulse	0	t		36.0	2.5	/experiments/aot_oldvideos/S_yt-bwSRV1Vr21s_435.mp4	0.0	203.20686268806458	
38	183.07390880584717	movie	1		301	36.0	2.5	/experiments/aot_oldvideos/S_yt-bwSRV1Vr21s_435.mp4	0.0	203.21492266654968	2.5084121227264404
38	184.66581988334656	pulse	1	t		36.0	2.5	/experiments/aot_oldvideos/S_yt-bwSRV1Vr21s_435.mp4	0.0	204.80683374404907	
38	185.5823209285736	fix_post	2		12	36.0	2.5	/experiments/aot_oldvideos/S_yt-bwSRV1Vr21s_435.mp4	0.0	205.72333478927612	0.10000300407409668
39	185.6823239326477	fix_pre	0		120	37.0	2.5	/experiments/aot_oldvideos/S_WCwb-DeQOSg_85.mp4	0.0	205.82333779335022	0.9999539852142334
39	186.2657608985901	pulse	0	t		37.0	2.5	/experiments/aot_oldvideos/S_WCwb-DeQOSg_85.mp4	0.0	206.4067747592926	
39	186.68227791786194	movie	1		300	37.0	2.5	/experiments/aot_oldvideos/S_WCwb-DeQOSg_85.mp4	0.0	206.82329177856445	2.5001039505004883
39	187.86578798294067	pulse	1	t		37.0	2.5	/experiments/aot_oldvideos/S_WCwb-DeQOSg_85.mp4	0.0	208.0068018436432	
39	189.18238186836243	fix_post	2		12	37.0	2.5	/experiments/aot_oldvideos/S_WCwb-DeQOSg_85.mp4	0.0	209.32339572906494	0.10009908676147461
40	189.2824809551239	fix_pre	0		120	38.0	2.5	/experiments/aot_oldvideos/S_yt-6mRpmfIvdew_1435.mp4	0.0	209.42349481582642	0.9998528957366943
40	189.46583676338196	pulse	0	t		38.0	2.5	/experiments/aot_oldvideos/S_yt-6mRpmfIvdew_1435.mp4	0.0	209.60685062408447	
40	190.2823338508606	movie	1		300	38.0	2.5	/experiments/aot_oldvideos/S_yt-6mRpmfIvdew_1435.mp4	0.0	210.4233477115631	2.500040054321289
40	191.06579780578613	pulse	1	t		38.0	2.5	/experiments/aot_oldvideos/S_yt-6mRpmfIvdew_1435.mp4	0.0	211.20681166648865	
40	192.66616487503052	pulse	1	t		38.0	2.5	/experiments/aot_oldvideos/S_yt-6mRpmfIvdew_1435.mp4	0.0	212.80717873573303	
40	192.78237390518188	fix_post	2		12	38.0	2.5	/experiments/aot_oldvideos/S_yt-6mRpmfIvdew_1435.mp4	0.0	212.9233877658844	0.09990787506103516
41	192.88228178024292	fix_pre	0		120	39.0	2.5	/experiments/aot_oldvideos/S_yt-GWlwb2QsxIA_48.mp4	0.0	213.02329564094543	0.9999589920043945
41	193.88224077224731	movie	1		298	39.0	2.5	/experiments/aot_oldvideos/S_yt-GWlwb2QsxIA_48.mp4	0.0	214.02325463294983	2.499603033065796
41	194.26582288742065	pulse	1	t		39.0	2.5	/experiments/aot_oldvideos/S_yt-GWlwb2QsxIA_48.mp4	0.0	214.40683674812317	
41	195.8657717704773	pulse	1	t		39.0	2.5	/experiments/aot_oldvideos/S_yt-GWlwb2QsxIA_48.mp4	0.0	216.0067856311798	
41	196.3818438053131	fix_post	2		12	39.0	2.5	/experiments/aot_oldvideos/S_yt-GWlwb2QsxIA_48.mp4	0.0	216.52285766601562	0.10038018226623535
42	196.48222398757935	fix_pre	0		119	40.0	2.5	/experiments/aot_oldvideos/S_yt-54kx8P3L1ns_6.mp4	0.0	216.62323784828186	0.9916229248046875
42	197.46580576896667	pulse	0	t		40.0	2.5	/experiments/aot_oldvideos/S_yt-54kx8P3L1ns_6.mp4	0.0	217.6068196296692	
42	197.47384691238403	movie	1		301	40.0	2.5	/experiments/aot_oldvideos/S_yt-54kx8P3L1ns_6.mp4	0.0	217.61486077308655	2.508373975753784
42	199.06586980819702	pulse	1	t		40.0	2.5	/experiments/aot_oldvideos/S_yt-54kx8P3L1ns_6.mp4	0.0	219.20688366889954	
42	199.98222088813782	fix_post	2		12	40.0	2.5	/experiments/aot_oldvideos/S_yt-54kx8P3L1ns_6.mp4	0.0	220.12323474884033	0.09998703002929688
43	200.08220791816711	fix_pre	0		120	41.0	2.5	/experiments/aot_oldvideos/S_production_ID_3712945.mp4	0.0	220.22322177886963	1.0000510215759277
43	200.66572093963623	pulse	0	t		41.0	2.5	/experiments/aot_oldvideos/S_production_ID_3712945.mp4	0.0	220.80673480033875	
43	201.08225893974304	movie	1		161	41.0	2.5	/experiments/aot_oldvideos/S_production_ID_3712945.mp4	0.0	221.22327280044556	2.4999380111694336
43	202.26582789421082	pulse	1	t		41.0	2.5	/experiments/aot_oldvideos/S_production_ID_3712945.mp4	0.0	222.40684175491333	
43	203.58219695091248	fix_post	2		12	41.0	2.5	/experiments/aot_oldvideos/S_production_ID_3712945.mp4	0.0	223.723210811615	0.10005688667297363
44	203.68225383758545	fix_pre	0		120	42.0	2.5	/experiments/aot_oldvideos/S_yt-MTo50ReVNmU_2.mp4	0.0	223.82326769828796	0.9999570846557617
44	203.86591577529907	pulse	0	t		42.0	2.5	/experiments/aot_oldvideos/S_yt-MTo50ReVNmU_2.mp4	0.0	224.0069296360016	
44	204.6822109222412	movie	1		300	42.0	2.5	/experiments/aot_oldvideos/S_yt-MTo50ReVNmU_2.mp4	0.0	224.82322478294373	2.499969959259033
44	205.4656858444214	pulse	1	t		42.0	2.5	/experiments/aot_oldvideos/S_yt-MTo50ReVNmU_2.mp4	0.0	225.6066997051239	
44	207.06614184379578	pulse	1	t		42.0	2.5	/experiments/aot_oldvideos/S_yt-MTo50ReVNmU_2.mp4	0.0	227.2071557044983	
44	207.18218088150024	fix_post	2		12	42.0	2.5	/experiments/aot_oldvideos/S_yt-MTo50ReVNmU_2.mp4	0.0	227.32319474220276	0.10004496574401855
45	207.28222584724426	fix_pre	0		120	43.0	2.5	/experiments/aot_oldvideos/S_yt-NZIhxK5NvWE_152.mp4	0.0	227.42323970794678	0.9996140003204346
45	208.2818398475647	movie	1		300	43.0	2.5	/experiments/aot_oldvideos/S_yt-NZIhxK5NvWE_152.mp4	0.0	228.4228537082672	2.500059127807617
45	208.66522884368896	pulse	1	t		43.0	2.5	/experiments/aot_oldvideos/S_yt-NZIhxK5NvWE_152.mp4	0.0	228.80624270439148	
45	210.2653157711029	pulse	1	t		43.0	2.5	/experiments/aot_oldvideos/S_yt-NZIhxK5NvWE_152.mp4	0.0	230.40632963180542	
45	210.78189897537231	fix_post	2		12	43.0	2.5	/experiments/aot_oldvideos/S_yt-NZIhxK5NvWE_152.mp4	0.0	230.92291283607483	0.1004328727722168
46	210.88233184814453	fix_pre	0		119	44.0	2.5	/experiments/aot_oldvideos/S_yt-EvKV7iY1_HM_193.mp4	0.0	231.02334570884705	0.9915249347686768
46	211.86601781845093	pulse	0	t		44.0	2.5	/experiments/aot_oldvideos/S_yt-EvKV7iY1_HM_193.mp4	0.0	232.00703167915344	
46	211.8738567829132	movie	1		301	44.0	2.5	/experiments/aot_oldvideos/S_yt-EvKV7iY1_HM_193.mp4	0.0	232.01487064361572	2.508305072784424
46	213.46573781967163	pulse	1	t		44.0	2.5	/experiments/aot_oldvideos/S_yt-EvKV7iY1_HM_193.mp4	0.0	233.60675168037415	
46	214.38216185569763	fix_post	2		12	44.0	2.5	/experiments/aot_oldvideos/S_yt-EvKV7iY1_HM_193.mp4	0.0	234.52317571640015	0.09998202323913574
47	214.48214387893677	fix_pre	0		120	45.0	2.5	/experiments/aot_oldvideos/S_yt-b7JAHOeiTqU_44.mp4	0.0	234.62315773963928	0.9995911121368408
47	215.06576991081238	pulse	0	t		45.0	2.5	/experiments/aot_oldvideos/S_yt-b7JAHOeiTqU_44.mp4	0.0	235.2067837715149	
47	215.4817349910736	movie	1		300	45.0	2.5	/experiments/aot_oldvideos/S_yt-b7JAHOeiTqU_44.mp4	0.0	235.62274885177612	2.500537872314453
47	216.66559386253357	pulse	1	t		45.0	2.5	/experiments/aot_oldvideos/S_yt-b7JAHOeiTqU_44.mp4	0.0	236.80660772323608	
47	217.98227286338806	fix_post	2		12	45.0	2.5	/experiments/aot_oldvideos/S_yt-b7JAHOeiTqU_44.mp4	0.0	238.12328672409058	0.099884033203125
48	218.0821568965912	fix_pre	0		120	46.0	2.5	/experiments/aot_oldvideos/S_ILSVRC2015_train_00569003.mp4	0.0	238.2231707572937	0.9999980926513672
48	218.2656638622284	pulse	0	t		46.0	2.5	/experiments/aot_oldvideos/S_ILSVRC2015_train_00569003.mp4	0.0	238.4066777229309	
48	219.08215498924255	movie	1		300	46.0	2.5	/experiments/aot_oldvideos/S_ILSVRC2015_train_00569003.mp4	0.0	239.22316884994507	2.499574899673462
48	219.865553855896	pulse	1	t		46.0	2.5	/experiments/aot_oldvideos/S_ILSVRC2015_train_00569003.mp4	0.0	240.0065677165985	
48	221.46552991867065	pulse	1	t		46.0	2.5	/experiments/aot_oldvideos/S_ILSVRC2015_train_00569003.mp4	0.0	241.60654377937317	
48	221.58172988891602	fix_post	2		12	46.0	2.5	/experiments/aot_oldvideos/S_ILSVRC2015_train_00569003.mp4	0.0	241.72274374961853	0.10036492347717285
49	221.6820948123932	fix_pre	0		120	47.0	2.5	/experiments/aot_oldvideos/S_yt-Jro_TRE8NUQ_234.mp4	0.0	241.8231086730957	1.0000600814819336
49	222.68215489387512	movie	1		300	47.0	2.5	/experiments/aot_oldvideos/S_yt-Jro_TRE8NUQ_234.mp4	0.0	242.82316875457764	2.49959397315979
49	223.06554579734802	pulse	1	t		47.0	2.5	/experiments/aot_oldvideos/S_yt-Jro_TRE8NUQ_234.mp4	0.0	243.20655965805054	
49	224.66558980941772	pulse	1	t		47.0	2.5	/experiments/aot_oldvideos/S_yt-Jro_TRE8NUQ_234.mp4	0.0	244.80660367012024	
49	225.1817488670349	fix_post	2		12	47.0	2.5	/experiments/aot_oldvideos/S_yt-Jro_TRE8NUQ_234.mp4	0.0	245.32276272773743	0.10037803649902344
50	225.28212690353394	fix_pre	0		119	48.0	2.5	/experiments/aot_oldvideos/S_yt-9EnchawJ3pA_90.mp4	0.0	245.42314076423645	0.9916119575500488
50	226.26554799079895	pulse	0	t		48.0	2.5	/experiments/aot_oldvideos/S_yt-9EnchawJ3pA_90.mp4	0.0	246.40656185150146	
50	226.27373886108398	movie	1		301	48.0	2.5	/experiments/aot_oldvideos/S_yt-9EnchawJ3pA_90.mp4	0.0	246.4147527217865	2.5079219341278076
50	227.8655879497528	pulse	1	t		48.0	2.5	/experiments/aot_oldvideos/S_yt-9EnchawJ3pA_90.mp4	0.0	248.00660181045532	
50	228.7816607952118	fix_post	2		12	48.0	2.5	/experiments/aot_oldvideos/S_yt-9EnchawJ3pA_90.mp4	0.0	248.9226746559143	0.10037517547607422
51	228.88203597068787	fix_pre	0		120	49.0	2.5	/experiments/aot_oldvideos/S_yt-xBwq6sHHF5M_21.mp4	0.0	249.02304983139038	1.0000908374786377
51	229.46558594703674	pulse	0	t		49.0	2.5	/experiments/aot_oldvideos/S_yt-xBwq6sHHF5M_21.mp4	0.0	249.60659980773926	
51	229.8821268081665	movie	1		300	49.0	2.5	/experiments/aot_oldvideos/S_yt-xBwq6sHHF5M_21.mp4	0.0	250.02314066886902	2.4999680519104004
51	231.06551885604858	pulse	1	t		49.0	2.5	/experiments/aot_oldvideos/S_yt-xBwq6sHHF5M_21.mp4	0.0	251.2065327167511	
51	232.3820948600769	fix_post	2		12	49.0	2.5	/experiments/aot_oldvideos/S_yt-xBwq6sHHF5M_21.mp4	0.0	252.52310872077942	0.0999300479888916
52	232.4820249080658	fix_pre	0		120	50.0	2.5	/experiments/aot_oldvideos/S_yt-aSEKRE_FNaI_62.mp4	0.0	252.6230387687683	0.9999868869781494
52	232.66557478904724	pulse	0	t		50.0	2.5	/experiments/aot_oldvideos/S_yt-aSEKRE_FNaI_62.mp4	0.0	252.80658864974976	
52	233.48201179504395	movie	1		300	50.0	2.5	/experiments/aot_oldvideos/S_yt-aSEKRE_FNaI_62.mp4	0.0	253.62302565574646	2.499814987182617
52	234.2654209136963	pulse	1	t		50.0	2.5	/experiments/aot_oldvideos/S_yt-aSEKRE_FNaI_62.mp4	0.0	254.4064347743988	
52	235.8659749031067	pulse	1	t		50.0	2.5	/experiments/aot_oldvideos/S_yt-aSEKRE_FNaI_62.mp4	0.0	256.0069887638092	
52	235.98182678222656	fix_post	2		12	50.0	2.5	/experiments/aot_oldvideos/S_yt-aSEKRE_FNaI_62.mp4	0.0	256.1228406429291	0.1002190113067627
53	236.08204579353333	fix_pre	0		120	51.0	2.5	/experiments/aot_oldvideos/S_yt-c-H45QS0CF4_147.mp4	0.0	256.22305965423584	1.0000450611114502
53	237.08209085464478	movie	1		299	51.0	2.5	/experiments/aot_oldvideos/S_yt-c-H45QS0CF4_147.mp4	0.0	257.2231047153473	2.5000030994415283
53	237.4655179977417	pulse	1	t		51.0	2.5	/experiments/aot_oldvideos/S_yt-c-H45QS0CF4_147.mp4	0.0	257.6065318584442	
53	239.06555485725403	pulse	1	t		51.0	2.5	/experiments/aot_oldvideos/S_yt-c-H45QS0CF4_147.mp4	0.0	259.20656871795654	
53	239.5820939540863	fix_post	2		12	51.0	2.5	/experiments/aot_oldvideos/S_yt-c-H45QS0CF4_147.mp4	0.0	259.7231078147888	0.10002803802490234
54	239.6821219921112	fix_pre	0		119	52.0	2.5	/experiments/aot_oldvideos/S_yt-6vkiJedss6g_5.mp4	0.0	259.8231358528137	0.9916179180145264
54	240.66556191444397	pulse	0	t		52.0	2.5	/experiments/aot_oldvideos/S_yt-6vkiJedss6g_5.mp4	0.0	260.8065757751465	
54	240.67373991012573	movie	1		301	52.0	2.5	/experiments/aot_oldvideos/S_yt-6vkiJedss6g_5.mp4	0.0	260.81475377082825	2.5082879066467285
54	242.2656638622284	pulse	1	t		52.0	2.5	/experiments/aot_oldvideos/S_yt-6vkiJedss6g_5.mp4	0.0	262.4066777229309	
54	243.18202781677246	fix_post	2		12	52.0	2.5	/experiments/aot_oldvideos/S_yt-6vkiJedss6g_5.mp4	0.0	263.323041677475	0.10008811950683594
55	243.2821159362793	fix_pre	0		120	53.0	2.5	/experiments/aot_oldvideos/S_yt-deiWoIfK6vg_44.mp4	0.0	263.4231297969818	0.9999220371246338
55	243.86552691459656	pulse	0	t		53.0	2.5	/experiments/aot_oldvideos/S_yt-deiWoIfK6vg_44.mp4	0.0	264.0065407752991	
55	244.28203797340393	movie	1		300	53.0	2.5	/experiments/aot_oldvideos/S_yt-deiWoIfK6vg_44.mp4	0.0	264.42305183410645	2.4999899864196777
55	245.46544790267944	pulse	1	t		53.0	2.5	/experiments/aot_oldvideos/S_yt-deiWoIfK6vg_44.mp4	0.0	265.60646176338196	
55	246.7820279598236	fix_post	2		12	53.0	2.5	/experiments/aot_oldvideos/S_yt-deiWoIfK6vg_44.mp4	0.0	266.9230418205261	0.09996891021728516
56	246.8819968700409	fix_pre	0		120	54.0	2.5	blank	1.0	267.0230107307434	1.0000529289245605
56	247.06557083129883	pulse	0	t		54.0	2.5	blank	1.0	267.20658469200134	
56	247.88204979896545	movie	1		300	54.0	2.5	blank	1.0	268.02306365966797	2.4999921321868896
56	248.66552996635437	pulse	1	t		54.0	2.5	blank	1.0	268.8065438270569	
56	250.26558589935303	pulse	1	t		54.0	2.5	blank	1.0	270.40659976005554	
56	250.38204193115234	fix_post	2		12	54.0	2.5	blank	1.0	270.52305579185486	0.09998202323913574
57	250.48202395439148	fix_pre	0		120	55.0	2.5	blank	1.0	270.623037815094	1.0000460147857666
57	251.48206996917725	movie	1		300	55.0	2.5	blank	1.0	271.62308382987976	2.499898910522461
57	251.86547780036926	pulse	1	t		55.0	2.5	blank	1.0	272.0064916610718	
57	253.46547079086304	pulse	1	t		55.0	2.5	blank	1.0	273.60648465156555	
57	253.9819688796997	fix_post	2		12	55.0	2.5	blank	1.0	274.1229827404022	0.10002303123474121
58	254.08199191093445	fix_pre	0		119	56.0	2.5	/experiments/aot_oldvideos/S_yt-Wr5vs_0Iypw_161.mp4	0.0	274.22300577163696	0.9916439056396484
58	255.06547594070435	pulse	0	t		56.0	2.5	/experiments/aot_oldvideos/S_yt-Wr5vs_0Iypw_161.mp4	0.0	275.20648980140686	
58	255.0736358165741	movie	1		301	56.0	2.5	/experiments/aot_oldvideos/S_yt-Wr5vs_0Iypw_161.mp4	0.0	275.2146496772766	2.5083401203155518
58	256.6655237674713	pulse	1	t		56.0	2.5	/experiments/aot_oldvideos/S_yt-Wr5vs_0Iypw_161.mp4	0.0	276.8065376281738	
58	257.58197593688965	fix_post	2		12	56.0	2.5	/experiments/aot_oldvideos/S_yt-Wr5vs_0Iypw_161.mp4	0.0	277.72298979759216	0.09999990463256836
59	257.6819758415222	fix_pre	0		120	57.0	2.5	/experiments/aot_oldvideos/S_Pexels_Videos_2786546.mp4	0.0	277.82298970222473	1.0000519752502441
59	258.2654798030853	pulse	0	t		57.0	2.5	/experiments/aot_oldvideos/S_Pexels_Videos_2786546.mp4	0.0	278.40649366378784	
59	258.68202781677246	movie	1		163	57.0	2.5	/experiments/aot_oldvideos/S_Pexels_Videos_2786546.mp4	0.0	278.823041677475	2.499845027923584
59	259.86545276641846	pulse	1	t		57.0	2.5	/experiments/aot_oldvideos/S_Pexels_Videos_2786546.mp4	0.0	280.006466627121	
59	261.18187284469604	fix_post	2		12	57.0	2.5	/experiments/aot_oldvideos/S_Pexels_Videos_2786546.mp4	0.0	281.32288670539856	0.10004401206970215
60	261.28191685676575	fix_pre	0		120	58.0	2.5	/experiments/aot_oldvideos/S_yt-O6FS0xnF0CU_106.mp4	0.0	281.42293071746826	1.0000030994415283
60	261.46539092063904	pulse	0	t		58.0	2.5	/experiments/aot_oldvideos/S_yt-O6FS0xnF0CU_106.mp4	0.0	281.60640478134155	
60	262.2819199562073	movie	1		300	58.0	2.5	/experiments/aot_oldvideos/S_yt-O6FS0xnF0CU_106.mp4	0.0	282.4229338169098	2.499614953994751
60	263.0654709339142	pulse	1	t		58.0	2.5	/experiments/aot_oldvideos/S_yt-O6FS0xnF0CU_106.mp4	0.0	283.2064847946167	
60	264.6650218963623	pulse	1	t		58.0	2.5	/experiments/aot_oldvideos/S_yt-O6FS0xnF0CU_106.mp4	0.0	284.8060357570648	
60	264.781534910202	fix_post	2		12	58.0	2.5	/experiments/aot_oldvideos/S_yt-O6FS0xnF0CU_106.mp4	0.0	284.92254877090454	0.09995293617248535
61	264.8814878463745	fix_pre	0		120	59.0	2.5	blank	1.0	285.022501707077	1.0001521110534668
61	265.881639957428	movie	1		300	59.0	2.5	blank	1.0	286.0226538181305	2.500303030014038
61	266.2652189731598	pulse	1	t		59.0	2.5	blank	1.0	286.4062328338623	
61	267.86522793769836	pulse	1	t		59.0	2.5	blank	1.0	288.0062417984009	
61	268.381942987442	fix_post	2		12	59.0	2.5	blank	1.0	288.52295684814453	0.10005378723144531
62	268.48199677467346	fix_pre	0		119	60.0	2.5	/experiments/aot_oldvideos/S_ILSVRC2015_train_00411000.mp4	0.0	288.623010635376	0.9915280342102051
62	269.4653379917145	pulse	0	t		60.0	2.5	/experiments/aot_oldvideos/S_ILSVRC2015_train_00411000.mp4	0.0	289.606351852417	
62	269.47352480888367	movie	1		301	60.0	2.5	/experiments/aot_oldvideos/S_ILSVRC2015_train_00411000.mp4	0.0	289.6145386695862	2.5083091259002686
62	271.0653808116913	pulse	1	t		60.0	2.5	/experiments/aot_oldvideos/S_ILSVRC2015_train_00411000.mp4	0.0	291.2063946723938	
62	271.98183393478394	fix_post	2		12	60.0	2.5	/experiments/aot_oldvideos/S_ILSVRC2015_train_00411000.mp4	0.0	292.12284779548645	0.10003995895385742
63	272.0818738937378	fix_pre	0		120	61.0	2.5	/experiments/aot_oldvideos/S_yt-aiWUhl8MCto_71.mp4	0.0	292.2228877544403	0.9999849796295166
63	272.66541481018066	pulse	0	t		61.0	2.5	/experiments/aot_oldvideos/S_yt-aiWUhl8MCto_71.mp4	0.0	292.8064286708832	
63	273.0818588733673	movie	1		300	61.0	2.5	/experiments/aot_oldvideos/S_yt-aiWUhl8MCto_71.mp4	0.0	293.2228727340698	2.4999890327453613
63	274.26528882980347	pulse	1	t		61.0	2.5	/experiments/aot_oldvideos/S_yt-aiWUhl8MCto_71.mp4	0.0	294.406302690506	
63	275.58184790611267	fix_post	2		12	61.0	2.5	/experiments/aot_oldvideos/S_yt-aiWUhl8MCto_71.mp4	0.0	295.7228617668152	0.09999489784240723
64	275.6818428039551	fix_pre	0		120	62.0	2.5	/experiments/aot_oldvideos/S_pexels-kelly-lacy-6756531.mp4	0.0	295.8228566646576	1.000028133392334
64	275.8653869628906	pulse	0	t		62.0	2.5	/experiments/aot_oldvideos/S_pexels-kelly-lacy-6756531.mp4	0.0	296.00640082359314	
64	276.6818709373474	movie	1		167	62.0	2.5	/experiments/aot_oldvideos/S_pexels-kelly-lacy-6756531.mp4	0.0	296.8228847980499	2.49993896484375
64	277.4652798175812	pulse	1	t		62.0	2.5	/experiments/aot_oldvideos/S_pexels-kelly-lacy-6756531.mp4	0.0	297.6062936782837	
64	279.0652928352356	pulse	1	t		62.0	2.5	/experiments/aot_oldvideos/S_pexels-kelly-lacy-6756531.mp4	0.0	299.2063066959381	
64	279.18180990219116	fix_post	2		12	62.0	2.5	/experiments/aot_oldvideos/S_pexels-kelly-lacy-6756531.mp4	0.0	299.3228237628937	0.10000491142272949
65	279.2818148136139	fix_pre	0		120	63.0	2.5	/experiments/aot_oldvideos/S_production_ID_4325516.mp4	0.0	299.4228286743164	0.9999980926513672
65	280.28181290626526	movie	1		163	63.0	2.5	/experiments/aot_oldvideos/S_production_ID_4325516.mp4	0.0	300.4228267669678	2.5000040531158447
65	280.6653199195862	pulse	1	t		63.0	2.5	/experiments/aot_oldvideos/S_production_ID_4325516.mp4	0.0	300.8063337802887	
65	282.2653148174286	pulse	1	t		63.0	2.5	/experiments/aot_oldvideos/S_production_ID_4325516.mp4	0.0	302.4063286781311	
65	282.7818169593811	fix_post	2		12	63.0	2.5	/experiments/aot_oldvideos/S_production_ID_4325516.mp4	0.0	302.9228308200836	0.09995698928833008
66	282.88177394866943	fix_pre	0		119	64.0	2.5	/experiments/aot_oldvideos/S_xq822dX6DDM_1.mp4	0.0	303.02278780937195	0.9916439056396484
66	283.86520981788635	pulse	0	t		64.0	2.5	/experiments/aot_oldvideos/S_xq822dX6DDM_1.mp4	0.0	304.00622367858887	
66	283.8734178543091	movie	1		301	64.0	2.5	/experiments/aot_oldvideos/S_xq822dX6DDM_1.mp4	0.0	304.0144317150116	2.5083980560302734
66	285.46523690223694	pulse	1	t		64.0	2.5	/experiments/aot_oldvideos/S_xq822dX6DDM_1.mp4	0.0	305.60625076293945	
66	286.38181591033936	fix_post	2		12	64.0	2.5	/experiments/aot_oldvideos/S_xq822dX6DDM_1.mp4	0.0	306.52282977104187	0.09998703002929688
67	286.48180294036865	fix_pre	0		120	65.0	2.5	/experiments/aot_oldvideos/S_yt-RO4mhuXBVrY_67.mp4	0.0	306.62281680107117	0.9999749660491943
67	287.0652868747711	pulse	0	t		65.0	2.5	/experiments/aot_oldvideos/S_yt-RO4mhuXBVrY_67.mp4	0.0	307.20630073547363	
67	287.48177790641785	movie	1		300	65.0	2.5	/experiments/aot_oldvideos/S_yt-RO4mhuXBVrY_67.mp4	0.0	307.62279176712036	2.500164031982422
67	288.6652958393097	pulse	1	t		65.0	2.5	/experiments/aot_oldvideos/S_yt-RO4mhuXBVrY_67.mp4	0.0	308.8063097000122	
67	289.98194193840027	fix_post	2		12	65.0	2.5	/experiments/aot_oldvideos/S_yt-RO4mhuXBVrY_67.mp4	0.0	310.1229557991028	0.09985089302062988
68	290.0817928314209	fix_pre	0		120	66.0	2.5	/experiments/aot_oldvideos/S_ILSVRC2015_train_00369004.mp4	0.0	310.2228066921234	1.0000090599060059
68	290.2653088569641	pulse	0	t		66.0	2.5	/experiments/aot_oldvideos/S_ILSVRC2015_train_00369004.mp4	0.0	310.4063227176666	
68	291.0818018913269	movie	1		300	66.0	2.5	/experiments/aot_oldvideos/S_ILSVRC2015_train_00369004.mp4	0.0	311.2228157520294	2.49993896484375
68	291.8652288913727	pulse	1	t		66.0	2.5	/experiments/aot_oldvideos/S_ILSVRC2015_train_00369004.mp4	0.0	312.0062427520752	
68	293.46610498428345	pulse	1	t		66.0	2.5	/experiments/aot_oldvideos/S_ILSVRC2015_train_00369004.mp4	0.0	313.60711884498596	
68	293.58174085617065	fix_post	2		12	66.0	2.5	/experiments/aot_oldvideos/S_ILSVRC2015_train_00369004.mp4	0.0	313.72275471687317	0.10003209114074707
69	293.6817729473114	fix_pre	0		120	67.0	2.5	/experiments/aot_oldvideos/S_yt-AiXq1oDrEXI_123.mp4	0.0	313.8227868080139	1.0000338554382324
69	294.68180680274963	movie	1		300	67.0	2.5	/experiments/aot_oldvideos/S_yt-AiXq1oDrEXI_123.mp4	0.0	314.82282066345215	2.4999899864196777
69	295.0652937889099	pulse	1	t		67.0	2.5	/experiments/aot_oldvideos/S_yt-AiXq1oDrEXI_123.mp4	0.0	315.2063076496124	
69	296.6652708053589	pulse	1	t		67.0	2.5	/experiments/aot_oldvideos/S_yt-AiXq1oDrEXI_123.mp4	0.0	316.8062846660614	
69	297.1817967891693	fix_post	2		12	67.0	2.5	/experiments/aot_oldvideos/S_yt-AiXq1oDrEXI_123.mp4	0.0	317.3228106498718	0.100006103515625
70	297.28180289268494	fix_pre	0		119	68.0	2.5	blank	1.0	317.42281675338745	0.9916329383850098
70	298.26523995399475	pulse	0	t		68.0	2.5	blank	1.0	318.40625381469727	
70	298.27343583106995	movie	1		301	68.0	2.5	blank	1.0	318.41444969177246	2.50823712348938
70	299.86515188217163	pulse	1	t		68.0	2.5	blank	1.0	320.00616574287415	
70	300.7816729545593	fix_post	2		12	68.0	2.5	blank	1.0	320.92268681526184	0.10010290145874023
71	300.88177585601807	fix_pre	0		120	69.0	2.5	/experiments/aot_oldvideos/S_yt-hTkrnNr39dk_202.mp4	0.0	321.0227897167206	0.9994750022888184
71	301.4651927947998	pulse	0	t		69.0	2.5	/experiments/aot_oldvideos/S_yt-hTkrnNr39dk_202.mp4	0.0	321.6062066555023	
71	301.8812508583069	movie	1		300	69.0	2.5	/experiments/aot_oldvideos/S_yt-hTkrnNr39dk_202.mp4	0.0	322.0222647190094	2.500586986541748
71	303.06517481803894	pulse	1	t		69.0	2.5	/experiments/aot_oldvideos/S_yt-hTkrnNr39dk_202.mp4	0.0	323.20618867874146	
71	304.38183784484863	fix_post	2		12	69.0	2.5	/experiments/aot_oldvideos/S_yt-hTkrnNr39dk_202.mp4	0.0	324.52285170555115	0.0999290943145752
72	304.4817669391632	fix_pre	0		120	70.0	2.5	/experiments/aot_oldvideos/S_yt-QqSceHxY3d0_356.mp4	0.0	324.6227807998657	0.9999940395355225
72	304.6651859283447	pulse	0	t		70.0	2.5	/experiments/aot_oldvideos/S_yt-QqSceHxY3d0_356.mp4	0.0	324.80619978904724	
72	305.48176097869873	movie	1		298	70.0	2.5	/experiments/aot_oldvideos/S_yt-QqSceHxY3d0_356.mp4	0.0	325.62277483940125	2.4999589920043945
72	306.265273809433	pulse	1	t		70.0	2.5	/experiments/aot_oldvideos/S_yt-QqSceHxY3d0_356.mp4	0.0	326.4062876701355	
72	307.8656919002533	pulse	1	t		70.0	2.5	/experiments/aot_oldvideos/S_yt-QqSceHxY3d0_356.mp4	0.0	328.0067057609558	
72	307.9817199707031	fix_post	2		12	70.0	2.5	/experiments/aot_oldvideos/S_yt-QqSceHxY3d0_356.mp4	0.0	328.12273383140564	0.10004401206970215
73	308.0817639827728	fix_pre	0		120	71.0	2.5	/experiments/aot_oldvideos/S_yt-oxUpc8I5wWQ_238.mp4	0.0	328.22277784347534	0.9999699592590332
73	309.08173394203186	movie	1		300	71.0	2.5	/experiments/aot_oldvideos/S_yt-oxUpc8I5wWQ_238.mp4	0.0	329.2227478027344	2.4999959468841553
73	309.4651098251343	pulse	1	t		71.0	2.5	/experiments/aot_oldvideos/S_yt-oxUpc8I5wWQ_238.mp4	0.0	329.6061236858368	
73	311.0652108192444	pulse	1	t		71.0	2.5	/experiments/aot_oldvideos/S_yt-oxUpc8I5wWQ_238.mp4	0.0	331.2062246799469	
73	311.581729888916	fix_post	2		12	71.0	2.5	/experiments/aot_oldvideos/S_yt-oxUpc8I5wWQ_238.mp4	0.0	331.72274374961853	0.09998202323913574
74	311.68171191215515	fix_pre	0		119	72.0	2.5	/experiments/aot_oldvideos/S_yt-TxU1H5A6BaQ_52.mp4	0.0	331.82272577285767	0.9916300773620605
74	312.6652719974518	pulse	0	t		72.0	2.5	/experiments/aot_oldvideos/S_yt-TxU1H5A6BaQ_52.mp4	0.0	332.8062858581543	
74	312.6733419895172	movie	1		301	72.0	2.5	/experiments/aot_oldvideos/S_yt-TxU1H5A6BaQ_52.mp4	0.0	332.8143558502197	2.5082709789276123
74	314.265261888504	pulse	1	t		72.0	2.5	/experiments/aot_oldvideos/S_yt-TxU1H5A6BaQ_52.mp4	0.0	334.40627574920654	
74	315.1816129684448	fix_post	2		12	72.0	2.5	/experiments/aot_oldvideos/S_yt-TxU1H5A6BaQ_52.mp4	0.0	335.32262682914734	0.10021591186523438
75	315.28182888031006	fix_pre	0		120	73.0	2.5	/experiments/aot_oldvideos/S_yt-LB9LoYfH_EA_15.mp4	0.0	335.4228427410126	0.9998838901519775
75	315.86508679389954	pulse	0	t		73.0	2.5	/experiments/aot_oldvideos/S_yt-LB9LoYfH_EA_15.mp4	0.0	336.00610065460205	
75	316.28171277046204	movie	1		300	73.0	2.5	/experiments/aot_oldvideos/S_yt-LB9LoYfH_EA_15.mp4	0.0	336.42272663116455	2.499561071395874
75	317.4652359485626	pulse	1	t		73.0	2.5	/experiments/aot_oldvideos/S_yt-LB9LoYfH_EA_15.mp4	0.0	337.60624980926514	
75	318.7812738418579	fix_post	2		12	73.0	2.5	/experiments/aot_oldvideos/S_yt-LB9LoYfH_EA_15.mp4	0.0	338.9222877025604	0.1003730297088623
76	318.8816468715668	fix_pre	0		120	74.0	2.5	/experiments/aot_oldvideos/S_yt-Fm97IY0Z2LU_110.mp4	0.0	339.0226607322693	1.0000181198120117
76	319.0651288032532	pulse	0	t		74.0	2.5	/experiments/aot_oldvideos/S_yt-Fm97IY0Z2LU_110.mp4	0.0	339.2061426639557	
76	319.8816649913788	movie	1		300	74.0	2.5	/experiments/aot_oldvideos/S_yt-Fm97IY0Z2LU_110.mp4	0.0	340.0226788520813	2.499746799468994
76	320.66464495658875	pulse	1	t		74.0	2.5	/experiments/aot_oldvideos/S_yt-Fm97IY0Z2LU_110.mp4	0.0	340.80565881729126	
76	322.2656919956207	pulse	1	t		74.0	2.5	/experiments/aot_oldvideos/S_yt-Fm97IY0Z2LU_110.mp4	0.0	342.40670585632324	
76	322.3814117908478	fix_post	2		12	74.0	2.5	/experiments/aot_oldvideos/S_yt-Fm97IY0Z2LU_110.mp4	0.0	342.5224256515503	0.1003420352935791
77	322.48175382614136	fix_pre	0		120	75.0	2.5	blank	1.0	342.6227676868439	0.9997279644012451
77	323.4814817905426	movie	1		300	75.0	2.5	blank	1.0	343.6224956512451	2.500164031982422
77	323.8650758266449	pulse	1	t		75.0	2.5	blank	1.0	344.0060896873474	
77	325.46519589424133	pulse	1	t		75.0	2.5	blank	1.0	345.60620975494385	
77	325.981645822525	fix_post	2		12	75.0	2.5	blank	1.0	346.12265968322754	0.09997415542602539
78	326.08161997795105	fix_pre	0		119	76.0	2.5	blank	1.0	346.22263383865356	0.9916479587554932
78	327.06518483161926	pulse	0	t		76.0	2.5	blank	1.0	347.2061986923218	
78	327.07326793670654	movie	1		301	76.0	2.5	blank	1.0	347.21428179740906	2.508275032043457
78	328.6650538444519	pulse	1	t		76.0	2.5	blank	1.0	348.8060677051544	
78	329.58154296875	fix_post	2		12	76.0	2.5	blank	1.0	349.7225568294525	0.09997987747192383
79	329.6815228462219	fix_pre	0		120	77.0	2.5	blank	1.0	349.82253670692444	1.0000159740447998
79	330.2650649547577	pulse	0	t		77.0	2.5	blank	1.0	350.4060788154602	
79	330.6815388202667	movie	1		300	77.0	2.5	blank	1.0	350.82255268096924	2.4999990463256836
79	331.86503195762634	pulse	1	t		77.0	2.5	blank	1.0	352.00604581832886	
79	333.1815378665924	fix_post	2		12	77.0	2.5	blank	1.0	353.3225517272949	0.09998798370361328
80	333.281525850296	fix_pre	0		120	78.0	2.5	/experiments/aot_oldvideos/S_ILSVRC2015_train_00165008.mp4	0.0	353.42253971099854	0.9997010231018066
80	333.46507477760315	pulse	0	t		78.0	2.5	/experiments/aot_oldvideos/S_ILSVRC2015_train_00165008.mp4	0.0	353.60608863830566	
80	334.2812268733978	movie	1		299	78.0	2.5	/experiments/aot_oldvideos/S_ILSVRC2015_train_00165008.mp4	0.0	354.42224073410034	2.5002739429473877
80	335.06500792503357	pulse	1	t		78.0	2.5	/experiments/aot_oldvideos/S_ILSVRC2015_train_00165008.mp4	0.0	355.2060217857361	
80	336.6676239967346	pulse	1	t		78.0	2.5	/experiments/aot_oldvideos/S_ILSVRC2015_train_00165008.mp4	0.0	356.80863785743713	
80	336.7815008163452	fix_post	2		12	78.0	2.5	/experiments/aot_oldvideos/S_ILSVRC2015_train_00165008.mp4	0.0	356.92251467704773	0.10007810592651367
81	336.88157892227173	fix_pre	0		120	79.0	2.5	blank	1.0	357.02259278297424	0.9999270439147949
81	337.8815059661865	movie	1		300	79.0	2.5	blank	1.0	358.02251982688904	2.500082015991211
81	338.2649369239807	pulse	1	t		79.0	2.5	blank	1.0	358.4059507846832	
81	339.86493587493896	pulse	1	t		79.0	2.5	blank	1.0	360.0059497356415	
81	340.38158798217773	fix_post	2		12	79.0	2.5	blank	1.0	360.52260184288025	0.0998988151550293
82	340.48148679733276	fix_pre	0		119	80.0	2.5	/experiments/aot_oldvideos/S_yt--OkafQ5VFHs_51.mp4	0.0	360.6225006580353	0.9916989803314209
82	341.46525478363037	pulse	0	t		80.0	2.5	/experiments/aot_oldvideos/S_yt--OkafQ5VFHs_51.mp4	0.0	361.6062686443329	
82	341.4731857776642	movie	1		301	80.0	2.5	/experiments/aot_oldvideos/S_yt--OkafQ5VFHs_51.mp4	0.0	361.6141996383667	2.5082790851593018
82	343.06507682800293	pulse	1	t		80.0	2.5	/experiments/aot_oldvideos/S_yt--OkafQ5VFHs_51.mp4	0.0	363.20609068870544	
82	343.9814648628235	fix_post	2		12	80.0	2.5	/experiments/aot_oldvideos/S_yt--OkafQ5VFHs_51.mp4	0.0	364.122478723526	0.1000819206237793
83	344.08154678344727	fix_pre	0		120	81.0	2.5	/experiments/aot_oldvideos/S_yt-yQrDeFlFmfM_138.mp4	0.0	364.2225606441498	0.9999210834503174
83	344.6650948524475	pulse	0	t		81.0	2.5	/experiments/aot_oldvideos/S_yt-yQrDeFlFmfM_138.mp4	0.0	364.80610871315	
83	345.0814678668976	movie	1		299	81.0	2.5	/experiments/aot_oldvideos/S_yt-yQrDeFlFmfM_138.mp4	0.0	365.2224817276001	2.500091075897217
83	346.2650828361511	pulse	1	t		81.0	2.5	/experiments/aot_oldvideos/S_yt-yQrDeFlFmfM_138.mp4	0.0	366.40609669685364	
83	347.5815589427948	fix_post	2		12	81.0	2.5	/experiments/aot_oldvideos/S_yt-yQrDeFlFmfM_138.mp4	0.0	367.7225728034973	0.0999000072479248
84	347.6814589500427	fix_pre	0		120	82.0	2.5	blank	1.0	367.82247281074524	1.0000929832458496
84	347.86491680145264	pulse	0	t		82.0	2.5	blank	1.0	368.00593066215515	
84	348.6815519332886	movie	1		300	82.0	2.5	blank	1.0	368.8225657939911	2.4999918937683105
84	349.4648928642273	pulse	1	t		82.0	2.5	blank	1.0	369.6059067249298	
84	351.06492495536804	pulse	1	t		82.0	2.5	blank	1.0	371.20593881607056	
84	351.1815438270569	fix_post	2		12	82.0	2.5	blank	1.0	371.3225576877594	0.0999290943145752
85	351.28147292137146	fix_pre	0		120	83.0	2.5	blank	1.0	371.422486782074	1.000053882598877
85	352.28152680397034	movie	1		300	83.0	2.5	blank	1.0	372.42254066467285	2.5000391006469727
85	352.66493797302246	pulse	1	t		83.0	2.5	blank	1.0	372.805951833725	
85	354.2648379802704	pulse	1	t		83.0	2.5	blank	1.0	374.4058518409729	
85	354.7815659046173	fix_post	2		12	83.0	2.5	blank	1.0	374.9225797653198	0.09993386268615723
86	354.88149976730347	fix_pre	0		119	84.0	2.5	/experiments/aot_oldvideos/S_yt-qsyDLtXcyHc_8.mp4	0.0	375.022513628006	0.9917421340942383
86	355.8649468421936	pulse	0	t		84.0	2.5	/experiments/aot_oldvideos/S_yt-qsyDLtXcyHc_8.mp4	0.0	376.0059607028961	
86	355.8732419013977	movie	1		301	84.0	2.5	/experiments/aot_oldvideos/S_yt-qsyDLtXcyHc_8.mp4	0.0	376.0142557621002	2.5083000659942627
86	357.46496176719666	pulse	1	t		84.0	2.5	/experiments/aot_oldvideos/S_yt-qsyDLtXcyHc_8.mp4	0.0	377.60597562789917	
86	358.38154196739197	fix_post	2		12	84.0	2.5	/experiments/aot_oldvideos/S_yt-qsyDLtXcyHc_8.mp4	0.0	378.5225558280945	0.09987282752990723
87	358.4814147949219	fix_pre	0		120	85.0	2.5	/experiments/aot_oldvideos/S_production_ID_3967181.mp4	0.0	378.6224286556244	1.0002741813659668
87	359.06490087509155	pulse	0	t		85.0	2.5	/experiments/aot_oldvideos/S_production_ID_3967181.mp4	0.0	379.20591473579407	
87	359.48168897628784	movie	1		168	85.0	2.5	/experiments/aot_oldvideos/S_production_ID_3967181.mp4	0.0	379.62270283699036	2.499783992767334
87	360.664999961853	pulse	1	t		85.0	2.5	/experiments/aot_oldvideos/S_production_ID_3967181.mp4	0.0	380.80601382255554	
87	361.9814729690552	fix_post	2		12	85.0	2.5	/experiments/aot_oldvideos/S_production_ID_3967181.mp4	0.0	382.1224868297577	0.09992384910583496
88	362.081396818161	fix_pre	0		120	86.0	2.5	/experiments/aot_oldvideos/S_yt-PaxmJhMoP3w_87.mp4	0.0	382.2224106788635	0.999953031539917
88	362.26489996910095	pulse	0	t		86.0	2.5	/experiments/aot_oldvideos/S_yt-PaxmJhMoP3w_87.mp4	0.0	382.40591382980347	
88	363.0813498497009	movie	1		300	86.0	2.5	/experiments/aot_oldvideos/S_yt-PaxmJhMoP3w_87.mp4	0.0	383.22236371040344	2.500091075897217
88	363.8649389743805	pulse	1	t		86.0	2.5	/experiments/aot_oldvideos/S_yt-PaxmJhMoP3w_87.mp4	0.0	384.005952835083	
88	365.465313911438	pulse	1	t		86.0	2.5	/experiments/aot_oldvideos/S_yt-PaxmJhMoP3w_87.mp4	0.0	385.6063277721405	
88	365.58144092559814	fix_post	2		12	86.0	2.5	/experiments/aot_oldvideos/S_yt-PaxmJhMoP3w_87.mp4	0.0	385.72245478630066	0.09996700286865234
89	365.6814079284668	fix_pre	0		120	87.0	2.5	/experiments/aot_oldvideos/S_yt-iO0efV_PV-k_102.mp4	0.0	385.8224217891693	0.9999878406524658
89	366.68139576911926	movie	1		300	87.0	2.5	/experiments/aot_oldvideos/S_yt-iO0efV_PV-k_102.mp4	0.0	386.8224096298218	2.5000500679016113
89	367.0648329257965	pulse	1	t		87.0	2.5	/experiments/aot_oldvideos/S_yt-iO0efV_PV-k_102.mp4	0.0	387.205846786499	
89	368.66491198539734	pulse	1	t		87.0	2.5	/experiments/aot_oldvideos/S_yt-iO0efV_PV-k_102.mp4	0.0	388.80592584609985	
89	369.1814458370209	fix_post	2		12	87.0	2.5	/experiments/aot_oldvideos/S_yt-iO0efV_PV-k_102.mp4	0.0	389.3224596977234	0.09996294975280762
90	369.2814087867737	fix_pre	0		119	88.0	2.5	/experiments/aot_oldvideos/S_yt-gmiyqQDGN78_7.mp4	0.0	389.4224226474762	0.9916481971740723
90	370.2648868560791	pulse	0	t		88.0	2.5	/experiments/aot_oldvideos/S_yt-gmiyqQDGN78_7.mp4	0.0	390.4059007167816	
90	370.27305698394775	movie	1		301	88.0	2.5	/experiments/aot_oldvideos/S_yt-gmiyqQDGN78_7.mp4	0.0	390.41407084465027	2.508286952972412
90	371.8648738861084	pulse	1	t		88.0	2.5	/experiments/aot_oldvideos/S_yt-gmiyqQDGN78_7.mp4	0.0	392.0058877468109	
90	372.78134393692017	fix_post	2		12	88.0	2.5	/experiments/aot_oldvideos/S_yt-gmiyqQDGN78_7.mp4	0.0	392.9223577976227	0.10014486312866211
91	372.8814888000488	fix_pre	0		120	89.0	2.5	/experiments/aot_oldvideos/S_pexels-mikhail-nilov-8410084_1.mp4	0.0	393.02250266075134	0.9998631477355957
91	373.46488881111145	pulse	0	t		89.0	2.5	/experiments/aot_oldvideos/S_pexels-mikhail-nilov-8410084_1.mp4	0.0	393.60590267181396	
91	373.8813519477844	movie	1		163	89.0	2.5	/experiments/aot_oldvideos/S_pexels-mikhail-nilov-8410084_1.mp4	0.0	394.02236580848694	2.50008487701416
91	375.0731899738312	pulse	1	t		89.0	2.5	/experiments/aot_oldvideos/S_pexels-mikhail-nilov-8410084_1.mp4	0.0	395.2142038345337	
91	376.3814368247986	fix_post	2		12	89.0	2.5	/experiments/aot_oldvideos/S_pexels-mikhail-nilov-8410084_1.mp4	0.0	396.5224506855011	0.10004305839538574
92	376.48147988319397	fix_pre	0		120	90.0	2.5	/experiments/aot_oldvideos/S_yt-QTGIhecBZjc_19.mp4	0.0	396.6224937438965	0.9999370574951172
92	376.66445994377136	pulse	0	t		90.0	2.5	/experiments/aot_oldvideos/S_yt-QTGIhecBZjc_19.mp4	0.0	396.8054738044739	
92	377.4814169406891	movie	1		300	90.0	2.5	/experiments/aot_oldvideos/S_yt-QTGIhecBZjc_19.mp4	0.0	397.6224308013916	2.4999139308929443
92	378.26496386528015	pulse	1	t		90.0	2.5	/experiments/aot_oldvideos/S_yt-QTGIhecBZjc_19.mp4	0.0	398.40597772598267	
92	379.8648998737335	pulse	1	t		90.0	2.5	/experiments/aot_oldvideos/S_yt-QTGIhecBZjc_19.mp4	0.0	400.00591373443604	
92	379.98133087158203	fix_post	2		12	90.0	2.5	/experiments/aot_oldvideos/S_yt-QTGIhecBZjc_19.mp4	0.0	400.12234473228455	0.10006999969482422
93	380.08140087127686	fix_pre	0		120	91.0	2.5	blank	1.0	400.22241473197937	0.9999580383300781
93	381.08135890960693	movie	1		300	91.0	2.5	blank	1.0	401.22237277030945	2.499953031539917
93	381.4648699760437	pulse	1	t		91.0	2.5	blank	1.0	401.6058838367462	
93	383.06485986709595	pulse	1	t		91.0	2.5	blank	1.0	403.20587372779846	
93	383.58131194114685	fix_post	2		12	91.0	2.5	blank	1.0	403.72232580184937	0.10002899169921875
95	383.68134093284607	stim	0		1716					403.8223547935486	14.299912929534912
95	384.6647307872772	pulse	0	t						404.80574464797974	
95	386.2647798061371	pulse	0	t						406.4057936668396	
95	387.8647119998932	pulse	0	t						408.0057258605957	
95	389.4647328853607	pulse	0	t						409.60574674606323	
95	391.06470799446106	pulse	0	t						411.2057218551636	
95	392.66476488113403	pulse	0	t						412.80577874183655	
95	394.2648329734802	pulse	0	t						414.40584683418274	
95	395.8646957874298	pulse	0	t						416.0057096481323	
95	397.4647629261017	pulse	0	t						417.6057767868042	
