trial_nr	onset	event_type	phase	response	nr_frames	movie_index	movie_duration	movie_file	blank	onset_abs	duration
0	0.1618669033050537	stim	0		467					28.66542077064514	3.8925769329071045
0	4.038649797439575	response	0	space						32.54220366477966	
1	4.054443836212158	stim	0		4384					32.557997703552246	36.53255796432495
1	40.58326482772827	pulse	0	t						69.08681869506836	
1	40.58700180053711	stim	1		1717					69.0905556678772	14.30887508392334
1	42.17888689041138	pulse	1	t						70.68244075775146	
1	43.77884387969971	pulse	1	t						72.2823977470398	
1	45.37884593009949	pulse	1	t						73.88239979743958	
1	46.97890090942383	pulse	1	t						75.48245477676392	
1	48.57897186279297	pulse	1	t						77.08252573013306	
1	50.178807973861694	pulse	1	t						78.68236184120178	
1	51.778828859329224	pulse	1	t						80.28238272666931	
1	53.378811836242676	pulse	1	t						81.88236570358276	
2	54.89587688446045	fix_pre	0		11	0.0	2.5	/experiments/aot/S_yt-ibDaDIEazxg_3.mp4	0.0	83.39943075180054	0.09164214134216309
2	54.97879481315613	pulse	0	t		0.0	2.5	/experiments/aot/S_yt-ibDaDIEazxg_3.mp4	0.0	83.48234868049622	
2	54.98751902580261	movie	1		300	0.0	2.5	/experiments/aot/S_yt-ibDaDIEazxg_3.mp4	0.0	83.4910728931427	2.5074079036712646
2	56.57880902290344	pulse	1	t		0.0	2.5	/experiments/aot/S_yt-ibDaDIEazxg_3.mp4	0.0	85.08236289024353	
2	57.49492692947388	fix_post	2		72	0.0	2.5	/experiments/aot/S_yt-ibDaDIEazxg_3.mp4	0.0	85.99848079681396	0.5999929904937744
3	58.09491991996765	fix_pre	0		11	1.0	2.5	blank	1.0	86.59847378730774	0.09166908264160156
3	58.1788330078125	pulse	0	t		1.0	2.5	blank	1.0	86.68238687515259	
3	58.18658900260925	movie	1		301	1.0	2.5	blank	1.0	86.69014286994934	2.5083107948303223
3	59.778764963150024	pulse	1	t		1.0	2.5	blank	1.0	88.28231883049011	
3	60.694899797439575	fix_post	2		72	1.0	2.5	blank	1.0	89.19845366477966	0.6000380516052246
4	61.2949378490448	fix_pre	0		11	2.0	2.5	/experiments/aot/S_Pexels_Videos_2786546.mp4	0.0	89.79849171638489	0.09163212776184082
4	61.378822803497314	pulse	0	t		2.0	2.5	/experiments/aot/S_Pexels_Videos_2786546.mp4	0.0	89.8823766708374	
4	61.38656997680664	movie	1		162	2.0	2.5	/experiments/aot/S_Pexels_Videos_2786546.mp4	0.0	89.89012384414673	2.508373975753784
4	62.98717284202576	pulse	1	t		2.0	2.5	/experiments/aot/S_Pexels_Videos_2786546.mp4	0.0	91.49072670936584	
4	63.894943952560425	fix_post	2		72	2.0	2.5	/experiments/aot/S_Pexels_Videos_2786546.mp4	0.0	92.39849781990051	0.5999789237976074
5	64.49492287635803	fix_pre	0		11	3.0	2.5	/experiments/aot/S_yt-iO0efV_PV-k_102.mp4	0.0	92.99847674369812	0.09404611587524414
5	64.57834196090698	pulse	0	t		3.0	2.5	/experiments/aot/S_yt-iO0efV_PV-k_102.mp4	0.0	93.08189582824707	
5	64.58896899223328	movie	1		300	3.0	2.5	/experiments/aot/S_yt-iO0efV_PV-k_102.mp4	0.0	93.09252285957336	2.506837844848633
5	66.17867588996887	pulse	1	t		3.0	2.5	/experiments/aot/S_yt-iO0efV_PV-k_102.mp4	0.0	94.68222975730896	
5	67.09580683708191	fix_post	2		72	3.0	2.5	/experiments/aot/S_yt-iO0efV_PV-k_102.mp4	0.0	95.599360704422	0.5990481376647949
6	67.6948549747467	fix_pre	0		11	4.0	2.5	/experiments/aot/S_ILSVRC2015_train_00697001.mp4	0.0	96.19840884208679	0.09169483184814453
6	67.77876996994019	pulse	0	t		4.0	2.5	/experiments/aot/S_ILSVRC2015_train_00697001.mp4	0.0	96.28232383728027	
6	67.78654980659485	movie	1		301	4.0	2.5	/experiments/aot/S_ILSVRC2015_train_00697001.mp4	0.0	96.29010367393494	2.508296012878418
6	69.37874984741211	pulse	1	t		4.0	2.5	/experiments/aot/S_ILSVRC2015_train_00697001.mp4	0.0	97.8823037147522	
6	70.29484581947327	fix_post	2		72	4.0	2.5	/experiments/aot/S_ILSVRC2015_train_00697001.mp4	0.0	98.79839968681335	0.6011390686035156
7	70.89598488807678	fix_pre	0		11	5.0	2.5	/experiments/aot/S_yt-gmiyqQDGN78_7.mp4	0.0	99.39953875541687	0.09151506423950195
7	70.97873592376709	pulse	0	t		5.0	2.5	/experiments/aot/S_yt-gmiyqQDGN78_7.mp4	0.0	99.48228979110718	
7	70.98749995231628	movie	1		301	5.0	2.5	/experiments/aot/S_yt-gmiyqQDGN78_7.mp4	0.0	99.49105381965637	2.5073859691619873
7	72.57885193824768	pulse	1	t		5.0	2.5	/experiments/aot/S_yt-gmiyqQDGN78_7.mp4	0.0	101.08240580558777	
7	73.49488592147827	fix_post	2		72	5.0	2.5	/experiments/aot/S_yt-gmiyqQDGN78_7.mp4	0.0	101.99843978881836	0.6008861064910889
8	74.09577202796936	fix_pre	0		11	6.0	2.5	/experiments/aot/S_yt-UzWRbs9Syf4_7.mp4	0.0	102.59932589530945	0.09165287017822266
8	74.17883586883545	pulse	0	t		6.0	2.5	/experiments/aot/S_yt-UzWRbs9Syf4_7.mp4	0.0	102.68238973617554	
8	74.18742489814758	movie	1		301	6.0	2.5	/experiments/aot/S_yt-UzWRbs9Syf4_7.mp4	0.0	102.69097876548767	2.5074429512023926
8	75.7787070274353	pulse	1	t		6.0	2.5	/experiments/aot/S_yt-UzWRbs9Syf4_7.mp4	0.0	104.28226089477539	
8	76.69486784934998	fix_post	2		72	6.0	2.5	/experiments/aot/S_yt-UzWRbs9Syf4_7.mp4	0.0	105.19842171669006	0.5999751091003418
9	77.29484295845032	fix_pre	0		11	7.0	2.5	/experiments/aot/S_yt-HwEfWfFJhRo_73.mp4	0.0	105.7983968257904	0.09255003929138184
9	77.37866687774658	pulse	0	t		7.0	2.5	/experiments/aot/S_yt-HwEfWfFJhRo_73.mp4	0.0	105.88222074508667	
9	77.3873929977417	movie	1		301	7.0	2.5	/experiments/aot/S_yt-HwEfWfFJhRo_73.mp4	0.0	105.89094686508179	2.5074288845062256
9	78.97873187065125	pulse	1	t		7.0	2.5	/experiments/aot/S_yt-HwEfWfFJhRo_73.mp4	0.0	107.48228573799133	
9	79.89482188224792	fix_post	2		72	7.0	2.5	/experiments/aot/S_yt-HwEfWfFJhRo_73.mp4	0.0	108.39837574958801	0.6008610725402832
10	80.49568295478821	fix_pre	0		11	8.0	2.5	/experiments/aot/S_yt--koo4FOfZE0_86.mp4	0.0	108.9992368221283	0.09169983863830566
10	80.57876181602478	pulse	0	t		8.0	2.5	/experiments/aot/S_yt--koo4FOfZE0_86.mp4	0.0	109.08231568336487	
10	80.58738279342651	movie	1		301	8.0	2.5	/experiments/aot/S_yt--koo4FOfZE0_86.mp4	0.0	109.0909366607666	2.508294105529785
10	82.1786777973175	pulse	1	t		8.0	2.5	/experiments/aot/S_yt--koo4FOfZE0_86.mp4	0.0	110.68223166465759	
10	83.0956768989563	fix_post	2		72	8.0	2.5	/experiments/aot/S_yt--koo4FOfZE0_86.mp4	0.0	111.59923076629639	0.6001179218292236
11	83.69579482078552	fix_pre	0		11	9.0	2.5	/experiments/aot/S_yt-RO4mhuXBVrY_67.mp4	0.0	112.19934868812561	0.09162497520446777
11	83.7786979675293	pulse	0	t		9.0	2.5	/experiments/aot/S_yt-RO4mhuXBVrY_67.mp4	0.0	112.28225183486938	
11	83.78741979598999	movie	1		301	9.0	2.5	/experiments/aot/S_yt-RO4mhuXBVrY_67.mp4	0.0	112.29097366333008	2.508315086364746
11	85.37873387336731	pulse	1	t		9.0	2.5	/experiments/aot/S_yt-RO4mhuXBVrY_67.mp4	0.0	113.8822877407074	
11	86.29573488235474	fix_post	2		72	9.0	2.5	/experiments/aot/S_yt-RO4mhuXBVrY_67.mp4	0.0	114.79928874969482	0.5990481376647949
12	86.89478302001953	fix_pre	0		11	10.0	2.5	/experiments/aot/S_yt-GWlwb2QsxIA_48.mp4	0.0	115.39833688735962	0.09169197082519531
12	86.97864985466003	pulse	0	t		10.0	2.5	/experiments/aot/S_yt-GWlwb2QsxIA_48.mp4	0.0	115.48220372200012	
12	86.98647499084473	movie	1		301	10.0	2.5	/experiments/aot/S_yt-GWlwb2QsxIA_48.mp4	0.0	115.49002885818481	2.50832200050354
12	88.57868695259094	pulse	1	t		10.0	2.5	/experiments/aot/S_yt-GWlwb2QsxIA_48.mp4	0.0	117.08224081993103	
12	89.49479699134827	fix_post	2		72	10.0	2.5	/experiments/aot/S_yt-GWlwb2QsxIA_48.mp4	0.0	117.99835085868835	0.5999748706817627
13	90.09477186203003	fix_pre	0		11	11.0	2.5	/experiments/aot/S_ILSVRC2015_train_00067005.mp4	0.0	118.59832572937012	0.09189200401306152
13	90.1786630153656	pulse	0	t		11.0	2.5	/experiments/aot/S_ILSVRC2015_train_00067005.mp4	0.0	118.68221688270569	
13	90.18666386604309	movie	1		301	11.0	2.5	/experiments/aot/S_ILSVRC2015_train_00067005.mp4	0.0	118.69021773338318	2.508060932159424
13	91.77862787246704	pulse	1	t		11.0	2.5	/experiments/aot/S_ILSVRC2015_train_00067005.mp4	0.0	120.28218173980713	
13	92.69472479820251	fix_post	2		72	11.0	2.5	/experiments/aot/S_ILSVRC2015_train_00067005.mp4	0.0	121.1982786655426	0.6000461578369141
14	93.29477095603943	fix_pre	0		11	12.0	2.5	/experiments/aot/S_yt-b7JAHOeiTqU_44.mp4	0.0	121.79832482337952	0.09179806709289551
14	93.37858080863953	pulse	0	t		12.0	2.5	/experiments/aot/S_yt-b7JAHOeiTqU_44.mp4	0.0	121.88213467597961	
14	93.38656902313232	movie	1		301	12.0	2.5	/experiments/aot/S_yt-b7JAHOeiTqU_44.mp4	0.0	121.89012289047241	2.5082597732543945
14	94.97872591018677	pulse	1	t		12.0	2.5	/experiments/aot/S_yt-b7JAHOeiTqU_44.mp4	0.0	123.48227977752686	
14	95.89482879638672	fix_post	2		72	12.0	2.5	/experiments/aot/S_yt-b7JAHOeiTqU_44.mp4	0.0	124.3983826637268	0.5999271869659424
15	96.49475598335266	fix_pre	0		11	13.0	2.5	/experiments/aot/S_yt-54kx8P3L1ns_6.mp4	0.0	124.99830985069275	0.09165191650390625
15	96.57860088348389	pulse	0	t		13.0	2.5	/experiments/aot/S_yt-54kx8P3L1ns_6.mp4	0.0	125.08215475082397	
15	96.58640789985657	movie	1		301	13.0	2.5	/experiments/aot/S_yt-54kx8P3L1ns_6.mp4	0.0	125.08996176719666	2.509192943572998
15	98.17863988876343	pulse	1	t		13.0	2.5	/experiments/aot/S_yt-54kx8P3L1ns_6.mp4	0.0	126.68219375610352	
15	99.09560084342957	fix_post	2		72	13.0	2.5	/experiments/aot/S_yt-54kx8P3L1ns_6.mp4	0.0	127.59915471076965	0.5991389751434326
16	99.694739818573	fix_pre	0		11	14.0	2.5	blank	1.0	128.1982936859131	0.09166598320007324
16	99.7786238193512	pulse	0	t		14.0	2.5	blank	1.0	128.28217768669128	
16	99.78640580177307	movie	1		301	14.0	2.5	blank	1.0	128.28995966911316	2.508310079574585
16	101.37852191925049	pulse	1	t		14.0	2.5	blank	1.0	129.88207578659058	
16	102.29471588134766	fix_post	2		72	14.0	2.5	blank	1.0	130.79826974868774	0.5999879837036133
17	102.89470386505127	fix_pre	0		11	15.0	2.5	/experiments/aot/S_yt-O4wUEZwHLyI_114.mp4	0.0	131.39825773239136	0.09174895286560059
17	102.97854280471802	pulse	0	t		15.0	2.5	/experiments/aot/S_yt-O4wUEZwHLyI_114.mp4	0.0	131.4820966720581	
17	102.98645281791687	movie	1		301	15.0	2.5	/experiments/aot/S_yt-O4wUEZwHLyI_114.mp4	0.0	131.49000668525696	2.5082600116729736
17	104.57868599891663	pulse	1	t		15.0	2.5	/experiments/aot/S_yt-O4wUEZwHLyI_114.mp4	0.0	133.0822398662567	
17	105.49471282958984	fix_post	2		72	15.0	2.5	/experiments/aot/S_yt-O4wUEZwHLyI_114.mp4	0.0	133.99826669692993	0.6008560657501221
18	106.09556889533997	fix_pre	0		12	16.0	2.5	/experiments/aot/S_WCwb-DeQOSg_85.mp4	0.0	134.59912276268005	0.09916901588439941
18	106.1793429851532	pulse	0	t		16.0	2.5	/experiments/aot/S_WCwb-DeQOSg_85.mp4	0.0	134.6828968524933	
18	106.19473791122437	movie	1		301	16.0	2.5	/experiments/aot/S_WCwb-DeQOSg_85.mp4	0.0	134.69829177856445	2.5082929134368896
18	107.78265500068665	pulse	1	t		16.0	2.5	/experiments/aot/S_WCwb-DeQOSg_85.mp4	0.0	136.28620886802673	
18	108.70303082466125	fix_post	2		72	16.0	2.5	/experiments/aot/S_WCwb-DeQOSg_85.mp4	0.0	137.20658469200134	0.599999189376831
19	109.30303001403809	fix_pre	0		10	17.0	2.5	/experiments/aot/S_yt-AOP7QYQntPI_28.mp4	0.0	137.80658388137817	0.08417582511901855
19	109.3785719871521	pulse	0	t		17.0	2.5	/experiments/aot/S_yt-AOP7QYQntPI_28.mp4	0.0	137.8821258544922	
19	109.3872058391571	movie	1		301	17.0	2.5	/experiments/aot/S_yt-AOP7QYQntPI_28.mp4	0.0	137.8907597064972	2.507444143295288
19	110.97866082191467	pulse	1	t		17.0	2.5	/experiments/aot/S_yt-AOP7QYQntPI_28.mp4	0.0	139.48221468925476	
19	111.89464998245239	fix_post	2		72	17.0	2.5	/experiments/aot/S_yt-AOP7QYQntPI_28.mp4	0.0	140.39820384979248	0.6001570224761963
20	112.49480700492859	fix_pre	0		11	18.0	2.5	/experiments/aot/S_yt-AuQ_WxaNy4Y_255.mp4	0.0	140.99836087226868	0.09161090850830078
20	112.5785620212555	pulse	0	t		18.0	2.5	/experiments/aot/S_yt-AuQ_WxaNy4Y_255.mp4	0.0	141.08211588859558	
20	112.58641791343689	movie	1		301	18.0	2.5	/experiments/aot/S_yt-AuQ_WxaNy4Y_255.mp4	0.0	141.08997178077698	2.508254051208496
20	114.17862200737	pulse	1	t		18.0	2.5	/experiments/aot/S_yt-AuQ_WxaNy4Y_255.mp4	0.0	142.68217587471008	
20	115.09467196464539	fix_post	2		72	18.0	2.5	/experiments/aot/S_yt-AuQ_WxaNy4Y_255.mp4	0.0	143.59822583198547	0.5999760627746582
21	115.69464802742004	fix_pre	0		11	19.0	2.5	/experiments/aot/S_video-10.mp4	0.0	144.19820189476013	0.09256887435913086
21	115.7785918712616	pulse	0	t		19.0	2.5	/experiments/aot/S_video-10.mp4	0.0	144.28214573860168	
21	115.78721690177917	movie	1		159	19.0	2.5	/experiments/aot/S_video-10.mp4	0.0	144.29077076911926	2.507416009902954
21	117.37862396240234	pulse	1	t		19.0	2.5	/experiments/aot/S_video-10.mp4	0.0	145.88217782974243	
21	118.29463291168213	fix_post	2		72	19.0	2.5	/experiments/aot/S_video-10.mp4	0.0	146.79818677902222	0.6010439395904541
22	118.89567685127258	fix_pre	0		11	20.0	2.5	/experiments/aot/S_yt-6vkiJedss6g_5.mp4	0.0	147.39923071861267	0.0916140079498291
22	118.97856903076172	pulse	0	t		20.0	2.5	/experiments/aot/S_yt-6vkiJedss6g_5.mp4	0.0	147.4821228981018	
22	118.98729085922241	movie	1		301	20.0	2.5	/experiments/aot/S_yt-6vkiJedss6g_5.mp4	0.0	147.4908447265625	2.5075809955596924
22	120.57866287231445	pulse	1	t		20.0	2.5	/experiments/aot/S_yt-6vkiJedss6g_5.mp4	0.0	149.08221673965454	
22	121.4948718547821	fix_post	2		72	20.0	2.5	/experiments/aot/S_yt-6vkiJedss6g_5.mp4	0.0	149.9984257221222	0.6000800132751465
23	122.09495186805725	fix_pre	0		11	21.0	2.5	/experiments/aot/S_yt-EvKV7iY1_HM_193.mp4	0.0	150.59850573539734	0.0916450023651123
23	122.17876696586609	pulse	0	t		21.0	2.5	/experiments/aot/S_yt-EvKV7iY1_HM_193.mp4	0.0	150.68232083320618	
23	122.18659687042236	movie	1		301	21.0	2.5	/experiments/aot/S_yt-EvKV7iY1_HM_193.mp4	0.0	150.69015073776245	2.508002996444702
23	123.7794439792633	pulse	1	t		21.0	2.5	/experiments/aot/S_yt-EvKV7iY1_HM_193.mp4	0.0	152.2829978466034	
23	124.69459986686707	fix_post	2		72	21.0	2.5	/experiments/aot/S_yt-EvKV7iY1_HM_193.mp4	0.0	153.19815373420715	0.5999550819396973
24	125.29455494880676	fix_pre	0		11	22.0	2.5	/experiments/aot/S_yt-bwSRV1Vr21s_435.mp4	0.0	153.79810881614685	0.09260988235473633
24	125.3784909248352	pulse	0	t		22.0	2.5	/experiments/aot/S_yt-bwSRV1Vr21s_435.mp4	0.0	153.8820447921753	
24	125.3871648311615	movie	1		300	22.0	2.5	/experiments/aot/S_yt-bwSRV1Vr21s_435.mp4	0.0	153.8907186985016	2.507423162460327
24	126.9794409275055	pulse	1	t		22.0	2.5	/experiments/aot/S_yt-bwSRV1Vr21s_435.mp4	0.0	155.48299479484558	
24	127.89458799362183	fix_post	2		72	22.0	2.5	/experiments/aot/S_yt-bwSRV1Vr21s_435.mp4	0.0	156.3981418609619	0.5999188423156738
25	128.4945068359375	fix_pre	0		11	23.0	2.5	/experiments/aot/S_yt-PCSXJ5YB_AE_3.mp4	0.0	156.9980607032776	0.09165596961975098
25	128.5784478187561	pulse	0	t		23.0	2.5	/experiments/aot/S_yt-PCSXJ5YB_AE_3.mp4	0.0	157.0820016860962	
25	128.58616280555725	movie	1		301	23.0	2.5	/experiments/aot/S_yt-PCSXJ5YB_AE_3.mp4	0.0	157.08971667289734	2.5092310905456543
25	130.1785328388214	pulse	1	t		23.0	2.5	/experiments/aot/S_yt-PCSXJ5YB_AE_3.mp4	0.0	158.6820867061615	
25	131.0953938961029	fix_post	2		72	23.0	2.5	/experiments/aot/S_yt-PCSXJ5YB_AE_3.mp4	0.0	159.598947763443	0.6000409126281738
26	131.69543480873108	fix_pre	0		11	24.0	2.5	/experiments/aot/S_yt-Jro_TRE8NUQ_234.mp4	0.0	160.19898867607117	0.09073519706726074
26	131.77843284606934	pulse	0	t		24.0	2.5	/experiments/aot/S_yt-Jro_TRE8NUQ_234.mp4	0.0	160.28198671340942	
26	131.78617000579834	movie	1		301	24.0	2.5	/experiments/aot/S_yt-Jro_TRE8NUQ_234.mp4	0.0	160.28972387313843	2.5083467960357666
26	133.3784499168396	pulse	1	t		24.0	2.5	/experiments/aot/S_yt-Jro_TRE8NUQ_234.mp4	0.0	161.8820037841797	
26	134.2945168018341	fix_post	2		72	24.0	2.5	/experiments/aot/S_yt-Jro_TRE8NUQ_234.mp4	0.0	162.7980706691742	0.6008460521697998
27	134.8953628540039	fix_pre	0		11	25.0	2.5	/experiments/aot/S_xq822dX6DDM_1.mp4	0.0	163.398916721344	0.09085798263549805
27	134.97835493087769	pulse	0	t		25.0	2.5	/experiments/aot/S_xq822dX6DDM_1.mp4	0.0	163.48190879821777	
27	134.9862208366394	movie	1		301	25.0	2.5	/experiments/aot/S_xq822dX6DDM_1.mp4	0.0	163.4897747039795	2.5091300010681152
27	136.57841801643372	pulse	1	t		25.0	2.5	/experiments/aot/S_xq822dX6DDM_1.mp4	0.0	165.0819718837738	
27	137.49535083770752	fix_post	2		72	25.0	2.5	/experiments/aot/S_xq822dX6DDM_1.mp4	0.0	165.9989047050476	0.5999619960784912
28	138.095312833786	fix_pre	0		12	26.0	2.5	/experiments/aot/S_wc-8bTJmWfuVyJ4_8.mp4	0.0	166.5988667011261	0.0992131233215332
28	138.17920184135437	pulse	0	t		26.0	2.5	/experiments/aot/S_wc-8bTJmWfuVyJ4_8.mp4	0.0	166.68275570869446	
28	138.19452595710754	movie	1		160	26.0	2.5	/experiments/aot/S_wc-8bTJmWfuVyJ4_8.mp4	0.0	166.69807982444763	2.5083119869232178
28	139.78619599342346	pulse	1	t		26.0	2.5	/experiments/aot/S_wc-8bTJmWfuVyJ4_8.mp4	0.0	168.28974986076355	
28	140.70283794403076	fix_post	2		72	26.0	2.5	/experiments/aot/S_wc-8bTJmWfuVyJ4_8.mp4	0.0	169.20639181137085	0.5999898910522461
29	141.302827835083	fix_pre	0		11	27.0	2.5	/experiments/aot/S_yt-NZIhxK5NvWE_152.mp4	0.0	169.8063817024231	0.09248900413513184
29	141.3792200088501	pulse	0	t		27.0	2.5	/experiments/aot/S_yt-NZIhxK5NvWE_152.mp4	0.0	169.88277387619019	
29	141.39531683921814	movie	1		301	27.0	2.5	/experiments/aot/S_yt-NZIhxK5NvWE_152.mp4	0.0	169.89887070655823	2.507483959197998
29	142.98252487182617	pulse	1	t		27.0	2.5	/experiments/aot/S_yt-NZIhxK5NvWE_152.mp4	0.0	171.48607873916626	
29	143.90280079841614	fix_post	2		72	27.0	2.5	/experiments/aot/S_yt-NZIhxK5NvWE_152.mp4	0.0	172.40635466575623	0.6000490188598633
30	144.502849817276	fix_pre	0		10	28.0	2.5	/experiments/aot/S_production_ID_4707837.mp4	0.0	173.0064036846161	0.08327102661132812
30	144.57840180397034	pulse	0	t		28.0	2.5	/experiments/aot/S_production_ID_4707837.mp4	0.0	173.08195567131042	
30	144.58612084388733	movie	1		163	28.0	2.5	/experiments/aot/S_production_ID_4707837.mp4	0.0	173.08967471122742	2.5084340572357178
30	146.18672490119934	pulse	1	t		28.0	2.5	/experiments/aot/S_production_ID_4707837.mp4	0.0	174.69027876853943	
30	147.09455490112305	fix_post	2		72	28.0	2.5	/experiments/aot/S_production_ID_4707837.mp4	0.0	175.59810876846313	0.5998790264129639
31	147.694433927536	fix_pre	0		11	29.0	2.5	/experiments/aot/S_yt-KV8X9IBWuJk_48.mp4	0.0	176.1979877948761	0.09175992012023926
31	147.7783989906311	pulse	0	t		29.0	2.5	/experiments/aot/S_yt-KV8X9IBWuJk_48.mp4	0.0	176.2819528579712	
31	147.78619384765625	movie	1		301	29.0	2.5	/experiments/aot/S_yt-KV8X9IBWuJk_48.mp4	0.0	176.28974771499634	2.5092029571533203
31	149.37837982177734	pulse	1	t		29.0	2.5	/experiments/aot/S_yt-KV8X9IBWuJk_48.mp4	0.0	177.88193368911743	
31	150.29539680480957	fix_post	2		72	29.0	2.5	/experiments/aot/S_yt-KV8X9IBWuJk_48.mp4	0.0	178.79895067214966	0.6000380516052246
32	150.8954348564148	fix_pre	0		11	30.0	2.5	/experiments/aot/S_yt-yQrDeFlFmfM_138.mp4	0.0	179.39898872375488	0.09078502655029297
32	150.97838687896729	pulse	0	t		30.0	2.5	/experiments/aot/S_yt-yQrDeFlFmfM_138.mp4	0.0	179.48194074630737	
32	150.9862198829651	movie	1		301	30.0	2.5	/experiments/aot/S_yt-yQrDeFlFmfM_138.mp4	0.0	179.48977375030518	2.5090770721435547
32	152.5784728527069	pulse	1	t		30.0	2.5	/experiments/aot/S_yt-yQrDeFlFmfM_138.mp4	0.0	181.082026720047	
32	153.49529695510864	fix_post	2		72	30.0	2.5	/experiments/aot/S_yt-yQrDeFlFmfM_138.mp4	0.0	181.99885082244873	0.6000969409942627
33	154.0953938961029	fix_pre	0		12	31.0	2.5	/experiments/aot/S_ILSVRC2015_train_00515000.mp4	0.0	182.598947763443	0.09908294677734375
33	154.1791639328003	pulse	0	t		31.0	2.5	/experiments/aot/S_ILSVRC2015_train_00515000.mp4	0.0	182.68271780014038	
33	154.19447684288025	movie	1		301	31.0	2.5	/experiments/aot/S_ILSVRC2015_train_00515000.mp4	0.0	182.69803071022034	2.5082650184631348
33	155.78243684768677	pulse	1	t		31.0	2.5	/experiments/aot/S_ILSVRC2015_train_00515000.mp4	0.0	184.28599071502686	
33	156.70274186134338	fix_post	2		72	31.0	2.5	/experiments/aot/S_ILSVRC2015_train_00515000.mp4	0.0	185.20629572868347	0.6000730991363525
34	157.30281496047974	fix_pre	0		11	32.0	2.5	blank	1.0	185.80636882781982	0.09268999099731445
34	157.37914180755615	pulse	0	t		32.0	2.5	blank	1.0	185.88269567489624	
34	157.39550495147705	movie	1		301	32.0	2.5	blank	1.0	185.89905881881714	2.5081398487091064
34	158.97912001609802	pulse	1	t		32.0	2.5	blank	1.0	187.4826738834381	
34	159.90364480018616	fix_post	2		72	32.0	2.5	blank	1.0	188.40719866752625	0.6000111103057861
35	160.50365591049194	fix_pre	0		10	33.0	2.5	/experiments/aot/S_yt-xBwq6sHHF5M_21.mp4	0.0	189.00720977783203	0.08242297172546387
35	160.57830381393433	pulse	0	t		33.0	2.5	/experiments/aot/S_yt-xBwq6sHHF5M_21.mp4	0.0	189.0818576812744	
35	160.5860788822174	movie	1		301	33.0	2.5	/experiments/aot/S_yt-xBwq6sHHF5M_21.mp4	0.0	189.0896327495575	2.5093419551849365
35	162.1784110069275	pulse	1	t		33.0	2.5	/experiments/aot/S_yt-xBwq6sHHF5M_21.mp4	0.0	190.68196487426758	
35	163.09542083740234	fix_post	2		72	33.0	2.5	/experiments/aot/S_yt-xBwq6sHHF5M_21.mp4	0.0	191.59897470474243	0.5999109745025635
36	163.6953318119049	fix_pre	0		11	34.0	2.5	/experiments/aot/S_yt-JTuopUgmg1w_101.mp4	0.0	192.198885679245	0.09078812599182129
36	163.77822399139404	pulse	0	t		34.0	2.5	/experiments/aot/S_yt-JTuopUgmg1w_101.mp4	0.0	192.28177785873413	
36	163.78611993789673	movie	1		301	34.0	2.5	/experiments/aot/S_yt-JTuopUgmg1w_101.mp4	0.0	192.28967380523682	2.509182929992676
36	165.3784589767456	pulse	1	t		34.0	2.5	/experiments/aot/S_yt-JTuopUgmg1w_101.mp4	0.0	193.8820128440857	
36	166.2953028678894	fix_post	2		72	34.0	2.5	/experiments/aot/S_yt-JTuopUgmg1w_101.mp4	0.0	194.7988567352295	0.59906005859375
37	166.89436292648315	fix_pre	0		11	35.0	2.5	blank	1.0	195.39791679382324	0.09167909622192383
37	166.97821283340454	pulse	0	t		35.0	2.5	blank	1.0	195.48176670074463	
37	166.98604202270508	movie	1		301	35.0	2.5	blank	1.0	195.48959589004517	2.508327007293701
37	168.57829093933105	pulse	1	t		35.0	2.5	blank	1.0	197.08184480667114	
37	169.49436902999878	fix_post	2		72	35.0	2.5	blank	1.0	197.99792289733887	0.6000428199768066
38	170.0944118499756	fix_pre	0		12	36.0	2.5	/experiments/aot/S_yt-O6FS0xnF0CU_106.mp4	0.0	198.59796571731567	0.10086798667907715
38	170.17905497550964	pulse	0	t		36.0	2.5	/experiments/aot/S_yt-O6FS0xnF0CU_106.mp4	0.0	198.68260884284973	
38	170.19527983665466	movie	1		301	36.0	2.5	/experiments/aot/S_yt-O6FS0xnF0CU_106.mp4	0.0	198.69883370399475	2.5074000358581543
38	171.78232979774475	pulse	1	t		36.0	2.5	/experiments/aot/S_yt-O6FS0xnF0CU_106.mp4	0.0	200.28588366508484	
38	172.70267987251282	fix_post	2		72	36.0	2.5	/experiments/aot/S_yt-O6FS0xnF0CU_106.mp4	0.0	201.2062337398529	0.6000890731811523
39	173.30276894569397	fix_pre	0		11	37.0	2.5	/experiments/aot/S_production_ID_4325516.mp4	0.0	201.80632281303406	0.0925450325012207
39	173.37900185585022	pulse	0	t		37.0	2.5	/experiments/aot/S_production_ID_4325516.mp4	0.0	201.8825557231903	
39	173.3953139781952	movie	1		161	37.0	2.5	/experiments/aot/S_production_ID_4325516.mp4	0.0	201.89886784553528	2.507452964782715
39	174.98608088493347	pulse	1	t		37.0	2.5	/experiments/aot/S_production_ID_4325516.mp4	0.0	203.48963475227356	
39	175.9027669429779	fix_post	2		72	37.0	2.5	/experiments/aot/S_production_ID_4325516.mp4	0.0	204.406320810318	0.600039005279541
40	176.50280594825745	fix_pre	0		11	38.0	2.5	/experiments/aot/S_pexels-kelly-lacy-6756531.mp4	0.0	205.00635981559753	0.09166097640991211
40	176.5787229537964	pulse	0	t		38.0	2.5	/experiments/aot/S_pexels-kelly-lacy-6756531.mp4	0.0	205.08227682113647	
40	176.59446692466736	movie	1		163	38.0	2.5	/experiments/aot/S_pexels-kelly-lacy-6756531.mp4	0.0	205.09802079200745	2.508272886276245
40	178.18650794029236	pulse	1	t		38.0	2.5	/experiments/aot/S_pexels-kelly-lacy-6756531.mp4	0.0	206.69006180763245	
40	179.1027398109436	fix_post	2		72	38.0	2.5	/experiments/aot/S_pexels-kelly-lacy-6756531.mp4	0.0	207.6062936782837	0.6008100509643555
41	179.70354986190796	fix_pre	0		10	39.0	2.5	blank	1.0	208.20710372924805	0.08248400688171387
41	179.77823090553284	pulse	0	t		39.0	2.5	blank	1.0	208.28178477287292	
41	179.78603386878967	movie	1		301	39.0	2.5	blank	1.0	208.28958773612976	2.5083651542663574
41	181.37822794914246	pulse	1	t		39.0	2.5	blank	1.0	209.88178181648254	
41	182.29439902305603	fix_post	2		72	39.0	2.5	blank	1.0	210.79795289039612	0.5999429225921631
42	182.8943419456482	fix_pre	0		11	40.0	2.5	/experiments/aot/S_yt-XA6RBioito4_18.mp4	0.0	211.39789581298828	0.09167098999023438
42	182.97826886177063	pulse	0	t		40.0	2.5	/experiments/aot/S_yt-XA6RBioito4_18.mp4	0.0	211.48182272911072	
42	182.98601293563843	movie	1		301	40.0	2.5	/experiments/aot/S_yt-XA6RBioito4_18.mp4	0.0	211.48956680297852	2.5083248615264893
42	184.57816791534424	pulse	1	t		40.0	2.5	/experiments/aot/S_yt-XA6RBioito4_18.mp4	0.0	213.08172178268433	
42	185.49433779716492	fix_post	2		72	40.0	2.5	/experiments/aot/S_yt-XA6RBioito4_18.mp4	0.0	213.997891664505	0.6009001731872559
43	186.09523797035217	fix_pre	0		12	41.0	2.5	/experiments/aot/S_ILSVRC2015_train_00219004.mp4	0.0	214.59879183769226	0.09908390045166016
43	186.17899680137634	pulse	0	t		41.0	2.5	/experiments/aot/S_ILSVRC2015_train_00219004.mp4	0.0	214.68255066871643	
43	186.19432187080383	movie	1		301	41.0	2.5	/experiments/aot/S_ILSVRC2015_train_00219004.mp4	0.0	214.69787573814392	2.508327007293701
43	187.7822859287262	pulse	1	t		41.0	2.5	/experiments/aot/S_ILSVRC2015_train_00219004.mp4	0.0	216.28583979606628	
43	188.70264887809753	fix_post	2		72	41.0	2.5	/experiments/aot/S_ILSVRC2015_train_00219004.mp4	0.0	217.20620274543762	0.6000161170959473
44	189.30266499519348	fix_pre	0		11	42.0	2.5	/experiments/aot/S_production_ID_5144823.mp4	0.0	217.80621886253357	0.09214591979980469
44	189.37896990776062	pulse	0	t		42.0	2.5	/experiments/aot/S_production_ID_5144823.mp4	0.0	217.8825237751007	
44	189.3948109149933	movie	1		161	42.0	2.5	/experiments/aot/S_production_ID_5144823.mp4	0.0	217.89836478233337	2.5077970027923584
44	190.98744297027588	pulse	1	t		42.0	2.5	/experiments/aot/S_production_ID_5144823.mp4	0.0	219.49099683761597	
44	191.90260791778564	fix_post	2		72	42.0	2.5	/experiments/aot/S_production_ID_5144823.mp4	0.0	220.40616178512573	0.6000270843505859
45	192.50263500213623	fix_pre	0		11	43.0	2.5	/experiments/aot/S_production_ID_4802710.mp4	0.0	221.00618886947632	0.09165596961975098
45	192.57895588874817	pulse	0	t		43.0	2.5	/experiments/aot/S_production_ID_4802710.mp4	0.0	221.08250975608826	
45	192.59429097175598	movie	1		163	43.0	2.5	/experiments/aot/S_production_ID_4802710.mp4	0.0	221.09784483909607	2.5083420276641846
45	194.18612098693848	pulse	1	t		43.0	2.5	/experiments/aot/S_production_ID_4802710.mp4	0.0	222.68967485427856	
45	195.10263299942017	fix_post	2		72	43.0	2.5	/experiments/aot/S_production_ID_4802710.mp4	0.0	223.60618686676025	0.5999689102172852
46	195.70260190963745	fix_pre	0		11	44.0	2.5	blank	1.0	224.20615577697754	0.09168791770935059
46	195.7789158821106	pulse	0	t		44.0	2.5	blank	1.0	224.28246974945068	
46	195.7942898273468	movie	1		301	44.0	2.5	blank	1.0	224.2978436946869	2.509214162826538
46	197.3781599998474	pulse	1	t		44.0	2.5	blank	1.0	225.8817138671875	
46	198.30350399017334	fix_post	2		72	44.0	2.5	blank	1.0	226.80705785751343	0.5990538597106934
47	198.90255784988403	fix_pre	0		10	45.0	2.5	/experiments/aot/S_2RTDFkjD6vI_93.mp4	0.0	227.40611171722412	0.08336615562438965
47	198.97818279266357	pulse	0	t		45.0	2.5	/experiments/aot/S_2RTDFkjD6vI_93.mp4	0.0	227.48173666000366	
47	198.98592400550842	movie	1		301	45.0	2.5	/experiments/aot/S_2RTDFkjD6vI_93.mp4	0.0	227.4894778728485	2.5082778930664062
47	200.57811188697815	pulse	1	t		45.0	2.5	/experiments/aot/S_2RTDFkjD6vI_93.mp4	0.0	229.08166575431824	
47	201.49420189857483	fix_post	2		72	45.0	2.5	/experiments/aot/S_2RTDFkjD6vI_93.mp4	0.0	229.99775576591492	0.6011431217193604
48	202.0953450202942	fix_pre	0		12	46.0	2.5	/experiments/aot/S_pexels-mikhail-nilov-8410084_1.mp4	0.0	230.59889888763428	0.09890079498291016
48	202.17893600463867	pulse	0	t		46.0	2.5	/experiments/aot/S_pexels-mikhail-nilov-8410084_1.mp4	0.0	230.68248987197876	
48	202.1942458152771	movie	1		163	46.0	2.5	/experiments/aot/S_pexels-mikhail-nilov-8410084_1.mp4	0.0	230.6977996826172	2.5091822147369385
48	203.78635787963867	pulse	1	t		46.0	2.5	/experiments/aot/S_pexels-mikhail-nilov-8410084_1.mp4	0.0	232.28991174697876	
48	204.70342803001404	fix_post	2		72	46.0	2.5	/experiments/aot/S_pexels-mikhail-nilov-8410084_1.mp4	0.0	233.20698189735413	0.5999548435211182
49	205.30338287353516	fix_pre	0		11	47.0	2.5	/experiments/aot/S_yt-PaxmJhMoP3w_87.mp4	0.0	233.80693674087524	0.09166407585144043
49	205.37883281707764	pulse	0	t		47.0	2.5	/experiments/aot/S_yt-PaxmJhMoP3w_87.mp4	0.0	233.88238668441772	
49	205.3950469493866	movie	1		301	47.0	2.5	/experiments/aot/S_yt-PaxmJhMoP3w_87.mp4	0.0	233.89860081672668	2.5074989795684814
49	206.98338794708252	pulse	1	t		47.0	2.5	/experiments/aot/S_yt-PaxmJhMoP3w_87.mp4	0.0	235.4869418144226	
49	207.90254592895508	fix_post	2		72	47.0	2.5	/experiments/aot/S_yt-PaxmJhMoP3w_87.mp4	0.0	236.40609979629517	0.6003780364990234
50	208.5029239654541	fix_pre	0		11	48.0	2.5	blank	1.0	237.0064778327942	0.09126496315002441
50	208.57900500297546	pulse	0	t		48.0	2.5	blank	1.0	237.08255887031555	
50	208.59418892860413	movie	1		301	48.0	2.5	blank	1.0	237.0977427959442	2.5092649459838867
50	210.17885899543762	pulse	1	t		48.0	2.5	blank	1.0	238.6824128627777	
50	211.103453874588	fix_post	2		72	48.0	2.5	blank	1.0	239.6070077419281	0.5990381240844727
51	211.70249199867249	fix_pre	0		11	49.0	2.5	blank	1.0	240.20604586601257	0.09163880348205566
51	211.7788369655609	pulse	0	t		49.0	2.5	blank	1.0	240.282390832901	
51	211.79413080215454	movie	1		301	49.0	2.5	blank	1.0	240.29768466949463	2.508449077606201
51	213.37890887260437	pulse	1	t		49.0	2.5	blank	1.0	241.88246273994446	
51	214.30257987976074	fix_post	2		72	49.0	2.5	blank	1.0	242.80613374710083	0.5999331474304199
52	214.90251302719116	fix_pre	0		10	50.0	2.5	/experiments/aot/S_yt-c-H45QS0CF4_147.mp4	0.0	243.40606689453125	0.08328890800476074
52	214.97800588607788	pulse	0	t		50.0	2.5	/experiments/aot/S_yt-c-H45QS0CF4_147.mp4	0.0	243.48155975341797	
52	214.98580193519592	movie	1		301	50.0	2.5	/experiments/aot/S_yt-c-H45QS0CF4_147.mp4	0.0	243.489355802536	2.508384943008423
52	216.57807397842407	pulse	1	t		50.0	2.5	/experiments/aot/S_yt-c-H45QS0CF4_147.mp4	0.0	245.08162784576416	
52	217.49418687820435	fix_post	2		72	50.0	2.5	/experiments/aot/S_yt-c-H45QS0CF4_147.mp4	0.0	245.99774074554443	0.6007909774780273
53	218.09497785568237	fix_pre	0		12	51.0	2.5	/experiments/aot/S_ILSVRC2015_train_00762000.mp4	0.0	246.59853172302246	0.09912109375
53	218.17885398864746	pulse	0	t		51.0	2.5	/experiments/aot/S_ILSVRC2015_train_00762000.mp4	0.0	246.68240785598755	
53	218.19409894943237	movie	1		301	51.0	2.5	/experiments/aot/S_ILSVRC2015_train_00762000.mp4	0.0	246.69765281677246	2.508368968963623
53	219.78278398513794	pulse	1	t		51.0	2.5	/experiments/aot/S_ILSVRC2015_train_00762000.mp4	0.0	248.28633785247803	
53	220.702467918396	fix_post	2		72	51.0	2.5	/experiments/aot/S_ILSVRC2015_train_00762000.mp4	0.0	249.20602178573608	0.6000499725341797
54	221.30251789093018	fix_pre	0		11	52.0	2.5	/experiments/aot/S_yt-n_eO-7KedAE_21.mp4	0.0	249.80607175827026	0.0917510986328125
54	221.37881183624268	pulse	0	t		52.0	2.5	/experiments/aot/S_yt-n_eO-7KedAE_21.mp4	0.0	249.88236570358276	
54	221.394268989563	movie	1		301	52.0	2.5	/experiments/aot/S_yt-n_eO-7KedAE_21.mp4	0.0	249.89782285690308	2.5082058906555176
54	222.98224091529846	pulse	1	t		52.0	2.5	/experiments/aot/S_yt-n_eO-7KedAE_21.mp4	0.0	251.48579478263855	
54	223.9024748802185	fix_post	2		72	52.0	2.5	/experiments/aot/S_yt-n_eO-7KedAE_21.mp4	0.0	252.4060287475586	0.5999691486358643
55	224.50244402885437	fix_pre	0		11	53.0	2.5	/experiments/aot/S_production_ID_3735542.mp4	0.0	253.00599789619446	0.0920259952545166
55	224.5788128376007	pulse	0	t		53.0	2.5	/experiments/aot/S_production_ID_3735542.mp4	0.0	253.0823667049408	
55	224.5944700241089	movie	1		161	53.0	2.5	/experiments/aot/S_production_ID_3735542.mp4	0.0	253.09802389144897	2.5088958740234375
55	226.1869978904724	pulse	1	t		53.0	2.5	/experiments/aot/S_production_ID_3735542.mp4	0.0	254.6905517578125	
55	227.10336589813232	fix_post	2		72	53.0	2.5	/experiments/aot/S_production_ID_3735542.mp4	0.0	255.6069197654724	0.6000809669494629
56	227.7034468650818	fix_pre	0		11	54.0	2.5	blank	1.0	256.2070007324219	0.09070801734924316
56	227.7787799835205	pulse	0	t		54.0	2.5	blank	1.0	256.2823338508606	
56	227.79415488243103	movie	1		301	54.0	2.5	blank	1.0	256.2977087497711	2.5093629360198975
56	229.3788549900055	pulse	1	t		54.0	2.5	blank	1.0	257.8824088573456	
56	230.30351781845093	fix_post	2		72	54.0	2.5	blank	1.0	258.807071685791	0.5999231338500977
57	230.90344095230103	fix_pre	0		10	55.0	2.5	/experiments/aot/S_yt-qsyDLtXcyHc_8.mp4	0.0	259.4069948196411	0.08326506614685059
57	230.97805380821228	pulse	0	t		55.0	2.5	/experiments/aot/S_yt-qsyDLtXcyHc_8.mp4	0.0	259.48160767555237	
57	230.98670601844788	movie	1		301	55.0	2.5	/experiments/aot/S_yt-qsyDLtXcyHc_8.mp4	0.0	259.49025988578796	2.508495807647705
57	232.57812690734863	pulse	1	t		55.0	2.5	/experiments/aot/S_yt-qsyDLtXcyHc_8.mp4	0.0	261.0816807746887	
57	233.49520182609558	fix_post	2		72	55.0	2.5	/experiments/aot/S_yt-qsyDLtXcyHc_8.mp4	0.0	261.99875569343567	0.5992410182952881
58	234.09444284439087	fix_pre	0		12	56.0	2.5	blank	1.0	262.59799671173096	0.10090899467468262
58	234.17910385131836	pulse	0	t		56.0	2.5	blank	1.0	262.68265771865845	
58	234.19535183906555	movie	1		301	56.0	2.5	blank	1.0	262.69890570640564	2.507111072540283
58	235.77877187728882	pulse	1	t		56.0	2.5	blank	1.0	264.2823257446289	
58	236.70246291160583	fix_post	2		72	56.0	2.5	blank	1.0	265.2060167789459	0.6008620262145996
59	237.30332493782043	fix_pre	0		11	57.0	2.5	/experiments/aot/S_ILSVRC2015_train_00423000.mp4	0.0	265.8068788051605	0.0907590389251709
59	237.37875294685364	pulse	0	t		57.0	2.5	/experiments/aot/S_ILSVRC2015_train_00423000.mp4	0.0	265.8823068141937	
59	237.3940839767456	movie	1		301	57.0	2.5	/experiments/aot/S_ILSVRC2015_train_00423000.mp4	0.0	265.8976378440857	2.509239912033081
59	238.98196601867676	pulse	1	t		57.0	2.5	/experiments/aot/S_ILSVRC2015_train_00423000.mp4	0.0	267.48551988601685	
59	239.9033238887787	fix_post	2		72	57.0	2.5	/experiments/aot/S_ILSVRC2015_train_00423000.mp4	0.0	268.4068777561188	0.6000359058380127
60	240.5033597946167	fix_pre	0		11	58.0	2.5	/experiments/aot/S_yt-QTGIhecBZjc_19.mp4	0.0	269.0069136619568	0.0906682014465332
60	240.57872080802917	pulse	0	t		58.0	2.5	/experiments/aot/S_yt-QTGIhecBZjc_19.mp4	0.0	269.08227467536926	
60	240.59402799606323	movie	1		301	58.0	2.5	/experiments/aot/S_yt-QTGIhecBZjc_19.mp4	0.0	269.0975818634033	2.5092828273773193
60	242.18199801445007	pulse	1	t		58.0	2.5	/experiments/aot/S_yt-QTGIhecBZjc_19.mp4	0.0	270.68555188179016	
60	243.10331082344055	fix_post	2		72	58.0	2.5	/experiments/aot/S_yt-QTGIhecBZjc_19.mp4	0.0	271.60686469078064	0.6000750064849854
61	243.70338582992554	fix_pre	0		11	59.0	2.5	/experiments/aot/S_yt-TxU1H5A6BaQ_52.mp4	0.0	272.2069396972656	0.09066414833068848
61	243.77869987487793	pulse	0	t		59.0	2.5	/experiments/aot/S_yt-TxU1H5A6BaQ_52.mp4	0.0	272.282253742218	
61	243.79404997825623	movie	1		301	59.0	2.5	/experiments/aot/S_yt-TxU1H5A6BaQ_52.mp4	0.0	272.2976038455963	2.5082809925079346
61	245.38200402259827	pulse	1	t		59.0	2.5	/experiments/aot/S_yt-TxU1H5A6BaQ_52.mp4	0.0	273.88555788993835	
61	246.30233097076416	fix_post	2		72	59.0	2.5	/experiments/aot/S_yt-TxU1H5A6BaQ_52.mp4	0.0	274.80588483810425	0.6010088920593262
62	246.9033398628235	fix_pre	0		11	60.0	2.5	/experiments/aot/S_yt-K-iCphzt_RE_17.mp4	0.0	275.4068937301636	0.09075403213500977
62	246.97872400283813	pulse	0	t		60.0	2.5	/experiments/aot/S_yt-K-iCphzt_RE_17.mp4	0.0	275.4822778701782	
62	246.9940938949585	movie	1		301	60.0	2.5	/experiments/aot/S_yt-K-iCphzt_RE_17.mp4	0.0	275.4976477622986	2.508219003677368
62	248.5819878578186	pulse	1	t		60.0	2.5	/experiments/aot/S_yt-K-iCphzt_RE_17.mp4	0.0	277.0855417251587	
62	249.50231289863586	fix_post	2		72	60.0	2.5	/experiments/aot/S_yt-K-iCphzt_RE_17.mp4	0.0	278.00586676597595	0.6000659465789795
63	250.10237884521484	fix_pre	0		11	61.0	2.5	/experiments/aot/S_pexels-koolshooters-7327401_1.mp4	0.0	278.60593271255493	0.09167695045471191
63	250.18625497817993	pulse	0	t		61.0	2.5	/experiments/aot/S_pexels-koolshooters-7327401_1.mp4	0.0	278.68980884552	
63	250.19405579566956	movie	1		162	61.0	2.5	/experiments/aot/S_pexels-koolshooters-7327401_1.mp4	0.0	278.69760966300964	2.5091872215270996
63	251.7873899936676	pulse	1	t		61.0	2.5	/experiments/aot/S_pexels-koolshooters-7327401_1.mp4	0.0	280.2909438610077	
63	252.70324301719666	fix_post	2		72	61.0	2.5	/experiments/aot/S_pexels-koolshooters-7327401_1.mp4	0.0	281.20679688453674	0.5990879535675049
64	253.30233097076416	fix_pre	0		10	62.0	2.5	/experiments/aot/S_ILSVRC2015_train_00569003.mp4	0.0	281.80588483810425	0.08339190483093262
64	253.3792119026184	pulse	0	t		62.0	2.5	/experiments/aot/S_ILSVRC2015_train_00569003.mp4	0.0	281.8827657699585	
64	253.3857228755951	movie	1		301	62.0	2.5	/experiments/aot/S_ILSVRC2015_train_00569003.mp4	0.0	281.8892767429352	2.5082759857177734
64	254.9789378643036	pulse	1	t		62.0	2.5	/experiments/aot/S_ILSVRC2015_train_00569003.mp4	0.0	283.4824917316437	
64	255.89399886131287	fix_post	2		72	62.0	2.5	/experiments/aot/S_ILSVRC2015_train_00569003.mp4	0.0	284.39755272865295	0.5999679565429688
65	256.49396681785583	fix_pre	0		12	63.0	2.5	/experiments/aot/S_production_ID_3712945.mp4	0.0	284.9975206851959	0.1000831127166748
65	256.5786118507385	pulse	0	t		63.0	2.5	/experiments/aot/S_production_ID_3712945.mp4	0.0	285.0821657180786	
65	256.5940499305725	movie	1		162	63.0	2.5	/experiments/aot/S_production_ID_3712945.mp4	0.0	285.0976037979126	2.5082249641418457
65	258.1856119632721	pulse	1	t		63.0	2.5	/experiments/aot/S_production_ID_3712945.mp4	0.0	286.6891658306122	
65	259.10227489471436	fix_post	2		72	63.0	2.5	/experiments/aot/S_production_ID_3712945.mp4	0.0	287.60582876205444	0.5999948978424072
66	259.70226979255676	fix_pre	0		11	64.0	2.5	/experiments/aot/S_yt-ieA3XwoSko4_98.mp4	0.0	288.20582365989685	0.09171700477600098
66	259.77884101867676	pulse	0	t		64.0	2.5	/experiments/aot/S_yt-ieA3XwoSko4_98.mp4	0.0	288.28239488601685	
66	259.79398679733276	movie	1		301	64.0	2.5	/experiments/aot/S_yt-ieA3XwoSko4_98.mp4	0.0	288.29754066467285	2.5083250999450684
66	261.38192081451416	pulse	1	t		64.0	2.5	/experiments/aot/S_yt-ieA3XwoSko4_98.mp4	0.0	289.88547468185425	
66	262.30231189727783	fix_post	2		72	64.0	2.5	/experiments/aot/S_yt-ieA3XwoSko4_98.mp4	0.0	290.8058657646179	0.6008329391479492
67	262.9031448364258	fix_pre	0		11	65.0	2.5	/experiments/aot/S_ILSVRC2015_train_00411000.mp4	0.0	291.40669870376587	0.09078407287597656
67	262.9786229133606	pulse	0	t		65.0	2.5	/experiments/aot/S_ILSVRC2015_train_00411000.mp4	0.0	291.4821767807007	
67	262.99392890930176	movie	1		301	65.0	2.5	/experiments/aot/S_ILSVRC2015_train_00411000.mp4	0.0	291.49748277664185	2.5082650184631348
67	264.5821099281311	pulse	1	t		65.0	2.5	/experiments/aot/S_ILSVRC2015_train_00411000.mp4	0.0	293.0856637954712	
67	265.5021939277649	fix_post	2		72	65.0	2.5	/experiments/aot/S_ILSVRC2015_train_00411000.mp4	0.0	294.005747795105	0.6001510620117188
68	266.1023449897766	fix_pre	0		11	66.0	2.5	/experiments/aot/S_yt-aiWUhl8MCto_71.mp4	0.0	294.6058988571167	0.09205889701843262
68	266.1861479282379	pulse	0	t		66.0	2.5	/experiments/aot/S_yt-aiWUhl8MCto_71.mp4	0.0	294.689701795578	
68	266.19440388679504	movie	1		301	66.0	2.5	/experiments/aot/S_yt-aiWUhl8MCto_71.mp4	0.0	294.69795775413513	2.507848024368286
68	267.78311800956726	pulse	1	t		66.0	2.5	/experiments/aot/S_yt-aiWUhl8MCto_71.mp4	0.0	296.28667187690735	
68	268.70225191116333	fix_post	2		72	66.0	2.5	/experiments/aot/S_yt-aiWUhl8MCto_71.mp4	0.0	297.2058057785034	0.5999999046325684
69	269.3022518157959	fix_pre	0		11	67.0	2.5	/experiments/aot/S_yt-LB9LoYfH_EA_15.mp4	0.0	297.805805683136	0.09163618087768555
69	269.38610887527466	pulse	0	t		67.0	2.5	/experiments/aot/S_yt-LB9LoYfH_EA_15.mp4	0.0	297.88966274261475	
69	269.3938879966736	movie	1		301	67.0	2.5	/experiments/aot/S_yt-LB9LoYfH_EA_15.mp4	0.0	297.8974418640137	2.508349895477295
69	270.98202991485596	pulse	1	t		67.0	2.5	/experiments/aot/S_yt-LB9LoYfH_EA_15.mp4	0.0	299.48558378219604	
69	271.9022378921509	fix_post	2		72	67.0	2.5	/experiments/aot/S_yt-LB9LoYfH_EA_15.mp4	0.0	300.40579175949097	0.5999751091003418
70	272.5022130012512	fix_pre	0		11	68.0	2.5	blank	1.0	301.0057668685913	0.09162497520446777
70	272.5786669254303	pulse	0	t		68.0	2.5	blank	1.0	301.0822207927704	
70	272.5938379764557	movie	1		301	68.0	2.5	blank	1.0	301.0973918437958	2.508347988128662
70	274.1786530017853	pulse	1	t		68.0	2.5	blank	1.0	302.68220686912537	
70	275.10218596458435	fix_post	2		72	68.0	2.5	blank	1.0	303.60573983192444	0.6000008583068848
71	275.70218682289124	fix_pre	0		11	69.0	2.5	/experiments/aot/S_Nh81j72Utbs_5.mp4	0.0	304.2057406902313	0.09169697761535645
71	275.77858781814575	pulse	0	t		69.0	2.5	/experiments/aot/S_Nh81j72Utbs_5.mp4	0.0	304.28214168548584	
71	275.7938838005066	movie	1		301	69.0	2.5	/experiments/aot/S_Nh81j72Utbs_5.mp4	0.0	304.2974376678467	2.508291006088257
71	277.38187193870544	pulse	1	t		69.0	2.5	/experiments/aot/S_Nh81j72Utbs_5.mp4	0.0	305.88542580604553	
71	278.30217480659485	fix_post	2		72	69.0	2.5	/experiments/aot/S_Nh81j72Utbs_5.mp4	0.0	306.80572867393494	0.5999531745910645
72	278.9021279811859	fix_pre	0		11	70.0	2.5	/experiments/aot/S_yt--OkafQ5VFHs_51.mp4	0.0	307.405681848526	0.09169983863830566
72	278.9786069393158	pulse	0	t		70.0	2.5	/experiments/aot/S_yt--OkafQ5VFHs_51.mp4	0.0	307.4821608066559	
72	278.9938278198242	movie	1		301	70.0	2.5	/experiments/aot/S_yt--OkafQ5VFHs_51.mp4	0.0	307.4973816871643	2.508342981338501
72	280.5818169116974	pulse	1	t		70.0	2.5	/experiments/aot/S_yt--OkafQ5VFHs_51.mp4	0.0	309.0853707790375	
72	281.5021708011627	fix_post	2		72	70.0	2.5	/experiments/aot/S_yt--OkafQ5VFHs_51.mp4	0.0	310.0057246685028	0.6009140014648438
73	282.10308480262756	fix_pre	0		11	71.0	2.5	blank	1.0	310.60663866996765	0.09078121185302734
73	282.18610191345215	pulse	0	t		71.0	2.5	blank	1.0	310.68965578079224	
73	282.1938660144806	movie	1		301	71.0	2.5	blank	1.0	310.6974198818207	2.508312940597534
73	283.7861068248749	pulse	1	t		71.0	2.5	blank	1.0	312.28966069221497	
73	284.7021789550781	fix_post	2		72	71.0	2.5	blank	1.0	313.2057328224182	0.5999939441680908
74	285.3021728992462	fix_pre	0		11	72.0	2.5	/experiments/aot/S_yt-9Ow95khYa_M_91.mp4	0.0	313.8057267665863	0.09168195724487305
74	285.38609981536865	pulse	0	t		72.0	2.5	/experiments/aot/S_yt-9Ow95khYa_M_91.mp4	0.0	313.88965368270874	
74	285.3938548564911	movie	1		301	72.0	2.5	/experiments/aot/S_yt-9Ow95khYa_M_91.mp4	0.0	313.8974087238312	2.5083110332489014
74	286.98121094703674	pulse	1	t		72.0	2.5	/experiments/aot/S_yt-9Ow95khYa_M_91.mp4	0.0	315.48476481437683	
74	287.90216588974	fix_post	2		72	72.0	2.5	/experiments/aot/S_yt-9Ow95khYa_M_91.mp4	0.0	316.4057197570801	0.600959062576294
75	288.5031249523163	fix_pre	0		11	73.0	2.5	blank	1.0	317.0066788196564	0.09084606170654297
75	288.585706949234	pulse	0	t		73.0	2.5	blank	1.0	317.0892608165741	
75	288.5939710140228	movie	1		301	73.0	2.5	blank	1.0	317.0975248813629	2.508194923400879
75	290.17859387397766	pulse	1	t		73.0	2.5	blank	1.0	318.68214774131775	
75	291.1021659374237	fix_post	2		72	73.0	2.5	blank	1.0	319.6057198047638	0.6001489162445068
76	291.7023148536682	fix_pre	0		11	74.0	2.5	/experiments/aot/S_yt-OFnDCbW9Ebo_31.mp4	0.0	320.2058687210083	0.09151601791381836
76	291.77851486206055	pulse	0	t		74.0	2.5	/experiments/aot/S_yt-OFnDCbW9Ebo_31.mp4	0.0	320.28206872940063	
76	291.79383087158203	movie	1		301	74.0	2.5	/experiments/aot/S_yt-OFnDCbW9Ebo_31.mp4	0.0	320.2973847389221	2.5083489418029785
76	293.3818428516388	pulse	1	t		74.0	2.5	/experiments/aot/S_yt-OFnDCbW9Ebo_31.mp4	0.0	321.8853967189789	
76	294.302179813385	fix_post	2		72	74.0	2.5	/experiments/aot/S_yt-OFnDCbW9Ebo_31.mp4	0.0	322.8057336807251	0.5999531745910645
77	294.9021329879761	fix_pre	0		11	75.0	2.5	/experiments/aot/S_yt-oxUpc8I5wWQ_238.mp4	0.0	323.40568685531616	0.09163904190063477
77	294.9786138534546	pulse	0	t		75.0	2.5	/experiments/aot/S_yt-oxUpc8I5wWQ_238.mp4	0.0	323.4821677207947	
77	294.9937720298767	movie	1		301	75.0	2.5	/experiments/aot/S_yt-oxUpc8I5wWQ_238.mp4	0.0	323.4973258972168	2.508347988128662
77	296.58177280426025	pulse	1	t		75.0	2.5	/experiments/aot/S_yt-oxUpc8I5wWQ_238.mp4	0.0	325.08532667160034	
77	297.50212001800537	fix_post	2		72	75.0	2.5	/experiments/aot/S_yt-oxUpc8I5wWQ_238.mp4	0.0	326.00567388534546	0.6000127792358398
78	298.1021327972412	fix_pre	0		11	76.0	2.5	/experiments/aot/S_pexels-tima-miroshnichenko-5717005.mp4	0.0	326.6056866645813	0.09163022041320801
78	298.18590688705444	pulse	0	t		76.0	2.5	/experiments/aot/S_pexels-tima-miroshnichenko-5717005.mp4	0.0	326.68946075439453	
78	298.1937630176544	movie	1		161	76.0	2.5	/experiments/aot/S_pexels-tima-miroshnichenko-5717005.mp4	0.0	326.6973168849945	2.5083649158477783
78	299.78539299964905	pulse	1	t		76.0	2.5	/experiments/aot/S_pexels-tima-miroshnichenko-5717005.mp4	0.0	328.28894686698914	
78	300.7021279335022	fix_post	2		72	76.0	2.5	/experiments/aot/S_pexels-tima-miroshnichenko-5717005.mp4	0.0	329.2056818008423	0.6007969379425049
79	301.3029248714447	fix_pre	0		10	77.0	2.5	/experiments/aot/S_yt-t8NfuFA7OlM_26.mp4	0.0	329.8064787387848	0.08274698257446289
79	301.37880086898804	pulse	0	t		77.0	2.5	/experiments/aot/S_yt-t8NfuFA7OlM_26.mp4	0.0	329.8823547363281	
79	301.38567185401917	movie	1		301	77.0	2.5	/experiments/aot/S_yt-t8NfuFA7OlM_26.mp4	0.0	329.88922572135925	2.5081310272216797
79	302.98584485054016	pulse	1	t		77.0	2.5	/experiments/aot/S_yt-t8NfuFA7OlM_26.mp4	0.0	331.48939871788025	
79	303.89380288124084	fix_post	2		72	77.0	2.5	/experiments/aot/S_yt-t8NfuFA7OlM_26.mp4	0.0	332.39735674858093	0.5999810695648193
80	304.49378395080566	fix_pre	0		12	78.0	2.5	blank	1.0	332.99733781814575	0.09994792938232422
80	304.5859479904175	pulse	0	t		78.0	2.5	blank	1.0	333.08950185775757	
80	304.593731880188	movie	1		301	78.0	2.5	blank	1.0	333.0972857475281	2.509268045425415
80	306.1860008239746	pulse	1	t		78.0	2.5	blank	1.0	334.6895546913147	
80	307.1029999256134	fix_post	2		72	78.0	2.5	blank	1.0	335.6065537929535	0.5990869998931885
81	307.7020869255066	fix_pre	0		11	79.0	2.5	/experiments/aot/S_yt-1sn8u-rQRas_7.mp4	0.0	336.2056407928467	0.0917060375213623
81	307.77838587760925	pulse	0	t		79.0	2.5	/experiments/aot/S_yt-1sn8u-rQRas_7.mp4	0.0	336.28193974494934	
81	307.79379296302795	movie	1		301	79.0	2.5	/experiments/aot/S_yt-1sn8u-rQRas_7.mp4	0.0	336.29734683036804	2.5091750621795654
81	309.3815460205078	pulse	1	t		79.0	2.5	/experiments/aot/S_yt-1sn8u-rQRas_7.mp4	0.0	337.8850998878479	
81	310.3029680252075	fix_post	2		72	79.0	2.5	/experiments/aot/S_yt-1sn8u-rQRas_7.mp4	0.0	338.8065218925476	0.5990338325500488
82	310.90200185775757	fix_pre	0		11	80.0	2.5	/experiments/aot/S_yt-9EnchawJ3pA_90.mp4	0.0	339.40555572509766	0.09167003631591797
82	310.978374004364	pulse	0	t		80.0	2.5	/experiments/aot/S_yt-9EnchawJ3pA_90.mp4	0.0	339.4819278717041	
82	310.9936718940735	movie	1		301	80.0	2.5	/experiments/aot/S_yt-9EnchawJ3pA_90.mp4	0.0	339.4972257614136	2.509155035018921
82	312.58188486099243	pulse	1	t		80.0	2.5	/experiments/aot/S_yt-9EnchawJ3pA_90.mp4	0.0	341.0854387283325	
82	313.5028269290924	fix_post	2		72	80.0	2.5	/experiments/aot/S_yt-9EnchawJ3pA_90.mp4	0.0	342.0063807964325	0.5992379188537598
83	314.10206484794617	fix_pre	0		11	81.0	2.5	/experiments/aot/S_yt-vQ-rd-1gwH4_238.mp4	0.0	342.60561871528625	0.09164905548095703
83	314.18595600128174	pulse	0	t		81.0	2.5	/experiments/aot/S_yt-vQ-rd-1gwH4_238.mp4	0.0	342.6895098686218	
83	314.1937139034271	movie	1		301	81.0	2.5	/experiments/aot/S_yt-vQ-rd-1gwH4_238.mp4	0.0	342.6972677707672	2.508316993713379
83	315.78179001808167	pulse	1	t		81.0	2.5	/experiments/aot/S_yt-vQ-rd-1gwH4_238.mp4	0.0	344.28534388542175	
83	316.7020308971405	fix_post	2		72	81.0	2.5	/experiments/aot/S_yt-vQ-rd-1gwH4_238.mp4	0.0	345.2055847644806	0.5999979972839355
84	317.30202889442444	fix_pre	0		11	82.0	2.5	/experiments/aot/S_yt-6mRpmfIvdew_1435.mp4	0.0	345.8055827617645	0.09167909622192383
84	317.3859238624573	pulse	0	t		82.0	2.5	/experiments/aot/S_yt-6mRpmfIvdew_1435.mp4	0.0	345.88947772979736	
84	317.39370799064636	movie	1		301	82.0	2.5	/experiments/aot/S_yt-6mRpmfIvdew_1435.mp4	0.0	345.89726185798645	2.508265972137451
84	318.9817998409271	pulse	1	t		82.0	2.5	/experiments/aot/S_yt-6mRpmfIvdew_1435.mp4	0.0	347.4853537082672	
84	319.9019739627838	fix_post	2		72	82.0	2.5	/experiments/aot/S_yt-6mRpmfIvdew_1435.mp4	0.0	348.4055278301239	0.6000218391418457
85	320.50199580192566	fix_pre	0		11	83.0	2.5	/experiments/aot/S_yt-KVB49z48sZU_55.mp4	0.0	349.00554966926575	0.09162712097167969
85	320.58590602874756	pulse	0	t		83.0	2.5	/experiments/aot/S_yt-KVB49z48sZU_55.mp4	0.0	349.08945989608765	
85	320.59362292289734	movie	1		301	83.0	2.5	/experiments/aot/S_yt-KVB49z48sZU_55.mp4	0.0	349.0971767902374	2.5084309577941895
85	322.1817510128021	pulse	1	t		83.0	2.5	/experiments/aot/S_yt-KVB49z48sZU_55.mp4	0.0	350.6853048801422	
85	323.1020538806915	fix_post	2		72	83.0	2.5	/experiments/aot/S_yt-KVB49z48sZU_55.mp4	0.0	351.6056077480316	0.5999500751495361
86	323.70200395584106	fix_pre	0		11	84.0	2.5	/experiments/aot/S_ILSVRC2015_train_00165008.mp4	0.0	352.20555782318115	0.0916600227355957
86	323.7786009311676	pulse	0	t		84.0	2.5	/experiments/aot/S_ILSVRC2015_train_00165008.mp4	0.0	352.2821547985077	
86	323.79366397857666	movie	1		301	84.0	2.5	/experiments/aot/S_ILSVRC2015_train_00165008.mp4	0.0	352.29721784591675	2.508302927017212
86	325.38162994384766	pulse	1	t		84.0	2.5	/experiments/aot/S_ILSVRC2015_train_00165008.mp4	0.0	353.88518381118774	
86	326.3019669055939	fix_post	2		72	84.0	2.5	/experiments/aot/S_ILSVRC2015_train_00165008.mp4	0.0	354.80552077293396	0.5999789237976074
87	326.9019458293915	fix_pre	0		11	85.0	2.5	/experiments/aot/S_nTA7B2uHaCQ_1.mp4	0.0	355.40549969673157	0.09170699119567871
87	326.9783499240875	pulse	0	t		85.0	2.5	/experiments/aot/S_nTA7B2uHaCQ_1.mp4	0.0	355.4819037914276	
87	326.99365282058716	movie	1		301	85.0	2.5	/experiments/aot/S_nTA7B2uHaCQ_1.mp4	0.0	355.49720668792725	2.508228063583374
87	328.58259892463684	pulse	1	t		85.0	2.5	/experiments/aot/S_nTA7B2uHaCQ_1.mp4	0.0	357.08615279197693	
87	329.50188088417053	fix_post	2		72	85.0	2.5	/experiments/aot/S_nTA7B2uHaCQ_1.mp4	0.0	358.0054347515106	0.6000590324401855
88	330.1019399166107	fix_pre	0		11	86.0	2.5	/experiments/aot/S_yt-zKnjBBYWe90_369.mp4	0.0	358.6054937839508	0.09167695045471191
88	330.1858789920807	pulse	0	t		86.0	2.5	/experiments/aot/S_yt-zKnjBBYWe90_369.mp4	0.0	358.6894328594208	
88	330.19361686706543	movie	1		301	86.0	2.5	/experiments/aot/S_yt-zKnjBBYWe90_369.mp4	0.0	358.6971707344055	2.5083119869232178
88	331.7817108631134	pulse	1	t		86.0	2.5	/experiments/aot/S_yt-zKnjBBYWe90_369.mp4	0.0	360.2852647304535	
88	332.70192885398865	fix_post	2		72	86.0	2.5	/experiments/aot/S_yt-zKnjBBYWe90_369.mp4	0.0	361.20548272132874	0.6000261306762695
89	333.3019549846649	fix_pre	0		11	87.0	2.5	/experiments/aot/S_yt-aSEKRE_FNaI_62.mp4	0.0	361.805508852005	0.09162592887878418
89	333.3858449459076	pulse	0	t		87.0	2.5	/experiments/aot/S_yt-aSEKRE_FNaI_62.mp4	0.0	361.8893988132477	
89	333.3935809135437	movie	1		301	87.0	2.5	/experiments/aot/S_yt-aSEKRE_FNaI_62.mp4	0.0	361.8971347808838	2.5092029571533203
89	334.9817337989807	pulse	1	t		87.0	2.5	/experiments/aot/S_yt-aSEKRE_FNaI_62.mp4	0.0	363.4852876663208	
89	335.902783870697	fix_post	2		72	87.0	2.5	/experiments/aot/S_yt-aSEKRE_FNaI_62.mp4	0.0	364.4063377380371	0.5999879837036133
90	336.50277185440063	fix_pre	0		11	88.0	2.5	/experiments/aot/S_yt-Fm97IY0Z2LU_110.mp4	0.0	365.0063257217407	0.09207606315612793
90	336.5858609676361	pulse	0	t		88.0	2.5	/experiments/aot/S_yt-Fm97IY0Z2LU_110.mp4	0.0	365.0894148349762	
90	336.59484791755676	movie	1		301	88.0	2.5	/experiments/aot/S_yt-Fm97IY0Z2LU_110.mp4	0.0	365.09840178489685	2.507075071334839
90	338.18208479881287	pulse	1	t		88.0	2.5	/experiments/aot/S_yt-Fm97IY0Z2LU_110.mp4	0.0	366.68563866615295	
90	339.1019229888916	fix_post	2		72	88.0	2.5	/experiments/aot/S_yt-Fm97IY0Z2LU_110.mp4	0.0	367.6054768562317	0.5999948978424072
91	339.701917886734	fix_pre	0		11	89.0	2.5	/experiments/aot/S_flickr-clarkstonscamp-4863427159_1.mp4	0.0	368.2054717540741	0.09163308143615723
91	339.7858428955078	pulse	0	t		89.0	2.5	/experiments/aot/S_flickr-clarkstonscamp-4863427159_1.mp4	0.0	368.2893967628479	
91	339.79355096817017	movie	1		301	89.0	2.5	/experiments/aot/S_flickr-clarkstonscamp-4863427159_1.mp4	0.0	368.29710483551025	2.508368968963623
91	341.3816468715668	pulse	1	t		89.0	2.5	/experiments/aot/S_flickr-clarkstonscamp-4863427159_1.mp4	0.0	369.88520073890686	
91	342.3019199371338	fix_post	2		72	89.0	2.5	/experiments/aot/S_flickr-clarkstonscamp-4863427159_1.mp4	0.0	370.8054738044739	0.5999550819396973
92	342.9018750190735	fix_pre	0		11	90.0	2.5	/experiments/aot/S_yt-hTkrnNr39dk_202.mp4	0.0	371.4054288864136	0.09170293807983398
92	342.98535799980164	pulse	0	t		90.0	2.5	/experiments/aot/S_yt-hTkrnNr39dk_202.mp4	0.0	371.4889118671417	
92	342.9935779571533	movie	1		301	90.0	2.5	/experiments/aot/S_yt-hTkrnNr39dk_202.mp4	0.0	371.4971318244934	2.5085768699645996
92	344.58171582221985	pulse	1	t		90.0	2.5	/experiments/aot/S_yt-hTkrnNr39dk_202.mp4	0.0	373.08526968955994	
92	345.5021548271179	fix_post	2		72	90.0	2.5	/experiments/aot/S_yt-hTkrnNr39dk_202.mp4	0.0	374.005708694458	0.6005940437316895
93	346.1027488708496	fix_pre	0		11	91.0	2.5	/experiments/aot/S_yt-zam74qlzGtQ_122.mp4	0.0	374.6063027381897	0.09071707725524902
93	346.1857798099518	pulse	0	t		91.0	2.5	/experiments/aot/S_yt-zam74qlzGtQ_122.mp4	0.0	374.68933367729187	
93	346.19346594810486	movie	1		301	91.0	2.5	/experiments/aot/S_yt-zam74qlzGtQ_122.mp4	0.0	374.69701981544495	2.5083539485931396
93	347.7816438674927	pulse	1	t		91.0	2.5	/experiments/aot/S_yt-zam74qlzGtQ_122.mp4	0.0	376.28519773483276	
93	348.701819896698	fix_post	2		72	91.0	2.5	/experiments/aot/S_yt-zam74qlzGtQ_122.mp4	0.0	377.2053737640381	0.6000471115112305
94	349.30186700820923	fix_pre	0		11	92.0	2.5	/experiments/aot/S_ILSVRC2015_train_00369004.mp4	0.0	377.8054208755493	0.09251284599304199
94	349.3857579231262	pulse	0	t		92.0	2.5	/experiments/aot/S_ILSVRC2015_train_00369004.mp4	0.0	377.8893117904663	
94	349.39437985420227	movie	1		301	92.0	2.5	/experiments/aot/S_ILSVRC2015_train_00369004.mp4	0.0	377.89793372154236	2.5074379444122314
94	350.9816098213196	pulse	1	t		92.0	2.5	/experiments/aot/S_ILSVRC2015_train_00369004.mp4	0.0	379.48516368865967	
94	351.9018177986145	fix_post	2		72	92.0	2.5	/experiments/aot/S_ILSVRC2015_train_00369004.mp4	0.0	380.4053716659546	0.6000871658325195
95	352.501904964447	fix_pre	0		11	93.0	2.5	/experiments/aot/S_yt-y3tyx6cZjmA_412.mp4	0.0	381.0054588317871	0.09155797958374023
95	352.5857448577881	pulse	0	t		93.0	2.5	/experiments/aot/S_yt-y3tyx6cZjmA_412.mp4	0.0	381.0892987251282	
95	352.59346294403076	movie	1		301	93.0	2.5	/experiments/aot/S_yt-y3tyx6cZjmA_412.mp4	0.0	381.09701681137085	2.5083720684051514
95	354.18149185180664	pulse	1	t		93.0	2.5	/experiments/aot/S_yt-y3tyx6cZjmA_412.mp4	0.0	382.68504571914673	
95	355.1018350124359	fix_post	2		72	93.0	2.5	/experiments/aot/S_yt-y3tyx6cZjmA_412.mp4	0.0	383.605388879776	0.6000080108642578
96	355.70184302330017	fix_pre	0		11	94.0	2.5	/experiments/aot/S_bing-vimeo_com_161378598_22.mp4	0.0	384.20539689064026	0.0920867919921875
96	355.78566098213196	pulse	0	t		94.0	2.5	/experiments/aot/S_bing-vimeo_com_161378598_22.mp4	0.0	384.28921484947205	
96	355.79392981529236	movie	1		161	94.0	2.5	/experiments/aot/S_bing-vimeo_com_161378598_22.mp4	0.0	384.29748368263245	2.507858991622925
96	357.38551783561707	pulse	1	t		94.0	2.5	/experiments/aot/S_bing-vimeo_com_161378598_22.mp4	0.0	385.88907170295715	
96	358.3017888069153	fix_post	2		72	94.0	2.5	/experiments/aot/S_bing-vimeo_com_161378598_22.mp4	0.0	386.80534267425537	0.5999701023101807
97	358.90175890922546	fix_pre	0		11	95.0	2.5	/experiments/aot/S_yt-AiXq1oDrEXI_123.mp4	0.0	387.40531277656555	0.09313702583312988
97	358.98571395874023	pulse	0	t		95.0	2.5	/experiments/aot/S_yt-AiXq1oDrEXI_123.mp4	0.0	387.4892678260803	
97	358.9948959350586	movie	1		301	95.0	2.5	/experiments/aot/S_yt-AiXq1oDrEXI_123.mp4	0.0	387.4984498023987	2.5068469047546387
97	360.5821249485016	pulse	1	t		95.0	2.5	/experiments/aot/S_yt-AiXq1oDrEXI_123.mp4	0.0	389.0856788158417	
97	361.50174283981323	fix_post	2		72	95.0	2.5	/experiments/aot/S_yt-AiXq1oDrEXI_123.mp4	0.0	390.0052967071533	0.600100040435791
98	362.101842880249	fix_pre	0		11	96.0	2.5	/experiments/aot/S_production_ID_5119260.mp4	0.0	390.6053967475891	0.09160494804382324
98	362.1857159137726	pulse	0	t		96.0	2.5	/experiments/aot/S_production_ID_5119260.mp4	0.0	390.68926978111267	
98	362.19344782829285	movie	1		161	96.0	2.5	/experiments/aot/S_production_ID_5119260.mp4	0.0	390.69700169563293	2.508345127105713
98	363.7868609428406	pulse	1	t		96.0	2.5	/experiments/aot/S_production_ID_5119260.mp4	0.0	392.29041481018066	
98	364.70179295539856	fix_post	2		72	96.0	2.5	/experiments/aot/S_production_ID_5119260.mp4	0.0	393.20534682273865	0.6007869243621826
99	365.30257987976074	fix_pre	0		11	97.0	2.5	/experiments/aot/S_yt-MTo50ReVNmU_2.mp4	0.0	393.80613374710083	0.09082508087158203
99	365.3856818675995	pulse	0	t		97.0	2.5	/experiments/aot/S_yt-MTo50ReVNmU_2.mp4	0.0	393.8892357349396	
99	365.3934049606323	movie	1		301	97.0	2.5	/experiments/aot/S_yt-MTo50ReVNmU_2.mp4	0.0	393.8969588279724	2.508331060409546
99	366.9813938140869	pulse	1	t		97.0	2.5	/experiments/aot/S_yt-MTo50ReVNmU_2.mp4	0.0	395.484947681427	
99	367.90173602104187	fix_post	2		72	97.0	2.5	/experiments/aot/S_yt-MTo50ReVNmU_2.mp4	0.0	396.40528988838196	0.6000399589538574
100	368.5017759799957	fix_pre	0		11	98.0	2.5	/experiments/aot/S_production_ID_3967181.mp4	0.0	397.0053298473358	0.09164094924926758
100	368.58568000793457	pulse	0	t		98.0	2.5	/experiments/aot/S_production_ID_3967181.mp4	0.0	397.08923387527466	
100	368.593416929245	movie	1		164	98.0	2.5	/experiments/aot/S_production_ID_3967181.mp4	0.0	397.0969707965851	2.5083670616149902
100	370.18526792526245	pulse	1	t		98.0	2.5	/experiments/aot/S_production_ID_3967181.mp4	0.0	398.68882179260254	
100	371.10178399086	fix_post	2		72	98.0	2.5	/experiments/aot/S_production_ID_3967181.mp4	0.0	399.6053378582001	0.6008119583129883
101	371.702595949173	fix_pre	0		11	99.0	2.5	blank	1.0	400.20614981651306	0.09084701538085938
101	371.7856810092926	pulse	0	t		99.0	2.5	blank	1.0	400.2892348766327	
101	371.79344296455383	movie	1		301	99.0	2.5	blank	1.0	400.2969968318939	2.5082719326019287
101	373.3856248855591	pulse	1	t		99.0	2.5	blank	1.0	401.88917875289917	
101	374.30171489715576	fix_post	2		72	99.0	2.5	blank	1.0	402.80526876449585	0.6000630855560303
102	374.9017779827118	fix_pre	0		11	100.0	2.5	/experiments/aot/S_yt-Wr5vs_0Iypw_161.mp4	0.0	403.4053318500519	0.09218096733093262
102	374.98565793037415	pulse	0	t		100.0	2.5	/experiments/aot/S_yt-Wr5vs_0Iypw_161.mp4	0.0	403.48921179771423	
102	374.9939589500427	movie	1		301	100.0	2.5	/experiments/aot/S_yt-Wr5vs_0Iypw_161.mp4	0.0	403.4975128173828	2.5077860355377197
102	376.5822968482971	pulse	1	t		100.0	2.5	/experiments/aot/S_yt-Wr5vs_0Iypw_161.mp4	0.0	405.0858507156372	
102	377.50174498558044	fix_post	2		72	100.0	2.5	/experiments/aot/S_yt-Wr5vs_0Iypw_161.mp4	0.0	406.00529885292053	0.6000139713287354
103	378.1017589569092	fix_pre	0		11	101.0	2.5	/experiments/aot/S_yt-deiWoIfK6vg_44.mp4	0.0	406.60531282424927	0.09161591529846191
103	378.1856529712677	pulse	0	t		101.0	2.5	/experiments/aot/S_yt-deiWoIfK6vg_44.mp4	0.0	406.6892068386078	
103	378.19337487220764	movie	1		301	101.0	2.5	/experiments/aot/S_yt-deiWoIfK6vg_44.mp4	0.0	406.69692873954773	2.5083091259002686
103	379.7815248966217	pulse	1	t		101.0	2.5	/experiments/aot/S_yt-deiWoIfK6vg_44.mp4	0.0	408.2850787639618	
103	380.7016839981079	fix_post	2		72	101.0	2.5	/experiments/aot/S_yt-deiWoIfK6vg_44.mp4	0.0	409.205237865448	0.6000618934631348
104	381.30174589157104	fix_pre	0		11	102.0	2.5	/experiments/aot/S_yt-158C6xUMi5Y_75.mp4	0.0	409.80529975891113	0.09157490730285645
104	381.38559794425964	pulse	0	t		102.0	2.5	/experiments/aot/S_yt-158C6xUMi5Y_75.mp4	0.0	409.88915181159973	
104	381.3933207988739	movie	1		301	102.0	2.5	/experiments/aot/S_yt-158C6xUMi5Y_75.mp4	0.0	409.896874666214	2.5083491802215576
104	382.9813778400421	pulse	1	t		102.0	2.5	/experiments/aot/S_yt-158C6xUMi5Y_75.mp4	0.0	411.4849317073822	
104	383.90166997909546	fix_post	2		72	102.0	2.5	/experiments/aot/S_yt-158C6xUMi5Y_75.mp4	0.0	412.40522384643555	0.6000020503997803
105	384.50167202949524	fix_pre	0		11	103.0	2.5	/experiments/aot/S_ILSVRC2015_train_00594001.mp4	0.0	413.0052258968353	0.09166884422302246
105	384.585560798645	pulse	0	t		103.0	2.5	/experiments/aot/S_ILSVRC2015_train_00594001.mp4	0.0	413.0891146659851	
105	384.59334087371826	movie	1		301	103.0	2.5	/experiments/aot/S_ILSVRC2015_train_00594001.mp4	0.0	413.09689474105835	2.5083489418029785
105	386.18053793907166	pulse	1	t		103.0	2.5	/experiments/aot/S_ILSVRC2015_train_00594001.mp4	0.0	414.68409180641174	
105	387.10168981552124	fix_post	2		72	103.0	2.5	/experiments/aot/S_ILSVRC2015_train_00594001.mp4	0.0	415.6052436828613	0.6007649898529053
106	387.70245480537415	fix_pre	0		11	104.0	2.5	/experiments/aot/S_yt-QqSceHxY3d0_356.mp4	0.0	416.20600867271423	0.0908350944519043
106	387.7856910228729	pulse	0	t		104.0	2.5	/experiments/aot/S_yt-QqSceHxY3d0_356.mp4	0.0	416.289244890213	
106	387.79328989982605	movie	1		301	104.0	2.5	/experiments/aot/S_yt-QqSceHxY3d0_356.mp4	0.0	416.29684376716614	2.5083460807800293
106	389.3814239501953	pulse	1	t		104.0	2.5	/experiments/aot/S_yt-QqSceHxY3d0_356.mp4	0.0	417.8849778175354	
106	390.3016359806061	fix_post	2		72	104.0	2.5	/experiments/aot/S_yt-QqSceHxY3d0_356.mp4	0.0	418.80518984794617	0.6000218391418457
108	390.9016578197479	stim	0		1716					419.405211687088	14.300389051437378
108	390.9854898452759	pulse	0	t						419.48904371261597	
108	392.58551502227783	pulse	0	t						421.0890688896179	
108	394.18546891212463	pulse	0	t						422.6890227794647	
108	395.78559398651123	pulse	0	t						424.2891478538513	
108	397.38553380966187	pulse	0	t						425.88908767700195	
108	398.9850628376007	pulse	0	t						427.4886167049408	
108	400.5856490135193	pulse	0	t						429.0892028808594	
108	402.18543696403503	pulse	0	t						430.6889908313751	
108	403.78547191619873	pulse	0	t						432.2890257835388	
