trial_nr	onset	event_type	phase	response	nr_frames	movie_index	movie_duration	movie_file	blank	onset_abs	duration
0	0.14953088760375977	stim	0		45					16.019584894180298	0.3750119209289551
0	0.516974925994873	response	0	space						16.38702893257141	
1	0.5245428085327148	stim	0		1209					16.394596815109253	10.075352191925049
1	10.592018842697144	pulse	0	t						26.46207284927368	
1	10.599895000457764	stim	1		1717					26.4699490070343	14.308226823806763
1	12.19170093536377	pulse	1	t						28.061754941940308	
1	13.791721820831299	pulse	1	t						29.661775827407837	
1	15.39169192314148	pulse	1	t						31.261745929718018	
1	16.991647958755493	pulse	1	t						32.86170196533203	
1	18.591646909713745	pulse	1	t						34.46170091629028	
1	20.191587924957275	pulse	1	t						36.06164193153381	
1	21.791669845581055	pulse	1	t						37.66172385215759	
1	23.391623973846436	pulse	1	t						39.261677980422974	
2	24.908121824264526	fix_pre	0		11	0.0	2.5	/experiments/aot/S_yt-O6FS0xnF0CU_106.mp4	0.0	40.778175830841064	0.0912480354309082
2	24.99158787727356	pulse	0	t		0.0	2.5	/experiments/aot/S_yt-O6FS0xnF0CU_106.mp4	0.0	40.8616418838501	
2	24.999369859695435	movie	1		300	0.0	2.5	/experiments/aot/S_yt-O6FS0xnF0CU_106.mp4	0.0	40.86942386627197	2.508333921432495
2	26.587430000305176	pulse	1	t		0.0	2.5	/experiments/aot/S_yt-O6FS0xnF0CU_106.mp4	0.0	42.457484006881714	
2	27.50770378112793	fix_post	2		72	0.0	2.5	/experiments/aot/S_yt-O6FS0xnF0CU_106.mp4	0.0	43.37775778770447	0.6001620292663574
3	28.107865810394287	fix_pre	0		11	1.0	2.5	/experiments/aot/S_yt-yQrDeFlFmfM_138.mp4	0.0	43.977919816970825	0.09151411056518555
3	28.191685914993286	pulse	0	t		1.0	2.5	/experiments/aot/S_yt-yQrDeFlFmfM_138.mp4	0.0	44.061739921569824	
3	28.199379920959473	movie	1		301	1.0	2.5	/experiments/aot/S_yt-yQrDeFlFmfM_138.mp4	0.0	44.06943392753601	2.5083680152893066
3	29.78778576850891	pulse	1	t		1.0	2.5	/experiments/aot/S_yt-yQrDeFlFmfM_138.mp4	0.0	45.65783977508545	
3	30.70774793624878	fix_post	2		72	1.0	2.5	/experiments/aot/S_yt-yQrDeFlFmfM_138.mp4	0.0	46.57780194282532	0.6009988784790039
4	31.308746814727783	fix_pre	0		11	2.0	2.5	/experiments/aot/S_yt-PaxmJhMoP3w_87.mp4	0.0	47.17880082130432	0.0907740592956543
4	31.391328811645508	pulse	0	t		2.0	2.5	/experiments/aot/S_yt-PaxmJhMoP3w_87.mp4	0.0	47.261382818222046	
4	31.399520874023438	movie	1		301	2.0	2.5	/experiments/aot/S_yt-PaxmJhMoP3w_87.mp4	0.0	47.269574880599976	2.5081870555877686
4	32.98714900016785	pulse	1	t		2.0	2.5	/experiments/aot/S_yt-PaxmJhMoP3w_87.mp4	0.0	48.857203006744385	
4	33.907707929611206	fix_post	2		72	2.0	2.5	/experiments/aot/S_yt-PaxmJhMoP3w_87.mp4	0.0	49.777761936187744	0.6000628471374512
5	34.50777077674866	fix_pre	0		11	3.0	2.5	/experiments/aot/S_yt-QqSceHxY3d0_356.mp4	0.0	50.377824783325195	0.09191107749938965
5	34.591590881347656	pulse	0	t		3.0	2.5	/experiments/aot/S_yt-QqSceHxY3d0_356.mp4	0.0	50.461644887924194	
5	34.59968185424805	movie	1		301	3.0	2.5	/experiments/aot/S_yt-QqSceHxY3d0_356.mp4	0.0	50.469735860824585	2.507972002029419
5	36.18805980682373	pulse	1	t		3.0	2.5	/experiments/aot/S_yt-QqSceHxY3d0_356.mp4	0.0	52.05811381340027	
5	37.107653856277466	fix_post	2		72	3.0	2.5	/experiments/aot/S_yt-QqSceHxY3d0_356.mp4	0.0	52.977707862854004	0.6000580787658691
6	37.707711935043335	fix_pre	0		11	4.0	2.5	/experiments/aot/S_yt-Wr5vs_0Iypw_161.mp4	0.0	53.57776594161987	0.09163999557495117
6	37.79159879684448	pulse	0	t		4.0	2.5	/experiments/aot/S_yt-Wr5vs_0Iypw_161.mp4	0.0	53.66165280342102	
6	37.799351930618286	movie	1		301	4.0	2.5	/experiments/aot/S_yt-Wr5vs_0Iypw_161.mp4	0.0	53.669405937194824	2.508333921432495
6	39.38715481758118	pulse	1	t		4.0	2.5	/experiments/aot/S_yt-Wr5vs_0Iypw_161.mp4	0.0	55.257208824157715	
6	40.30768585205078	fix_post	2		72	4.0	2.5	/experiments/aot/S_yt-Wr5vs_0Iypw_161.mp4	0.0	56.17773985862732	0.5999960899353027
7	40.907681941986084	fix_pre	0		11	5.0	2.5	/experiments/aot/S_yt-bwSRV1Vr21s_435.mp4	0.0	56.77773594856262	0.09169602394104004
7	40.99147295951843	pulse	0	t		5.0	2.5	/experiments/aot/S_yt-bwSRV1Vr21s_435.mp4	0.0	56.86152696609497	
7	40.999377965927124	movie	1		301	5.0	2.5	/experiments/aot/S_yt-bwSRV1Vr21s_435.mp4	0.0	56.86943197250366	2.508297920227051
7	42.58740782737732	pulse	1	t		5.0	2.5	/experiments/aot/S_yt-bwSRV1Vr21s_435.mp4	0.0	58.45746183395386	
7	43.507675886154175	fix_post	2		72	5.0	2.5	/experiments/aot/S_yt-bwSRV1Vr21s_435.mp4	0.0	59.37772989273071	0.5999479293823242
8	44.1076238155365	fix_pre	0		11	6.0	2.5	/experiments/aot/S_yt-LB9LoYfH_EA_15.mp4	0.0	59.97767782211304	0.09169507026672363
8	44.19158887863159	pulse	0	t		6.0	2.5	/experiments/aot/S_yt-LB9LoYfH_EA_15.mp4	0.0	60.06164288520813	
8	44.19931888580322	movie	1		301	6.0	2.5	/experiments/aot/S_yt-LB9LoYfH_EA_15.mp4	0.0	60.06937289237976	2.508371114730835
8	45.787301778793335	pulse	1	t		6.0	2.5	/experiments/aot/S_yt-LB9LoYfH_EA_15.mp4	0.0	61.65735578536987	
8	46.70769000053406	fix_post	2		72	6.0	2.5	/experiments/aot/S_yt-LB9LoYfH_EA_15.mp4	0.0	62.577744007110596	0.5999929904937744
9	47.30768299102783	fix_pre	0		11	7.0	2.5	blank	1.0	63.17773699760437	0.09164690971374512
9	47.3915638923645	pulse	0	t		7.0	2.5	blank	1.0	63.26161789894104	
9	47.39932990074158	movie	1		301	7.0	2.5	blank	1.0	63.269383907318115	2.5082879066467285
9	48.99148392677307	pulse	1	t		7.0	2.5	blank	1.0	64.86153793334961	
9	49.907617807388306	fix_post	2		72	7.0	2.5	blank	1.0	65.77767181396484	0.5999810695648193
10	50.507598876953125	fix_pre	0		11	8.0	2.5	blank	1.0	66.37765288352966	0.09170103073120117
10	50.59145498275757	pulse	0	t		8.0	2.5	blank	1.0	66.4615089893341	
10	50.599299907684326	movie	1		301	8.0	2.5	blank	1.0	66.46935391426086	2.5083138942718506
10	52.19151186943054	pulse	1	t		8.0	2.5	blank	1.0	68.06156587600708	
10	53.10761380195618	fix_post	2		72	8.0	2.5	blank	1.0	68.97766780853271	0.5999941825866699
11	53.70760798454285	fix_pre	0		11	9.0	2.5	/experiments/aot/S_yt-aSEKRE_FNaI_62.mp4	0.0	69.57766199111938	0.09163594245910645
11	53.79152297973633	pulse	0	t		9.0	2.5	/experiments/aot/S_yt-aSEKRE_FNaI_62.mp4	0.0	69.66157698631287	
11	53.79924392700195	movie	1		301	9.0	2.5	/experiments/aot/S_yt-aSEKRE_FNaI_62.mp4	0.0	69.66929793357849	2.5083398818969727
11	55.38743877410889	pulse	1	t		9.0	2.5	/experiments/aot/S_yt-aSEKRE_FNaI_62.mp4	0.0	71.25749278068542	
11	56.307583808898926	fix_post	2		72	9.0	2.5	/experiments/aot/S_yt-aSEKRE_FNaI_62.mp4	0.0	72.17763781547546	0.599999189376831
12	56.90758299827576	fix_pre	0		11	10.0	2.5	/experiments/aot/S_yt-O4wUEZwHLyI_114.mp4	0.0	72.7776370048523	0.0916299819946289
12	56.99150896072388	pulse	0	t		10.0	2.5	/experiments/aot/S_yt-O4wUEZwHLyI_114.mp4	0.0	72.86156296730042	
12	56.999212980270386	movie	1		301	10.0	2.5	/experiments/aot/S_yt-O4wUEZwHLyI_114.mp4	0.0	72.86926698684692	2.5083489418029785
12	58.58719086647034	pulse	1	t		10.0	2.5	/experiments/aot/S_yt-O4wUEZwHLyI_114.mp4	0.0	74.45724487304688	
12	59.507561922073364	fix_post	2		72	10.0	2.5	/experiments/aot/S_yt-O4wUEZwHLyI_114.mp4	0.0	75.3776159286499	0.6000618934631348
13	60.1076238155365	fix_pre	0		11	11.0	2.5	blank	1.0	75.97767782211304	0.09165501594543457
13	60.1915009021759	pulse	0	t		11.0	2.5	blank	1.0	76.06155490875244	
13	60.199278831481934	movie	1		301	11.0	2.5	blank	1.0	76.06933283805847	2.5083119869232178
13	61.791475772857666	pulse	1	t		11.0	2.5	blank	1.0	77.6615297794342	
13	62.70759081840515	fix_post	2		72	11.0	2.5	blank	1.0	78.57764482498169	0.5999829769134521
14	63.3075737953186	fix_pre	0		11	12.0	2.5	/experiments/aot/S_yt-iO0efV_PV-k_102.mp4	0.0	79.17762780189514	0.0916750431060791
14	63.3914749622345	pulse	0	t		12.0	2.5	/experiments/aot/S_yt-iO0efV_PV-k_102.mp4	0.0	79.26152896881104	
14	63.39924883842468	movie	1		301	12.0	2.5	/experiments/aot/S_yt-iO0efV_PV-k_102.mp4	0.0	79.26930284500122	2.509143114089966
14	64.98703479766846	pulse	1	t		12.0	2.5	/experiments/aot/S_yt-iO0efV_PV-k_102.mp4	0.0	80.857088804245	
14	65.90839195251465	fix_post	2		72	12.0	2.5	/experiments/aot/S_yt-iO0efV_PV-k_102.mp4	0.0	81.77844595909119	0.599153995513916
15	66.50754594802856	fix_pre	0		11	13.0	2.5	/experiments/aot/S_yt-54kx8P3L1ns_6.mp4	0.0	82.3775999546051	0.0916140079498291
15	66.59145593643188	pulse	0	t		13.0	2.5	/experiments/aot/S_yt-54kx8P3L1ns_6.mp4	0.0	82.46150994300842	
15	66.5991599559784	movie	1		301	13.0	2.5	/experiments/aot/S_yt-54kx8P3L1ns_6.mp4	0.0	82.46921396255493	2.508373975753784
15	68.1872169971466	pulse	1	t		13.0	2.5	/experiments/aot/S_yt-54kx8P3L1ns_6.mp4	0.0	84.05727100372314	
15	69.10753393173218	fix_post	2		72	13.0	2.5	/experiments/aot/S_yt-54kx8P3L1ns_6.mp4	0.0	84.97758793830872	0.6000020503997803
16	69.70753598213196	fix_pre	0		11	14.0	2.5	/experiments/aot/S_Pexels_Videos_2786546.mp4	0.0	85.5775899887085	0.09164881706237793
16	69.7914559841156	pulse	0	t		14.0	2.5	/experiments/aot/S_Pexels_Videos_2786546.mp4	0.0	85.66150999069214	
16	69.79918479919434	movie	1		160	14.0	2.5	/experiments/aot/S_Pexels_Videos_2786546.mp4	0.0	85.66923880577087	2.5082950592041016
16	71.39148092269897	pulse	1	t		14.0	2.5	/experiments/aot/S_Pexels_Videos_2786546.mp4	0.0	87.26153492927551	
16	72.30747985839844	fix_post	2		72	14.0	2.5	/experiments/aot/S_Pexels_Videos_2786546.mp4	0.0	88.17753386497498	0.5999901294708252
17	72.90746998786926	fix_pre	0		11	15.0	2.5	blank	1.0	88.7775239944458	0.09165477752685547
17	72.99142098426819	pulse	0	t		15.0	2.5	blank	1.0	88.86147499084473	
17	72.99912476539612	movie	1		301	15.0	2.5	blank	1.0	88.86917877197266	2.5084011554718018
17	74.59152293205261	pulse	1	t		15.0	2.5	blank	1.0	90.46157693862915	
17	75.50752592086792	fix_post	2		72	15.0	2.5	blank	1.0	91.37757992744446	0.5999629497528076
18	76.10748887062073	fix_pre	0		11	16.0	2.5	/experiments/aot/S_ILSVRC2015_train_00165008.mp4	0.0	91.97754287719727	0.09249711036682129
18	76.19131779670715	pulse	0	t		16.0	2.5	/experiments/aot/S_ILSVRC2015_train_00165008.mp4	0.0	92.06137180328369	
18	76.19998598098755	movie	1		301	16.0	2.5	/experiments/aot/S_ILSVRC2015_train_00165008.mp4	0.0	92.07003998756409	2.507478952407837
18	77.78727889060974	pulse	1	t		16.0	2.5	/experiments/aot/S_ILSVRC2015_train_00165008.mp4	0.0	93.65733289718628	
18	78.70746493339539	fix_post	2		72	16.0	2.5	/experiments/aot/S_ILSVRC2015_train_00165008.mp4	0.0	94.57751893997192	0.6000289916992188
19	79.3074939250946	fix_pre	0		11	17.0	2.5	/experiments/aot/S_yt-b7JAHOeiTqU_44.mp4	0.0	95.17754793167114	0.09163093566894531
19	79.39139294624329	pulse	0	t		17.0	2.5	/experiments/aot/S_yt-b7JAHOeiTqU_44.mp4	0.0	95.26144695281982	
19	79.39912486076355	movie	1		301	17.0	2.5	/experiments/aot/S_yt-b7JAHOeiTqU_44.mp4	0.0	95.26917886734009	2.508355140686035
19	80.98732495307922	pulse	1	t		17.0	2.5	/experiments/aot/S_yt-b7JAHOeiTqU_44.mp4	0.0	96.85737895965576	
19	81.90748000144958	fix_post	2		72	17.0	2.5	/experiments/aot/S_yt-b7JAHOeiTqU_44.mp4	0.0	97.77753400802612	0.599984884262085
20	82.50746488571167	fix_pre	0		11	18.0	2.5	blank	1.0	98.37751889228821	0.09166908264160156
20	82.59136986732483	pulse	0	t		18.0	2.5	blank	1.0	98.46142387390137	
20	82.59913396835327	movie	1		301	18.0	2.5	blank	1.0	98.46918797492981	2.508342981338501
20	84.19140982627869	pulse	1	t		18.0	2.5	blank	1.0	100.06146383285522	
20	85.10747694969177	fix_post	2		72	18.0	2.5	blank	1.0	100.97753095626831	0.5999970436096191
21	85.70747399330139	fix_pre	0		11	19.0	2.5	/experiments/aot/S_ILSVRC2015_train_00569003.mp4	0.0	101.57752799987793	0.09249377250671387
21	85.7913568019867	pulse	0	t		19.0	2.5	/experiments/aot/S_ILSVRC2015_train_00569003.mp4	0.0	101.66141080856323	
21	85.7999677658081	movie	1		301	19.0	2.5	/experiments/aot/S_ILSVRC2015_train_00569003.mp4	0.0	101.67002177238464	2.5077061653137207
21	87.38682889938354	pulse	1	t		19.0	2.5	/experiments/aot/S_ILSVRC2015_train_00569003.mp4	0.0	103.25688290596008	
21	88.30767393112183	fix_post	2		72	19.0	2.5	/experiments/aot/S_ILSVRC2015_train_00569003.mp4	0.0	104.17772793769836	0.6001150608062744
22	88.9077889919281	fix_pre	0		11	20.0	2.5	/experiments/aot/S_yt-TxU1H5A6BaQ_52.mp4	0.0	104.77784299850464	0.09170293807983398
22	88.99130296707153	pulse	0	t		20.0	2.5	/experiments/aot/S_yt-TxU1H5A6BaQ_52.mp4	0.0	104.86135697364807	
22	88.99949193000793	movie	1		301	20.0	2.5	/experiments/aot/S_yt-TxU1H5A6BaQ_52.mp4	0.0	104.86954593658447	2.5080220699310303
22	90.58701491355896	pulse	1	t		20.0	2.5	/experiments/aot/S_yt-TxU1H5A6BaQ_52.mp4	0.0	106.4570689201355	
22	91.50751399993896	fix_post	2		72	20.0	2.5	/experiments/aot/S_yt-TxU1H5A6BaQ_52.mp4	0.0	107.3775680065155	0.599876880645752
23	92.10739088058472	fix_pre	0		11	21.0	2.5	blank	1.0	107.97744488716125	0.09171605110168457
23	92.19130396842957	pulse	0	t		21.0	2.5	blank	1.0	108.0613579750061	
23	92.1991069316864	movie	1		301	21.0	2.5	blank	1.0	108.06916093826294	2.508314847946167
23	93.79126477241516	pulse	1	t		21.0	2.5	blank	1.0	109.6613187789917	
23	94.70742177963257	fix_post	2		72	21.0	2.5	blank	1.0	110.5774757862091	0.6000010967254639
24	95.30742287635803	fix_pre	0		11	22.0	2.5	/experiments/aot/S_yt-gmiyqQDGN78_7.mp4	0.0	111.17747688293457	0.09162592887878418
24	95.3912627696991	pulse	0	t		22.0	2.5	/experiments/aot/S_yt-gmiyqQDGN78_7.mp4	0.0	111.26131677627563	
24	95.39904880523682	movie	1		301	22.0	2.5	/experiments/aot/S_yt-gmiyqQDGN78_7.mp4	0.0	111.26910281181335	2.5088021755218506
24	96.9870138168335	pulse	1	t		22.0	2.5	/experiments/aot/S_yt-gmiyqQDGN78_7.mp4	0.0	112.85706782341003	
24	97.90785098075867	fix_post	2		72	22.0	2.5	/experiments/aot/S_yt-gmiyqQDGN78_7.mp4	0.0	113.7779049873352	0.6004269123077393
25	98.5082778930664	fix_pre	0		11	23.0	2.5	/experiments/aot/S_yt-MTo50ReVNmU_2.mp4	0.0	114.37833189964294	0.09170389175415039
25	98.5913028717041	pulse	0	t		23.0	2.5	/experiments/aot/S_yt-MTo50ReVNmU_2.mp4	0.0	114.46135687828064	
25	98.59998178482056	movie	1		301	23.0	2.5	/experiments/aot/S_yt-MTo50ReVNmU_2.mp4	0.0	114.4700357913971	2.5083231925964355
25	100.18751692771912	pulse	1	t		23.0	2.5	/experiments/aot/S_yt-MTo50ReVNmU_2.mp4	0.0	116.05757093429565	
25	101.10830497741699	fix_post	2		72	23.0	2.5	/experiments/aot/S_yt-MTo50ReVNmU_2.mp4	0.0	116.97835898399353	0.5990638732910156
26	101.70736885070801	fix_pre	0		11	24.0	2.5	/experiments/aot/S_yt-aiWUhl8MCto_71.mp4	0.0	117.57742285728455	0.0916280746459961
26	101.79125595092773	pulse	0	t		24.0	2.5	/experiments/aot/S_yt-aiWUhl8MCto_71.mp4	0.0	117.66130995750427	
26	101.798996925354	movie	1		301	24.0	2.5	/experiments/aot/S_yt-aiWUhl8MCto_71.mp4	0.0	117.66905093193054	2.5094120502471924
26	103.38702392578125	pulse	1	t		24.0	2.5	/experiments/aot/S_yt-aiWUhl8MCto_71.mp4	0.0	119.25707793235779	
26	104.3084089756012	fix_post	2		72	24.0	2.5	/experiments/aot/S_yt-aiWUhl8MCto_71.mp4	0.0	120.17846298217773	0.599153995513916
27	104.90756297111511	fix_pre	0		11	25.0	2.5	/experiments/aot/S_yt-AuQ_WxaNy4Y_255.mp4	0.0	120.77761697769165	0.09261202812194824
27	104.99125289916992	pulse	0	t		25.0	2.5	/experiments/aot/S_yt-AuQ_WxaNy4Y_255.mp4	0.0	120.86130690574646	
27	105.00017499923706	movie	1		301	25.0	2.5	/experiments/aot/S_yt-AuQ_WxaNy4Y_255.mp4	0.0	120.8702290058136	2.507997989654541
27	106.5868308544159	pulse	1	t		25.0	2.5	/experiments/aot/S_yt-AuQ_WxaNy4Y_255.mp4	0.0	122.45688486099243	
27	107.5081729888916	fix_post	2		72	25.0	2.5	/experiments/aot/S_yt-AuQ_WxaNy4Y_255.mp4	0.0	123.37822699546814	0.5991249084472656
28	108.10729789733887	fix_pre	0		11	26.0	2.5	blank	1.0	123.9773519039154	0.09171199798583984
28	108.19126176834106	pulse	0	t		26.0	2.5	blank	1.0	124.0613157749176	
28	108.1990098953247	movie	1		301	26.0	2.5	blank	1.0	124.06906390190125	2.508297920227051
28	109.79122495651245	pulse	1	t		26.0	2.5	blank	1.0	125.66127896308899	
28	110.70730781555176	fix_post	2		72	26.0	2.5	blank	1.0	126.5773618221283	0.5999791622161865
29	111.30728697776794	fix_pre	0		11	27.0	2.5	/experiments/aot/S_yt-6mRpmfIvdew_1435.mp4	0.0	127.17734098434448	0.09166383743286133
29	111.39123678207397	pulse	0	t		27.0	2.5	/experiments/aot/S_yt-6mRpmfIvdew_1435.mp4	0.0	127.26129078865051	
29	111.3989508152008	movie	1		301	27.0	2.5	/experiments/aot/S_yt-6mRpmfIvdew_1435.mp4	0.0	127.26900482177734	2.509190082550049
29	112.98725080490112	pulse	1	t		27.0	2.5	/experiments/aot/S_yt-6mRpmfIvdew_1435.mp4	0.0	128.85730481147766	
29	113.90814089775085	fix_post	2		72	27.0	2.5	/experiments/aot/S_yt-6mRpmfIvdew_1435.mp4	0.0	129.7781949043274	0.59916090965271
30	114.50730180740356	fix_pre	0		11	28.0	2.5	/experiments/aot/S_production_ID_4802710.mp4	0.0	130.3773558139801	0.09253716468811035
30	114.59115982055664	pulse	0	t		28.0	2.5	/experiments/aot/S_production_ID_4802710.mp4	0.0	130.46121382713318	
30	114.59983897209167	movie	1		161	28.0	2.5	/experiments/aot/S_production_ID_4802710.mp4	0.0	130.4698929786682	2.5074758529663086
30	116.19141793251038	pulse	1	t		28.0	2.5	/experiments/aot/S_production_ID_4802710.mp4	0.0	132.0614719390869	
30	117.10731482505798	fix_post	2		72	28.0	2.5	/experiments/aot/S_production_ID_4802710.mp4	0.0	132.97736883163452	0.5999770164489746
31	117.70729184150696	fix_pre	0		11	29.0	2.5	blank	1.0	133.5773458480835	0.09209012985229492
31	117.79122281074524	pulse	0	t		29.0	2.5	blank	1.0	133.66127681732178	
31	117.79938197135925	movie	1		301	29.0	2.5	blank	1.0	133.6694359779358	2.5088348388671875
31	119.39112877845764	pulse	1	t		29.0	2.5	blank	1.0	135.26118278503418	
31	120.30821681022644	fix_post	2		72	29.0	2.5	blank	1.0	136.17827081680298	0.5990390777587891
32	120.90725588798523	fix_pre	0		11	30.0	2.5	/experiments/aot/S_yt-RO4mhuXBVrY_67.mp4	0.0	136.77730989456177	0.09255194664001465
32	120.9910638332367	pulse	0	t		30.0	2.5	/experiments/aot/S_yt-RO4mhuXBVrY_67.mp4	0.0	136.86111783981323	
32	120.99980783462524	movie	1		301	30.0	2.5	/experiments/aot/S_yt-RO4mhuXBVrY_67.mp4	0.0	136.86986184120178	2.5074470043182373
32	122.58676791191101	pulse	1	t		30.0	2.5	/experiments/aot/S_yt-RO4mhuXBVrY_67.mp4	0.0	138.45682191848755	
32	123.50725483894348	fix_post	2		72	30.0	2.5	/experiments/aot/S_yt-RO4mhuXBVrY_67.mp4	0.0	139.37730884552002	0.5999791622161865
33	124.10723400115967	fix_pre	0		11	31.0	2.5	/experiments/aot/S_production_ID_3712945.mp4	0.0	139.9772880077362	0.09167790412902832
33	124.1912407875061	pulse	0	t		31.0	2.5	/experiments/aot/S_production_ID_3712945.mp4	0.0	140.06129479408264	
33	124.1989119052887	movie	1		162	31.0	2.5	/experiments/aot/S_production_ID_3712945.mp4	0.0	140.06896591186523	2.508373975753784
33	125.79046082496643	pulse	1	t		31.0	2.5	/experiments/aot/S_production_ID_3712945.mp4	0.0	141.66051483154297	
33	126.70728588104248	fix_post	2		72	31.0	2.5	/experiments/aot/S_production_ID_3712945.mp4	0.0	142.57733988761902	0.599937915802002
34	127.30722379684448	fix_pre	0		11	32.0	2.5	/experiments/aot/S_Nh81j72Utbs_5.mp4	0.0	143.17727780342102	0.09213614463806152
34	127.39243292808533	pulse	0	t		32.0	2.5	/experiments/aot/S_Nh81j72Utbs_5.mp4	0.0	143.26248693466187	
34	127.39935994148254	movie	1		301	32.0	2.5	/experiments/aot/S_Nh81j72Utbs_5.mp4	0.0	143.26941394805908	2.5078370571136475
34	128.9871199131012	pulse	1	t		32.0	2.5	/experiments/aot/S_Nh81j72Utbs_5.mp4	0.0	144.85717391967773	
34	129.9071969985962	fix_post	2		72	32.0	2.5	/experiments/aot/S_Nh81j72Utbs_5.mp4	0.0	145.77725100517273	0.6000049114227295
35	130.50720191001892	fix_pre	0		11	33.0	2.5	/experiments/aot/S_yt-ieA3XwoSko4_98.mp4	0.0	146.37725591659546	0.0916910171508789
35	130.59113383293152	pulse	0	t		33.0	2.5	/experiments/aot/S_yt-ieA3XwoSko4_98.mp4	0.0	146.46118783950806	
35	130.5988929271698	movie	1		301	33.0	2.5	/experiments/aot/S_yt-ieA3XwoSko4_98.mp4	0.0	146.46894693374634	2.508323907852173
35	132.18799090385437	pulse	1	t		33.0	2.5	/experiments/aot/S_yt-ieA3XwoSko4_98.mp4	0.0	148.0580449104309	
35	133.10721683502197	fix_post	2		72	33.0	2.5	/experiments/aot/S_yt-ieA3XwoSko4_98.mp4	0.0	148.9772708415985	0.5999560356140137
36	133.707172870636	fix_pre	0		11	34.0	2.5	/experiments/aot/S_yt-OFnDCbW9Ebo_31.mp4	0.0	149.57722687721252	0.09167599678039551
36	133.79110884666443	pulse	0	t		34.0	2.5	/experiments/aot/S_yt-OFnDCbW9Ebo_31.mp4	0.0	149.66116285324097	
36	133.79884886741638	movie	1		301	34.0	2.5	/experiments/aot/S_yt-OFnDCbW9Ebo_31.mp4	0.0	149.66890287399292	2.5083110332489014
36	135.39116191864014	pulse	1	t		34.0	2.5	/experiments/aot/S_yt-OFnDCbW9Ebo_31.mp4	0.0	151.26121592521667	
36	136.30715990066528	fix_post	2		72	34.0	2.5	/experiments/aot/S_yt-OFnDCbW9Ebo_31.mp4	0.0	152.17721390724182	0.600045919418335
37	136.90720582008362	fix_pre	0		11	35.0	2.5	/experiments/aot/S_yt-PCSXJ5YB_AE_3.mp4	0.0	152.77725982666016	0.09212207794189453
37	136.9910979270935	pulse	0	t		35.0	2.5	/experiments/aot/S_yt-PCSXJ5YB_AE_3.mp4	0.0	152.86115193367004	
37	136.9993278980255	movie	1		301	35.0	2.5	/experiments/aot/S_yt-PCSXJ5YB_AE_3.mp4	0.0	152.86938190460205	2.509031057357788
37	138.59124898910522	pulse	1	t		35.0	2.5	/experiments/aot/S_yt-PCSXJ5YB_AE_3.mp4	0.0	154.46130299568176	
37	139.5083589553833	fix_post	2		72	35.0	2.5	/experiments/aot/S_yt-PCSXJ5YB_AE_3.mp4	0.0	155.37841296195984	0.5988059043884277
38	140.10716485977173	fix_pre	0		11	36.0	2.5	blank	1.0	155.97721886634827	0.09167909622192383
38	140.19108891487122	pulse	0	t		36.0	2.5	blank	1.0	156.06114292144775	
38	140.19884395599365	movie	1		301	36.0	2.5	blank	1.0	156.0688979625702	2.508401870727539
38	141.79065585136414	pulse	1	t		36.0	2.5	blank	1.0	157.66070985794067	
38	142.7072458267212	fix_post	2		72	36.0	2.5	blank	1.0	158.57729983329773	0.6009211540222168
39	143.3081669807434	fix_pre	0		11	37.0	2.5	/experiments/aot/S_production_ID_5119260.mp4	0.0	159.17822098731995	0.0916588306427002
39	143.39121294021606	pulse	0	t		37.0	2.5	/experiments/aot/S_production_ID_5119260.mp4	0.0	159.2612669467926	
39	143.3998258113861	movie	1		159	37.0	2.5	/experiments/aot/S_production_ID_5119260.mp4	0.0	159.26987981796265	2.5082311630249023
39	144.99040579795837	pulse	1	t		37.0	2.5	/experiments/aot/S_production_ID_5119260.mp4	0.0	160.8604598045349	
39	145.908056974411	fix_post	2		72	37.0	2.5	/experiments/aot/S_production_ID_5119260.mp4	0.0	161.77811098098755	0.5990839004516602
40	146.50714087486267	fix_pre	0		11	38.0	2.5	/experiments/aot/S_yt-HwEfWfFJhRo_73.mp4	0.0	162.3771948814392	0.09165406227111816
40	146.59102177619934	pulse	0	t		38.0	2.5	/experiments/aot/S_yt-HwEfWfFJhRo_73.mp4	0.0	162.46107578277588	
40	146.5987949371338	movie	1		301	38.0	2.5	/experiments/aot/S_yt-HwEfWfFJhRo_73.mp4	0.0	162.46884894371033	2.508342981338501
40	148.18674278259277	pulse	1	t		38.0	2.5	/experiments/aot/S_yt-HwEfWfFJhRo_73.mp4	0.0	164.0567967891693	
40	149.1071379184723	fix_post	2		72	38.0	2.5	/experiments/aot/S_yt-HwEfWfFJhRo_73.mp4	0.0	164.97719192504883	0.6000039577484131
41	149.7071418762207	fix_pre	0		11	39.0	2.5	/experiments/aot/S_yt-6vkiJedss6g_5.mp4	0.0	165.57719588279724	0.09165501594543457
41	149.79094982147217	pulse	0	t		39.0	2.5	/experiments/aot/S_yt-6vkiJedss6g_5.mp4	0.0	165.6610038280487	
41	149.79879689216614	movie	1		301	39.0	2.5	/experiments/aot/S_yt-6vkiJedss6g_5.mp4	0.0	165.66885089874268	2.5083229541778564
41	151.39102482795715	pulse	1	t		39.0	2.5	/experiments/aot/S_yt-6vkiJedss6g_5.mp4	0.0	167.2610788345337	
41	152.307119846344	fix_post	2		72	39.0	2.5	/experiments/aot/S_yt-6vkiJedss6g_5.mp4	0.0	168.17717385292053	0.6008560657501221
42	152.90797591209412	fix_pre	0		11	40.0	2.5	/experiments/aot/S_yt-hTkrnNr39dk_202.mp4	0.0	168.77802991867065	0.09075307846069336
42	152.99096083641052	pulse	0	t		40.0	2.5	/experiments/aot/S_yt-hTkrnNr39dk_202.mp4	0.0	168.86101484298706	
42	152.9987289905548	movie	1		301	40.0	2.5	/experiments/aot/S_yt-hTkrnNr39dk_202.mp4	0.0	168.86878299713135	2.5083208084106445
42	154.58673787117004	pulse	1	t		40.0	2.5	/experiments/aot/S_yt-hTkrnNr39dk_202.mp4	0.0	170.45679187774658	
42	155.50704979896545	fix_post	2		72	40.0	2.5	/experiments/aot/S_yt-hTkrnNr39dk_202.mp4	0.0	171.377103805542	0.6001579761505127
43	156.10720777511597	fix_pre	0		11	41.0	2.5	/experiments/aot/S_pexels-kelly-lacy-6756531.mp4	0.0	171.9772617816925	0.09248113632202148
43	156.19095492362976	pulse	0	t		41.0	2.5	/experiments/aot/S_pexels-kelly-lacy-6756531.mp4	0.0	172.0610089302063	
43	156.199688911438	movie	1		166	41.0	2.5	/experiments/aot/S_pexels-kelly-lacy-6756531.mp4	0.0	172.06974291801453	2.5074000358581543
43	157.7928249835968	pulse	1	t		41.0	2.5	/experiments/aot/S_pexels-kelly-lacy-6756531.mp4	0.0	173.66287899017334	
43	158.70708894729614	fix_post	2		72	41.0	2.5	/experiments/aot/S_pexels-kelly-lacy-6756531.mp4	0.0	174.57714295387268	0.6000258922576904
44	159.30711483955383	fix_pre	0		11	42.0	2.5	/experiments/aot/S_yt-c-H45QS0CF4_147.mp4	0.0	175.17716884613037	0.09161496162414551
44	159.39100289344788	pulse	0	t		42.0	2.5	/experiments/aot/S_yt-c-H45QS0CF4_147.mp4	0.0	175.2610569000244	
44	159.39872980117798	movie	1		301	42.0	2.5	/experiments/aot/S_yt-c-H45QS0CF4_147.mp4	0.0	175.26878380775452	2.5083019733428955
44	160.9868757724762	pulse	1	t		42.0	2.5	/experiments/aot/S_yt-c-H45QS0CF4_147.mp4	0.0	176.85692977905273	
44	161.90703177452087	fix_post	2		72	42.0	2.5	/experiments/aot/S_yt-c-H45QS0CF4_147.mp4	0.0	177.7770857810974	0.6000101566314697
45	162.50704193115234	fix_pre	0		11	43.0	2.5	/experiments/aot/S_yt-EvKV7iY1_HM_193.mp4	0.0	178.37709593772888	0.09162092208862305
45	162.590970993042	pulse	0	t		43.0	2.5	/experiments/aot/S_yt-EvKV7iY1_HM_193.mp4	0.0	178.46102499961853	
45	162.59866285324097	movie	1		301	43.0	2.5	/experiments/aot/S_yt-EvKV7iY1_HM_193.mp4	0.0	178.4687168598175	2.508389949798584
45	164.18744087219238	pulse	1	t		43.0	2.5	/experiments/aot/S_yt-EvKV7iY1_HM_193.mp4	0.0	180.05749487876892	
45	165.10705280303955	fix_post	2		72	43.0	2.5	/experiments/aot/S_yt-EvKV7iY1_HM_193.mp4	0.0	180.9771068096161	0.5999631881713867
46	165.70701599121094	fix_pre	0		11	44.0	2.5	/experiments/aot/S_yt-1sn8u-rQRas_7.mp4	0.0	181.57706999778748	0.0916738510131836
46	165.79095888137817	pulse	0	t		44.0	2.5	/experiments/aot/S_yt-1sn8u-rQRas_7.mp4	0.0	181.6610128879547	
46	165.79868984222412	movie	1		301	44.0	2.5	/experiments/aot/S_yt-1sn8u-rQRas_7.mp4	0.0	181.66874384880066	2.5083439350128174
46	167.39089393615723	pulse	1	t		44.0	2.5	/experiments/aot/S_yt-1sn8u-rQRas_7.mp4	0.0	183.26094794273376	
46	168.30703377723694	fix_post	2		72	44.0	2.5	/experiments/aot/S_yt-1sn8u-rQRas_7.mp4	0.0	184.17708778381348	0.6000220775604248
47	168.90705585479736	fix_pre	0		11	45.0	2.5	blank	1.0	184.7771098613739	0.09166193008422852
47	168.9909508228302	pulse	0	t		45.0	2.5	blank	1.0	184.86100482940674	
47	168.9987177848816	movie	1		301	45.0	2.5	blank	1.0	184.86877179145813	2.5083370208740234
47	170.5909068584442	pulse	1	t		45.0	2.5	blank	1.0	186.46096086502075	
47	171.50705480575562	fix_post	2		72	45.0	2.5	blank	1.0	187.37710881233215	0.5999581813812256
48	172.10701298713684	fix_pre	0		11	46.0	2.5	/experiments/aot/S_ILSVRC2015_train_00219004.mp4	0.0	187.97706699371338	0.09162497520446777
48	172.19091081619263	pulse	0	t		46.0	2.5	/experiments/aot/S_ILSVRC2015_train_00219004.mp4	0.0	188.06096482276917	
48	172.1986379623413	movie	1		301	46.0	2.5	/experiments/aot/S_ILSVRC2015_train_00219004.mp4	0.0	188.06869196891785	2.50836181640625
48	173.78675985336304	pulse	1	t		46.0	2.5	/experiments/aot/S_ILSVRC2015_train_00219004.mp4	0.0	189.65681385993958	
48	174.70699977874756	fix_post	2		72	46.0	2.5	/experiments/aot/S_ILSVRC2015_train_00219004.mp4	0.0	190.5770537853241	0.6008191108703613
49	175.30781888961792	fix_pre	0		11	47.0	2.5	blank	1.0	191.17787289619446	0.09082698822021484
49	175.39082288742065	pulse	0	t		47.0	2.5	blank	1.0	191.2608768939972	
49	175.39864587783813	movie	1		301	47.0	2.5	blank	1.0	191.26869988441467	2.50833797454834
49	176.99087285995483	pulse	1	t		47.0	2.5	blank	1.0	192.86092686653137	
49	177.90698385238647	fix_post	2		72	47.0	2.5	blank	1.0	193.777037858963	0.5999529361724854
50	178.50693678855896	fix_pre	0		11	48.0	2.5	/experiments/aot/S_yt-9EnchawJ3pA_90.mp4	0.0	194.3769907951355	0.09171009063720703
50	178.5908739566803	pulse	0	t		48.0	2.5	/experiments/aot/S_yt-9EnchawJ3pA_90.mp4	0.0	194.46092796325684	
50	178.59864687919617	movie	1		301	48.0	2.5	/experiments/aot/S_yt-9EnchawJ3pA_90.mp4	0.0	194.4687008857727	2.509160041809082
50	180.1876199245453	pulse	1	t		48.0	2.5	/experiments/aot/S_yt-9EnchawJ3pA_90.mp4	0.0	196.05767393112183	
50	181.10780692100525	fix_post	2		72	48.0	2.5	/experiments/aot/S_yt-9EnchawJ3pA_90.mp4	0.0	196.9778609275818	0.5992419719696045
51	181.70704889297485	fix_pre	0		11	49.0	2.5	/experiments/aot/S_yt-Fm97IY0Z2LU_110.mp4	0.0	197.5771028995514	0.09159302711486816
51	181.79086589813232	pulse	0	t		49.0	2.5	/experiments/aot/S_yt-Fm97IY0Z2LU_110.mp4	0.0	197.66091990470886	
51	181.79864192008972	movie	1		301	49.0	2.5	/experiments/aot/S_yt-Fm97IY0Z2LU_110.mp4	0.0	197.66869592666626	2.5082809925079346
51	183.3909158706665	pulse	1	t		49.0	2.5	/experiments/aot/S_yt-Fm97IY0Z2LU_110.mp4	0.0	199.26096987724304	
51	184.30692291259766	fix_post	2		72	49.0	2.5	/experiments/aot/S_yt-Fm97IY0Z2LU_110.mp4	0.0	200.1769769191742	0.6008799076080322
52	184.9078028202057	fix_pre	0		11	50.0	2.5	/experiments/aot/S_yt-JTuopUgmg1w_101.mp4	0.0	200.77785682678223	0.09080100059509277
52	184.99078392982483	pulse	0	t		50.0	2.5	/experiments/aot/S_yt-JTuopUgmg1w_101.mp4	0.0	200.86083793640137	
52	184.99860382080078	movie	1		301	50.0	2.5	/experiments/aot/S_yt-JTuopUgmg1w_101.mp4	0.0	200.86865782737732	2.508303165435791
52	186.5908658504486	pulse	1	t		50.0	2.5	/experiments/aot/S_yt-JTuopUgmg1w_101.mp4	0.0	202.46091985702515	
52	187.50690698623657	fix_post	2		72	50.0	2.5	/experiments/aot/S_yt-JTuopUgmg1w_101.mp4	0.0	203.3769609928131	0.6001238822937012
53	188.10703086853027	fix_pre	0		11	51.0	2.5	/experiments/aot/S_yt-ibDaDIEazxg_3.mp4	0.0	203.9770848751068	0.09153604507446289
53	188.19077491760254	pulse	0	t		51.0	2.5	/experiments/aot/S_yt-ibDaDIEazxg_3.mp4	0.0	204.06082892417908	
53	188.19856691360474	movie	1		301	51.0	2.5	/experiments/aot/S_yt-ibDaDIEazxg_3.mp4	0.0	204.06862092018127	2.5083000659942627
53	189.78669476509094	pulse	1	t		51.0	2.5	/experiments/aot/S_yt-ibDaDIEazxg_3.mp4	0.0	205.65674877166748	
53	190.706866979599	fix_post	2		72	51.0	2.5	/experiments/aot/S_yt-ibDaDIEazxg_3.mp4	0.0	206.57692098617554	0.6000299453735352
54	191.30689692497253	fix_pre	0		11	52.0	2.5	/experiments/aot/S_ILSVRC2015_train_00067005.mp4	0.0	207.17695093154907	0.09169292449951172
54	191.39078092575073	pulse	0	t		52.0	2.5	/experiments/aot/S_ILSVRC2015_train_00067005.mp4	0.0	207.26083493232727	
54	191.39858984947205	movie	1		301	52.0	2.5	/experiments/aot/S_ILSVRC2015_train_00067005.mp4	0.0	207.26864385604858	2.508289098739624
54	192.98663783073425	pulse	1	t		52.0	2.5	/experiments/aot/S_ILSVRC2015_train_00067005.mp4	0.0	208.8566918373108	
54	193.90687894821167	fix_post	2		72	52.0	2.5	/experiments/aot/S_ILSVRC2015_train_00067005.mp4	0.0	209.7769329547882	0.5999970436096191
55	194.5068759918213	fix_pre	0		11	53.0	2.5	/experiments/aot/S_xq822dX6DDM_1.mp4	0.0	210.37692999839783	0.09166598320007324
55	194.59084796905518	pulse	0	t		53.0	2.5	/experiments/aot/S_xq822dX6DDM_1.mp4	0.0	210.4609019756317	
55	194.59854197502136	movie	1		301	53.0	2.5	/experiments/aot/S_xq822dX6DDM_1.mp4	0.0	210.4685959815979	2.5082998275756836
55	196.19079780578613	pulse	1	t		53.0	2.5	/experiments/aot/S_xq822dX6DDM_1.mp4	0.0	212.06085181236267	
55	197.10684180259705	fix_post	2		72	53.0	2.5	/experiments/aot/S_xq822dX6DDM_1.mp4	0.0	212.97689580917358	0.600039005279541
56	197.7068808078766	fix_pre	0		11	54.0	2.5	/experiments/aot/S_yt-qsyDLtXcyHc_8.mp4	0.0	213.57693481445312	0.09255719184875488
56	197.79036378860474	pulse	0	t		54.0	2.5	/experiments/aot/S_yt-qsyDLtXcyHc_8.mp4	0.0	213.66041779518127	
56	197.79943799972534	movie	1		301	54.0	2.5	/experiments/aot/S_yt-qsyDLtXcyHc_8.mp4	0.0	213.66949200630188	2.5077250003814697
56	199.3905417919159	pulse	1	t		54.0	2.5	/experiments/aot/S_yt-qsyDLtXcyHc_8.mp4	0.0	215.26059579849243	
56	200.3071630001068	fix_post	2		72	54.0	2.5	/experiments/aot/S_yt-qsyDLtXcyHc_8.mp4	0.0	216.17721700668335	0.5996198654174805
57	200.9067828655243	fix_pre	0		11	55.0	2.5	/experiments/aot/S_flickr-clarkstonscamp-4863427159_1.mp4	0.0	216.77683687210083	0.09174489974975586
57	200.9907989501953	pulse	0	t		55.0	2.5	/experiments/aot/S_flickr-clarkstonscamp-4863427159_1.mp4	0.0	216.86085295677185	
57	200.99852776527405	movie	1		301	55.0	2.5	/experiments/aot/S_flickr-clarkstonscamp-4863427159_1.mp4	0.0	216.8685817718506	2.5084052085876465
57	202.5907769203186	pulse	1	t		55.0	2.5	/experiments/aot/S_flickr-clarkstonscamp-4863427159_1.mp4	0.0	218.46083092689514	
57	203.5069329738617	fix_post	2		72	55.0	2.5	/experiments/aot/S_flickr-clarkstonscamp-4863427159_1.mp4	0.0	219.37698698043823	0.5998959541320801
58	204.10682892799377	fix_pre	0		11	56.0	2.5	/experiments/aot/S_yt-NZIhxK5NvWE_152.mp4	0.0	219.9768829345703	0.09247803688049316
58	204.19075179100037	pulse	0	t		56.0	2.5	/experiments/aot/S_yt-NZIhxK5NvWE_152.mp4	0.0	220.0608057975769	
58	204.19930696487427	movie	1		301	56.0	2.5	/experiments/aot/S_yt-NZIhxK5NvWE_152.mp4	0.0	220.0693609714508	2.5075018405914307
58	205.7907009124756	pulse	1	t		56.0	2.5	/experiments/aot/S_yt-NZIhxK5NvWE_152.mp4	0.0	221.66075491905212	
58	206.7068088054657	fix_post	2		72	56.0	2.5	/experiments/aot/S_yt-NZIhxK5NvWE_152.mp4	0.0	222.57686281204224	0.6000180244445801
59	207.30682682991028	fix_pre	0		11	57.0	2.5	/experiments/aot/S_yt-oxUpc8I5wWQ_238.mp4	0.0	223.17688083648682	0.09165811538696289
59	207.39071893692017	pulse	0	t		57.0	2.5	/experiments/aot/S_yt-oxUpc8I5wWQ_238.mp4	0.0	223.2607729434967	
59	207.39848494529724	movie	1		301	57.0	2.5	/experiments/aot/S_yt-oxUpc8I5wWQ_238.mp4	0.0	223.26853895187378	2.508293867111206
59	208.98642897605896	pulse	1	t		57.0	2.5	/experiments/aot/S_yt-oxUpc8I5wWQ_238.mp4	0.0	224.8564829826355	
59	209.90677881240845	fix_post	2		72	57.0	2.5	/experiments/aot/S_yt-oxUpc8I5wWQ_238.mp4	0.0	225.77683281898499	0.6001529693603516
60	210.5069317817688	fix_pre	0		11	58.0	2.5	/experiments/aot/S_yt--koo4FOfZE0_86.mp4	0.0	226.37698578834534	0.091522216796875
60	210.59070086479187	pulse	0	t		58.0	2.5	/experiments/aot/S_yt--koo4FOfZE0_86.mp4	0.0	226.4607548713684	
60	210.59845399856567	movie	1		301	58.0	2.5	/experiments/aot/S_yt--koo4FOfZE0_86.mp4	0.0	226.4685080051422	2.50834584236145
60	212.18638682365417	pulse	1	t		58.0	2.5	/experiments/aot/S_yt--koo4FOfZE0_86.mp4	0.0	228.0564408302307	
60	213.10679984092712	fix_post	2		72	58.0	2.5	/experiments/aot/S_yt--koo4FOfZE0_86.mp4	0.0	228.97685384750366	0.5999610424041748
61	213.7067608833313	fix_pre	0		11	59.0	2.5	/experiments/aot/S_ILSVRC2015_train_00369004.mp4	0.0	229.57681488990784	0.09171199798583984
61	213.79064178466797	pulse	0	t		59.0	2.5	/experiments/aot/S_ILSVRC2015_train_00369004.mp4	0.0	229.6606957912445	
61	213.79847288131714	movie	1		301	59.0	2.5	/experiments/aot/S_ILSVRC2015_train_00369004.mp4	0.0	229.66852688789368	2.5083560943603516
61	215.39070987701416	pulse	1	t		59.0	2.5	/experiments/aot/S_ILSVRC2015_train_00369004.mp4	0.0	231.2607638835907	
61	216.3068289756775	fix_post	2		72	59.0	2.5	/experiments/aot/S_ILSVRC2015_train_00369004.mp4	0.0	232.17688298225403	0.5998659133911133
62	216.9066948890686	fix_pre	0		11	60.0	2.5	blank	1.0	232.77674889564514	0.09173893928527832
62	216.99069094657898	pulse	0	t		60.0	2.5	blank	1.0	232.86074495315552	
62	216.99843382835388	movie	1		301	60.0	2.5	blank	1.0	232.86848783493042	2.508355140686035
62	218.5906949043274	pulse	1	t		60.0	2.5	blank	1.0	234.46074891090393	
62	219.50678896903992	fix_post	2		72	60.0	2.5	blank	1.0	235.37684297561646	0.5999579429626465
63	220.10674691200256	fix_pre	0		11	61.0	2.5	/experiments/aot/S_pexels-tima-miroshnichenko-5717005.mp4	0.0	235.9768009185791	0.09185791015625
63	220.19068098068237	pulse	0	t		61.0	2.5	/experiments/aot/S_pexels-tima-miroshnichenko-5717005.mp4	0.0	236.0607349872589	
63	220.1986048221588	movie	1		163	61.0	2.5	/experiments/aot/S_pexels-tima-miroshnichenko-5717005.mp4	0.0	236.06865882873535	2.5081520080566406
63	221.79049277305603	pulse	1	t		61.0	2.5	/experiments/aot/S_pexels-tima-miroshnichenko-5717005.mp4	0.0	237.66054677963257	
63	222.70675683021545	fix_post	2		72	61.0	2.5	/experiments/aot/S_pexels-tima-miroshnichenko-5717005.mp4	0.0	238.576810836792	0.5999231338500977
64	223.30667996406555	fix_pre	0		11	62.0	2.5	/experiments/aot/S_yt-XA6RBioito4_18.mp4	0.0	239.1767339706421	0.09322690963745117
64	223.39058089256287	pulse	0	t		62.0	2.5	/experiments/aot/S_yt-XA6RBioito4_18.mp4	0.0	239.2606348991394	
64	223.399906873703	movie	1		301	62.0	2.5	/experiments/aot/S_yt-XA6RBioito4_18.mp4	0.0	239.26996088027954	2.5068390369415283
64	224.98642683029175	pulse	1	t		62.0	2.5	/experiments/aot/S_yt-XA6RBioito4_18.mp4	0.0	240.8564808368683	
64	225.90674591064453	fix_post	2		72	62.0	2.5	/experiments/aot/S_yt-XA6RBioito4_18.mp4	0.0	241.77679991722107	0.5999889373779297
65	226.50673484802246	fix_pre	0		11	63.0	2.5	blank	1.0	242.376788854599	0.09162592887878418
65	226.59063076972961	pulse	0	t		63.0	2.5	blank	1.0	242.46068477630615	
65	226.59836077690125	movie	1		301	63.0	2.5	blank	1.0	242.46841478347778	2.5083460807800293
65	228.19062685966492	pulse	1	t		63.0	2.5	blank	1.0	244.06068086624146	
65	229.10670685768127	fix_post	2		72	63.0	2.5	blank	1.0	244.9767608642578	0.5999801158905029
66	229.70668697357178	fix_pre	0		11	64.0	2.5	/experiments/aot/S_ILSVRC2015_train_00515000.mp4	0.0	245.57674098014832	0.09199190139770508
66	229.79060077667236	pulse	0	t		64.0	2.5	/experiments/aot/S_ILSVRC2015_train_00515000.mp4	0.0	245.6606547832489	
66	229.79867887496948	movie	1		301	64.0	2.5	/experiments/aot/S_ILSVRC2015_train_00515000.mp4	0.0	245.66873288154602	2.507988929748535
66	231.39056587219238	pulse	1	t		64.0	2.5	/experiments/aot/S_ILSVRC2015_train_00515000.mp4	0.0	247.26061987876892	
66	232.30666780471802	fix_post	2		72	64.0	2.5	/experiments/aot/S_ILSVRC2015_train_00515000.mp4	0.0	248.17672181129456	0.6000320911407471
67	232.90669989585876	fix_pre	0		11	65.0	2.5	/experiments/aot/S_yt-xBwq6sHHF5M_21.mp4	0.0	248.7767539024353	0.09167194366455078
67	232.9905869960785	pulse	0	t		65.0	2.5	/experiments/aot/S_yt-xBwq6sHHF5M_21.mp4	0.0	248.86064100265503	
67	232.99837183952332	movie	1		301	65.0	2.5	/experiments/aot/S_yt-xBwq6sHHF5M_21.mp4	0.0	248.86842584609985	2.5082409381866455
67	234.59062886238098	pulse	1	t		65.0	2.5	/experiments/aot/S_yt-xBwq6sHHF5M_21.mp4	0.0	250.46068286895752	
67	235.50661277770996	fix_post	2		72	65.0	2.5	/experiments/aot/S_yt-xBwq6sHHF5M_21.mp4	0.0	251.3766667842865	0.6001060009002686
68	236.10671877861023	fix_pre	0		11	66.0	2.5	/experiments/aot/S_yt-9Ow95khYa_M_91.mp4	0.0	251.97677278518677	0.09164214134216309
68	236.1905357837677	pulse	0	t		66.0	2.5	/experiments/aot/S_yt-9Ow95khYa_M_91.mp4	0.0	252.06058979034424	
68	236.1983609199524	movie	1		301	66.0	2.5	/experiments/aot/S_yt-9Ow95khYa_M_91.mp4	0.0	252.06841492652893	2.508262872695923
68	237.7906219959259	pulse	1	t		66.0	2.5	/experiments/aot/S_yt-9Ow95khYa_M_91.mp4	0.0	253.66067600250244	
68	238.70662379264832	fix_post	2		72	66.0	2.5	/experiments/aot/S_yt-9Ow95khYa_M_91.mp4	0.0	254.57667779922485	0.599999189376831
69	239.30662298202515	fix_pre	0		11	67.0	2.5	/experiments/aot/S_yt-GWlwb2QsxIA_48.mp4	0.0	255.17667698860168	0.09166884422302246
69	239.39055490493774	pulse	0	t		67.0	2.5	/experiments/aot/S_yt-GWlwb2QsxIA_48.mp4	0.0	255.26060891151428	
69	239.39829182624817	movie	1		301	67.0	2.5	/experiments/aot/S_yt-GWlwb2QsxIA_48.mp4	0.0	255.2683458328247	2.508358955383301
69	240.98631978034973	pulse	1	t		67.0	2.5	/experiments/aot/S_yt-GWlwb2QsxIA_48.mp4	0.0	256.85637378692627	
69	241.90665078163147	fix_post	2		72	67.0	2.5	/experiments/aot/S_yt-GWlwb2QsxIA_48.mp4	0.0	257.776704788208	0.5999782085418701
70	242.50662899017334	fix_pre	0		11	68.0	2.5	/experiments/aot/S_wc-8bTJmWfuVyJ4_8.mp4	0.0	258.3766829967499	0.09161782264709473
70	242.59054899215698	pulse	0	t		68.0	2.5	/experiments/aot/S_wc-8bTJmWfuVyJ4_8.mp4	0.0	258.4606029987335	
70	242.59824681282043	movie	1		161	68.0	2.5	/experiments/aot/S_wc-8bTJmWfuVyJ4_8.mp4	0.0	258.468300819397	2.5083911418914795
70	244.19124293327332	pulse	1	t		68.0	2.5	/experiments/aot/S_wc-8bTJmWfuVyJ4_8.mp4	0.0	260.06129693984985	
70	245.1066379547119	fix_post	2		72	68.0	2.5	/experiments/aot/S_wc-8bTJmWfuVyJ4_8.mp4	0.0	260.97669196128845	0.6000168323516846
71	245.7066547870636	fix_pre	0		11	69.0	2.5	blank	1.0	261.57670879364014	0.09244298934936523
71	245.79053592681885	pulse	0	t		69.0	2.5	blank	1.0	261.6605899333954	
71	245.79909777641296	movie	1		301	69.0	2.5	blank	1.0	261.6691517829895	2.5074691772460938
71	247.3904378414154	pulse	1	t		69.0	2.5	blank	1.0	263.26049184799194	
71	248.30656695365906	fix_post	2		72	69.0	2.5	blank	1.0	264.1766209602356	0.6000468730926514
72	248.9066138267517	fix_pre	0		11	70.0	2.5	/experiments/aot/S_yt-vQ-rd-1gwH4_238.mp4	0.0	264.77666783332825	0.09167695045471191
72	248.9905128479004	pulse	0	t		70.0	2.5	/experiments/aot/S_yt-vQ-rd-1gwH4_238.mp4	0.0	264.86056685447693	
72	248.99829077720642	movie	1		301	70.0	2.5	/experiments/aot/S_yt-vQ-rd-1gwH4_238.mp4	0.0	264.86834478378296	2.5083470344543457
72	250.59050178527832	pulse	1	t		70.0	2.5	/experiments/aot/S_yt-vQ-rd-1gwH4_238.mp4	0.0	266.46055579185486	
72	251.50663781166077	fix_post	2		72	70.0	2.5	/experiments/aot/S_yt-vQ-rd-1gwH4_238.mp4	0.0	267.3766918182373	0.6000070571899414
73	252.1066448688507	fix_pre	0		11	71.0	2.5	/experiments/aot/S_production_ID_4325516.mp4	0.0	267.97669887542725	0.09168004989624023
73	252.19045186042786	pulse	0	t		71.0	2.5	/experiments/aot/S_production_ID_4325516.mp4	0.0	268.0605058670044	
73	252.19832491874695	movie	1		164	71.0	2.5	/experiments/aot/S_production_ID_4325516.mp4	0.0	268.0683789253235	2.5084099769592285
73	253.78933095932007	pulse	1	t		71.0	2.5	/experiments/aot/S_production_ID_4325516.mp4	0.0	269.6593849658966	
73	254.70673489570618	fix_post	2		72	71.0	2.5	/experiments/aot/S_production_ID_4325516.mp4	0.0	270.5767889022827	0.6011219024658203
74	255.307856798172	fix_pre	0		11	72.0	2.5	blank	1.0	271.17791080474854	0.0915231704711914
74	255.39068484306335	pulse	0	t		72.0	2.5	blank	1.0	271.2607388496399	
74	255.3993799686432	movie	1		301	72.0	2.5	blank	1.0	271.2694339752197	2.507169008255005
74	256.9904899597168	pulse	1	t		72.0	2.5	blank	1.0	272.86054396629333	
74	257.9065489768982	fix_post	2		72	72.0	2.5	blank	1.0	273.77660298347473	0.6000208854675293
75	258.5065698623657	fix_pre	0		11	73.0	2.5	blank	1.0	274.37662386894226	0.09167003631591797
75	258.5904769897461	pulse	0	t		73.0	2.5	blank	1.0	274.46053099632263	
75	258.59823989868164	movie	1		301	73.0	2.5	blank	1.0	274.4682939052582	2.5083250999450684
75	260.1903967857361	pulse	1	t		73.0	2.5	blank	1.0	276.0604507923126	
75	261.1065649986267	fix_post	2		72	73.0	2.5	blank	1.0	276.97661900520325	0.5999999046325684
76	261.7065649032593	fix_pre	0		11	74.0	2.5	/experiments/aot/S_yt-AiXq1oDrEXI_123.mp4	0.0	277.5766189098358	0.09164786338806152
76	261.79034090042114	pulse	0	t		74.0	2.5	/experiments/aot/S_yt-AiXq1oDrEXI_123.mp4	0.0	277.6603949069977	
76	261.79821276664734	movie	1		301	74.0	2.5	/experiments/aot/S_yt-AiXq1oDrEXI_123.mp4	0.0	277.6682667732239	2.509280204772949
76	263.3904538154602	pulse	1	t		74.0	2.5	/experiments/aot/S_yt-AiXq1oDrEXI_123.mp4	0.0	279.26050782203674	
76	264.3074929714203	fix_post	2		72	74.0	2.5	/experiments/aot/S_yt-AiXq1oDrEXI_123.mp4	0.0	280.1775469779968	0.5990719795227051
77	264.906564950943	fix_pre	0		11	75.0	2.5	/experiments/aot/S_WCwb-DeQOSg_85.mp4	0.0	280.77661895751953	0.09263801574707031
77	264.9904179573059	pulse	0	t		75.0	2.5	/experiments/aot/S_WCwb-DeQOSg_85.mp4	0.0	280.86047196388245	
77	264.99920296669006	movie	1		301	75.0	2.5	/experiments/aot/S_WCwb-DeQOSg_85.mp4	0.0	280.8692569732666	2.5072879791259766
77	266.59043979644775	pulse	1	t		75.0	2.5	/experiments/aot/S_WCwb-DeQOSg_85.mp4	0.0	282.4604938030243	
77	267.50649094581604	fix_post	2		72	75.0	2.5	/experiments/aot/S_WCwb-DeQOSg_85.mp4	0.0	283.3765449523926	0.600031852722168
78	268.1065227985382	fix_pre	0		11	76.0	2.5	/experiments/aot/S_yt-KV8X9IBWuJk_48.mp4	0.0	283.97657680511475	0.09163498878479004
78	268.1903758049011	pulse	0	t		76.0	2.5	/experiments/aot/S_yt-KV8X9IBWuJk_48.mp4	0.0	284.06042981147766	
78	268.198157787323	movie	1		301	76.0	2.5	/experiments/aot/S_yt-KV8X9IBWuJk_48.mp4	0.0	284.06821179389954	2.5082931518554688
78	269.78700280189514	pulse	1	t		76.0	2.5	/experiments/aot/S_yt-KV8X9IBWuJk_48.mp4	0.0	285.6570568084717	
78	270.70645093917847	fix_post	2		72	76.0	2.5	/experiments/aot/S_yt-KV8X9IBWuJk_48.mp4	0.0	286.576504945755	0.6000308990478516
79	271.3064818382263	fix_pre	0		11	77.0	2.5	/experiments/aot/S_yt-Jro_TRE8NUQ_234.mp4	0.0	287.17653584480286	0.09163308143615723
79	271.3904027938843	pulse	0	t		77.0	2.5	/experiments/aot/S_yt-Jro_TRE8NUQ_234.mp4	0.0	287.2604568004608	
79	271.3981149196625	movie	1		301	77.0	2.5	/experiments/aot/S_yt-Jro_TRE8NUQ_234.mp4	0.0	287.268168926239	2.5082919597625732
79	272.99047088623047	pulse	1	t		77.0	2.5	/experiments/aot/S_yt-Jro_TRE8NUQ_234.mp4	0.0	288.860524892807	
79	273.90640687942505	fix_post	2		72	77.0	2.5	/experiments/aot/S_yt-Jro_TRE8NUQ_234.mp4	0.0	289.7764608860016	0.6009700298309326
80	274.507376909256	fix_pre	0		11	78.0	2.5	blank	1.0	290.3774309158325	0.09084296226501465
80	274.5903799533844	pulse	0	t		78.0	2.5	blank	1.0	290.46043395996094	
80	274.598219871521	movie	1		301	78.0	2.5	blank	1.0	290.46827387809753	2.5082719326019287
80	276.1903758049011	pulse	1	t		78.0	2.5	blank	1.0	292.06042981147766	
80	277.1064918041229	fix_post	2		72	78.0	2.5	blank	1.0	292.97654581069946	0.5999860763549805
81	277.7064778804779	fix_pre	0		11	79.0	2.5	blank	1.0	293.57653188705444	0.09249210357666016
81	277.79034876823425	pulse	0	t		79.0	2.5	blank	1.0	293.6604027748108	
81	277.79896998405457	movie	1		301	79.0	2.5	blank	1.0	293.6690239906311	2.507471799850464
81	279.3903238773346	pulse	1	t		79.0	2.5	blank	1.0	295.26037788391113	
81	280.30644178390503	fix_post	2		72	79.0	2.5	blank	1.0	296.17649579048157	0.6000270843505859
82	280.9064688682556	fix_pre	0		11	80.0	2.5	/experiments/aot/S_yt-K-iCphzt_RE_17.mp4	0.0	296.77652287483215	0.0916290283203125
82	280.99030685424805	pulse	0	t		80.0	2.5	/experiments/aot/S_yt-K-iCphzt_RE_17.mp4	0.0	296.8603608608246	
82	280.9980978965759	movie	1		301	80.0	2.5	/experiments/aot/S_yt-K-iCphzt_RE_17.mp4	0.0	296.86815190315247	2.508478879928589
82	282.5903959274292	pulse	1	t		80.0	2.5	/experiments/aot/S_yt-K-iCphzt_RE_17.mp4	0.0	298.46044993400574	
82	283.5065767765045	fix_post	2		72	80.0	2.5	/experiments/aot/S_yt-K-iCphzt_RE_17.mp4	0.0	299.37663078308105	0.5998930931091309
83	284.10646986961365	fix_pre	0		11	81.0	2.5	/experiments/aot/S_yt-n_eO-7KedAE_21.mp4	0.0	299.9765238761902	0.09166407585144043
83	284.1902799606323	pulse	0	t		81.0	2.5	/experiments/aot/S_yt-n_eO-7KedAE_21.mp4	0.0	300.06033396720886	
83	284.1981339454651	movie	1		301	81.0	2.5	/experiments/aot/S_yt-n_eO-7KedAE_21.mp4	0.0	300.0681879520416	2.508281946182251
83	285.79033398628235	pulse	1	t		81.0	2.5	/experiments/aot/S_yt-n_eO-7KedAE_21.mp4	0.0	301.6603879928589	
83	286.70641589164734	fix_post	2		72	81.0	2.5	/experiments/aot/S_yt-n_eO-7KedAE_21.mp4	0.0	302.5764698982239	0.5999500751495361
84	287.3063659667969	fix_pre	0		11	82.0	2.5	/experiments/aot/S_yt--OkafQ5VFHs_51.mp4	0.0	303.1764199733734	0.09250092506408691
84	287.3903110027313	pulse	0	t		82.0	2.5	/experiments/aot/S_yt--OkafQ5VFHs_51.mp4	0.0	303.26036500930786	
84	287.39886689186096	movie	1		301	82.0	2.5	/experiments/aot/S_yt--OkafQ5VFHs_51.mp4	0.0	303.2689208984375	2.507457971572876
84	288.99029779434204	pulse	1	t		82.0	2.5	/experiments/aot/S_yt--OkafQ5VFHs_51.mp4	0.0	304.8603518009186	
84	289.90632486343384	fix_post	2		72	82.0	2.5	/experiments/aot/S_yt--OkafQ5VFHs_51.mp4	0.0	305.7763788700104	0.6000959873199463
85	290.5064208507538	fix_pre	0		11	83.0	2.5	blank	1.0	306.3764748573303	0.09165692329406738
85	290.5903289318085	pulse	0	t		83.0	2.5	blank	1.0	306.460382938385	
85	290.59807777404785	movie	1		301	83.0	2.5	blank	1.0	306.4681317806244	2.5082881450653076
85	292.1902949810028	pulse	1	t		83.0	2.5	blank	1.0	308.06034898757935	
85	293.10636591911316	fix_post	2		72	83.0	2.5	blank	1.0	308.9764199256897	0.5999798774719238
86	293.7063457965851	fix_pre	0		11	84.0	2.5	blank	1.0	309.5763998031616	0.09255599975585938
86	293.7903378009796	pulse	0	t		84.0	2.5	blank	1.0	309.66039180755615	
86	293.79890179634094	movie	1		301	84.0	2.5	blank	1.0	309.6689558029175	2.5074570178985596
86	295.3902449607849	pulse	1	t		84.0	2.5	blank	1.0	311.26029896736145	
86	296.3063588142395	fix_post	2		72	84.0	2.5	blank	1.0	312.17641282081604	0.6008391380310059
87	296.9071979522705	fix_pre	0		11	85.0	2.5	/experiments/aot/S_yt-deiWoIfK6vg_44.mp4	0.0	312.77725195884705	0.09171295166015625
87	296.9902617931366	pulse	0	t		85.0	2.5	/experiments/aot/S_yt-deiWoIfK6vg_44.mp4	0.0	312.86031579971313	
87	296.99891090393066	movie	1		301	85.0	2.5	/experiments/aot/S_yt-deiWoIfK6vg_44.mp4	0.0	312.8689649105072	2.5074450969696045
87	298.59029483795166	pulse	1	t		85.0	2.5	/experiments/aot/S_yt-deiWoIfK6vg_44.mp4	0.0	314.4603488445282	
87	299.50635600090027	fix_post	2		72	85.0	2.5	/experiments/aot/S_yt-deiWoIfK6vg_44.mp4	0.0	315.3764100074768	0.599984884262085
88	300.10634088516235	fix_pre	0		11	86.0	2.5	/experiments/aot/S_yt-y3tyx6cZjmA_412.mp4	0.0	315.9763948917389	0.09163808822631836
88	300.1902279853821	pulse	0	t		86.0	2.5	/experiments/aot/S_yt-y3tyx6cZjmA_412.mp4	0.0	316.0602819919586	
88	300.1979789733887	movie	1		301	86.0	2.5	/experiments/aot/S_yt-y3tyx6cZjmA_412.mp4	0.0	316.0680329799652	2.5083348751068115
88	301.79026985168457	pulse	1	t		86.0	2.5	/experiments/aot/S_yt-y3tyx6cZjmA_412.mp4	0.0	317.6603238582611	
88	302.7063138484955	fix_post	2		72	86.0	2.5	/experiments/aot/S_yt-y3tyx6cZjmA_412.mp4	0.0	318.576367855072	0.5999529361724854
89	303.30626678466797	fix_pre	0		11	87.0	2.5	/experiments/aot/S_ILSVRC2015_train_00411000.mp4	0.0	319.1763207912445	0.09171199798583984
89	303.39036297798157	pulse	0	t		87.0	2.5	/experiments/aot/S_ILSVRC2015_train_00411000.mp4	0.0	319.2604169845581	
89	303.3979787826538	movie	1		301	87.0	2.5	/experiments/aot/S_ILSVRC2015_train_00411000.mp4	0.0	319.26803278923035	2.509124994277954
89	304.99025988578796	pulse	1	t		87.0	2.5	/experiments/aot/S_ILSVRC2015_train_00411000.mp4	0.0	320.8603138923645	
89	305.90710377693176	fix_post	2		72	87.0	2.5	/experiments/aot/S_ILSVRC2015_train_00411000.mp4	0.0	321.7771577835083	0.6003711223602295
90	306.507474899292	fix_pre	0		11	88.0	2.5	/experiments/aot/S_production_ID_3967181.mp4	0.0	322.37752890586853	0.0905759334564209
90	306.5901827812195	pulse	0	t		88.0	2.5	/experiments/aot/S_production_ID_3967181.mp4	0.0	322.460236787796	
90	306.5980508327484	movie	1		165	88.0	2.5	/experiments/aot/S_production_ID_3967181.mp4	0.0	322.46810483932495	2.5082759857177734
90	308.19052386283875	pulse	1	t		88.0	2.5	/experiments/aot/S_production_ID_3967181.mp4	0.0	324.0605778694153	
90	309.1063268184662	fix_post	2		72	88.0	2.5	/experiments/aot/S_production_ID_3967181.mp4	0.0	324.9763808250427	0.5999951362609863
91	309.7063219547272	fix_pre	0		11	89.0	2.5	/experiments/aot/S_production_ID_5144823.mp4	0.0	325.5763759613037	0.09166383743286133
91	309.7897868156433	pulse	0	t		89.0	2.5	/experiments/aot/S_production_ID_5144823.mp4	0.0	325.65984082221985	
91	309.79798579216003	movie	1		162	89.0	2.5	/experiments/aot/S_production_ID_5144823.mp4	0.0	325.6680397987366	2.5086801052093506
91	311.3900818824768	pulse	1	t		89.0	2.5	/experiments/aot/S_production_ID_5144823.mp4	0.0	327.26013588905334	
91	312.3066658973694	fix_post	2		72	89.0	2.5	/experiments/aot/S_production_ID_5144823.mp4	0.0	328.1767199039459	0.5996670722961426
92	312.9063329696655	fix_pre	0		11	90.0	2.5	/experiments/aot/S_yt-QTGIhecBZjc_19.mp4	0.0	328.77638697624207	0.09165787696838379
92	312.9902288913727	pulse	0	t		90.0	2.5	/experiments/aot/S_yt-QTGIhecBZjc_19.mp4	0.0	328.8602828979492	
92	312.9979908466339	movie	1		301	90.0	2.5	/experiments/aot/S_yt-QTGIhecBZjc_19.mp4	0.0	328.86804485321045	2.508286952972412
92	314.5901868343353	pulse	1	t		90.0	2.5	/experiments/aot/S_yt-QTGIhecBZjc_19.mp4	0.0	330.46024084091187	
92	315.5062777996063	fix_post	2		72	90.0	2.5	/experiments/aot/S_yt-QTGIhecBZjc_19.mp4	0.0	331.37633180618286	0.6000139713287354
93	316.10629177093506	fix_pre	0		11	91.0	2.5	/experiments/aot/S_pexels-mikhail-nilov-8410084_1.mp4	0.0	331.9763457775116	0.09167122840881348
93	316.19008684158325	pulse	0	t		91.0	2.5	/experiments/aot/S_pexels-mikhail-nilov-8410084_1.mp4	0.0	332.0601408481598	
93	316.1979629993439	movie	1		163	91.0	2.5	/experiments/aot/S_pexels-mikhail-nilov-8410084_1.mp4	0.0	332.0680170059204	2.5091748237609863
93	317.7897379398346	pulse	1	t		91.0	2.5	/experiments/aot/S_pexels-mikhail-nilov-8410084_1.mp4	0.0	333.65979194641113	
93	318.70713782310486	fix_post	2		72	91.0	2.5	/experiments/aot/S_pexels-mikhail-nilov-8410084_1.mp4	0.0	334.5771918296814	0.5991230010986328
95	319.3062608242035	stim	0		1716					335.17631483078003	14.300390005111694
95	319.3900887966156	pulse	0	t						335.26014280319214	
95	320.99007296562195	pulse	0	t						336.8601269721985	
95	322.590096950531	pulse	0	t						338.46015095710754	
95	324.19006991386414	pulse	0	t						340.0601239204407	
95	325.7900478839874	pulse	0	t						341.66010189056396	
95	327.39008593559265	pulse	0	t						343.2601399421692	
95	328.99028277397156	pulse	0	t						344.8603367805481	
95	330.590087890625	pulse	0	t						346.46014189720154	
95	332.19004487991333	pulse	0	t						348.06009888648987	
