trial_nr	onset	event_type	phase	response	nr_frames	movie_index	movie_duration	movie_file	blank	onset_abs	duration
0	0.1337141990661621	stim	0		90					18.78088617324829	0.749565839767456
0	0.8751680850982666	response	0	space						19.522340059280396	
1	0.8832800388336182	stim	0		4416					19.530452013015747	36.800081968307495
1	37.67200303077698	pulse	0	t						56.319175004959106	
1	37.68336200714111	stim	1		1717					56.33053398132324	14.307778120040894
1	39.26669502258301	pulse	1	t						57.91386699676514	
1	40.86743402481079	pulse	1	t						59.51460599899292	
1	42.46741318702698	pulse	1	t						61.114585161209106	
1	44.067413091659546	pulse	1	t						62.714585065841675	
1	45.667438983917236	pulse	1	t						64.31461095809937	
1	47.267508029937744	pulse	1	t						65.91468000411987	
1	48.867372035980225	pulse	1	t						67.51454401016235	
1	50.467390060424805	pulse	1	t						69.11456203460693	
2	51.99114012718201	fix_pre	0		11	0.0	2.5	/experiments/aot/S_production_ID_4802710.mp4	0.0	70.63831210136414	0.09158086776733398
2	52.06740117073059	pulse	0	t		0.0	2.5	/experiments/aot/S_production_ID_4802710.mp4	0.0	70.71457314491272	
2	52.08272099494934	movie	1		162	0.0	2.5	/experiments/aot/S_production_ID_4802710.mp4	0.0	70.72989296913147	2.5091381072998047
2	53.66670513153076	pulse	1	t		0.0	2.5	/experiments/aot/S_production_ID_4802710.mp4	0.0	72.31387710571289	
2	54.591859102249146	fix_post	2		72	0.0	2.5	/experiments/aot/S_production_ID_4802710.mp4	0.0	73.23903107643127	0.5991499423980713
3	55.19100904464722	fix_pre	0		10	1.0	2.5	/experiments/aot/S_yt-KV8X9IBWuJk_48.mp4	0.0	73.83818101882935	0.08429098129272461
3	55.26664400100708	pulse	0	t		1.0	2.5	/experiments/aot/S_yt-KV8X9IBWuJk_48.mp4	0.0	73.91381597518921	
3	55.27530002593994	movie	1		301	1.0	2.5	/experiments/aot/S_yt-KV8X9IBWuJk_48.mp4	0.0	73.92247200012207	2.507580041885376
3	56.86759114265442	pulse	1	t		1.0	2.5	/experiments/aot/S_yt-KV8X9IBWuJk_48.mp4	0.0	75.51476311683655	
3	57.78288006782532	fix_post	2		72	1.0	2.5	/experiments/aot/S_yt-KV8X9IBWuJk_48.mp4	0.0	76.43005204200745	0.5997929573059082
4	58.382673025131226	fix_pre	0		12	2.0	2.5	/experiments/aot/S_yt-n_eO-7KedAE_21.mp4	0.0	77.02984499931335	0.10001015663146973
4	58.46739411354065	pulse	0	t		2.0	2.5	/experiments/aot/S_yt-n_eO-7KedAE_21.mp4	0.0	77.11456608772278	
4	58.482683181762695	movie	1		300	2.0	2.5	/experiments/aot/S_yt-n_eO-7KedAE_21.mp4	0.0	77.12985515594482	2.508335828781128
4	60.07080101966858	pulse	1	t		2.0	2.5	/experiments/aot/S_yt-n_eO-7KedAE_21.mp4	0.0	78.71797299385071	
4	60.99101901054382	fix_post	2		72	2.0	2.5	/experiments/aot/S_yt-n_eO-7KedAE_21.mp4	0.0	79.63819098472595	0.5999941825866699
5	61.59101319313049	fix_pre	0		11	3.0	2.5	/experiments/aot/S_yt-ibDaDIEazxg_3.mp4	0.0	80.23818516731262	0.09165287017822266
5	61.66757106781006	pulse	0	t		3.0	2.5	/experiments/aot/S_yt-ibDaDIEazxg_3.mp4	0.0	80.31474304199219	
5	61.682666063308716	movie	1		301	3.0	2.5	/experiments/aot/S_yt-ibDaDIEazxg_3.mp4	0.0	80.32983803749084	2.5092949867248535
5	63.271320104599	pulse	1	t		3.0	2.5	/experiments/aot/S_yt-ibDaDIEazxg_3.mp4	0.0	81.91849207878113	
5	64.19196105003357	fix_post	2		72	3.0	2.5	/experiments/aot/S_yt-ibDaDIEazxg_3.mp4	0.0	82.8391330242157	0.599959135055542
6	64.79192018508911	fix_pre	0		11	4.0	2.5	/experiments/aot/S_wc-8bTJmWfuVyJ4_8.mp4	0.0	83.43909215927124	0.09166502952575684
6	64.86740517616272	pulse	0	t		4.0	2.5	/experiments/aot/S_wc-8bTJmWfuVyJ4_8.mp4	0.0	83.51457715034485	
6	64.88358521461487	movie	1		161	4.0	2.5	/experiments/aot/S_wc-8bTJmWfuVyJ4_8.mp4	0.0	83.530757188797	2.5074567794799805
6	66.47499299049377	pulse	1	t		4.0	2.5	/experiments/aot/S_wc-8bTJmWfuVyJ4_8.mp4	0.0	85.1221649646759	
6	67.39104199409485	fix_post	2		72	4.0	2.5	/experiments/aot/S_wc-8bTJmWfuVyJ4_8.mp4	0.0	86.03821396827698	0.6000421047210693
7	67.99108409881592	fix_pre	0		11	5.0	2.5	/experiments/aot/S_yt-vQ-rd-1gwH4_238.mp4	0.0	86.63825607299805	0.09245610237121582
7	68.06738901138306	pulse	0	t		5.0	2.5	/experiments/aot/S_yt-vQ-rd-1gwH4_238.mp4	0.0	86.71456098556519	
7	68.08354020118713	movie	1		301	5.0	2.5	/experiments/aot/S_yt-vQ-rd-1gwH4_238.mp4	0.0	86.73071217536926	2.507483959197998
7	69.67172813415527	pulse	1	t		5.0	2.5	/experiments/aot/S_yt-vQ-rd-1gwH4_238.mp4	0.0	88.3189001083374	
7	70.59102416038513	fix_post	2		72	5.0	2.5	/experiments/aot/S_yt-vQ-rd-1gwH4_238.mp4	0.0	89.23819613456726	0.599977970123291
8	71.19100213050842	fix_pre	0		10	6.0	2.5	/experiments/aot/S_yt-1sn8u-rQRas_7.mp4	0.0	89.83817410469055	0.08417892456054688
8	71.26658010482788	pulse	0	t		6.0	2.5	/experiments/aot/S_yt-1sn8u-rQRas_7.mp4	0.0	89.91375207901001	
8	71.27518105506897	movie	1		301	6.0	2.5	/experiments/aot/S_yt-1sn8u-rQRas_7.mp4	0.0	89.9223530292511	2.507507085800171
8	72.86752915382385	pulse	1	t		6.0	2.5	/experiments/aot/S_yt-1sn8u-rQRas_7.mp4	0.0	91.51470112800598	
8	73.78268814086914	fix_post	2		72	6.0	2.5	/experiments/aot/S_yt-1sn8u-rQRas_7.mp4	0.0	92.42986011505127	0.5999979972839355
9	74.38268613815308	fix_pre	0		12	7.0	2.5	/experiments/aot/S_production_ID_5119260.mp4	0.0	93.0298581123352	0.09996199607849121
9	74.46734404563904	pulse	0	t		7.0	2.5	/experiments/aot/S_production_ID_5119260.mp4	0.0	93.11451601982117	
9	74.48264813423157	movie	1		160	7.0	2.5	/experiments/aot/S_production_ID_5119260.mp4	0.0	93.1298201084137	2.5083420276641846
9	76.0747320652008	pulse	1	t		7.0	2.5	/experiments/aot/S_production_ID_5119260.mp4	0.0	94.72190403938293	
9	76.99099016189575	fix_post	2		72	7.0	2.5	/experiments/aot/S_production_ID_5119260.mp4	0.0	95.63816213607788	0.5999698638916016
10	77.59096002578735	fix_pre	0		11	8.0	2.5	blank	1.0	96.23813199996948	0.09257006645202637
10	77.66743016242981	pulse	0	t		8.0	2.5	blank	1.0	96.31460213661194	
10	77.68353009223938	movie	1		301	8.0	2.5	blank	1.0	96.33070206642151	2.5074141025543213
10	79.26742720603943	pulse	1	t		8.0	2.5	blank	1.0	97.91459918022156	
10	80.1909441947937	fix_post	2		72	8.0	2.5	blank	1.0	98.83811616897583	0.6000528335571289
11	80.79099702835083	fix_pre	0		11	9.0	2.5	blank	1.0	99.43816900253296	0.09272098541259766
11	80.86739420890808	pulse	0	t		9.0	2.5	blank	1.0	99.51456618309021	
11	80.88371801376343	movie	1		301	9.0	2.5	blank	1.0	99.53088998794556	2.507197141647339
11	82.46746301651001	pulse	1	t		9.0	2.5	blank	1.0	101.11463499069214	
11	83.39091515541077	fix_post	2		72	9.0	2.5	blank	1.0	102.0380871295929	0.600078821182251
12	83.99099397659302	fix_pre	0		11	10.0	2.5	/experiments/aot/S_yt-y3tyx6cZjmA_412.mp4	0.0	102.63816595077515	0.09195303916931152
12	84.06735801696777	pulse	0	t		10.0	2.5	/experiments/aot/S_yt-y3tyx6cZjmA_412.mp4	0.0	102.7145299911499	
12	84.08294701576233	movie	1		301	10.0	2.5	/experiments/aot/S_yt-y3tyx6cZjmA_412.mp4	0.0	102.73011898994446	2.508042097091675
12	85.67054510116577	pulse	1	t		10.0	2.5	/experiments/aot/S_yt-y3tyx6cZjmA_412.mp4	0.0	104.3177170753479	
12	86.590989112854	fix_post	2		72	10.0	2.5	/experiments/aot/S_yt-y3tyx6cZjmA_412.mp4	0.0	105.23816108703613	0.5999460220336914
13	87.1909351348877	fix_pre	0		10	11.0	2.5	/experiments/aot/S_yt-OFnDCbW9Ebo_31.mp4	0.0	105.83810710906982	0.08417892456054688
13	87.2665491104126	pulse	0	t		11.0	2.5	/experiments/aot/S_yt-OFnDCbW9Ebo_31.mp4	0.0	105.91372108459473	
13	87.27511405944824	movie	1		301	11.0	2.5	/experiments/aot/S_yt-OFnDCbW9Ebo_31.mp4	0.0	105.92228603363037	2.5074939727783203
13	88.87483811378479	pulse	1	t		11.0	2.5	/experiments/aot/S_yt-OFnDCbW9Ebo_31.mp4	0.0	107.52201008796692	
13	89.78260803222656	fix_post	2		72	11.0	2.5	/experiments/aot/S_yt-OFnDCbW9Ebo_31.mp4	0.0	108.42978000640869	0.6001031398773193
14	90.38271117210388	fix_pre	0		12	12.0	2.5	/experiments/aot/S_yt-9Ow95khYa_M_91.mp4	0.0	109.02988314628601	0.09990787506103516
14	90.47443699836731	pulse	0	t		12.0	2.5	/experiments/aot/S_yt-9Ow95khYa_M_91.mp4	0.0	109.12160897254944	
14	90.48261904716492	movie	1		301	12.0	2.5	/experiments/aot/S_yt-9Ow95khYa_M_91.mp4	0.0	109.12979102134705	2.5082809925079346
14	92.07035899162292	pulse	1	t		12.0	2.5	/experiments/aot/S_yt-9Ow95khYa_M_91.mp4	0.0	110.71753096580505	
14	92.99090003967285	fix_post	2		72	12.0	2.5	/experiments/aot/S_yt-9Ow95khYa_M_91.mp4	0.0	111.63807201385498	0.6009609699249268
15	93.59186100959778	fix_pre	0		10	13.0	2.5	/experiments/aot/S_ILSVRC2015_train_00515000.mp4	0.0	112.23903298377991	0.09084916114807129
15	93.66736698150635	pulse	0	t		13.0	2.5	/experiments/aot/S_ILSVRC2015_train_00515000.mp4	0.0	112.31453895568848	
15	93.68271017074585	movie	1		301	13.0	2.5	/experiments/aot/S_ILSVRC2015_train_00515000.mp4	0.0	112.32988214492798	2.508167028427124
15	95.27050518989563	pulse	1	t		13.0	2.5	/experiments/aot/S_ILSVRC2015_train_00515000.mp4	0.0	113.91767716407776	
15	96.19087719917297	fix_post	2		72	13.0	2.5	/experiments/aot/S_ILSVRC2015_train_00515000.mp4	0.0	114.8380491733551	0.6001138687133789
16	96.79099106788635	fix_pre	0		11	14.0	2.5	/experiments/aot/S_yt-HwEfWfFJhRo_73.mp4	0.0	115.43816304206848	0.09163498878479004
16	96.86728000640869	pulse	0	t		14.0	2.5	/experiments/aot/S_yt-HwEfWfFJhRo_73.mp4	0.0	115.51445198059082	
16	96.88262605667114	movie	1		301	14.0	2.5	/experiments/aot/S_yt-HwEfWfFJhRo_73.mp4	0.0	115.52979803085327	2.5082859992980957
16	98.47039198875427	pulse	1	t		14.0	2.5	/experiments/aot/S_yt-HwEfWfFJhRo_73.mp4	0.0	117.1175639629364	
16	99.39091205596924	fix_post	2		72	14.0	2.5	/experiments/aot/S_yt-HwEfWfFJhRo_73.mp4	0.0	118.03808403015137	0.5999929904937744
17	99.99090504646301	fix_pre	0		11	15.0	2.5	/experiments/aot/S_flickr-clarkstonscamp-4863427159_1.mp4	0.0	118.63807702064514	0.09220314025878906
17	100.06727814674377	pulse	0	t		15.0	2.5	/experiments/aot/S_flickr-clarkstonscamp-4863427159_1.mp4	0.0	118.7144501209259	
17	100.0831081867218	movie	1		301	15.0	2.5	/experiments/aot/S_flickr-clarkstonscamp-4863427159_1.mp4	0.0	118.73028016090393	2.5077948570251465
17	101.67052412033081	pulse	1	t		15.0	2.5	/experiments/aot/S_flickr-clarkstonscamp-4863427159_1.mp4	0.0	120.31769609451294	
17	102.59090304374695	fix_post	2		72	15.0	2.5	/experiments/aot/S_flickr-clarkstonscamp-4863427159_1.mp4	0.0	121.23807501792908	0.6008081436157227
18	103.19171118736267	fix_pre	0		11	16.0	2.5	/experiments/aot/S_yt-O4wUEZwHLyI_114.mp4	0.0	121.8388831615448	0.09081792831420898
18	103.26724004745483	pulse	0	t		16.0	2.5	/experiments/aot/S_yt-O4wUEZwHLyI_114.mp4	0.0	121.91441202163696	
18	103.28252911567688	movie	1		301	16.0	2.5	/experiments/aot/S_yt-O4wUEZwHLyI_114.mp4	0.0	121.92970108985901	2.50833797454834
18	104.87166404724121	pulse	1	t		16.0	2.5	/experiments/aot/S_yt-O4wUEZwHLyI_114.mp4	0.0	123.51883602142334	
18	105.79086709022522	fix_post	2		72	16.0	2.5	/experiments/aot/S_yt-O4wUEZwHLyI_114.mp4	0.0	124.43803906440735	0.5999801158905029
19	106.39084720611572	fix_pre	0		11	17.0	2.5	blank	1.0	125.03801918029785	0.09169578552246094
19	106.47477412223816	pulse	0	t		17.0	2.5	blank	1.0	125.12194609642029	
19	106.48254299163818	movie	1		301	17.0	2.5	blank	1.0	125.12971496582031	2.5083250999450684
19	108.07469511032104	pulse	1	t		17.0	2.5	blank	1.0	126.72186708450317	
19	108.99086809158325	fix_post	2		72	17.0	2.5	blank	1.0	127.63804006576538	0.6000969409942627
20	109.59096503257751	fix_pre	0		11	18.0	2.5	/experiments/aot/S_ILSVRC2015_train_00067005.mp4	0.0	128.23813700675964	0.09160804748535156
20	109.67479109764099	pulse	0	t		18.0	2.5	/experiments/aot/S_ILSVRC2015_train_00067005.mp4	0.0	128.32196307182312	
20	109.68257308006287	movie	1		301	18.0	2.5	/experiments/aot/S_ILSVRC2015_train_00067005.mp4	0.0	128.329745054245	2.508347988128662
20	111.27075004577637	pulse	1	t		18.0	2.5	/experiments/aot/S_ILSVRC2015_train_00067005.mp4	0.0	129.9179220199585	
20	112.19092106819153	fix_post	2		72	18.0	2.5	/experiments/aot/S_ILSVRC2015_train_00067005.mp4	0.0	130.83809304237366	0.5999670028686523
21	112.79088807106018	fix_pre	0		11	19.0	2.5	blank	1.0	131.4380600452423	0.09163212776184082
21	112.86725306510925	pulse	0	t		19.0	2.5	blank	1.0	131.51442503929138	
21	112.88252019882202	movie	1		301	19.0	2.5	blank	1.0	131.52969217300415	2.5083508491516113
21	114.46724104881287	pulse	1	t		19.0	2.5	blank	1.0	133.114413022995	
21	115.39087104797363	fix_post	2		72	19.0	2.5	blank	1.0	134.03804302215576	0.5998959541320801
22	115.99076700210571	fix_pre	0		11	20.0	2.5	/experiments/aot/S_pexels-tima-miroshnichenko-5717005.mp4	0.0	134.63793897628784	0.09169507026672363
22	116.06716012954712	pulse	0	t		20.0	2.5	/experiments/aot/S_pexels-tima-miroshnichenko-5717005.mp4	0.0	134.71433210372925	
22	116.08246207237244	movie	1		160	20.0	2.5	/experiments/aot/S_pexels-tima-miroshnichenko-5717005.mp4	0.0	134.72963404655457	2.508315086364746
22	117.67469215393066	pulse	1	t		20.0	2.5	/experiments/aot/S_pexels-tima-miroshnichenko-5717005.mp4	0.0	136.3218641281128	
22	118.59077715873718	fix_post	2		72	20.0	2.5	/experiments/aot/S_pexels-tima-miroshnichenko-5717005.mp4	0.0	137.2379491329193	0.5999939441680908
23	119.19077110290527	fix_pre	0		11	21.0	2.5	blank	1.0	137.8379430770874	0.09316706657409668
23	119.26718306541443	pulse	0	t		21.0	2.5	blank	1.0	137.91435503959656	
23	119.28393816947937	movie	1		301	21.0	2.5	blank	1.0	137.9311101436615	2.5069258213043213
23	120.87473011016846	pulse	1	t		21.0	2.5	blank	1.0	139.5219020843506	
23	121.79086399078369	fix_post	2		72	21.0	2.5	blank	1.0	140.43803596496582	0.5999200344085693
24	122.39078402519226	fix_pre	0		11	22.0	2.5	/experiments/aot/S_yt-ieA3XwoSko4_98.mp4	0.0	141.0379559993744	0.09165716171264648
24	122.47467803955078	pulse	0	t		22.0	2.5	/experiments/aot/S_yt-ieA3XwoSko4_98.mp4	0.0	141.1218500137329	
24	122.48244118690491	movie	1		301	22.0	2.5	/experiments/aot/S_yt-ieA3XwoSko4_98.mp4	0.0	141.12961316108704	2.5083088874816895
24	124.07042503356934	pulse	1	t		22.0	2.5	/experiments/aot/S_yt-ieA3XwoSko4_98.mp4	0.0	142.71759700775146	
24	124.9907500743866	fix_post	2		72	22.0	2.5	/experiments/aot/S_yt-ieA3XwoSko4_98.mp4	0.0	143.63792204856873	0.6001241207122803
25	125.59087419509888	fix_pre	0		11	23.0	2.5	blank	1.0	144.238046169281	0.09165096282958984
25	125.6672101020813	pulse	0	t		23.0	2.5	blank	1.0	144.31438207626343	
25	125.68252515792847	movie	1		301	23.0	2.5	blank	1.0	144.3296971321106	2.5090818405151367
25	127.26706314086914	pulse	1	t		23.0	2.5	blank	1.0	145.91423511505127	
25	128.1916069984436	fix_post	2		72	23.0	2.5	blank	1.0	146.83877897262573	0.5992190837860107
26	128.79082608222961	fix_pre	0		11	24.0	2.5	/experiments/aot/S_yt-AuQ_WxaNy4Y_255.mp4	0.0	147.43799805641174	0.09161901473999023
26	128.86715698242188	pulse	0	t		24.0	2.5	/experiments/aot/S_yt-AuQ_WxaNy4Y_255.mp4	0.0	147.514328956604	
26	128.8824450969696	movie	1		301	24.0	2.5	/experiments/aot/S_yt-AuQ_WxaNy4Y_255.mp4	0.0	147.52961707115173	2.508315086364746
26	130.47113800048828	pulse	1	t		24.0	2.5	/experiments/aot/S_yt-AuQ_WxaNy4Y_255.mp4	0.0	149.1183099746704	
26	131.39076018333435	fix_post	2		72	24.0	2.5	/experiments/aot/S_yt-AuQ_WxaNy4Y_255.mp4	0.0	150.03793215751648	0.6009619235992432
27	131.9917221069336	fix_pre	0		11	25.0	2.5	/experiments/aot/S_yt-JTuopUgmg1w_101.mp4	0.0	150.63889408111572	0.09070587158203125
27	132.06708121299744	pulse	0	t		25.0	2.5	/experiments/aot/S_yt-JTuopUgmg1w_101.mp4	0.0	150.71425318717957	
27	132.08242797851562	movie	1		301	25.0	2.5	/experiments/aot/S_yt-JTuopUgmg1w_101.mp4	0.0	150.72959995269775	2.509263038635254
27	133.67031002044678	pulse	1	t		25.0	2.5	/experiments/aot/S_yt-JTuopUgmg1w_101.mp4	0.0	152.3174819946289	
27	134.59169101715088	fix_post	2		72	25.0	2.5	/experiments/aot/S_yt-JTuopUgmg1w_101.mp4	0.0	153.238862991333	0.5999681949615479
28	135.19165921211243	fix_pre	0		11	26.0	2.5	/experiments/aot/S_production_ID_5144823.mp4	0.0	153.83883118629456	0.09077191352844238
28	135.2671480178833	pulse	0	t		26.0	2.5	/experiments/aot/S_production_ID_5144823.mp4	0.0	153.91431999206543	
28	135.28243112564087	movie	1		161	26.0	2.5	/experiments/aot/S_production_ID_5144823.mp4	0.0	153.929603099823	2.508244037628174
28	136.87660312652588	pulse	1	t		26.0	2.5	/experiments/aot/S_production_ID_5144823.mp4	0.0	155.523775100708	
28	137.79067516326904	fix_post	2		72	26.0	2.5	/experiments/aot/S_production_ID_5144823.mp4	0.0	156.43784713745117	0.6001248359680176
29	138.39079999923706	fix_pre	0		11	27.0	2.5	/experiments/aot/S_yt--koo4FOfZE0_86.mp4	0.0	157.0379719734192	0.09156608581542969
29	138.47464513778687	pulse	0	t		27.0	2.5	/experiments/aot/S_yt--koo4FOfZE0_86.mp4	0.0	157.121817111969	
29	138.4823660850525	movie	1		301	27.0	2.5	/experiments/aot/S_yt--koo4FOfZE0_86.mp4	0.0	157.12953805923462	2.508357048034668
29	140.07045102119446	pulse	1	t		27.0	2.5	/experiments/aot/S_yt--koo4FOfZE0_86.mp4	0.0	158.7176229953766	
29	140.99072313308716	fix_post	2		72	27.0	2.5	/experiments/aot/S_yt--koo4FOfZE0_86.mp4	0.0	159.6378951072693	0.599998950958252
30	141.5907220840454	fix_pre	0		11	28.0	2.5	/experiments/aot/S_yt-PCSXJ5YB_AE_3.mp4	0.0	160.23789405822754	0.09168100357055664
30	141.67465019226074	pulse	0	t		28.0	2.5	/experiments/aot/S_yt-PCSXJ5YB_AE_3.mp4	0.0	160.32182216644287	
30	141.68240308761597	movie	1		301	28.0	2.5	/experiments/aot/S_yt-PCSXJ5YB_AE_3.mp4	0.0	160.3295750617981	2.5092740058898926
30	143.27043414115906	pulse	1	t		28.0	2.5	/experiments/aot/S_yt-PCSXJ5YB_AE_3.mp4	0.0	161.9176061153412	
30	144.19167709350586	fix_post	2		72	28.0	2.5	/experiments/aot/S_yt-PCSXJ5YB_AE_3.mp4	0.0	162.838849067688	0.6000149250030518
31	144.7916920185089	fix_pre	0		11	29.0	2.5	/experiments/aot/S_yt-K-iCphzt_RE_17.mp4	0.0	163.43886399269104	0.09073805809020996
31	144.8671350479126	pulse	0	t		29.0	2.5	/experiments/aot/S_yt-K-iCphzt_RE_17.mp4	0.0	163.51430702209473	
31	144.88243007659912	movie	1		301	29.0	2.5	/experiments/aot/S_yt-K-iCphzt_RE_17.mp4	0.0	163.52960205078125	2.5093979835510254
31	146.47024011611938	pulse	1	t		29.0	2.5	/experiments/aot/S_yt-K-iCphzt_RE_17.mp4	0.0	165.1174120903015	
31	147.39182806015015	fix_post	2		72	29.0	2.5	/experiments/aot/S_yt-K-iCphzt_RE_17.mp4	0.0	166.03900003433228	0.5991859436035156
32	147.99101400375366	fix_pre	0		11	30.0	2.5	blank	1.0	166.6381859779358	0.09162712097167969
32	148.0672891139984	pulse	0	t		30.0	2.5	blank	1.0	166.71446108818054	
32	148.08264112472534	movie	1		301	30.0	2.5	blank	1.0	166.72981309890747	2.508976936340332
32	149.66708397865295	pulse	1	t		30.0	2.5	blank	1.0	168.31425595283508	
32	150.59161806106567	fix_post	2		72	30.0	2.5	blank	1.0	169.2387900352478	0.5990900993347168
33	151.1907081604004	fix_pre	0		11	31.0	2.5	blank	1.0	169.83788013458252	0.09165596961975098
33	151.26700520515442	pulse	0	t		31.0	2.5	blank	1.0	169.91417717933655	
33	151.28236413002014	movie	1		301	31.0	2.5	blank	1.0	169.92953610420227	2.5082788467407227
33	152.8746211528778	pulse	1	t		31.0	2.5	blank	1.0	171.52179312705994	
33	153.79064297676086	fix_post	2		72	31.0	2.5	blank	1.0	172.437814950943	0.6000580787658691
34	154.39070105552673	fix_pre	0		11	32.0	2.5	/experiments/aot/S_yt-XA6RBioito4_18.mp4	0.0	173.03787302970886	0.09160804748535156
34	154.47447609901428	pulse	0	t		32.0	2.5	/experiments/aot/S_yt-XA6RBioito4_18.mp4	0.0	173.1216480731964	
34	154.48230910301208	movie	1		301	32.0	2.5	/experiments/aot/S_yt-XA6RBioito4_18.mp4	0.0	173.1294810771942	2.5083179473876953
34	156.0701630115509	pulse	1	t		32.0	2.5	/experiments/aot/S_yt-XA6RBioito4_18.mp4	0.0	174.71733498573303	
34	156.99062705039978	fix_post	2		72	32.0	2.5	/experiments/aot/S_yt-XA6RBioito4_18.mp4	0.0	175.6377990245819	0.5999870300292969
35	157.59061408042908	fix_pre	0		11	33.0	2.5	/experiments/aot/S_Nh81j72Utbs_5.mp4	0.0	176.2377860546112	0.09252500534057617
35	157.67447304725647	pulse	0	t		33.0	2.5	/experiments/aot/S_Nh81j72Utbs_5.mp4	0.0	176.3216450214386	
35	157.68313908576965	movie	1		301	33.0	2.5	/experiments/aot/S_Nh81j72Utbs_5.mp4	0.0	176.33031105995178	2.507513999938965
35	159.27057600021362	pulse	1	t		33.0	2.5	/experiments/aot/S_Nh81j72Utbs_5.mp4	0.0	177.91774797439575	
35	160.19065308570862	fix_post	2		72	33.0	2.5	/experiments/aot/S_Nh81j72Utbs_5.mp4	0.0	178.83782505989075	0.5999541282653809
36	160.790607213974	fix_pre	0		11	34.0	2.5	blank	1.0	179.43777918815613	0.09250879287719727
36	160.86723804473877	pulse	0	t		34.0	2.5	blank	1.0	179.5144100189209	
36	160.8831160068512	movie	1		301	34.0	2.5	blank	1.0	179.53028798103333	2.5074641704559326
36	162.4670569896698	pulse	1	t		34.0	2.5	blank	1.0	181.11422896385193	
36	163.39058017730713	fix_post	2		72	34.0	2.5	blank	1.0	182.03775215148926	0.6000649929046631
37	163.9906451702118	fix_pre	0		11	35.0	2.5	/experiments/aot/S_ILSVRC2015_train_00219004.mp4	0.0	182.63781714439392	0.09164690971374512
37	164.06705904006958	pulse	0	t		35.0	2.5	/experiments/aot/S_ILSVRC2015_train_00219004.mp4	0.0	182.7142310142517	
37	164.08229207992554	movie	1		301	35.0	2.5	/experiments/aot/S_ILSVRC2015_train_00219004.mp4	0.0	182.72946405410767	2.5092461109161377
37	165.67057299613953	pulse	1	t		35.0	2.5	/experiments/aot/S_ILSVRC2015_train_00219004.mp4	0.0	184.31774497032166	
37	166.59153819084167	fix_post	2		72	35.0	2.5	/experiments/aot/S_ILSVRC2015_train_00219004.mp4	0.0	185.2387101650238	0.6000268459320068
38	167.19156503677368	fix_pre	0		11	36.0	2.5	/experiments/aot/S_yt-bwSRV1Vr21s_435.mp4	0.0	185.8387370109558	0.09163212776184082
38	167.26696515083313	pulse	0	t		36.0	2.5	/experiments/aot/S_yt-bwSRV1Vr21s_435.mp4	0.0	185.91413712501526	
38	167.28319716453552	movie	1		301	36.0	2.5	/experiments/aot/S_yt-bwSRV1Vr21s_435.mp4	0.0	185.93036913871765	2.5074429512023926
38	168.87014603614807	pulse	1	t		36.0	2.5	/experiments/aot/S_yt-bwSRV1Vr21s_435.mp4	0.0	187.5173180103302	
38	169.79064011573792	fix_post	2		72	36.0	2.5	/experiments/aot/S_yt-bwSRV1Vr21s_435.mp4	0.0	188.43781208992004	0.599998950958252
39	170.39063906669617	fix_pre	0		11	37.0	2.5	/experiments/aot/S_WCwb-DeQOSg_85.mp4	0.0	189.0378110408783	0.09256911277770996
39	170.47452116012573	pulse	0	t		37.0	2.5	/experiments/aot/S_WCwb-DeQOSg_85.mp4	0.0	189.12169313430786	
39	170.48320817947388	movie	1		300	37.0	2.5	/experiments/aot/S_WCwb-DeQOSg_85.mp4	0.0	189.130380153656	2.5083138942718506
39	172.07022714614868	pulse	1	t		37.0	2.5	/experiments/aot/S_WCwb-DeQOSg_85.mp4	0.0	190.7173991203308	
39	172.99152207374573	fix_post	2		72	37.0	2.5	/experiments/aot/S_WCwb-DeQOSg_85.mp4	0.0	191.63869404792786	0.6000299453735352
40	173.59155201911926	fix_pre	0		11	38.0	2.5	/experiments/aot/S_yt-6mRpmfIvdew_1435.mp4	0.0	192.2387239933014	0.09073615074157715
40	173.67450213432312	pulse	0	t		38.0	2.5	/experiments/aot/S_yt-6mRpmfIvdew_1435.mp4	0.0	192.32167410850525	
40	173.68228816986084	movie	1		301	38.0	2.5	/experiments/aot/S_yt-6mRpmfIvdew_1435.mp4	0.0	192.32946014404297	2.50832200050354
40	175.27032709121704	pulse	1	t		38.0	2.5	/experiments/aot/S_yt-6mRpmfIvdew_1435.mp4	0.0	193.91749906539917	
40	176.19061017036438	fix_post	2		72	38.0	2.5	/experiments/aot/S_yt-6mRpmfIvdew_1435.mp4	0.0	194.8377821445465	0.6000099182128906
41	176.79062008857727	fix_pre	0		11	39.0	2.5	/experiments/aot/S_yt-GWlwb2QsxIA_48.mp4	0.0	195.4377920627594	0.09166312217712402
41	176.87448406219482	pulse	0	t		39.0	2.5	/experiments/aot/S_yt-GWlwb2QsxIA_48.mp4	0.0	195.52165603637695	
41	176.8822832107544	movie	1		301	39.0	2.5	/experiments/aot/S_yt-GWlwb2QsxIA_48.mp4	0.0	195.52945518493652	2.50830078125
41	178.4702911376953	pulse	1	t		39.0	2.5	/experiments/aot/S_yt-GWlwb2QsxIA_48.mp4	0.0	197.11746311187744	
41	179.3905839920044	fix_post	2		72	39.0	2.5	/experiments/aot/S_yt-GWlwb2QsxIA_48.mp4	0.0	198.03775596618652	0.6000170707702637
42	179.99060106277466	fix_pre	0		11	40.0	2.5	/experiments/aot/S_yt-54kx8P3L1ns_6.mp4	0.0	198.6377730369568	0.09166908264160156
42	180.06696105003357	pulse	0	t		40.0	2.5	/experiments/aot/S_yt-54kx8P3L1ns_6.mp4	0.0	198.7141330242157	
42	180.08227014541626	movie	1		301	40.0	2.5	/experiments/aot/S_yt-54kx8P3L1ns_6.mp4	0.0	198.7294421195984	2.5082709789276123
42	181.67032098770142	pulse	1	t		40.0	2.5	/experiments/aot/S_yt-54kx8P3L1ns_6.mp4	0.0	200.31749296188354	
42	182.59054112434387	fix_post	2		72	40.0	2.5	/experiments/aot/S_yt-54kx8P3L1ns_6.mp4	0.0	201.237713098526	0.6000490188598633
43	183.19059014320374	fix_pre	0		11	41.0	2.5	/experiments/aot/S_production_ID_3712945.mp4	0.0	201.83776211738586	0.09167194366455078
43	183.2669551372528	pulse	0	t		41.0	2.5	/experiments/aot/S_production_ID_3712945.mp4	0.0	201.91412711143494	
43	183.2822620868683	movie	1		161	41.0	2.5	/experiments/aot/S_production_ID_3712945.mp4	0.0	201.92943406105042	2.5083210468292236
43	184.87414813041687	pulse	1	t		41.0	2.5	/experiments/aot/S_production_ID_3712945.mp4	0.0	203.521320104599	
43	185.7905831336975	fix_post	2		72	41.0	2.5	/experiments/aot/S_production_ID_3712945.mp4	0.0	204.43775510787964	0.5999679565429688
44	186.39055109024048	fix_pre	0		11	42.0	2.5	/experiments/aot/S_yt-MTo50ReVNmU_2.mp4	0.0	205.0377230644226	0.09168601036071777
44	186.47440218925476	pulse	0	t		42.0	2.5	/experiments/aot/S_yt-MTo50ReVNmU_2.mp4	0.0	205.1215741634369	
44	186.4822371006012	movie	1		301	42.0	2.5	/experiments/aot/S_yt-MTo50ReVNmU_2.mp4	0.0	205.12940907478333	2.5082640647888184
44	188.07026410102844	pulse	1	t		42.0	2.5	/experiments/aot/S_yt-MTo50ReVNmU_2.mp4	0.0	206.71743607521057	
44	188.99050116539001	fix_post	2		72	42.0	2.5	/experiments/aot/S_yt-MTo50ReVNmU_2.mp4	0.0	207.63767313957214	0.6000618934631348
45	189.59056305885315	fix_pre	0		11	43.0	2.5	/experiments/aot/S_yt-NZIhxK5NvWE_152.mp4	0.0	208.23773503303528	0.09195995330810547
45	189.6744019985199	pulse	0	t		43.0	2.5	/experiments/aot/S_yt-NZIhxK5NvWE_152.mp4	0.0	208.32157397270203	
45	189.68252301216125	movie	1		301	43.0	2.5	/experiments/aot/S_yt-NZIhxK5NvWE_152.mp4	0.0	208.32969498634338	2.5080161094665527
45	191.27019500732422	pulse	1	t		43.0	2.5	/experiments/aot/S_yt-NZIhxK5NvWE_152.mp4	0.0	209.91736698150635	
45	192.1905391216278	fix_post	2		72	43.0	2.5	/experiments/aot/S_yt-NZIhxK5NvWE_152.mp4	0.0	210.83771109580994	0.5999810695648193
46	192.79052019119263	fix_pre	0		11	44.0	2.5	/experiments/aot/S_yt-EvKV7iY1_HM_193.mp4	0.0	211.43769216537476	0.09168100357055664
46	192.87438797950745	pulse	0	t		44.0	2.5	/experiments/aot/S_yt-EvKV7iY1_HM_193.mp4	0.0	211.52155995368958	
46	192.88220119476318	movie	1		301	44.0	2.5	/experiments/aot/S_yt-EvKV7iY1_HM_193.mp4	0.0	211.5293731689453	2.5082788467407227
46	194.47034120559692	pulse	1	t		44.0	2.5	/experiments/aot/S_yt-EvKV7iY1_HM_193.mp4	0.0	213.11751317977905	
46	195.3904800415039	fix_post	2		72	44.0	2.5	/experiments/aot/S_yt-EvKV7iY1_HM_193.mp4	0.0	214.03765201568604	0.6000571250915527
47	195.99053716659546	fix_pre	0		11	45.0	2.5	/experiments/aot/S_yt-b7JAHOeiTqU_44.mp4	0.0	214.6377091407776	0.09164786338806152
47	196.07443404197693	pulse	0	t		45.0	2.5	/experiments/aot/S_yt-b7JAHOeiTqU_44.mp4	0.0	214.72160601615906	
47	196.08218502998352	movie	1		301	45.0	2.5	/experiments/aot/S_yt-b7JAHOeiTqU_44.mp4	0.0	214.72935700416565	2.508331060409546
47	197.67013216018677	pulse	1	t		45.0	2.5	/experiments/aot/S_yt-b7JAHOeiTqU_44.mp4	0.0	216.3173041343689	
47	198.59051609039307	fix_post	2		72	45.0	2.5	/experiments/aot/S_yt-b7JAHOeiTqU_44.mp4	0.0	217.2376880645752	0.5999939441680908
48	199.19051003456116	fix_pre	0		11	46.0	2.5	/experiments/aot/S_ILSVRC2015_train_00569003.mp4	0.0	217.8376820087433	0.0917201042175293
48	199.26693320274353	pulse	0	t		46.0	2.5	/experiments/aot/S_ILSVRC2015_train_00569003.mp4	0.0	217.91410517692566	
48	199.2822301387787	movie	1		301	46.0	2.5	/experiments/aot/S_ILSVRC2015_train_00569003.mp4	0.0	217.92940211296082	2.5083060264587402
48	200.8696231842041	pulse	1	t		46.0	2.5	/experiments/aot/S_ILSVRC2015_train_00569003.mp4	0.0	219.51679515838623	
48	201.79053616523743	fix_post	2		72	46.0	2.5	/experiments/aot/S_ILSVRC2015_train_00569003.mp4	0.0	220.43770813941956	0.5999748706817627
49	202.3905110359192	fix_pre	0		11	47.0	2.5	/experiments/aot/S_yt-Jro_TRE8NUQ_234.mp4	0.0	221.03768301010132	0.09176516532897949
49	202.47406911849976	pulse	0	t		47.0	2.5	/experiments/aot/S_yt-Jro_TRE8NUQ_234.mp4	0.0	221.12124109268188	
49	202.48227620124817	movie	1		301	47.0	2.5	/experiments/aot/S_yt-Jro_TRE8NUQ_234.mp4	0.0	221.1294481754303	2.5082688331604004
49	204.07056212425232	pulse	1	t		47.0	2.5	/experiments/aot/S_yt-Jro_TRE8NUQ_234.mp4	0.0	222.71773409843445	
49	204.99054503440857	fix_post	2		72	47.0	2.5	/experiments/aot/S_yt-Jro_TRE8NUQ_234.mp4	0.0	223.6377170085907	0.6008069515228271
50	205.5913519859314	fix_pre	0		11	48.0	2.5	/experiments/aot/S_yt-9EnchawJ3pA_90.mp4	0.0	224.23852396011353	0.09166908264160156
50	205.6744041442871	pulse	0	t		48.0	2.5	/experiments/aot/S_yt-9EnchawJ3pA_90.mp4	0.0	224.32157611846924	
50	205.683021068573	movie	1		301	48.0	2.5	/experiments/aot/S_yt-9EnchawJ3pA_90.mp4	0.0	224.33019304275513	2.5074920654296875
50	207.270161151886	pulse	1	t		48.0	2.5	/experiments/aot/S_yt-9EnchawJ3pA_90.mp4	0.0	225.91733312606812	
50	208.19051313400269	fix_post	2		72	48.0	2.5	/experiments/aot/S_yt-9EnchawJ3pA_90.mp4	0.0	226.83768510818481	0.5999729633331299
51	208.79048609733582	fix_pre	0		11	49.0	2.5	/experiments/aot/S_yt-xBwq6sHHF5M_21.mp4	0.0	227.43765807151794	0.09270095825195312
51	208.8743450641632	pulse	0	t		49.0	2.5	/experiments/aot/S_yt-xBwq6sHHF5M_21.mp4	0.0	227.52151703834534	
51	208.88318705558777	movie	1		301	49.0	2.5	/experiments/aot/S_yt-xBwq6sHHF5M_21.mp4	0.0	227.5303590297699	2.5072710514068604
51	210.47001099586487	pulse	1	t		49.0	2.5	/experiments/aot/S_yt-xBwq6sHHF5M_21.mp4	0.0	229.117182970047	
51	211.39045810699463	fix_post	2		72	49.0	2.5	/experiments/aot/S_yt-xBwq6sHHF5M_21.mp4	0.0	230.03763008117676	0.6000819206237793
52	211.9905400276184	fix_pre	0		11	50.0	2.5	/experiments/aot/S_yt-aSEKRE_FNaI_62.mp4	0.0	230.63771200180054	0.09256505966186523
52	212.07429814338684	pulse	0	t		50.0	2.5	/experiments/aot/S_yt-aSEKRE_FNaI_62.mp4	0.0	230.72147011756897	
52	212.08310508728027	movie	1		301	50.0	2.5	/experiments/aot/S_yt-aSEKRE_FNaI_62.mp4	0.0	230.7302770614624	2.5074450969696045
52	213.6699709892273	pulse	1	t		50.0	2.5	/experiments/aot/S_yt-aSEKRE_FNaI_62.mp4	0.0	232.31714296340942	
52	214.59055018424988	fix_post	2		72	50.0	2.5	/experiments/aot/S_yt-aSEKRE_FNaI_62.mp4	0.0	233.237722158432	0.5998969078063965
53	215.19044709205627	fix_pre	0		11	51.0	2.5	/experiments/aot/S_yt-c-H45QS0CF4_147.mp4	0.0	233.8376190662384	0.09255409240722656
53	215.26680207252502	pulse	0	t		51.0	2.5	/experiments/aot/S_yt-c-H45QS0CF4_147.mp4	0.0	233.91397404670715	
53	215.2830011844635	movie	1		301	51.0	2.5	/experiments/aot/S_yt-c-H45QS0CF4_147.mp4	0.0	233.93017315864563	2.5074589252471924
53	216.87008619308472	pulse	1	t		51.0	2.5	/experiments/aot/S_yt-c-H45QS0CF4_147.mp4	0.0	235.51725816726685	
53	217.7904601097107	fix_post	2		72	51.0	2.5	/experiments/aot/S_yt-c-H45QS0CF4_147.mp4	0.0	236.43763208389282	0.6008520126342773
54	218.39131212234497	fix_pre	0		11	52.0	2.5	/experiments/aot/S_yt-6vkiJedss6g_5.mp4	0.0	237.0384840965271	0.09166407585144043
54	218.4743230342865	pulse	0	t		52.0	2.5	/experiments/aot/S_yt-6vkiJedss6g_5.mp4	0.0	237.12149500846863	
54	218.4829761981964	movie	1		301	52.0	2.5	/experiments/aot/S_yt-6vkiJedss6g_5.mp4	0.0	237.13014817237854	2.507450819015503
54	220.07062315940857	pulse	1	t		52.0	2.5	/experiments/aot/S_yt-6vkiJedss6g_5.mp4	0.0	238.7177951335907	
54	220.9904270172119	fix_post	2		72	52.0	2.5	/experiments/aot/S_yt-6vkiJedss6g_5.mp4	0.0	239.63759899139404	0.5999770164489746
55	221.5904040336609	fix_pre	0		11	53.0	2.5	/experiments/aot/S_yt-deiWoIfK6vg_44.mp4	0.0	240.23757600784302	0.09250712394714355
55	221.67430520057678	pulse	0	t		53.0	2.5	/experiments/aot/S_yt-deiWoIfK6vg_44.mp4	0.0	240.3214771747589	
55	221.68291115760803	movie	1		301	53.0	2.5	/experiments/aot/S_yt-deiWoIfK6vg_44.mp4	0.0	240.33008313179016	2.507495880126953
55	223.27030205726624	pulse	1	t		53.0	2.5	/experiments/aot/S_yt-deiWoIfK6vg_44.mp4	0.0	241.91747403144836	
55	224.19040703773499	fix_post	2		72	53.0	2.5	/experiments/aot/S_yt-deiWoIfK6vg_44.mp4	0.0	242.83757901191711	0.6008830070495605
56	224.79129004478455	fix_pre	0		11	54.0	2.5	blank	1.0	243.43846201896667	0.09088015556335449
56	224.87429213523865	pulse	0	t		54.0	2.5	blank	1.0	243.52146410942078	
56	224.8821702003479	movie	1		301	54.0	2.5	blank	1.0	243.52934217453003	2.5082268714904785
56	226.47427606582642	pulse	1	t		54.0	2.5	blank	1.0	245.12144804000854	
56	227.39039707183838	fix_post	2		72	54.0	2.5	blank	1.0	246.0375690460205	0.6000330448150635
57	227.99043011665344	fix_pre	0		11	55.0	2.5	blank	1.0	246.63760209083557	0.09165501594543457
57	228.07433199882507	pulse	0	t		55.0	2.5	blank	1.0	246.7215039730072	
57	228.08208513259888	movie	1		301	55.0	2.5	blank	1.0	246.729257106781	2.5092029571533203
57	229.6742889881134	pulse	1	t		55.0	2.5	blank	1.0	248.32146096229553	
57	230.5912880897522	fix_post	2		72	55.0	2.5	blank	1.0	249.23846006393433	0.5999979972839355
58	231.19128608703613	fix_pre	0		11	56.0	2.5	/experiments/aot/S_yt-Wr5vs_0Iypw_161.mp4	0.0	249.83845806121826	0.09073805809020996
58	231.27424812316895	pulse	0	t		56.0	2.5	/experiments/aot/S_yt-Wr5vs_0Iypw_161.mp4	0.0	249.92142009735107	
58	231.28202414512634	movie	1		301	56.0	2.5	/experiments/aot/S_yt-Wr5vs_0Iypw_161.mp4	0.0	249.92919611930847	2.508445978164673
58	232.8700921535492	pulse	1	t		56.0	2.5	/experiments/aot/S_yt-Wr5vs_0Iypw_161.mp4	0.0	251.51726412773132	
58	233.79047012329102	fix_post	2		72	56.0	2.5	/experiments/aot/S_yt-Wr5vs_0Iypw_161.mp4	0.0	252.43764209747314	0.6007709503173828
59	234.3912410736084	fix_pre	0		11	57.0	2.5	/experiments/aot/S_Pexels_Videos_2786546.mp4	0.0	253.03841304779053	0.09081792831420898
59	234.4742021560669	pulse	0	t		57.0	2.5	/experiments/aot/S_Pexels_Videos_2786546.mp4	0.0	253.12137413024902	
59	234.4820590019226	movie	1		162	57.0	2.5	/experiments/aot/S_Pexels_Videos_2786546.mp4	0.0	253.12923097610474	2.50917911529541
59	236.07412600517273	pulse	1	t		57.0	2.5	/experiments/aot/S_Pexels_Videos_2786546.mp4	0.0	254.72129797935486	
59	236.99123811721802	fix_post	2		72	57.0	2.5	/experiments/aot/S_Pexels_Videos_2786546.mp4	0.0	255.63841009140015	0.6000480651855469
60	237.59128618240356	fix_pre	0		11	58.0	2.5	/experiments/aot/S_yt-O6FS0xnF0CU_106.mp4	0.0	256.2384581565857	0.09073686599731445
60	237.6678330898285	pulse	0	t		58.0	2.5	/experiments/aot/S_yt-O6FS0xnF0CU_106.mp4	0.0	256.3150050640106	
60	237.68202304840088	movie	1		301	58.0	2.5	/experiments/aot/S_yt-O6FS0xnF0CU_106.mp4	0.0	256.329195022583	2.508312940597534
60	239.2700901031494	pulse	1	t		58.0	2.5	/experiments/aot/S_yt-O6FS0xnF0CU_106.mp4	0.0	257.91726207733154	
60	240.1903359889984	fix_post	2		72	58.0	2.5	/experiments/aot/S_yt-O6FS0xnF0CU_106.mp4	0.0	258.83750796318054	0.6000041961669922
61	240.7903401851654	fix_pre	0		11	59.0	2.5	blank	1.0	259.43751215934753	0.09259581565856934
61	240.8742380142212	pulse	0	t		59.0	2.5	blank	1.0	259.5214099884033	
61	240.88293600082397	movie	1		301	59.0	2.5	blank	1.0	259.5301079750061	2.5073840618133545
61	242.47424221038818	pulse	1	t		59.0	2.5	blank	1.0	261.1214141845703	
61	243.39032006263733	fix_post	2		72	59.0	2.5	blank	1.0	262.03749203681946	0.6000080108642578
62	243.9903280735016	fix_pre	0		11	60.0	2.5	/experiments/aot/S_ILSVRC2015_train_00411000.mp4	0.0	262.6375000476837	0.0916891098022461
62	244.07421612739563	pulse	0	t		60.0	2.5	/experiments/aot/S_ILSVRC2015_train_00411000.mp4	0.0	262.72138810157776	
62	244.08201718330383	movie	1		301	60.0	2.5	/experiments/aot/S_ILSVRC2015_train_00411000.mp4	0.0	262.72918915748596	2.508246898651123
62	245.6702401638031	pulse	1	t		60.0	2.5	/experiments/aot/S_ILSVRC2015_train_00411000.mp4	0.0	264.31741213798523	
62	246.59026408195496	fix_post	2		72	60.0	2.5	/experiments/aot/S_ILSVRC2015_train_00411000.mp4	0.0	265.2374360561371	0.6000709533691406
63	247.1903350353241	fix_pre	0		11	61.0	2.5	/experiments/aot/S_yt-aiWUhl8MCto_71.mp4	0.0	265.8375070095062	0.09164595603942871
63	247.27420902252197	pulse	0	t		61.0	2.5	/experiments/aot/S_yt-aiWUhl8MCto_71.mp4	0.0	265.9213809967041	
63	247.28198099136353	movie	1		301	61.0	2.5	/experiments/aot/S_yt-aiWUhl8MCto_71.mp4	0.0	265.92915296554565	2.5091750621795654
63	248.86989617347717	pulse	1	t		61.0	2.5	/experiments/aot/S_yt-aiWUhl8MCto_71.mp4	0.0	267.5170681476593	
63	249.7911560535431	fix_post	2		72	61.0	2.5	/experiments/aot/S_yt-aiWUhl8MCto_71.mp4	0.0	268.4383280277252	0.5991420745849609
64	250.39029812812805	fix_pre	0		11	62.0	2.5	/experiments/aot/S_pexels-kelly-lacy-6756531.mp4	0.0	269.0374701023102	0.09165692329406738
64	250.47413301467896	pulse	0	t		62.0	2.5	/experiments/aot/S_pexels-kelly-lacy-6756531.mp4	0.0	269.1213049888611	
64	250.48195505142212	movie	1		164	62.0	2.5	/experiments/aot/S_pexels-kelly-lacy-6756531.mp4	0.0	269.12912702560425	2.5083141326904297
64	252.07416820526123	pulse	1	t		62.0	2.5	/experiments/aot/S_pexels-kelly-lacy-6756531.mp4	0.0	270.72134017944336	
64	252.99026918411255	fix_post	2		72	62.0	2.5	/experiments/aot/S_pexels-kelly-lacy-6756531.mp4	0.0	271.6374411582947	0.6010549068450928
65	253.59132409095764	fix_pre	0		11	63.0	2.5	/experiments/aot/S_production_ID_4325516.mp4	0.0	272.23849606513977	0.09155392646789551
65	253.67413306236267	pulse	0	t		63.0	2.5	/experiments/aot/S_production_ID_4325516.mp4	0.0	272.3213050365448	
65	253.68287801742554	movie	1		162	63.0	2.5	/experiments/aot/S_production_ID_4325516.mp4	0.0	272.33004999160767	2.5074121952056885
65	255.27361798286438	pulse	1	t		63.0	2.5	/experiments/aot/S_production_ID_4325516.mp4	0.0	273.9207899570465	
65	256.1902902126312	fix_post	2		72	63.0	2.5	/experiments/aot/S_production_ID_4325516.mp4	0.0	274.83746218681335	0.6008939743041992
66	256.7911841869354	fix_pre	0		11	64.0	2.5	/experiments/aot/S_xq822dX6DDM_1.mp4	0.0	275.43835616111755	0.09168291091918945
66	256.87369418144226	pulse	0	t		64.0	2.5	/experiments/aot/S_xq822dX6DDM_1.mp4	0.0	275.5208661556244	
66	256.8828670978546	movie	1		301	64.0	2.5	/experiments/aot/S_xq822dX6DDM_1.mp4	0.0	275.53003907203674	2.508563995361328
66	258.46956300735474	pulse	1	t		64.0	2.5	/experiments/aot/S_xq822dX6DDM_1.mp4	0.0	277.11673498153687	
66	259.39143109321594	fix_post	2		72	64.0	2.5	/experiments/aot/S_xq822dX6DDM_1.mp4	0.0	278.03860306739807	0.5991439819335938
67	259.99057507514954	fix_pre	0		11	65.0	2.5	/experiments/aot/S_yt-RO4mhuXBVrY_67.mp4	0.0	278.63774704933167	0.09227204322814941
67	260.0740602016449	pulse	0	t		65.0	2.5	/experiments/aot/S_yt-RO4mhuXBVrY_67.mp4	0.0	278.721232175827	
67	260.0828471183777	movie	1		301	65.0	2.5	/experiments/aot/S_yt-RO4mhuXBVrY_67.mp4	0.0	278.7300190925598	2.507344961166382
67	261.66984510421753	pulse	1	t		65.0	2.5	/experiments/aot/S_yt-RO4mhuXBVrY_67.mp4	0.0	280.31701707839966	
67	262.59019207954407	fix_post	2		72	65.0	2.5	/experiments/aot/S_yt-RO4mhuXBVrY_67.mp4	0.0	281.2373640537262	0.6000509262084961
68	263.19024300575256	fix_pre	0		11	66.0	2.5	/experiments/aot/S_ILSVRC2015_train_00369004.mp4	0.0	281.8374149799347	0.09159207344055176
68	263.2740972042084	pulse	0	t		66.0	2.5	/experiments/aot/S_ILSVRC2015_train_00369004.mp4	0.0	281.9212691783905	
68	263.2818350791931	movie	1		301	66.0	2.5	/experiments/aot/S_ILSVRC2015_train_00369004.mp4	0.0	281.92900705337524	2.5095150470733643
68	264.86975502967834	pulse	1	t		66.0	2.5	/experiments/aot/S_ILSVRC2015_train_00369004.mp4	0.0	283.5169270038605	
68	265.7913501262665	fix_post	2		72	66.0	2.5	/experiments/aot/S_ILSVRC2015_train_00369004.mp4	0.0	284.4385221004486	0.5988738536834717
69	266.39022397994995	fix_pre	0		11	67.0	2.5	/experiments/aot/S_yt-AiXq1oDrEXI_123.mp4	0.0	285.0373959541321	0.0916600227355957
69	266.47401905059814	pulse	0	t		67.0	2.5	/experiments/aot/S_yt-AiXq1oDrEXI_123.mp4	0.0	285.1211910247803	
69	266.48188400268555	movie	1		301	67.0	2.5	/experiments/aot/S_yt-AiXq1oDrEXI_123.mp4	0.0	285.1290559768677	2.509200096130371
69	268.069864988327	pulse	1	t		67.0	2.5	/experiments/aot/S_yt-AiXq1oDrEXI_123.mp4	0.0	286.71703696250916	
69	268.9910840988159	fix_post	2		72	67.0	2.5	/experiments/aot/S_yt-AiXq1oDrEXI_123.mp4	0.0	287.63825607299805	0.5991389751434326
70	269.59022307395935	fix_pre	0		11	68.0	2.5	blank	1.0	288.2373950481415	0.09311890602111816
70	269.67409110069275	pulse	0	t		68.0	2.5	blank	1.0	288.3212630748749	
70	269.68334197998047	movie	1		301	68.0	2.5	blank	1.0	288.3305139541626	2.507735013961792
70	271.2740321159363	pulse	1	t		68.0	2.5	blank	1.0	289.9212040901184	
70	272.19107699394226	fix_post	2		72	68.0	2.5	blank	1.0	290.8382489681244	0.5990691184997559
71	272.790146112442	fix_pre	0		11	69.0	2.5	/experiments/aot/S_yt-hTkrnNr39dk_202.mp4	0.0	291.43731808662415	0.09253501892089844
71	272.8740770816803	pulse	0	t		69.0	2.5	/experiments/aot/S_yt-hTkrnNr39dk_202.mp4	0.0	291.5212490558624	
71	272.8826811313629	movie	1		301	69.0	2.5	/experiments/aot/S_yt-hTkrnNr39dk_202.mp4	0.0	291.52985310554504	2.5083508491516113
71	274.47044801712036	pulse	1	t		69.0	2.5	/experiments/aot/S_yt-hTkrnNr39dk_202.mp4	0.0	293.1176199913025	
71	275.3910319805145	fix_post	2		72	69.0	2.5	/experiments/aot/S_yt-hTkrnNr39dk_202.mp4	0.0	294.03820395469666	0.5991342067718506
72	275.9901661872864	fix_pre	0		11	70.0	2.5	/experiments/aot/S_yt-QqSceHxY3d0_356.mp4	0.0	294.6373381614685	0.09270286560058594
72	276.07407307624817	pulse	0	t		70.0	2.5	/experiments/aot/S_yt-QqSceHxY3d0_356.mp4	0.0	294.7212450504303	
72	276.08286905288696	movie	1		301	70.0	2.5	/experiments/aot/S_yt-QqSceHxY3d0_356.mp4	0.0	294.7300410270691	2.507283926010132
72	277.66982316970825	pulse	1	t		70.0	2.5	/experiments/aot/S_yt-QqSceHxY3d0_356.mp4	0.0	296.3169951438904	
72	278.5901529788971	fix_post	2		72	70.0	2.5	/experiments/aot/S_yt-QqSceHxY3d0_356.mp4	0.0	297.2373249530792	0.6000070571899414
73	279.19016003608704	fix_pre	0		11	71.0	2.5	/experiments/aot/S_yt-oxUpc8I5wWQ_238.mp4	0.0	297.83733201026917	0.09166502952575684
73	279.27401518821716	pulse	0	t		71.0	2.5	/experiments/aot/S_yt-oxUpc8I5wWQ_238.mp4	0.0	297.9211871623993	
73	279.2818250656128	movie	1		301	71.0	2.5	/experiments/aot/S_yt-oxUpc8I5wWQ_238.mp4	0.0	297.9289970397949	2.508319139480591
73	280.8698000907898	pulse	1	t		71.0	2.5	/experiments/aot/S_yt-oxUpc8I5wWQ_238.mp4	0.0	299.5169720649719	
73	281.7901442050934	fix_post	2		72	71.0	2.5	/experiments/aot/S_yt-oxUpc8I5wWQ_238.mp4	0.0	300.4373161792755	0.6000018119812012
74	282.3901460170746	fix_pre	0		11	72.0	2.5	/experiments/aot/S_yt-TxU1H5A6BaQ_52.mp4	0.0	301.0373179912567	0.09166908264160156
74	282.4740700721741	pulse	0	t		72.0	2.5	/experiments/aot/S_yt-TxU1H5A6BaQ_52.mp4	0.0	301.1212420463562	
74	282.4818150997162	movie	1		301	72.0	2.5	/experiments/aot/S_yt-TxU1H5A6BaQ_52.mp4	0.0	301.1289870738983	2.50827693939209
74	284.06964898109436	pulse	1	t		72.0	2.5	/experiments/aot/S_yt-TxU1H5A6BaQ_52.mp4	0.0	302.7168209552765	
74	284.9900920391083	fix_post	2		72	72.0	2.5	/experiments/aot/S_yt-TxU1H5A6BaQ_52.mp4	0.0	303.6372640132904	0.6000521183013916
75	285.59014415740967	fix_pre	0		11	73.0	2.5	/experiments/aot/S_yt-LB9LoYfH_EA_15.mp4	0.0	304.2373161315918	0.09251999855041504
75	285.67402815818787	pulse	0	t		73.0	2.5	/experiments/aot/S_yt-LB9LoYfH_EA_15.mp4	0.0	304.32120013237	
75	285.6826641559601	movie	1		301	73.0	2.5	/experiments/aot/S_yt-LB9LoYfH_EA_15.mp4	0.0	304.3298361301422	2.507455825805664
75	287.26972103118896	pulse	1	t		73.0	2.5	/experiments/aot/S_yt-LB9LoYfH_EA_15.mp4	0.0	305.9168930053711	
75	288.19011998176575	fix_post	2		72	73.0	2.5	/experiments/aot/S_yt-LB9LoYfH_EA_15.mp4	0.0	306.8372919559479	0.5999891757965088
76	288.79010915756226	fix_pre	0		11	74.0	2.5	/experiments/aot/S_yt-Fm97IY0Z2LU_110.mp4	0.0	307.4372811317444	0.09175896644592285
76	288.8739981651306	pulse	0	t		74.0	2.5	/experiments/aot/S_yt-Fm97IY0Z2LU_110.mp4	0.0	307.52117013931274	
76	288.8818681240082	movie	1		301	74.0	2.5	/experiments/aot/S_yt-Fm97IY0Z2LU_110.mp4	0.0	307.5290400981903	2.508225917816162
76	290.46976017951965	pulse	1	t		74.0	2.5	/experiments/aot/S_yt-Fm97IY0Z2LU_110.mp4	0.0	309.1169321537018	
76	291.39009404182434	fix_post	2		72	74.0	2.5	/experiments/aot/S_yt-Fm97IY0Z2LU_110.mp4	0.0	310.03726601600647	0.6000070571899414
77	291.9901010990143	fix_pre	0		11	75.0	2.5	blank	1.0	310.6372730731964	0.09255695343017578
77	292.0740010738373	pulse	0	t		75.0	2.5	blank	1.0	310.7211730480194	
77	292.08265805244446	movie	1		301	75.0	2.5	blank	1.0	310.7298300266266	2.508281946182251
77	293.6739661693573	pulse	1	t		75.0	2.5	blank	1.0	312.32113814353943	
77	294.5909399986267	fix_post	2		72	75.0	2.5	blank	1.0	313.23811197280884	0.5991501808166504
78	295.19009017944336	fix_pre	0		11	76.0	2.5	blank	1.0	313.8372621536255	0.09258580207824707
78	295.27398204803467	pulse	0	t		76.0	2.5	blank	1.0	313.9211540222168	
78	295.2826759815216	movie	1		301	76.0	2.5	blank	1.0	313.92984795570374	2.508268117904663
78	296.87397503852844	pulse	1	t		76.0	2.5	blank	1.0	315.52114701271057	
78	297.79094409942627	fix_post	2		72	76.0	2.5	blank	1.0	316.4381160736084	0.5990409851074219
79	298.3899850845337	fix_pre	0		11	77.0	2.5	blank	1.0	317.0371570587158	0.09173107147216797
79	298.4739761352539	pulse	0	t		77.0	2.5	blank	1.0	317.12114810943604	
79	298.48171615600586	movie	1		301	77.0	2.5	blank	1.0	317.128888130188	2.509227991104126
79	300.07394313812256	pulse	1	t		77.0	2.5	blank	1.0	318.7211151123047	
79	300.99094414711	fix_post	2		72	77.0	2.5	blank	1.0	319.6381161212921	0.5990660190582275
80	301.5900101661682	fix_pre	0		11	78.0	2.5	/experiments/aot/S_ILSVRC2015_train_00165008.mp4	0.0	320.23718214035034	0.0926058292388916
80	301.6739580631256	pulse	0	t		78.0	2.5	/experiments/aot/S_ILSVRC2015_train_00165008.mp4	0.0	320.32113003730774	
80	301.6826159954071	movie	1		301	78.0	2.5	/experiments/aot/S_ILSVRC2015_train_00165008.mp4	0.0	320.32978796958923	2.5074410438537598
80	303.26987504959106	pulse	1	t		78.0	2.5	/experiments/aot/S_ILSVRC2015_train_00165008.mp4	0.0	321.9170470237732	
80	304.19005703926086	fix_post	2		72	78.0	2.5	/experiments/aot/S_ILSVRC2015_train_00165008.mp4	0.0	322.837229013443	0.5999550819396973
81	304.79001212120056	fix_pre	0		11	79.0	2.5	blank	1.0	323.4371840953827	0.09168386459350586
81	304.8738942146301	pulse	0	t		79.0	2.5	blank	1.0	323.52106618881226	
81	304.88169598579407	movie	1		301	79.0	2.5	blank	1.0	323.5288679599762	2.509190082550049
81	306.47393703460693	pulse	1	t		79.0	2.5	blank	1.0	325.12110900878906	
81	307.3908860683441	fix_post	2		72	79.0	2.5	blank	1.0	326.03805804252625	0.5991020202636719
82	307.9899880886078	fix_pre	0		11	80.0	2.5	/experiments/aot/S_yt--OkafQ5VFHs_51.mp4	0.0	326.6371600627899	0.0925149917602539
82	308.07387018203735	pulse	0	t		80.0	2.5	/experiments/aot/S_yt--OkafQ5VFHs_51.mp4	0.0	326.7210421562195	
82	308.08250308036804	movie	1		301	80.0	2.5	/experiments/aot/S_yt--OkafQ5VFHs_51.mp4	0.0	326.72967505455017	2.5074710845947266
82	309.669988155365	pulse	1	t		80.0	2.5	/experiments/aot/S_yt--OkafQ5VFHs_51.mp4	0.0	328.3171601295471	
82	310.58997416496277	fix_post	2		72	80.0	2.5	/experiments/aot/S_yt--OkafQ5VFHs_51.mp4	0.0	329.2371461391449	0.6000468730926514
83	311.1900210380554	fix_pre	0		11	81.0	2.5	/experiments/aot/S_yt-yQrDeFlFmfM_138.mp4	0.0	329.83719301223755	0.0916290283203125
83	311.27396607398987	pulse	0	t		81.0	2.5	/experiments/aot/S_yt-yQrDeFlFmfM_138.mp4	0.0	329.921138048172	
83	311.28165006637573	movie	1		301	81.0	2.5	/experiments/aot/S_yt-yQrDeFlFmfM_138.mp4	0.0	329.92882204055786	2.508305072784424
83	312.86943316459656	pulse	1	t		81.0	2.5	/experiments/aot/S_yt-yQrDeFlFmfM_138.mp4	0.0	331.5166051387787	
83	313.78995513916016	fix_post	2		72	81.0	2.5	/experiments/aot/S_yt-yQrDeFlFmfM_138.mp4	0.0	332.4371271133423	0.6001219749450684
84	314.3900771141052	fix_pre	0		11	82.0	2.5	blank	1.0	333.03724908828735	0.09172892570495605
84	314.47398114204407	pulse	0	t		82.0	2.5	blank	1.0	333.1211531162262	
84	314.4818060398102	movie	1		301	82.0	2.5	blank	1.0	333.1289780139923	2.5081851482391357
84	316.0738470554352	pulse	1	t		82.0	2.5	blank	1.0	334.7210190296173	
84	316.9899911880493	fix_post	2		72	82.0	2.5	blank	1.0	335.63716316223145	0.5999319553375244
85	317.58992314338684	fix_pre	0		11	83.0	2.5	blank	1.0	336.23709511756897	0.09212589263916016
85	317.67392802238464	pulse	0	t		83.0	2.5	blank	1.0	336.3210999965668	
85	317.682049036026	movie	1		301	83.0	2.5	blank	1.0	336.32922101020813	2.5078680515289307
85	319.27385997772217	pulse	1	t		83.0	2.5	blank	1.0	337.9210319519043	
85	320.18991708755493	fix_post	2		72	83.0	2.5	blank	1.0	338.83708906173706	0.5999510288238525
86	320.7898681163788	fix_pre	0		11	84.0	2.5	/experiments/aot/S_yt-qsyDLtXcyHc_8.mp4	0.0	339.4370400905609	0.09259986877441406
86	320.87379717826843	pulse	0	t		84.0	2.5	/experiments/aot/S_yt-qsyDLtXcyHc_8.mp4	0.0	339.52096915245056	
86	320.8824679851532	movie	1		301	84.0	2.5	/experiments/aot/S_yt-qsyDLtXcyHc_8.mp4	0.0	339.5296399593353	2.507432222366333
86	322.46982502937317	pulse	1	t		84.0	2.5	/experiments/aot/S_yt-qsyDLtXcyHc_8.mp4	0.0	341.1169970035553	
86	323.38990020751953	fix_post	2		72	84.0	2.5	/experiments/aot/S_yt-qsyDLtXcyHc_8.mp4	0.0	342.03707218170166	0.59999680519104
87	323.98989701271057	fix_pre	0		11	85.0	2.5	/experiments/aot/S_production_ID_3967181.mp4	0.0	342.6370689868927	0.09171199798583984
87	324.07381105422974	pulse	0	t		85.0	2.5	/experiments/aot/S_production_ID_3967181.mp4	0.0	342.72098302841187	
87	324.0816090106964	movie	1		166	85.0	2.5	/experiments/aot/S_production_ID_3967181.mp4	0.0	342.72878098487854	2.508310079574585
87	325.67405915260315	pulse	1	t		85.0	2.5	/experiments/aot/S_production_ID_3967181.mp4	0.0	344.3212311267853	
87	326.589919090271	fix_post	2		72	85.0	2.5	/experiments/aot/S_production_ID_3967181.mp4	0.0	345.2370910644531	0.6000149250030518
88	327.18993401527405	fix_pre	0		11	86.0	2.5	/experiments/aot/S_yt-PaxmJhMoP3w_87.mp4	0.0	345.8371059894562	0.09168815612792969
88	327.27381801605225	pulse	0	t		86.0	2.5	/experiments/aot/S_yt-PaxmJhMoP3w_87.mp4	0.0	345.9209899902344	
88	327.281622171402	movie	1		301	86.0	2.5	/experiments/aot/S_yt-PaxmJhMoP3w_87.mp4	0.0	345.9287941455841	2.5083208084106445
88	328.8707551956177	pulse	1	t		86.0	2.5	/experiments/aot/S_yt-PaxmJhMoP3w_87.mp4	0.0	347.5179271697998	
88	329.7899429798126	fix_post	2		72	86.0	2.5	/experiments/aot/S_yt-PaxmJhMoP3w_87.mp4	0.0	348.43711495399475	0.5999531745910645
89	330.3898961544037	fix_pre	0		11	87.0	2.5	/experiments/aot/S_yt-iO0efV_PV-k_102.mp4	0.0	349.0370681285858	0.09165596961975098
89	330.47382497787476	pulse	0	t		87.0	2.5	/experiments/aot/S_yt-iO0efV_PV-k_102.mp4	0.0	349.1209969520569	
89	330.48155212402344	movie	1		301	87.0	2.5	/experiments/aot/S_yt-iO0efV_PV-k_102.mp4	0.0	349.12872409820557	2.509199857711792
89	332.0698490142822	pulse	1	t		87.0	2.5	/experiments/aot/S_yt-iO0efV_PV-k_102.mp4	0.0	350.71702098846436	
89	332.99075198173523	fix_post	2		72	87.0	2.5	/experiments/aot/S_yt-iO0efV_PV-k_102.mp4	0.0	351.63792395591736	0.6001360416412354
90	333.59088802337646	fix_pre	0		11	88.0	2.5	/experiments/aot/S_yt-gmiyqQDGN78_7.mp4	0.0	352.2380599975586	0.09084010124206543
90	333.6738181114197	pulse	0	t		88.0	2.5	/experiments/aot/S_yt-gmiyqQDGN78_7.mp4	0.0	352.3209900856018	
90	333.68172812461853	movie	1		301	88.0	2.5	/experiments/aot/S_yt-gmiyqQDGN78_7.mp4	0.0	352.32890009880066	2.508168935775757
90	335.26979398727417	pulse	1	t		88.0	2.5	/experiments/aot/S_yt-gmiyqQDGN78_7.mp4	0.0	353.9169659614563	
90	336.1898970603943	fix_post	2		72	88.0	2.5	/experiments/aot/S_yt-gmiyqQDGN78_7.mp4	0.0	354.8370690345764	0.599998950958252
91	336.78989601135254	fix_pre	0		11	89.0	2.5	/experiments/aot/S_pexels-mikhail-nilov-8410084_1.mp4	0.0	355.43706798553467	0.0926060676574707
91	336.87381315231323	pulse	0	t		89.0	2.5	/experiments/aot/S_pexels-mikhail-nilov-8410084_1.mp4	0.0	355.52098512649536	
91	336.88250207901	movie	1		162	89.0	2.5	/experiments/aot/S_pexels-mikhail-nilov-8410084_1.mp4	0.0	355.52967405319214	2.508234977722168
91	338.47344303131104	pulse	1	t		89.0	2.5	/experiments/aot/S_pexels-mikhail-nilov-8410084_1.mp4	0.0	357.12061500549316	
91	339.3907370567322	fix_post	2		72	89.0	2.5	/experiments/aot/S_pexels-mikhail-nilov-8410084_1.mp4	0.0	358.0379090309143	0.5991830825805664
92	339.98992013931274	fix_pre	0		11	90.0	2.5	/experiments/aot/S_yt-QTGIhecBZjc_19.mp4	0.0	358.6370921134949	0.09169697761535645
92	340.06754899024963	pulse	0	t		90.0	2.5	/experiments/aot/S_yt-QTGIhecBZjc_19.mp4	0.0	358.71472096443176	
92	340.0816171169281	movie	1		301	90.0	2.5	/experiments/aot/S_yt-QTGIhecBZjc_19.mp4	0.0	358.72878909111023	2.508280038833618
92	341.66958808898926	pulse	1	t		90.0	2.5	/experiments/aot/S_yt-QTGIhecBZjc_19.mp4	0.0	360.3167600631714	
92	342.5898971557617	fix_post	2		72	90.0	2.5	/experiments/aot/S_yt-QTGIhecBZjc_19.mp4	0.0	361.23706912994385	0.5999839305877686
93	343.1898810863495	fix_pre	0		11	91.0	2.5	blank	1.0	361.8370530605316	0.0916600227355957
93	343.27372908592224	pulse	0	t		91.0	2.5	blank	1.0	361.92090106010437	
93	343.2815411090851	movie	1		301	91.0	2.5	blank	1.0	361.9287130832672	2.5083439350128174
93	344.87385511398315	pulse	1	t		91.0	2.5	blank	1.0	363.5210270881653	
93	345.7898850440979	fix_post	2		72	91.0	2.5	blank	1.0	364.43705701828003	0.5999331474304199
95	346.3898181915283	stim	0		1716					365.03699016571045	14.300428867340088
95	346.47371006011963	pulse	0	t						365.12088203430176	
95	348.0737111568451	pulse	0	t						366.7208831310272	
95	349.6736891269684	pulse	0	t						368.3208611011505	
95	351.27371406555176	pulse	0	t						369.9208860397339	
95	352.87367820739746	pulse	0	t						371.5208501815796	
95	354.4736440181732	pulse	0	t						373.12081599235535	
95	356.07360315322876	pulse	0	t						374.7207751274109	
95	357.67365407943726	pulse	0	t						376.3208260536194	
95	359.2736430168152	pulse	0	t						377.9208149909973	
