trial_nr	onset	event_type	phase	response	nr_frames	movie_index	movie_duration	movie_file	blank	onset_abs	duration
0	0.15936684608459473	stim	0		1963					101.6590826511383	16.357146978378296
0	16.5084547996521	response	0	space						118.00817060470581	
1	16.51651382446289	stim	0		8625					118.0162296295166	71.87416815757751
1	88.38402891159058	pulse	0	t						189.8837447166443	
1	88.3906819820404	stim	1		1717					189.89039778709412	14.309096813201904
1	89.98298788070679	pulse	1	t						191.4827036857605	
1	91.58290100097656	pulse	1	t						193.08261680603027	
1	93.18282985687256	pulse	1	t						194.68254566192627	
1	94.78284096717834	pulse	1	t						196.28255677223206	
1	96.38284993171692	pulse	1	t						197.88256573677063	
1	97.98284792900085	pulse	1	t						199.48256373405457	
1	99.58289790153503	pulse	1	t						201.08261370658875	
1	101.18276786804199	pulse	1	t						202.6824836730957	
2	102.69977879524231	fix_pre	0		11	0.0	2.5	/experiments/aot/S_yt-6mRpmfIvdew_1435.mp4	0.0	204.19949460029602	0.0916740894317627
2	102.78280186653137	pulse	0	t		0.0	2.5	/experiments/aot/S_yt-6mRpmfIvdew_1435.mp4	0.0	204.28251767158508	
2	102.79145288467407	movie	1		300	0.0	2.5	/experiments/aot/S_yt-6mRpmfIvdew_1435.mp4	0.0	204.29116868972778	2.508347988128662
2	104.37898087501526	pulse	1	t		0.0	2.5	/experiments/aot/S_yt-6mRpmfIvdew_1435.mp4	0.0	205.87869668006897	
2	105.29980087280273	fix_post	2		72	0.0	2.5	/experiments/aot/S_yt-6mRpmfIvdew_1435.mp4	0.0	206.79951667785645	0.5991990566253662
3	105.8989999294281	fix_pre	0		11	1.0	2.5	/experiments/aot/S_ILSVRC2015_train_00515000.mp4	0.0	207.3987157344818	0.09248900413513184
3	105.98279595375061	pulse	0	t		1.0	2.5	/experiments/aot/S_ILSVRC2015_train_00515000.mp4	0.0	207.48251175880432	
3	105.99148893356323	movie	1		301	1.0	2.5	/experiments/aot/S_ILSVRC2015_train_00515000.mp4	0.0	207.49120473861694	2.5074410438537598
3	107.5786988735199	pulse	1	t		1.0	2.5	/experiments/aot/S_ILSVRC2015_train_00515000.mp4	0.0	209.0784146785736	
3	108.49892997741699	fix_post	2		72	1.0	2.5	/experiments/aot/S_ILSVRC2015_train_00515000.mp4	0.0	209.9986457824707	0.6000759601593018
4	109.0990059375763	fix_pre	0		11	2.0	2.5	/experiments/aot/S_yt-oxUpc8I5wWQ_238.mp4	0.0	210.59872174263	0.09161901473999023
4	109.18285393714905	pulse	0	t		2.0	2.5	/experiments/aot/S_yt-oxUpc8I5wWQ_238.mp4	0.0	210.68256974220276	
4	109.19062495231628	movie	1		301	2.0	2.5	/experiments/aot/S_yt-oxUpc8I5wWQ_238.mp4	0.0	210.69034075737	2.5091910362243652
4	110.77941298484802	pulse	1	t		2.0	2.5	/experiments/aot/S_yt-oxUpc8I5wWQ_238.mp4	0.0	212.27912878990173	
4	111.69981598854065	fix_post	2		72	2.0	2.5	/experiments/aot/S_yt-oxUpc8I5wWQ_238.mp4	0.0	213.19953179359436	0.600010871887207
5	112.29982686042786	fix_pre	0		11	3.0	2.5	/experiments/aot/S_WCwb-DeQOSg_85.mp4	0.0	213.79954266548157	0.09079504013061523
5	112.3828649520874	pulse	0	t		3.0	2.5	/experiments/aot/S_WCwb-DeQOSg_85.mp4	0.0	213.8825807571411	
5	112.39062190055847	movie	1		301	3.0	2.5	/experiments/aot/S_WCwb-DeQOSg_85.mp4	0.0	213.89033770561218	2.5083069801330566
5	113.98286390304565	pulse	1	t		3.0	2.5	/experiments/aot/S_WCwb-DeQOSg_85.mp4	0.0	215.48257970809937	
5	114.89892888069153	fix_post	2		72	3.0	2.5	/experiments/aot/S_WCwb-DeQOSg_85.mp4	0.0	216.39864468574524	0.5999369621276855
6	115.49886584281921	fix_pre	0		11	4.0	2.5	/experiments/aot/S_ILSVRC2015_train_00594001.mp4	0.0	216.99858164787292	0.0916590690612793
6	115.58282279968262	pulse	0	t		4.0	2.5	/experiments/aot/S_ILSVRC2015_train_00594001.mp4	0.0	217.08253860473633	
6	115.5905249118805	movie	1		301	4.0	2.5	/experiments/aot/S_ILSVRC2015_train_00594001.mp4	0.0	217.0902407169342	2.508349895477295
6	117.18281483650208	pulse	1	t		4.0	2.5	/experiments/aot/S_ILSVRC2015_train_00594001.mp4	0.0	218.6825306415558	
6	118.09887480735779	fix_post	2		72	4.0	2.5	/experiments/aot/S_ILSVRC2015_train_00594001.mp4	0.0	219.5985906124115	0.6009671688079834
7	118.69984197616577	fix_pre	0		11	5.0	2.5	/experiments/aot/S_yt-9Ow95khYa_M_91.mp4	0.0	220.19955778121948	0.09069585800170898
7	118.78287291526794	pulse	0	t		5.0	2.5	/experiments/aot/S_yt-9Ow95khYa_M_91.mp4	0.0	220.28258872032166	
7	118.79053783416748	movie	1		301	5.0	2.5	/experiments/aot/S_yt-9Ow95khYa_M_91.mp4	0.0	220.2902536392212	2.5083611011505127
7	120.38270497322083	pulse	1	t		5.0	2.5	/experiments/aot/S_yt-9Ow95khYa_M_91.mp4	0.0	221.88242077827454	
7	121.298898935318	fix_post	2		72	5.0	2.5	/experiments/aot/S_yt-9Ow95khYa_M_91.mp4	0.0	222.7986147403717	0.600877046585083
8	121.89977598190308	fix_pre	0		11	6.0	2.5	/experiments/aot/S_yt-aiWUhl8MCto_71.mp4	0.0	223.3994917869568	0.0908958911895752
8	121.98286199569702	pulse	0	t		6.0	2.5	/experiments/aot/S_yt-aiWUhl8MCto_71.mp4	0.0	223.48257780075073	
8	121.99067187309265	movie	1		301	6.0	2.5	/experiments/aot/S_yt-aiWUhl8MCto_71.mp4	0.0	223.49038767814636	2.5083189010620117
8	123.58235096931458	pulse	1	t		6.0	2.5	/experiments/aot/S_yt-aiWUhl8MCto_71.mp4	0.0	225.0820667743683	
8	124.49899077415466	fix_post	2		72	6.0	2.5	/experiments/aot/S_yt-aiWUhl8MCto_71.mp4	0.0	225.99870657920837	0.6001021862030029
9	125.09909296035767	fix_pre	0		11	7.0	2.5	/experiments/aot/S_yt-UzWRbs9Syf4_7.mp4	0.0	226.59880876541138	0.09166884422302246
9	125.1825098991394	pulse	0	t		7.0	2.5	/experiments/aot/S_yt-UzWRbs9Syf4_7.mp4	0.0	226.68222570419312	
9	125.19076180458069	movie	1		301	7.0	2.5	/experiments/aot/S_yt-UzWRbs9Syf4_7.mp4	0.0	226.6904776096344	2.508186101913452
9	126.7828299999237	pulse	1	t		7.0	2.5	/experiments/aot/S_yt-UzWRbs9Syf4_7.mp4	0.0	228.28254580497742	
9	127.69894790649414	fix_post	2		72	7.0	2.5	/experiments/aot/S_yt-UzWRbs9Syf4_7.mp4	0.0	229.19866371154785	0.5999279022216797
10	128.29887580871582	fix_pre	0		11	8.0	2.5	blank	1.0	229.79859161376953	0.09255719184875488
10	128.38269782066345	pulse	0	t		8.0	2.5	blank	1.0	229.88241362571716	
10	128.39143300056458	movie	1		301	8.0	2.5	blank	1.0	229.8911488056183	2.5074257850646973
10	129.98274779319763	pulse	1	t		8.0	2.5	blank	1.0	231.48246359825134	
10	130.89885878562927	fix_post	2		72	8.0	2.5	blank	1.0	232.39857459068298	0.5999801158905029
11	131.49883890151978	fix_pre	0		11	9.0	2.5	/experiments/aot/S_flickr-clarkstonscamp-4863427159_1.mp4	0.0	232.9985547065735	0.0916600227355957
11	131.58263683319092	pulse	0	t		9.0	2.5	/experiments/aot/S_flickr-clarkstonscamp-4863427159_1.mp4	0.0	233.08235263824463	
11	131.59049892425537	movie	1		301	9.0	2.5	/experiments/aot/S_flickr-clarkstonscamp-4863427159_1.mp4	0.0	233.09021472930908	2.508283853530884
11	133.1827437877655	pulse	1	t		9.0	2.5	/experiments/aot/S_flickr-clarkstonscamp-4863427159_1.mp4	0.0	234.6824595928192	
11	134.09878277778625	fix_post	2		72	9.0	2.5	/experiments/aot/S_flickr-clarkstonscamp-4863427159_1.mp4	0.0	235.59849858283997	0.6000461578369141
12	134.69882893562317	fix_pre	0		11	10.0	2.5	/experiments/aot/S_yt--OkafQ5VFHs_51.mp4	0.0	236.19854474067688	0.09167695045471191
12	134.78274297714233	pulse	0	t		10.0	2.5	/experiments/aot/S_yt--OkafQ5VFHs_51.mp4	0.0	236.28245878219604	
12	134.79050588607788	movie	1		301	10.0	2.5	/experiments/aot/S_yt--OkafQ5VFHs_51.mp4	0.0	236.2902216911316	2.508305072784424
12	136.38270783424377	pulse	1	t		10.0	2.5	/experiments/aot/S_yt--OkafQ5VFHs_51.mp4	0.0	237.88242363929749	
12	137.2988109588623	fix_post	2		72	10.0	2.5	/experiments/aot/S_yt--OkafQ5VFHs_51.mp4	0.0	238.79852676391602	0.6000168323516846
13	137.898827791214	fix_pre	0		11	11.0	2.5	/experiments/aot/S_yt-QqSceHxY3d0_356.mp4	0.0	239.3985435962677	0.09247612953186035
13	137.98272490501404	pulse	0	t		11.0	2.5	/experiments/aot/S_yt-QqSceHxY3d0_356.mp4	0.0	239.48244071006775	
13	137.99130392074585	movie	1		301	11.0	2.5	/experiments/aot/S_yt-QqSceHxY3d0_356.mp4	0.0	239.49101972579956	2.507483959197998
13	139.58266282081604	pulse	1	t		11.0	2.5	/experiments/aot/S_yt-QqSceHxY3d0_356.mp4	0.0	241.08237862586975	
13	140.49878787994385	fix_post	2		72	11.0	2.5	/experiments/aot/S_yt-QqSceHxY3d0_356.mp4	0.0	241.99850368499756	0.6000149250030518
14	141.0988028049469	fix_pre	0		11	12.0	2.5	/experiments/aot/S_yt-EvKV7iY1_HM_193.mp4	0.0	242.5985186100006	0.0916910171508789
14	141.18264293670654	pulse	0	t		12.0	2.5	/experiments/aot/S_yt-EvKV7iY1_HM_193.mp4	0.0	242.68235874176025	
14	141.19049382209778	movie	1		301	12.0	2.5	/experiments/aot/S_yt-EvKV7iY1_HM_193.mp4	0.0	242.6902096271515	2.5082831382751465
14	142.78275299072266	pulse	1	t		12.0	2.5	/experiments/aot/S_yt-EvKV7iY1_HM_193.mp4	0.0	244.28246879577637	
14	143.69877696037292	fix_post	2		72	12.0	2.5	/experiments/aot/S_yt-EvKV7iY1_HM_193.mp4	0.0	245.19849276542664	0.6008038520812988
15	144.29958081245422	fix_pre	0		11	13.0	2.5	/experiments/aot/S_yt-vQ-rd-1gwH4_238.mp4	0.0	245.79929661750793	0.09085416793823242
15	144.38270592689514	pulse	0	t		13.0	2.5	/experiments/aot/S_yt-vQ-rd-1gwH4_238.mp4	0.0	245.88242173194885	
15	144.39043498039246	movie	1		301	13.0	2.5	/experiments/aot/S_yt-vQ-rd-1gwH4_238.mp4	0.0	245.89015078544617	2.508293867111206
15	145.9826738834381	pulse	1	t		13.0	2.5	/experiments/aot/S_yt-vQ-rd-1gwH4_238.mp4	0.0	247.48238968849182	
15	146.89872884750366	fix_post	2		72	13.0	2.5	/experiments/aot/S_yt-vQ-rd-1gwH4_238.mp4	0.0	248.39844465255737	0.6000521183013916
16	147.49878096580505	fix_pre	0		11	14.0	2.5	/experiments/aot/S_yt-ieA3XwoSko4_98.mp4	0.0	248.99849677085876	0.09246397018432617
16	147.58264589309692	pulse	0	t		14.0	2.5	/experiments/aot/S_yt-ieA3XwoSko4_98.mp4	0.0	249.08236169815063	
16	147.59124493598938	movie	1		301	14.0	2.5	/experiments/aot/S_yt-ieA3XwoSko4_98.mp4	0.0	249.0909607410431	2.5074849128723145
16	149.18266797065735	pulse	1	t		14.0	2.5	/experiments/aot/S_yt-ieA3XwoSko4_98.mp4	0.0	250.68238377571106	
16	150.0987298488617	fix_post	2		72	14.0	2.5	/experiments/aot/S_yt-ieA3XwoSko4_98.mp4	0.0	251.5984456539154	0.5999479293823242
17	150.69867777824402	fix_pre	0		11	15.0	2.5	/experiments/aot/S_yt-deiWoIfK6vg_44.mp4	0.0	252.19839358329773	0.09169721603393555
17	150.78264689445496	pulse	0	t		15.0	2.5	/experiments/aot/S_yt-deiWoIfK6vg_44.mp4	0.0	252.28236269950867	
17	150.79037499427795	movie	1		301	15.0	2.5	/experiments/aot/S_yt-deiWoIfK6vg_44.mp4	0.0	252.29009079933167	2.5083818435668945
17	152.38258481025696	pulse	1	t		15.0	2.5	/experiments/aot/S_yt-deiWoIfK6vg_44.mp4	0.0	253.88230061531067	
17	153.29875683784485	fix_post	2		72	15.0	2.5	/experiments/aot/S_yt-deiWoIfK6vg_44.mp4	0.0	254.79847264289856	0.5999269485473633
18	153.8986837863922	fix_pre	0		11	16.0	2.5	/experiments/aot/S_yt-6vkiJedss6g_5.mp4	0.0	255.39839959144592	0.09173798561096191
18	153.98261499404907	pulse	0	t		16.0	2.5	/experiments/aot/S_yt-6vkiJedss6g_5.mp4	0.0	255.48233079910278	
18	153.99042177200317	movie	1		301	16.0	2.5	/experiments/aot/S_yt-6vkiJedss6g_5.mp4	0.0	255.49013757705688	2.508261203765869
18	155.58261394500732	pulse	1	t		16.0	2.5	/experiments/aot/S_yt-6vkiJedss6g_5.mp4	0.0	257.08232975006104	
18	156.49868297576904	fix_post	2		72	16.0	2.5	/experiments/aot/S_yt-6vkiJedss6g_5.mp4	0.0	257.99839878082275	0.59999680519104
19	157.09867978096008	fix_pre	0		11	17.0	2.5	/experiments/aot/S_production_ID_5119260.mp4	0.0	258.5983955860138	0.09168601036071777
19	157.18263792991638	pulse	0	t		17.0	2.5	/experiments/aot/S_production_ID_5119260.mp4	0.0	258.6823537349701	
19	157.1903657913208	movie	1		160	17.0	2.5	/experiments/aot/S_production_ID_5119260.mp4	0.0	258.6900815963745	2.5083811283111572
19	158.782634973526	pulse	1	t		17.0	2.5	/experiments/aot/S_production_ID_5119260.mp4	0.0	260.2823507785797	
19	159.69874691963196	fix_post	2		72	17.0	2.5	/experiments/aot/S_production_ID_5119260.mp4	0.0	261.19846272468567	0.60093092918396
20	160.29967784881592	fix_pre	0		11	18.0	2.5	/experiments/aot/S_yt-PaxmJhMoP3w_87.mp4	0.0	261.79939365386963	0.09073209762573242
20	160.3825879096985	pulse	0	t		18.0	2.5	/experiments/aot/S_yt-PaxmJhMoP3w_87.mp4	0.0	261.8823037147522	
20	160.39040994644165	movie	1		301	18.0	2.5	/experiments/aot/S_yt-PaxmJhMoP3w_87.mp4	0.0	261.89012575149536	2.508314847946167
20	161.98276591300964	pulse	1	t		18.0	2.5	/experiments/aot/S_yt-PaxmJhMoP3w_87.mp4	0.0	263.48248171806335	
20	162.89872479438782	fix_post	2		72	18.0	2.5	/experiments/aot/S_yt-PaxmJhMoP3w_87.mp4	0.0	264.3984405994415	0.5999681949615479
21	163.49869298934937	fix_pre	0		11	19.0	2.5	/experiments/aot/S_wc-8bTJmWfuVyJ4_8.mp4	0.0	264.9984087944031	0.09170794486999512
21	163.58261799812317	pulse	0	t		19.0	2.5	/experiments/aot/S_wc-8bTJmWfuVyJ4_8.mp4	0.0	265.0823338031769	
21	163.59040093421936	movie	1		162	19.0	2.5	/experiments/aot/S_wc-8bTJmWfuVyJ4_8.mp4	0.0	265.09011673927307	2.508291006088257
21	165.18231177330017	pulse	1	t		19.0	2.5	/experiments/aot/S_wc-8bTJmWfuVyJ4_8.mp4	0.0	266.6820275783539	
21	166.09869194030762	fix_post	2		72	19.0	2.5	/experiments/aot/S_wc-8bTJmWfuVyJ4_8.mp4	0.0	267.5984077453613	0.599992036819458
22	166.69868397712708	fix_pre	0		11	20.0	2.5	/experiments/aot/S_yt-t8NfuFA7OlM_26.mp4	0.0	268.1983997821808	0.09162187576293945
22	166.78240084648132	pulse	0	t		20.0	2.5	/experiments/aot/S_yt-t8NfuFA7OlM_26.mp4	0.0	268.28211665153503	
22	166.79030585289001	movie	1		301	20.0	2.5	/experiments/aot/S_yt-t8NfuFA7OlM_26.mp4	0.0	268.2900216579437	2.5083720684051514
22	168.3826129436493	pulse	1	t		20.0	2.5	/experiments/aot/S_yt-t8NfuFA7OlM_26.mp4	0.0	269.882328748703	
22	169.29867792129517	fix_post	2		72	20.0	2.5	/experiments/aot/S_yt-t8NfuFA7OlM_26.mp4	0.0	270.7983937263489	0.6009140014648438
23	169.89959192276	fix_pre	0		11	21.0	2.5	blank	1.0	271.3993077278137	0.0907440185546875
23	169.98248982429504	pulse	0	t		21.0	2.5	blank	1.0	271.48220562934875	
23	169.9903359413147	movie	1		301	21.0	2.5	blank	1.0	271.4900517463684	2.5083088874816895
23	171.58247590065002	pulse	1	t		21.0	2.5	blank	1.0	273.08219170570374	
23	172.4986448287964	fix_post	2		72	21.0	2.5	blank	1.0	273.9983606338501	0.6000120639801025
24	173.0986568927765	fix_pre	0		11	22.0	2.5	/experiments/aot/S_yt-hTkrnNr39dk_202.mp4	0.0	274.5983726978302	0.0917060375213623
24	173.18249893188477	pulse	0	t		22.0	2.5	/experiments/aot/S_yt-hTkrnNr39dk_202.mp4	0.0	274.6822147369385	
24	173.19036293029785	movie	1		301	22.0	2.5	/experiments/aot/S_yt-hTkrnNr39dk_202.mp4	0.0	274.69007873535156	2.508293867111206
24	174.7826099395752	pulse	1	t		22.0	2.5	/experiments/aot/S_yt-hTkrnNr39dk_202.mp4	0.0	276.2823257446289	
24	175.69865679740906	fix_post	2		72	22.0	2.5	/experiments/aot/S_yt-hTkrnNr39dk_202.mp4	0.0	277.19837260246277	0.599977970123291
25	176.29863476753235	fix_pre	0		11	23.0	2.5	/experiments/aot/S_yt-AiXq1oDrEXI_123.mp4	0.0	277.79835057258606	0.09256410598754883
25	176.38249492645264	pulse	0	t		23.0	2.5	/experiments/aot/S_yt-AiXq1oDrEXI_123.mp4	0.0	277.88221073150635	
25	176.3911988735199	movie	1		301	23.0	2.5	/experiments/aot/S_yt-AiXq1oDrEXI_123.mp4	0.0	277.8909146785736	2.508333921432495
25	177.98258185386658	pulse	1	t		23.0	2.5	/experiments/aot/S_yt-AiXq1oDrEXI_123.mp4	0.0	279.4822976589203	
25	178.8995327949524	fix_post	2		72	23.0	2.5	/experiments/aot/S_yt-AiXq1oDrEXI_123.mp4	0.0	280.3992486000061	0.5991270542144775
26	179.49865984916687	fix_pre	0		11	24.0	2.5	/experiments/aot/S_yt-b7JAHOeiTqU_44.mp4	0.0	280.9983756542206	0.0916900634765625
26	179.5821409225464	pulse	0	t		24.0	2.5	/experiments/aot/S_yt-b7JAHOeiTqU_44.mp4	0.0	281.0818567276001	
26	179.59034991264343	movie	1		301	24.0	2.5	/experiments/aot/S_yt-b7JAHOeiTqU_44.mp4	0.0	281.09006571769714	2.5086350440979004
26	181.18274784088135	pulse	1	t		24.0	2.5	/experiments/aot/S_yt-b7JAHOeiTqU_44.mp4	0.0	282.68246364593506	
26	182.09898495674133	fix_post	2		72	24.0	2.5	/experiments/aot/S_yt-b7JAHOeiTqU_44.mp4	0.0	283.59870076179504	0.599686861038208
27	182.69867181777954	fix_pre	0		11	25.0	2.5	/experiments/aot/S_production_ID_4707837.mp4	0.0	284.19838762283325	0.09160304069519043
27	182.7825529575348	pulse	0	t		25.0	2.5	/experiments/aot/S_production_ID_4707837.mp4	0.0	284.2822687625885	
27	182.79027485847473	movie	1		160	25.0	2.5	/experiments/aot/S_production_ID_4707837.mp4	0.0	284.28999066352844	2.5093469619750977
27	184.38243079185486	pulse	1	t		25.0	2.5	/experiments/aot/S_production_ID_4707837.mp4	0.0	285.88214659690857	
27	185.29962182044983	fix_post	2		72	25.0	2.5	/experiments/aot/S_production_ID_4707837.mp4	0.0	286.79933762550354	0.5989899635314941
28	185.89861178398132	fix_pre	0		11	26.0	2.5	/experiments/aot/S_production_ID_3735542.mp4	0.0	287.39832758903503	0.09166502952575684
28	185.98374199867249	pulse	0	t		26.0	2.5	/experiments/aot/S_production_ID_3735542.mp4	0.0	287.4834578037262	
28	185.99027681350708	movie	1		161	26.0	2.5	/experiments/aot/S_production_ID_3735542.mp4	0.0	287.4899926185608	2.5083131790161133
28	187.58264589309692	pulse	1	t		26.0	2.5	/experiments/aot/S_production_ID_3735542.mp4	0.0	289.08236169815063	
28	188.4985899925232	fix_post	2		72	26.0	2.5	/experiments/aot/S_production_ID_3735542.mp4	0.0	289.9983057975769	0.5998959541320801
29	189.09848594665527	fix_pre	0		11	27.0	2.5	/experiments/aot/S_yt-gmiyqQDGN78_7.mp4	0.0	290.598201751709	0.0917048454284668
29	189.1824119091034	pulse	0	t		27.0	2.5	/experiments/aot/S_yt-gmiyqQDGN78_7.mp4	0.0	290.6821277141571	
29	189.19019079208374	movie	1		301	27.0	2.5	/experiments/aot/S_yt-gmiyqQDGN78_7.mp4	0.0	290.68990659713745	2.508294105529785
29	190.78242683410645	pulse	1	t		27.0	2.5	/experiments/aot/S_yt-gmiyqQDGN78_7.mp4	0.0	292.28214263916016	
29	191.69848489761353	fix_post	2		72	27.0	2.5	/experiments/aot/S_yt-gmiyqQDGN78_7.mp4	0.0	293.19820070266724	0.6000900268554688
30	192.298574924469	fix_pre	0		11	28.0	2.5	/experiments/aot/S_Nh81j72Utbs_5.mp4	0.0	293.7982907295227	0.09159493446350098
30	192.38237690925598	pulse	0	t		28.0	2.5	/experiments/aot/S_Nh81j72Utbs_5.mp4	0.0	293.8820927143097	
30	192.3901698589325	movie	1		301	28.0	2.5	/experiments/aot/S_Nh81j72Utbs_5.mp4	0.0	293.8898856639862	2.5094809532165527
30	193.9824559688568	pulse	1	t		28.0	2.5	/experiments/aot/S_Nh81j72Utbs_5.mp4	0.0	295.4821717739105	
30	194.89965081214905	fix_post	2		72	28.0	2.5	/experiments/aot/S_Nh81j72Utbs_5.mp4	0.0	296.39936661720276	0.5998251438140869
31	195.49947595596313	fix_pre	0		11	29.0	2.5	blank	1.0	296.99919176101685	0.09163284301757812
31	195.5823938846588	pulse	0	t		29.0	2.5	blank	1.0	297.0821096897125	
31	195.5911087989807	movie	1		301	29.0	2.5	blank	1.0	297.0908246040344	2.5083401203155518
31	197.1824188232422	pulse	1	t		29.0	2.5	blank	1.0	298.6821346282959	
31	198.09944891929626	fix_post	2		72	29.0	2.5	blank	1.0	299.59916472435	0.5991380214691162
32	198.69858694076538	fix_pre	0		11	30.0	2.5	/experiments/aot/S_ILSVRC2015_train_00165008.mp4	0.0	300.1983027458191	0.09258103370666504
32	198.78252291679382	pulse	0	t		30.0	2.5	/experiments/aot/S_ILSVRC2015_train_00165008.mp4	0.0	300.28223872184753	
32	198.79116797447205	movie	1		301	30.0	2.5	/experiments/aot/S_ILSVRC2015_train_00165008.mp4	0.0	300.29088377952576	2.507291793823242
32	200.3823959827423	pulse	1	t		30.0	2.5	/experiments/aot/S_ILSVRC2015_train_00165008.mp4	0.0	301.882111787796	
32	201.2984597682953	fix_post	2		72	30.0	2.5	/experiments/aot/S_ILSVRC2015_train_00165008.mp4	0.0	302.798175573349	0.5999801158905029
33	201.8984398841858	fix_pre	0		11	31.0	2.5	/experiments/aot/S_Pexels_Videos_2786546.mp4	0.0	303.3981556892395	0.0916891098022461
33	201.98239088058472	pulse	0	t		31.0	2.5	/experiments/aot/S_Pexels_Videos_2786546.mp4	0.0	303.4821066856384	
33	201.99012899398804	movie	1		163	31.0	2.5	/experiments/aot/S_Pexels_Videos_2786546.mp4	0.0	303.48984479904175	2.5085349082946777
33	203.58225178718567	pulse	1	t		31.0	2.5	/experiments/aot/S_Pexels_Videos_2786546.mp4	0.0	305.0819675922394	
33	204.49866390228271	fix_post	2		72	31.0	2.5	/experiments/aot/S_Pexels_Videos_2786546.mp4	0.0	305.9983797073364	0.5998470783233643
34	205.09851098060608	fix_pre	0		11	32.0	2.5	/experiments/aot/S_yt-9EnchawJ3pA_90.mp4	0.0	306.5982267856598	0.09166598320007324
34	205.18371295928955	pulse	0	t		32.0	2.5	/experiments/aot/S_yt-9EnchawJ3pA_90.mp4	0.0	306.68342876434326	
34	205.19017696380615	movie	1		301	32.0	2.5	/experiments/aot/S_yt-9EnchawJ3pA_90.mp4	0.0	306.68989276885986	2.5083389282226562
34	206.78240180015564	pulse	1	t		32.0	2.5	/experiments/aot/S_yt-9EnchawJ3pA_90.mp4	0.0	308.28211760520935	
34	207.6985158920288	fix_post	2		72	32.0	2.5	/experiments/aot/S_yt-9EnchawJ3pA_90.mp4	0.0	309.1982316970825	0.6008570194244385
35	208.29937291145325	fix_pre	0		11	33.0	2.5	blank	1.0	309.79908871650696	0.09093189239501953
35	208.38234090805054	pulse	0	t		33.0	2.5	blank	1.0	309.88205671310425	
35	208.39030480384827	movie	1		301	33.0	2.5	blank	1.0	309.890020608902	2.508167028427124
35	209.98229098320007	pulse	1	t		33.0	2.5	blank	1.0	311.4820067882538	
35	210.8984718322754	fix_post	2		72	33.0	2.5	blank	1.0	312.3981876373291	0.6000161170959473
36	211.49848794937134	fix_pre	0		11	34.0	2.5	/experiments/aot/S_xq822dX6DDM_1.mp4	0.0	312.99820375442505	0.09276890754699707
36	211.58230090141296	pulse	0	t		34.0	2.5	/experiments/aot/S_xq822dX6DDM_1.mp4	0.0	313.0820167064667	
36	211.59125685691833	movie	1		301	34.0	2.5	/experiments/aot/S_xq822dX6DDM_1.mp4	0.0	313.09097266197205	2.5080771446228027
36	213.18236184120178	pulse	1	t		34.0	2.5	/experiments/aot/S_xq822dX6DDM_1.mp4	0.0	314.6820776462555	
36	214.09933400154114	fix_post	2		72	34.0	2.5	/experiments/aot/S_xq822dX6DDM_1.mp4	0.0	315.59904980659485	0.5991308689117432
37	214.69846487045288	fix_pre	0		11	35.0	2.5	/experiments/aot/S_yt-aSEKRE_FNaI_62.mp4	0.0	316.1981806755066	0.09166502952575684
37	214.78235697746277	pulse	0	t		35.0	2.5	/experiments/aot/S_yt-aSEKRE_FNaI_62.mp4	0.0	316.2820727825165	
37	214.79012989997864	movie	1		301	35.0	2.5	/experiments/aot/S_yt-aSEKRE_FNaI_62.mp4	0.0	316.28984570503235	2.5083088874816895
37	216.3792209625244	pulse	1	t		35.0	2.5	/experiments/aot/S_yt-aSEKRE_FNaI_62.mp4	0.0	317.8789367675781	
37	217.29843878746033	fix_post	2		72	35.0	2.5	/experiments/aot/S_yt-aSEKRE_FNaI_62.mp4	0.0	318.79815459251404	0.5999650955200195
38	217.89840388298035	fix_pre	0		11	36.0	2.5	/experiments/aot/S_ILSVRC2015_train_00569003.mp4	0.0	319.39811968803406	0.09166789054870605
38	217.98236799240112	pulse	0	t		36.0	2.5	/experiments/aot/S_ILSVRC2015_train_00569003.mp4	0.0	319.48208379745483	
38	217.99007177352905	movie	1		301	36.0	2.5	/experiments/aot/S_ILSVRC2015_train_00569003.mp4	0.0	319.48978757858276	2.508312225341797
38	219.58231687545776	pulse	1	t		36.0	2.5	/experiments/aot/S_ILSVRC2015_train_00569003.mp4	0.0	321.0820326805115	
38	220.49838399887085	fix_post	2		72	36.0	2.5	/experiments/aot/S_ILSVRC2015_train_00569003.mp4	0.0	321.99809980392456	0.6000998020172119
39	221.09848380088806	fix_pre	0		11	37.0	2.5	/experiments/aot/S_yt--koo4FOfZE0_86.mp4	0.0	322.5981996059418	0.09151101112365723
39	221.1822669506073	pulse	0	t		37.0	2.5	/experiments/aot/S_yt--koo4FOfZE0_86.mp4	0.0	322.681982755661	
39	221.18999481201172	movie	1		301	37.0	2.5	/experiments/aot/S_yt--koo4FOfZE0_86.mp4	0.0	322.68971061706543	2.5084660053253174
39	222.7823348045349	pulse	1	t		37.0	2.5	/experiments/aot/S_yt--koo4FOfZE0_86.mp4	0.0	324.2820506095886	
39	223.69846081733704	fix_post	2		72	37.0	2.5	/experiments/aot/S_yt--koo4FOfZE0_86.mp4	0.0	325.19817662239075	0.5999491214752197
40	224.29840993881226	fix_pre	0		11	38.0	2.5	/experiments/aot/S_yt-54kx8P3L1ns_6.mp4	0.0	325.79812574386597	0.09167885780334473
40	224.38227891921997	pulse	0	t		38.0	2.5	/experiments/aot/S_yt-54kx8P3L1ns_6.mp4	0.0	325.8819947242737	
40	224.3900887966156	movie	1		301	38.0	2.5	/experiments/aot/S_yt-54kx8P3L1ns_6.mp4	0.0	325.8898046016693	2.508294105529785
40	225.9823558330536	pulse	1	t		38.0	2.5	/experiments/aot/S_yt-54kx8P3L1ns_6.mp4	0.0	327.4820716381073	
40	226.89838290214539	fix_post	2		72	38.0	2.5	/experiments/aot/S_yt-54kx8P3L1ns_6.mp4	0.0	328.3980987071991	0.5999748706817627
41	227.49835777282715	fix_pre	0		11	39.0	2.5	/experiments/aot/S_ILSVRC2015_train_00369004.mp4	0.0	328.99807357788086	0.09255409240722656
41	227.58223485946655	pulse	0	t		39.0	2.5	/experiments/aot/S_ILSVRC2015_train_00369004.mp4	0.0	329.08195066452026	
41	227.59091186523438	movie	1		301	39.0	2.5	/experiments/aot/S_ILSVRC2015_train_00369004.mp4	0.0	329.0906276702881	2.5074470043182373
41	229.18231987953186	pulse	1	t		39.0	2.5	/experiments/aot/S_ILSVRC2015_train_00369004.mp4	0.0	330.68203568458557	
41	230.0983588695526	fix_post	2		72	39.0	2.5	/experiments/aot/S_ILSVRC2015_train_00369004.mp4	0.0	331.5980746746063	0.6000120639801025
42	230.69837093353271	fix_pre	0		11	40.0	2.5	/experiments/aot/S_yt-zKnjBBYWe90_369.mp4	0.0	332.1980867385864	0.09261488914489746
42	230.78224682807922	pulse	0	t		40.0	2.5	/experiments/aot/S_yt-zKnjBBYWe90_369.mp4	0.0	332.28196263313293	
42	230.7909858226776	movie	1		301	40.0	2.5	/experiments/aot/S_yt-zKnjBBYWe90_369.mp4	0.0	332.2907016277313	2.5074210166931152
42	232.3824679851532	pulse	1	t		40.0	2.5	/experiments/aot/S_yt-zKnjBBYWe90_369.mp4	0.0	333.8821837902069	
42	233.29840683937073	fix_post	2		72	40.0	2.5	/experiments/aot/S_yt-zKnjBBYWe90_369.mp4	0.0	334.79812264442444	0.6000199317932129
43	233.89842677116394	fix_pre	0		11	41.0	2.5	blank	1.0	335.39814257621765	0.09252119064331055
43	233.98224997520447	pulse	0	t		41.0	2.5	blank	1.0	335.4819657802582	
43	233.99094796180725	movie	1		301	41.0	2.5	blank	1.0	335.49066376686096	2.5083730220794678
43	235.58183193206787	pulse	1	t		41.0	2.5	blank	1.0	337.0815477371216	
43	236.49932098388672	fix_post	2		72	41.0	2.5	blank	1.0	337.99903678894043	0.5992410182952881
44	237.098562002182	fix_pre	0		11	42.0	2.5	/experiments/aot/S_yt-AOP7QYQntPI_28.mp4	0.0	338.5982778072357	0.09166693687438965
44	237.18248677253723	pulse	0	t		42.0	2.5	/experiments/aot/S_yt-AOP7QYQntPI_28.mp4	0.0	338.68220257759094	
44	237.1902289390564	movie	1		301	42.0	2.5	/experiments/aot/S_yt-AOP7QYQntPI_28.mp4	0.0	338.6899447441101	2.5081138610839844
44	238.78219294548035	pulse	1	t		42.0	2.5	/experiments/aot/S_yt-AOP7QYQntPI_28.mp4	0.0	340.28190875053406	
44	239.69834280014038	fix_post	2		72	42.0	2.5	/experiments/aot/S_yt-AOP7QYQntPI_28.mp4	0.0	341.1980586051941	0.6000030040740967
45	240.29834580421448	fix_pre	0		11	43.0	2.5	/experiments/aot/S_ILSVRC2015_train_00762000.mp4	0.0	341.7980616092682	0.09262919425964355
45	240.3822419643402	pulse	0	t		43.0	2.5	/experiments/aot/S_ILSVRC2015_train_00762000.mp4	0.0	341.8819577693939	
45	240.39097499847412	movie	1		301	43.0	2.5	/experiments/aot/S_ILSVRC2015_train_00762000.mp4	0.0	341.89069080352783	2.507344961166382
45	241.98225593566895	pulse	1	t		43.0	2.5	/experiments/aot/S_ILSVRC2015_train_00762000.mp4	0.0	343.48197174072266	
45	242.8983199596405	fix_post	2		72	43.0	2.5	/experiments/aot/S_ILSVRC2015_train_00762000.mp4	0.0	344.3980357646942	0.6000008583068848
46	243.4983208179474	fix_pre	0		11	44.0	2.5	/experiments/aot/S_yt-MTo50ReVNmU_2.mp4	0.0	344.9980366230011	0.09259700775146484
46	243.58212089538574	pulse	0	t		44.0	2.5	/experiments/aot/S_yt-MTo50ReVNmU_2.mp4	0.0	345.08183670043945	
46	243.59091782569885	movie	1		301	44.0	2.5	/experiments/aot/S_yt-MTo50ReVNmU_2.mp4	0.0	345.09063363075256	2.507373094558716
46	245.18218994140625	pulse	1	t		44.0	2.5	/experiments/aot/S_yt-MTo50ReVNmU_2.mp4	0.0	346.68190574645996	
46	246.09829092025757	fix_post	2		72	44.0	2.5	/experiments/aot/S_yt-MTo50ReVNmU_2.mp4	0.0	347.5980067253113	0.5999929904937744
47	246.69828391075134	fix_pre	0		11	45.0	2.5	blank	1.0	348.19799971580505	0.09192299842834473
47	246.78209590911865	pulse	0	t		45.0	2.5	blank	1.0	348.28181171417236	
47	246.7902069091797	movie	1		301	45.0	2.5	blank	1.0	348.2899227142334	2.508094072341919
47	248.38214683532715	pulse	1	t		45.0	2.5	blank	1.0	349.88186264038086	
47	249.2983009815216	fix_post	2		72	45.0	2.5	blank	1.0	350.7980167865753	0.6008419990539551
48	249.89914298057556	fix_pre	0		11	46.0	2.5	/experiments/aot/S_yt-yQrDeFlFmfM_138.mp4	0.0	351.3988587856293	0.09081697463989258
48	249.98223876953125	pulse	0	t		46.0	2.5	/experiments/aot/S_yt-yQrDeFlFmfM_138.mp4	0.0	351.48195457458496	
48	249.98995995521545	movie	1		301	46.0	2.5	/experiments/aot/S_yt-yQrDeFlFmfM_138.mp4	0.0	351.48967576026917	2.5083038806915283
48	251.5821578502655	pulse	1	t		46.0	2.5	/experiments/aot/S_yt-yQrDeFlFmfM_138.mp4	0.0	353.0818736553192	
48	252.49826383590698	fix_post	2		72	46.0	2.5	/experiments/aot/S_yt-yQrDeFlFmfM_138.mp4	0.0	353.9979796409607	0.5999679565429688
49	253.09823179244995	fix_pre	0		11	47.0	2.5	blank	1.0	354.59794759750366	0.09165310859680176
49	253.18215990066528	pulse	0	t		47.0	2.5	blank	1.0	354.681875705719	
49	253.18988490104675	movie	1		301	47.0	2.5	blank	1.0	354.68960070610046	2.5083348751068115
49	254.78210997581482	pulse	1	t		47.0	2.5	blank	1.0	356.28182578086853	
49	255.69821977615356	fix_post	2		72	47.0	2.5	blank	1.0	357.1979355812073	0.6000261306762695
50	256.29824590682983	fix_pre	0		11	48.0	2.5	/experiments/aot/S_yt-O4wUEZwHLyI_114.mp4	0.0	357.79796171188354	0.09170389175415039
50	256.38212394714355	pulse	0	t		48.0	2.5	/experiments/aot/S_yt-O4wUEZwHLyI_114.mp4	0.0	357.88183975219727	
50	256.389949798584	movie	1		301	48.0	2.5	/experiments/aot/S_yt-O4wUEZwHLyI_114.mp4	0.0	357.8896656036377	2.508315086364746
50	257.98215794563293	pulse	1	t		48.0	2.5	/experiments/aot/S_yt-O4wUEZwHLyI_114.mp4	0.0	359.48187375068665	
50	258.89826488494873	fix_post	2		72	48.0	2.5	/experiments/aot/S_yt-O4wUEZwHLyI_114.mp4	0.0	360.39798069000244	0.5999710559844971
51	259.4982359409332	fix_pre	0		11	49.0	2.5	/experiments/aot/S_yt-c-H45QS0CF4_147.mp4	0.0	360.99795174598694	0.09167003631591797
51	259.5821268558502	pulse	0	t		49.0	2.5	/experiments/aot/S_yt-c-H45QS0CF4_147.mp4	0.0	361.08184266090393	
51	259.58990597724915	movie	1		301	49.0	2.5	/experiments/aot/S_yt-c-H45QS0CF4_147.mp4	0.0	361.08962178230286	2.508344888687134
51	261.1821258068085	pulse	1	t		49.0	2.5	/experiments/aot/S_yt-c-H45QS0CF4_147.mp4	0.0	362.6818416118622	
51	262.0982508659363	fix_post	2		72	49.0	2.5	/experiments/aot/S_yt-c-H45QS0CF4_147.mp4	0.0	363.59796667099	0.6008279323577881
52	262.69907879829407	fix_pre	0		11	50.0	2.5	/experiments/aot/S_nTA7B2uHaCQ_1.mp4	0.0	364.1987946033478	0.09164118766784668
52	262.7821319103241	pulse	0	t		50.0	2.5	/experiments/aot/S_nTA7B2uHaCQ_1.mp4	0.0	364.2818477153778	
52	262.7907199859619	movie	1		301	50.0	2.5	/experiments/aot/S_nTA7B2uHaCQ_1.mp4	0.0	364.2904357910156	2.5084099769592285
52	264.38214087486267	pulse	1	t		50.0	2.5	/experiments/aot/S_nTA7B2uHaCQ_1.mp4	0.0	365.8818566799164	
52	265.29912996292114	fix_post	2		72	50.0	2.5	/experiments/aot/S_nTA7B2uHaCQ_1.mp4	0.0	366.79884576797485	0.599113941192627
53	265.89824390411377	fix_pre	0		11	51.0	2.5	blank	1.0	367.3979597091675	0.09168195724487305
53	265.9821197986603	pulse	0	t		51.0	2.5	blank	1.0	367.481835603714	
53	265.98992586135864	movie	1		301	51.0	2.5	blank	1.0	367.48964166641235	2.5082669258117676
53	267.5821077823639	pulse	1	t		51.0	2.5	blank	1.0	369.0818235874176	
53	268.4981927871704	fix_post	2		72	51.0	2.5	blank	1.0	369.9979085922241	0.6000411510467529
54	269.09823393821716	fix_pre	0		11	52.0	2.5	/experiments/aot/S_ILSVRC2015_train_00411000.mp4	0.0	370.5979497432709	0.09252285957336426
54	269.1821038722992	pulse	0	t		52.0	2.5	/experiments/aot/S_ILSVRC2015_train_00411000.mp4	0.0	370.6818196773529	
54	269.1907567977905	movie	1		301	52.0	2.5	/experiments/aot/S_ILSVRC2015_train_00411000.mp4	0.0	370.69047260284424	2.5074450969696045
54	270.78203988075256	pulse	1	t		52.0	2.5	/experiments/aot/S_ILSVRC2015_train_00411000.mp4	0.0	372.2817556858063	
54	271.69820189476013	fix_post	2		72	52.0	2.5	/experiments/aot/S_ILSVRC2015_train_00411000.mp4	0.0	373.19791769981384	0.600909948348999
55	272.29911184310913	fix_pre	0		11	53.0	2.5	/experiments/aot/S_yt-ibDaDIEazxg_3.mp4	0.0	373.79882764816284	0.09070014953613281
55	272.3821017742157	pulse	0	t		53.0	2.5	/experiments/aot/S_yt-ibDaDIEazxg_3.mp4	0.0	373.8818175792694	
55	272.38981199264526	movie	1		301	53.0	2.5	/experiments/aot/S_yt-ibDaDIEazxg_3.mp4	0.0	373.889527797699	2.5083649158477783
55	273.98213386535645	pulse	1	t		53.0	2.5	/experiments/aot/S_yt-ibDaDIEazxg_3.mp4	0.0	375.48184967041016	
55	274.89817690849304	fix_post	2		72	53.0	2.5	/experiments/aot/S_yt-ibDaDIEazxg_3.mp4	0.0	376.39789271354675	0.6000039577484131
56	275.49818086624146	fix_pre	0		11	54.0	2.5	/experiments/aot/S_yt-K-iCphzt_RE_17.mp4	0.0	376.99789667129517	0.09165596961975098
56	275.58207988739014	pulse	0	t		54.0	2.5	/experiments/aot/S_yt-K-iCphzt_RE_17.mp4	0.0	377.08179569244385	
56	275.5898368358612	movie	1		301	54.0	2.5	/experiments/aot/S_yt-K-iCphzt_RE_17.mp4	0.0	377.0895526409149	2.50832200050354
56	277.1820089817047	pulse	1	t		54.0	2.5	/experiments/aot/S_yt-K-iCphzt_RE_17.mp4	0.0	378.6817247867584	
56	278.09815883636475	fix_post	2		72	54.0	2.5	/experiments/aot/S_yt-K-iCphzt_RE_17.mp4	0.0	379.59787464141846	0.6009311676025391
57	278.6990900039673	fix_pre	0		11	55.0	2.5	/experiments/aot/S_yt-Jro_TRE8NUQ_234.mp4	0.0	380.198805809021	0.09157896041870117
57	278.7820029258728	pulse	0	t		55.0	2.5	/experiments/aot/S_yt-Jro_TRE8NUQ_234.mp4	0.0	380.2817187309265	
57	278.790668964386	movie	1		301	55.0	2.5	/experiments/aot/S_yt-Jro_TRE8NUQ_234.mp4	0.0	380.2903847694397	2.5074310302734375
57	280.3820469379425	pulse	1	t		55.0	2.5	/experiments/aot/S_yt-Jro_TRE8NUQ_234.mp4	0.0	381.8817627429962	
57	281.2980999946594	fix_post	2		72	55.0	2.5	/experiments/aot/S_yt-Jro_TRE8NUQ_234.mp4	0.0	382.79781579971313	0.6009509563446045
58	281.899050951004	fix_pre	0		11	56.0	2.5	/experiments/aot/S_pexels-koolshooters-7327401_1.mp4	0.0	383.39876675605774	0.0907599925994873
58	281.98204588890076	pulse	0	t		56.0	2.5	/experiments/aot/S_pexels-koolshooters-7327401_1.mp4	0.0	383.48176169395447	
58	281.9898109436035	movie	1		161	56.0	2.5	/experiments/aot/S_pexels-koolshooters-7327401_1.mp4	0.0	383.4895267486572	2.509213924407959
58	283.5819549560547	pulse	1	t		56.0	2.5	/experiments/aot/S_pexels-koolshooters-7327401_1.mp4	0.0	385.0816707611084	
58	284.4990248680115	fix_post	2		72	56.0	2.5	/experiments/aot/S_pexels-koolshooters-7327401_1.mp4	0.0	385.9987406730652	0.5991361141204834
59	285.09816098213196	fix_pre	0		11	57.0	2.5	/experiments/aot/S_pexels-mikhail-nilov-8410084_1.mp4	0.0	386.59787678718567	0.09311890602111816
59	285.18205189704895	pulse	0	t		57.0	2.5	/experiments/aot/S_pexels-mikhail-nilov-8410084_1.mp4	0.0	386.68176770210266	
59	285.1912798881531	movie	1		162	57.0	2.5	/experiments/aot/S_pexels-mikhail-nilov-8410084_1.mp4	0.0	386.6909956932068	2.5068399906158447
59	286.7816228866577	pulse	1	t		57.0	2.5	/experiments/aot/S_pexels-mikhail-nilov-8410084_1.mp4	0.0	388.2813386917114	
59	287.6981198787689	fix_post	2		72	57.0	2.5	/experiments/aot/S_pexels-mikhail-nilov-8410084_1.mp4	0.0	389.19783568382263	0.5999751091003418
60	288.29809498786926	fix_pre	0		11	58.0	2.5	/experiments/aot/S_yt-n_eO-7KedAE_21.mp4	0.0	389.797810792923	0.09207582473754883
60	288.38200187683105	pulse	0	t		58.0	2.5	/experiments/aot/S_yt-n_eO-7KedAE_21.mp4	0.0	389.88171768188477	
60	288.3901708126068	movie	1		301	58.0	2.5	/experiments/aot/S_yt-n_eO-7KedAE_21.mp4	0.0	389.8898866176605	2.5087339878082275
60	289.98151183128357	pulse	1	t		58.0	2.5	/experiments/aot/S_yt-n_eO-7KedAE_21.mp4	0.0	391.4812276363373	
60	290.89890480041504	fix_post	2		72	58.0	2.5	/experiments/aot/S_yt-n_eO-7KedAE_21.mp4	0.0	392.39862060546875	0.5991551876068115
61	291.49805998802185	fix_pre	0		11	59.0	2.5	/experiments/aot/S_yt-AuQ_WxaNy4Y_255.mp4	0.0	392.99777579307556	0.09170389175415039
61	291.5815358161926	pulse	0	t		59.0	2.5	/experiments/aot/S_yt-AuQ_WxaNy4Y_255.mp4	0.0	393.08125162124634	
61	291.589763879776	movie	1		301	59.0	2.5	/experiments/aot/S_yt-AuQ_WxaNy4Y_255.mp4	0.0	393.0894796848297	2.508418083190918
61	293.18220591545105	pulse	1	t		59.0	2.5	/experiments/aot/S_yt-AuQ_WxaNy4Y_255.mp4	0.0	394.68192172050476	
61	294.0981819629669	fix_post	2		72	59.0	2.5	/experiments/aot/S_yt-AuQ_WxaNy4Y_255.mp4	0.0	395.59789776802063	0.6007208824157715
62	294.6989028453827	fix_pre	0		11	60.0	2.5	/experiments/aot/S_yt-NZIhxK5NvWE_152.mp4	0.0	396.1986186504364	0.09080314636230469
62	294.78195786476135	pulse	0	t		60.0	2.5	/experiments/aot/S_yt-NZIhxK5NvWE_152.mp4	0.0	396.28167366981506	
62	294.789705991745	movie	1		301	60.0	2.5	/experiments/aot/S_yt-NZIhxK5NvWE_152.mp4	0.0	396.2894217967987	2.5092129707336426
62	296.3819329738617	pulse	1	t		60.0	2.5	/experiments/aot/S_yt-NZIhxK5NvWE_152.mp4	0.0	397.8816487789154	
62	297.29891896247864	fix_post	2		72	60.0	2.5	/experiments/aot/S_yt-NZIhxK5NvWE_152.mp4	0.0	398.79863476753235	0.5990798473358154
63	297.89799880981445	fix_pre	0		11	61.0	2.5	/experiments/aot/S_pexels-tima-miroshnichenko-5717005.mp4	0.0	399.39771461486816	0.09258008003234863
63	297.98188185691833	pulse	0	t		61.0	2.5	/experiments/aot/S_pexels-tima-miroshnichenko-5717005.mp4	0.0	399.48159766197205	
63	297.9905788898468	movie	1		162	61.0	2.5	/experiments/aot/S_pexels-tima-miroshnichenko-5717005.mp4	0.0	399.4902946949005	2.5073978900909424
63	299.58128595352173	pulse	1	t		61.0	2.5	/experiments/aot/S_pexels-tima-miroshnichenko-5717005.mp4	0.0	401.08100175857544	
63	300.49797677993774	fix_post	2		72	61.0	2.5	/experiments/aot/S_pexels-tima-miroshnichenko-5717005.mp4	0.0	401.99769258499146	0.6009221076965332
64	301.0988988876343	fix_pre	0		11	62.0	2.5	blank	1.0	402.598614692688	0.09215688705444336
64	301.1818838119507	pulse	0	t		62.0	2.5	blank	1.0	402.6815996170044	
64	301.1910557746887	movie	1		301	62.0	2.5	blank	1.0	402.69077157974243	2.5070061683654785
64	302.78185987472534	pulse	1	t		62.0	2.5	blank	1.0	404.28157567977905	
64	303.6980619430542	fix_post	2		72	62.0	2.5	blank	1.0	405.1977777481079	0.6008050441741943
65	304.2988669872284	fix_pre	0		11	63.0	2.5	/experiments/aot/S_yt-OFnDCbW9Ebo_31.mp4	0.0	405.7985827922821	0.09175586700439453
65	304.3817949295044	pulse	0	t		63.0	2.5	/experiments/aot/S_yt-OFnDCbW9Ebo_31.mp4	0.0	405.8815107345581	
65	304.3906228542328	movie	1		301	63.0	2.5	/experiments/aot/S_yt-OFnDCbW9Ebo_31.mp4	0.0	405.8903386592865	2.507420063018799
65	305.98189783096313	pulse	1	t		63.0	2.5	/experiments/aot/S_yt-OFnDCbW9Ebo_31.mp4	0.0	407.48161363601685	
65	306.8980429172516	fix_post	2		72	63.0	2.5	/experiments/aot/S_yt-OFnDCbW9Ebo_31.mp4	0.0	408.3977587223053	0.5999000072479248
66	307.4979429244995	fix_pre	0		11	64.0	2.5	blank	1.0	408.9976587295532	0.09172701835632324
66	307.58194279670715	pulse	0	t		64.0	2.5	blank	1.0	409.08165860176086	
66	307.58966994285583	movie	1		301	64.0	2.5	blank	1.0	409.08938574790955	2.509212017059326
66	309.1818788051605	pulse	1	t		64.0	2.5	blank	1.0	410.68159461021423	
66	310.09888195991516	fix_post	2		72	64.0	2.5	blank	1.0	411.5985977649689	0.5990779399871826
67	310.69795989990234	fix_pre	0		11	65.0	2.5	/experiments/aot/S_yt-GWlwb2QsxIA_48.mp4	0.0	412.19767570495605	0.0916590690612793
67	310.7818958759308	pulse	0	t		65.0	2.5	/experiments/aot/S_yt-GWlwb2QsxIA_48.mp4	0.0	412.2816116809845	
67	310.7896189689636	movie	1		301	65.0	2.5	/experiments/aot/S_yt-GWlwb2QsxIA_48.mp4	0.0	412.28933477401733	2.508358955383301
67	312.38188099861145	pulse	1	t		65.0	2.5	/experiments/aot/S_yt-GWlwb2QsxIA_48.mp4	0.0	413.88159680366516	
67	313.2979779243469	fix_post	2		72	65.0	2.5	/experiments/aot/S_yt-GWlwb2QsxIA_48.mp4	0.0	414.79769372940063	0.6008050441741943
68	313.8987829685211	fix_pre	0		11	66.0	2.5	/experiments/aot/S_yt-zam74qlzGtQ_122.mp4	0.0	415.39849877357483	0.09086394309997559
68	313.98181986808777	pulse	0	t		66.0	2.5	/experiments/aot/S_yt-zam74qlzGtQ_122.mp4	0.0	415.4815356731415	
68	313.9896469116211	movie	1		301	66.0	2.5	/experiments/aot/S_yt-zam74qlzGtQ_122.mp4	0.0	415.4893627166748	2.509126901626587
68	315.5818557739258	pulse	1	t		66.0	2.5	/experiments/aot/S_yt-zam74qlzGtQ_122.mp4	0.0	417.0815715789795	
68	316.4987738132477	fix_post	2		72	66.0	2.5	/experiments/aot/S_yt-zam74qlzGtQ_122.mp4	0.0	417.9984896183014	0.5991380214691162
69	317.0979118347168	fix_pre	0		11	67.0	2.5	blank	1.0	418.5976276397705	0.09258008003234863
69	317.18177795410156	pulse	0	t		67.0	2.5	blank	1.0	418.6814937591553	
69	317.19049191474915	movie	1		301	67.0	2.5	blank	1.0	418.69020771980286	2.5074849128723145
69	318.7818248271942	pulse	1	t		67.0	2.5	blank	1.0	420.2815406322479	
69	319.69797682762146	fix_post	2		72	67.0	2.5	blank	1.0	421.19769263267517	0.6007950305938721
70	320.29877185821533	fix_pre	0		11	68.0	2.5	/experiments/aot/S_yt-158C6xUMi5Y_75.mp4	0.0	421.79848766326904	0.09166193008422852
70	320.3818259239197	pulse	0	t		68.0	2.5	/experiments/aot/S_yt-158C6xUMi5Y_75.mp4	0.0	421.8815417289734	
70	320.39043378829956	movie	1		301	68.0	2.5	/experiments/aot/S_yt-158C6xUMi5Y_75.mp4	0.0	421.89014959335327	2.507498025894165
70	321.9818329811096	pulse	1	t		68.0	2.5	/experiments/aot/S_yt-158C6xUMi5Y_75.mp4	0.0	423.48154878616333	
70	322.8979318141937	fix_post	2		72	68.0	2.5	/experiments/aot/S_yt-158C6xUMi5Y_75.mp4	0.0	424.39764761924744	0.599999189376831
71	323.49793100357056	fix_pre	0		11	69.0	2.5	/experiments/aot/S_production_ID_4325516.mp4	0.0	424.99764680862427	0.09163594245910645
71	323.58182287216187	pulse	0	t		69.0	2.5	/experiments/aot/S_production_ID_4325516.mp4	0.0	425.0815386772156	
71	323.58956694602966	movie	1		162	69.0	2.5	/experiments/aot/S_production_ID_4325516.mp4	0.0	425.0892827510834	2.5083279609680176
71	325.18109488487244	pulse	1	t		69.0	2.5	/experiments/aot/S_production_ID_4325516.mp4	0.0	426.68081068992615	
71	326.0978949069977	fix_post	2		72	69.0	2.5	/experiments/aot/S_production_ID_4325516.mp4	0.0	427.5976107120514	0.6000280380249023
72	326.6979229450226	fix_pre	0		11	70.0	2.5	/experiments/aot/S_yt-QTGIhecBZjc_19.mp4	0.0	428.1976387500763	0.09168601036071777
72	326.7818138599396	pulse	0	t		70.0	2.5	/experiments/aot/S_yt-QTGIhecBZjc_19.mp4	0.0	428.2815296649933	
72	326.7896089553833	movie	1		301	70.0	2.5	/experiments/aot/S_yt-QTGIhecBZjc_19.mp4	0.0	428.289324760437	2.5083138942718506
72	328.381844997406	pulse	1	t		70.0	2.5	/experiments/aot/S_yt-QTGIhecBZjc_19.mp4	0.0	429.8815608024597	
72	329.29792284965515	fix_post	2		72	70.0	2.5	/experiments/aot/S_yt-QTGIhecBZjc_19.mp4	0.0	430.79763865470886	0.6008780002593994
73	329.89880084991455	fix_pre	0		11	71.0	2.5	/experiments/aot/S_production_ID_5144823.mp4	0.0	431.39851665496826	0.09079504013061523
73	329.9817969799042	pulse	0	t		71.0	2.5	/experiments/aot/S_production_ID_5144823.mp4	0.0	431.4815127849579	
73	329.98959589004517	movie	1		162	71.0	2.5	/experiments/aot/S_production_ID_5144823.mp4	0.0	431.4893116950989	2.5082690715789795
73	331.58168292045593	pulse	1	t		71.0	2.5	/experiments/aot/S_production_ID_5144823.mp4	0.0	433.08139872550964	
73	332.49786496162415	fix_post	2		72	71.0	2.5	/experiments/aot/S_production_ID_5144823.mp4	0.0	433.99758076667786	0.6000080108642578
74	333.0978729724884	fix_pre	0		11	72.0	2.5	/experiments/aot/S_yt-y3tyx6cZjmA_412.mp4	0.0	434.5975887775421	0.09291791915893555
74	333.1817378997803	pulse	0	t		72.0	2.5	/experiments/aot/S_yt-y3tyx6cZjmA_412.mp4	0.0	434.681453704834	
74	333.19079089164734	movie	1		301	72.0	2.5	/experiments/aot/S_yt-y3tyx6cZjmA_412.mp4	0.0	434.69050669670105	2.5071170330047607
74	334.7819998264313	pulse	1	t		72.0	2.5	/experiments/aot/S_yt-y3tyx6cZjmA_412.mp4	0.0	436.281715631485	
74	335.6979079246521	fix_post	2		72	72.0	2.5	/experiments/aot/S_yt-y3tyx6cZjmA_412.mp4	0.0	437.1976237297058	0.599951982498169
75	336.29785990715027	fix_pre	0		11	73.0	2.5	/experiments/aot/S_ILSVRC2015_train_00219004.mp4	0.0	437.797575712204	0.09248089790344238
75	336.38170194625854	pulse	0	t		73.0	2.5	/experiments/aot/S_ILSVRC2015_train_00219004.mp4	0.0	437.88141775131226	
75	336.3903408050537	movie	1		301	73.0	2.5	/experiments/aot/S_ILSVRC2015_train_00219004.mp4	0.0	437.8900566101074	2.5074820518493652
75	337.981773853302	pulse	1	t		73.0	2.5	/experiments/aot/S_ILSVRC2015_train_00219004.mp4	0.0	439.4814896583557	
75	338.8978228569031	fix_post	2		72	73.0	2.5	/experiments/aot/S_ILSVRC2015_train_00219004.mp4	0.0	440.3975386619568	0.5999910831451416
76	339.4978139400482	fix_pre	0		11	74.0	2.5	/experiments/aot/S_yt-LB9LoYfH_EA_15.mp4	0.0	440.99752974510193	0.09171104431152344
76	339.5817129611969	pulse	0	t		74.0	2.5	/experiments/aot/S_yt-LB9LoYfH_EA_15.mp4	0.0	441.0814287662506	
76	339.58952498435974	movie	1		301	74.0	2.5	/experiments/aot/S_yt-LB9LoYfH_EA_15.mp4	0.0	441.08924078941345	2.5082290172576904
76	341.1816818714142	pulse	1	t		74.0	2.5	/experiments/aot/S_yt-LB9LoYfH_EA_15.mp4	0.0	442.6813976764679	
76	342.09775400161743	fix_post	2		72	74.0	2.5	/experiments/aot/S_yt-LB9LoYfH_EA_15.mp4	0.0	443.59746980667114	0.6009039878845215
77	342.69865798950195	fix_pre	0		11	75.0	2.5	/experiments/aot/S_yt-Fm97IY0Z2LU_110.mp4	0.0	444.19837379455566	0.09084296226501465
77	342.78169298171997	pulse	0	t		75.0	2.5	/experiments/aot/S_yt-Fm97IY0Z2LU_110.mp4	0.0	444.2814087867737	
77	342.78950095176697	movie	1		301	75.0	2.5	/experiments/aot/S_yt-Fm97IY0Z2LU_110.mp4	0.0	444.2892167568207	2.50834584236145
77	344.3818337917328	pulse	1	t		75.0	2.5	/experiments/aot/S_yt-Fm97IY0Z2LU_110.mp4	0.0	445.8815495967865	
77	345.2978467941284	fix_post	2		72	75.0	2.5	/experiments/aot/S_yt-Fm97IY0Z2LU_110.mp4	0.0	446.79756259918213	0.6008751392364502
78	345.89872193336487	fix_pre	0		11	76.0	2.5	/experiments/aot/S_yt-XA6RBioito4_18.mp4	0.0	447.3984377384186	0.09167194366455078
78	345.9817109107971	pulse	0	t		76.0	2.5	/experiments/aot/S_yt-XA6RBioito4_18.mp4	0.0	447.48142671585083	
78	345.9903938770294	movie	1		301	76.0	2.5	/experiments/aot/S_yt-XA6RBioito4_18.mp4	0.0	447.49010968208313	2.5076000690460205
78	347.5813457965851	pulse	1	t		76.0	2.5	/experiments/aot/S_yt-XA6RBioito4_18.mp4	0.0	449.0810616016388	
78	348.49799394607544	fix_post	2		72	76.0	2.5	/experiments/aot/S_yt-XA6RBioito4_18.mp4	0.0	449.99770975112915	0.600106954574585
79	349.09810090065	fix_pre	0		11	77.0	2.5	blank	1.0	450.59781670570374	0.09169697761535645
79	349.1819248199463	pulse	0	t		77.0	2.5	blank	1.0	450.681640625	
79	349.1897978782654	movie	1		301	77.0	2.5	blank	1.0	450.6895136833191	2.5079619884490967
79	350.78170800209045	pulse	1	t		77.0	2.5	blank	1.0	452.28142380714417	
79	351.6977598667145	fix_post	2		72	77.0	2.5	blank	1.0	453.1974756717682	0.599945068359375
80	352.29770493507385	fix_pre	0		11	78.0	2.5	/experiments/aot/S_ILSVRC2015_train_00697001.mp4	0.0	453.79742074012756	0.09205889701843262
80	352.3816969394684	pulse	0	t		78.0	2.5	/experiments/aot/S_ILSVRC2015_train_00697001.mp4	0.0	453.8814127445221	
80	352.3897638320923	movie	1		301	78.0	2.5	/experiments/aot/S_ILSVRC2015_train_00697001.mp4	0.0	453.889479637146	2.508010149002075
80	353.9816129207611	pulse	1	t		78.0	2.5	/experiments/aot/S_ILSVRC2015_train_00697001.mp4	0.0	455.4813287258148	
80	354.89777398109436	fix_post	2		72	78.0	2.5	/experiments/aot/S_ILSVRC2015_train_00697001.mp4	0.0	456.39748978614807	0.5999360084533691
81	355.49770998954773	fix_pre	0		11	79.0	2.5	/experiments/aot/S_yt-KVB49z48sZU_55.mp4	0.0	456.99742579460144	0.09168195724487305
81	355.5816237926483	pulse	0	t		79.0	2.5	/experiments/aot/S_yt-KVB49z48sZU_55.mp4	0.0	457.081339597702	
81	355.5893919467926	movie	1		301	79.0	2.5	/experiments/aot/S_yt-KVB49z48sZU_55.mp4	0.0	457.0891077518463	2.5083229541778564
81	357.18161487579346	pulse	1	t		79.0	2.5	/experiments/aot/S_yt-KVB49z48sZU_55.mp4	0.0	458.68133068084717	
81	358.09771490097046	fix_post	2		72	79.0	2.5	/experiments/aot/S_yt-KVB49z48sZU_55.mp4	0.0	459.59743070602417	0.6000189781188965
82	358.69773387908936	fix_pre	0		11	80.0	2.5	/experiments/aot/S_yt-qsyDLtXcyHc_8.mp4	0.0	460.19744968414307	0.0916891098022461
82	358.7815668582916	pulse	0	t		80.0	2.5	/experiments/aot/S_yt-qsyDLtXcyHc_8.mp4	0.0	460.28128266334534	
82	358.7894229888916	movie	1		301	80.0	2.5	/experiments/aot/S_yt-qsyDLtXcyHc_8.mp4	0.0	460.2891387939453	2.509255886077881
82	360.3816728591919	pulse	1	t		80.0	2.5	/experiments/aot/S_yt-qsyDLtXcyHc_8.mp4	0.0	461.8813886642456	
82	361.2986788749695	fix_post	2		72	80.0	2.5	/experiments/aot/S_yt-qsyDLtXcyHc_8.mp4	0.0	462.7983946800232	0.5990540981292725
83	361.89773297309875	fix_pre	0		11	81.0	2.5	/experiments/aot/S_yt-O6FS0xnF0CU_106.mp4	0.0	463.39744877815247	0.09163284301757812
83	361.981565952301	pulse	0	t		81.0	2.5	/experiments/aot/S_yt-O6FS0xnF0CU_106.mp4	0.0	463.48128175735474	
83	361.98936581611633	movie	1		301	81.0	2.5	/experiments/aot/S_yt-O6FS0xnF0CU_106.mp4	0.0	463.48908162117004	2.508371114730835
83	363.58164381980896	pulse	1	t		81.0	2.5	/experiments/aot/S_yt-O6FS0xnF0CU_106.mp4	0.0	465.08135962486267	
83	364.49773693084717	fix_post	2		72	81.0	2.5	/experiments/aot/S_yt-O6FS0xnF0CU_106.mp4	0.0	465.9974527359009	0.600942850112915
84	365.0986797809601	fix_pre	0		11	82.0	2.5	/experiments/aot/S_yt-TxU1H5A6BaQ_52.mp4	0.0	466.5983955860138	0.09073901176452637
84	365.1816408634186	pulse	0	t		82.0	2.5	/experiments/aot/S_yt-TxU1H5A6BaQ_52.mp4	0.0	466.6813566684723	
84	365.1894187927246	movie	1		301	82.0	2.5	/experiments/aot/S_yt-TxU1H5A6BaQ_52.mp4	0.0	466.6891345977783	2.508305072784424
84	366.7816369533539	pulse	1	t		82.0	2.5	/experiments/aot/S_yt-TxU1H5A6BaQ_52.mp4	0.0	468.2813527584076	
84	367.69772386550903	fix_post	2		72	82.0	2.5	/experiments/aot/S_yt-TxU1H5A6BaQ_52.mp4	0.0	469.19743967056274	0.6008350849151611
85	368.2985589504242	fix_pre	0		11	83.0	2.5	/experiments/aot/S_yt-xBwq6sHHF5M_21.mp4	0.0	469.7982747554779	0.0908658504486084
85	368.3815698623657	pulse	0	t		83.0	2.5	/experiments/aot/S_yt-xBwq6sHHF5M_21.mp4	0.0	469.88128566741943	
85	368.3894248008728	movie	1		301	83.0	2.5	/experiments/aot/S_yt-xBwq6sHHF5M_21.mp4	0.0	469.8891406059265	2.5082900524139404
85	369.98163390159607	pulse	1	t		83.0	2.5	/experiments/aot/S_yt-xBwq6sHHF5M_21.mp4	0.0	471.4813497066498	
85	370.89771485328674	fix_post	2		72	83.0	2.5	/experiments/aot/S_yt-xBwq6sHHF5M_21.mp4	0.0	472.39743065834045	0.6000280380249023
86	371.49774289131165	fix_pre	0		11	84.0	2.5	/experiments/aot/S_yt-KV8X9IBWuJk_48.mp4	0.0	472.99745869636536	0.09163808822631836
86	371.58160400390625	pulse	0	t		84.0	2.5	/experiments/aot/S_yt-KV8X9IBWuJk_48.mp4	0.0	473.08131980895996	
86	371.58938097953796	movie	1		301	84.0	2.5	/experiments/aot/S_yt-KV8X9IBWuJk_48.mp4	0.0	473.0890967845917	2.5083730220794678
86	373.1816129684448	pulse	1	t		84.0	2.5	/experiments/aot/S_yt-KV8X9IBWuJk_48.mp4	0.0	474.68132877349854	
86	374.09775400161743	fix_post	2		72	84.0	2.5	/experiments/aot/S_yt-KV8X9IBWuJk_48.mp4	0.0	475.59746980667114	0.6008279323577881
87	374.6985819339752	fix_pre	0		11	85.0	2.5	blank	1.0	476.19829773902893	0.09164595603942871
87	374.78159189224243	pulse	0	t		85.0	2.5	blank	1.0	476.28130769729614	
87	374.79022789001465	movie	1		301	85.0	2.5	blank	1.0	476.28994369506836	2.5074820518493652
87	376.3815357685089	pulse	1	t		85.0	2.5	blank	1.0	477.8812515735626	
87	377.297709941864	fix_post	2		72	85.0	2.5	blank	1.0	478.7974257469177	0.5999360084533691
88	377.8976459503174	fix_pre	0		11	86.0	2.5	/experiments/aot/S_pexels-kelly-lacy-6756531.mp4	0.0	479.3973617553711	0.09167194366455078
88	377.9815399646759	pulse	0	t		86.0	2.5	/experiments/aot/S_pexels-kelly-lacy-6756531.mp4	0.0	479.4812557697296	
88	377.98931789398193	movie	1		164	86.0	2.5	/experiments/aot/S_pexels-kelly-lacy-6756531.mp4	0.0	479.48903369903564	2.508368968963623
88	379.581426858902	pulse	1	t		86.0	2.5	/experiments/aot/S_pexels-kelly-lacy-6756531.mp4	0.0	481.0811426639557	
88	380.49768686294556	fix_post	2		72	86.0	2.5	/experiments/aot/S_pexels-kelly-lacy-6756531.mp4	0.0	481.99740266799927	0.5999729633331299
89	381.0976598262787	fix_pre	0		11	87.0	2.5	/experiments/aot/S_yt-1sn8u-rQRas_7.mp4	0.0	482.5973756313324	0.09170317649841309
89	381.18146896362305	pulse	0	t		87.0	2.5	/experiments/aot/S_yt-1sn8u-rQRas_7.mp4	0.0	482.68118476867676	
89	381.1893630027771	movie	1		301	87.0	2.5	/experiments/aot/S_yt-1sn8u-rQRas_7.mp4	0.0	482.6890788078308	2.5082907676696777
89	382.7815568447113	pulse	1	t		87.0	2.5	/experiments/aot/S_yt-1sn8u-rQRas_7.mp4	0.0	484.281272649765	
89	383.6976537704468	fix_post	2		72	87.0	2.5	/experiments/aot/S_yt-1sn8u-rQRas_7.mp4	0.0	485.1973695755005	0.5999932289123535
90	384.29764699935913	fix_pre	0		11	88.0	2.5	/experiments/aot/S_ILSVRC2015_train_00423000.mp4	0.0	485.79736280441284	0.09257888793945312
90	384.38155698776245	pulse	0	t		88.0	2.5	/experiments/aot/S_ILSVRC2015_train_00423000.mp4	0.0	485.88127279281616	
90	384.3902258872986	movie	1		301	88.0	2.5	/experiments/aot/S_ILSVRC2015_train_00423000.mp4	0.0	485.8899416923523	2.508239984512329
90	385.9815227985382	pulse	1	t		88.0	2.5	/experiments/aot/S_ILSVRC2015_train_00423000.mp4	0.0	487.4812386035919	
90	386.8984658718109	fix_post	2		72	88.0	2.5	/experiments/aot/S_ILSVRC2015_train_00423000.mp4	0.0	488.3981816768646	0.6001720428466797
91	387.4986379146576	fix_pre	0		11	89.0	2.5	/experiments/aot/S_yt-Wr5vs_0Iypw_161.mp4	0.0	488.9983537197113	0.0920870304107666
91	387.5814759731293	pulse	0	t		89.0	2.5	/experiments/aot/S_yt-Wr5vs_0Iypw_161.mp4	0.0	489.081191778183	
91	387.59072494506836	movie	1		301	89.0	2.5	/experiments/aot/S_yt-Wr5vs_0Iypw_161.mp4	0.0	489.09044075012207	2.507774829864502
91	389.18151688575745	pulse	1	t		89.0	2.5	/experiments/aot/S_yt-Wr5vs_0Iypw_161.mp4	0.0	490.68123269081116	
91	390.09849977493286	fix_post	2		72	89.0	2.5	/experiments/aot/S_yt-Wr5vs_0Iypw_161.mp4	0.0	491.5982155799866	0.5999760627746582
92	390.6984758377075	fix_pre	0		11	90.0	2.5	blank	1.0	492.19819164276123	0.09083008766174316
92	390.7815098762512	pulse	0	t		90.0	2.5	blank	1.0	492.28122568130493	
92	390.78930592536926	movie	1		301	90.0	2.5	blank	1.0	492.289021730423	2.50923490524292
92	392.38150000572205	pulse	1	t		90.0	2.5	blank	1.0	493.88121581077576	
92	393.2985408306122	fix_post	2		72	90.0	2.5	blank	1.0	494.7982566356659	0.5999560356140137
93	393.8984968662262	fix_pre	0		11	91.0	2.5	/experiments/aot/S_yt-iO0efV_PV-k_102.mp4	0.0	495.3982126712799	0.0916290283203125
93	393.9815127849579	pulse	0	t		91.0	2.5	/experiments/aot/S_yt-iO0efV_PV-k_102.mp4	0.0	495.4812285900116	
93	393.9901258945465	movie	1		301	91.0	2.5	/experiments/aot/S_yt-iO0efV_PV-k_102.mp4	0.0	495.4898416996002	2.5085439682006836
93	395.581503868103	pulse	1	t		91.0	2.5	/experiments/aot/S_yt-iO0efV_PV-k_102.mp4	0.0	497.08121967315674	
93	396.4986698627472	fix_post	2		72	91.0	2.5	/experiments/aot/S_yt-iO0efV_PV-k_102.mp4	0.0	497.9983856678009	0.599884033203125
94	397.0985538959503	fix_pre	0		11	92.0	2.5	/experiments/aot/S_ILSVRC2015_train_00067005.mp4	0.0	498.598269701004	0.09075307846069336
94	397.1814908981323	pulse	0	t		92.0	2.5	/experiments/aot/S_ILSVRC2015_train_00067005.mp4	0.0	498.68120670318604	
94	397.189306974411	movie	1		301	92.0	2.5	/experiments/aot/S_ILSVRC2015_train_00067005.mp4	0.0	498.6890227794647	2.508270025253296
94	398.78154492378235	pulse	1	t		92.0	2.5	/experiments/aot/S_ILSVRC2015_train_00067005.mp4	0.0	500.28126072883606	
94	399.6975769996643	fix_post	2		72	92.0	2.5	/experiments/aot/S_ILSVRC2015_train_00067005.mp4	0.0	501.197292804718	0.6000277996063232
95	400.29760479927063	fix_pre	0		11	93.0	2.5	/experiments/aot/S_yt-bwSRV1Vr21s_435.mp4	0.0	501.79732060432434	0.09159517288208008
95	400.38149881362915	pulse	0	t		93.0	2.5	/experiments/aot/S_yt-bwSRV1Vr21s_435.mp4	0.0	501.88121461868286	
95	400.3891999721527	movie	1		301	93.0	2.5	/experiments/aot/S_yt-bwSRV1Vr21s_435.mp4	0.0	501.8889157772064	2.508380889892578
95	401.98103380203247	pulse	1	t		93.0	2.5	/experiments/aot/S_yt-bwSRV1Vr21s_435.mp4	0.0	503.4807496070862	
95	402.8975808620453	fix_post	2		72	93.0	2.5	/experiments/aot/S_yt-bwSRV1Vr21s_435.mp4	0.0	504.397296667099	0.6000280380249023
96	403.4976089000702	fix_pre	0		11	94.0	2.5	/experiments/aot/S_production_ID_3967181.mp4	0.0	504.9973247051239	0.09164595603942871
96	403.58105993270874	pulse	0	t		94.0	2.5	/experiments/aot/S_production_ID_3967181.mp4	0.0	505.08077573776245	
96	403.5892548561096	movie	1		168	94.0	2.5	/experiments/aot/S_production_ID_3967181.mp4	0.0	505.08897066116333	2.509303092956543
96	405.1807608604431	pulse	1	t		94.0	2.5	/experiments/aot/S_production_ID_3967181.mp4	0.0	506.6804766654968	
96	406.09855794906616	fix_post	2		72	94.0	2.5	/experiments/aot/S_production_ID_3967181.mp4	0.0	507.5982737541199	0.5998950004577637
97	406.6984529495239	fix_pre	0		11	95.0	2.5	/experiments/aot/S_yt-HwEfWfFJhRo_73.mp4	0.0	508.19816875457764	0.0907738208770752
97	406.7814347743988	pulse	0	t		95.0	2.5	/experiments/aot/S_yt-HwEfWfFJhRo_73.mp4	0.0	508.2811505794525	
97	406.789226770401	movie	1		301	95.0	2.5	/experiments/aot/S_yt-HwEfWfFJhRo_73.mp4	0.0	508.2889425754547	2.50846004486084
97	408.3814477920532	pulse	1	t		95.0	2.5	/experiments/aot/S_yt-HwEfWfFJhRo_73.mp4	0.0	509.88116359710693	
97	409.29768681526184	fix_post	2		72	95.0	2.5	/experiments/aot/S_yt-HwEfWfFJhRo_73.mp4	0.0	510.79740262031555	0.599884033203125
98	409.89757084846497	fix_pre	0		11	96.0	2.5	/experiments/aot/S_2RTDFkjD6vI_93.mp4	0.0	511.3972866535187	0.09255194664001465
98	409.9813508987427	pulse	0	t		96.0	2.5	/experiments/aot/S_2RTDFkjD6vI_93.mp4	0.0	511.4810667037964	
98	409.990122795105	movie	1		301	96.0	2.5	/experiments/aot/S_2RTDFkjD6vI_93.mp4	0.0	511.4898386001587	2.507402181625366
98	411.58143496513367	pulse	1	t		96.0	2.5	/experiments/aot/S_2RTDFkjD6vI_93.mp4	0.0	513.0811507701874	
98	412.49752497673035	fix_post	2		72	96.0	2.5	/experiments/aot/S_2RTDFkjD6vI_93.mp4	0.0	513.9972407817841	0.6000180244445801
99	413.0975430011749	fix_pre	0		11	97.0	2.5	/experiments/aot/S_yt-PCSXJ5YB_AE_3.mp4	0.0	514.5972588062286	0.09163594245910645
99	413.1813988685608	pulse	0	t		97.0	2.5	/experiments/aot/S_yt-PCSXJ5YB_AE_3.mp4	0.0	514.6811146736145	
99	413.18917894363403	movie	1		301	97.0	2.5	/experiments/aot/S_yt-PCSXJ5YB_AE_3.mp4	0.0	514.6888947486877	2.508331060409546
99	414.78145384788513	pulse	1	t		97.0	2.5	/experiments/aot/S_yt-PCSXJ5YB_AE_3.mp4	0.0	516.2811696529388	
99	415.6975100040436	fix_post	2		72	97.0	2.5	/experiments/aot/S_yt-PCSXJ5YB_AE_3.mp4	0.0	517.1972258090973	0.5999729633331299
100	416.2974829673767	fix_pre	0		11	98.0	2.5	/experiments/aot/S_bing-vimeo_com_161378598_22.mp4	0.0	517.7971987724304	0.09167790412902832
100	416.3814389705658	pulse	0	t		98.0	2.5	/experiments/aot/S_bing-vimeo_com_161378598_22.mp4	0.0	517.8811547756195	
100	416.38916087150574	movie	1		163	98.0	2.5	/experiments/aot/S_bing-vimeo_com_161378598_22.mp4	0.0	517.8888766765594	2.5082919597625732
100	417.9811248779297	pulse	1	t		98.0	2.5	/experiments/aot/S_bing-vimeo_com_161378598_22.mp4	0.0	519.4808406829834	
100	418.8974528312683	fix_post	2		72	98.0	2.5	/experiments/aot/S_bing-vimeo_com_161378598_22.mp4	0.0	520.397168636322	0.6000120639801025
101	419.4974648952484	fix_pre	0		11	99.0	2.5	blank	1.0	520.9971807003021	0.09269905090332031
101	419.58135080337524	pulse	0	t		99.0	2.5	blank	1.0	521.081066608429	
101	419.59016394615173	movie	1		301	99.0	2.5	blank	1.0	521.0898797512054	2.507297992706299
101	421.1813678741455	pulse	1	t		99.0	2.5	blank	1.0	522.6810836791992	
101	422.09746193885803	fix_post	2		72	99.0	2.5	blank	1.0	523.5971777439117	0.6000268459320068
102	422.69748878479004	fix_pre	0		11	100.0	2.5	/experiments/aot/S_yt-RO4mhuXBVrY_67.mp4	0.0	524.1972045898438	0.09164309501647949
102	422.78134083747864	pulse	0	t		100.0	2.5	/experiments/aot/S_yt-RO4mhuXBVrY_67.mp4	0.0	524.2810566425323	
102	422.7891318798065	movie	1		301	100.0	2.5	/experiments/aot/S_yt-RO4mhuXBVrY_67.mp4	0.0	524.2888476848602	2.5083110332489014
102	424.3812839984894	pulse	1	t		100.0	2.5	/experiments/aot/S_yt-RO4mhuXBVrY_67.mp4	0.0	525.8809998035431	
102	425.2974429130554	fix_post	2		72	100.0	2.5	/experiments/aot/S_yt-RO4mhuXBVrY_67.mp4	0.0	526.7971587181091	0.6008179187774658
103	425.8982608318329	fix_pre	0		11	101.0	2.5	/experiments/aot/S_yt-JTuopUgmg1w_101.mp4	0.0	527.3979766368866	0.09076905250549316
103	425.981351852417	pulse	0	t		101.0	2.5	/experiments/aot/S_yt-JTuopUgmg1w_101.mp4	0.0	527.4810676574707	
103	425.9890298843384	movie	1		301	101.0	2.5	/experiments/aot/S_yt-JTuopUgmg1w_101.mp4	0.0	527.4887456893921	2.5083250999450684
103	427.58126997947693	pulse	1	t		101.0	2.5	/experiments/aot/S_yt-JTuopUgmg1w_101.mp4	0.0	529.0809857845306	
103	428.49735498428345	fix_post	2		72	101.0	2.5	/experiments/aot/S_yt-JTuopUgmg1w_101.mp4	0.0	529.9970707893372	0.6000208854675293
104	429.097375869751	fix_pre	0		11	102.0	2.5	/experiments/aot/S_production_ID_4802710.mp4	0.0	530.5970916748047	0.09170794486999512
104	429.1812918186188	pulse	0	t		102.0	2.5	/experiments/aot/S_production_ID_4802710.mp4	0.0	530.6810076236725	
104	429.189083814621	movie	1		163	102.0	2.5	/experiments/aot/S_production_ID_4802710.mp4	0.0	530.6887996196747	2.5083529949188232
104	430.78100180625916	pulse	1	t		102.0	2.5	/experiments/aot/S_production_ID_4802710.mp4	0.0	532.2807176113129	
104	431.6974368095398	fix_post	2		72	102.0	2.5	/experiments/aot/S_production_ID_4802710.mp4	0.0	533.1971526145935	0.6000821590423584
105	432.29751896858215	fix_pre	0		11	103.0	2.5	/experiments/aot/S_video-10.mp4	0.0	533.7972347736359	0.09149980545043945
105	432.3812608718872	pulse	0	t		103.0	2.5	/experiments/aot/S_video-10.mp4	0.0	533.8809766769409	
105	432.3890187740326	movie	1		161	103.0	2.5	/experiments/aot/S_video-10.mp4	0.0	533.8887345790863	2.50834321975708
105	433.98135781288147	pulse	1	t		103.0	2.5	/experiments/aot/S_video-10.mp4	0.0	535.4810736179352	
105	434.8973619937897	fix_post	2		72	103.0	2.5	/experiments/aot/S_video-10.mp4	0.0	536.3970777988434	0.6000349521636963
106	435.49739694595337	fix_pre	0		11	104.0	2.5	/experiments/aot/S_production_ID_3712945.mp4	0.0	536.9971127510071	0.0922398567199707
106	435.5812478065491	pulse	0	t		104.0	2.5	/experiments/aot/S_production_ID_3712945.mp4	0.0	537.0809636116028	
106	435.58963680267334	movie	1		161	104.0	2.5	/experiments/aot/S_production_ID_3712945.mp4	0.0	537.089352607727	2.507728099822998
106	437.18069100379944	pulse	1	t		104.0	2.5	/experiments/aot/S_production_ID_3712945.mp4	0.0	538.6804068088531	
106	438.09736490249634	fix_post	2		72	104.0	2.5	/experiments/aot/S_production_ID_3712945.mp4	0.0	539.59708070755	0.6000208854675293
108	438.69738578796387	stim	0		1716					540.1971015930176	14.300350189208984
108	438.78123593330383	pulse	0	t						540.2809517383575	
108	440.38127088546753	pulse	0	t						541.8809866905212	
108	441.9811248779297	pulse	0	t						543.4808406829834	
108	443.581209897995	pulse	0	t						545.0809257030487	
108	445.1812469959259	pulse	0	t						546.6809628009796	
108	446.7812659740448	pulse	0	t						548.2809817790985	
108	448.38114976882935	pulse	0	t						549.880865573883	
108	449.981232881546	pulse	0	t						551.4809486865997	
108	451.5812258720398	pulse	0	t						553.0809416770935	
