trial_nr	onset	event_type	phase	response	nr_frames	picture_index	picture_file	onset_abs	duration
0	0.15825796127319336	stim	0		893			80.91363406181335	7.459791898727417
0	7.599629878997803	response	0	space				88.35500597953796	
2	7.61804986000061	picture	0		350	0.0	/experiments/knapen_aot/AOT/AOT_stimuli/pictures/0237_fw.png	88.37342596054077	2.916630983352661
2	10.517879962921143	response	0	j		0.0	/experiments/knapen_aot/AOT/AOT_stimuli/pictures/0237_fw.png	91.2732560634613	
3	10.534680843353271	picture	0		213	1.0	/experiments/knapen_aot/AOT/AOT_stimuli/pictures/0108_fw.png	91.29005694389343	1.7815711498260498
3	12.293272972106934	response	0	k		1.0	/experiments/knapen_aot/AOT/AOT_stimuli/pictures/0108_fw.png	93.0486490726471	
4	12.316251993179321	picture	0		354	2.0	/experiments/knapen_aot/AOT/AOT_stimuli/pictures/0700_fw.png	93.07162809371948	2.958245038986206
4	15.257997035980225	response	0	k		2.0	/experiments/knapen_aot/AOT/AOT_stimuli/pictures/0700_fw.png	96.01337313652039	
5	15.274497032165527	picture	0		141	3.0	/experiments/knapen_aot/AOT/AOT_stimuli/pictures/0162_fw.png	96.02987313270569	1.1767659187316895
5	16.441290855407715	response	0	k		3.0	/experiments/knapen_aot/AOT/AOT_stimuli/pictures/0162_fw.png	97.19666695594788	
6	16.451262950897217	picture	0		107	4.0	/experiments/knapen_aot/AOT/AOT_stimuli/pictures/2130_fw.png	97.20663905143738	0.8958799839019775
6	17.333394050598145	response	0	j		4.0	/experiments/knapen_aot/AOT/AOT_stimuli/pictures/2130_fw.png	98.0887701511383	
7	17.347142934799194	picture	0		136	5.0	/experiments/knapen_aot/AOT/AOT_stimuli/pictures/1961_fw.png	98.10251903533936	1.138819932937622
7	18.474632024765015	response	0	k		5.0	/experiments/knapen_aot/AOT/AOT_stimuli/pictures/1961_fw.png	99.23000812530518	
8	18.485962867736816	picture	0		316	6.0	/experiments/knapen_aot/AOT/AOT_stimuli/pictures/1166_fw.png	99.24133896827698	2.6320111751556396
8	21.101163864135742	response	0	k		6.0	/experiments/knapen_aot/AOT/AOT_stimuli/pictures/1166_fw.png	101.8565399646759	
9	21.117974042892456	picture	0		120	7.0	/experiments/knapen_aot/AOT/AOT_stimuli/pictures/0147_fw.png	101.87335014343262	0.9998948574066162
9	22.101173877716064	response	0	k		7.0	/experiments/knapen_aot/AOT/AOT_stimuli/pictures/0147_fw.png	102.85654997825623	
10	22.117868900299072	picture	0		94	8.0	/experiments/knapen_aot/AOT/AOT_stimuli/pictures/0346_fw.png	102.87324500083923	0.7847449779510498
10	22.891221046447754	response	0	j		8.0	/experiments/knapen_aot/AOT/AOT_stimuli/pictures/0346_fw.png	103.64659714698792	
11	22.902613878250122	picture	0		102	9.0	/experiments/knapen_aot/AOT/AOT_stimuli/pictures/1120_fw.png	103.65798997879028	0.8471870422363281
11	23.741248846054077	response	0	j		9.0	/experiments/knapen_aot/AOT/AOT_stimuli/pictures/1120_fw.png	104.49662494659424	
12	23.74980092048645	picture	0		385	10.0	/experiments/knapen_aot/AOT/AOT_stimuli/pictures/2112_fw.png	104.50517702102661	3.216315984725952
12	26.949594020843506	response	0	k		10.0	/experiments/knapen_aot/AOT/AOT_stimuli/pictures/2112_fw.png	107.70497012138367	
13	26.966116905212402	picture	0		114	11.0	/experiments/knapen_aot/AOT/AOT_stimuli/pictures/1556_fw.png	107.72149300575256	0.9503819942474365
13	27.90794086456299	response	0	j		11.0	/experiments/knapen_aot/AOT/AOT_stimuli/pictures/1556_fw.png	108.66331696510315	
14	27.91649889945984	picture	0		105	12.0	/experiments/knapen_aot/AOT/AOT_stimuli/pictures/0899_fw.png	108.671875	0.8749721050262451
14	28.78286385536194	response	0	k		12.0	/experiments/knapen_aot/AOT/AOT_stimuli/pictures/0899_fw.png	109.5382399559021	
15	28.791471004486084	picture	0		103	13.0	/experiments/knapen_aot/AOT/AOT_stimuli/pictures/0714_fw.png	109.54684710502625	0.8680968284606934
15	29.64124083518982	response	0	k		13.0	/experiments/knapen_aot/AOT/AOT_stimuli/pictures/0714_fw.png	110.39661693572998	
16	29.659567832946777	picture	0		232	14.0	/experiments/knapen_aot/AOT/AOT_stimuli/pictures/1899_fw.png	110.41494393348694	1.937394142150879
16	31.583271026611328	response	0	j		14.0	/experiments/knapen_aot/AOT/AOT_stimuli/pictures/1899_fw.png	112.33864712715149	
17	31.596961975097656	picture	0		189	15.0	/experiments/knapen_aot/AOT/AOT_stimuli/pictures/1947_fw.png	112.35233807563782	1.5834698677062988
17	33.166589975357056	response	0	k		15.0	/experiments/knapen_aot/AOT/AOT_stimuli/pictures/1947_fw.png	113.92196607589722	
18	33.180431842803955	picture	0		102	16.0	/experiments/knapen_aot/AOT/AOT_stimuli/pictures/0202_fw.png	113.93580794334412	0.8540031909942627
18	34.024550914764404	response	0	k		16.0	/experiments/knapen_aot/AOT/AOT_stimuli/pictures/0202_fw.png	114.77992701530457	
19	34.03443503379822	picture	0		109	17.0	/experiments/knapen_aot/AOT/AOT_stimuli/pictures/0264_fw.png	114.78981113433838	0.9097278118133545
19	34.92609786987305	response	0	k		17.0	/experiments/knapen_aot/AOT/AOT_stimuli/pictures/0264_fw.png	115.68147397041321	
20	34.94416284561157	picture	0		192	18.0	/experiments/knapen_aot/AOT/AOT_stimuli/pictures/0470_fw.png	115.69953894615173	1.5971710681915283
20	36.526094913482666	response	0	k		18.0	/experiments/knapen_aot/AOT/AOT_stimuli/pictures/0470_fw.png	117.28147101402283	
21	36.5413339138031	picture	0		153	19.0	/experiments/knapen_aot/AOT/AOT_stimuli/pictures/0710_fw.png	117.29671001434326	1.2777810096740723
21	37.80782604217529	response	0	k		19.0	/experiments/knapen_aot/AOT/AOT_stimuli/pictures/0710_fw.png	118.56320214271545	
22	37.81911492347717	picture	0		114	20.0	/experiments/knapen_aot/AOT/AOT_stimuli/pictures/1034_fw.png	118.57449102401733	0.9553220272064209
22	38.757858991622925	response	0	j		20.0	/experiments/knapen_aot/AOT/AOT_stimuli/pictures/1034_fw.png	119.51323509216309	
23	38.774436950683594	picture	0		128	21.0	/experiments/knapen_aot/AOT/AOT_stimuli/pictures/1743_fw.png	119.52981305122375	1.0725059509277344
23	39.8330819606781	response	0	k		21.0	/experiments/knapen_aot/AOT/AOT_stimuli/pictures/1743_fw.png	120.58845806121826	
24	39.84694290161133	picture	0		84	22.0	/experiments/knapen_aot/AOT/AOT_stimuli/pictures/2135_fw.png	120.60231900215149	0.7082850933074951
24	40.5343759059906	response	0	j		22.0	/experiments/knapen_aot/AOT/AOT_stimuli/pictures/2135_fw.png	121.28975200653076	
25	40.55522799491882	picture	0		112	23.0	/experiments/knapen_aot/AOT/AOT_stimuli/pictures/1801_fw.png	121.31060409545898	0.937445878982544
25	41.482866048812866	response	0	j		23.0	/experiments/knapen_aot/AOT/AOT_stimuli/pictures/1801_fw.png	122.23824214935303	
26	41.49267387390137	picture	0		129	24.0	/experiments/knapen_aot/AOT/AOT_stimuli/pictures/1159_fw.png	122.24804997444153	1.0763659477233887
26	42.557822942733765	response	0	j		24.0	/experiments/knapen_aot/AOT/AOT_stimuli/pictures/1159_fw.png	123.31319904327393	
27	42.569039821624756	picture	0		101	25.0	/experiments/knapen_aot/AOT/AOT_stimuli/pictures/0165_fw.png	123.32441592216492	0.8403220176696777
27	43.39951491355896	response	0	k		25.0	/experiments/knapen_aot/AOT/AOT_stimuli/pictures/0165_fw.png	124.15489101409912	
28	43.409361839294434	picture	0		126	26.0	/experiments/knapen_aot/AOT/AOT_stimuli/pictures/0765_fw.png	124.1647379398346	1.0485460758209229
28	44.449498891830444	response	0	k		26.0	/experiments/knapen_aot/AOT/AOT_stimuli/pictures/0765_fw.png	125.2048749923706	
29	44.457907915115356	picture	0		179	27.0	/experiments/knapen_aot/AOT/AOT_stimuli/pictures/0298_fw.png	125.21328401565552	1.4930930137634277
29	45.93437385559082	response	0	k		27.0	/experiments/knapen_aot/AOT/AOT_stimuli/pictures/0298_fw.png	126.68974995613098	
30	45.951000928878784	picture	0		112	28.0	/experiments/knapen_aot/AOT/AOT_stimuli/pictures/1195_fw.png	126.70637702941895	0.9375081062316895
30	46.874716997146606	response	0	k		28.0	/experiments/knapen_aot/AOT/AOT_stimuli/pictures/1195_fw.png	127.63009309768677	
31	46.888509035110474	picture	0		117	29.0	/experiments/knapen_aot/AOT/AOT_stimuli/pictures/1928_fw.png	127.64388513565063	0.9791347980499268
31	47.85781002044678	response	0	j		29.0	/experiments/knapen_aot/AOT/AOT_stimuli/pictures/1928_fw.png	128.61318612098694	
32	47.8676438331604	picture	0		143	30.0	/experiments/knapen_aot/AOT/AOT_stimuli/pictures/0588_fw.png	128.62301993370056	1.1943950653076172
32	49.04967999458313	response	0	j		30.0	/experiments/knapen_aot/AOT/AOT_stimuli/pictures/0588_fw.png	129.8050560951233	
33	49.06203889846802	picture	0		281	31.0	/experiments/knapen_aot/AOT/AOT_stimuli/pictures/1781_fw.png	129.81741499900818	2.3402459621429443
33	51.391180992126465	response	0	k		31.0	/experiments/knapen_aot/AOT/AOT_stimuli/pictures/1781_fw.png	132.14655709266663	
34	51.40228486061096	picture	0		131	32.0	/experiments/knapen_aot/AOT/AOT_stimuli/pictures/1955_fw.png	132.15766096115112	1.0903501510620117
34	52.48276996612549	response	0	j		32.0	/experiments/knapen_aot/AOT/AOT_stimuli/pictures/1955_fw.png	133.23814606666565	
35	52.492635011672974	picture	0		191	33.0	/experiments/knapen_aot/AOT/AOT_stimuli/pictures/2110_fw.png	133.24801111221313	1.6180000305175781
35	54.07447600364685	response	0	k		33.0	/experiments/knapen_aot/AOT/AOT_stimuli/pictures/2110_fw.png	134.829852104187	
36	54.11063504219055	picture	0		175	34.0	/experiments/knapen_aot/AOT/AOT_stimuli/pictures/0568_fw.png	134.8660111427307	1.4583988189697266
36	55.55107593536377	response	0	k		34.0	/experiments/knapen_aot/AOT/AOT_stimuli/pictures/0568_fw.png	136.30645203590393	
37	55.56903386116028	picture	0		126	35.0	/experiments/knapen_aot/AOT/AOT_stimuli/pictures/1624_fw.png	136.32440996170044	1.0485219955444336
37	56.60778093338013	response	0	k		35.0	/experiments/knapen_aot/AOT/AOT_stimuli/pictures/1624_fw.png	137.3631570339203	
38	56.61755585670471	picture	0		127	36.0	/experiments/knapen_aot/AOT/AOT_stimuli/pictures/0773_fw.png	137.37293195724487	1.065119981765747
38	57.66618585586548	response	0	k		36.0	/experiments/knapen_aot/AOT/AOT_stimuli/pictures/0773_fw.png	138.42156195640564	
39	57.68267583847046	picture	0		212	37.0	/experiments/knapen_aot/AOT/AOT_stimuli/pictures/0919_fw.png	138.43805193901062	1.7752351760864258
39	59.44110584259033	response	0	k		37.0	/experiments/knapen_aot/AOT/AOT_stimuli/pictures/0919_fw.png	140.1964819431305	
40	59.457911014556885	picture	0		255	38.0	/experiments/knapen_aot/AOT/AOT_stimuli/pictures/0112_fw.png	140.21328711509705	2.1249258518218994
40	61.57444095611572	response	0	j		38.0	/experiments/knapen_aot/AOT/AOT_stimuli/pictures/0112_fw.png	142.32981705665588	
41	61.582836866378784	picture	0		108	39.0	/experiments/knapen_aot/AOT/AOT_stimuli/pictures/0645_fw.png	142.33821296691895	0.9026920795440674
41	62.474416971206665	response	0	j		39.0	/experiments/knapen_aot/AOT/AOT_stimuli/pictures/0645_fw.png	143.22979307174683	
42	62.48552894592285	picture	0		128	40.0	/experiments/knapen_aot/AOT/AOT_stimuli/pictures/1998_fw.png	143.240905046463	1.069606065750122
42	63.53428387641907	response	0	k		40.0	/experiments/knapen_aot/AOT/AOT_stimuli/pictures/1998_fw.png	144.28965997695923	
43	63.555135011672974	picture	0		98	41.0	/experiments/knapen_aot/AOT/AOT_stimuli/pictures/1609_fw.png	144.31051111221313	0.8274939060211182
43	64.36606001853943	response	0	k		41.0	/experiments/knapen_aot/AOT/AOT_stimuli/pictures/1609_fw.png	145.1214361190796	
44	64.38262891769409	picture	0		93	42.0	/experiments/knapen_aot/AOT/AOT_stimuli/pictures/0330_fw.png	145.13800501823425	0.7833549976348877
44	65.14260292053223	response	0	k		42.0	/experiments/knapen_aot/AOT/AOT_stimuli/pictures/0330_fw.png	145.8979790210724	
45	65.16598391532898	picture	0		125	43.0	/experiments/knapen_aot/AOT/AOT_stimuli/pictures/0299_fw.png	145.92136001586914	1.041701078414917
45	66.19939684867859	response	0	j		43.0	/experiments/knapen_aot/AOT/AOT_stimuli/pictures/0299_fw.png	146.95477294921875	
46	66.2076849937439	picture	0		113	44.0	/experiments/knapen_aot/AOT/AOT_stimuli/pictures/0443_fw.png	146.96306109428406	0.9499039649963379
46	67.13430404663086	response	0	j		44.0	/experiments/knapen_aot/AOT/AOT_stimuli/pictures/0443_fw.png	147.88968014717102	
47	67.15758895874023	picture	0		105	45.0	/experiments/knapen_aot/AOT/AOT_stimuli/pictures/1434_fw.png	147.9129650592804	0.8834278583526611
47	68.02442789077759	response	0	k		45.0	/experiments/knapen_aot/AOT/AOT_stimuli/pictures/1434_fw.png	148.77980399131775	
48	68.0410168170929	picture	0		148	46.0	/experiments/knapen_aot/AOT/AOT_stimuli/pictures/2025_fw.png	148.79639291763306	1.2416610717773438
48	69.26607584953308	response	0	k		46.0	/experiments/knapen_aot/AOT/AOT_stimuli/pictures/2025_fw.png	150.02145195007324	
49	69.28267788887024	picture	0		112	47.0	/experiments/knapen_aot/AOT/AOT_stimuli/pictures/0311_fw.png	150.0380539894104	0.9389469623565674
49	70.2077808380127	response	0	k		47.0	/experiments/knapen_aot/AOT/AOT_stimuli/pictures/0311_fw.png	150.96315693855286	
50	70.2216248512268	picture	0		294	48.0	/experiments/knapen_aot/AOT/AOT_stimuli/pictures/1756_fw.png	150.97700095176697	2.6526291370391846
50	72.66611790657043	response	0	k		48.0	/experiments/knapen_aot/AOT/AOT_stimuli/pictures/1756_fw.png	153.4214940071106	
51	72.87425398826599	picture	0		81	49.0	/experiments/knapen_aot/AOT/AOT_stimuli/pictures/2109_fw.png	153.62963008880615	0.680609941482544
51	73.53438997268677	response	0	j		49.0	/experiments/knapen_aot/AOT/AOT_stimuli/pictures/2109_fw.png	154.28976607322693	
52	73.55486392974854	picture	0		107	50.0	/experiments/knapen_aot/AOT/AOT_stimuli/pictures/1189_fw.png	154.3102400302887	0.895806074142456
52	74.4410150051117	response	0	k		50.0	/experiments/knapen_aot/AOT/AOT_stimuli/pictures/1189_fw.png	155.19639110565186	
53	74.45067000389099	picture	0		149	51.0	/experiments/knapen_aot/AOT/AOT_stimuli/pictures/1203_fw.png	155.20604610443115	1.2500908374786377
53	75.68270492553711	response	0	k		51.0	/experiments/knapen_aot/AOT/AOT_stimuli/pictures/1203_fw.png	156.43808102607727	
54	75.70076084136963	picture	0		113	52.0	/experiments/knapen_aot/AOT/AOT_stimuli/pictures/0452_fw.png	156.4561369419098	0.9443860054016113
54	76.63265490531921	response	0	j		52.0	/experiments/knapen_aot/AOT/AOT_stimuli/pictures/0452_fw.png	157.38803100585938	
55	76.64514684677124	picture	0		97	53.0	/experiments/knapen_aot/AOT/AOT_stimuli/pictures/0016_fw.png	157.4005229473114	0.8055100440979004
55	77.44102501869202	response	0	j		53.0	/experiments/knapen_aot/AOT/AOT_stimuli/pictures/0016_fw.png	158.19640111923218	
56	77.45065689086914	picture	0		123	54.0	/experiments/knapen_aot/AOT/AOT_stimuli/pictures/1813_fw.png	158.2060329914093	1.0277791023254395
56	78.46599984169006	response	0	k		54.0	/experiments/knapen_aot/AOT/AOT_stimuli/pictures/1813_fw.png	159.22137594223022	
57	78.47843599319458	picture	0		111	55.0	/experiments/knapen_aot/AOT/AOT_stimuli/pictures/0103_fw.png	159.23381209373474	0.9236159324645996
57	79.39100003242493	response	0	j		55.0	/experiments/knapen_aot/AOT/AOT_stimuli/pictures/0103_fw.png	160.1463761329651	
58	79.40205192565918	picture	0		447	56.0	/experiments/knapen_aot/AOT/AOT_stimuli/pictures/0211_fw.png	160.15742802619934	3.722245931625366
58	83.11600184440613	response	0	k		56.0	/experiments/knapen_aot/AOT/AOT_stimuli/pictures/0211_fw.png	163.8713779449463	
59	83.12429785728455	picture	0		99	57.0	/experiments/knapen_aot/AOT/AOT_stimuli/pictures/1323_fw.png	163.8796739578247	0.8415729999542236
59	83.93424201011658	response	0	k		57.0	/experiments/knapen_aot/AOT/AOT_stimuli/pictures/1323_fw.png	164.68961811065674	
60	83.96587085723877	picture	0		137	58.0	/experiments/knapen_aot/AOT/AOT_stimuli/pictures/1983_fw.png	164.72124695777893	1.1444861888885498
60	85.09929704666138	response	0	j		58.0	/experiments/knapen_aot/AOT/AOT_stimuli/pictures/1983_fw.png	165.85467314720154	
61	85.11035704612732	picture	0		117	59.0	/experiments/knapen_aot/AOT/AOT_stimuli/pictures/0261_fw.png	165.86573314666748	0.986076831817627
61	86.0743899345398	response	0	k		59.0	/experiments/knapen_aot/AOT/AOT_stimuli/pictures/0261_fw.png	166.82976603507996	
62	86.09643387794495	picture	0		134	60.0	/experiments/knapen_aot/AOT/AOT_stimuli/pictures/1726_fw.png	166.8518099784851	1.1249980926513672
62	87.20764183998108	response	0	k		60.0	/experiments/knapen_aot/AOT/AOT_stimuli/pictures/1726_fw.png	167.96301794052124	
63	87.22143197059631	picture	0		98	61.0	/experiments/knapen_aot/AOT/AOT_stimuli/pictures/1101_fw.png	167.97680807113647	0.8193550109863281
63	88.03260684013367	response	0	j		61.0	/experiments/knapen_aot/AOT/AOT_stimuli/pictures/1101_fw.png	168.78798294067383	
64	88.04078698158264	picture	0		107	62.0	/experiments/knapen_aot/AOT/AOT_stimuli/pictures/0648_fw.png	168.7961630821228	0.8958699703216553
64	88.92428803443909	response	0	k		62.0	/experiments/knapen_aot/AOT/AOT_stimuli/pictures/0648_fw.png	169.67966413497925	
65	88.9366569519043	picture	0		108	63.0	/experiments/knapen_aot/AOT/AOT_stimuli/pictures/1215_fw.png	169.69203305244446	0.9098150730133057
65	89.82428884506226	response	0	j		63.0	/experiments/knapen_aot/AOT/AOT_stimuli/pictures/1215_fw.png	170.57966494560242	
66	89.8464720249176	picture	0		102	64.0	/experiments/knapen_aot/AOT/AOT_stimuli/pictures/1753_fw.png	170.60184812545776	0.8611698150634766
66	90.69094586372375	response	0	j		64.0	/experiments/knapen_aot/AOT/AOT_stimuli/pictures/1753_fw.png	171.44632196426392	
67	90.70764183998108	picture	0		94	65.0	/experiments/knapen_aot/AOT/AOT_stimuli/pictures/0274_fw.png	171.46301794052124	0.7845730781555176
67	91.4826090335846	response	0	k		65.0	/experiments/knapen_aot/AOT/AOT_stimuli/pictures/0274_fw.png	172.23798513412476	
68	91.4922149181366	picture	0		241	66.0	/experiments/knapen_aot/AOT/AOT_stimuli/pictures/0780_fw.png	172.24759101867676	2.006890058517456
68	93.49092102050781	response	0	j		66.0	/experiments/knapen_aot/AOT/AOT_stimuli/pictures/0780_fw.png	174.24629712104797	
69	93.49910497665405	picture	0		103	67.0	/experiments/knapen_aot/AOT/AOT_stimuli/pictures/0659_fw.png	174.2544810771942	0.8611369132995605
69	94.34256100654602	response	0	k		67.0	/experiments/knapen_aot/AOT/AOT_stimuli/pictures/0659_fw.png	175.09793710708618	
70	94.36024188995361	picture	0		109	68.0	/experiments/knapen_aot/AOT/AOT_stimuli/pictures/1024_fw.png	175.11561799049377	0.909682035446167
70	95.25760793685913	response	0	j		68.0	/experiments/knapen_aot/AOT/AOT_stimuli/pictures/1024_fw.png	176.0129840373993	
71	95.26992392539978	picture	0		427	69.0	/experiments/knapen_aot/AOT/AOT_stimuli/pictures/0823_fw.png	176.02530002593994	3.555565118789673
71	98.81591200828552	response	0	j		69.0	/experiments/knapen_aot/AOT/AOT_stimuli/pictures/0823_fw.png	179.57128810882568	
72	98.82548904418945	picture	0		330	70.0	/experiments/knapen_aot/AOT/AOT_stimuli/pictures/0909_fw.png	179.58086514472961	2.7499678134918213
72	101.55911993980408	response	0	j		70.0	/experiments/knapen_aot/AOT/AOT_stimuli/pictures/0909_fw.png	182.31449604034424	
73	101.57545685768127	picture	0		108	71.0	/experiments/knapen_aot/AOT/AOT_stimuli/pictures/0318_fw.png	182.33083295822144	0.9027330875396729
73	102.46591186523438	response	0	k		71.0	/experiments/knapen_aot/AOT/AOT_stimuli/pictures/0318_fw.png	183.22128796577454	
74	102.47818994522095	picture	0		123	72.0	/experiments/knapen_aot/AOT/AOT_stimuli/pictures/2172_fw.png	183.2335660457611	1.0278260707855225
74	103.490886926651	response	0	j		72.0	/experiments/knapen_aot/AOT/AOT_stimuli/pictures/2172_fw.png	184.24626302719116	
75	103.50601601600647	picture	0		105	73.0	/experiments/knapen_aot/AOT/AOT_stimuli/pictures/1501_fw.png	184.26139211654663	0.8819019794464111
75	104.37424182891846	response	0	k		73.0	/experiments/knapen_aot/AOT/AOT_stimuli/pictures/1501_fw.png	185.12961792945862	
76	104.38791799545288	picture	0		95	74.0	/experiments/knapen_aot/AOT/AOT_stimuli/pictures/0553_fw.png	185.14329409599304	0.798590898513794
76	105.16750383377075	response	0	k		74.0	/experiments/knapen_aot/AOT/AOT_stimuli/pictures/0553_fw.png	185.9228799343109	
77	105.18650889396667	picture	0		410	75.0	/experiments/knapen_aot/AOT/AOT_stimuli/pictures/0367_fw.png	185.94188499450684	3.4166269302368164
77	108.59083390235901	response	0	k		75.0	/experiments/knapen_aot/AOT/AOT_stimuli/pictures/0367_fw.png	189.34621000289917	
78	108.60313582420349	picture	0		472	76.0	/experiments/knapen_aot/AOT/AOT_stimuli/pictures/1163_fw.png	189.35851192474365	3.930549144744873
78	112.52420282363892	response	0	k		76.0	/experiments/knapen_aot/AOT/AOT_stimuli/pictures/1163_fw.png	193.27957892417908	
79	112.53368496894836	picture	0		93	77.0	/experiments/knapen_aot/AOT/AOT_stimuli/pictures/2125_fw.png	193.28906106948853	0.7777390480041504
79	113.29920101165771	response	0	j		77.0	/experiments/knapen_aot/AOT/AOT_stimuli/pictures/2125_fw.png	194.05457711219788	
80	113.31142401695251	picture	0		127	78.0	/experiments/knapen_aot/AOT/AOT_stimuli/pictures/0438_fw.png	194.06680011749268	1.062654972076416
80	114.35086488723755	response	0	k		78.0	/experiments/knapen_aot/AOT/AOT_stimuli/pictures/0438_fw.png	195.1062409877777	
81	114.37407898902893	picture	0		130	79.0	/experiments/knapen_aot/AOT/AOT_stimuli/pictures/1464_fw.png	195.1294550895691	1.0833299160003662
81	115.4491548538208	response	0	k		79.0	/experiments/knapen_aot/AOT/AOT_stimuli/pictures/1464_fw.png	196.20453095436096	
82	115.4574089050293	picture	0		94	80.0	/experiments/knapen_aot/AOT/AOT_stimuli/pictures/0241_fw.png	196.21278500556946	0.7845239639282227
82	116.23267984390259	response	0	j		80.0	/experiments/knapen_aot/AOT/AOT_stimuli/pictures/0241_fw.png	196.98805594444275	
83	116.24193286895752	picture	0		107	81.0	/experiments/knapen_aot/AOT/AOT_stimuli/pictures/1288_fw.png	196.99730896949768	0.8958380222320557
83	117.12417602539062	response	0	k		81.0	/experiments/knapen_aot/AOT/AOT_stimuli/pictures/1288_fw.png	197.8795521259308	
84	117.13777089118958	picture	0		112	82.0	/experiments/knapen_aot/AOT/AOT_stimuli/pictures/2075_fw.png	197.89314699172974	0.9374771118164062
84	118.06582283973694	response	0	j		82.0	/experiments/knapen_aot/AOT/AOT_stimuli/pictures/2075_fw.png	198.8211989402771	
85	118.07524800300598	picture	0		129	83.0	/experiments/knapen_aot/AOT/AOT_stimuli/pictures/0204_fw.png	198.83062410354614	1.0904500484466553
85	119.14082598686218	response	0	k		83.0	/experiments/knapen_aot/AOT/AOT_stimuli/pictures/0204_fw.png	199.89620208740234	
86	119.16569805145264	picture	0		169	84.0	/experiments/knapen_aot/AOT/AOT_stimuli/pictures/1706_fw.png	199.9210741519928	1.4095687866210938
86	120.55904197692871	response	0	k		84.0	/experiments/knapen_aot/AOT/AOT_stimuli/pictures/1706_fw.png	201.31441807746887	
87	120.57526683807373	picture	0		177	85.0	/experiments/knapen_aot/AOT/AOT_stimuli/pictures/1831_fw.png	201.3306429386139	1.4791960716247559
87	122.04082584381104	response	0	j		85.0	/experiments/knapen_aot/AOT/AOT_stimuli/pictures/1831_fw.png	202.7962019443512	
88	122.05446290969849	picture	0		153	86.0	/experiments/knapen_aot/AOT/AOT_stimuli/pictures/0004_fw.png	202.80983901023865	1.2778689861297607
88	123.32414698600769	response	0	k		86.0	/experiments/knapen_aot/AOT/AOT_stimuli/pictures/0004_fw.png	204.07952308654785	
89	123.33233189582825	picture	0		109	87.0	/experiments/knapen_aot/AOT/AOT_stimuli/pictures/1644_fw.png	204.0877079963684	0.9095590114593506
89	124.23241996765137	response	0	k		87.0	/experiments/knapen_aot/AOT/AOT_stimuli/pictures/1644_fw.png	204.98779606819153	
90	124.2418909072876	picture	0		196	88.0	/experiments/knapen_aot/AOT/AOT_stimuli/pictures/0095_fw.png	204.99726700782776	1.6321289539337158
90	125.86580395698547	response	0	j		88.0	/experiments/knapen_aot/AOT/AOT_stimuli/pictures/0095_fw.png	206.62118005752563	
91	125.87401986122131	picture	0		130	89.0	/experiments/knapen_aot/AOT/AOT_stimuli/pictures/1095_fw.png	206.62939596176147	1.0833101272583008
91	126.94246196746826	response	0	k		89.0	/experiments/knapen_aot/AOT/AOT_stimuli/pictures/1095_fw.png	207.69783806800842	
92	126.95732998847961	picture	0		175	90.0	/experiments/knapen_aot/AOT/AOT_stimuli/pictures/0035_fw.png	207.71270608901978	1.466702938079834
92	128.4075310230255	response	0	k		90.0	/experiments/knapen_aot/AOT/AOT_stimuli/pictures/0035_fw.png	209.16290712356567	
93	128.42403292655945	picture	0		101	91.0	/experiments/knapen_aot/AOT/AOT_stimuli/pictures/1981_fw.png	209.1794090270996	0.8455801010131836
93	129.25748491287231	response	0	k		91.0	/experiments/knapen_aot/AOT/AOT_stimuli/pictures/1981_fw.png	210.01286101341248	
94	129.26961302757263	picture	0		192	92.0	/experiments/knapen_aot/AOT/AOT_stimuli/pictures/1394_fw.png	210.0249891281128	1.597203016281128
94	130.8575530052185	response	0	k		92.0	/experiments/knapen_aot/AOT/AOT_stimuli/pictures/1394_fw.png	211.61292910575867	
95	130.86681604385376	picture	0		115	93.0	/experiments/knapen_aot/AOT/AOT_stimuli/pictures/1290_fw.png	211.62219214439392	0.9583559036254883
95	131.81574201583862	response	0	j		93.0	/experiments/knapen_aot/AOT/AOT_stimuli/pictures/1290_fw.png	212.57111811637878	
96	131.82517194747925	picture	0		103	94.0	/experiments/knapen_aot/AOT/AOT_stimuli/pictures/1857_fw.png	212.5805480480194	0.8821020126342773
96	132.6741168498993	response	0	k		94.0	/experiments/knapen_aot/AOT/AOT_stimuli/pictures/1857_fw.png	213.42949295043945	
97	132.70727396011353	picture	0		111	95.0	/experiments/knapen_aot/AOT/AOT_stimuli/pictures/0910_fw.png	213.4626500606537	0.9303979873657227
97	133.62416791915894	response	0	j		95.0	/experiments/knapen_aot/AOT/AOT_stimuli/pictures/0910_fw.png	214.3795440196991	
98	133.63767194747925	picture	0		173	96.0	/experiments/knapen_aot/AOT/AOT_stimuli/pictures/0329_fw.png	214.3930480480194	1.4446299076080322
98	135.07403993606567	response	0	k		96.0	/experiments/knapen_aot/AOT/AOT_stimuli/pictures/0329_fw.png	215.82941603660583	
99	135.08230185508728	picture	0		93	97.0	/experiments/knapen_aot/AOT/AOT_stimuli/pictures/0936_fw.png	215.83767795562744	0.7775239944458008
99	135.8492169380188	response	0	j		97.0	/experiments/knapen_aot/AOT/AOT_stimuli/pictures/0936_fw.png	216.60459303855896	
100	135.85982584953308	picture	0		116	98.0	/experiments/knapen_aot/AOT/AOT_stimuli/pictures/0430_fw.png	216.61520195007324	0.9931840896606445
100	136.81574296951294	response	0	j		98.0	/experiments/knapen_aot/AOT/AOT_stimuli/pictures/0430_fw.png	217.5711190700531	
101	136.85300993919373	picture	0		101	99.0	/experiments/knapen_aot/AOT/AOT_stimuli/pictures/0009_fw.png	217.6083860397339	0.8542730808258057
101	137.68240404129028	response	0	k		99.0	/experiments/knapen_aot/AOT/AOT_stimuli/pictures/0009_fw.png	218.43778014183044	
102	137.70728302001953	picture	0		346	100.0	/experiments/knapen_aot/AOT/AOT_stimuli/pictures/1991_fw.png	218.4626591205597	2.90004301071167
102	140.57572102546692	response	0	j		100.0	/experiments/knapen_aot/AOT/AOT_stimuli/pictures/1991_fw.png	221.33109712600708	
103	140.6073260307312	picture	0		85	101.0	/experiments/knapen_aot/AOT/AOT_stimuli/pictures/0630_fw.png	221.36270213127136	0.716667890548706
103	141.30734491348267	response	0	k		101.0	/experiments/knapen_aot/AOT/AOT_stimuli/pictures/0630_fw.png	222.06272101402283	
104	141.3239939212799	picture	0		100	102.0	/experiments/knapen_aot/AOT/AOT_stimuli/pictures/1975_fw.png	222.07937002182007	0.8416340351104736
104	142.14904499053955	response	0	k		102.0	/experiments/knapen_aot/AOT/AOT_stimuli/pictures/1975_fw.png	222.9044210910797	
105	142.16562795639038	picture	0		87	103.0	/experiments/knapen_aot/AOT/AOT_stimuli/pictures/0840_fw.png	222.92100405693054	0.7357769012451172
105	142.8823390007019	response	0	j		103.0	/experiments/knapen_aot/AOT/AOT_stimuli/pictures/0840_fw.png	223.63771510124207	
106	142.9014048576355	picture	0		172	104.0	/experiments/knapen_aot/AOT/AOT_stimuli/pictures/0268_fw.png	223.65678095817566	1.465285062789917
106	144.324059009552	response	0	j		104.0	/experiments/knapen_aot/AOT/AOT_stimuli/pictures/0268_fw.png	225.07943511009216	
107	144.36668992042542	picture	0		111	105.0	/experiments/knapen_aot/AOT/AOT_stimuli/pictures/0379_fw.png	225.12206602096558	0.9238920211791992
107	145.2823429107666	response	0	j		105.0	/experiments/knapen_aot/AOT/AOT_stimuli/pictures/0379_fw.png	226.03771901130676	
108	145.29058194160461	picture	0		159	106.0	/experiments/knapen_aot/AOT/AOT_stimuli/pictures/1948_fw.png	226.04595804214478	1.3333239555358887
108	146.60737991333008	response	0	j		106.0	/experiments/knapen_aot/AOT/AOT_stimuli/pictures/1948_fw.png	227.36275601387024	
109	146.6239058971405	picture	0		205	107.0	/experiments/knapen_aot/AOT/AOT_stimuli/pictures/2001_fw.png	227.37928199768066	1.7167489528656006
109	148.3240339756012	response	0	k		107.0	/experiments/knapen_aot/AOT/AOT_stimuli/pictures/2001_fw.png	229.07941007614136	
110	148.3406548500061	picture	0		84	108.0	/experiments/knapen_aot/AOT/AOT_stimuli/pictures/0991_fw.png	229.09603095054626	0.7066020965576172
110	149.03234386444092	response	0	k		108.0	/experiments/knapen_aot/AOT/AOT_stimuli/pictures/0991_fw.png	229.78771996498108	
111	149.04725694656372	picture	0		106	109.0	/experiments/knapen_aot/AOT/AOT_stimuli/pictures/0756_fw.png	229.80263304710388	0.8933370113372803
111	149.92401003837585	response	0	k		109.0	/experiments/knapen_aot/AOT/AOT_stimuli/pictures/0756_fw.png	230.67938613891602	
112	149.940593957901	picture	0		187	110.0	/experiments/knapen_aot/AOT/AOT_stimuli/pictures/1414_fw.png	230.69597005844116	1.566709041595459
112	151.4907009601593	response	0	k		110.0	/experiments/knapen_aot/AOT/AOT_stimuli/pictures/1414_fw.png	232.24607706069946	
113	151.50730299949646	picture	0		560	111.0	/experiments/knapen_aot/AOT/AOT_stimuli/pictures/1165_fw.png	232.26267910003662	4.692626953125
113	156.15915298461914	response	0	j		111.0	/experiments/knapen_aot/AOT/AOT_stimuli/pictures/1165_fw.png	236.9145290851593	
114	156.19992995262146	picture	0		131	112.0	/experiments/knapen_aot/AOT/AOT_stimuli/pictures/0897_fw.png	236.95530605316162	1.0989539623260498
114	157.2823178768158	response	0	k		112.0	/experiments/knapen_aot/AOT/AOT_stimuli/pictures/0897_fw.png	238.03769397735596	
115	157.2988839149475	picture	0		92	113.0	/experiments/knapen_aot/AOT/AOT_stimuli/pictures/1872_fw.png	238.05426001548767	0.7749950885772705
115	158.05730986595154	response	0	k		113.0	/experiments/knapen_aot/AOT/AOT_stimuli/pictures/1872_fw.png	238.8126859664917	
116	158.07387900352478	picture	0		185	114.0	/experiments/knapen_aot/AOT/AOT_stimuli/pictures/0483_fw.png	238.82925510406494	1.5666329860687256
116	159.60731387138367	response	0	k		114.0	/experiments/knapen_aot/AOT/AOT_stimuli/pictures/0483_fw.png	240.36268997192383	
117	159.6405119895935	picture	0		119	115.0	/experiments/knapen_aot/AOT/AOT_stimuli/pictures/0106_fw.png	240.39588809013367	1.0000338554382324
117	160.62397503852844	response	0	k		115.0	/experiments/knapen_aot/AOT/AOT_stimuli/pictures/0106_fw.png	241.3793511390686	
118	160.64054584503174	picture	0		105	116.0	/experiments/knapen_aot/AOT/AOT_stimuli/pictures/0516_fw.png	241.3959219455719	0.8999550342559814
118	161.50734782218933	response	0	j		116.0	/experiments/knapen_aot/AOT/AOT_stimuli/pictures/0516_fw.png	242.2627239227295	
119	161.54050087928772	picture	0		103	117.0	/experiments/knapen_aot/AOT/AOT_stimuli/pictures/0486_fw.png	242.29587697982788	1.0621140003204346
119	162.38397789001465	response	0	j		117.0	/experiments/knapen_aot/AOT/AOT_stimuli/pictures/0486_fw.png	243.1393539905548	
120	162.60261487960815	picture	0		121	118.0	/experiments/knapen_aot/AOT/AOT_stimuli/pictures/1860_fw.png	243.35799098014832	1.0129179954528809
120	163.59199285507202	response	0	k		118.0	/experiments/knapen_aot/AOT/AOT_stimuli/pictures/1860_fw.png	244.34736895561218	
121	163.61553287506104	picture	0		246	119.0	/experiments/knapen_aot/AOT/AOT_stimuli/pictures/0272_fw.png	244.3709089756012	2.0582711696624756
121	165.65725898742676	response	0	k		119.0	/experiments/knapen_aot/AOT/AOT_stimuli/pictures/0272_fw.png	246.41263508796692	
122	165.6738040447235	picture	0		125	120.0	/experiments/knapen_aot/AOT/AOT_stimuli/pictures/1901_fw.png	246.42918014526367	1.0500569343566895
122	166.70730185508728	response	0	k		120.0	/experiments/knapen_aot/AOT/AOT_stimuli/pictures/1901_fw.png	247.46267795562744	
123	166.7238609790802	picture	0		290	121.0	/experiments/knapen_aot/AOT/AOT_stimuli/pictures/1635_fw.png	247.47923707962036	2.4205708503723145
123	169.13225388526917	response	0	j		121.0	/experiments/knapen_aot/AOT/AOT_stimuli/pictures/1635_fw.png	249.88762998580933	
124	169.14443182945251	picture	0		104	122.0	/experiments/knapen_aot/AOT/AOT_stimuli/pictures/1386_fw.png	249.89980792999268	0.867825984954834
124	169.99230289459229	response	0	j		122.0	/experiments/knapen_aot/AOT/AOT_stimuli/pictures/1386_fw.png	250.74767899513245	
125	170.01225781440735	picture	0		116	123.0	/experiments/knapen_aot/AOT/AOT_stimuli/pictures/0826_fw.png	250.7676339149475	0.97222900390625
125	170.96707487106323	response	0	k		123.0	/experiments/knapen_aot/AOT/AOT_stimuli/pictures/0826_fw.png	251.7224509716034	
126	170.9844868183136	picture	0		225	124.0	/experiments/knapen_aot/AOT/AOT_stimuli/pictures/1953_fw.png	251.73986291885376	1.8751070499420166
126	172.84894394874573	response	0	k		124.0	/experiments/knapen_aot/AOT/AOT_stimuli/pictures/1953_fw.png	253.6043200492859	
127	172.85959386825562	picture	0		197	125.0	/experiments/knapen_aot/AOT/AOT_stimuli/pictures/0441_fw.png	253.61496996879578	1.6391689777374268
127	174.4905788898468	response	0	j		125.0	/experiments/knapen_aot/AOT/AOT_stimuli/pictures/0441_fw.png	255.24595499038696	
128	174.49876284599304	picture	0		175	126.0	/experiments/knapen_aot/AOT/AOT_stimuli/pictures/0132_fw.png	255.2541389465332	1.4648480415344238
128	175.9488890171051	response	0	j		126.0	/experiments/knapen_aot/AOT/AOT_stimuli/pictures/0132_fw.png	256.70426511764526	
129	175.96361088752747	picture	0		115	127.0	/experiments/knapen_aot/AOT/AOT_stimuli/pictures/0340_fw.png	256.7189869880676	0.9652459621429443
129	176.91557693481445	response	0	j		127.0	/experiments/knapen_aot/AOT/AOT_stimuli/pictures/0340_fw.png	257.6709530353546	
130	176.9288568496704	picture	0		104	128.0	/experiments/knapen_aot/AOT/AOT_stimuli/pictures/1902_fw.png	257.68423295021057	0.8749899864196777
130	177.7839000225067	response	0	j		128.0	/experiments/knapen_aot/AOT/AOT_stimuli/pictures/1902_fw.png	258.5392761230469	
131	177.8038468360901	picture	0		104	129.0	/experiments/knapen_aot/AOT/AOT_stimuli/pictures/1721_fw.png	258.55922293663025	0.8750870227813721
131	178.66559982299805	response	0	j		129.0	/experiments/knapen_aot/AOT/AOT_stimuli/pictures/1721_fw.png	259.4209759235382	
132	178.67893385887146	picture	0		94	130.0	/experiments/knapen_aot/AOT/AOT_stimuli/pictures/0285_fw.png	259.4343099594116	0.7917320728302002
132	179.4571988582611	response	0	j		130.0	/experiments/knapen_aot/AOT/AOT_stimuli/pictures/0285_fw.png	260.21257495880127	
133	179.47066593170166	picture	0		113	131.0	/experiments/knapen_aot/AOT/AOT_stimuli/pictures/1088_fw.png	260.2260420322418	0.9447739124298096
133	180.4072048664093	response	0	k		131.0	/experiments/knapen_aot/AOT/AOT_stimuli/pictures/1088_fw.png	261.16258096694946	
134	180.41543984413147	picture	0		98	132.0	/experiments/knapen_aot/AOT/AOT_stimuli/pictures/0283_fw.png	261.17081594467163	0.8189120292663574
134	181.22389793395996	response	0	k		132.0	/experiments/knapen_aot/AOT/AOT_stimuli/pictures/0283_fw.png	261.9792740345001	
135	181.23435187339783	picture	0		105	133.0	/experiments/knapen_aot/AOT/AOT_stimuli/pictures/1795_fw.png	261.989727973938	0.8750121593475342
135	182.09887385368347	response	0	j		133.0	/experiments/knapen_aot/AOT/AOT_stimuli/pictures/1795_fw.png	262.85424995422363	
136	182.10936403274536	picture	0		178	134.0	/experiments/knapen_aot/AOT/AOT_stimuli/pictures/0072_fw.png	262.8647401332855	1.4862229824066162
136	183.57553601264954	response	0	j		134.0	/experiments/knapen_aot/AOT/AOT_stimuli/pictures/0072_fw.png	264.3309121131897	
137	183.59558701515198	picture	0		100	135.0	/experiments/knapen_aot/AOT/AOT_stimuli/pictures/1910_fw.png	264.35096311569214	0.840142011642456
137	184.4237949848175	response	0	k		135.0	/experiments/knapen_aot/AOT/AOT_stimuli/pictures/1910_fw.png	265.17917108535767	
138	184.43572902679443	picture	0		107	136.0	/experiments/knapen_aot/AOT/AOT_stimuli/pictures/0208_fw.png	265.1911051273346	0.8889060020446777
138	185.31544589996338	response	0	k		136.0	/experiments/knapen_aot/AOT/AOT_stimuli/pictures/0208_fw.png	266.07082200050354	
139	185.3246350288391	picture	0		120	137.0	/experiments/knapen_aot/AOT/AOT_stimuli/pictures/1661_fw.png	266.0800111293793	0.9999690055847168
139	186.31553387641907	response	0	j		137.0	/experiments/knapen_aot/AOT/AOT_stimuli/pictures/1661_fw.png	267.07090997695923	
140	186.32460403442383	picture	0		141	138.0	/experiments/knapen_aot/AOT/AOT_stimuli/pictures/1113_fw.png	267.079980134964	1.1806919574737549
140	187.49054884910583	response	0	k		138.0	/experiments/knapen_aot/AOT/AOT_stimuli/pictures/1113_fw.png	268.245924949646	
141	187.50529599189758	picture	0		109	139.0	/experiments/knapen_aot/AOT/AOT_stimuli/pictures/0666_fw.png	268.26067209243774	0.918449878692627
141	188.40038204193115	response	0	k		139.0	/experiments/knapen_aot/AOT/AOT_stimuli/pictures/0666_fw.png	269.1557581424713	
142	188.4237458705902	picture	0		126	140.0	/experiments/knapen_aot/AOT/AOT_stimuli/pictures/0105_fw.png	269.17912197113037	1.0535991191864014
142	189.46551299095154	response	0	j		140.0	/experiments/knapen_aot/AOT/AOT_stimuli/pictures/0105_fw.png	270.2208890914917	
143	189.4773449897766	picture	0		114	141.0	/experiments/knapen_aot/AOT/AOT_stimuli/pictures/1603_fw.png	270.2327210903168	0.9513988494873047
143	190.41550087928772	response	0	k		141.0	/experiments/knapen_aot/AOT/AOT_stimuli/pictures/1603_fw.png	271.1708769798279	
144	190.42874383926392	picture	0		106	142.0	/experiments/knapen_aot/AOT/AOT_stimuli/pictures/2082_fw.png	271.1841199398041	0.8949551582336426
144	191.30718994140625	response	0	j		142.0	/experiments/knapen_aot/AOT/AOT_stimuli/pictures/2082_fw.png	272.0625660419464	
145	191.32369899749756	picture	0		103	143.0	/experiments/knapen_aot/AOT/AOT_stimuli/pictures/0944_fw.png	272.0790750980377	0.8619909286499023
145	192.1737940311432	response	0	j		143.0	/experiments/knapen_aot/AOT/AOT_stimuli/pictures/0944_fw.png	272.92917013168335	
146	192.18568992614746	picture	0		94	144.0	/experiments/knapen_aot/AOT/AOT_stimuli/pictures/0727_fw.png	272.9410660266876	0.7880599498748779
146	192.951269865036	response	0	k		144.0	/experiments/knapen_aot/AOT/AOT_stimuli/pictures/0727_fw.png	273.7066459655762	
147	192.97374987602234	picture	0		186	145.0	/experiments/knapen_aot/AOT/AOT_stimuli/pictures/0990_fw.png	273.7291259765625	1.5583040714263916
147	194.51563000679016	response	0	k		145.0	/experiments/knapen_aot/AOT/AOT_stimuli/pictures/0990_fw.png	275.2710061073303	
148	194.53205394744873	picture	0		125	146.0	/experiments/knapen_aot/AOT/AOT_stimuli/pictures/0864_fw.png	275.2874300479889	1.0424978733062744
148	195.56544399261475	response	0	j		146.0	/experiments/knapen_aot/AOT/AOT_stimuli/pictures/0864_fw.png	276.3208200931549	
149	195.574551820755	picture	0		122	147.0	/experiments/knapen_aot/AOT/AOT_stimuli/pictures/1567_fw.png	276.32992792129517	1.0208561420440674
149	196.57543182373047	response	0	j		147.0	/experiments/knapen_aot/AOT/AOT_stimuli/pictures/1567_fw.png	277.33080792427063	
150	196.59540796279907	picture	0		94	148.0	/experiments/knapen_aot/AOT/AOT_stimuli/pictures/1537_fw.png	277.35078406333923	0.7916150093078613
150	197.36790585517883	response	0	k		148.0	/experiments/knapen_aot/AOT/AOT_stimuli/pictures/1537_fw.png	278.123281955719	
151	197.38702297210693	picture	0		224	149.0	/experiments/knapen_aot/AOT/AOT_stimuli/pictures/1059_fw.png	278.1423990726471	1.874988079071045
151	199.24876403808594	response	0	k		149.0	/experiments/knapen_aot/AOT/AOT_stimuli/pictures/1059_fw.png	280.0041401386261	
152	199.26201105117798	picture	0		106	150.0	/experiments/knapen_aot/AOT/AOT_stimuli/pictures/0352_fw.png	280.01738715171814	0.8888747692108154
152	200.14045095443726	response	0	k		150.0	/experiments/knapen_aot/AOT/AOT_stimuli/pictures/0352_fw.png	280.8958270549774	
153	200.1508858203888	picture	0		178	151.0	/experiments/knapen_aot/AOT/AOT_stimuli/pictures/1854_fw.png	280.90626192092896	1.4861512184143066
153	201.62377285957336	response	0	j		151.0	/experiments/knapen_aot/AOT/AOT_stimuli/pictures/1854_fw.png	282.3791489601135	
154	201.6370370388031	picture	0		175	152.0	/experiments/knapen_aot/AOT/AOT_stimuli/pictures/0447_fw.png	282.39241313934326	1.4699769020080566
154	203.09046292304993	response	0	k		152.0	/experiments/knapen_aot/AOT/AOT_stimuli/pictures/0447_fw.png	283.8458390235901	
155	203.10701394081116	picture	0		302	153.0	/experiments/knapen_aot/AOT/AOT_stimuli/pictures/0515_fw.png	283.8623900413513	2.5250039100646973
155	205.61622786521912	response	0	k		153.0	/experiments/knapen_aot/AOT/AOT_stimuli/pictures/0515_fw.png	286.3716039657593	
156	205.63201785087585	picture	0		96	154.0	/experiments/knapen_aot/AOT/AOT_stimuli/pictures/1762_fw.png	286.387393951416	0.8035039901733398
156	206.42388892173767	response	0	j		154.0	/experiments/knapen_aot/AOT/AOT_stimuli/pictures/1762_fw.png	287.17926502227783	
157	206.4355218410492	picture	0		85	155.0	/experiments/knapen_aot/AOT/AOT_stimuli/pictures/0387_fw.png	287.19089794158936	0.7083179950714111
157	207.13207387924194	response	0	k		155.0	/experiments/knapen_aot/AOT/AOT_stimuli/pictures/0387_fw.png	287.8874499797821	
158	207.1438398361206	picture	0		101	156.0	/experiments/knapen_aot/AOT/AOT_stimuli/pictures/2095_fw.png	287.89921593666077	0.8464930057525635
158	207.9737479686737	response	0	j		156.0	/experiments/knapen_aot/AOT/AOT_stimuli/pictures/2095_fw.png	288.72912406921387	
159	207.99033284187317	picture	0		134	157.0	/experiments/knapen_aot/AOT/AOT_stimuli/pictures/0167_fw.png	288.74570894241333	1.1249680519104004
159	209.09880304336548	response	0	j		157.0	/experiments/knapen_aot/AOT/AOT_stimuli/pictures/0167_fw.png	289.85417914390564	
160	209.11530089378357	picture	0		129	158.0	/experiments/knapen_aot/AOT/AOT_stimuli/pictures/0683_fw.png	289.87067699432373	1.077160120010376
160	210.182049036026	response	0	j		158.0	/experiments/knapen_aot/AOT/AOT_stimuli/pictures/0683_fw.png	290.93742513656616	
161	210.19246101379395	picture	0		91	159.0	/experiments/knapen_aot/AOT/AOT_stimuli/pictures/1525_fw.png	290.9478371143341	0.7644979953765869
161	210.94036984443665	response	0	k		159.0	/experiments/knapen_aot/AOT/AOT_stimuli/pictures/1525_fw.png	291.6957459449768	
162	210.95695900917053	picture	0		101	160.0	/experiments/knapen_aot/AOT/AOT_stimuli/pictures/0647_fw.png	291.7123351097107	0.8465979099273682
162	211.7843370437622	response	0	j		160.0	/experiments/knapen_aot/AOT/AOT_stimuli/pictures/0647_fw.png	292.53971314430237	
163	211.8035569190979	picture	0		151	161.0	/experiments/knapen_aot/AOT/AOT_stimuli/pictures/1385_fw.png	292.55893301963806	1.2638680934906006
163	213.05706882476807	response	0	k		161.0	/experiments/knapen_aot/AOT/AOT_stimuli/pictures/1385_fw.png	293.8124449253082	
164	213.0674250125885	picture	0		555	162.0	/experiments/knapen_aot/AOT/AOT_stimuli/pictures/0505_fw.png	293.82280111312866	4.631189823150635
164	217.68209791183472	response	0	j		162.0	/experiments/knapen_aot/AOT/AOT_stimuli/pictures/0505_fw.png	298.4374740123749	
165	217.69861483573914	picture	0		86	163.0	/experiments/knapen_aot/AOT/AOT_stimuli/pictures/1712_fw.png	298.4539909362793	0.7249960899353027
165	218.4077308177948	response	0	k		163.0	/experiments/knapen_aot/AOT/AOT_stimuli/pictures/1712_fw.png	299.16310691833496	
166	218.42361092567444	picture	0		89	164.0	/experiments/knapen_aot/AOT/AOT_stimuli/pictures/0794_fw.png	299.1789870262146	0.749985933303833
166	219.1578278541565	response	0	k		164.0	/experiments/knapen_aot/AOT/AOT_stimuli/pictures/0794_fw.png	299.91320395469666	
167	219.17359685897827	picture	0		91	165.0	/experiments/knapen_aot/AOT/AOT_stimuli/pictures/0812_fw.png	299.92897295951843	0.7617850303649902
167	219.92370295524597	response	0	j		165.0	/experiments/knapen_aot/AOT/AOT_stimuli/pictures/0812_fw.png	300.67907905578613	
168	219.93538188934326	picture	0		95	166.0	/experiments/knapen_aot/AOT/AOT_stimuli/pictures/0020_fw.png	300.6907579898834	0.7965500354766846
168	220.71537590026855	response	0	k		166.0	/experiments/knapen_aot/AOT/AOT_stimuli/pictures/0020_fw.png	301.4707520008087	
169	220.73193192481995	picture	0		138	167.0	/experiments/knapen_aot/AOT/AOT_stimuli/pictures/0935_fw.png	301.4873080253601	1.1583828926086426
169	221.8737289905548	response	0	j		167.0	/experiments/knapen_aot/AOT/AOT_stimuli/pictures/0935_fw.png	302.62910509109497	
170	221.8903148174286	picture	0		168	168.0	/experiments/knapen_aot/AOT/AOT_stimuli/pictures/0028_fw.png	302.64569091796875	1.4082691669464111
170	223.28270292282104	response	0	k		168.0	/experiments/knapen_aot/AOT/AOT_stimuli/pictures/0028_fw.png	304.0380790233612	
171	223.298583984375	picture	0		169	169.0	/experiments/knapen_aot/AOT/AOT_stimuli/pictures/1701_fw.png	304.05396008491516	1.4166629314422607
171	224.69935989379883	response	0	k		169.0	/experiments/knapen_aot/AOT/AOT_stimuli/pictures/1701_fw.png	305.454735994339	
172	224.71524691581726	picture	0		469	170.0	/experiments/knapen_aot/AOT/AOT_stimuli/pictures/0063_fw.png	305.4706230163574	3.9165759086608887
172	228.6085729598999	response	0	j		170.0	/experiments/knapen_aot/AOT/AOT_stimuli/pictures/0063_fw.png	309.36394906044006	
173	228.63182282447815	picture	0		134	171.0	/experiments/knapen_aot/AOT/AOT_stimuli/pictures/0997_fw.png	309.3871989250183	1.1250700950622559
173	229.74098300933838	response	0	k		171.0	/experiments/knapen_aot/AOT/AOT_stimuli/pictures/0997_fw.png	310.49635910987854	
174	229.7568929195404	picture	0		146	172.0	/experiments/knapen_aot/AOT/AOT_stimuli/pictures/0494_fw.png	310.51226902008057	1.224977970123291
174	230.9652168750763	response	0	k		172.0	/experiments/knapen_aot/AOT/AOT_stimuli/pictures/0494_fw.png	311.72059297561646	
175	230.9818708896637	picture	0		430	173.0	/experiments/knapen_aot/AOT/AOT_stimuli/pictures/0918_fw.png	311.73724699020386	3.5853171348571777
175	234.5569200515747	response	0	k		173.0	/experiments/knapen_aot/AOT/AOT_stimuli/pictures/0918_fw.png	315.31229615211487	
176	234.56718802452087	picture	0		108	174.0	/experiments/knapen_aot/AOT/AOT_stimuli/pictures/2151_fw.png	315.32256412506104	0.9027919769287109
176	235.456964969635	response	0	k		174.0	/experiments/knapen_aot/AOT/AOT_stimuli/pictures/2151_fw.png	316.21234107017517	
177	235.46998000144958	picture	0		103	175.0	/experiments/knapen_aot/AOT/AOT_stimuli/pictures/1086_fw.png	316.22535610198975	0.8702089786529541
177	236.32426285743713	response	0	j		175.0	/experiments/knapen_aot/AOT/AOT_stimuli/pictures/1086_fw.png	317.0796389579773	
178	236.34018898010254	picture	0		100	176.0	/experiments/knapen_aot/AOT/AOT_stimuli/pictures/2155_fw.png	317.0955650806427	0.83809494972229
178	237.16528797149658	response	0	k		176.0	/experiments/knapen_aot/AOT/AOT_stimuli/pictures/2155_fw.png	317.92066407203674	
179	237.17828392982483	picture	0		124	177.0	/experiments/knapen_aot/AOT/AOT_stimuli/pictures/0939_fw.png	317.933660030365	1.0416700839996338
179	238.2008159160614	response	0	j		177.0	/experiments/knapen_aot/AOT/AOT_stimuli/pictures/0939_fw.png	318.95619201660156	
180	238.21995401382446	picture	0		217	178.0	/experiments/knapen_aot/AOT/AOT_stimuli/pictures/2126_fw.png	318.9753301143646	1.8125250339508057
180	240.01686596870422	response	0	k		178.0	/experiments/knapen_aot/AOT/AOT_stimuli/pictures/2126_fw.png	320.7722420692444	
181	240.03247904777527	picture	0		131	179.0	/experiments/knapen_aot/AOT/AOT_stimuli/pictures/0788_fw.png	320.78785514831543	1.0971908569335938
181	241.1158308982849	response	0	k		179.0	/experiments/knapen_aot/AOT/AOT_stimuli/pictures/0788_fw.png	321.8712069988251	
182	241.12966990470886	stim	0		100			321.885046005249	0.8355231285095215
182	241.9568829536438	response	0	space				322.71225905418396	
