trial_nr	onset	event_type	phase	response	nr_frames	picture_index	picture_file	onset_abs	duration
0	0.15117096900939941	stim	0		927			99.83542704582214	7.748360872268677
0	7.874663829803467	response	0	space				107.55891990661621	
2	7.899531841278076	picture	0		519	0.0	/experiments/knapen_aot/AOT/AOT_stimuli/pictures/0232_fw.png	107.58378791809082	4.3332929611206055
2	12.216315984725952	response	0	k		0.0	/experiments/knapen_aot/AOT/AOT_stimuli/pictures/0232_fw.png	111.9005720615387	
3	12.232824802398682	picture	0		307	1.0	/experiments/knapen_aot/AOT/AOT_stimuli/pictures/0796_fw.png	111.91708087921143	2.5638420581817627
3	14.782908916473389	response	0	k		1.0	/experiments/knapen_aot/AOT/AOT_stimuli/pictures/0796_fw.png	114.46716499328613	
4	14.796666860580444	picture	0		182	2.0	/experiments/knapen_aot/AOT/AOT_stimuli/pictures/0308_fw.png	114.48092293739319	1.5207340717315674
4	16.301114797592163	response	0	k		2.0	/experiments/knapen_aot/AOT/AOT_stimuli/pictures/0308_fw.png	115.98537087440491	
5	16.31740093231201	picture	0		128	3.0	/experiments/knapen_aot/AOT/AOT_stimuli/pictures/2041_fw.png	116.00165700912476	1.0694100856781006
5	17.37462091445923	response	0	k		3.0	/experiments/knapen_aot/AOT/AOT_stimuli/pictures/2041_fw.png	117.05887699127197	
6	17.386811017990112	picture	0		206	4.0	/experiments/knapen_aot/AOT/AOT_stimuli/pictures/1542_fw.png	117.07106709480286	1.7153079509735107
6	19.08442497253418	response	0	k		4.0	/experiments/knapen_aot/AOT/AOT_stimuli/pictures/1542_fw.png	118.76868104934692	
7	19.102118968963623	picture	0		91	5.0	/experiments/knapen_aot/AOT/AOT_stimuli/pictures/0315_fw.png	118.78637504577637	0.7569630146026611
7	19.849607944488525	response	0	j		5.0	/experiments/knapen_aot/AOT/AOT_stimuli/pictures/0315_fw.png	119.53386402130127	
8	19.859081983566284	picture	0		114	6.0	/experiments/knapen_aot/AOT/AOT_stimuli/pictures/0328_fw.png	119.54333806037903	0.9513490200042725
8	20.799494981765747	response	0	k		6.0	/experiments/knapen_aot/AOT/AOT_stimuli/pictures/0328_fw.png	120.48375105857849	
9	20.810431003570557	picture	0		144	7.0	/experiments/knapen_aot/AOT/AOT_stimuli/pictures/1436_fw.png	120.4946870803833	1.2013509273529053
9	21.999610900878906	response	0	k		7.0	/experiments/knapen_aot/AOT/AOT_stimuli/pictures/1436_fw.png	121.68386697769165	
10	22.011781930923462	picture	0		194	8.0	/experiments/knapen_aot/AOT/AOT_stimuli/pictures/0908_fw.png	121.6960380077362	1.6180810928344727
10	23.61626100540161	response	0	k		8.0	/experiments/knapen_aot/AOT/AOT_stimuli/pictures/0908_fw.png	123.30051708221436	
11	23.629863023757935	picture	0		146	9.0	/experiments/knapen_aot/AOT/AOT_stimuli/pictures/1879_fw.png	123.31411910057068	1.2279269695281982
11	24.84122085571289	response	0	k		9.0	/experiments/knapen_aot/AOT/AOT_stimuli/pictures/1879_fw.png	124.52547693252563	
12	24.857789993286133	picture	0		236	10.0	/experiments/knapen_aot/AOT/AOT_stimuli/pictures/1074_fw.png	124.54204607009888	1.9666519165039062
12	26.816232919692993	response	0	k		10.0	/experiments/knapen_aot/AOT/AOT_stimuli/pictures/1074_fw.png	126.50048899650574	
13	26.82444190979004	picture	0		121	11.0	/experiments/knapen_aot/AOT/AOT_stimuli/pictures/0655_fw.png	126.50869798660278	1.0136699676513672
13	27.82452893257141	response	0	j		11.0	/experiments/knapen_aot/AOT/AOT_stimuli/pictures/0655_fw.png	127.50878500938416	
14	27.838111877441406	picture	0		97	12.0	/experiments/knapen_aot/AOT/AOT_stimuli/pictures/0915_fw.png	127.52236795425415	0.8125391006469727
14	28.64120888710022	response	0	k		12.0	/experiments/knapen_aot/AOT/AOT_stimuli/pictures/0915_fw.png	128.32546496391296	
15	28.65065097808838	picture	0		487	13.0	/experiments/knapen_aot/AOT/AOT_stimuli/pictures/2111_fw.png	128.33490705490112	4.065474987030029
15	32.69270396232605	response	0	k		13.0	/experiments/knapen_aot/AOT/AOT_stimuli/pictures/2111_fw.png	132.3769600391388	
16	32.71612596511841	picture	0		242	14.0	/experiments/knapen_aot/AOT/AOT_stimuli/pictures/0721_fw.png	132.40038204193115	2.017756938934326
16	34.724478006362915	response	0	k		14.0	/experiments/knapen_aot/AOT/AOT_stimuli/pictures/0721_fw.png	134.40873408317566	
17	34.733882904052734	picture	0		470	15.0	/experiments/knapen_aot/AOT/AOT_stimuli/pictures/0042_fw.png	134.41813898086548	3.916645050048828
17	38.6411509513855	response	0	k		15.0	/experiments/knapen_aot/AOT/AOT_stimuli/pictures/0042_fw.png	138.32540702819824	
18	38.65052795410156	picture	0		319	16.0	/experiments/knapen_aot/AOT/AOT_stimuli/pictures/2120_fw.png	138.3347840309143	2.6596829891204834
18	41.29258394241333	response	0	k		16.0	/experiments/knapen_aot/AOT/AOT_stimuli/pictures/2120_fw.png	140.97684001922607	
19	41.310210943222046	picture	0		92	17.0	/experiments/knapen_aot/AOT/AOT_stimuli/pictures/0327_fw.png	140.9944670200348	0.7641780376434326
19	42.06615400314331	response	0	j		17.0	/experiments/knapen_aot/AOT/AOT_stimuli/pictures/0327_fw.png	141.75041007995605	
20	42.07438898086548	picture	0		240	18.0	/experiments/knapen_aot/AOT/AOT_stimuli/pictures/1570_fw.png	141.75864505767822	1.9999208450317383
20	44.06614279747009	response	0	k		18.0	/experiments/knapen_aot/AOT/AOT_stimuli/pictures/1570_fw.png	143.75039887428284	
21	44.07430982589722	picture	0		126	19.0	/experiments/knapen_aot/AOT/AOT_stimuli/pictures/0992_fw.png	143.75856590270996	1.0553431510925293
21	45.10929083824158	response	0	j		19.0	/experiments/knapen_aot/AOT/AOT_stimuli/pictures/0992_fw.png	144.79354691505432	
22	45.129652976989746	picture	0		225	20.0	/experiments/knapen_aot/AOT/AOT_stimuli/pictures/0739_fw.png	144.8139090538025	1.8818879127502441
22	46.9994900226593	response	0	k		20.0	/experiments/knapen_aot/AOT/AOT_stimuli/pictures/0739_fw.png	146.68374609947205	
23	47.01154088973999	picture	0		166	21.0	/experiments/knapen_aot/AOT/AOT_stimuli/pictures/1674_fw.png	146.69579696655273	1.3819680213928223
23	48.38274598121643	response	0	k		21.0	/experiments/knapen_aot/AOT/AOT_stimuli/pictures/1674_fw.png	148.06700205802917	
24	48.39350891113281	picture	0		147	22.0	/experiments/knapen_aot/AOT/AOT_stimuli/pictures/2115_fw.png	148.07776498794556	1.2225289344787598
24	49.607762813568115	response	0	k		22.0	/experiments/knapen_aot/AOT/AOT_stimuli/pictures/2115_fw.png	149.29201889038086	
25	49.61603784561157	picture	0		111	23.0	/experiments/knapen_aot/AOT/AOT_stimuli/pictures/0463_fw.png	149.30029392242432	0.9303209781646729
25	50.5328209400177	response	0	j		23.0	/experiments/knapen_aot/AOT/AOT_stimuli/pictures/0463_fw.png	150.21707701683044	
26	50.546358823776245	picture	0		128	24.0	/experiments/knapen_aot/AOT/AOT_stimuli/pictures/0917_fw.png	150.230614900589	1.0696589946746826
26	51.607767820358276	response	0	k		24.0	/experiments/knapen_aot/AOT/AOT_stimuli/pictures/0917_fw.png	151.29202389717102	
27	51.61601781845093	picture	0		127	25.0	/experiments/knapen_aot/AOT/AOT_stimuli/pictures/0623_fw.png	151.30027389526367	1.0622451305389404
27	52.66615700721741	response	0	j		25.0	/experiments/knapen_aot/AOT/AOT_stimuli/pictures/0623_fw.png	152.35041308403015	
28	52.67826294898987	picture	0		164	26.0	/experiments/knapen_aot/AOT/AOT_stimuli/pictures/0080_fw.png	152.3625190258026	1.3679978847503662
28	54.03281283378601	response	0	j		26.0	/experiments/knapen_aot/AOT/AOT_stimuli/pictures/0080_fw.png	153.71706891059875	
29	54.046260833740234	picture	0		119	27.0	/experiments/knapen_aot/AOT/AOT_stimuli/pictures/2146_fw.png	153.73051691055298	0.9999761581420898
29	55.0327467918396	response	0	j		27.0	/experiments/knapen_aot/AOT/AOT_stimuli/pictures/2146_fw.png	154.71700286865234	
30	55.046236991882324	picture	0		629	28.0	/experiments/knapen_aot/AOT/AOT_stimuli/pictures/1330_fw.png	154.73049306869507	5.2499189376831055
30	60.282727003097534	response	0	k		28.0	/experiments/knapen_aot/AOT/AOT_stimuli/pictures/1330_fw.png	159.96698307991028	
31	60.29615592956543	picture	0		104	29.0	/experiments/knapen_aot/AOT/AOT_stimuli/pictures/0904_fw.png	159.98041200637817	0.8749959468841553
31	61.15770983695984	response	0	j		29.0	/experiments/knapen_aot/AOT/AOT_stimuli/pictures/0904_fw.png	160.84196591377258	
32	61.171151876449585	picture	0		111	30.0	/experiments/knapen_aot/AOT/AOT_stimuli/pictures/1127_fw.png	160.85540795326233	0.9305510520935059
32	62.09105086326599	response	0	k		30.0	/experiments/knapen_aot/AOT/AOT_stimuli/pictures/1127_fw.png	161.77530694007874	
33	62.10170292854309	picture	0		334	31.0	/experiments/knapen_aot/AOT/AOT_stimuli/pictures/0396_fw.png	161.78595900535583	2.7846720218658447
33	64.87448191642761	response	0	j		31.0	/experiments/knapen_aot/AOT/AOT_stimuli/pictures/0396_fw.png	164.55873799324036	
34	64.88637495040894	picture	0		139	32.0	/experiments/knapen_aot/AOT/AOT_stimuli/pictures/0546_fw.png	164.57063102722168	1.1597449779510498
34	66.03268885612488	response	0	j		32.0	/experiments/knapen_aot/AOT/AOT_stimuli/pictures/0546_fw.png	165.71694493293762	
35	66.04611992835999	picture	0		137	33.0	/experiments/knapen_aot/AOT/AOT_stimuli/pictures/1220_fw.png	165.73037600517273	1.1457910537719727
35	67.18275380134583	response	0	k		33.0	/experiments/knapen_aot/AOT/AOT_stimuli/pictures/1220_fw.png	166.86700987815857	
36	67.19191098213196	picture	0		98	34.0	/experiments/knapen_aot/AOT/AOT_stimuli/pictures/0912_fw.png	166.8761670589447	0.8240430355072021
36	67.99938702583313	response	0	j		34.0	/experiments/knapen_aot/AOT/AOT_stimuli/pictures/0912_fw.png	167.68364310264587	
37	68.01595401763916	picture	0		119	35.0	/experiments/knapen_aot/AOT/AOT_stimuli/pictures/1772_fw.png	167.7002100944519	0.9953558444976807
37	68.99937295913696	response	0	k		35.0	/experiments/knapen_aot/AOT/AOT_stimuli/pictures/1772_fw.png	168.6836290359497	
38	69.01130986213684	picture	0		112	36.0	/experiments/knapen_aot/AOT/AOT_stimuli/pictures/0366_fw.png	168.69556593894958	0.9305911064147949
38	69.93263387680054	response	0	k		36.0	/experiments/knapen_aot/AOT/AOT_stimuli/pictures/0366_fw.png	169.61688995361328	
39	69.94190096855164	picture	0		137	37.0	/experiments/knapen_aot/AOT/AOT_stimuli/pictures/1617_fw.png	169.62615704536438	1.1459360122680664
39	71.07437491416931	response	0	j		37.0	/experiments/knapen_aot/AOT/AOT_stimuli/pictures/1617_fw.png	170.75863099098206	
40	71.0878369808197	picture	0		126	38.0	/experiments/knapen_aot/AOT/AOT_stimuli/pictures/0855_fw.png	170.77209305763245	1.055433988571167
40	72.12605786323547	response	0	k		38.0	/experiments/knapen_aot/AOT/AOT_stimuli/pictures/0855_fw.png	171.81031394004822	
41	72.14327096939087	picture	0		115	39.0	/experiments/knapen_aot/AOT/AOT_stimuli/pictures/0709_fw.png	171.8275270462036	0.9583098888397217
41	73.09102082252502	response	0	k		39.0	/experiments/knapen_aot/AOT/AOT_stimuli/pictures/0709_fw.png	172.77527689933777	
42	73.10158085823059	picture	0		104	40.0	/experiments/knapen_aot/AOT/AOT_stimuli/pictures/0776_fw.png	172.78583693504333	0.8680570125579834
42	73.95770502090454	response	0	j		40.0	/experiments/knapen_aot/AOT/AOT_stimuli/pictures/0776_fw.png	173.64196109771729	
43	73.96963787078857	picture	0		181	41.0	/experiments/knapen_aot/AOT/AOT_stimuli/pictures/0861_fw.png	173.65389394760132	1.5069200992584229
43	75.46604990959167	response	0	k		41.0	/experiments/knapen_aot/AOT/AOT_stimuli/pictures/0861_fw.png	175.15030598640442	
44	75.476557970047	picture	0		153	42.0	/experiments/knapen_aot/AOT/AOT_stimuli/pictures/1450_fw.png	175.16081404685974	1.281095027923584
44	76.74103689193726	response	0	j		42.0	/experiments/knapen_aot/AOT/AOT_stimuli/pictures/1450_fw.png	176.42529296875	
45	76.75765299797058	picture	0		653	43.0	/experiments/knapen_aot/AOT/AOT_stimuli/pictures/1113_fw.png	176.44190907478333	5.441500902175903
45	82.19100785255432	response	0	k		43.0	/experiments/knapen_aot/AOT/AOT_stimuli/pictures/1113_fw.png	181.87526392936707	
46	82.19915390014648	picture	0		116	44.0	/experiments/knapen_aot/AOT/AOT_stimuli/pictures/1583_fw.png	181.88340997695923	0.9718129634857178
46	83.15764594078064	response	0	j		44.0	/experiments/knapen_aot/AOT/AOT_stimuli/pictures/1583_fw.png	182.84190201759338	
47	83.1709668636322	picture	0		111	45.0	/experiments/knapen_aot/AOT/AOT_stimuli/pictures/1708_fw.png	182.85522294044495	0.9307119846343994
47	84.09094095230103	response	0	j		45.0	/experiments/knapen_aot/AOT/AOT_stimuli/pictures/1708_fw.png	183.77519702911377	
48	84.1016788482666	picture	0		118	46.0	/experiments/knapen_aot/AOT/AOT_stimuli/pictures/0780_fw.png	183.78593492507935	0.985908031463623
48	85.0742998123169	response	0	k		46.0	/experiments/knapen_aot/AOT/AOT_stimuli/pictures/0780_fw.png	184.75855588912964	
49	85.08758687973022	picture	0		103	47.0	/experiments/knapen_aot/AOT/AOT_stimuli/pictures/0375_fw.png	184.77184295654297	0.869981050491333
49	85.93410587310791	response	0	j		47.0	/experiments/knapen_aot/AOT/AOT_stimuli/pictures/0375_fw.png	185.61836194992065	
50	85.95756793022156	picture	0		133	48.0	/experiments/knapen_aot/AOT/AOT_stimuli/pictures/1838_fw.png	185.6418240070343	1.1091840267181396
50	87.05769491195679	response	0	j		48.0	/experiments/knapen_aot/AOT/AOT_stimuli/pictures/1838_fw.png	186.74195098876953	
51	87.0667519569397	picture	0		183	49.0	/experiments/knapen_aot/AOT/AOT_stimuli/pictures/2107_fw.png	186.75100803375244	1.5277559757232666
51	88.58260583877563	response	0	k		49.0	/experiments/knapen_aot/AOT/AOT_stimuli/pictures/2107_fw.png	188.26686191558838	
52	88.59450793266296	picture	0		141	50.0	/experiments/knapen_aot/AOT/AOT_stimuli/pictures/1033_fw.png	188.2787640094757	1.1735799312591553
52	89.75757479667664	response	0	j		50.0	/experiments/knapen_aot/AOT/AOT_stimuli/pictures/1033_fw.png	189.44183087348938	
53	89.76808786392212	picture	0		125	51.0	/experiments/knapen_aot/AOT/AOT_stimuli/pictures/2099_fw.png	189.45234394073486	1.0479300022125244
53	90.79926991462708	response	0	j		51.0	/experiments/knapen_aot/AOT/AOT_stimuli/pictures/2099_fw.png	190.48352599143982	
54	90.81601786613464	picture	0		101	52.0	/experiments/knapen_aot/AOT/AOT_stimuli/pictures/0282_fw.png	190.5002739429474	0.8478641510009766
54	91.64921188354492	response	0	j		52.0	/experiments/knapen_aot/AOT/AOT_stimuli/pictures/0282_fw.png	191.33346796035767	
55	91.66388201713562	picture	0		117	53.0	/experiments/knapen_aot/AOT/AOT_stimuli/pictures/0092_fw.png	191.34813809394836	0.9791958332061768
55	92.63257002830505	response	0	j		53.0	/experiments/knapen_aot/AOT/AOT_stimuli/pictures/0092_fw.png	192.3168261051178	
56	92.6430778503418	picture	0		219	54.0	/experiments/knapen_aot/AOT/AOT_stimuli/pictures/2088_fw.png	192.32733392715454	1.8263399600982666
56	94.457594871521	response	0	k		54.0	/experiments/knapen_aot/AOT/AOT_stimuli/pictures/2088_fw.png	194.14185094833374	
57	94.46941781044006	picture	0		280	55.0	/experiments/knapen_aot/AOT/AOT_stimuli/pictures/1802_fw.png	194.1536738872528	2.333299160003662
57	96.79092597961426	response	0	k		55.0	/experiments/knapen_aot/AOT/AOT_stimuli/pictures/1802_fw.png	196.475182056427	
58	96.80271697044373	picture	0		1027	56.0	/experiments/knapen_aot/AOT/AOT_stimuli/pictures/1798_fw.png	196.48697304725647	8.555495023727417
58	105.34920883178711	response	0	k		56.0	/experiments/knapen_aot/AOT/AOT_stimuli/pictures/1798_fw.png	205.03346490859985	
59	105.35821199417114	picture	0		117	57.0	/experiments/knapen_aot/AOT/AOT_stimuli/pictures/2104_fw.png	205.0424680709839	0.9791660308837891
59	106.31739687919617	response	0	k		57.0	/experiments/knapen_aot/AOT/AOT_stimuli/pictures/2104_fw.png	206.0016529560089	
60	106.33737802505493	picture	0		98	58.0	/experiments/knapen_aot/AOT/AOT_stimuli/pictures/0703_fw.png	206.02163410186768	0.8283958435058594
60	107.1424298286438	response	0	j		58.0	/experiments/knapen_aot/AOT/AOT_stimuli/pictures/0703_fw.png	206.82668590545654	
61	107.16577386856079	picture	0		165	59.0	/experiments/knapen_aot/AOT/AOT_stimuli/pictures/1808_fw.png	206.85002994537354	1.379945993423462
61	108.526437997818	response	0	k		59.0	/experiments/knapen_aot/AOT/AOT_stimuli/pictures/1808_fw.png	208.21069407463074	
62	108.54571986198425	picture	0		117	60.0	/experiments/knapen_aot/AOT/AOT_stimuli/pictures/0121_fw.png	208.229975938797	0.9791491031646729
62	109.51585102081299	response	0	k		60.0	/experiments/knapen_aot/AOT/AOT_stimuli/pictures/0121_fw.png	209.20010709762573	
63	109.52486896514893	picture	0		265	61.0	/experiments/knapen_aot/AOT/AOT_stimuli/pictures/1162_fw.png	209.20912504196167	2.2158639430999756
63	111.72417879104614	response	0	k		61.0	/experiments/knapen_aot/AOT/AOT_stimuli/pictures/1162_fw.png	211.4084348678589	
64	111.7407329082489	picture	0		185	62.0	/experiments/knapen_aot/AOT/AOT_stimuli/pictures/1573_fw.png	211.42498898506165	1.5499730110168457
64	113.27495098114014	response	0	k		62.0	/experiments/knapen_aot/AOT/AOT_stimuli/pictures/1573_fw.png	212.95920705795288	
65	113.29070591926575	picture	0		129	63.0	/experiments/knapen_aot/AOT/AOT_stimuli/pictures/0722_fw.png	212.9749619960785	1.0835950374603271
65	114.35825991630554	response	0	k		63.0	/experiments/knapen_aot/AOT/AOT_stimuli/pictures/0722_fw.png	214.0425159931183	
66	114.37430095672607	picture	0		161	64.0	/experiments/knapen_aot/AOT/AOT_stimuli/pictures/0764_fw.png	214.05855703353882	1.3449020385742188
66	115.70750594139099	response	0	k		64.0	/experiments/knapen_aot/AOT/AOT_stimuli/pictures/0764_fw.png	215.39176201820374	
67	115.7192029953003	picture	0		223	65.0	/experiments/knapen_aot/AOT/AOT_stimuli/pictures/0242_fw.png	215.40345907211304	1.8631808757781982
67	117.56652498245239	response	0	k		65.0	/experiments/knapen_aot/AOT/AOT_stimuli/pictures/0242_fw.png	217.25078105926514	
68	117.58238387107849	picture	0		196	66.0	/experiments/knapen_aot/AOT/AOT_stimuli/pictures/1965_fw.png	217.26663994789124	1.6367909908294678
68	119.20752787590027	response	0	k		66.0	/experiments/knapen_aot/AOT/AOT_stimuli/pictures/1965_fw.png	218.891783952713	
69	119.21917486190796	picture	0		228	67.0	/experiments/knapen_aot/AOT/AOT_stimuli/pictures/1752_fw.png	218.9034309387207	1.9048731327056885
69	121.10814595222473	response	0	k		67.0	/experiments/knapen_aot/AOT/AOT_stimuli/pictures/1752_fw.png	220.79240202903748	
70	121.12404799461365	picture	0		129	68.0	/experiments/knapen_aot/AOT/AOT_stimuli/pictures/0542_fw.png	220.8083040714264	1.0833239555358887
70	122.19153785705566	response	0	k		68.0	/experiments/knapen_aot/AOT/AOT_stimuli/pictures/0542_fw.png	221.8757939338684	
71	122.20737195014954	picture	0		129	69.0	/experiments/knapen_aot/AOT/AOT_stimuli/pictures/0742_fw.png	221.89162802696228	1.0833158493041992
71	123.27484679222107	response	0	k		69.0	/experiments/knapen_aot/AOT/AOT_stimuli/pictures/0742_fw.png	222.9591028690338	
72	123.29068779945374	picture	0		128	70.0	/experiments/knapen_aot/AOT/AOT_stimuli/pictures/0154_fw.png	222.97494387626648	1.0673701763153076
72	124.34242081642151	response	0	j		70.0	/experiments/knapen_aot/AOT/AOT_stimuli/pictures/0154_fw.png	224.02667689323425	
73	124.35805797576904	picture	0		86	71.0	/experiments/knapen_aot/AOT/AOT_stimuli/pictures/0075_fw.png	224.0423140525818	0.7242228984832764
73	125.06648397445679	response	0	j		71.0	/experiments/knapen_aot/AOT/AOT_stimuli/pictures/0075_fw.png	224.75074005126953	
74	125.08228087425232	picture	0		77	72.0	/experiments/knapen_aot/AOT/AOT_stimuli/pictures/0942_fw.png	224.76653695106506	0.6437771320343018
74	125.71582984924316	response	0	j		72.0	/experiments/knapen_aot/AOT/AOT_stimuli/pictures/0942_fw.png	225.4000859260559	
75	125.72605800628662	picture	0		109	73.0	/experiments/knapen_aot/AOT/AOT_stimuli/pictures/1201_fw.png	225.41031408309937	0.9097378253936768
75	126.62412786483765	response	0	j		73.0	/experiments/knapen_aot/AOT/AOT_stimuli/pictures/1201_fw.png	226.3083839416504	
76	126.6357958316803	picture	0		154	74.0	/experiments/knapen_aot/AOT/AOT_stimuli/pictures/1250_fw.png	226.32005190849304	1.2847189903259277
76	127.9074399471283	response	0	k		74.0	/experiments/knapen_aot/AOT/AOT_stimuli/pictures/1250_fw.png	227.59169602394104	
77	127.92051482200623	picture	0		158	75.0	/experiments/knapen_aot/AOT/AOT_stimuli/pictures/0663_fw.png	227.60477089881897	1.3284711837768555
77	129.23311495780945	response	0	k		75.0	/experiments/knapen_aot/AOT/AOT_stimuli/pictures/0663_fw.png	228.9173710346222	
78	129.24898600578308	picture	0		118	76.0	/experiments/knapen_aot/AOT/AOT_stimuli/pictures/1723_fw.png	228.93324208259583	0.9839489459991455
78	130.22407793998718	response	0	j		76.0	/experiments/knapen_aot/AOT/AOT_stimuli/pictures/1723_fw.png	229.90833401679993	
79	130.23293495178223	picture	0		187	77.0	/experiments/knapen_aot/AOT/AOT_stimuli/pictures/0650_fw.png	229.91719102859497	1.5626940727233887
79	131.78245997428894	response	0	j		77.0	/experiments/knapen_aot/AOT/AOT_stimuli/pictures/0650_fw.png	231.46671605110168	
80	131.79562902450562	picture	0		99	78.0	/experiments/knapen_aot/AOT/AOT_stimuli/pictures/0750_fw.png	231.47988510131836	0.8331568241119385
80	132.61568593978882	response	0	j		78.0	/experiments/knapen_aot/AOT/AOT_stimuli/pictures/0750_fw.png	232.29994201660156	
81	132.62878584861755	picture	0		247	79.0	/experiments/knapen_aot/AOT/AOT_stimuli/pictures/0472_fw.png	232.3130419254303	2.062540054321289
81	134.68241786956787	response	0	k		79.0	/experiments/knapen_aot/AOT/AOT_stimuli/pictures/0472_fw.png	234.36667394638062	
82	134.69132590293884	picture	0		99	80.0	/experiments/knapen_aot/AOT/AOT_stimuli/pictures/1601_fw.png	234.3755819797516	0.8325960636138916
82	135.50738382339478	response	0	j		80.0	/experiments/knapen_aot/AOT/AOT_stimuli/pictures/1601_fw.png	235.19163990020752	
83	135.52392196655273	picture	0		85	81.0	/experiments/knapen_aot/AOT/AOT_stimuli/pictures/0688_fw.png	235.20817804336548	0.7089989185333252
83	136.22406196594238	response	0	j		81.0	/experiments/knapen_aot/AOT/AOT_stimuli/pictures/0688_fw.png	235.90831804275513	
84	136.23292088508606	picture	0		83	82.0	/experiments/knapen_aot/AOT/AOT_stimuli/pictures/1452_fw.png	235.9171769618988	0.6944189071655273
84	136.91582584381104	response	0	j		82.0	/experiments/knapen_aot/AOT/AOT_stimuli/pictures/1452_fw.png	236.60008192062378	
85	136.9273397922516	picture	0		92	83.0	/experiments/knapen_aot/AOT/AOT_stimuli/pictures/0009_fw.png	236.61159586906433	0.7778091430664062
85	137.6913299560547	response	0	k		83.0	/experiments/knapen_aot/AOT/AOT_stimuli/pictures/0009_fw.png	237.37558603286743	
86	137.705148935318	picture	0		112	84.0	/experiments/knapen_aot/AOT/AOT_stimuli/pictures/1905_fw.png	237.38940501213074	0.9374370574951172
86	138.63239288330078	response	0	j		84.0	/experiments/knapen_aot/AOT/AOT_stimuli/pictures/1905_fw.png	238.31664896011353	
87	138.6425859928131	picture	0		78	85.0	/experiments/knapen_aot/AOT/AOT_stimuli/pictures/1012_fw.png	238.32684206962585	0.6527988910675049
87	139.28238987922668	response	0	j		85.0	/experiments/knapen_aot/AOT/AOT_stimuli/pictures/1012_fw.png	238.96664595603943	
88	139.29538488388062	picture	0		569	86.0	/experiments/knapen_aot/AOT/AOT_stimuli/pictures/2168_fw.png	238.97964096069336	4.750016927719116
88	144.03236198425293	response	0	j		86.0	/experiments/knapen_aot/AOT/AOT_stimuli/pictures/2168_fw.png	243.71661806106567	
89	144.04540181159973	picture	0		568	87.0	/experiments/knapen_aot/AOT/AOT_stimuli/pictures/0843_fw.png	243.72965788841248	4.74520206451416
89	148.77461791038513	response	0	k		87.0	/experiments/knapen_aot/AOT/AOT_stimuli/pictures/0843_fw.png	248.45887398719788	
90	148.7906038761139	picture	0		136	88.0	/experiments/knapen_aot/AOT/AOT_stimuli/pictures/1771_fw.png	248.47485995292664	1.1366209983825684
90	149.91568088531494	response	0	k		88.0	/experiments/knapen_aot/AOT/AOT_stimuli/pictures/1771_fw.png	249.59993696212769	
91	149.92722487449646	picture	0		150	89.0	/experiments/knapen_aot/AOT/AOT_stimuli/pictures/0516_fw.png	249.6114809513092	1.250020980834961
91	151.15879201889038	response	0	k		89.0	/experiments/knapen_aot/AOT/AOT_stimuli/pictures/0516_fw.png	250.84304809570312	
92	151.17724585533142	picture	0		127	90.0	/experiments/knapen_aot/AOT/AOT_stimuli/pictures/1291_fw.png	250.86150193214417	1.0555040836334229
92	152.22401881217957	response	0	k		90.0	/experiments/knapen_aot/AOT/AOT_stimuli/pictures/1291_fw.png	251.9082748889923	
93	152.23274993896484	picture	0		349	91.0	/experiments/knapen_aot/AOT/AOT_stimuli/pictures/1657_fw.png	251.9170060157776	2.9097020626068115
93	155.1322729587555	response	0	j		91.0	/experiments/knapen_aot/AOT/AOT_stimuli/pictures/1657_fw.png	254.81652903556824	
94	155.14245200157166	picture	0		101	92.0	/experiments/knapen_aot/AOT/AOT_stimuli/pictures/1258_fw.png	254.8267080783844	0.8402829170227051
94	155.97396898269653	response	0	j		92.0	/experiments/knapen_aot/AOT/AOT_stimuli/pictures/1258_fw.png	255.65822505950928	
95	155.98273491859436	picture	0		128	93.0	/experiments/knapen_aot/AOT/AOT_stimuli/pictures/1118_fw.png	255.6669909954071	1.069411039352417
95	157.0406370162964	response	0	j		93.0	/experiments/knapen_aot/AOT/AOT_stimuli/pictures/1118_fw.png	256.72489309310913	
96	157.05214595794678	picture	0		143	94.0	/experiments/knapen_aot/AOT/AOT_stimuli/pictures/0528_fw.png	256.7364020347595	1.1945040225982666
96	158.23285698890686	response	0	k		94.0	/experiments/knapen_aot/AOT/AOT_stimuli/pictures/0528_fw.png	257.9171130657196	
97	158.24664998054504	picture	0		104	95.0	/experiments/knapen_aot/AOT/AOT_stimuli/pictures/1096_fw.png	257.9309060573578	0.8749468326568604
97	159.10777592658997	response	0	k		95.0	/experiments/knapen_aot/AOT/AOT_stimuli/pictures/1096_fw.png	258.7920320034027	
98	159.1215968132019	picture	0		114	96.0	/experiments/knapen_aot/AOT/AOT_stimuli/pictures/1663_fw.png	258.80585289001465	0.9583101272583008
98	160.06615090370178	response	0	k		96.0	/experiments/knapen_aot/AOT/AOT_stimuli/pictures/1663_fw.png	259.7504069805145	
99	160.0799069404602	picture	0		92	97.0	/experiments/knapen_aot/AOT/AOT_stimuli/pictures/2160_fw.png	259.76416301727295	0.7709479331970215
99	160.8406219482422	response	0	j		97.0	/experiments/knapen_aot/AOT/AOT_stimuli/pictures/2160_fw.png	260.52487802505493	
100	160.85085487365723	picture	0		177	98.0	/experiments/knapen_aot/AOT/AOT_stimuli/pictures/0499_fw.png	260.53511095046997	1.4790539741516113
100	162.31608891487122	response	0	j		98.0	/experiments/knapen_aot/AOT/AOT_stimuli/pictures/0499_fw.png	262.00034499168396	
101	162.32990884780884	picture	0		145	99.0	/experiments/knapen_aot/AOT/AOT_stimuli/pictures/1228_fw.png	262.0141649246216	1.2152431011199951
101	163.5259268283844	response	0	j		99.0	/experiments/knapen_aot/AOT/AOT_stimuli/pictures/1228_fw.png	263.21018290519714	
102	163.54515194892883	picture	0		113	100.0	/experiments/knapen_aot/AOT/AOT_stimuli/pictures/1789_fw.png	263.2294080257416	0.9374599456787109
102	164.47393083572388	response	0	j		100.0	/experiments/knapen_aot/AOT/AOT_stimuli/pictures/1789_fw.png	264.1581869125366	
103	164.48261189460754	picture	0		94	101.0	/experiments/knapen_aot/AOT/AOT_stimuli/pictures/2022_fw.png	264.1668679714203	0.7847199440002441
103	165.25725483894348	response	0	k		101.0	/experiments/knapen_aot/AOT/AOT_stimuli/pictures/2022_fw.png	264.9415109157562	
104	165.2673318386078	picture	0		82	102.0	/experiments/knapen_aot/AOT/AOT_stimuli/pictures/1650_fw.png	264.95158791542053	0.6875581741333008
104	165.94107580184937	response	0	j		102.0	/experiments/knapen_aot/AOT/AOT_stimuli/pictures/1650_fw.png	265.6253318786621	
105	165.9548900127411	picture	0		114	103.0	/experiments/knapen_aot/AOT/AOT_stimuli/pictures/1555_fw.png	265.63914608955383	0.9582748413085938
105	166.89944696426392	response	0	j		103.0	/experiments/knapen_aot/AOT/AOT_stimuli/pictures/1555_fw.png	266.58370304107666	
106	166.91316485404968	picture	0		87	104.0	/experiments/knapen_aot/AOT/AOT_stimuli/pictures/1219_fw.png	266.5974209308624	0.7291829586029053
106	167.63225889205933	response	0	j		104.0	/experiments/knapen_aot/AOT/AOT_stimuli/pictures/1219_fw.png	267.31651496887207	
107	167.6423478126526	picture	0		92	105.0	/experiments/knapen_aot/AOT/AOT_stimuli/pictures/1830_fw.png	267.32660388946533	0.7708241939544678
107	168.39935302734375	response	0	j		105.0	/experiments/knapen_aot/AOT/AOT_stimuli/pictures/1830_fw.png	268.0836091041565	
108	168.41317200660706	picture	0		155	106.0	/experiments/knapen_aot/AOT/AOT_stimuli/pictures/0186_fw.png	268.0974280834198	1.2985918521881104
108	169.69886779785156	response	0	k		106.0	/experiments/knapen_aot/AOT/AOT_stimuli/pictures/0186_fw.png	269.3831238746643	
109	169.71176385879517	picture	0		92	107.0	/experiments/knapen_aot/AOT/AOT_stimuli/pictures/0002_fw.png	269.3960199356079	0.7638871669769287
109	170.46554398536682	response	0	k		107.0	/experiments/knapen_aot/AOT/AOT_stimuli/pictures/0002_fw.png	270.14980006217957	
110	170.4756510257721	picture	0		692	108.0	/experiments/knapen_aot/AOT/AOT_stimuli/pictures/0629_fw.png	270.15990710258484	5.773199796676636
110	176.23267793655396	response	0	k		108.0	/experiments/knapen_aot/AOT/AOT_stimuli/pictures/0629_fw.png	275.9169340133667	
111	176.24885082244873	picture	0		104	109.0	/experiments/knapen_aot/AOT/AOT_stimuli/pictures/1306_fw.png	275.9331068992615	0.8749351501464844
111	177.10766100883484	response	0	k		109.0	/experiments/knapen_aot/AOT/AOT_stimuli/pictures/1306_fw.png	276.7919170856476	
112	177.12378597259521	picture	0		95	110.0	/experiments/knapen_aot/AOT/AOT_stimuli/pictures/2008_fw.png	276.80804204940796	0.7962348461151123
112	177.90722179412842	response	0	k		110.0	/experiments/knapen_aot/AOT/AOT_stimuli/pictures/2008_fw.png	277.59147787094116	
113	177.92002081871033	picture	0		99	111.0	/experiments/knapen_aot/AOT/AOT_stimuli/pictures/0848_fw.png	277.60427689552307	0.8264470100402832
113	178.73269200325012	response	0	k		111.0	/experiments/knapen_aot/AOT/AOT_stimuli/pictures/0848_fw.png	278.41694808006287	
114	178.7464678287506	picture	0		369	112.0	/experiments/knapen_aot/AOT/AOT_stimuli/pictures/1729_fw.png	278.43072390556335	3.085574150085449
114	181.815908908844	response	0	j		112.0	/experiments/knapen_aot/AOT/AOT_stimuli/pictures/1729_fw.png	281.50016498565674	
115	181.83204197883606	picture	0		150	113.0	/experiments/knapen_aot/AOT/AOT_stimuli/pictures/2034_fw.png	281.5162980556488	1.2546288967132568
115	183.07385087013245	response	0	k		113.0	/experiments/knapen_aot/AOT/AOT_stimuli/pictures/2034_fw.png	282.7581069469452	
116	183.08667087554932	picture	0		260	114.0	/experiments/knapen_aot/AOT/AOT_stimuli/pictures/0758_fw.png	282.77092695236206	2.166675090789795
116	185.24051880836487	response	0	k		114.0	/experiments/knapen_aot/AOT/AOT_stimuli/pictures/0758_fw.png	284.9247748851776	
117	185.2533459663391	picture	0		89	115.0	/experiments/knapen_aot/AOT/AOT_stimuli/pictures/2148_fw.png	284.93760204315186	0.7430269718170166
117	185.9824948310852	response	0	j		115.0	/experiments/knapen_aot/AOT/AOT_stimuli/pictures/2148_fw.png	285.66675090789795	
118	185.99637293815613	picture	0		101	116.0	/experiments/knapen_aot/AOT/AOT_stimuli/pictures/0513_fw.png	285.6806290149689	0.8473210334777832
118	186.83220791816711	response	0	k		116.0	/experiments/knapen_aot/AOT/AOT_stimuli/pictures/0513_fw.png	286.51646399497986	
119	186.8436939716339	picture	0		91	117.0	/experiments/knapen_aot/AOT/AOT_stimuli/pictures/0140_fw.png	286.52795004844666	0.756803035736084
119	187.5837459564209	response	0	j		117.0	/experiments/knapen_aot/AOT/AOT_stimuli/pictures/0140_fw.png	287.26800203323364	
120	187.60049700737	picture	0		207	118.0	/experiments/knapen_aot/AOT/AOT_stimuli/pictures/1017_fw.png	287.28475308418274	1.7315378189086914
120	189.31591200828552	response	0	k		118.0	/experiments/knapen_aot/AOT/AOT_stimuli/pictures/1017_fw.png	289.00016808509827	
121	189.3320348262787	picture	0		80	119.0	/experiments/knapen_aot/AOT/AOT_stimuli/pictures/0108_fw.png	289.01629090309143	0.6712281703948975
121	189.99055886268616	response	0	j		119.0	/experiments/knapen_aot/AOT/AOT_stimuli/pictures/0108_fw.png	289.6748149394989	
122	190.00326299667358	picture	0		171	120.0	/experiments/knapen_aot/AOT/AOT_stimuli/pictures/2001_fw.png	289.6875190734863	1.4236958026885986
122	191.4155249595642	response	0	k		120.0	/experiments/knapen_aot/AOT/AOT_stimuli/pictures/2001_fw.png	291.09978103637695	
123	191.42695879936218	picture	0		147	121.0	/experiments/knapen_aot/AOT/AOT_stimuli/pictures/2053_fw.png	291.1112148761749	1.2300970554351807
123	192.64048886299133	response	0	j		121.0	/experiments/knapen_aot/AOT/AOT_stimuli/pictures/2053_fw.png	292.3247449398041	
124	192.65705585479736	picture	0		106	122.0	/experiments/knapen_aot/AOT/AOT_stimuli/pictures/0337_fw.png	292.3413119316101	0.8916311264038086
124	193.53208780288696	response	0	k		122.0	/experiments/knapen_aot/AOT/AOT_stimuli/pictures/0337_fw.png	293.2163438796997	
125	193.54868698120117	picture	0		435	123.0	/experiments/knapen_aot/AOT/AOT_stimuli/pictures/1966_fw.png	293.2329430580139	3.6281349658966064
125	197.1587598323822	response	0	k		123.0	/experiments/knapen_aot/AOT/AOT_stimuli/pictures/1966_fw.png	296.84301590919495	
126	197.17682194709778	picture	0		769	124.0	/experiments/knapen_aot/AOT/AOT_stimuli/pictures/0724_fw.png	296.8610780239105	6.409657955169678
126	203.5674397945404	response	0	k		124.0	/experiments/knapen_aot/AOT/AOT_stimuli/pictures/0724_fw.png	303.25169587135315	
127	203.58647990226746	picture	0		94	125.0	/experiments/knapen_aot/AOT/AOT_stimuli/pictures/1839_fw.png	303.2707359790802	0.7846570014953613
127	204.35746598243713	response	0	k		125.0	/experiments/knapen_aot/AOT/AOT_stimuli/pictures/1839_fw.png	304.0417220592499	
128	204.37113690376282	picture	0		116	126.0	/experiments/knapen_aot/AOT/AOT_stimuli/pictures/0925_fw.png	304.05539298057556	0.9722249507904053
128	205.33204984664917	response	0	j		126.0	/experiments/knapen_aot/AOT/AOT_stimuli/pictures/0925_fw.png	305.0163059234619	
129	205.34336185455322	picture	0		117	127.0	/experiments/knapen_aot/AOT/AOT_stimuli/pictures/0281_fw.png	305.02761793136597	0.9803061485290527
129	206.30712985992432	response	0	j		127.0	/experiments/knapen_aot/AOT/AOT_stimuli/pictures/0281_fw.png	305.99138593673706	
130	206.32366800308228	picture	0		149	128.0	/experiments/knapen_aot/AOT/AOT_stimuli/pictures/1746_fw.png	306.007924079895	1.2500579357147217
130	207.55709195137024	response	0	j		128.0	/experiments/knapen_aot/AOT/AOT_stimuli/pictures/1746_fw.png	307.241348028183	
131	207.573725938797	picture	0		153	129.0	/experiments/knapen_aot/AOT/AOT_stimuli/pictures/1116_fw.png	307.25798201560974	1.2765228748321533
131	208.84039998054504	response	0	k		129.0	/experiments/knapen_aot/AOT/AOT_stimuli/pictures/1116_fw.png	308.5246560573578	
132	208.85024881362915	picture	0		86	130.0	/experiments/knapen_aot/AOT/AOT_stimuli/pictures/0579_fw.png	308.5345048904419	0.7152919769287109
132	209.55708599090576	response	0	j		130.0	/experiments/knapen_aot/AOT/AOT_stimuli/pictures/0579_fw.png	309.2413420677185	
133	209.56554079055786	picture	0		124	131.0	/experiments/knapen_aot/AOT/AOT_stimuli/pictures/0469_fw.png	309.2497968673706	1.041450023651123
133	210.58360195159912	response	0	j		131.0	/experiments/knapen_aot/AOT/AOT_stimuli/pictures/0469_fw.png	310.26785802841187	
134	210.60699081420898	picture	0		169	132.0	/experiments/knapen_aot/AOT/AOT_stimuli/pictures/1144_fw.png	310.29124689102173	1.4099609851837158
134	212.00708889961243	response	0	k		132.0	/experiments/knapen_aot/AOT/AOT_stimuli/pictures/1144_fw.png	311.69134497642517	
135	212.0169517993927	picture	0		311	133.0	/experiments/knapen_aot/AOT/AOT_stimuli/pictures/2171_fw.png	311.70120787620544	2.590240001678467
135	214.59194993972778	response	0	k		133.0	/experiments/knapen_aot/AOT/AOT_stimuli/pictures/2171_fw.png	314.2762060165405	
136	214.60719180107117	picture	0		103	134.0	/experiments/knapen_aot/AOT/AOT_stimuli/pictures/0667_fw.png	314.2914478778839	0.8610751628875732
136	215.45704889297485	response	0	k		134.0	/experiments/knapen_aot/AOT/AOT_stimuli/pictures/0667_fw.png	315.1413049697876	
137	215.46826696395874	picture	0		347	135.0	/experiments/knapen_aot/AOT/AOT_stimuli/pictures/0255_fw.png	315.1525230407715	2.888831853866577
137	218.3486988544464	response	0	k		135.0	/experiments/knapen_aot/AOT/AOT_stimuli/pictures/0255_fw.png	318.03295493125916	
138	218.35709881782532	picture	0		132	136.0	/experiments/knapen_aot/AOT/AOT_stimuli/pictures/0735_fw.png	318.04135489463806	1.1041741371154785
138	219.44869899749756	response	0	j		136.0	/experiments/knapen_aot/AOT/AOT_stimuli/pictures/0735_fw.png	319.1329550743103	
139	219.4612729549408	picture	0		92	137.0	/experiments/knapen_aot/AOT/AOT_stimuli/pictures/0562_fw.png	319.14552903175354	0.7640328407287598
139	220.21533679962158	response	0	k		137.0	/experiments/knapen_aot/AOT/AOT_stimuli/pictures/0562_fw.png	319.8995928764343	
140	220.22530579566956	picture	0		88	138.0	/experiments/knapen_aot/AOT/AOT_stimuli/pictures/0168_fw.png	319.9095618724823	0.7359511852264404
140	220.9486768245697	response	0	j		138.0	/experiments/knapen_aot/AOT/AOT_stimuli/pictures/0168_fw.png	320.63293290138245	
141	220.961256980896	picture	0		92	139.0	/experiments/knapen_aot/AOT/AOT_stimuli/pictures/1500_fw.png	320.64551305770874	0.763901948928833
141	221.71536684036255	response	0	k		139.0	/experiments/knapen_aot/AOT/AOT_stimuli/pictures/1500_fw.png	321.3996229171753	
142	221.72515892982483	picture	0		87	140.0	/experiments/knapen_aot/AOT/AOT_stimuli/pictures/1725_fw.png	321.4094150066376	0.7291710376739502
142	222.44068479537964	response	0	j		140.0	/experiments/knapen_aot/AOT/AOT_stimuli/pictures/1725_fw.png	322.1249408721924	
143	222.45432996749878	picture	0		144	141.0	/experiments/knapen_aot/AOT/AOT_stimuli/pictures/1129_fw.png	322.1385860443115	1.2083008289337158
143	223.6488378047943	response	0	k		141.0	/experiments/knapen_aot/AOT/AOT_stimuli/pictures/1129_fw.png	323.33309388160706	
144	223.6626307964325	picture	0		104	142.0	/experiments/knapen_aot/AOT/AOT_stimuli/pictures/0730_fw.png	323.34688687324524	0.8750550746917725
144	224.5238139629364	response	0	j		142.0	/experiments/knapen_aot/AOT/AOT_stimuli/pictures/0730_fw.png	324.20807003974915	
145	224.53768587112427	picture	0		87	143.0	/experiments/knapen_aot/AOT/AOT_stimuli/pictures/0519_fw.png	324.221941947937	0.729107141494751
145	225.25699281692505	response	0	j		143.0	/experiments/knapen_aot/AOT/AOT_stimuli/pictures/0519_fw.png	324.9412488937378	
146	225.26679301261902	picture	0		86	144.0	/experiments/knapen_aot/AOT/AOT_stimuli/pictures/0813_fw.png	324.95104908943176	0.7152128219604492
146	225.96684980392456	response	0	j		144.0	/experiments/knapen_aot/AOT/AOT_stimuli/pictures/0813_fw.png	325.6511058807373	
147	225.98200583457947	picture	0		95	145.0	/experiments/knapen_aot/AOT/AOT_stimuli/pictures/0247_fw.png	325.6662619113922	0.7917060852050781
147	226.7653489112854	response	0	k		145.0	/experiments/knapen_aot/AOT/AOT_stimuli/pictures/0247_fw.png	326.44960498809814	
148	226.77371191978455	picture	0		78	146.0	/experiments/knapen_aot/AOT/AOT_stimuli/pictures/1999_fw.png	326.4579679965973	0.6527659893035889
148	227.41532802581787	response	0	j		146.0	/experiments/knapen_aot/AOT/AOT_stimuli/pictures/1999_fw.png	327.0995841026306	
149	227.42647790908813	picture	0		136	147.0	/experiments/knapen_aot/AOT/AOT_stimuli/pictures/1519_fw.png	327.1107339859009	1.1387739181518555
149	228.54860997200012	response	0	k		147.0	/experiments/knapen_aot/AOT/AOT_stimuli/pictures/1519_fw.png	328.23286604881287	
150	228.56525182724	picture	0		87	148.0	/experiments/knapen_aot/AOT/AOT_stimuli/pictures/0512_fw.png	328.24950790405273	0.7293281555175781
150	229.28200101852417	response	0	j		148.0	/experiments/knapen_aot/AOT/AOT_stimuli/pictures/0512_fw.png	328.9662570953369	
151	229.29457998275757	picture	0		167	149.0	/experiments/knapen_aot/AOT/AOT_stimuli/pictures/1949_fw.png	328.9788360595703	1.3888609409332275
151	230.67375898361206	response	0	j		149.0	/experiments/knapen_aot/AOT/AOT_stimuli/pictures/1949_fw.png	330.3580150604248	
152	230.6834409236908	picture	0		146	150.0	/experiments/knapen_aot/AOT/AOT_stimuli/pictures/1181_fw.png	330.36769700050354	1.223567008972168
152	231.89035987854004	response	0	k		150.0	/experiments/knapen_aot/AOT/AOT_stimuli/pictures/1181_fw.png	331.5746159553528	
153	231.90700793266296	picture	0		159	151.0	/experiments/knapen_aot/AOT/AOT_stimuli/pictures/0289_fw.png	331.5912640094757	1.3250279426574707
153	233.22367191314697	response	0	k		151.0	/experiments/knapen_aot/AOT/AOT_stimuli/pictures/0289_fw.png	332.9079279899597	
154	233.23203587532043	picture	0		96	152.0	/experiments/knapen_aot/AOT/AOT_stimuli/pictures/0473_fw.png	332.9162919521332	0.8055369853973389
154	234.02383685112	response	0	j		152.0	/experiments/knapen_aot/AOT/AOT_stimuli/pictures/0473_fw.png	333.70809292793274	
155	234.03757286071777	picture	0		113	153.0	/experiments/knapen_aot/AOT/AOT_stimuli/pictures/1169_fw.png	333.7218289375305	0.9444310665130615
155	234.96682786941528	response	0	j		153.0	/experiments/knapen_aot/AOT/AOT_stimuli/pictures/1169_fw.png	334.651083946228	
156	234.98200392723083	picture	0		336	154.0	/experiments/knapen_aot/AOT/AOT_stimuli/pictures/1011_fw.png	334.6662600040436	2.805604934692383
156	237.77379202842712	response	0	j		154.0	/experiments/knapen_aot/AOT/AOT_stimuli/pictures/1011_fw.png	337.45804810523987	
157	237.78760886192322	picture	0		163	155.0	/experiments/knapen_aot/AOT/AOT_stimuli/pictures/1589_fw.png	337.47186493873596	1.3610069751739502
157	239.14028096199036	response	0	k		155.0	/experiments/knapen_aot/AOT/AOT_stimuli/pictures/1589_fw.png	338.8245370388031	
158	239.14861583709717	picture	0		130	156.0	/experiments/knapen_aot/AOT/AOT_stimuli/pictures/1184_fw.png	338.8328719139099	1.0833220481872559
158	240.22365999221802	response	0	k		156.0	/experiments/knapen_aot/AOT/AOT_stimuli/pictures/1184_fw.png	339.90791606903076	
159	240.23193788528442	picture	0		80	157.0	/experiments/knapen_aot/AOT/AOT_stimuli/pictures/2068_fw.png	339.91619396209717	0.6666181087493896
159	240.89027786254883	response	0	j		157.0	/experiments/knapen_aot/AOT/AOT_stimuli/pictures/2068_fw.png	340.5745339393616	
160	240.8985559940338	picture	0		132	158.0	/experiments/knapen_aot/AOT/AOT_stimuli/pictures/1025_fw.png	340.58281207084656	1.1042118072509766
160	241.983580827713	response	0	j		158.0	/experiments/knapen_aot/AOT/AOT_stimuli/pictures/1025_fw.png	341.66783690452576	
161	242.0027678012848	picture	0		120	159.0	/experiments/knapen_aot/AOT/AOT_stimuli/pictures/0025_fw.png	341.68702387809753	0.9999840259552002
161	242.98366498947144	response	0	k		159.0	/experiments/knapen_aot/AOT/AOT_stimuli/pictures/0025_fw.png	342.6679210662842	
162	243.00275182724	picture	0		98	160.0	/experiments/knapen_aot/AOT/AOT_stimuli/pictures/0269_fw.png	342.68700790405273	0.8208019733428955
162	243.80693888664246	response	0	k		160.0	/experiments/knapen_aot/AOT/AOT_stimuli/pictures/0269_fw.png	343.4911949634552	
163	243.82355380058289	picture	0		89	161.0	/experiments/knapen_aot/AOT/AOT_stimuli/pictures/1238_fw.png	343.50780987739563	0.7499752044677734
163	244.55701684951782	response	0	j		161.0	/experiments/knapen_aot/AOT/AOT_stimuli/pictures/1238_fw.png	344.24127292633057	
164	244.57352900505066	picture	0		107	162.0	/experiments/knapen_aot/AOT/AOT_stimuli/pictures/0365_fw.png	344.2577850818634	0.8945047855377197
164	245.4569399356842	response	0	k		162.0	/experiments/knapen_aot/AOT/AOT_stimuli/pictures/0365_fw.png	345.14119601249695	
165	245.46803379058838	picture	0		97	163.0	/experiments/knapen_aot/AOT/AOT_stimuli/pictures/0487_fw.png	345.1522898674011	0.8138091564178467
165	246.26527094841003	response	0	j		163.0	/experiments/knapen_aot/AOT/AOT_stimuli/pictures/0487_fw.png	345.9495270252228	
166	246.28184294700623	picture	0		107	164.0	/experiments/knapen_aot/AOT/AOT_stimuli/pictures/1177_fw.png	345.96609902381897	0.8944540023803711
166	247.16527390480042	response	0	j		164.0	/experiments/knapen_aot/AOT/AOT_stimuli/pictures/1177_fw.png	346.84952998161316	
167	247.1762969493866	picture	0		143	165.0	/experiments/knapen_aot/AOT/AOT_stimuli/pictures/0635_fw.png	346.86055302619934	1.1944220066070557
167	248.35693383216858	response	0	k		165.0	/experiments/knapen_aot/AOT/AOT_stimuli/pictures/0635_fw.png	348.0411899089813	
168	248.37071895599365	picture	0		247	166.0	/experiments/knapen_aot/AOT/AOT_stimuli/pictures/1717_fw.png	348.0549750328064	2.0693728923797607
168	250.42358493804932	response	0	k		166.0	/experiments/knapen_aot/AOT/AOT_stimuli/pictures/1717_fw.png	350.10784101486206	
169	250.4400918483734	picture	0		103	167.0	/experiments/knapen_aot/AOT/AOT_stimuli/pictures/0031_fw.png	350.12434792518616	0.8612170219421387
169	251.2902398109436	response	0	k		167.0	/experiments/knapen_aot/AOT/AOT_stimuli/pictures/0031_fw.png	350.97449588775635	
170	251.30130887031555	picture	0		111	168.0	/experiments/knapen_aot/AOT/AOT_stimuli/pictures/1089_fw.png	350.9855649471283	0.9235661029815674
170	252.20852398872375	response	0	j		168.0	/experiments/knapen_aot/AOT/AOT_stimuli/pictures/1089_fw.png	351.8927800655365	
171	252.22487497329712	picture	0		115	169.0	/experiments/knapen_aot/AOT/AOT_stimuli/pictures/1079_fw.png	351.90913105010986	0.9582910537719727
171	253.17354798316956	response	0	k		169.0	/experiments/knapen_aot/AOT/AOT_stimuli/pictures/1079_fw.png	352.8578040599823	
172	253.1831660270691	picture	0		120	170.0	/experiments/knapen_aot/AOT/AOT_stimuli/pictures/1491_fw.png	352.86742210388184	0.9999938011169434
172	254.17358493804932	response	0	j		170.0	/experiments/knapen_aot/AOT/AOT_stimuli/pictures/1491_fw.png	353.85784101486206	
173	254.18315982818604	picture	0		103	171.0	/experiments/knapen_aot/AOT/AOT_stimuli/pictures/2165_fw.png	353.8674159049988	0.8611180782318115
173	255.03184485435486	response	0	j		171.0	/experiments/knapen_aot/AOT/AOT_stimuli/pictures/2165_fw.png	354.7161009311676	
174	255.04427790641785	picture	0		111	172.0	/experiments/knapen_aot/AOT/AOT_stimuli/pictures/1819_fw.png	354.7285339832306	0.9235930442810059
174	255.95683693885803	response	0	k		172.0	/experiments/knapen_aot/AOT/AOT_stimuli/pictures/1819_fw.png	355.6410930156708	
175	255.96787095069885	picture	0		119	173.0	/experiments/knapen_aot/AOT/AOT_stimuli/pictures/1336_fw.png	355.6521270275116	0.9930698871612549
175	256.94857597351074	response	0	k		173.0	/experiments/knapen_aot/AOT/AOT_stimuli/pictures/1336_fw.png	356.6328320503235	
176	256.9609408378601	picture	0		103	174.0	/experiments/knapen_aot/AOT/AOT_stimuli/pictures/1438_fw.png	356.64519691467285	0.8541309833526611
176	257.8001399040222	response	0	k		174.0	/experiments/knapen_aot/AOT/AOT_stimuli/pictures/1438_fw.png	357.48439598083496	
177	257.81507182121277	picture	0		129	175.0	/experiments/knapen_aot/AOT/AOT_stimuli/pictures/0695_fw.png	357.4993278980255	1.0833730697631836
177	258.8818778991699	response	0	k		175.0	/experiments/knapen_aot/AOT/AOT_stimuli/pictures/0695_fw.png	358.56613397598267	
178	258.89844489097595	picture	0		90	176.0	/experiments/knapen_aot/AOT/AOT_stimuli/pictures/0779_fw.png	358.5827009677887	0.750006914138794
178	259.64022493362427	response	0	j		176.0	/experiments/knapen_aot/AOT/AOT_stimuli/pictures/0779_fw.png	359.324481010437	
179	259.64845180511475	picture	0		104	177.0	/experiments/knapen_aot/AOT/AOT_stimuli/pictures/0224_fw.png	359.3327078819275	0.8749711513519287
179	260.5068600177765	response	0	k		177.0	/experiments/knapen_aot/AOT/AOT_stimuli/pictures/0224_fw.png	360.19111609458923	
180	260.5234229564667	picture	0		91	178.0	/experiments/knapen_aot/AOT/AOT_stimuli/pictures/1106_fw.png	360.2076790332794	0.7639269828796387
180	261.2734968662262	response	0	j		178.0	/experiments/knapen_aot/AOT/AOT_stimuli/pictures/1106_fw.png	360.95775294303894	
181	261.2873499393463	picture	0		92	179.0	/experiments/knapen_aot/AOT/AOT_stimuli/pictures/0485_fw.png	360.97160601615906	0.7709319591522217
181	262.048544883728	response	0	j		179.0	/experiments/knapen_aot/AOT/AOT_stimuli/pictures/0485_fw.png	361.73280096054077	
182	262.05828189849854	stim	0		236			361.7425379753113	1.9651410579681396
182	264.00789284706116	response	0	space				363.6921489238739	
