trial_nr	onset	event_type	phase	response	nr_frames	picture_index	picture_file	onset_abs	duration
0	0.01081991195678711	stim	0		1508			31.368289947509766	12.570844173431396
0	12.565222978591919	response	0	space				43.9226930141449	
2	12.581664085388184	picture	0		172	0.0	/experiments/knapen_aot/AOT/AOT_stimuli/pictures/1056_fw.png	43.93913412094116	1.4348058700561523
2	14.006809949874878	response	0	j		0.0	/experiments/knapen_aot/AOT/AOT_stimuli/pictures/1056_fw.png	45.364279985427856	
3	14.016469955444336	picture	0		533	1.0	/experiments/knapen_aot/AOT/AOT_stimuli/pictures/0124_fw.png	45.373939990997314	4.4485390186309814
3	18.448434114456177	response	0	k		1.0	/experiments/knapen_aot/AOT/AOT_stimuli/pictures/0124_fw.png	49.805904150009155	
4	18.465008974075317	picture	0		163	2.0	/experiments/knapen_aot/AOT/AOT_stimuli/pictures/1622_fw.png	49.822479009628296	1.3639421463012695
4	19.81515407562256	response	0	k		2.0	/experiments/knapen_aot/AOT/AOT_stimuli/pictures/1622_fw.png	51.17262411117554	
5	19.828951120376587	picture	0		130	3.0	/experiments/knapen_aot/AOT/AOT_stimuli/pictures/0257_fw.png	51.186421155929565	1.0903308391571045
5	20.90681004524231	response	0	j		3.0	/experiments/knapen_aot/AOT/AOT_stimuli/pictures/0257_fw.png	52.26428008079529	
6	20.91928195953369	picture	0		144	4.0	/experiments/knapen_aot/AOT/AOT_stimuli/pictures/1088_fw.png	52.27675199508667	1.2081999778747559
6	22.115082025527954	response	0	k		4.0	/experiments/knapen_aot/AOT/AOT_stimuli/pictures/1088_fw.png	53.47255206108093	
7	22.127481937408447	picture	0		112	5.0	/experiments/knapen_aot/AOT/AOT_stimuli/pictures/0847_fw.png	53.484951972961426	0.9305360317230225
7	23.0484619140625	response	0	j		5.0	/experiments/knapen_aot/AOT/AOT_stimuli/pictures/0847_fw.png	54.40593194961548	
8	23.05801796913147	picture	0		1339	6.0	/experiments/knapen_aot/AOT/AOT_stimuli/pictures/1632_fw.png	54.41548800468445	11.159610986709595
8	34.199849128723145	response	0	k		6.0	/experiments/knapen_aot/AOT/AOT_stimuli/pictures/1632_fw.png	65.55731916427612	
9	34.217628955841064	picture	0		139	7.0	/experiments/knapen_aot/AOT/AOT_stimuli/pictures/0836_fw.png	65.57509899139404	1.1597509384155273
9	35.36497902870178	response	0	k		7.0	/experiments/knapen_aot/AOT/AOT_stimuli/pictures/0836_fw.png	66.72244906425476	
10	35.37737989425659	picture	0		121	8.0	/experiments/knapen_aot/AOT/AOT_stimuli/pictures/1245_fw.png	66.73484992980957	1.0069031715393066
10	36.3664710521698	response	0	k		8.0	/experiments/knapen_aot/AOT/AOT_stimuli/pictures/1245_fw.png	67.72394108772278	
11	36.3842830657959	picture	0		88	9.0	/experiments/knapen_aot/AOT/AOT_stimuli/pictures/0369_fw.png	67.74175310134888	0.7361149787902832
11	37.10664892196655	response	0	j		9.0	/experiments/knapen_aot/AOT/AOT_stimuli/pictures/0369_fw.png	68.46411895751953	
12	37.12039804458618	picture	0		196	10.0	/experiments/knapen_aot/AOT/AOT_stimuli/pictures/0346_fw.png	68.47786808013916	1.6389799118041992
12	38.74832797050476	response	0	k		10.0	/experiments/knapen_aot/AOT/AOT_stimuli/pictures/0346_fw.png	70.10579800605774	
13	38.75937795639038	picture	0		161	11.0	/experiments/knapen_aot/AOT/AOT_stimuli/pictures/0044_fw.png	70.11684799194336	1.3401141166687012
13	40.08996605873108	response	0	j		11.0	/experiments/knapen_aot/AOT/AOT_stimuli/pictures/0044_fw.png	71.44743609428406	
14	40.09949207305908	picture	0		95	12.0	/experiments/knapen_aot/AOT/AOT_stimuli/pictures/1597_fw.png	71.45696210861206	0.7916438579559326
14	40.881619930267334	response	0	j		12.0	/experiments/knapen_aot/AOT/AOT_stimuli/pictures/1597_fw.png	72.23908996582031	
15	40.891135931015015	picture	0		102	13.0	/experiments/knapen_aot/AOT/AOT_stimuli/pictures/1935_fw.png	72.248605966568	0.8542120456695557
15	41.731590032577515	response	0	j		13.0	/experiments/knapen_aot/AOT/AOT_stimuli/pictures/1935_fw.png	73.0890600681305	
16	41.74534797668457	picture	0		93	14.0	/experiments/knapen_aot/AOT/AOT_stimuli/pictures/0930_fw.png	73.10281801223755	0.7778129577636719
16	42.514944076538086	response	0	j		14.0	/experiments/knapen_aot/AOT/AOT_stimuli/pictures/0930_fw.png	73.87241411209106	
17	42.52316093444824	picture	0		163	15.0	/experiments/knapen_aot/AOT/AOT_stimuli/pictures/0827_fw.png	73.88063097000122	1.3609840869903564
17	43.87325406074524	response	0	k		15.0	/experiments/knapen_aot/AOT/AOT_stimuli/pictures/0827_fw.png	75.23072409629822	
18	43.8841450214386	picture	0		372	16.0	/experiments/knapen_aot/AOT/AOT_stimuli/pictures/1521_fw.png	75.24161505699158	3.0972440242767334
18	46.97324299812317	response	0	k		16.0	/experiments/knapen_aot/AOT/AOT_stimuli/pictures/1521_fw.png	78.33071303367615	
19	46.98138904571533	picture	0		124	17.0	/experiments/knapen_aot/AOT/AOT_stimuli/pictures/0784_fw.png	78.33885908126831	1.0346570014953613
19	48.00656199455261	response	0	k		17.0	/experiments/knapen_aot/AOT/AOT_stimuli/pictures/0784_fw.png	79.36403203010559	
20	48.01604604721069	picture	0		123	18.0	/experiments/knapen_aot/AOT/AOT_stimuli/pictures/1325_fw.png	79.37351608276367	1.0279269218444824
20	49.03151297569275	response	0	j		18.0	/experiments/knapen_aot/AOT/AOT_stimuli/pictures/1325_fw.png	80.38898301124573	
21	49.043972969055176	picture	0		118	19.0	/experiments/knapen_aot/AOT/AOT_stimuli/pictures/1930_fw.png	80.40144300460815	0.9790821075439453
21	50.01489496231079	response	0	j		19.0	/experiments/knapen_aot/AOT/AOT_stimuli/pictures/1930_fw.png	81.37236499786377	
22	50.02305507659912	picture	0		171	20.0	/experiments/knapen_aot/AOT/AOT_stimuli/pictures/0606_fw.png	81.3805251121521	1.4305088520050049
22	51.439918994903564	response	0	k		20.0	/experiments/knapen_aot/AOT/AOT_stimuli/pictures/0606_fw.png	82.79738903045654	
23	51.453563928604126	picture	0		296	21.0	/experiments/knapen_aot/AOT/AOT_stimuli/pictures/0549_fw.png	82.8110339641571	2.4721601009368896
23	53.914851903915405	response	0	j		21.0	/experiments/knapen_aot/AOT/AOT_stimuli/pictures/0549_fw.png	85.27232193946838	
24	53.925724029541016	picture	0		102	22.0	/experiments/knapen_aot/AOT/AOT_stimuli/pictures/0012_fw.png	85.283194065094	0.847357988357544
24	54.76482701301575	response	0	j		22.0	/experiments/knapen_aot/AOT/AOT_stimuli/pictures/0012_fw.png	86.12229704856873	
25	54.77308201789856	picture	0		185	23.0	/experiments/knapen_aot/AOT/AOT_stimuli/pictures/0969_fw.png	86.13055205345154	1.5416390895843506
25	56.30650496482849	response	0	k		23.0	/experiments/knapen_aot/AOT/AOT_stimuli/pictures/0969_fw.png	87.66397500038147	
26	56.31472110748291	picture	0		169	24.0	/experiments/knapen_aot/AOT/AOT_stimuli/pictures/0587_fw.png	87.67219114303589	1.4095549583435059
26	57.71494197845459	response	0	j		24.0	/experiments/knapen_aot/AOT/AOT_stimuli/pictures/0587_fw.png	89.07241201400757	
27	57.724276065826416	picture	0		285	25.0	/experiments/knapen_aot/AOT/AOT_stimuli/pictures/0525_fw.png	89.0817461013794	2.374985933303833
27	60.089839935302734	response	0	k		25.0	/experiments/knapen_aot/AOT/AOT_stimuli/pictures/0525_fw.png	91.44730997085571	
28	60.09926199913025	picture	0		168	26.0	/experiments/knapen_aot/AOT/AOT_stimuli/pictures/0186_fw.png	91.45673203468323	1.402764081954956
28	61.48983907699585	response	0	k		26.0	/experiments/knapen_aot/AOT/AOT_stimuli/pictures/0186_fw.png	92.84730911254883	
29	61.502026081085205	picture	0		102	27.0	/experiments/knapen_aot/AOT/AOT_stimuli/pictures/1450_fw.png	92.85949611663818	0.8543438911437988
29	62.348231077194214	response	0	k		27.0	/experiments/knapen_aot/AOT/AOT_stimuli/pictures/1450_fw.png	93.70570111274719	
30	62.356369972229004	picture	0		104	28.0	/experiments/knapen_aot/AOT/AOT_stimuli/pictures/1388_fw.png	93.71384000778198	0.8678829669952393
30	63.20799899101257	response	0	k		28.0	/experiments/knapen_aot/AOT/AOT_stimuli/pictures/1388_fw.png	94.56546902656555	
31	63.22425293922424	picture	0		118	29.0	/experiments/knapen_aot/AOT/AOT_stimuli/pictures/2011_fw.png	94.58172297477722	0.98614501953125
31	64.19133400917053	response	0	k		29.0	/experiments/knapen_aot/AOT/AOT_stimuli/pictures/2011_fw.png	95.54880404472351	
32	64.2103979587555	picture	0		149	30.0	/experiments/knapen_aot/AOT/AOT_stimuli/pictures/1256_fw.png	95.56786799430847	1.243006944656372
32	65.43981289863586	response	0	k		30.0	/experiments/knapen_aot/AOT/AOT_stimuli/pictures/1256_fw.png	96.79728293418884	
33	65.45340490341187	picture	0		124	31.0	/experiments/knapen_aot/AOT/AOT_stimuli/pictures/0362_fw.png	96.81087493896484	1.0417120456695557
33	66.48148202896118	response	0	j		31.0	/experiments/knapen_aot/AOT/AOT_stimuli/pictures/0362_fw.png	97.83895206451416	
34	66.49511694908142	picture	0		217	32.0	/experiments/knapen_aot/AOT/AOT_stimuli/pictures/2078_fw.png	97.8525869846344	1.8123810291290283
34	68.29812502861023	response	0	k		32.0	/experiments/knapen_aot/AOT/AOT_stimuli/pictures/2078_fw.png	99.65559506416321	
35	68.30749797821045	picture	0		122	33.0	/experiments/knapen_aot/AOT/AOT_stimuli/pictures/0464_fw.png	99.66496801376343	1.0208990573883057
35	69.3147439956665	response	0	j		33.0	/experiments/knapen_aot/AOT/AOT_stimuli/pictures/0464_fw.png	100.67221403121948	
36	69.32839703559875	picture	0		115	34.0	/experiments/knapen_aot/AOT/AOT_stimuli/pictures/2087_fw.png	100.68586707115173	0.9651980400085449
36	70.28148102760315	response	0	k		34.0	/experiments/knapen_aot/AOT/AOT_stimuli/pictures/2087_fw.png	101.63895106315613	
37	70.2935950756073	picture	0		130	35.0	/experiments/knapen_aot/AOT/AOT_stimuli/pictures/0585_fw.png	101.65106511116028	1.083446979522705
37	71.36471700668335	response	0	j		35.0	/experiments/knapen_aot/AOT/AOT_stimuli/pictures/0585_fw.png	102.72218704223633	
38	71.37704205513	picture	0		122	36.0	/experiments/knapen_aot/AOT/AOT_stimuli/pictures/0856_fw.png	102.73451209068298	1.0137689113616943
38	72.38139295578003	response	0	k		36.0	/experiments/knapen_aot/AOT/AOT_stimuli/pictures/0856_fw.png	103.73886299133301	
39	72.3908109664917	picture	0		111	37.0	/experiments/knapen_aot/AOT/AOT_stimuli/pictures/0271_fw.png	103.74828100204468	0.9238090515136719
39	73.30637097358704	response	0	k		37.0	/experiments/knapen_aot/AOT/AOT_stimuli/pictures/0271_fw.png	104.66384100914001	
40	73.31462001800537	picture	0		288	38.0	/experiments/knapen_aot/AOT/AOT_stimuli/pictures/1475_fw.png	104.67209005355835	2.402534008026123
40	75.70642399787903	response	0	k		38.0	/experiments/knapen_aot/AOT/AOT_stimuli/pictures/1475_fw.png	107.063894033432	
41	75.7171540260315	picture	0		112	39.0	/experiments/knapen_aot/AOT/AOT_stimuli/pictures/0760_fw.png	107.07462406158447	0.9308099746704102
41	76.63972210884094	response	0	j		39.0	/experiments/knapen_aot/AOT/AOT_stimuli/pictures/0760_fw.png	107.99719214439392	
42	76.6479640007019	picture	0		124	40.0	/experiments/knapen_aot/AOT/AOT_stimuli/pictures/2056_fw.png	108.00543403625488	1.034419059753418
42	77.67312502861023	response	0	k		40.0	/experiments/knapen_aot/AOT/AOT_stimuli/pictures/2056_fw.png	109.03059506416321	
43	77.68238306045532	picture	0		130	41.0	/experiments/knapen_aot/AOT/AOT_stimuli/pictures/0508_fw.png	109.0398530960083	1.0905919075012207
43	78.75639796257019	response	0	j		41.0	/experiments/knapen_aot/AOT/AOT_stimuli/pictures/0508_fw.png	110.11386799812317	
44	78.77297496795654	picture	0		152	42.0	/experiments/knapen_aot/AOT/AOT_stimuli/pictures/2037_fw.png	110.13044500350952	1.2705020904541016
44	80.03131890296936	response	0	j		42.0	/experiments/knapen_aot/AOT/AOT_stimuli/pictures/2037_fw.png	111.38878893852234	
45	80.04347705841064	picture	0		418	43.0	/experiments/knapen_aot/AOT/AOT_stimuli/pictures/1130_fw.png	111.40094709396362	3.479414939880371
45	83.51463294029236	response	0	k		43.0	/experiments/knapen_aot/AOT/AOT_stimuli/pictures/1130_fw.png	114.87210297584534	
46	83.52289199829102	picture	0		129	44.0	/experiments/knapen_aot/AOT/AOT_stimuli/pictures/1513_fw.png	114.880362033844	1.0761001110076904
46	84.58969306945801	response	0	k		44.0	/experiments/knapen_aot/AOT/AOT_stimuli/pictures/1513_fw.png	115.94716310501099	
47	84.5989921092987	picture	0		238	45.0	/experiments/knapen_aot/AOT/AOT_stimuli/pictures/1162_fw.png	115.95646214485168	1.9861068725585938
47	86.57302594184875	response	0	k		45.0	/experiments/knapen_aot/AOT/AOT_stimuli/pictures/1162_fw.png	117.93049597740173	
48	86.5850989818573	picture	0		223	46.0	/experiments/knapen_aot/AOT/AOT_stimuli/pictures/2168_fw.png	117.94256901741028	1.8545849323272705
48	88.42454409599304	response	0	k		46.0	/experiments/knapen_aot/AOT/AOT_stimuli/pictures/2168_fw.png	119.78201413154602	
49	88.43968391418457	picture	0		96	47.0	/experiments/knapen_aot/AOT/AOT_stimuli/pictures/1282_fw.png	119.79715394973755	0.8051390647888184
49	89.23128390312195	response	0	j		47.0	/experiments/knapen_aot/AOT/AOT_stimuli/pictures/1282_fw.png	120.58875393867493	
50	89.24482297897339	picture	0		107	48.0	/experiments/knapen_aot/AOT/AOT_stimuli/pictures/1372_fw.png	120.60229301452637	0.8957619667053223
50	90.13134407997131	response	0	j		48.0	/experiments/knapen_aot/AOT/AOT_stimuli/pictures/1372_fw.png	121.48881411552429	
51	90.14058494567871	picture	0		285	49.0	/experiments/knapen_aot/AOT/AOT_stimuli/pictures/1603_fw.png	121.49805498123169	2.3750030994415283
51	92.50636792182922	response	0	k		49.0	/experiments/knapen_aot/AOT/AOT_stimuli/pictures/1603_fw.png	123.8638379573822	
52	92.51558804512024	picture	0		110	50.0	/experiments/knapen_aot/AOT/AOT_stimuli/pictures/2155_fw.png	123.87305808067322	0.9166560173034668
52	93.41611289978027	response	0	k		50.0	/experiments/knapen_aot/AOT/AOT_stimuli/pictures/2155_fw.png	124.77358293533325	
53	93.4322440624237	picture	0		131	51.0	/experiments/knapen_aot/AOT/AOT_stimuli/pictures/1091_fw.png	124.78971409797668	1.0906150341033936
53	94.51464509963989	response	0	k		51.0	/experiments/knapen_aot/AOT/AOT_stimuli/pictures/1091_fw.png	125.87211513519287	
54	94.5228590965271	picture	0		115	52.0	/experiments/knapen_aot/AOT/AOT_stimuli/pictures/1079_fw.png	125.88032913208008	0.9583108425140381
54	95.47300601005554	response	0	k		52.0	/experiments/knapen_aot/AOT/AOT_stimuli/pictures/1079_fw.png	126.83047604560852	
55	95.48116993904114	picture	0		115	53.0	/experiments/knapen_aot/AOT/AOT_stimuli/pictures/1923_fw.png	126.83863997459412	0.9583380222320557
55	96.43128204345703	response	0	j		53.0	/experiments/knapen_aot/AOT/AOT_stimuli/pictures/1923_fw.png	127.78875207901001	
56	96.4395079612732	picture	0		102	54.0	/experiments/knapen_aot/AOT/AOT_stimuli/pictures/0328_fw.png	127.79697799682617	0.8539440631866455
56	97.28125500679016	response	0	j		54.0	/experiments/knapen_aot/AOT/AOT_stimuli/pictures/0328_fw.png	128.63872504234314	
57	97.29345202445984	picture	0		97	55.0	/experiments/knapen_aot/AOT/AOT_stimuli/pictures/1934_fw.png	128.65092206001282	0.8054749965667725
57	98.08959889411926	response	0	j		55.0	/experiments/knapen_aot/AOT/AOT_stimuli/pictures/1934_fw.png	129.44706892967224	
58	98.09892702102661	picture	0		102	56.0	/experiments/knapen_aot/AOT/AOT_stimuli/pictures/0028_fw.png	129.4563970565796	0.8541579246520996
58	98.93959093093872	response	0	j		56.0	/experiments/knapen_aot/AOT/AOT_stimuli/pictures/0028_fw.png	130.2970609664917	
59	98.95308494567871	picture	0		95	57.0	/experiments/knapen_aot/AOT/AOT_stimuli/pictures/0127_fw.png	130.3105549812317	0.7985200881958008
59	99.73963594436646	response	0	k		57.0	/experiments/knapen_aot/AOT/AOT_stimuli/pictures/0127_fw.png	131.09710597991943	
60	99.75160503387451	picture	0		115	58.0	/experiments/knapen_aot/AOT/AOT_stimuli/pictures/1344_fw.png	131.1090750694275	0.958327054977417
60	100.69794297218323	response	0	j		58.0	/experiments/knapen_aot/AOT/AOT_stimuli/pictures/1344_fw.png	132.0554130077362	
61	100.70993208885193	picture	0		104	59.0	/experiments/knapen_aot/AOT/AOT_stimuli/pictures/1707_fw.png	132.0674021244049	0.8680198192596436
61	101.5645821094513	response	0	j		59.0	/experiments/knapen_aot/AOT/AOT_stimuli/pictures/1707_fw.png	132.92205214500427	
62	101.57795190811157	picture	0		445	60.0	/experiments/knapen_aot/AOT/AOT_stimuli/pictures/0823_fw.png	132.93542194366455	3.715250015258789
62	105.28121089935303	response	0	k		60.0	/experiments/knapen_aot/AOT/AOT_stimuli/pictures/0823_fw.png	136.638680934906	
63	105.29320192337036	picture	0		123	61.0	/experiments/knapen_aot/AOT/AOT_stimuli/pictures/0466_fw.png	136.65067195892334	1.0212500095367432
63	106.30621409416199	response	0	j		61.0	/experiments/knapen_aot/AOT/AOT_stimuli/pictures/0466_fw.png	137.66368412971497	
64	106.3144519329071	picture	0		130	62.0	/experiments/knapen_aot/AOT/AOT_stimuli/pictures/1114_fw.png	137.67192196846008	1.0833191871643066
64	107.38952398300171	response	0	k		62.0	/experiments/knapen_aot/AOT/AOT_stimuli/pictures/1114_fw.png	138.7469940185547	
65	107.39777112007141	picture	0		274	63.0	/experiments/knapen_aot/AOT/AOT_stimuli/pictures/0226_fw.png	138.7552411556244	2.2842538356781006
65	109.67287993431091	response	0	k		63.0	/experiments/knapen_aot/AOT/AOT_stimuli/pictures/0226_fw.png	141.0303499698639	
66	109.68202495574951	picture	0		459	64.0	/experiments/knapen_aot/AOT/AOT_stimuli/pictures/0272_fw.png	141.0394949913025	3.8264880180358887
66	113.49789690971375	response	0	k		64.0	/experiments/knapen_aot/AOT/AOT_stimuli/pictures/0272_fw.png	144.85536694526672	
67	113.5085129737854	picture	0		147	65.0	/experiments/knapen_aot/AOT/AOT_stimuli/pictures/1601_fw.png	144.86598300933838	1.2225401401519775
67	114.72284293174744	response	0	k		65.0	/experiments/knapen_aot/AOT/AOT_stimuli/pictures/1601_fw.png	146.08031296730042	
68	114.73105311393738	picture	0		97	66.0	/experiments/knapen_aot/AOT/AOT_stimuli/pictures/1440_fw.png	146.08852314949036	0.8120439052581787
68	115.53118300437927	response	0	j		66.0	/experiments/knapen_aot/AOT/AOT_stimuli/pictures/1440_fw.png	146.88865303993225	
69	115.54309701919556	picture	0		353	67.0	/experiments/knapen_aot/AOT/AOT_stimuli/pictures/0177_fw.png	146.90056705474854	2.9379279613494873
69	118.47289490699768	response	0	k		67.0	/experiments/knapen_aot/AOT/AOT_stimuli/pictures/0177_fw.png	149.83036494255066	
70	118.48102498054504	picture	0		115	68.0	/experiments/knapen_aot/AOT/AOT_stimuli/pictures/1658_fw.png	149.83849501609802	0.9648849964141846
70	119.42436003684998	response	0	k		68.0	/experiments/knapen_aot/AOT/AOT_stimuli/pictures/1658_fw.png	150.78183007240295	
71	119.44590997695923	picture	0		86	69.0	/experiments/knapen_aot/AOT/AOT_stimuli/pictures/0543_fw.png	150.8033800125122	0.7222099304199219
71	120.15615701675415	response	0	j		69.0	/experiments/knapen_aot/AOT/AOT_stimuli/pictures/0543_fw.png	151.51362705230713	
72	120.16811990737915	picture	0		97	70.0	/experiments/knapen_aot/AOT/AOT_stimuli/pictures/0604_fw.png	151.52558994293213	0.8054661750793457
72	120.96446204185486	response	0	j		70.0	/experiments/knapen_aot/AOT/AOT_stimuli/pictures/0604_fw.png	152.32193207740784	
73	120.9735860824585	picture	0		101	71.0	/experiments/knapen_aot/AOT/AOT_stimuli/pictures/1202_fw.png	152.33105611801147	0.8407819271087646
73	121.80616092681885	response	0	j		71.0	/experiments/knapen_aot/AOT/AOT_stimuli/pictures/1202_fw.png	153.16363096237183	
74	121.81436800956726	picture	0		237	72.0	/experiments/knapen_aot/AOT/AOT_stimuli/pictures/0639_fw.png	153.17183804512024	1.9786419868469238
74	123.78113293647766	response	0	k		72.0	/experiments/knapen_aot/AOT/AOT_stimuli/pictures/0639_fw.png	155.13860297203064	
75	123.79300999641418	picture	0		86	73.0	/experiments/knapen_aot/AOT/AOT_stimuli/pictures/0305_fw.png	155.15048003196716	0.7152819633483887
75	124.49779605865479	response	0	j		73.0	/experiments/knapen_aot/AOT/AOT_stimuli/pictures/0305_fw.png	155.85526609420776	
76	124.50829195976257	picture	0		234	74.0	/experiments/knapen_aot/AOT/AOT_stimuli/pictures/1466_fw.png	155.86576199531555	1.9513540267944336
76	126.44769811630249	response	0	k		74.0	/experiments/knapen_aot/AOT/AOT_stimuli/pictures/1466_fw.png	157.80516815185547	
77	126.459645986557	picture	0		109	75.0	/experiments/knapen_aot/AOT/AOT_stimuli/pictures/0731_fw.png	157.81711602210999	0.9098501205444336
77	127.35609602928162	response	0	j		75.0	/experiments/knapen_aot/AOT/AOT_stimuli/pictures/0731_fw.png	158.7135660648346	
78	127.36949610710144	picture	0		81	76.0	/experiments/knapen_aot/AOT/AOT_stimuli/pictures/1960_fw.png	158.72696614265442	0.680433988571167
78	128.03261709213257	response	0	j		76.0	/experiments/knapen_aot/AOT/AOT_stimuli/pictures/1960_fw.png	159.39008712768555	
79	128.0499300956726	picture	0		368	77.0	/experiments/knapen_aot/AOT/AOT_stimuli/pictures/1391_fw.png	159.4074001312256	3.076432943344116
79	131.1061429977417	response	0	k		77.0	/experiments/knapen_aot/AOT/AOT_stimuli/pictures/1391_fw.png	162.46361303329468	
80	131.12636303901672	picture	0		158	78.0	/experiments/knapen_aot/AOT/AOT_stimuli/pictures/0675_fw.png	162.4838330745697	1.3194310665130615
80	132.4243791103363	response	0	k		78.0	/experiments/knapen_aot/AOT/AOT_stimuli/pictures/0675_fw.png	163.78184914588928	
81	132.44579410552979	picture	0		130	79.0	/experiments/knapen_aot/AOT/AOT_stimuli/pictures/2108_fw.png	163.80326414108276	1.0903120040893555
81	133.52277493476868	response	0	j		79.0	/experiments/knapen_aot/AOT/AOT_stimuli/pictures/2108_fw.png	164.88024497032166	
82	133.53610610961914	picture	0		139	80.0	/experiments/knapen_aot/AOT/AOT_stimuli/pictures/1303_fw.png	164.89357614517212	1.1665987968444824
82	134.68940711021423	response	0	k		80.0	/experiments/knapen_aot/AOT/AOT_stimuli/pictures/1303_fw.png	166.0468771457672	
83	134.70270490646362	picture	0		220	81.0	/experiments/knapen_aot/AOT/AOT_stimuli/pictures/1936_fw.png	166.0601749420166	1.8449180126190186
83	136.53111100196838	response	0	j		81.0	/experiments/knapen_aot/AOT/AOT_stimuli/pictures/1936_fw.png	167.88858103752136	
84	136.54762291908264	picture	0		162	82.0	/experiments/knapen_aot/AOT/AOT_stimuli/pictures/1422_fw.png	167.90509295463562	1.349945068359375
84	137.8894190788269	response	0	k		82.0	/experiments/knapen_aot/AOT/AOT_stimuli/pictures/1422_fw.png	169.24688911437988	
85	137.89756798744202	picture	0		279	83.0	/experiments/knapen_aot/AOT/AOT_stimuli/pictures/1994_fw.png	169.255038022995	2.333380937576294
85	140.20773792266846	response	0	k		83.0	/experiments/knapen_aot/AOT/AOT_stimuli/pictures/1994_fw.png	171.56520795822144	
86	140.2309489250183	picture	0		248	84.0	/experiments/knapen_aot/AOT/AOT_stimuli/pictures/0442_fw.png	171.5884189605713	2.068878173828125
86	142.28937911987305	response	0	k		84.0	/experiments/knapen_aot/AOT/AOT_stimuli/pictures/0442_fw.png	173.64684915542603	
87	142.29982709884644	picture	0		134	85.0	/experiments/knapen_aot/AOT/AOT_stimuli/pictures/1574_fw.png	173.6572971343994	1.1179628372192383
87	143.40601706504822	response	0	k		85.0	/experiments/knapen_aot/AOT/AOT_stimuli/pictures/1574_fw.png	174.7634871006012	
88	143.41778993606567	picture	0		192	86.0	/experiments/knapen_aot/AOT/AOT_stimuli/pictures/1484_fw.png	174.77525997161865	1.5972230434417725
88	145.0060579776764	response	0	k		86.0	/experiments/knapen_aot/AOT/AOT_stimuli/pictures/1484_fw.png	176.36352801322937	
89	145.01501297950745	picture	0		88	87.0	/experiments/knapen_aot/AOT/AOT_stimuli/pictures/1742_fw.png	176.37248301506042	0.7361140251159668
89	145.7394950389862	response	0	k		87.0	/experiments/knapen_aot/AOT/AOT_stimuli/pictures/1742_fw.png	177.09696507453918	
90	145.7511270046234	picture	0		158	88.0	/experiments/knapen_aot/AOT/AOT_stimuli/pictures/0183_fw.png	177.1085970401764	1.3195269107818604
90	147.05601596832275	response	0	k		88.0	/experiments/knapen_aot/AOT/AOT_stimuli/pictures/0183_fw.png	178.41348600387573	
91	147.07065391540527	picture	0		79	89.0	/experiments/knapen_aot/AOT/AOT_stimuli/pictures/2054_fw.png	178.42812395095825	0.6686031818389893
91	147.72264504432678	response	0	j		89.0	/experiments/knapen_aot/AOT/AOT_stimuli/pictures/2054_fw.png	179.08011507987976	
92	147.73925709724426	picture	0		288	90.0	/experiments/knapen_aot/AOT/AOT_stimuli/pictures/1221_fw.png	179.09672713279724	2.40069580078125
92	150.13098406791687	response	0	k		90.0	/experiments/knapen_aot/AOT/AOT_stimuli/pictures/1221_fw.png	181.48845410346985	
93	150.1399528980255	picture	0		285	91.0	/experiments/knapen_aot/AOT/AOT_stimuli/pictures/0432_fw.png	181.4974229335785	2.3749661445617676
93	152.50599908828735	response	0	k		91.0	/experiments/knapen_aot/AOT/AOT_stimuli/pictures/0432_fw.png	183.86346912384033	
94	152.51491904258728	picture	0		85	92.0	/experiments/knapen_aot/AOT/AOT_stimuli/pictures/0529_fw.png	183.87238907814026	0.708345890045166
94	153.2143039703369	response	0	j		92.0	/experiments/knapen_aot/AOT/AOT_stimuli/pictures/0529_fw.png	184.5717740058899	
95	153.22326493263245	picture	0		199	93.0	/experiments/knapen_aot/AOT/AOT_stimuli/pictures/0706_fw.png	184.58073496818542	1.6659350395202637
95	154.87265491485596	response	0	k		93.0	/experiments/knapen_aot/AOT/AOT_stimuli/pictures/0706_fw.png	186.23012495040894	
96	154.8891999721527	picture	0		102	94.0	/experiments/knapen_aot/AOT/AOT_stimuli/pictures/1526_fw.png	186.2466700077057	0.8583309650421143
96	155.7309889793396	response	0	k		94.0	/experiments/knapen_aot/AOT/AOT_stimuli/pictures/1526_fw.png	187.08845901489258	
97	155.74753093719482	picture	0		106	95.0	/experiments/knapen_aot/AOT/AOT_stimuli/pictures/2048_fw.png	187.1050009727478	0.8923420906066895
97	156.61589694023132	response	0	j		95.0	/experiments/knapen_aot/AOT/AOT_stimuli/pictures/2048_fw.png	187.9733669757843	
98	156.6398730278015	picture	0		134	96.0	/experiments/knapen_aot/AOT/AOT_stimuli/pictures/1082_fw.png	187.9973430633545	1.1180460453033447
98	157.74763202667236	response	0	k		96.0	/experiments/knapen_aot/AOT/AOT_stimuli/pictures/1082_fw.png	189.10510206222534	
99	157.75791907310486	picture	0		113	97.0	/experiments/knapen_aot/AOT/AOT_stimuli/pictures/0356_fw.png	189.11538910865784	0.9479808807373047
99	158.68929290771484	response	0	j		97.0	/experiments/knapen_aot/AOT/AOT_stimuli/pictures/0356_fw.png	190.04676294326782	
100	158.70589995384216	picture	0		138	98.0	/experiments/knapen_aot/AOT/AOT_stimuli/pictures/0289_fw.png	190.06336998939514	1.1582729816436768
100	159.8482310771942	response	0	j		98.0	/experiments/knapen_aot/AOT/AOT_stimuli/pictures/0289_fw.png	191.2057011127472	
101	159.86417293548584	picture	0		198	99.0	/experiments/knapen_aot/AOT/AOT_stimuli/pictures/1784_fw.png	191.22164297103882	1.6506261825561523
101	161.50593996047974	response	0	k		99.0	/experiments/knapen_aot/AOT/AOT_stimuli/pictures/1784_fw.png	192.86340999603271	
102	161.514799118042	picture	0		127	100.0	/experiments/knapen_aot/AOT/AOT_stimuli/pictures/0128_fw.png	192.87226915359497	1.0660228729248047
102	162.5642430782318	response	0	j		100.0	/experiments/knapen_aot/AOT/AOT_stimuli/pictures/0128_fw.png	193.9217131137848	
103	162.5808219909668	picture	0		740	101.0	/experiments/knapen_aot/AOT/AOT_stimuli/pictures/0900_fw.png	193.93829202651978	6.17003607749939
103	168.73924493789673	response	0	k		101.0	/experiments/knapen_aot/AOT/AOT_stimuli/pictures/0900_fw.png	200.0967149734497	
104	168.7508580684662	picture	0		99	102.0	/experiments/knapen_aot/AOT/AOT_stimuli/pictures/1607_fw.png	200.10832810401917	0.8264110088348389
104	169.5641860961914	response	0	j		102.0	/experiments/knapen_aot/AOT/AOT_stimuli/pictures/1607_fw.png	200.92165613174438	
105	169.57726907730103	picture	0		119	103.0	/experiments/knapen_aot/AOT/AOT_stimuli/pictures/0811_fw.png	200.934739112854	0.9999568462371826
105	170.56423091888428	response	0	j		103.0	/experiments/knapen_aot/AOT/AOT_stimuli/pictures/0811_fw.png	201.92170095443726	
106	170.5772259235382	picture	0		227	104.0	/experiments/knapen_aot/AOT/AOT_stimuli/pictures/2034_fw.png	201.9346959590912	1.8957741260528564
106	172.45734906196594	response	0	j		104.0	/experiments/knapen_aot/AOT/AOT_stimuli/pictures/2034_fw.png	203.81481909751892	
107	172.47300004959106	picture	0		117	105.0	/experiments/knapen_aot/AOT/AOT_stimuli/pictures/0094_fw.png	203.83047008514404	0.9831640720367432
107	173.43297004699707	response	0	j		105.0	/experiments/knapen_aot/AOT/AOT_stimuli/pictures/0094_fw.png	204.79044008255005	
108	173.4561641216278	picture	0		94	106.0	/experiments/knapen_aot/AOT/AOT_stimuli/pictures/1678_fw.png	204.8136341571808	0.787747859954834
108	174.2247290611267	response	0	j		106.0	/experiments/knapen_aot/AOT/AOT_stimuli/pictures/1678_fw.png	205.5821990966797	
109	174.24391198158264	picture	0		111	107.0	/experiments/knapen_aot/AOT/AOT_stimuli/pictures/1479_fw.png	205.60138201713562	0.9370019435882568
109	175.1641070842743	response	0	j		107.0	/experiments/knapen_aot/AOT/AOT_stimuli/pictures/1479_fw.png	206.52157711982727	
110	175.1809139251709	picture	0		137	108.0	/experiments/knapen_aot/AOT/AOT_stimuli/pictures/1839_fw.png	206.53838396072388	1.1462750434875488
110	176.31422805786133	response	0	k		108.0	/experiments/knapen_aot/AOT/AOT_stimuli/pictures/1839_fw.png	207.6716980934143	
111	176.32718896865845	picture	0		161	109.0	/experiments/knapen_aot/AOT/AOT_stimuli/pictures/0729_fw.png	207.68465900421143	1.34722900390625
111	177.65735411643982	response	0	k		109.0	/experiments/knapen_aot/AOT/AOT_stimuli/pictures/0729_fw.png	209.0148241519928	
112	177.6744179725647	picture	0		406	110.0	/experiments/knapen_aot/AOT/AOT_stimuli/pictures/0818_fw.png	209.03188800811768	3.3818979263305664
112	181.04070210456848	response	0	k		110.0	/experiments/knapen_aot/AOT/AOT_stimuli/pictures/0818_fw.png	212.39817214012146	
113	181.05631589889526	picture	0		153	111.0	/experiments/knapen_aot/AOT/AOT_stimuli/pictures/1495_fw.png	212.41378593444824	1.2777740955352783
113	182.3225860595703	response	0	k		111.0	/experiments/knapen_aot/AOT/AOT_stimuli/pictures/1495_fw.png	213.6800560951233	
114	182.33408999443054	picture	0		122	112.0	/experiments/knapen_aot/AOT/AOT_stimuli/pictures/1171_fw.png	213.69156002998352	1.0139439105987549
114	183.33922290802002	response	0	j		112.0	/experiments/knapen_aot/AOT/AOT_stimuli/pictures/1171_fw.png	214.696692943573	
115	183.3480339050293	picture	0		317	113.0	/experiments/knapen_aot/AOT/AOT_stimuli/pictures/1999_fw.png	214.70550394058228	2.645827054977417
115	185.98095798492432	response	0	k		113.0	/experiments/knapen_aot/AOT/AOT_stimuli/pictures/1999_fw.png	217.3384280204773	
116	185.9938609600067	picture	0		127	114.0	/experiments/knapen_aot/AOT/AOT_stimuli/pictures/1273_fw.png	217.3513309955597	1.055617094039917
116	187.0324559211731	response	0	j		114.0	/experiments/knapen_aot/AOT/AOT_stimuli/pictures/1273_fw.png	218.38992595672607	
117	187.04947805404663	picture	0		144	115.0	/experiments/knapen_aot/AOT/AOT_stimuli/pictures/2149_fw.png	218.4069480895996	1.2013659477233887
117	188.23238706588745	response	0	k		115.0	/experiments/knapen_aot/AOT/AOT_stimuli/pictures/2149_fw.png	219.58985710144043	
118	188.25084400177002	picture	0		128	116.0	/experiments/knapen_aot/AOT/AOT_stimuli/pictures/1568_fw.png	219.608314037323	1.069533109664917
118	189.3065309524536	response	0	j		116.0	/experiments/knapen_aot/AOT/AOT_stimuli/pictures/1568_fw.png	220.6640009880066	
119	189.32037711143494	picture	0		192	117.0	/experiments/knapen_aot/AOT/AOT_stimuli/pictures/1803_fw.png	220.67784714698792	1.6041169166564941
119	190.91438603401184	response	0	j		117.0	/experiments/knapen_aot/AOT/AOT_stimuli/pictures/1803_fw.png	222.27185606956482	
120	190.92449402809143	picture	0		97	118.0	/experiments/knapen_aot/AOT/AOT_stimuli/pictures/0353_fw.png	222.2819640636444	0.8125560283660889
120	191.72322702407837	response	0	j		118.0	/experiments/knapen_aot/AOT/AOT_stimuli/pictures/0353_fw.png	223.08069705963135	
121	191.73705005645752	picture	0		144	119.0	/experiments/knapen_aot/AOT/AOT_stimuli/pictures/1981_fw.png	223.0945200920105	1.2083680629730225
121	192.93157696723938	response	0	k		119.0	/experiments/knapen_aot/AOT/AOT_stimuli/pictures/1981_fw.png	224.28904700279236	
122	192.94541811943054	picture	0		122	120.0	/experiments/knapen_aot/AOT/AOT_stimuli/pictures/1972_fw.png	224.30288815498352	1.0209059715270996
122	193.95605301856995	response	0	j		120.0	/experiments/knapen_aot/AOT/AOT_stimuli/pictures/1972_fw.png	225.31352305412292	
123	193.96632409095764	picture	0		178	121.0	/experiments/knapen_aot/AOT/AOT_stimuli/pictures/0079_fw.png	225.32379412651062	1.4861259460449219
123	195.4331259727478	response	0	j		121.0	/experiments/knapen_aot/AOT/AOT_stimuli/pictures/0079_fw.png	226.79059600830078	
124	195.45245003700256	picture	0		124	122.0	/experiments/knapen_aot/AOT/AOT_stimuli/pictures/2153_fw.png	226.80992007255554	1.0346720218658447
124	196.46593689918518	response	0	j		122.0	/experiments/knapen_aot/AOT/AOT_stimuli/pictures/2153_fw.png	227.82340693473816	
125	196.4871220588684	picture	0		126	123.0	/experiments/knapen_aot/AOT/AOT_stimuli/pictures/1067_fw.png	227.8445920944214	1.0554659366607666
125	197.5311028957367	response	0	k		123.0	/experiments/knapen_aot/AOT/AOT_stimuli/pictures/1067_fw.png	228.88857293128967	
126	197.54258799552917	picture	0		113	124.0	/experiments/knapen_aot/AOT/AOT_stimuli/pictures/0786_fw.png	228.90005803108215	0.9445159435272217
126	198.47325611114502	response	0	j		124.0	/experiments/knapen_aot/AOT/AOT_stimuli/pictures/0786_fw.png	229.830726146698	
127	198.4871039390564	picture	0		142	125.0	/experiments/knapen_aot/AOT/AOT_stimuli/pictures/1629_fw.png	229.84457397460938	1.1874010562896729
127	199.65769004821777	response	0	k		125.0	/experiments/knapen_aot/AOT/AOT_stimuli/pictures/1629_fw.png	231.01516008377075	
128	199.67450499534607	picture	0		119	126.0	/experiments/knapen_aot/AOT/AOT_stimuli/pictures/2031_fw.png	231.03197503089905	0.9981989860534668
128	200.64937210083008	response	0	j		126.0	/experiments/knapen_aot/AOT/AOT_stimuli/pictures/2031_fw.png	232.00684213638306	
129	200.67270398139954	picture	0		147	127.0	/experiments/knapen_aot/AOT/AOT_stimuli/pictures/1633_fw.png	232.03017401695251	1.2311029434204102
129	201.88989210128784	response	0	j		127.0	/experiments/knapen_aot/AOT/AOT_stimuli/pictures/1633_fw.png	233.24736213684082	
130	201.90380692481995	picture	0		102	128.0	/experiments/knapen_aot/AOT/AOT_stimuli/pictures/0755_fw.png	233.26127696037292	0.854032039642334
130	202.7477490901947	response	0	j		128.0	/experiments/knapen_aot/AOT/AOT_stimuli/pictures/0755_fw.png	234.10521912574768	
131	202.75783896446228	picture	0		188	129.0	/experiments/knapen_aot/AOT/AOT_stimuli/pictures/0595_fw.png	234.11530900001526	1.5695080757141113
131	204.3143970966339	response	0	k		129.0	/experiments/knapen_aot/AOT/AOT_stimuli/pictures/0595_fw.png	235.6718671321869	
132	204.3273470401764	picture	0		105	130.0	/experiments/knapen_aot/AOT/AOT_stimuli/pictures/1899_fw.png	235.68481707572937	0.8749408721923828
132	205.1894359588623	response	0	k		130.0	/experiments/knapen_aot/AOT/AOT_stimuli/pictures/1899_fw.png	236.54690599441528	
133	205.20228791236877	picture	0		335	131.0	/experiments/knapen_aot/AOT/AOT_stimuli/pictures/1605_fw.png	236.55975794792175	2.791715145111084
133	207.98103308677673	response	0	k		131.0	/experiments/knapen_aot/AOT/AOT_stimuli/pictures/1605_fw.png	239.3385031223297	
134	207.99400305747986	picture	0		131	132.0	/experiments/knapen_aot/AOT/AOT_stimuli/pictures/0151_fw.png	239.35147309303284	1.090174913406372
134	209.0658299922943	response	0	k		132.0	/experiments/knapen_aot/AOT/AOT_stimuli/pictures/0151_fw.png	240.4233000278473	
135	209.08417797088623	picture	0		132	133.0	/experiments/knapen_aot/AOT/AOT_stimuli/pictures/0514_fw.png	240.4416480064392	1.0971670150756836
135	210.1727089881897	response	0	k		133.0	/experiments/knapen_aot/AOT/AOT_stimuli/pictures/0514_fw.png	241.53017902374268	
136	210.1813449859619	picture	0		131	134.0	/experiments/knapen_aot/AOT/AOT_stimuli/pictures/1682_fw.png	241.5388150215149	1.0974559783935547
136	211.25754404067993	response	0	j		134.0	/experiments/knapen_aot/AOT/AOT_stimuli/pictures/1682_fw.png	242.6150140762329	
137	211.27880096435547	picture	0		202	135.0	/experiments/knapen_aot/AOT/AOT_stimuli/pictures/1264_fw.png	242.63627099990845	1.6872639656066895
137	212.95605206489563	response	0	j		135.0	/experiments/knapen_aot/AOT/AOT_stimuli/pictures/1264_fw.png	244.3135221004486	
138	212.96606492996216	picture	0		105	136.0	/experiments/knapen_aot/AOT/AOT_stimuli/pictures/1817_fw.png	244.32353496551514	0.8749740123748779
138	213.8309988975525	response	0	j		136.0	/experiments/knapen_aot/AOT/AOT_stimuli/pictures/1817_fw.png	245.18846893310547	
139	213.84103894233704	picture	0		116	137.0	/experiments/knapen_aot/AOT/AOT_stimuli/pictures/0862_fw.png	245.19850897789001	0.9653000831604004
139	214.79763197898865	response	0	j		137.0	/experiments/knapen_aot/AOT/AOT_stimuli/pictures/0862_fw.png	246.15510201454163	
140	214.80633902549744	picture	0		115	138.0	/experiments/knapen_aot/AOT/AOT_stimuli/pictures/0886_fw.png	246.16380906105042	0.9583580493927002
140	215.7560329437256	response	0	k		138.0	/experiments/knapen_aot/AOT/AOT_stimuli/pictures/0886_fw.png	247.11350297927856	
141	215.76469707489014	picture	0		135	139.0	/experiments/knapen_aot/AOT/AOT_stimuli/pictures/1825_fw.png	247.12216711044312	1.124898910522461
141	216.87412905693054	response	0	j		139.0	/experiments/knapen_aot/AOT/AOT_stimuli/pictures/1825_fw.png	248.23159909248352	
142	216.8895959854126	picture	0		241	140.0	/experiments/knapen_aot/AOT/AOT_stimuli/pictures/0615_fw.png	248.24706602096558	2.013998031616211
142	218.8896849155426	response	0	j		140.0	/experiments/knapen_aot/AOT/AOT_stimuli/pictures/0615_fw.png	250.24715495109558	
143	218.9035940170288	picture	0		212	141.0	/experiments/knapen_aot/AOT/AOT_stimuli/pictures/1517_fw.png	250.2610640525818	1.7707500457763672
143	220.6576600074768	response	0	k		141.0	/experiments/knapen_aot/AOT/AOT_stimuli/pictures/1517_fw.png	252.01513004302979	
144	220.67434406280518	picture	0		122	142.0	/experiments/knapen_aot/AOT/AOT_stimuli/pictures/1716_fw.png	252.03181409835815	1.0209379196166992
144	221.6815209388733	response	0	k		142.0	/experiments/knapen_aot/AOT/AOT_stimuli/pictures/1716_fw.png	253.03899097442627	
145	221.69528198242188	picture	0		96	143.0	/experiments/knapen_aot/AOT/AOT_stimuli/pictures/1816_fw.png	253.05275201797485	0.8053810596466064
145	222.4893319606781	response	0	j		143.0	/experiments/knapen_aot/AOT/AOT_stimuli/pictures/1816_fw.png	253.84680199623108	
146	222.50066304206848	picture	0		445	144.0	/experiments/knapen_aot/AOT/AOT_stimuli/pictures/1713_fw.png	253.85813307762146	3.708311080932617
146	226.19763493537903	response	0	k		144.0	/experiments/knapen_aot/AOT/AOT_stimuli/pictures/1713_fw.png	257.555104970932	
147	226.2089741230011	picture	0		120	145.0	/experiments/knapen_aot/AOT/AOT_stimuli/pictures/0148_fw.png	257.5664441585541	1.0000147819519043
147	227.19764804840088	response	0	k		145.0	/experiments/knapen_aot/AOT/AOT_stimuli/pictures/0148_fw.png	258.55511808395386	
148	227.208988904953	picture	0		124	146.0	/experiments/knapen_aot/AOT/AOT_stimuli/pictures/1078_fw.png	258.566458940506	1.038572072982788
148	228.2309489250183	response	0	j		146.0	/experiments/knapen_aot/AOT/AOT_stimuli/pictures/1078_fw.png	259.5884189605713	
149	228.2475609779358	picture	0		106	147.0	/experiments/knapen_aot/AOT/AOT_stimuli/pictures/0472_fw.png	259.60503101348877	0.885012149810791
149	229.12265491485596	response	0	k		147.0	/experiments/knapen_aot/AOT/AOT_stimuli/pictures/0472_fw.png	260.48012495040894	
150	229.13257312774658	picture	0		138	148.0	/experiments/knapen_aot/AOT/AOT_stimuli/pictures/1751_fw.png	260.49004316329956	1.152763843536377
150	230.26618099212646	response	0	k		148.0	/experiments/knapen_aot/AOT/AOT_stimuli/pictures/1751_fw.png	261.62365102767944	
151	230.28533697128296	picture	0		210	149.0	/experiments/knapen_aot/AOT/AOT_stimuli/pictures/1868_fw.png	261.64280700683594	1.7499570846557617
151	232.02258706092834	response	0	k		149.0	/experiments/knapen_aot/AOT/AOT_stimuli/pictures/1868_fw.png	263.3800570964813	
152	232.03529405593872	picture	0		107	150.0	/experiments/knapen_aot/AOT/AOT_stimuli/pictures/0911_fw.png	263.3927640914917	0.8958890438079834
152	232.92259907722473	response	0	j		150.0	/experiments/knapen_aot/AOT/AOT_stimuli/pictures/0911_fw.png	264.2800691127777	
153	232.9311830997467	picture	0		147	151.0	/experiments/knapen_aot/AOT/AOT_stimuli/pictures/1812_fw.png	264.2886531352997	1.2291998863220215
153	234.1475329399109	response	0	j		151.0	/experiments/knapen_aot/AOT/AOT_stimuli/pictures/1812_fw.png	265.50500297546387	
154	234.16038298606873	picture	0		104	152.0	/experiments/knapen_aot/AOT/AOT_stimuli/pictures/1783_fw.png	265.5178530216217	0.8680460453033447
154	235.01460909843445	response	0	j		152.0	/experiments/knapen_aot/AOT/AOT_stimuli/pictures/1783_fw.png	266.3720791339874	
155	235.02842903137207	picture	0		73	153.0	/experiments/knapen_aot/AOT/AOT_stimuli/pictures/0477_fw.png	266.38589906692505	0.6110460758209229
155	235.63088703155518	response	0	j		153.0	/experiments/knapen_aot/AOT/AOT_stimuli/pictures/0477_fw.png	266.98835706710815	
156	235.639475107193	picture	0		94	154.0	/experiments/knapen_aot/AOT/AOT_stimuli/pictures/1416_fw.png	266.996945142746	0.7846949100494385
156	236.4143579006195	response	0	j		154.0	/experiments/knapen_aot/AOT/AOT_stimuli/pictures/1416_fw.png	267.7718279361725	
157	236.42417001724243	picture	0		165	155.0	/experiments/knapen_aot/AOT/AOT_stimuli/pictures/1084_fw.png	267.7816400527954	1.3749721050262451
157	237.78923106193542	response	0	k		155.0	/experiments/knapen_aot/AOT/AOT_stimuli/pictures/1084_fw.png	269.1467010974884	
158	237.79914212226868	picture	0		212	156.0	/experiments/knapen_aot/AOT/AOT_stimuli/pictures/0059_fw.png	269.15661215782166	1.7709097862243652
158	239.55620908737183	response	0	k		156.0	/experiments/knapen_aot/AOT/AOT_stimuli/pictures/0059_fw.png	270.9136791229248	
159	239.57005190849304	picture	0		11	157.0	/experiments/knapen_aot/AOT/AOT_stimuli/pictures/0626_fw.png	270.927521944046	0.09709620475769043
159	239.65584802627563	response	0	k		157.0	/experiments/knapen_aot/AOT/AOT_stimuli/pictures/0626_fw.png	271.0133180618286	
160	239.66714811325073	picture	0		278	158.0	/experiments/knapen_aot/AOT/AOT_stimuli/pictures/0223_fw.png	271.0246181488037	2.319509983062744
160	241.97278904914856	response	0	k		158.0	/experiments/knapen_aot/AOT/AOT_stimuli/pictures/0223_fw.png	273.33025908470154	
161	241.98665809631348	picture	0		99	159.0	/experiments/knapen_aot/AOT/AOT_stimuli/pictures/0718_fw.png	273.34412813186646	0.8333289623260498
161	242.80611300468445	response	0	j		159.0	/experiments/knapen_aot/AOT/AOT_stimuli/pictures/0718_fw.png	274.1635830402374	
162	242.81998705863953	picture	0		121	160.0	/experiments/knapen_aot/AOT/AOT_stimuli/pictures/0049_fw.png	274.1774570941925	1.0138170719146729
162	243.8225700855255	response	0	j		160.0	/experiments/knapen_aot/AOT/AOT_stimuli/pictures/0049_fw.png	275.1800401210785	
163	243.8338041305542	picture	0		760	161.0	/experiments/knapen_aot/AOT/AOT_stimuli/pictures/0962_fw.png	275.1912741661072	6.333262920379639
163	250.155837059021	response	0	k		161.0	/experiments/knapen_aot/AOT/AOT_stimuli/pictures/0962_fw.png	281.513307094574	
164	250.16706705093384	picture	0		152	162.0	/experiments/knapen_aot/AOT/AOT_stimuli/pictures/0252_fw.png	281.5245370864868	1.2638728618621826
164	251.4225471019745	response	0	j		162.0	/experiments/knapen_aot/AOT/AOT_stimuli/pictures/0252_fw.png	282.78001713752747	
165	251.43093991279602	picture	0		109	163.0	/experiments/knapen_aot/AOT/AOT_stimuli/pictures/1819_fw.png	282.788409948349	0.909736156463623
165	252.3308310508728	response	0	k		163.0	/experiments/knapen_aot/AOT/AOT_stimuli/pictures/1819_fw.png	283.6883010864258	
166	252.34067606925964	picture	0		106	164.0	/experiments/knapen_aot/AOT/AOT_stimuli/pictures/0082_fw.png	283.6981461048126	0.8819198608398438
166	253.2143521308899	response	0	j		164.0	/experiments/knapen_aot/AOT/AOT_stimuli/pictures/0082_fw.png	284.57182216644287	
167	253.2225959300995	picture	0		118	165.0	/experiments/knapen_aot/AOT/AOT_stimuli/pictures/1532_fw.png	284.58006596565247	0.9862329959869385
167	254.19749307632446	response	0	j		165.0	/experiments/knapen_aot/AOT/AOT_stimuli/pictures/1532_fw.png	285.55496311187744	
168	254.20882892608643	picture	0		109	166.0	/experiments/knapen_aot/AOT/AOT_stimuli/pictures/2131_fw.png	285.5662989616394	0.9097261428833008
168	255.10575890541077	response	0	j		166.0	/experiments/knapen_aot/AOT/AOT_stimuli/pictures/2131_fw.png	286.46322894096375	
169	255.11855506896973	picture	0		110	167.0	/experiments/knapen_aot/AOT/AOT_stimuli/pictures/2152_fw.png	286.4760251045227	0.9235000610351562
169	256.0308361053467	response	0	j		167.0	/experiments/knapen_aot/AOT/AOT_stimuli/pictures/2152_fw.png	287.38830614089966	
170	256.0420551300049	picture	0		124	168.0	/experiments/knapen_aot/AOT/AOT_stimuli/pictures/0908_fw.png	287.39952516555786	1.0347919464111328
170	257.05749702453613	response	0	j		168.0	/experiments/knapen_aot/AOT/AOT_stimuli/pictures/0908_fw.png	288.4149670600891	
171	257.076847076416	picture	0		121	169.0	/experiments/knapen_aot/AOT/AOT_stimuli/pictures/1894_fw.png	288.434317111969	1.0068318843841553
171	258.0656509399414	response	0	j		169.0	/experiments/knapen_aot/AOT/AOT_stimuli/pictures/1894_fw.png	289.4231209754944	
172	258.08367896080017	picture	0		119	170.0	/experiments/knapen_aot/AOT/AOT_stimuli/pictures/1015_fw.png	289.44114899635315	0.9931859970092773
172	259.057452917099	response	0	j		170.0	/experiments/knapen_aot/AOT/AOT_stimuli/pictures/1015_fw.png	290.414922952652	
173	259.07686495780945	picture	0		198	171.0	/experiments/knapen_aot/AOT/AOT_stimuli/pictures/1265_fw.png	290.4343349933624	1.6621921062469482
173	260.7226231098175	response	0	k		171.0	/experiments/knapen_aot/AOT/AOT_stimuli/pictures/1265_fw.png	292.0800931453705	
174	260.7390570640564	picture	0		101	172.0	/experiments/knapen_aot/AOT/AOT_stimuli/pictures/1764_fw.png	292.0965270996094	0.8445780277252197
174	261.57243609428406	response	0	j		172.0	/experiments/knapen_aot/AOT/AOT_stimuli/pictures/1764_fw.png	292.92990612983704	
175	261.5836350917816	picture	0		163	173.0	/experiments/knapen_aot/AOT/AOT_stimuli/pictures/1850_fw.png	292.9411051273346	1.3611760139465332
175	262.93093490600586	response	0	k		173.0	/experiments/knapen_aot/AOT/AOT_stimuli/pictures/1850_fw.png	294.28840494155884	
176	262.94481110572815	picture	0		157	174.0	/experiments/knapen_aot/AOT/AOT_stimuli/pictures/0313_fw.png	294.3022811412811	1.3124408721923828
176	264.24741792678833	response	0	k		174.0	/experiments/knapen_aot/AOT/AOT_stimuli/pictures/0313_fw.png	295.6048879623413	
177	264.25725197792053	picture	0		95	175.0	/experiments/knapen_aot/AOT/AOT_stimuli/pictures/1815_fw.png	295.6147220134735	0.7916519641876221
177	265.0391249656677	response	0	j		175.0	/experiments/knapen_aot/AOT/AOT_stimuli/pictures/1815_fw.png	296.3965950012207	
178	265.04890394210815	picture	0		119	176.0	/experiments/knapen_aot/AOT/AOT_stimuli/pictures/2164_fw.png	296.40637397766113	0.9930331707000732
178	266.0307819843292	response	0	k		176.0	/experiments/knapen_aot/AOT/AOT_stimuli/pictures/2164_fw.png	297.3882520198822	
179	266.0419371128082	picture	0		95	177.0	/experiments/knapen_aot/AOT/AOT_stimuli/pictures/0318_fw.png	297.3994071483612	0.791679859161377
179	266.8224549293518	response	0	j		177.0	/experiments/knapen_aot/AOT/AOT_stimuli/pictures/0318_fw.png	298.1799249649048	
180	266.8336169719696	picture	0		211	178.0	/experiments/knapen_aot/AOT/AOT_stimuli/pictures/1468_fw.png	298.1910870075226	1.75689697265625
180	268.58076310157776	response	0	k		178.0	/experiments/knapen_aot/AOT/AOT_stimuli/pictures/1468_fw.png	299.93823313713074	
181	268.59051394462585	picture	0		207	179.0	/experiments/knapen_aot/AOT/AOT_stimuli/pictures/0225_fw.png	299.94798398017883	1.7292070388793945
181	270.2989590167999	response	0	k		179.0	/experiments/knapen_aot/AOT/AOT_stimuli/pictures/0225_fw.png	301.6564290523529	
182	270.31972098350525	stim	0		759			301.6771910190582	6.327547073364258
182	276.6391189098358	response	0	space				307.9965889453888	
