trial_nr	onset	event_type	phase	response	nr_frames	picture_index	picture_file	onset_abs	duration
0	0.1110849380493164	stim	0		1362			127.98775100708008	11.355012893676758
0	11.449569940567017	response	0	space				139.32623600959778	
2	11.466097831726074	picture	0		154	0.0	/experiments/knapen_aot/AOT/AOT_stimuli/pictures/1049_fw.png	139.34276390075684	1.2833352088928223
2	12.741220951080322	response	0	k		0.0	/experiments/knapen_aot/AOT/AOT_stimuli/pictures/1049_fw.png	140.61788702011108	
3	12.749433040618896	picture	0		138	1.0	/experiments/knapen_aot/AOT/AOT_stimuli/pictures/1670_fw.png	140.62609910964966	1.1527538299560547
3	13.891206979751587	response	0	j		1.0	/experiments/knapen_aot/AOT/AOT_stimuli/pictures/1670_fw.png	141.76787304878235	
4	13.902186870574951	picture	0		180	2.0	/experiments/knapen_aot/AOT/AOT_stimuli/pictures/1505_fw.png	141.7788529396057	1.4999620914459229
4	15.391214847564697	response	0	j		2.0	/experiments/knapen_aot/AOT/AOT_stimuli/pictures/1505_fw.png	143.26788091659546	
5	15.402148962020874	picture	0		222	3.0	/experiments/knapen_aot/AOT/AOT_stimuli/pictures/0247_fw.png	143.27881503105164	1.8472568988800049
5	17.241196870803833	response	0	k		3.0	/experiments/knapen_aot/AOT/AOT_stimuli/pictures/0247_fw.png	145.1178629398346	
6	17.24940586090088	picture	0		193	4.0	/experiments/knapen_aot/AOT/AOT_stimuli/pictures/1176_fw.png	145.12607192993164	1.6112980842590332
6	18.849578857421875	response	0	k		4.0	/experiments/knapen_aot/AOT/AOT_stimuli/pictures/1176_fw.png	146.72624492645264	
7	18.860703945159912	picture	0		135	5.0	/experiments/knapen_aot/AOT/AOT_stimuli/pictures/0207_fw.png	146.73737001419067	1.1247749328613281
7	19.97448205947876	response	0	j		5.0	/experiments/knapen_aot/AOT/AOT_stimuli/pictures/0207_fw.png	147.85114812850952	
8	19.98547887802124	picture	0		186	6.0	/experiments/knapen_aot/AOT/AOT_stimuli/pictures/2078_fw.png	147.862144947052	1.5487279891967773
8	21.51771903038025	response	0	j		6.0	/experiments/knapen_aot/AOT/AOT_stimuli/pictures/2078_fw.png	149.394385099411	
9	21.534206867218018	picture	0		153	7.0	/experiments/knapen_aot/AOT/AOT_stimuli/pictures/0042_fw.png	149.41087293624878	1.277630090713501
9	22.79955291748047	response	0	j		7.0	/experiments/knapen_aot/AOT/AOT_stimuli/pictures/0042_fw.png	150.67621898651123	
10	22.81183695793152	picture	0		123	8.0	/experiments/knapen_aot/AOT/AOT_stimuli/pictures/1739_fw.png	150.68850302696228	1.0208890438079834
10	23.824509859085083	response	0	j		8.0	/experiments/knapen_aot/AOT/AOT_stimuli/pictures/1739_fw.png	151.70117592811584	
11	23.832726001739502	picture	0		215	9.0	/experiments/knapen_aot/AOT/AOT_stimuli/pictures/0250_fw.png	151.70939207077026	1.7915799617767334
11	25.616178035736084	response	0	k		9.0	/experiments/knapen_aot/AOT/AOT_stimuli/pictures/0250_fw.png	153.49284410476685	
12	25.624305963516235	picture	0		214	10.0	/experiments/knapen_aot/AOT/AOT_stimuli/pictures/2025_fw.png	153.500972032547	1.7847230434417725
12	27.39945697784424	response	0	k		10.0	/experiments/knapen_aot/AOT/AOT_stimuli/pictures/2025_fw.png	155.276123046875	
13	27.409029006958008	picture	0		138	11.0	/experiments/knapen_aot/AOT/AOT_stimuli/pictures/1246_fw.png	155.28569507598877	1.1528499126434326
13	28.549532890319824	response	0	j		11.0	/experiments/knapen_aot/AOT/AOT_stimuli/pictures/1246_fw.png	156.4261989593506	
14	28.56187891960144	picture	0		397	12.0	/experiments/knapen_aot/AOT/AOT_stimuli/pictures/1586_fw.png	156.4385449886322	3.305483102798462
14	31.857802867889404	response	0	k		12.0	/experiments/knapen_aot/AOT/AOT_stimuli/pictures/1586_fw.png	159.73446893692017	
15	31.867362022399902	picture	0		191	13.0	/experiments/knapen_aot/AOT/AOT_stimuli/pictures/1035_fw.png	159.74402809143066	1.590317964553833
15	33.44943594932556	response	0	k		13.0	/experiments/knapen_aot/AOT/AOT_stimuli/pictures/1035_fw.png	161.32610201835632	
16	33.457679986953735	picture	0		126	14.0	/experiments/knapen_aot/AOT/AOT_stimuli/pictures/1825_fw.png	161.3343460559845	1.0555229187011719
16	34.49941802024841	response	0	j		14.0	/experiments/knapen_aot/AOT/AOT_stimuli/pictures/1825_fw.png	162.37608408927917	
17	34.51320290565491	picture	0		113	15.0	/experiments/knapen_aot/AOT/AOT_stimuli/pictures/0013_fw.png	162.38986897468567	0.9444200992584229
17	35.449434995651245	response	0	j		15.0	/experiments/knapen_aot/AOT/AOT_stimuli/pictures/0013_fw.png	163.326101064682	
18	35.45762300491333	picture	0		114	16.0	/experiments/knapen_aot/AOT/AOT_stimuli/pictures/0429_fw.png	163.3342890739441	0.9513509273529053
18	36.399417877197266	response	0	j		16.0	/experiments/knapen_aot/AOT/AOT_stimuli/pictures/0429_fw.png	164.27608394622803	
19	36.408973932266235	picture	0		122	17.0	/experiments/knapen_aot/AOT/AOT_stimuli/pictures/2067_fw.png	164.285640001297	1.0208990573883057
19	37.41611099243164	response	0	j		17.0	/experiments/knapen_aot/AOT/AOT_stimuli/pictures/2067_fw.png	165.2927770614624	
20	37.42987298965454	picture	0		183	18.0	/experiments/knapen_aot/AOT/AOT_stimuli/pictures/1271_fw.png	165.3065390586853	1.5277800559997559
20	38.94275999069214	response	0	k		18.0	/experiments/knapen_aot/AOT/AOT_stimuli/pictures/1271_fw.png	166.8194260597229	
21	38.9576530456543	picture	0		150	19.0	/experiments/knapen_aot/AOT/AOT_stimuli/pictures/2095_fw.png	166.83431911468506	1.250032901763916
21	40.19951391220093	response	0	k		19.0	/experiments/knapen_aot/AOT/AOT_stimuli/pictures/2095_fw.png	168.0761799812317	
22	40.20768594741821	picture	0		127	20.0	/experiments/knapen_aot/AOT/AOT_stimuli/pictures/0096_fw.png	168.08435201644897	1.0623810291290283
22	41.25786995887756	response	0	j		20.0	/experiments/knapen_aot/AOT/AOT_stimuli/pictures/0096_fw.png	169.13453602790833	
23	41.27006697654724	picture	0		144	21.0	/experiments/knapen_aot/AOT/AOT_stimuli/pictures/0966_fw.png	169.146733045578	1.2013468742370605
23	42.45769286155701	response	0	k		21.0	/experiments/knapen_aot/AOT/AOT_stimuli/pictures/0966_fw.png	170.33435893058777	
24	42.4714138507843	picture	0		284	22.0	/experiments/knapen_aot/AOT/AOT_stimuli/pictures/1759_fw.png	170.34807991981506	2.3750290870666504
24	44.832743883132935	response	0	k		22.0	/experiments/knapen_aot/AOT/AOT_stimuli/pictures/1759_fw.png	172.7094099521637	
25	44.84644293785095	picture	0		152	23.0	/experiments/knapen_aot/AOT/AOT_stimuli/pictures/1106_fw.png	172.7231090068817	1.277919054031372
25	46.10769987106323	response	0	j		23.0	/experiments/knapen_aot/AOT/AOT_stimuli/pictures/1106_fw.png	173.984365940094	
26	46.124361991882324	picture	0		360	24.0	/experiments/knapen_aot/AOT/AOT_stimuli/pictures/1265_fw.png	174.0010280609131	3.00826096534729
26	49.11608099937439	response	0	k		24.0	/experiments/knapen_aot/AOT/AOT_stimuli/pictures/1265_fw.png	176.99274706840515	
27	49.132622957229614	picture	0		134	25.0	/experiments/knapen_aot/AOT/AOT_stimuli/pictures/1526_fw.png	177.00928902626038	1.1166489124298096
27	50.24106502532959	response	0	k		25.0	/experiments/knapen_aot/AOT/AOT_stimuli/pictures/1526_fw.png	178.11773109436035	
28	50.249271869659424	picture	0		150	26.0	/experiments/knapen_aot/AOT/AOT_stimuli/pictures/0246_fw.png	178.12593793869019	1.2500040531158447
28	51.49100995063782	response	0	k		26.0	/experiments/knapen_aot/AOT/AOT_stimuli/pictures/0246_fw.png	179.36767601966858	
29	51.49927592277527	picture	0		136	27.0	/experiments/knapen_aot/AOT/AOT_stimuli/pictures/2175_fw.png	179.37594199180603	1.1389350891113281
29	52.62441086769104	response	0	k		27.0	/experiments/knapen_aot/AOT/AOT_stimuli/pictures/2175_fw.png	180.5010769367218	
30	52.6382110118866	picture	0		112	28.0	/experiments/knapen_aot/AOT/AOT_stimuli/pictures/0620_fw.png	180.51487708091736	0.9443988800048828
30	53.566088914871216	response	0	j		28.0	/experiments/knapen_aot/AOT/AOT_stimuli/pictures/0620_fw.png	181.44275498390198	
31	53.58260989189148	picture	0		131	29.0	/experiments/knapen_aot/AOT/AOT_stimuli/pictures/0083_fw.png	181.45927596092224	1.0970590114593506
31	54.66600298881531	response	0	k		29.0	/experiments/knapen_aot/AOT/AOT_stimuli/pictures/0083_fw.png	182.54266905784607	
32	54.67966890335083	picture	0		116	30.0	/experiments/knapen_aot/AOT/AOT_stimuli/pictures/2128_fw.png	182.5563349723816	0.9721851348876953
32	55.641013860702515	response	0	j		30.0	/experiments/knapen_aot/AOT/AOT_stimuli/pictures/2128_fw.png	183.51767992973328	
33	55.651854038238525	picture	0		112	31.0	/experiments/knapen_aot/AOT/AOT_stimuli/pictures/1139_fw.png	183.5285201072693	0.9307408332824707
33	56.57437491416931	response	0	j		31.0	/experiments/knapen_aot/AOT/AOT_stimuli/pictures/1139_fw.png	184.45104098320007	
34	56.582594871520996	picture	0		113	32.0	/experiments/knapen_aot/AOT/AOT_stimuli/pictures/0012_fw.png	184.45926094055176	0.9441711902618408
34	57.516088008880615	response	0	j		32.0	/experiments/knapen_aot/AOT/AOT_stimuli/pictures/0012_fw.png	185.39275407791138	
35	57.52676606178284	picture	0		108	33.0	/experiments/knapen_aot/AOT/AOT_stimuli/pictures/1887_fw.png	185.4034321308136	0.9028167724609375
35	58.41596603393555	response	0	j		33.0	/experiments/knapen_aot/AOT/AOT_stimuli/pictures/1887_fw.png	186.2926321029663	
36	58.429582834243774	picture	0		108	34.0	/experiments/knapen_aot/AOT/AOT_stimuli/pictures/1039_fw.png	186.30624890327454	0.9029581546783447
36	59.317484855651855	response	0	j		34.0	/experiments/knapen_aot/AOT/AOT_stimuli/pictures/1039_fw.png	187.19415092468262	
37	59.33254098892212	picture	0		124	35.0	/experiments/knapen_aot/AOT/AOT_stimuli/pictures/0460_fw.png	187.20920705795288	1.034527063369751
37	60.35772895812988	response	0	j		35.0	/experiments/knapen_aot/AOT/AOT_stimuli/pictures/0460_fw.png	188.23439502716064	
38	60.36706805229187	picture	0		118	36.0	/experiments/knapen_aot/AOT/AOT_stimuli/pictures/1813_fw.png	188.24373412132263	0.9860398769378662
38	61.33427596092224	response	0	j		36.0	/experiments/knapen_aot/AOT/AOT_stimuli/pictures/1813_fw.png	189.210942029953	
39	61.353107929229736	picture	0		115	37.0	/experiments/knapen_aot/AOT/AOT_stimuli/pictures/0453_fw.png	189.2297739982605	0.9583330154418945
39	62.29933190345764	response	0	j		37.0	/experiments/knapen_aot/AOT/AOT_stimuli/pictures/0453_fw.png	190.1759979724884	
40	62.31144094467163	picture	0		110	38.0	/experiments/knapen_aot/AOT/AOT_stimuli/pictures/0974_fw.png	190.1881070137024	0.9236340522766113
40	63.21590185165405	response	0	j		38.0	/experiments/knapen_aot/AOT/AOT_stimuli/pictures/0974_fw.png	191.09256792068481	
41	63.23507499694824	picture	0		100	39.0	/experiments/knapen_aot/AOT/AOT_stimuli/pictures/2142_fw.png	191.111741065979	0.833284854888916
41	64.05767703056335	response	0	j		39.0	/experiments/knapen_aot/AOT/AOT_stimuli/pictures/2142_fw.png	191.93434309959412	
42	64.06835985183716	picture	0		184	40.0	/experiments/knapen_aot/AOT/AOT_stimuli/pictures/0836_fw.png	191.94502592086792	1.5348210334777832
42	65.59095788002014	response	0	k		40.0	/experiments/knapen_aot/AOT/AOT_stimuli/pictures/0836_fw.png	193.4676239490509	
43	65.60318088531494	picture	0		114	41.0	/experiments/knapen_aot/AOT/AOT_stimuli/pictures/0115_fw.png	193.4798469543457	0.9582140445709229
43	66.54263091087341	response	0	j		41.0	/experiments/knapen_aot/AOT/AOT_stimuli/pictures/0115_fw.png	194.41929697990417	
44	66.56139492988586	picture	0		147	42.0	/experiments/knapen_aot/AOT/AOT_stimuli/pictures/1646_fw.png	194.43806099891663	1.2222321033477783
44	67.77446794509888	response	0	j		42.0	/experiments/knapen_aot/AOT/AOT_stimuli/pictures/1646_fw.png	195.65113401412964	
45	67.78362703323364	picture	0		89	43.0	/experiments/knapen_aot/AOT/AOT_stimuli/pictures/2022_fw.png	195.6602931022644	0.7489948272705078
45	68.51595306396484	response	0	j		43.0	/experiments/knapen_aot/AOT/AOT_stimuli/pictures/2022_fw.png	196.3926191329956	
46	68.53262186050415	picture	0		122	44.0	/experiments/knapen_aot/AOT/AOT_stimuli/pictures/1746_fw.png	196.4092879295349	1.0218610763549805
46	69.5341899394989	response	0	k		44.0	/experiments/knapen_aot/AOT/AOT_stimuli/pictures/1746_fw.png	197.41085600852966	
47	69.55448293685913	picture	0		104	45.0	/experiments/knapen_aot/AOT/AOT_stimuli/pictures/0542_fw.png	197.4311490058899	0.8750920295715332
47	70.41595888137817	response	0	j		45.0	/experiments/knapen_aot/AOT/AOT_stimuli/pictures/0542_fw.png	198.29262495040894	
48	70.42957496643066	picture	0		116	46.0	/experiments/knapen_aot/AOT/AOT_stimuli/pictures/0623_fw.png	198.30624103546143	0.9720890522003174
48	71.39092588424683	response	0	j		46.0	/experiments/knapen_aot/AOT/AOT_stimuli/pictures/0623_fw.png	199.2675919532776	
49	71.40166401863098	picture	0		140	47.0	/experiments/knapen_aot/AOT/AOT_stimuli/pictures/1324_fw.png	199.27833008766174	1.1725380420684814
49	72.55763602256775	response	0	k		47.0	/experiments/knapen_aot/AOT/AOT_stimuli/pictures/1324_fw.png	200.4343020915985	
50	72.57420206069946	picture	0		105	48.0	/experiments/knapen_aot/AOT/AOT_stimuli/pictures/1786_fw.png	200.45086812973022	0.8760368824005127
50	73.44095587730408	response	0	j		48.0	/experiments/knapen_aot/AOT/AOT_stimuli/pictures/1786_fw.png	201.31762194633484	
51	73.45023894309998	picture	0		115	49.0	/experiments/knapen_aot/AOT/AOT_stimuli/pictures/1192_fw.png	201.32690501213074	0.9583740234375
51	74.39924788475037	response	0	k		49.0	/experiments/knapen_aot/AOT/AOT_stimuli/pictures/1192_fw.png	202.27591395378113	
52	74.40861296653748	picture	0		165	50.0	/experiments/knapen_aot/AOT/AOT_stimuli/pictures/0255_fw.png	202.28527903556824	1.3749279975891113
52	75.77427196502686	response	0	k		50.0	/experiments/knapen_aot/AOT/AOT_stimuli/pictures/0255_fw.png	203.65093803405762	
53	75.78354096412659	picture	0		92	51.0	/experiments/knapen_aot/AOT/AOT_stimuli/pictures/1092_fw.png	203.66020703315735	0.7709159851074219
53	76.53411293029785	response	0	j		51.0	/experiments/knapen_aot/AOT/AOT_stimuli/pictures/1092_fw.png	204.4107789993286	
54	76.55445694923401	picture	0		88	52.0	/experiments/knapen_aot/AOT/AOT_stimuli/pictures/0182_fw.png	204.43112301826477	0.7430219650268555
54	77.28261184692383	response	0	j		52.0	/experiments/knapen_aot/AOT/AOT_stimuli/pictures/0182_fw.png	205.1592779159546	
55	77.29747891426086	picture	0		122	53.0	/experiments/knapen_aot/AOT/AOT_stimuli/pictures/1333_fw.png	205.17414498329163	1.0207500457763672
55	78.30762887001038	response	0	k		53.0	/experiments/knapen_aot/AOT/AOT_stimuli/pictures/1333_fw.png	206.18429493904114	
56	78.31822896003723	picture	0		153	54.0	/experiments/knapen_aot/AOT/AOT_stimuli/pictures/0742_fw.png	206.194895029068	1.277843952178955
56	79.58260202407837	response	0	j		54.0	/experiments/knapen_aot/AOT/AOT_stimuli/pictures/0742_fw.png	207.45926809310913	
57	79.59607291221619	picture	0		145	55.0	/experiments/knapen_aot/AOT/AOT_stimuli/pictures/0122_fw.png	207.47273898124695	1.2151710987091064
57	80.79924488067627	response	0	j		55.0	/experiments/knapen_aot/AOT/AOT_stimuli/pictures/0122_fw.png	208.67591094970703	
58	80.8112440109253	picture	0		135	56.0	/experiments/knapen_aot/AOT/AOT_stimuli/pictures/2084_fw.png	208.68791007995605	1.1249940395355225
58	81.92423486709595	response	0	k		56.0	/experiments/knapen_aot/AOT/AOT_stimuli/pictures/2084_fw.png	209.8009009361267	
59	81.93623805046082	picture	0		113	57.0	/experiments/knapen_aot/AOT/AOT_stimuli/pictures/1037_fw.png	209.81290411949158	0.946260929107666
59	82.86591386795044	response	0	j		57.0	/experiments/knapen_aot/AOT/AOT_stimuli/pictures/1037_fw.png	210.7425799369812	
60	82.88249897956848	picture	0		139	58.0	/experiments/knapen_aot/AOT/AOT_stimuli/pictures/1088_fw.png	210.75916504859924	1.1582880020141602
60	84.03254985809326	response	0	k		58.0	/experiments/knapen_aot/AOT/AOT_stimuli/pictures/1088_fw.png	211.90921592712402	
61	84.04078698158264	picture	0		131	59.0	/experiments/knapen_aot/AOT/AOT_stimuli/pictures/0378_fw.png	211.9174530506134	1.0969150066375732
61	85.12422585487366	response	0	j		59.0	/experiments/knapen_aot/AOT/AOT_stimuli/pictures/0378_fw.png	213.00089192390442	
62	85.13770198822021	picture	0		125	60.0	/experiments/knapen_aot/AOT/AOT_stimuli/pictures/1988_fw.png	213.01436805725098	1.0484979152679443
62	86.17422103881836	response	0	j		60.0	/experiments/knapen_aot/AOT/AOT_stimuli/pictures/1988_fw.png	214.05088710784912	
63	86.18619990348816	picture	0		134	61.0	/experiments/knapen_aot/AOT/AOT_stimuli/pictures/1248_fw.png	214.06286597251892	1.1181421279907227
63	87.29091501235962	response	0	j		61.0	/experiments/knapen_aot/AOT/AOT_stimuli/pictures/1248_fw.png	215.16758108139038	
64	87.30434203147888	picture	0		112	62.0	/experiments/knapen_aot/AOT/AOT_stimuli/pictures/0762_fw.png	215.18100810050964	0.9448058605194092
64	88.2326078414917	response	0	k		62.0	/experiments/knapen_aot/AOT/AOT_stimuli/pictures/0762_fw.png	216.10927391052246	
65	88.24914789199829	picture	0		89	63.0	/experiments/knapen_aot/AOT/AOT_stimuli/pictures/0557_fw.png	216.12581396102905	0.7426300048828125
65	88.98252892494202	response	0	j		63.0	/experiments/knapen_aot/AOT/AOT_stimuli/pictures/0557_fw.png	216.85919499397278	
66	88.9917778968811	picture	0		107	64.0	/experiments/knapen_aot/AOT/AOT_stimuli/pictures/1976_fw.png	216.86844396591187	0.895888090133667
66	89.87423801422119	response	0	j		64.0	/experiments/knapen_aot/AOT/AOT_stimuli/pictures/1976_fw.png	217.75090408325195	
67	89.88766598701477	picture	0		108	65.0	/experiments/knapen_aot/AOT/AOT_stimuli/pictures/0664_fw.png	217.76433205604553	0.9030840396881104
67	90.78246092796326	response	0	k		65.0	/experiments/knapen_aot/AOT/AOT_stimuli/pictures/0664_fw.png	218.65912699699402	
68	90.79075002670288	picture	0		107	66.0	/experiments/knapen_aot/AOT/AOT_stimuli/pictures/0885_fw.png	218.66741609573364	0.8954110145568848
68	91.67418503761292	response	0	j		66.0	/experiments/knapen_aot/AOT/AOT_stimuli/pictures/0885_fw.png	219.55085110664368	
69	91.68616104125977	picture	0		116	67.0	/experiments/knapen_aot/AOT/AOT_stimuli/pictures/1474_fw.png	219.56282711029053	0.9654369354248047
69	92.64088582992554	response	0	k		67.0	/experiments/knapen_aot/AOT/AOT_stimuli/pictures/1474_fw.png	220.5175518989563	
70	92.65159797668457	picture	0		103	68.0	/experiments/knapen_aot/AOT/AOT_stimuli/pictures/2086_fw.png	220.52826404571533	0.860975980758667
70	93.49923896789551	response	0	j		68.0	/experiments/knapen_aot/AOT/AOT_stimuli/pictures/2086_fw.png	221.37590503692627	
71	93.51257395744324	picture	0		126	69.0	/experiments/knapen_aot/AOT/AOT_stimuli/pictures/2149_fw.png	221.389240026474	1.0555450916290283
71	94.55071997642517	response	0	k		69.0	/experiments/knapen_aot/AOT/AOT_stimuli/pictures/2149_fw.png	222.42738604545593	
72	94.56811904907227	picture	0		122	70.0	/experiments/knapen_aot/AOT/AOT_stimuli/pictures/0077_fw.png	222.44478511810303	1.014197826385498
72	95.56730604171753	response	0	j		70.0	/experiments/knapen_aot/AOT/AOT_stimuli/pictures/0077_fw.png	223.4439721107483	
73	95.58231687545776	picture	0		113	71.0	/experiments/knapen_aot/AOT/AOT_stimuli/pictures/0214_fw.png	223.45898294448853	0.9440751075744629
73	96.51584887504578	response	0	j		71.0	/experiments/knapen_aot/AOT/AOT_stimuli/pictures/0214_fw.png	224.39251494407654	
74	96.52639198303223	picture	0		139	72.0	/experiments/knapen_aot/AOT/AOT_stimuli/pictures/0800_fw.png	224.403058052063	1.1597020626068115
74	97.67415189743042	response	0	k		72.0	/experiments/knapen_aot/AOT/AOT_stimuli/pictures/0800_fw.png	225.55081796646118	
75	97.68609404563904	picture	0		157	73.0	/experiments/knapen_aot/AOT/AOT_stimuli/pictures/1506_fw.png	225.5627601146698	1.3055658340454102
75	98.98249983787537	response	0	k		73.0	/experiments/knapen_aot/AOT/AOT_stimuli/pictures/1506_fw.png	226.85916590690613	
76	98.99165987968445	picture	0		209	74.0	/experiments/knapen_aot/AOT/AOT_stimuli/pictures/0636_fw.png	226.8683259487152	1.743028163909912
76	100.72415590286255	response	0	k		74.0	/experiments/knapen_aot/AOT/AOT_stimuli/pictures/0636_fw.png	228.6008219718933	
77	100.73468804359436	picture	0		100	75.0	/experiments/knapen_aot/AOT/AOT_stimuli/pictures/0765_fw.png	228.61135411262512	0.840303897857666
77	101.55074906349182	response	0	j		75.0	/experiments/knapen_aot/AOT/AOT_stimuli/pictures/0765_fw.png	229.42741513252258	
78	101.57499194145203	picture	0		97	76.0	/experiments/knapen_aot/AOT/AOT_stimuli/pictures/2069_fw.png	229.4516580104828	0.8125019073486328
78	102.3742208480835	response	0	j		76.0	/experiments/knapen_aot/AOT/AOT_stimuli/pictures/2069_fw.png	230.25088691711426	
79	102.38749384880066	picture	0		111	77.0	/experiments/knapen_aot/AOT/AOT_stimuli/pictures/1511_fw.png	230.26415991783142	0.9368879795074463
79	103.30748200416565	response	0	k		77.0	/experiments/knapen_aot/AOT/AOT_stimuli/pictures/1511_fw.png	231.1841480731964	
80	103.3243818283081	picture	0		104	78.0	/experiments/knapen_aot/AOT/AOT_stimuli/pictures/0329_fw.png	231.20104789733887	0.8686180114746094
80	104.18248105049133	response	0	k		78.0	/experiments/knapen_aot/AOT/AOT_stimuli/pictures/0329_fw.png	232.0591471195221	
81	104.19299983978271	picture	0		116	79.0	/experiments/knapen_aot/AOT/AOT_stimuli/pictures/1057_fw.png	232.06966590881348	0.9652740955352783
81	105.14231085777283	response	0	j		79.0	/experiments/knapen_aot/AOT/AOT_stimuli/pictures/1057_fw.png	233.0189769268036	
82	105.158273935318	picture	0		122	80.0	/experiments/knapen_aot/AOT/AOT_stimuli/pictures/0065_fw.png	233.03494000434875	1.0208539962768555
82	106.15892696380615	response	0	k		80.0	/experiments/knapen_aot/AOT/AOT_stimuli/pictures/0065_fw.png	234.0355930328369	
83	106.17912793159485	picture	0		247	81.0	/experiments/knapen_aot/AOT/AOT_stimuli/pictures/0578_fw.png	234.0557940006256	2.062407970428467
83	108.23248195648193	response	0	k		81.0	/experiments/knapen_aot/AOT/AOT_stimuli/pictures/0578_fw.png	236.1091480255127	
84	108.24153590202332	picture	0		135	82.0	/experiments/knapen_aot/AOT/AOT_stimuli/pictures/2119_fw.png	236.11820197105408	1.1249871253967285
84	109.35078692436218	response	0	k		82.0	/experiments/knapen_aot/AOT/AOT_stimuli/pictures/2119_fw.png	237.22745299339294	
85	109.36652302742004	picture	0		146	83.0	/experiments/knapen_aot/AOT/AOT_stimuli/pictures/0523_fw.png	237.2431890964508	1.2241590023040771
85	110.56726503372192	response	0	j		83.0	/experiments/knapen_aot/AOT/AOT_stimuli/pictures/0523_fw.png	238.44393110275269	
86	110.59068202972412	picture	0		382	84.0	/experiments/knapen_aot/AOT/AOT_stimuli/pictures/0194_fw.png	238.46734809875488	3.191710948944092
86	113.75897789001465	response	0	k		84.0	/experiments/knapen_aot/AOT/AOT_stimuli/pictures/0194_fw.png	241.6356439590454	
87	113.78239297866821	picture	0		117	85.0	/experiments/knapen_aot/AOT/AOT_stimuli/pictures/0324_fw.png	241.65905904769897	0.9800128936767578
87	114.74314284324646	response	0	j		85.0	/experiments/knapen_aot/AOT/AOT_stimuli/pictures/0324_fw.png	242.61980891227722	
88	114.76240587234497	picture	0		120	86.0	/experiments/knapen_aot/AOT/AOT_stimuli/pictures/1073_fw.png	242.63907194137573	1.0070040225982666
88	115.7506320476532	response	0	k		86.0	/experiments/knapen_aot/AOT/AOT_stimuli/pictures/1073_fw.png	243.62729811668396	
89	115.76940989494324	picture	0		134	87.0	/experiments/knapen_aot/AOT/AOT_stimuli/pictures/1197_fw.png	243.646075963974	1.1179449558258057
89	116.87408399581909	response	0	j		87.0	/experiments/knapen_aot/AOT/AOT_stimuli/pictures/1197_fw.png	244.75075006484985	
90	116.88735485076904	picture	0		90	88.0	/experiments/knapen_aot/AOT/AOT_stimuli/pictures/1944_fw.png	244.7640209197998	0.7569169998168945
90	117.63245701789856	response	0	j		88.0	/experiments/knapen_aot/AOT/AOT_stimuli/pictures/1944_fw.png	245.50912308692932	
91	117.64427185058594	picture	0		105	89.0	/experiments/knapen_aot/AOT/AOT_stimuli/pictures/1962_fw.png	245.5209379196167	0.8749630451202393
91	118.50736904144287	response	0	j		89.0	/experiments/knapen_aot/AOT/AOT_stimuli/pictures/1962_fw.png	246.38403511047363	
92	118.51923489570618	picture	0		136	90.0	/experiments/knapen_aot/AOT/AOT_stimuli/pictures/1023_fw.png	246.39590096473694	1.1320171356201172
92	119.64074206352234	response	0	k		90.0	/experiments/knapen_aot/AOT/AOT_stimuli/pictures/1023_fw.png	247.5174081325531	
93	119.6512520313263	picture	0		257	91.0	/experiments/knapen_aot/AOT/AOT_stimuli/pictures/1585_fw.png	247.52791810035706	2.148037910461426
93	121.78329205513	response	0	k		91.0	/experiments/knapen_aot/AOT/AOT_stimuli/pictures/1585_fw.png	249.65995812416077	
94	121.79928994178772	picture	0		132	92.0	/experiments/knapen_aot/AOT/AOT_stimuli/pictures/1800_fw.png	249.67595601081848	1.1018459796905518
94	122.89076495170593	response	0	k		92.0	/experiments/knapen_aot/AOT/AOT_stimuli/pictures/1800_fw.png	250.7674310207367	
95	122.90113592147827	picture	0		129	93.0	/experiments/knapen_aot/AOT/AOT_stimuli/pictures/1475_fw.png	250.77780199050903	1.076422929763794
95	123.95905184745789	response	0	k		93.0	/experiments/knapen_aot/AOT/AOT_stimuli/pictures/1475_fw.png	251.83571791648865	
96	123.97755885124207	picture	0		119	94.0	/experiments/knapen_aot/AOT/AOT_stimuli/pictures/1184_fw.png	251.85422492027283	0.9930481910705566
96	124.95146203041077	response	0	j		94.0	/experiments/knapen_aot/AOT/AOT_stimuli/pictures/1184_fw.png	252.82812809944153	
97	124.97060704231262	picture	0		397	95.0	/experiments/knapen_aot/AOT/AOT_stimuli/pictures/1689_fw.png	252.84727311134338	3.3123929500579834
97	128.27401995658875	response	0	k		95.0	/experiments/knapen_aot/AOT/AOT_stimuli/pictures/1689_fw.png	256.1506860256195	
98	128.2829999923706	picture	0		120	96.0	/experiments/knapen_aot/AOT/AOT_stimuli/pictures/1618_fw.png	256.15966606140137	1.0000078678131104
98	129.27396202087402	response	0	j		96.0	/experiments/knapen_aot/AOT/AOT_stimuli/pictures/1618_fw.png	257.1506280899048	
99	129.28300786018372	picture	0		130	97.0	/experiments/knapen_aot/AOT/AOT_stimuli/pictures/1656_fw.png	257.1596739292145	1.0833380222320557
99	130.35056591033936	response	0	j		97.0	/experiments/knapen_aot/AOT/AOT_stimuli/pictures/1656_fw.png	258.2272319793701	
100	130.36634588241577	picture	0		101	98.0	/experiments/knapen_aot/AOT/AOT_stimuli/pictures/1574_fw.png	258.24301195144653	0.8492679595947266
100	131.19987797737122	response	0	j		98.0	/experiments/knapen_aot/AOT/AOT_stimuli/pictures/1574_fw.png	259.076544046402	
101	131.2156138420105	picture	0		150	99.0	/experiments/knapen_aot/AOT/AOT_stimuli/pictures/0283_fw.png	259.09227991104126	1.2549090385437012
101	132.4573929309845	response	0	k		99.0	/experiments/knapen_aot/AOT/AOT_stimuli/pictures/0283_fw.png	260.33405900001526	
102	132.4705228805542	picture	0		130	100.0	/experiments/knapen_aot/AOT/AOT_stimuli/pictures/0404_fw.png	260.34718894958496	1.0951290130615234
102	133.54900288581848	response	0	k		100.0	/experiments/knapen_aot/AOT/AOT_stimuli/pictures/0404_fw.png	261.42566895484924	
103	133.56565189361572	picture	0		117	101.0	/experiments/knapen_aot/AOT/AOT_stimuli/pictures/0733_fw.png	261.4423179626465	0.9812510013580322
103	134.53303790092468	response	0	k		101.0	/experiments/knapen_aot/AOT/AOT_stimuli/pictures/0733_fw.png	262.40970396995544	
104	134.54690289497375	picture	0		130	102.0	/experiments/knapen_aot/AOT/AOT_stimuli/pictures/1496_fw.png	262.4235689640045	1.0903029441833496
104	135.6240270137787	response	0	j		102.0	/experiments/knapen_aot/AOT/AOT_stimuli/pictures/1496_fw.png	263.50069308280945	
105	135.6372058391571	picture	0		111	103.0	/experiments/knapen_aot/AOT/AOT_stimuli/pictures/0422_fw.png	263.51387190818787	0.9367530345916748
105	136.55048203468323	response	0	k		103.0	/experiments/knapen_aot/AOT/AOT_stimuli/pictures/0422_fw.png	264.427148103714	
106	136.57395887374878	picture	0		99	104.0	/experiments/knapen_aot/AOT/AOT_stimuli/pictures/0294_fw.png	264.45062494277954	0.8270621299743652
106	137.38389897346497	response	0	j		104.0	/experiments/knapen_aot/AOT/AOT_stimuli/pictures/0294_fw.png	265.2605650424957	
107	137.40102100372314	picture	0		127	105.0	/experiments/knapen_aot/AOT/AOT_stimuli/pictures/1679_fw.png	265.2776870727539	1.0649569034576416
107	138.44980001449585	response	0	j		105.0	/experiments/knapen_aot/AOT/AOT_stimuli/pictures/1679_fw.png	266.3264660835266	
108	138.4659779071808	picture	0		123	106.0	/experiments/knapen_aot/AOT/AOT_stimuli/pictures/0775_fw.png	266.34264397621155	1.0253019332885742
108	139.48230004310608	response	0	k		106.0	/experiments/knapen_aot/AOT/AOT_stimuli/pictures/0775_fw.png	267.35896611213684	
109	139.49127984046936	picture	0		106	107.0	/experiments/knapen_aot/AOT/AOT_stimuli/pictures/0191_fw.png	267.3679459095001	0.8909561634063721
109	140.3664379119873	response	0	j		107.0	/experiments/knapen_aot/AOT/AOT_stimuli/pictures/0191_fw.png	268.24310398101807	
110	140.38223600387573	picture	0		131	108.0	/experiments/knapen_aot/AOT/AOT_stimuli/pictures/1071_fw.png	268.2589020729065	1.0950989723205566
110	141.46560788154602	response	0	j		108.0	/experiments/knapen_aot/AOT/AOT_stimuli/pictures/1071_fw.png	269.3422739505768	
111	141.4773349761963	picture	0		121	109.0	/experiments/knapen_aot/AOT/AOT_stimuli/pictures/1770_fw.png	269.35400104522705	1.0069310665130615
111	142.47405195236206	response	0	k		109.0	/experiments/knapen_aot/AOT/AOT_stimuli/pictures/1770_fw.png	270.3507180213928	
112	142.48426604270935	picture	0		104	110.0	/experiments/knapen_aot/AOT/AOT_stimuli/pictures/0452_fw.png	270.3609321117401	0.8732078075408936
112	143.34063386917114	response	0	j		110.0	/experiments/knapen_aot/AOT/AOT_stimuli/pictures/0452_fw.png	271.2172999382019	
113	143.35747385025024	picture	0		121	111.0	/experiments/knapen_aot/AOT/AOT_stimuli/pictures/1104_fw.png	271.234139919281	1.0087261199951172
113	144.35058403015137	response	0	j		111.0	/experiments/knapen_aot/AOT/AOT_stimuli/pictures/1104_fw.png	272.22725009918213	
114	144.36619997024536	picture	0		149	112.0	/experiments/knapen_aot/AOT/AOT_stimuli/pictures/1940_fw.png	272.2428660392761	1.2430479526519775
114	145.59892106056213	response	0	j		112.0	/experiments/knapen_aot/AOT/AOT_stimuli/pictures/1940_fw.png	273.4755871295929	
115	145.60924792289734	picture	0		130	113.0	/experiments/knapen_aot/AOT/AOT_stimuli/pictures/0337_fw.png	273.4859139919281	1.0833549499511719
115	146.6822669506073	response	0	j		113.0	/experiments/knapen_aot/AOT/AOT_stimuli/pictures/0337_fw.png	274.55893301963806	
116	146.6926028728485	picture	0		105	114.0	/experiments/knapen_aot/AOT/AOT_stimuli/pictures/0458_fw.png	274.5692689418793	0.8749740123748779
116	147.55728602409363	response	0	j		114.0	/experiments/knapen_aot/AOT/AOT_stimuli/pictures/0458_fw.png	275.4339520931244	
117	147.5675768852234	picture	0		98	115.0	/experiments/knapen_aot/AOT/AOT_stimuli/pictures/0310_fw.png	275.44424295425415	0.8194830417633057
117	148.36780190467834	response	0	j		115.0	/experiments/knapen_aot/AOT/AOT_stimuli/pictures/0310_fw.png	276.2444679737091	
118	148.3870599269867	picture	0		199	116.0	/experiments/knapen_aot/AOT/AOT_stimuli/pictures/1449_fw.png	276.26372599601746	1.6667160987854004
118	150.04058504104614	response	0	k		116.0	/experiments/knapen_aot/AOT/AOT_stimuli/pictures/1449_fw.png	277.9172511100769	
119	150.0537760257721	picture	0		107	117.0	/experiments/knapen_aot/AOT/AOT_stimuli/pictures/0293_fw.png	277.93044209480286	0.8957200050354004
119	150.94063901901245	response	0	j		117.0	/experiments/knapen_aot/AOT/AOT_stimuli/pictures/0293_fw.png	278.8173050880432	
120	150.9494960308075	picture	0		114	118.0	/experiments/knapen_aot/AOT/AOT_stimuli/pictures/0331_fw.png	278.82616209983826	0.9513828754425049
120	151.8905680179596	response	0	k		118.0	/experiments/knapen_aot/AOT/AOT_stimuli/pictures/0331_fw.png	279.76723408699036	
121	151.90087890625	picture	0		150	119.0	/experiments/knapen_aot/AOT/AOT_stimuli/pictures/0661_fw.png	279.77754497528076	1.250025987625122
121	153.14058089256287	response	0	k		119.0	/experiments/knapen_aot/AOT/AOT_stimuli/pictures/0661_fw.png	281.0172469615936	
122	153.15090489387512	picture	0		85	120.0	/experiments/knapen_aot/AOT/AOT_stimuli/pictures/0969_fw.png	281.0275709629059	0.7082710266113281
122	153.84891891479492	response	0	j		120.0	/experiments/knapen_aot/AOT/AOT_stimuli/pictures/0969_fw.png	281.7255849838257	
123	153.85917592048645	picture	0		110	121.0	/experiments/knapen_aot/AOT/AOT_stimuli/pictures/0172_fw.png	281.7358419895172	0.9166619777679443
123	154.75902700424194	response	0	k		121.0	/experiments/knapen_aot/AOT/AOT_stimuli/pictures/0172_fw.png	282.6356930732727	
124	154.7758378982544	picture	0		340	122.0	/experiments/knapen_aot/AOT/AOT_stimuli/pictures/2135_fw.png	282.65250396728516	2.833346128463745
124	157.5989420413971	response	0	k		122.0	/experiments/knapen_aot/AOT/AOT_stimuli/pictures/2135_fw.png	285.47560811042786	
125	157.60918402671814	picture	0		105	123.0	/experiments/knapen_aot/AOT/AOT_stimuli/pictures/1245_fw.png	285.4858500957489	0.8749239444732666
125	158.47394585609436	response	0	j		123.0	/experiments/knapen_aot/AOT/AOT_stimuli/pictures/1245_fw.png	286.3506119251251	
126	158.4841079711914	picture	0		142	124.0	/experiments/knapen_aot/AOT/AOT_stimuli/pictures/1821_fw.png	286.36077404022217	1.1897239685058594
126	159.65787196159363	response	0	k		124.0	/experiments/knapen_aot/AOT/AOT_stimuli/pictures/1821_fw.png	287.5345380306244	
127	159.67383193969727	picture	0		101	125.0	/experiments/knapen_aot/AOT/AOT_stimuli/pictures/1922_fw.png	287.550498008728	0.8450400829315186
127	160.50729393959045	response	0	j		125.0	/experiments/knapen_aot/AOT/AOT_stimuli/pictures/1922_fw.png	288.3839600086212	
128	160.51887202262878	picture	0		112	126.0	/experiments/knapen_aot/AOT/AOT_stimuli/pictures/0494_fw.png	288.39553809165955	0.9304769039154053
128	161.44052696228027	response	0	k		126.0	/experiments/knapen_aot/AOT/AOT_stimuli/pictures/0494_fw.png	289.31719303131104	
129	161.4493489265442	picture	0		133	127.0	/experiments/knapen_aot/AOT/AOT_stimuli/pictures/1062_fw.png	289.32601499557495	1.1111860275268555
129	162.54890394210815	response	0	k		127.0	/experiments/knapen_aot/AOT/AOT_stimuli/pictures/1062_fw.png	290.4255700111389	
130	162.56053495407104	picture	0		124	128.0	/experiments/knapen_aot/AOT/AOT_stimuli/pictures/1078_fw.png	290.4372010231018	1.0346770286560059
130	163.57594799995422	response	0	k		128.0	/experiments/knapen_aot/AOT/AOT_stimuli/pictures/1078_fw.png	291.452614068985	
131	163.59521198272705	picture	0		94	129.0	/experiments/knapen_aot/AOT/AOT_stimuli/pictures/0820_fw.png	291.4718780517578	0.7952649593353271
131	164.36768698692322	response	0	k		129.0	/experiments/knapen_aot/AOT/AOT_stimuli/pictures/0820_fw.png	292.244353055954	
132	164.39047694206238	picture	0		133	130.0	/experiments/knapen_aot/AOT/AOT_stimuli/pictures/0897_fw.png	292.26714301109314	1.1166770458221436
132	165.49119591712952	response	0	k		130.0	/experiments/knapen_aot/AOT/AOT_stimuli/pictures/0897_fw.png	293.3678619861603	
133	165.50715398788452	picture	0		98	131.0	/experiments/knapen_aot/AOT/AOT_stimuli/pictures/2080_fw.png	293.3838200569153	0.8172149658203125
133	166.31554293632507	response	0	j		131.0	/experiments/knapen_aot/AOT/AOT_stimuli/pictures/2080_fw.png	294.19220900535583	
134	166.32436895370483	picture	0		128	132.0	/experiments/knapen_aot/AOT/AOT_stimuli/pictures/0719_fw.png	294.2010350227356	1.0693988800048828
134	167.37546300888062	response	0	k		132.0	/experiments/knapen_aot/AOT/AOT_stimuli/pictures/0719_fw.png	295.2521290779114	
135	167.39376783370972	picture	0		111	133.0	/experiments/knapen_aot/AOT/AOT_stimuli/pictures/1912_fw.png	295.2704339027405	0.930023193359375
135	168.30720591545105	response	0	j		133.0	/experiments/knapen_aot/AOT/AOT_stimuli/pictures/1912_fw.png	296.1838719844818	
136	168.3237910270691	picture	0		128	134.0	/experiments/knapen_aot/AOT/AOT_stimuli/pictures/0184_fw.png	296.20045709609985	1.0700030326843262
136	169.37561583518982	response	0	j		134.0	/experiments/knapen_aot/AOT/AOT_stimuli/pictures/0184_fw.png	297.2522819042206	
137	169.39379405975342	picture	0		125	135.0	/experiments/knapen_aot/AOT/AOT_stimuli/pictures/1601_fw.png	297.2704601287842	1.041632890701294
137	170.42382192611694	response	0	k		135.0	/experiments/knapen_aot/AOT/AOT_stimuli/pictures/1601_fw.png	298.3004879951477	
138	170.4354269504547	picture	0		129	136.0	/experiments/knapen_aot/AOT/AOT_stimuli/pictures/0856_fw.png	298.3120930194855	1.0764548778533936
138	171.4988009929657	response	0	k		136.0	/experiments/knapen_aot/AOT/AOT_stimuli/pictures/0856_fw.png	299.37546706199646	
139	171.5118818283081	picture	0		135	137.0	/experiments/knapen_aot/AOT/AOT_stimuli/pictures/0493_fw.png	299.38854789733887	1.1318202018737793
139	172.63221883773804	response	0	k		137.0	/experiments/knapen_aot/AOT/AOT_stimuli/pictures/0493_fw.png	300.5088849067688	
140	172.64370203018188	picture	0		113	138.0	/experiments/knapen_aot/AOT/AOT_stimuli/pictures/0102_fw.png	300.52036809921265	0.9467349052429199
140	173.56704187393188	response	0	k		138.0	/experiments/knapen_aot/AOT/AOT_stimuli/pictures/0102_fw.png	301.44370794296265	
141	173.5904369354248	picture	0		112	139.0	/experiments/knapen_aot/AOT/AOT_stimuli/pictures/0325_fw.png	301.46710300445557	0.9352340698242188
141	174.5155098438263	response	0	j		139.0	/experiments/knapen_aot/AOT/AOT_stimuli/pictures/0325_fw.png	302.39217591285706	
142	174.52567100524902	picture	0		89	140.0	/experiments/knapen_aot/AOT/AOT_stimuli/pictures/1678_fw.png	302.4023370742798	0.7430360317230225
142	175.25717401504517	response	0	j		140.0	/experiments/knapen_aot/AOT/AOT_stimuli/pictures/1678_fw.png	303.1338400840759	
143	175.26870703697205	picture	0		105	141.0	/experiments/knapen_aot/AOT/AOT_stimuli/pictures/0831_fw.png	303.1453731060028	0.8750019073486328
143	176.13221502304077	response	0	k		141.0	/experiments/knapen_aot/AOT/AOT_stimuli/pictures/0831_fw.png	304.00888109207153	
144	176.14370894432068	picture	0		130	142.0	/experiments/knapen_aot/AOT/AOT_stimuli/pictures/1226_fw.png	304.02037501335144	1.0832829475402832
144	177.21549105644226	response	0	k		142.0	/experiments/knapen_aot/AOT/AOT_stimuli/pictures/1226_fw.png	305.092157125473	
145	177.22699189186096	picture	0		98	143.0	/experiments/knapen_aot/AOT/AOT_stimuli/pictures/0829_fw.png	305.1036579608917	0.8221299648284912
145	178.03271889686584	response	0	j		143.0	/experiments/knapen_aot/AOT/AOT_stimuli/pictures/0829_fw.png	305.9093849658966	
146	178.04912185668945	picture	0		142	144.0	/experiments/knapen_aot/AOT/AOT_stimuli/pictures/0655_fw.png	305.9257879257202	1.1848101615905762
146	179.22379398345947	response	0	j		144.0	/experiments/knapen_aot/AOT/AOT_stimuli/pictures/0655_fw.png	307.10046005249023	
147	179.23393201828003	picture	0		149	145.0	/experiments/knapen_aot/AOT/AOT_stimuli/pictures/2011_fw.png	307.1105980873108	1.2430639266967773
147	180.4655158519745	response	0	k		145.0	/experiments/knapen_aot/AOT/AOT_stimuli/pictures/2011_fw.png	308.34218192100525	
148	180.4769959449768	picture	0		104	146.0	/experiments/knapen_aot/AOT/AOT_stimuli/pictures/1666_fw.png	308.35366201400757	0.8681740760803223
148	181.3321828842163	response	0	k		146.0	/experiments/knapen_aot/AOT/AOT_stimuli/pictures/1666_fw.png	309.20884895324707	
149	181.34517002105713	picture	0		106	147.0	/experiments/knapen_aot/AOT/AOT_stimuli/pictures/0726_fw.png	309.2218360900879	0.8887228965759277
149	182.22378587722778	response	0	k		147.0	/experiments/knapen_aot/AOT/AOT_stimuli/pictures/0726_fw.png	310.10045194625854	
150	182.23389291763306	picture	0		100	148.0	/experiments/knapen_aot/AOT/AOT_stimuli/pictures/0406_fw.png	310.1105589866638	0.8333230018615723
150	183.05720686912537	response	0	k		148.0	/experiments/knapen_aot/AOT/AOT_stimuli/pictures/0406_fw.png	310.9338729381561	
151	183.06721591949463	picture	0		125	149.0	/experiments/knapen_aot/AOT/AOT_stimuli/pictures/1312_fw.png	310.9438819885254	1.0482370853424072
151	184.09882283210754	response	0	k		149.0	/experiments/knapen_aot/AOT/AOT_stimuli/pictures/1312_fw.png	311.9754889011383	
152	184.11545300483704	picture	0		94	150.0	/experiments/knapen_aot/AOT/AOT_stimuli/pictures/1138_fw.png	311.9921190738678	0.7851109504699707
152	184.8904230594635	response	0	k		150.0	/experiments/knapen_aot/AOT/AOT_stimuli/pictures/1138_fw.png	312.76708912849426	
153	184.900563955307	picture	0		109	151.0	/experiments/knapen_aot/AOT/AOT_stimuli/pictures/2167_fw.png	312.77723002433777	0.9096899032592773
153	185.79202389717102	response	0	j		151.0	/experiments/knapen_aot/AOT/AOT_stimuli/pictures/2167_fw.png	313.6686899662018	
154	185.81025385856628	picture	0		128	152.0	/experiments/knapen_aot/AOT/AOT_stimuli/pictures/1736_fw.png	313.68691992759705	1.069554090499878
154	186.86590790748596	response	0	j		152.0	/experiments/knapen_aot/AOT/AOT_stimuli/pictures/1736_fw.png	314.7425739765167	
155	186.87980794906616	picture	0		111	153.0	/experiments/knapen_aot/AOT/AOT_stimuli/pictures/0316_fw.png	314.7564740180969	0.9304170608520508
155	187.7920548915863	response	0	j		153.0	/experiments/knapen_aot/AOT/AOT_stimuli/pictures/0316_fw.png	315.66872096061707	
156	187.8102250099182	picture	0		287	154.0	/experiments/knapen_aot/AOT/AOT_stimuli/pictures/0015_fw.png	315.686891078949	2.4051320552825928
156	190.19921588897705	response	0	j		154.0	/experiments/knapen_aot/AOT/AOT_stimuli/pictures/0015_fw.png	318.0758819580078	
157	190.2153570652008	picture	0		110	155.0	/experiments/knapen_aot/AOT/AOT_stimuli/pictures/0646_fw.png	318.09202313423157	0.9212629795074463
157	191.12377095222473	response	0	j		155.0	/experiments/knapen_aot/AOT/AOT_stimuli/pictures/0646_fw.png	319.0004370212555	
158	191.13662004470825	picture	0		113	156.0	/experiments/knapen_aot/AOT/AOT_stimuli/pictures/1914_fw.png	319.013286113739	0.9537429809570312
158	192.06542301177979	response	0	k		156.0	/experiments/knapen_aot/AOT/AOT_stimuli/pictures/1914_fw.png	319.94208908081055	
159	192.09036302566528	picture	0		141	157.0	/experiments/knapen_aot/AOT/AOT_stimuli/pictures/0177_fw.png	319.96702909469604	1.1782479286193848
159	193.25711393356323	response	0	k		157.0	/experiments/knapen_aot/AOT/AOT_stimuli/pictures/0177_fw.png	321.133780002594	
160	193.26861095428467	picture	0		129	158.0	/experiments/knapen_aot/AOT/AOT_stimuli/pictures/0882_fw.png	321.14527702331543	1.080108880996704
160	194.33204889297485	response	0	k		158.0	/experiments/knapen_aot/AOT/AOT_stimuli/pictures/0882_fw.png	322.2087149620056	
161	194.34871983528137	picture	0		126	159.0	/experiments/knapen_aot/AOT/AOT_stimuli/pictures/0890_fw.png	322.22538590431213	1.0517611503601074
161	195.3836169242859	response	0	j		159.0	/experiments/knapen_aot/AOT/AOT_stimuli/pictures/0890_fw.png	323.26028299331665	
162	195.40048098564148	picture	0		146	160.0	/experiments/knapen_aot/AOT/AOT_stimuli/pictures/1469_fw.png	323.27714705467224	1.2152490615844727
162	196.60708785057068	response	0	j		160.0	/experiments/knapen_aot/AOT/AOT_stimuli/pictures/1469_fw.png	324.48375391960144	
163	196.61573004722595	picture	0		268	161.0	/experiments/knapen_aot/AOT/AOT_stimuli/pictures/1811_fw.png	324.4923961162567	2.2361068725585938
163	198.8403708934784	response	0	k		161.0	/experiments/knapen_aot/AOT/AOT_stimuli/pictures/1811_fw.png	326.71703696250916	
164	198.85183691978455	picture	0		134	162.0	/experiments/knapen_aot/AOT/AOT_stimuli/pictures/0776_fw.png	326.7285029888153	1.118053913116455
164	199.95708894729614	response	0	k		162.0	/experiments/knapen_aot/AOT/AOT_stimuli/pictures/0776_fw.png	327.8337550163269	
165	199.969890832901	picture	0		92	163.0	/experiments/knapen_aot/AOT/AOT_stimuli/pictures/0737_fw.png	327.84655690193176	0.7707581520080566
165	200.73205304145813	response	0	k		163.0	/experiments/knapen_aot/AOT/AOT_stimuli/pictures/0737_fw.png	328.6087191104889	
166	200.74064898490906	picture	0		102	164.0	/experiments/knapen_aot/AOT/AOT_stimuli/pictures/0284_fw.png	328.6173150539398	0.854201078414917
166	201.57562685012817	response	0	k		164.0	/experiments/knapen_aot/AOT/AOT_stimuli/pictures/0284_fw.png	329.45229291915894	
167	201.59485006332397	picture	0		178	165.0	/experiments/knapen_aot/AOT/AOT_stimuli/pictures/0377_fw.png	329.47151613235474	1.4931118488311768
167	203.07410383224487	response	0	k		165.0	/experiments/knapen_aot/AOT/AOT_stimuli/pictures/0377_fw.png	330.95076990127563	
168	203.08796191215515	picture	0		303	166.0	/experiments/knapen_aot/AOT/AOT_stimuli/pictures/0107_fw.png	330.9646279811859	2.5276429653167725
168	205.60029792785645	response	0	k		166.0	/experiments/knapen_aot/AOT/AOT_stimuli/pictures/0107_fw.png	333.4769639968872	
169	205.61560487747192	picture	0		113	167.0	/experiments/knapen_aot/AOT/AOT_stimuli/pictures/1214_fw.png	333.4922709465027	0.9444551467895508
169	206.5486798286438	response	0	k		167.0	/experiments/knapen_aot/AOT/AOT_stimuli/pictures/1214_fw.png	334.42534589767456	
170	206.56006002426147	picture	0		134	168.0	/experiments/knapen_aot/AOT/AOT_stimuli/pictures/1529_fw.png	334.43672609329224	1.1219439506530762
170	207.66530203819275	response	0	k		168.0	/experiments/knapen_aot/AOT/AOT_stimuli/pictures/1529_fw.png	335.5419681072235	
171	207.68200397491455	picture	0		507	169.0	/experiments/knapen_aot/AOT/AOT_stimuli/pictures/0201_fw.png	335.5586700439453	4.225234031677246
171	211.8986439704895	response	0	k		169.0	/experiments/knapen_aot/AOT/AOT_stimuli/pictures/0201_fw.png	339.77531003952026	
172	211.9072380065918	picture	0		306	170.0	/experiments/knapen_aot/AOT/AOT_stimuli/pictures/1893_fw.png	339.78390407562256	2.5556139945983887
172	214.44901585578918	response	0	j		170.0	/experiments/knapen_aot/AOT/AOT_stimuli/pictures/1893_fw.png	342.32568192481995	
173	214.46285200119019	picture	0		91	171.0	/experiments/knapen_aot/AOT/AOT_stimuli/pictures/1936_fw.png	342.33951807022095	0.7638289928436279
173	215.21533489227295	response	0	k		171.0	/experiments/knapen_aot/AOT/AOT_stimuli/pictures/1936_fw.png	343.0920009613037	
174	215.2266809940338	picture	0		84	172.0	/experiments/knapen_aot/AOT/AOT_stimuli/pictures/0886_fw.png	343.1033470630646	0.7014460563659668
174	215.9153139591217	response	0	k		172.0	/experiments/knapen_aot/AOT/AOT_stimuli/pictures/0886_fw.png	343.79198002815247	
175	215.92812705039978	picture	0		138	173.0	/experiments/knapen_aot/AOT/AOT_stimuli/pictures/0849_fw.png	343.80479311943054	1.1457319259643555
175	217.06534695625305	response	0	j		173.0	/experiments/knapen_aot/AOT/AOT_stimuli/pictures/0849_fw.png	344.9420130252838	
176	217.07385897636414	picture	0		119	174.0	/experiments/knapen_aot/AOT/AOT_stimuli/pictures/0420_fw.png	344.9505250453949	0.9997260570526123
176	218.05693888664246	response	0	k		174.0	/experiments/knapen_aot/AOT/AOT_stimuli/pictures/0420_fw.png	345.9336049556732	
177	218.07358503341675	picture	0		99	175.0	/experiments/knapen_aot/AOT/AOT_stimuli/pictures/1038_fw.png	345.9502511024475	0.8333189487457275
177	218.89039492607117	response	0	k		175.0	/experiments/knapen_aot/AOT/AOT_stimuli/pictures/1038_fw.png	346.76706099510193	
178	218.90690398216248	picture	0		89	176.0	/experiments/knapen_aot/AOT/AOT_stimuli/pictures/0346_fw.png	346.78357005119324	0.7433469295501709
178	219.64032697677612	response	0	j		176.0	/experiments/knapen_aot/AOT/AOT_stimuli/pictures/0346_fw.png	347.5169930458069	
179	219.65025091171265	picture	0		118	177.0	/experiments/knapen_aot/AOT/AOT_stimuli/pictures/1731_fw.png	347.5269169807434	0.9899730682373047
179	220.6235568523407	response	0	j		177.0	/experiments/knapen_aot/AOT/AOT_stimuli/pictures/1731_fw.png	348.50022292137146	
180	220.64022397994995	picture	0		186	178.0	/experiments/knapen_aot/AOT/AOT_stimuli/pictures/0267_fw.png	348.5168900489807	1.5583739280700684
180	222.18195986747742	response	0	k		178.0	/experiments/knapen_aot/AOT/AOT_stimuli/pictures/0267_fw.png	350.0586259365082	
181	222.19859790802002	picture	0		87	179.0	/experiments/knapen_aot/AOT/AOT_stimuli/pictures/1340_fw.png	350.0752639770508	0.7293851375579834
181	222.9153380393982	response	0	j		179.0	/experiments/knapen_aot/AOT/AOT_stimuli/pictures/1340_fw.png	350.79200410842896	
182	222.927983045578	stim	0		588			350.80464911460876	4.895801782608032
182	225.69031691551208	response	0	j				353.56698298454285	
182	227.8078429698944	response	0	space				355.68450903892517	
