trial_nr	onset	event_type	phase	response	nr_frames	picture_index	picture_file	onset_abs	duration
0	0.15758609771728516	stim	0		996			79.55683088302612	8.316356897354126
0	1.432711124420166	response	0	num_enter				80.831955909729	
0	8.45737910270691	response	0	space				87.85662388801575	
2	8.473942995071411	picture	0		1257	0.0	/experiments/knapen_aot/AOT/AOT_stimuli/pictures/2168_fw.png	87.87318778038025	10.476968050003052
2	18.940699100494385	response	0	j		0.0	/experiments/knapen_aot/AOT/AOT_stimuli/pictures/2168_fw.png	98.33994388580322	
3	18.950911045074463	picture	0		96	1.0	/experiments/knapen_aot/AOT/AOT_stimuli/pictures/0040_fw.png	98.3501558303833	0.7985961437225342
3	19.74065899848938	response	0	j		1.0	/experiments/knapen_aot/AOT/AOT_stimuli/pictures/0040_fw.png	99.13990378379822	
4	19.749507188796997	picture	0		114	2.0	/experiments/knapen_aot/AOT/AOT_stimuli/pictures/1237_fw.png	99.14875197410583	0.9513828754425049
4	20.683911085128784	response	0	k		2.0	/experiments/knapen_aot/AOT/AOT_stimuli/pictures/1237_fw.png	100.08315587043762	
5	20.700890064239502	picture	0		161	3.0	/experiments/knapen_aot/AOT/AOT_stimuli/pictures/0827_fw.png	100.10013484954834	1.3402891159057617
5	22.032320022583008	response	0	j		3.0	/experiments/knapen_aot/AOT/AOT_stimuli/pictures/0827_fw.png	101.43156480789185	
6	22.041179180145264	picture	0		173	4.0	/experiments/knapen_aot/AOT/AOT_stimuli/pictures/0150_fw.png	101.4404239654541	1.4444398880004883
6	23.474021196365356	response	0	j		4.0	/experiments/knapen_aot/AOT/AOT_stimuli/pictures/0150_fw.png	102.8732659816742	
7	23.485619068145752	picture	0		116	5.0	/experiments/knapen_aot/AOT/AOT_stimuli/pictures/0583_fw.png	102.88486385345459	0.9652519226074219
7	24.440683126449585	response	0	j		5.0	/experiments/knapen_aot/AOT/AOT_stimuli/pictures/0583_fw.png	103.83992791175842	
8	24.450870990753174	picture	0		140	6.0	/experiments/knapen_aot/AOT/AOT_stimuli/pictures/0716_fw.png	103.85011577606201	1.1730279922485352
8	25.607338190078735	response	0	j		6.0	/experiments/knapen_aot/AOT/AOT_stimuli/pictures/0716_fw.png	105.00658297538757	
9	25.62389898300171	picture	0		155	7.0	/experiments/knapen_aot/AOT/AOT_stimuli/pictures/1591_fw.png	105.02314376831055	1.2922160625457764
9	26.900657176971436	response	0	k		7.0	/experiments/knapen_aot/AOT/AOT_stimuli/pictures/1591_fw.png	106.29990196228027	
10	26.916115045547485	picture	0		239	8.0	/experiments/knapen_aot/AOT/AOT_stimuli/pictures/0173_fw.png	106.31535983085632	1.9930181503295898
10	28.892179012298584	response	0	k		8.0	/experiments/knapen_aot/AOT/AOT_stimuli/pictures/0173_fw.png	108.29142379760742	
11	28.909133195877075	picture	0		269	9.0	/experiments/knapen_aot/AOT/AOT_stimuli/pictures/1846_fw.png	108.30837798118591	2.2430419921875
11	31.14066219329834	response	0	j		9.0	/experiments/knapen_aot/AOT/AOT_stimuli/pictures/1846_fw.png	110.53990697860718	
12	31.152175188064575	picture	0		200	10.0	/experiments/knapen_aot/AOT/AOT_stimuli/pictures/2016_fw.png	110.55141997337341	1.6666460037231445
12	32.80729007720947	response	0	k		10.0	/experiments/knapen_aot/AOT/AOT_stimuli/pictures/2016_fw.png	112.20653486251831	
13	32.81882119178772	picture	0		117	11.0	/experiments/knapen_aot/AOT/AOT_stimuli/pictures/0297_fw.png	112.21806597709656	0.9800348281860352
13	33.782305002212524	response	0	j		11.0	/experiments/knapen_aot/AOT/AOT_stimuli/pictures/0297_fw.png	113.18154978752136	
14	33.798856019973755	picture	0		170	12.0	/experiments/knapen_aot/AOT/AOT_stimuli/pictures/1293_fw.png	113.19810080528259	1.422842025756836
14	35.2078320980072	response	0	k		12.0	/experiments/knapen_aot/AOT/AOT_stimuli/pictures/1293_fw.png	114.60707688331604	
15	35.22169804573059	picture	0		204	13.0	/experiments/knapen_aot/AOT/AOT_stimuli/pictures/0409_fw.png	114.62094283103943	1.7082569599151611
15	36.91615605354309	response	0	k		13.0	/experiments/knapen_aot/AOT/AOT_stimuli/pictures/0409_fw.png	116.31540083885193	
16	36.92995500564575	picture	0		119	14.0	/experiments/knapen_aot/AOT/AOT_stimuli/pictures/0165_fw.png	116.32919979095459	1.0022261142730713
16	37.91612720489502	response	0	j		14.0	/experiments/knapen_aot/AOT/AOT_stimuli/pictures/0165_fw.png	117.31537199020386	
17	37.93218111991882	picture	0		167	15.0	/experiments/knapen_aot/AOT/AOT_stimuli/pictures/1296_fw.png	117.33142590522766	1.3936970233917236
17	39.30881309509277	response	0	j		15.0	/experiments/knapen_aot/AOT/AOT_stimuli/pictures/1296_fw.png	118.70805788040161	
18	39.32587814331055	picture	0		200	16.0	/experiments/knapen_aot/AOT/AOT_stimuli/pictures/0822_fw.png	118.72512292861938	1.672982931137085
18	40.982280015945435	response	0	k		16.0	/experiments/knapen_aot/AOT/AOT_stimuli/pictures/0822_fw.png	120.38152480125427	
19	40.99886107444763	picture	0		99	17.0	/experiments/knapen_aot/AOT/AOT_stimuli/pictures/1315_fw.png	120.39810585975647	0.8268201351165771
19	41.81556010246277	response	0	j		17.0	/experiments/knapen_aot/AOT/AOT_stimuli/pictures/1315_fw.png	121.2148048877716	
20	41.82568120956421	picture	0		111	18.0	/experiments/knapen_aot/AOT/AOT_stimuli/pictures/1273_fw.png	121.22492599487305	0.9314630031585693
20	42.7405891418457	response	0	k		18.0	/experiments/knapen_aot/AOT/AOT_stimuli/pictures/1273_fw.png	122.13983392715454	
21	42.75714421272278	picture	0		145	19.0	/experiments/knapen_aot/AOT/AOT_stimuli/pictures/1686_fw.png	122.15638899803162	1.2143609523773193
21	43.957754135131836	response	0	k		19.0	/experiments/knapen_aot/AOT/AOT_stimuli/pictures/1686_fw.png	123.35699892044067	
22	43.9715051651001	picture	0		268	20.0	/experiments/knapen_aot/AOT/AOT_stimuli/pictures/1587_fw.png	123.37074995040894	2.2360458374023438
22	46.19888710975647	response	0	k		20.0	/experiments/knapen_aot/AOT/AOT_stimuli/pictures/1587_fw.png	125.59813189506531	
23	46.20755100250244	picture	0		252	21.0	/experiments/knapen_aot/AOT/AOT_stimuli/pictures/0950_fw.png	125.60679578781128	2.104175090789795
23	48.292617082595825	response	0	j		21.0	/experiments/knapen_aot/AOT/AOT_stimuli/pictures/0950_fw.png	127.69186186790466	
24	48.311726093292236	picture	0		199	22.0	/experiments/knapen_aot/AOT/AOT_stimuli/pictures/2022_fw.png	127.71097087860107	1.6597719192504883
24	49.95766019821167	response	0	k		22.0	/experiments/knapen_aot/AOT/AOT_stimuli/pictures/2022_fw.png	129.3569049835205	
25	49.971498012542725	picture	0		180	23.0	/experiments/knapen_aot/AOT/AOT_stimuli/pictures/1502_fw.png	129.37074279785156	1.5068931579589844
25	51.46550917625427	response	0	k		23.0	/experiments/knapen_aot/AOT/AOT_stimuli/pictures/1502_fw.png	130.8647539615631	
26	51.47839117050171	picture	0		99	24.0	/experiments/knapen_aot/AOT/AOT_stimuli/pictures/1598_fw.png	130.87763595581055	0.8263339996337891
26	52.28384709358215	response	0	k		24.0	/experiments/knapen_aot/AOT/AOT_stimuli/pictures/1598_fw.png	131.683091878891	
27	52.3047251701355	picture	0		266	25.0	/experiments/knapen_aot/AOT/AOT_stimuli/pictures/0259_fw.png	131.70396995544434	2.2221999168395996
27	54.508809089660645	response	0	j		25.0	/experiments/knapen_aot/AOT/AOT_stimuli/pictures/0259_fw.png	133.90805387496948	
28	54.5269250869751	picture	0		104	26.0	/experiments/knapen_aot/AOT/AOT_stimuli/pictures/1665_fw.png	133.92616987228394	0.8681459426879883
28	55.382153034210205	response	0	k		26.0	/experiments/knapen_aot/AOT/AOT_stimuli/pictures/1665_fw.png	134.78139781951904	
29	55.395071029663086	picture	0		115	27.0	/experiments/knapen_aot/AOT/AOT_stimuli/pictures/1988_fw.png	134.79431581497192	0.9651610851287842
29	56.34883117675781	response	0	j		27.0	/experiments/knapen_aot/AOT/AOT_stimuli/pictures/1988_fw.png	135.74807596206665	
30	56.36023211479187	picture	0		104	28.0	/experiments/knapen_aot/AOT/AOT_stimuli/pictures/1284_fw.png	135.7594769001007	0.8680419921875
30	57.215450048446655	response	0	k		28.0	/experiments/knapen_aot/AOT/AOT_stimuli/pictures/1284_fw.png	136.6146948337555	
31	57.22827410697937	picture	0		165	29.0	/experiments/knapen_aot/AOT/AOT_stimuli/pictures/1253_fw.png	136.6275188922882	1.3787789344787598
31	58.59056806564331	response	0	k		29.0	/experiments/knapen_aot/AOT/AOT_stimuli/pictures/1253_fw.png	137.98981285095215	
32	58.60705304145813	picture	0		99	30.0	/experiments/knapen_aot/AOT/AOT_stimuli/pictures/1054_fw.png	138.00629782676697	0.8295199871063232
32	59.42379307746887	response	0	k		30.0	/experiments/knapen_aot/AOT/AOT_stimuli/pictures/1054_fw.png	138.8230378627777	
33	59.43657302856445	picture	0		107	31.0	/experiments/knapen_aot/AOT/AOT_stimuli/pictures/0601_fw.png	138.8358178138733	0.8889150619506836
33	60.30882501602173	response	0	j		31.0	/experiments/knapen_aot/AOT/AOT_stimuli/pictures/0601_fw.png	139.70806980133057	
34	60.32548809051514	picture	0		127	32.0	/experiments/knapen_aot/AOT/AOT_stimuli/pictures/0622_fw.png	139.72473287582397	1.0625369548797607
34	61.374245166778564	response	0	k		32.0	/experiments/knapen_aot/AOT/AOT_stimuli/pictures/0622_fw.png	140.7734899520874	
35	61.3880250453949	picture	0		104	33.0	/experiments/knapen_aot/AOT/AOT_stimuli/pictures/0687_fw.png	140.78726983070374	0.8773350715637207
35	62.249221086502075	response	0	k		33.0	/experiments/knapen_aot/AOT/AOT_stimuli/pictures/0687_fw.png	141.6484658718109	
36	62.26536011695862	picture	0		129	34.0	/experiments/knapen_aot/AOT/AOT_stimuli/pictures/1731_fw.png	141.66460490226746	1.0808970928192139
36	63.33254408836365	response	0	k		34.0	/experiments/knapen_aot/AOT/AOT_stimuli/pictures/1731_fw.png	142.73178887367249	
37	63.34625720977783	picture	0		92	35.0	/experiments/knapen_aot/AOT/AOT_stimuli/pictures/1252_fw.png	142.74550199508667	0.7778089046478271
37	64.10038113594055	response	0	j		35.0	/experiments/knapen_aot/AOT/AOT_stimuli/pictures/1252_fw.png	143.4996259212494	
38	64.12406611442566	picture	0		100	36.0	/experiments/knapen_aot/AOT/AOT_stimuli/pictures/0821_fw.png	143.5233108997345	0.8332979679107666
38	64.94877505302429	response	0	j		36.0	/experiments/knapen_aot/AOT/AOT_stimuli/pictures/0821_fw.png	144.34801983833313	
39	64.95736408233643	picture	0		159	37.0	/experiments/knapen_aot/AOT/AOT_stimuli/pictures/1179_fw.png	144.35660886764526	1.326409101486206
39	66.27374505996704	response	0	k		37.0	/experiments/knapen_aot/AOT/AOT_stimuli/pictures/1179_fw.png	145.67298984527588	
40	66.28377318382263	picture	0		146	38.0	/experiments/knapen_aot/AOT/AOT_stimuli/pictures/1058_fw.png	145.68301796913147	1.223228931427002
40	67.49041414260864	response	0	k		38.0	/experiments/knapen_aot/AOT/AOT_stimuli/pictures/1058_fw.png	146.88965892791748	
41	67.50700211524963	picture	0		190	39.0	/experiments/knapen_aot/AOT/AOT_stimuli/pictures/1094_fw.png	146.90624690055847	1.591667890548706
41	69.08246803283691	response	0	k		39.0	/experiments/knapen_aot/AOT/AOT_stimuli/pictures/1094_fw.png	148.48171281814575	
42	69.09867000579834	picture	0		127	40.0	/experiments/knapen_aot/AOT/AOT_stimuli/pictures/0026_fw.png	148.49791479110718	1.067026138305664
42	70.1489520072937	response	0	j		40.0	/experiments/knapen_aot/AOT/AOT_stimuli/pictures/0026_fw.png	149.54819679260254	
43	70.165696144104	picture	0		730	41.0	/experiments/knapen_aot/AOT/AOT_stimuli/pictures/1946_fw.png	149.56494092941284	6.0832438468933105
43	76.24034810066223	response	0	j		41.0	/experiments/knapen_aot/AOT/AOT_stimuli/pictures/1946_fw.png	155.63959288597107	
44	76.24893999099731	picture	0		104	42.0	/experiments/knapen_aot/AOT/AOT_stimuli/pictures/1112_fw.png	155.64818477630615	0.8680241107940674
44	77.10023713111877	response	0	j		42.0	/experiments/knapen_aot/AOT/AOT_stimuli/pictures/1112_fw.png	156.4994819164276	
45	77.11696410179138	picture	0		101	43.0	/experiments/knapen_aot/AOT/AOT_stimuli/pictures/1877_fw.png	156.51620888710022	0.8403980731964111
45	77.94875502586365	response	0	j		43.0	/experiments/knapen_aot/AOT/AOT_stimuli/pictures/1877_fw.png	157.34799981117249	
46	77.9573621749878	picture	0		435	44.0	/experiments/knapen_aot/AOT/AOT_stimuli/pictures/0872_fw.png	157.35660696029663	3.624846935272217
46	81.57368111610413	response	0	k		44.0	/experiments/knapen_aot/AOT/AOT_stimuli/pictures/0872_fw.png	160.97292590141296	
47	81.58220911026001	picture	0		108	45.0	/experiments/knapen_aot/AOT/AOT_stimuli/pictures/1379_fw.png	160.98145389556885	0.9027578830718994
47	82.47369909286499	response	0	k		45.0	/experiments/knapen_aot/AOT/AOT_stimuli/pictures/1379_fw.png	161.87294387817383	
48	82.48496699333191	picture	0		167	46.0	/experiments/knapen_aot/AOT/AOT_stimuli/pictures/1095_fw.png	161.88421177864075	1.3888912200927734
48	83.86535620689392	response	0	j		46.0	/experiments/knapen_aot/AOT/AOT_stimuli/pictures/1095_fw.png	163.26460099220276	
49	83.87385821342468	picture	0		103	47.0	/experiments/knapen_aot/AOT/AOT_stimuli/pictures/0969_fw.png	163.27310299873352	0.8611199855804443
49	84.7168550491333	response	0	j		47.0	/experiments/knapen_aot/AOT/AOT_stimuli/pictures/0969_fw.png	164.11609983444214	
50	84.73497819900513	picture	0		115	48.0	/experiments/knapen_aot/AOT/AOT_stimuli/pictures/1918_fw.png	164.13422298431396	0.9582879543304443
50	85.68205499649048	response	0	j		48.0	/experiments/knapen_aot/AOT/AOT_stimuli/pictures/1918_fw.png	165.08129978179932	
51	85.69326615333557	picture	0		461	49.0	/experiments/knapen_aot/AOT/AOT_stimuli/pictures/2144_fw.png	165.0925109386444	3.840301036834717
51	89.51683306694031	response	0	k		49.0	/experiments/knapen_aot/AOT/AOT_stimuli/pictures/2144_fw.png	168.91607785224915	
52	89.53356719017029	picture	0		136	50.0	/experiments/knapen_aot/AOT/AOT_stimuli/pictures/0615_fw.png	168.93281197547913	1.131850004196167
52	90.65693521499634	response	0	k		50.0	/experiments/knapen_aot/AOT/AOT_stimuli/pictures/0615_fw.png	170.05618000030518	
53	90.66541719436646	picture	0		489	51.0	/experiments/knapen_aot/AOT/AOT_stimuli/pictures/0989_fw.png	170.0646619796753	4.549767017364502
53	94.72514009475708	response	0	k		51.0	/experiments/knapen_aot/AOT/AOT_stimuli/pictures/0989_fw.png	174.12438488006592	
54	95.21518421173096	picture	0		127	52.0	/experiments/knapen_aot/AOT/AOT_stimuli/pictures/0923_fw.png	174.6144289970398	1.0613138675689697
54	96.26534509658813	response	0	k		52.0	/experiments/knapen_aot/AOT/AOT_stimuli/pictures/0923_fw.png	175.66458988189697	
55	96.27649807929993	picture	0		130	53.0	/experiments/knapen_aot/AOT/AOT_stimuli/pictures/1842_fw.png	175.67574286460876	1.0833120346069336
55	97.34869503974915	response	0	j		53.0	/experiments/knapen_aot/AOT/AOT_stimuli/pictures/1842_fw.png	176.74793982505798	
56	97.35981011390686	picture	0		119	54.0	/experiments/knapen_aot/AOT/AOT_stimuli/pictures/2028_fw.png	176.7590548992157	0.993056058883667
56	98.34026217460632	response	0	j		54.0	/experiments/knapen_aot/AOT/AOT_stimuli/pictures/2028_fw.png	177.73950695991516	
57	98.35286617279053	picture	0		912	55.0	/experiments/knapen_aot/AOT/AOT_stimuli/pictures/0764_fw.png	177.75211095809937	7.597172975540161
57	105.9403669834137	response	0	k		55.0	/experiments/knapen_aot/AOT/AOT_stimuli/pictures/0764_fw.png	185.33961176872253	
58	105.95003914833069	picture	0		122	56.0	/experiments/knapen_aot/AOT/AOT_stimuli/pictures/1290_fw.png	185.34928393363953	1.0209858417510986
58	106.95706605911255	response	0	k		56.0	/experiments/knapen_aot/AOT/AOT_stimuli/pictures/1290_fw.png	186.3563108444214	
59	106.97102499008179	picture	0		104	57.0	/experiments/knapen_aot/AOT/AOT_stimuli/pictures/0755_fw.png	186.37026977539062	0.8748161792755127
59	107.8319981098175	response	0	k		57.0	/experiments/knapen_aot/AOT/AOT_stimuli/pictures/0755_fw.png	187.23124289512634	
60	107.8458411693573	picture	0		168	58.0	/experiments/knapen_aot/AOT/AOT_stimuli/pictures/0558_fw.png	187.24508595466614	1.402730941772461
60	109.24026012420654	response	0	k		58.0	/experiments/knapen_aot/AOT/AOT_stimuli/pictures/0558_fw.png	188.63950490951538	
61	109.24857211112976	picture	0		370	59.0	/experiments/knapen_aot/AOT/AOT_stimuli/pictures/1940_fw.png	188.6478168964386	3.0833740234375
61	112.31676411628723	response	0	k		59.0	/experiments/knapen_aot/AOT/AOT_stimuli/pictures/1940_fw.png	191.71600890159607	
62	112.33194613456726	picture	0		228	60.0	/experiments/knapen_aot/AOT/AOT_stimuli/pictures/1002_fw.png	191.7311909198761	1.9027328491210938
62	114.22358012199402	response	0	j		60.0	/experiments/knapen_aot/AOT/AOT_stimuli/pictures/1002_fw.png	193.62282490730286	
63	114.23467898368835	picture	0		158	61.0	/experiments/knapen_aot/AOT/AOT_stimuli/pictures/1356_fw.png	193.6339237689972	1.319505214691162
63	115.53351211547852	response	0	j		61.0	/experiments/knapen_aot/AOT/AOT_stimuli/pictures/1356_fw.png	194.93275690078735	
64	115.55418419837952	picture	0		271	62.0	/experiments/knapen_aot/AOT/AOT_stimuli/pictures/1762_fw.png	194.95342898368835	2.2692368030548096
64	117.80688405036926	response	0	k		62.0	/experiments/knapen_aot/AOT/AOT_stimuli/pictures/1762_fw.png	197.2061288356781	
65	117.82342100143433	picture	0		121	63.0	/experiments/knapen_aot/AOT/AOT_stimuli/pictures/0914_fw.png	197.22266578674316	1.0166680812835693
65	118.82358002662659	response	0	k		63.0	/experiments/knapen_aot/AOT/AOT_stimuli/pictures/0914_fw.png	198.22282481193542	
66	118.8400890827179	picture	0		185	64.0	/experiments/knapen_aot/AOT/AOT_stimuli/pictures/0296_fw.png	198.23933386802673	1.566659927368164
66	120.37359499931335	response	0	k		64.0	/experiments/knapen_aot/AOT/AOT_stimuli/pictures/0296_fw.png	199.7728397846222	
67	120.40674901008606	picture	0		276	65.0	/experiments/knapen_aot/AOT/AOT_stimuli/pictures/1743_fw.png	199.8059937953949	2.300018072128296
67	122.69855403900146	response	0	k		65.0	/experiments/knapen_aot/AOT/AOT_stimuli/pictures/1743_fw.png	202.0977988243103	
68	122.70676708221436	picture	0		100	66.0	/experiments/knapen_aot/AOT/AOT_stimuli/pictures/1644_fw.png	202.1060118675232	0.8333139419555664
68	123.52510619163513	response	0	k		66.0	/experiments/knapen_aot/AOT/AOT_stimuli/pictures/1644_fw.png	202.92435097694397	
69	123.54008102416992	picture	0		102	67.0	/experiments/knapen_aot/AOT/AOT_stimuli/pictures/0310_fw.png	202.93932580947876	0.8542079925537109
69	124.38177800178528	response	0	k		67.0	/experiments/knapen_aot/AOT/AOT_stimuli/pictures/0310_fw.png	203.78102278709412	
70	124.39428901672363	picture	0		102	68.0	/experiments/knapen_aot/AOT/AOT_stimuli/pictures/0003_fw.png	203.79353380203247	0.8541390895843506
70	125.23184299468994	response	0	j		68.0	/experiments/knapen_aot/AOT/AOT_stimuli/pictures/0003_fw.png	204.63108777999878	
71	125.24842810630798	picture	0		158	69.0	/experiments/knapen_aot/AOT/AOT_stimuli/pictures/0961_fw.png	204.64767289161682	1.319422960281372
71	126.5567901134491	response	0	j		69.0	/experiments/knapen_aot/AOT/AOT_stimuli/pictures/0961_fw.png	205.95603489875793	
72	126.56785106658936	picture	0		106	70.0	/experiments/knapen_aot/AOT/AOT_stimuli/pictures/1799_fw.png	205.9670958518982	0.8819890022277832
72	127.44015598297119	response	0	j		70.0	/experiments/knapen_aot/AOT/AOT_stimuli/pictures/1799_fw.png	206.83940076828003	
73	127.44984006881714	picture	0		133	71.0	/experiments/knapen_aot/AOT/AOT_stimuli/pictures/0480_fw.png	206.84908485412598	1.1110749244689941
73	128.54175806045532	response	0	k		71.0	/experiments/knapen_aot/AOT/AOT_stimuli/pictures/0480_fw.png	207.94100284576416	
74	128.56091499328613	picture	0		141	72.0	/experiments/knapen_aot/AOT/AOT_stimuli/pictures/1243_fw.png	207.96015977859497	1.1791281700134277
74	129.71678614616394	response	0	k		72.0	/experiments/knapen_aot/AOT/AOT_stimuli/pictures/1243_fw.png	209.11603093147278	
75	129.74004316329956	picture	0		156	73.0	/experiments/knapen_aot/AOT/AOT_stimuli/pictures/1746_fw.png	209.1392879486084	1.3000109195709229
75	131.03177618980408	response	0	k		73.0	/experiments/knapen_aot/AOT/AOT_stimuli/pictures/1746_fw.png	210.43102097511292	
76	131.04005408287048	picture	0		111	74.0	/experiments/knapen_aot/AOT/AOT_stimuli/pictures/0302_fw.png	210.43929886817932	0.9305710792541504
76	131.9568440914154	response	0	j		74.0	/experiments/knapen_aot/AOT/AOT_stimuli/pictures/0302_fw.png	211.35608887672424	
77	131.97062516212463	picture	0		142	75.0	/experiments/knapen_aot/AOT/AOT_stimuli/pictures/0067_fw.png	211.36986994743347	1.1874878406524658
77	133.14169716835022	response	0	j		75.0	/experiments/knapen_aot/AOT/AOT_stimuli/pictures/0067_fw.png	212.54094195365906	
78	133.1581130027771	picture	0		136	76.0	/experiments/knapen_aot/AOT/AOT_stimuli/pictures/1578_fw.png	212.55735778808594	1.1318960189819336
78	134.281800031662	response	0	k		76.0	/experiments/knapen_aot/AOT/AOT_stimuli/pictures/1578_fw.png	213.68104481697083	
79	134.29000902175903	picture	0		99	77.0	/experiments/knapen_aot/AOT/AOT_stimuli/pictures/1014_fw.png	213.68925380706787	0.826409101486206
79	135.10683012008667	response	0	j		77.0	/experiments/knapen_aot/AOT/AOT_stimuli/pictures/1014_fw.png	214.5060749053955	
80	135.11641812324524	picture	0		390	78.0	/experiments/knapen_aot/AOT/AOT_stimuli/pictures/1757_fw.png	214.51566290855408	3.249922037124634
80	138.35001707077026	response	0	k		78.0	/experiments/knapen_aot/AOT/AOT_stimuli/pictures/1757_fw.png	217.7492618560791	
81	138.36634016036987	picture	0		289	79.0	/experiments/knapen_aot/AOT/AOT_stimuli/pictures/0284_fw.png	217.7655849456787	2.409745931625366
81	140.7650442123413	response	0	j		79.0	/experiments/knapen_aot/AOT/AOT_stimuli/pictures/0284_fw.png	220.16428899765015	
82	140.77608609199524	picture	0		100	80.0	/experiments/knapen_aot/AOT/AOT_stimuli/pictures/0936_fw.png	220.17533087730408	0.8333299160003662
82	141.59841799736023	response	0	k		80.0	/experiments/knapen_aot/AOT/AOT_stimuli/pictures/0936_fw.png	220.99766278266907	
83	141.6094160079956	picture	0		155	81.0	/experiments/knapen_aot/AOT/AOT_stimuli/pictures/0404_fw.png	221.00866079330444	1.2916901111602783
83	142.89011216163635	response	0	k		81.0	/experiments/knapen_aot/AOT/AOT_stimuli/pictures/0404_fw.png	222.2893569469452	
84	142.90110611915588	picture	0		170	82.0	/experiments/knapen_aot/AOT/AOT_stimuli/pictures/0411_fw.png	222.30035090446472	1.4222118854522705
84	144.30673599243164	response	0	k		82.0	/experiments/knapen_aot/AOT/AOT_stimuli/pictures/0411_fw.png	223.70598077774048	
85	144.32331800460815	picture	0		171	83.0	/experiments/knapen_aot/AOT/AOT_stimuli/pictures/0014_fw.png	223.722562789917	1.452735185623169
85	145.73330116271973	response	0	j		83.0	/experiments/knapen_aot/AOT/AOT_stimuli/pictures/0014_fw.png	225.13254594802856	
86	145.77605319023132	picture	0		242	84.0	/experiments/knapen_aot/AOT/AOT_stimuli/pictures/1394_fw.png	225.17529797554016	2.0346758365631104
86	147.78177213668823	response	0	k		84.0	/experiments/knapen_aot/AOT/AOT_stimuli/pictures/1394_fw.png	227.18101692199707	
87	147.81072902679443	picture	0		157	85.0	/experiments/knapen_aot/AOT/AOT_stimuli/pictures/1059_fw.png	227.20997381210327	1.3055391311645508
87	149.1066551208496	response	0	k		85.0	/experiments/knapen_aot/AOT/AOT_stimuli/pictures/1059_fw.png	228.50589990615845	
88	149.11626815795898	picture	0		103	86.0	/experiments/knapen_aot/AOT/AOT_stimuli/pictures/1863_fw.png	228.51551294326782	0.861130952835083
88	149.95826816558838	response	0	j		86.0	/experiments/knapen_aot/AOT/AOT_stimuli/pictures/1863_fw.png	229.35751295089722	
89	149.97739911079407	picture	0		288	87.0	/experiments/knapen_aot/AOT/AOT_stimuli/pictures/0164_fw.png	229.3766438961029	2.3958559036254883
89	152.36518120765686	response	0	k		87.0	/experiments/knapen_aot/AOT/AOT_stimuli/pictures/0164_fw.png	231.7644259929657	
90	152.37325501441956	picture	0		110	88.0	/experiments/knapen_aot/AOT/AOT_stimuli/pictures/1211_fw.png	231.7724997997284	0.916668176651001
90	153.28169012069702	response	0	j		88.0	/experiments/knapen_aot/AOT/AOT_stimuli/pictures/1211_fw.png	232.68093490600586	
91	153.28992319107056	picture	0		598	89.0	/experiments/knapen_aot/AOT/AOT_stimuli/pictures/0478_fw.png	232.6891679763794	4.985999822616577
91	158.26494908332825	response	0	k		89.0	/experiments/knapen_aot/AOT/AOT_stimuli/pictures/0478_fw.png	237.66419386863708	
92	158.27592301368713	picture	0		245	90.0	/experiments/knapen_aot/AOT/AOT_stimuli/pictures/2031_fw.png	237.67516779899597	2.041633129119873
92	160.3067171573639	response	0	k		90.0	/experiments/knapen_aot/AOT/AOT_stimuli/pictures/2031_fw.png	239.70596194267273	
93	160.317556142807	picture	0		122	91.0	/experiments/knapen_aot/AOT/AOT_stimuli/pictures/1271_fw.png	239.71680092811584	1.0223610401153564
93	161.32340717315674	response	0	k		91.0	/experiments/knapen_aot/AOT/AOT_stimuli/pictures/1271_fw.png	240.72265195846558	
94	161.33991718292236	picture	0		126	92.0	/experiments/knapen_aot/AOT/AOT_stimuli/pictures/0597_fw.png	240.7391619682312	1.0540030002593994
94	162.3816900253296	response	0	k		92.0	/experiments/knapen_aot/AOT/AOT_stimuli/pictures/0597_fw.png	241.78093481063843	
95	162.39392018318176	picture	0		159	93.0	/experiments/knapen_aot/AOT/AOT_stimuli/pictures/1150_fw.png	241.7931649684906	1.3334438800811768
95	163.70663404464722	response	0	j		93.0	/experiments/knapen_aot/AOT/AOT_stimuli/pictures/1150_fw.png	243.10587882995605	
96	163.72736406326294	picture	0		106	94.0	/experiments/knapen_aot/AOT/AOT_stimuli/pictures/1161_fw.png	243.12660884857178	0.8818540573120117
96	164.59834718704224	response	0	j		94.0	/experiments/knapen_aot/AOT/AOT_stimuli/pictures/1161_fw.png	243.99759197235107	
97	164.60921812057495	picture	0		179	95.0	/experiments/knapen_aot/AOT/AOT_stimuli/pictures/0734_fw.png	244.0084629058838	1.4930188655853271
97	166.089928150177	response	0	k		95.0	/experiments/knapen_aot/AOT/AOT_stimuli/pictures/0734_fw.png	245.48917293548584	
98	166.10223698616028	picture	0		120	96.0	/experiments/knapen_aot/AOT/AOT_stimuli/pictures/0831_fw.png	245.50148177146912	0.999981164932251
98	167.09008598327637	response	0	j		96.0	/experiments/knapen_aot/AOT/AOT_stimuli/pictures/0831_fw.png	246.4893307685852	
99	167.10221815109253	picture	0		125	97.0	/experiments/knapen_aot/AOT/AOT_stimuli/pictures/0436_fw.png	246.50146293640137	1.0416228771209717
99	168.13165998458862	response	0	k		97.0	/experiments/knapen_aot/AOT/AOT_stimuli/pictures/0436_fw.png	247.53090476989746	
100	168.1438410282135	picture	0		296	98.0	/experiments/knapen_aot/AOT/AOT_stimuli/pictures/1755_fw.png	247.54308581352234	2.4652960300445557
100	170.59833312034607	response	0	j		98.0	/experiments/knapen_aot/AOT/AOT_stimuli/pictures/1755_fw.png	249.9975779056549	
101	170.60913705825806	picture	0		130	99.0	/experiments/knapen_aot/AOT/AOT_stimuli/pictures/0313_fw.png	250.0083818435669	1.0833511352539062
101	171.68164014816284	response	0	k		99.0	/experiments/knapen_aot/AOT/AOT_stimuli/pictures/0313_fw.png	251.08088493347168	
102	171.69248819351196	picture	0		97	100.0	/experiments/knapen_aot/AOT/AOT_stimuli/pictures/1883_fw.png	251.0917329788208	0.8056879043579102
102	172.48998308181763	response	0	j		100.0	/experiments/knapen_aot/AOT/AOT_stimuli/pictures/1883_fw.png	251.88922786712646	
103	172.49817609786987	picture	0		94	101.0	/experiments/knapen_aot/AOT/AOT_stimuli/pictures/0335_fw.png	251.8974208831787	0.7845349311828613
103	173.27331614494324	response	0	k		101.0	/experiments/knapen_aot/AOT/AOT_stimuli/pictures/0335_fw.png	252.67256093025208	
104	173.28271102905273	picture	0		179	102.0	/experiments/knapen_aot/AOT/AOT_stimuli/pictures/1782_fw.png	252.68195581436157	1.4930810928344727
104	174.75818920135498	response	0	k		102.0	/experiments/knapen_aot/AOT/AOT_stimuli/pictures/1782_fw.png	254.15743398666382	
105	174.7757921218872	picture	0		131	103.0	/experiments/knapen_aot/AOT/AOT_stimuli/pictures/2138_fw.png	254.17503690719604	1.0902130603790283
105	175.85660219192505	response	0	j		103.0	/experiments/knapen_aot/AOT/AOT_stimuli/pictures/2138_fw.png	255.2558469772339	
106	175.86600518226624	picture	0		158	104.0	/experiments/knapen_aot/AOT/AOT_stimuli/pictures/0940_fw.png	255.26524996757507	1.319429874420166
106	177.16649103164673	response	0	j		104.0	/experiments/knapen_aot/AOT/AOT_stimuli/pictures/0940_fw.png	256.56573581695557	
107	177.1854350566864	picture	0		117	105.0	/experiments/knapen_aot/AOT/AOT_stimuli/pictures/0342_fw.png	256.58467984199524	0.9722039699554443
107	178.1416962146759	response	0	j		105.0	/experiments/knapen_aot/AOT/AOT_stimuli/pictures/0342_fw.png	257.54094099998474	
108	178.15763902664185	picture	0		108	106.0	/experiments/knapen_aot/AOT/AOT_stimuli/pictures/0096_fw.png	257.5568838119507	0.9027681350708008
108	179.04826712608337	response	0	k		106.0	/experiments/knapen_aot/AOT/AOT_stimuli/pictures/0096_fw.png	258.4475119113922	
109	179.06040716171265	picture	0		136	107.0	/experiments/knapen_aot/AOT/AOT_stimuli/pictures/1550_fw.png	258.4596519470215	1.1319708824157715
109	180.18158507347107	response	0	k		107.0	/experiments/knapen_aot/AOT/AOT_stimuli/pictures/1550_fw.png	259.5808298587799	
110	180.19237804412842	picture	0		128	108.0	/experiments/knapen_aot/AOT/AOT_stimuli/pictures/0671_fw.png	259.59162282943726	1.0694169998168945
110	181.24826002120972	response	0	j		108.0	/experiments/knapen_aot/AOT/AOT_stimuli/pictures/0671_fw.png	260.64750480651855	
111	181.2617950439453	picture	0		139	109.0	/experiments/knapen_aot/AOT/AOT_stimuli/pictures/0887_fw.png	260.66103982925415	1.1667380332946777
111	182.4148759841919	response	0	k		109.0	/experiments/knapen_aot/AOT/AOT_stimuli/pictures/0887_fw.png	261.81412076950073	
112	182.42853307724	picture	0		140	110.0	/experiments/knapen_aot/AOT/AOT_stimuli/pictures/1478_fw.png	261.8277778625488	1.1734910011291504
112	183.589830160141	response	0	k		110.0	/experiments/knapen_aot/AOT/AOT_stimuli/pictures/1478_fw.png	262.98907494544983	
113	183.60202407836914	picture	0		128	111.0	/experiments/knapen_aot/AOT/AOT_stimuli/pictures/0744_fw.png	263.001268863678	1.0711019039154053
113	184.65659403800964	response	0	j		111.0	/experiments/knapen_aot/AOT/AOT_stimuli/pictures/0744_fw.png	264.0558388233185	
114	184.67312598228455	picture	0		258	112.0	/experiments/knapen_aot/AOT/AOT_stimuli/pictures/1862_fw.png	264.0723707675934	2.151116132736206
114	186.81482100486755	response	0	k		112.0	/experiments/knapen_aot/AOT/AOT_stimuli/pictures/1862_fw.png	266.2140657901764	
115	186.82424211502075	picture	0		86	113.0	/experiments/knapen_aot/AOT/AOT_stimuli/pictures/1421_fw.png	266.2234869003296	0.715533971786499
115	187.53157019615173	response	0	j		113.0	/experiments/knapen_aot/AOT/AOT_stimuli/pictures/1421_fw.png	266.93081498146057	
116	187.53977608680725	picture	0		342	114.0	/experiments/knapen_aot/AOT/AOT_stimuli/pictures/0102_fw.png	266.9390208721161	2.8583319187164307
116	190.37472105026245	response	0	k		114.0	/experiments/knapen_aot/AOT/AOT_stimuli/pictures/0102_fw.png	269.7739658355713	
117	190.39810800552368	picture	0		224	115.0	/experiments/knapen_aot/AOT/AOT_stimuli/pictures/1178_fw.png	269.7973527908325	1.8704991340637207
117	192.25653100013733	response	0	j		115.0	/experiments/knapen_aot/AOT/AOT_stimuli/pictures/1178_fw.png	271.65577578544617	
118	192.2686071395874	picture	0		118	116.0	/experiments/knapen_aot/AOT/AOT_stimuli/pictures/1944_fw.png	271.66785192489624	0.9794268608093262
118	193.23989510536194	response	0	j		116.0	/experiments/knapen_aot/AOT/AOT_stimuli/pictures/1944_fw.png	272.6391398906708	
119	193.24803400039673	picture	0		176	117.0	/experiments/knapen_aot/AOT/AOT_stimuli/pictures/1520_fw.png	272.64727878570557	1.471971035003662
119	194.70653104782104	response	0	j		117.0	/experiments/knapen_aot/AOT/AOT_stimuli/pictures/1520_fw.png	274.1057758331299	
120	194.7200050354004	picture	0		135	118.0	/experiments/knapen_aot/AOT/AOT_stimuli/pictures/2179_fw.png	274.11924982070923	1.1319060325622559
120	195.83985805511475	response	0	k		118.0	/experiments/knapen_aot/AOT/AOT_stimuli/pictures/2179_fw.png	275.2391028404236	
121	195.85191106796265	picture	0		115	119.0	/experiments/knapen_aot/AOT/AOT_stimuli/pictures/0266_fw.png	275.2511558532715	0.9583981037139893
121	196.7981481552124	response	0	k		119.0	/experiments/knapen_aot/AOT/AOT_stimuli/pictures/0266_fw.png	276.19739294052124	
122	196.81030917167664	picture	0		84	120.0	/experiments/knapen_aot/AOT/AOT_stimuli/pictures/0149_fw.png	276.2095539569855	0.7013139724731445
122	197.49812698364258	response	0	k		120.0	/experiments/knapen_aot/AOT/AOT_stimuli/pictures/0149_fw.png	276.8973717689514	
123	197.51162314414978	picture	0		362	121.0	/experiments/knapen_aot/AOT/AOT_stimuli/pictures/0117_fw.png	276.9108679294586	3.020789861679077
123	200.52312016487122	response	0	j		121.0	/experiments/knapen_aot/AOT/AOT_stimuli/pictures/0117_fw.png	279.92236495018005	
124	200.53241300582886	picture	0		169	122.0	/experiments/knapen_aot/AOT/AOT_stimuli/pictures/1180_fw.png	279.9316577911377	1.4097661972045898
124	201.9314730167389	response	0	j		122.0	/experiments/knapen_aot/AOT/AOT_stimuli/pictures/1180_fw.png	281.33071780204773	
125	201.94217920303345	picture	0		163	123.0	/experiments/knapen_aot/AOT/AOT_stimuli/pictures/1539_fw.png	281.3414239883423	1.3610868453979492
125	203.28980016708374	response	0	j		123.0	/experiments/knapen_aot/AOT/AOT_stimuli/pictures/1539_fw.png	282.6890449523926	
126	203.3032660484314	picture	0		280	124.0	/experiments/knapen_aot/AOT/AOT_stimuli/pictures/0634_fw.png	282.70251083374023	2.3402481079101562
126	205.63167810440063	response	0	j		124.0	/experiments/knapen_aot/AOT/AOT_stimuli/pictures/0634_fw.png	285.0309228897095	
127	205.64351415634155	picture	0		118	125.0	/experiments/knapen_aot/AOT/AOT_stimuli/pictures/0429_fw.png	285.0427589416504	0.9878759384155273
127	206.61478304862976	response	0	k		125.0	/experiments/knapen_aot/AOT/AOT_stimuli/pictures/0429_fw.png	286.0140278339386	
128	206.63139009475708	picture	0		92	126.0	/experiments/knapen_aot/AOT/AOT_stimuli/pictures/1130_fw.png	286.0306348800659	0.7690610885620117
128	207.38303899765015	response	0	j		126.0	/experiments/knapen_aot/AOT/AOT_stimuli/pictures/1130_fw.png	286.782283782959	
129	207.4004511833191	picture	0		95	127.0	/experiments/knapen_aot/AOT/AOT_stimuli/pictures/1371_fw.png	286.79969596862793	0.7916548252105713
129	208.17472004890442	response	0	k		127.0	/experiments/knapen_aot/AOT/AOT_stimuli/pictures/1371_fw.png	287.57396483421326	
130	208.19210600852966	picture	0		93	128.0	/experiments/knapen_aot/AOT/AOT_stimuli/pictures/1741_fw.png	287.5913507938385	0.7777872085571289
130	208.9496431350708	response	0	k		128.0	/experiments/knapen_aot/AOT/AOT_stimuli/pictures/1741_fw.png	288.34888792037964	
131	208.9698932170868	picture	0		104	129.0	/experiments/knapen_aot/AOT/AOT_stimuli/pictures/0280_fw.png	288.36913800239563	0.878119945526123
131	209.83145809173584	response	0	j		129.0	/experiments/knapen_aot/AOT/AOT_stimuli/pictures/0280_fw.png	289.2307028770447	
132	209.84801316261292	picture	0		144	130.0	/experiments/knapen_aot/AOT/AOT_stimuli/pictures/1100_fw.png	289.24725794792175	1.205306053161621
132	211.0398290157318	response	0	k		130.0	/experiments/knapen_aot/AOT/AOT_stimuli/pictures/1100_fw.png	290.43907380104065	
133	211.05331921577454	picture	0		136	131.0	/experiments/knapen_aot/AOT/AOT_stimuli/pictures/0163_fw.png	290.4525640010834	1.144683837890625
133	212.17478799819946	response	0	j		131.0	/experiments/knapen_aot/AOT/AOT_stimuli/pictures/0163_fw.png	291.5740327835083	
134	212.19800305366516	picture	0		112	132.0	/experiments/knapen_aot/AOT/AOT_stimuli/pictures/1309_fw.png	291.597247838974	0.9385349750518799
134	213.12312602996826	response	0	j		132.0	/experiments/knapen_aot/AOT/AOT_stimuli/pictures/1309_fw.png	292.5223708152771	
135	213.13653802871704	picture	0		136	133.0	/experiments/knapen_aot/AOT/AOT_stimuli/pictures/1395_fw.png	292.5357828140259	1.1388130187988281
135	214.26477217674255	response	0	k		133.0	/experiments/knapen_aot/AOT/AOT_stimuli/pictures/1395_fw.png	293.6640169620514	
136	214.27535104751587	picture	0		145	134.0	/experiments/knapen_aot/AOT/AOT_stimuli/pictures/0365_fw.png	293.6745958328247	1.2083401679992676
136	215.4730920791626	response	0	j		134.0	/experiments/knapen_aot/AOT/AOT_stimuli/pictures/0365_fw.png	294.87233686447144	
137	215.48369121551514	picture	0		85	135.0	/experiments/knapen_aot/AOT/AOT_stimuli/pictures/1036_fw.png	294.882936000824	0.7083837985992432
137	216.1746060848236	response	0	k		135.0	/experiments/knapen_aot/AOT/AOT_stimuli/pictures/1036_fw.png	295.57385087013245	
138	216.19207501411438	picture	0		97	136.0	/experiments/knapen_aot/AOT/AOT_stimuli/pictures/1256_fw.png	295.5913197994232	0.8142321109771729
138	216.98310804367065	response	0	j		136.0	/experiments/knapen_aot/AOT/AOT_stimuli/pictures/1256_fw.png	296.3823528289795	
139	217.00630712509155	picture	0		141	137.0	/experiments/knapen_aot/AOT/AOT_stimuli/pictures/0667_fw.png	296.4055519104004	1.1787450313568115
139	218.16634321212769	response	0	k		137.0	/experiments/knapen_aot/AOT/AOT_stimuli/pictures/0667_fw.png	297.5655879974365	
140	218.18505215644836	picture	0		434	138.0	/experiments/knapen_aot/AOT/AOT_stimuli/pictures/0366_fw.png	297.5842969417572	3.6180689334869385
140	221.78295421600342	response	0	j		138.0	/experiments/knapen_aot/AOT/AOT_stimuli/pictures/0366_fw.png	301.18219900131226	
141	221.8031210899353	picture	0		109	139.0	/experiments/knapen_aot/AOT/AOT_stimuli/pictures/0917_fw.png	301.20236587524414	0.9166209697723389
141	222.70639419555664	response	0	k		139.0	/experiments/knapen_aot/AOT/AOT_stimuli/pictures/0917_fw.png	302.1056389808655	
142	222.71974205970764	picture	0		104	140.0	/experiments/knapen_aot/AOT/AOT_stimuli/pictures/0527_fw.png	302.1189868450165	0.8751349449157715
142	223.57456398010254	response	0	k		140.0	/experiments/knapen_aot/AOT/AOT_stimuli/pictures/0527_fw.png	302.9738087654114	
143	223.5948770046234	picture	0		127	141.0	/experiments/knapen_aot/AOT/AOT_stimuli/pictures/1872_fw.png	302.99412178993225	1.0697619915008545
143	224.64815020561218	response	0	k		141.0	/experiments/knapen_aot/AOT/AOT_stimuli/pictures/1872_fw.png	304.047394990921	
144	224.66463899612427	picture	0		160	142.0	/experiments/knapen_aot/AOT/AOT_stimuli/pictures/1518_fw.png	304.0638837814331	1.3416390419006348
144	225.98289799690247	response	0	j		142.0	/experiments/knapen_aot/AOT/AOT_stimuli/pictures/1518_fw.png	305.3821427822113	
145	226.0062780380249	picture	0		105	143.0	/experiments/knapen_aot/AOT/AOT_stimuli/pictures/0250_fw.png	305.40552282333374	0.8801369667053223
145	226.872985124588	response	0	k		143.0	/experiments/knapen_aot/AOT/AOT_stimuli/pictures/0250_fw.png	306.27222990989685	
146	226.88641500473022	picture	0		125	144.0	/experiments/knapen_aot/AOT/AOT_stimuli/pictures/1479_fw.png	306.28565979003906	1.0531880855560303
146	227.92305898666382	response	0	k		144.0	/experiments/knapen_aot/AOT/AOT_stimuli/pictures/1479_fw.png	307.32230377197266	
147	227.93960309028625	picture	0		138	145.0	/experiments/knapen_aot/AOT/AOT_stimuli/pictures/2083_fw.png	307.3388478755951	1.1552109718322754
147	229.08138704299927	response	0	j		145.0	/experiments/knapen_aot/AOT/AOT_stimuli/pictures/2083_fw.png	308.4806318283081	
148	229.09481406211853	picture	0		122	146.0	/experiments/knapen_aot/AOT/AOT_stimuli/pictures/1865_fw.png	308.49405884742737	1.0206689834594727
148	230.1063551902771	response	0	k		146.0	/experiments/knapen_aot/AOT/AOT_stimuli/pictures/1865_fw.png	309.50559997558594	
149	230.115483045578	picture	0		234	147.0	/experiments/knapen_aot/AOT/AOT_stimuli/pictures/0753_fw.png	309.51472783088684	1.9514329433441162
149	232.05637121200562	response	0	k		147.0	/experiments/knapen_aot/AOT/AOT_stimuli/pictures/0753_fw.png	311.45561599731445	
150	232.06691598892212	picture	0		115	148.0	/experiments/knapen_aot/AOT/AOT_stimuli/pictures/1758_fw.png	311.46616077423096	0.95827317237854
150	233.01467299461365	response	0	k		148.0	/experiments/knapen_aot/AOT/AOT_stimuli/pictures/1758_fw.png	312.4139177799225	
151	233.02518916130066	picture	0		125	149.0	/experiments/knapen_aot/AOT/AOT_stimuli/pictures/2058_fw.png	312.4244339466095	1.0416679382324219
151	234.05625915527344	response	0	k		149.0	/experiments/knapen_aot/AOT/AOT_stimuli/pictures/2058_fw.png	313.4555039405823	
152	234.06685709953308	picture	0		111	150.0	/experiments/knapen_aot/AOT/AOT_stimuli/pictures/1087_fw.png	313.4661018848419	0.9394528865814209
152	234.97453618049622	response	0	j		150.0	/experiments/knapen_aot/AOT/AOT_stimuli/pictures/1087_fw.png	314.37378096580505	
153	235.0063099861145	picture	0		153	151.0	/experiments/knapen_aot/AOT/AOT_stimuli/pictures/1548_fw.png	314.40555477142334	1.2757961750030518
153	236.27293801307678	response	0	k		151.0	/experiments/knapen_aot/AOT/AOT_stimuli/pictures/1548_fw.png	315.6721827983856	
154	236.28210616111755	picture	0		98	152.0	/experiments/knapen_aot/AOT/AOT_stimuli/pictures/0373_fw.png	315.6813509464264	0.8241119384765625
154	237.0896770954132	response	0	j		152.0	/experiments/knapen_aot/AOT/AOT_stimuli/pictures/0373_fw.png	316.48892188072205	
155	237.10621809959412	picture	0		287	153.0	/experiments/knapen_aot/AOT/AOT_stimuli/pictures/0996_fw.png	316.50546288490295	2.3999879360198975
155	239.4896810054779	response	0	j		153.0	/experiments/knapen_aot/AOT/AOT_stimuli/pictures/0996_fw.png	318.88892579078674	
156	239.506206035614	picture	0		100	154.0	/experiments/knapen_aot/AOT/AOT_stimuli/pictures/1876_fw.png	318.90545082092285	0.838494062423706
156	240.33129215240479	response	0	k		154.0	/experiments/knapen_aot/AOT/AOT_stimuli/pictures/1876_fw.png	319.7305369377136	
157	240.34470009803772	picture	0		119	155.0	/experiments/knapen_aot/AOT/AOT_stimuli/pictures/0524_fw.png	319.74394488334656	0.9998579025268555
157	241.3313012123108	response	0	k		155.0	/experiments/knapen_aot/AOT/AOT_stimuli/pictures/0524_fw.png	320.73054599761963	
158	241.34455800056458	picture	0		146	156.0	/experiments/knapen_aot/AOT/AOT_stimuli/pictures/1300_fw.png	320.7438027858734	1.2222211360931396
158	242.55627512931824	response	0	j		156.0	/experiments/knapen_aot/AOT/AOT_stimuli/pictures/1300_fw.png	321.9555199146271	
159	242.56677913665771	picture	0		107	157.0	/experiments/knapen_aot/AOT/AOT_stimuli/pictures/0504_fw.png	321.96602392196655	0.897723913192749
159	243.44899702072144	response	0	j		157.0	/experiments/knapen_aot/AOT/AOT_stimuli/pictures/0504_fw.png	322.8482418060303	
160	243.46450304985046	picture	0		123	158.0	/experiments/knapen_aot/AOT/AOT_stimuli/pictures/0479_fw.png	322.8637478351593	1.0333521366119385
160	244.4813060760498	response	0	k		158.0	/experiments/knapen_aot/AOT/AOT_stimuli/pictures/0479_fw.png	323.88055086135864	
161	244.4978551864624	picture	0		98	159.0	/experiments/knapen_aot/AOT/AOT_stimuli/pictures/1098_fw.png	323.89709997177124	0.8188929557800293
161	245.3063361644745	response	0	j		159.0	/experiments/knapen_aot/AOT/AOT_stimuli/pictures/1098_fw.png	324.7055809497833	
162	245.31674814224243	picture	0		89	160.0	/experiments/knapen_aot/AOT/AOT_stimuli/pictures/1771_fw.png	324.71599292755127	0.7430720329284668
162	246.0479941368103	response	0	k		160.0	/experiments/knapen_aot/AOT/AOT_stimuli/pictures/1771_fw.png	325.44723892211914	
163	246.0598201751709	picture	0		94	161.0	/experiments/knapen_aot/AOT/AOT_stimuli/pictures/0910_fw.png	325.45906496047974	0.7879869937896729
163	246.83133912086487	response	0	k		161.0	/experiments/knapen_aot/AOT/AOT_stimuli/pictures/0910_fw.png	326.2305839061737	
164	246.84780716896057	picture	0		96	162.0	/experiments/knapen_aot/AOT/AOT_stimuli/pictures/1671_fw.png	326.2470519542694	0.8022499084472656
164	247.63963317871094	response	0	j		162.0	/experiments/knapen_aot/AOT/AOT_stimuli/pictures/1671_fw.png	327.0388779640198	
165	247.65005707740784	picture	0		100	163.0	/experiments/knapen_aot/AOT/AOT_stimuli/pictures/0596_fw.png	327.0493018627167	0.8402190208435059
165	248.47291207313538	response	0	j		163.0	/experiments/knapen_aot/AOT/AOT_stimuli/pictures/0596_fw.png	327.8721568584442	
166	248.49027609825134	picture	0		108	164.0	/experiments/knapen_aot/AOT/AOT_stimuli/pictures/1921_fw.png	327.8895208835602	0.9027841091156006
166	249.37443614006042	response	0	j		164.0	/experiments/knapen_aot/AOT/AOT_stimuli/pictures/1921_fw.png	328.77368092536926	
167	249.39306020736694	picture	0		114	165.0	/experiments/knapen_aot/AOT/AOT_stimuli/pictures/1105_fw.png	328.7923049926758	0.958331823348999
167	250.33958315849304	response	0	k		165.0	/experiments/knapen_aot/AOT/AOT_stimuli/pictures/1105_fw.png	329.7388279438019	
168	250.35139203071594	picture	0		206	166.0	/experiments/knapen_aot/AOT/AOT_stimuli/pictures/0424_fw.png	329.7506368160248	1.7297570705413818
168	252.06460213661194	response	0	k		166.0	/experiments/knapen_aot/AOT/AOT_stimuli/pictures/0424_fw.png	331.4638469219208	
169	252.08114910125732	picture	0		84	167.0	/experiments/knapen_aot/AOT/AOT_stimuli/pictures/2149_fw.png	331.48039388656616	0.7008359432220459
169	252.77291703224182	response	0	j		167.0	/experiments/knapen_aot/AOT/AOT_stimuli/pictures/2149_fw.png	332.17216181755066	
170	252.78198504447937	picture	0		93	168.0	/experiments/knapen_aot/AOT/AOT_stimuli/pictures/1841_fw.png	332.1812298297882	0.7777040004730225
170	253.54791402816772	response	0	k		168.0	/experiments/knapen_aot/AOT/AOT_stimuli/pictures/1841_fw.png	332.94715881347656	
171	253.5596890449524	picture	0		111	169.0	/experiments/knapen_aot/AOT/AOT_stimuli/pictures/0457_fw.png	332.95893383026123	0.9464111328125
171	254.48120999336243	response	0	k		169.0	/experiments/knapen_aot/AOT/AOT_stimuli/pictures/0457_fw.png	333.88045477867126	
172	254.5061001777649	picture	0		165	170.0	/experiments/knapen_aot/AOT/AOT_stimuli/pictures/0726_fw.png	333.90534496307373	1.3800029754638672
172	255.87288117408752	response	0	j		170.0	/experiments/knapen_aot/AOT/AOT_stimuli/pictures/0726_fw.png	335.27212595939636	
173	255.88610315322876	picture	0		107	171.0	/experiments/knapen_aot/AOT/AOT_stimuli/pictures/0800_fw.png	335.2853479385376	0.8958079814910889
173	256.7728440761566	response	0	j		171.0	/experiments/knapen_aot/AOT/AOT_stimuli/pictures/0800_fw.png	336.17208886146545	
174	256.78191113471985	picture	0		112	172.0	/experiments/knapen_aot/AOT/AOT_stimuli/pictures/1127_fw.png	336.1811559200287	0.9409089088439941
174	257.7062041759491	response	0	k		172.0	/experiments/knapen_aot/AOT/AOT_stimuli/pictures/1127_fw.png	337.10544896125793	
175	257.72282004356384	picture	0		130	173.0	/experiments/knapen_aot/AOT/AOT_stimuli/pictures/0416_fw.png	337.1220648288727	1.0868430137634277
175	258.79116201400757	response	0	k		173.0	/experiments/knapen_aot/AOT/AOT_stimuli/pictures/0416_fw.png	338.1904067993164	
176	258.80966305732727	picture	0		117	174.0	/experiments/knapen_aot/AOT/AOT_stimuli/pictures/0742_fw.png	338.2089078426361	0.9722449779510498
176	259.77293705940247	response	0	k		174.0	/experiments/knapen_aot/AOT/AOT_stimuli/pictures/0742_fw.png	339.1721818447113	
177	259.7819080352783	picture	0		108	175.0	/experiments/knapen_aot/AOT/AOT_stimuli/pictures/0676_fw.png	339.18115282058716	0.9075191020965576
177	260.67290019989014	response	0	j		175.0	/experiments/knapen_aot/AOT/AOT_stimuli/pictures/0676_fw.png	340.072144985199	
178	260.6894271373749	picture	0		103	176.0	/experiments/knapen_aot/AOT/AOT_stimuli/pictures/0522_fw.png	340.0886719226837	0.8632369041442871
178	261.5395860671997	response	0	k		176.0	/experiments/knapen_aot/AOT/AOT_stimuli/pictures/0522_fw.png	340.93883085250854	
179	261.55266404151917	picture	0		228	177.0	/experiments/knapen_aot/AOT/AOT_stimuli/pictures/1126_fw.png	340.951908826828	1.9117770195007324
179	263.4485971927643	response	0	j		177.0	/experiments/knapen_aot/AOT/AOT_stimuli/pictures/1126_fw.png	342.8478419780731	
180	263.4644410610199	picture	0		104	178.0	/experiments/knapen_aot/AOT/AOT_stimuli/pictures/0733_fw.png	342.86368584632874	0.8750190734863281
180	264.32357716560364	response	0	j		178.0	/experiments/knapen_aot/AOT/AOT_stimuli/pictures/0733_fw.png	343.7228219509125	
181	264.3394601345062	picture	0		107	179.0	/experiments/knapen_aot/AOT/AOT_stimuli/pictures/1255_fw.png	343.73870491981506	0.900752067565918
181	265.222971200943	response	0	j		179.0	/experiments/knapen_aot/AOT/AOT_stimuli/pictures/1255_fw.png	344.62221598625183	
182	265.24021220207214	stim	0		161			344.639456987381	1.3408567905426025
182	266.5728991031647	response	0	space				345.9721438884735	
