trial_nr	onset	event_type	phase	response	nr_frames	picture_index	picture_file	onset_abs	duration
0	0.1567389965057373	stim	0		2067			91.85275101661682	17.238471031188965
0	11.939809083938599	response	0	k				103.63582110404968	
0	12.140800952911377	response	0	k				103.83681297302246	
0	17.373059034347534	response	0	space				109.06907105445862	
2	17.395210027694702	picture	0		193	0.0	/experiments/knapen_aot/AOT/AOT_stimuli/pictures/1165_fw.png	109.09122204780579	1.6110870838165283
2	18.998110055923462	response	0	j		0.0	/experiments/knapen_aot/AOT/AOT_stimuli/pictures/1165_fw.png	110.69412207603455	
3	19.00629711151123	picture	0		76	1.0	/experiments/knapen_aot/AOT/AOT_stimuli/pictures/1002_fw.png	110.70230913162231	0.6389238834381104
3	19.631366968154907	response	0	j		1.0	/experiments/knapen_aot/AOT/AOT_stimuli/pictures/1002_fw.png	111.32737898826599	
4	19.64522099494934	picture	0		78	2.0	/experiments/knapen_aot/AOT/AOT_stimuli/pictures/2050_fw.png	111.34123301506042	0.6527299880981445
4	20.28970503807068	response	0	j		2.0	/experiments/knapen_aot/AOT/AOT_stimuli/pictures/2050_fw.png	111.98571705818176	
5	20.297950983047485	picture	0		123	3.0	/experiments/knapen_aot/AOT/AOT_stimuli/pictures/0586_fw.png	111.99396300315857	1.0277960300445557
5	21.31473207473755	response	0	j		3.0	/experiments/knapen_aot/AOT/AOT_stimuli/pictures/0586_fw.png	113.01074409484863	
6	21.32574701309204	picture	0		323	4.0	/experiments/knapen_aot/AOT/AOT_stimuli/pictures/0143_fw.png	113.02175903320312	2.6944010257720947
6	24.006454944610596	response	0	j		4.0	/experiments/knapen_aot/AOT/AOT_stimuli/pictures/0143_fw.png	115.70246696472168	
7	24.020148038864136	picture	0		149	5.0	/experiments/knapen_aot/AOT/AOT_stimuli/pictures/1743_fw.png	115.71616005897522	1.2500050067901611
7	25.25640892982483	response	0	k		5.0	/experiments/knapen_aot/AOT/AOT_stimuli/pictures/1743_fw.png	116.95242094993591	
8	25.270153045654297	picture	0		112	6.0	/experiments/knapen_aot/AOT/AOT_stimuli/pictures/1947_fw.png	116.96616506576538	0.9374639987945557
8	26.198020935058594	response	0	j		6.0	/experiments/knapen_aot/AOT/AOT_stimuli/pictures/1947_fw.png	117.89403295516968	
9	26.207617044448853	picture	0		190	7.0	/experiments/knapen_aot/AOT/AOT_stimuli/pictures/1253_fw.png	117.90362906455994	1.5833520889282227
9	27.774631023406982	response	0	k		7.0	/experiments/knapen_aot/AOT/AOT_stimuli/pictures/1253_fw.png	119.47064304351807	
10	27.790969133377075	picture	0		114	8.0	/experiments/knapen_aot/AOT/AOT_stimuli/pictures/1061_fw.png	119.48698115348816	0.9513149261474609
10	28.73141312599182	response	0	k		8.0	/experiments/knapen_aot/AOT/AOT_stimuli/pictures/1061_fw.png	120.4274251461029	
11	28.742284059524536	picture	0		124	9.0	/experiments/knapen_aot/AOT/AOT_stimuli/pictures/0111_fw.png	120.43829607963562	1.0347659587860107
11	29.757975101470947	response	0	k		9.0	/experiments/knapen_aot/AOT/AOT_stimuli/pictures/0111_fw.png	121.45398712158203	
12	29.777050018310547	picture	0		152	10.0	/experiments/knapen_aot/AOT/AOT_stimuli/pictures/1884_fw.png	121.47306203842163	1.2708511352539062
12	31.03133511543274	response	0	j		10.0	/experiments/knapen_aot/AOT/AOT_stimuli/pictures/1884_fw.png	122.72734713554382	
13	31.047901153564453	picture	0		170	11.0	/experiments/knapen_aot/AOT/AOT_stimuli/pictures/2037_fw.png	122.74391317367554	1.4166529178619385
13	32.45635795593262	response	0	k		11.0	/experiments/knapen_aot/AOT/AOT_stimuli/pictures/2037_fw.png	124.1523699760437	
14	32.46455407142639	picture	0		88	12.0	/experiments/knapen_aot/AOT/AOT_stimuli/pictures/1628_fw.png	124.16056609153748	0.7360460758209229
14	33.18965792655945	response	0	j		12.0	/experiments/knapen_aot/AOT/AOT_stimuli/pictures/1628_fw.png	124.88566994667053	
15	33.200600147247314	picture	0		218	13.0	/experiments/knapen_aot/AOT/AOT_stimuli/pictures/1917_fw.png	124.8966121673584	1.819523811340332
15	35.006338119506836	response	0	j		13.0	/experiments/knapen_aot/AOT/AOT_stimuli/pictures/1917_fw.png	126.70235013961792	
16	35.02012395858765	picture	0		126	14.0	/experiments/knapen_aot/AOT/AOT_stimuli/pictures/1084_fw.png	126.71613597869873	1.0554640293121338
16	36.06464600563049	response	0	k		14.0	/experiments/knapen_aot/AOT/AOT_stimuli/pictures/1084_fw.png	127.76065802574158	
17	36.07558798789978	picture	0		91	15.0	/experiments/knapen_aot/AOT/AOT_stimuli/pictures/1542_fw.png	127.77160000801086	0.7569379806518555
17	36.82293701171875	response	0	j		15.0	/experiments/knapen_aot/AOT/AOT_stimuli/pictures/1542_fw.png	128.51894903182983	
18	36.832525968551636	picture	0		342	16.0	/experiments/knapen_aot/AOT/AOT_stimuli/pictures/0837_fw.png	128.52853798866272	2.8541829586029053
18	39.67293095588684	response	0	j		16.0	/experiments/knapen_aot/AOT/AOT_stimuli/pictures/0837_fw.png	131.36894297599792	
19	39.68670892715454	picture	0		97	17.0	/experiments/knapen_aot/AOT/AOT_stimuli/pictures/1632_fw.png	131.38272094726562	0.8124251365661621
19	40.48965311050415	response	0	j		17.0	/experiments/knapen_aot/AOT/AOT_stimuli/pictures/1632_fw.png	132.18566513061523	
20	40.4991340637207	picture	0		228	18.0	/experiments/knapen_aot/AOT/AOT_stimuli/pictures/1820_fw.png	132.1951460838318	1.902785062789917
20	42.38965606689453	response	0	k		18.0	/experiments/knapen_aot/AOT/AOT_stimuli/pictures/1820_fw.png	134.08566808700562	
21	42.40191912651062	picture	0		104	19.0	/experiments/knapen_aot/AOT/AOT_stimuli/pictures/0152_fw.png	134.0979311466217	0.8749868869781494
21	43.2645800113678	response	0	j		19.0	/experiments/knapen_aot/AOT/AOT_stimuli/pictures/0152_fw.png	134.96059203147888	
22	43.27690601348877	picture	0		124	20.0	/experiments/knapen_aot/AOT/AOT_stimuli/pictures/1023_fw.png	134.97291803359985	1.0416479110717773
22	44.30634307861328	response	0	j		20.0	/experiments/knapen_aot/AOT/AOT_stimuli/pictures/1023_fw.png	136.00235509872437	
23	44.31855392456055	picture	0		123	21.0	/experiments/knapen_aot/AOT/AOT_stimuli/pictures/0658_fw.png	136.01456594467163	1.0375981330871582
23	45.33962392807007	response	0	k		21.0	/experiments/knapen_aot/AOT/AOT_stimuli/pictures/0658_fw.png	137.03563594818115	
24	45.356152057647705	picture	0		88	22.0	/experiments/knapen_aot/AOT/AOT_stimuli/pictures/0679_fw.png	137.0521640777588	0.7333359718322754
24	46.08129405975342	response	0	j		22.0	/experiments/knapen_aot/AOT/AOT_stimuli/pictures/0679_fw.png	137.7773060798645	
25	46.08948802947998	picture	0		102	23.0	/experiments/knapen_aot/AOT/AOT_stimuli/pictures/1222_fw.png	137.78550004959106	0.8540489673614502
25	46.93121600151062	response	0	j		23.0	/experiments/knapen_aot/AOT/AOT_stimuli/pictures/1222_fw.png	138.6272280216217	
26	46.94353699684143	picture	0		116	24.0	/experiments/knapen_aot/AOT/AOT_stimuli/pictures/1676_fw.png	138.63954901695251	0.9722230434417725
26	47.90626811981201	response	0	k		24.0	/experiments/knapen_aot/AOT/AOT_stimuli/pictures/1676_fw.png	139.6022801399231	
27	47.9157600402832	picture	0		149	25.0	/experiments/knapen_aot/AOT/AOT_stimuli/pictures/1136_fw.png	139.6117720603943	1.2430379390716553
27	49.14791297912598	response	0	k		25.0	/experiments/knapen_aot/AOT/AOT_stimuli/pictures/1136_fw.png	140.84392499923706	
28	49.15879797935486	picture	0		139	26.0	/experiments/knapen_aot/AOT/AOT_stimuli/pictures/2059_fw.png	140.85480999946594	1.1597270965576172
28	50.30628800392151	response	0	k		26.0	/experiments/knapen_aot/AOT/AOT_stimuli/pictures/2059_fw.png	142.0023000240326	
29	50.318525075912476	picture	0		92	27.0	/experiments/knapen_aot/AOT/AOT_stimuli/pictures/0881_fw.png	142.01453709602356	0.7709310054779053
29	51.0812349319458	response	0	j		27.0	/experiments/knapen_aot/AOT/AOT_stimuli/pictures/0881_fw.png	142.77724695205688	
30	51.08945608139038	picture	0		160	28.0	/experiments/knapen_aot/AOT/AOT_stimuli/pictures/0635_fw.png	142.78546810150146	1.333333969116211
30	52.414588928222656	response	0	k		28.0	/experiments/knapen_aot/AOT/AOT_stimuli/pictures/0635_fw.png	144.11060094833374	
31	52.42279005050659	picture	0		135	29.0	/experiments/knapen_aot/AOT/AOT_stimuli/pictures/0164_fw.png	144.11880207061768	1.1249940395355225
31	53.53957414627075	response	0	k		29.0	/experiments/knapen_aot/AOT/AOT_stimuli/pictures/0164_fw.png	145.23558616638184	
32	53.547784090042114	picture	0		85	30.0	/experiments/knapen_aot/AOT/AOT_stimuli/pictures/2002_fw.png	145.2437961101532	0.7083590030670166
32	54.247889041900635	response	0	j		30.0	/experiments/knapen_aot/AOT/AOT_stimuli/pictures/2002_fw.png	145.94390106201172	
33	54.25614309310913	picture	0		155	31.0	/experiments/knapen_aot/AOT/AOT_stimuli/pictures/0832_fw.png	145.95215511322021	1.2916429042816162
33	55.53959512710571	response	0	k		31.0	/experiments/knapen_aot/AOT/AOT_stimuli/pictures/0832_fw.png	147.2356071472168	
34	55.54778599739075	picture	0		100	32.0	/experiments/knapen_aot/AOT/AOT_stimuli/pictures/1809_fw.png	147.24379801750183	0.8333470821380615
34	56.36610698699951	response	0	j		32.0	/experiments/knapen_aot/AOT/AOT_stimuli/pictures/1809_fw.png	148.0621190071106	
35	56.38113307952881	picture	0		113	33.0	/experiments/knapen_aot/AOT/AOT_stimuli/pictures/1595_fw.png	148.0771450996399	0.9442858695983887
35	57.314589977264404	response	0	k		33.0	/experiments/knapen_aot/AOT/AOT_stimuli/pictures/1595_fw.png	149.0106019973755	
36	57.3254189491272	picture	0		117	34.0	/experiments/knapen_aot/AOT/AOT_stimuli/pictures/1693_fw.png	149.02143096923828	0.9723989963531494
36	58.2894971370697	response	0	k		34.0	/experiments/knapen_aot/AOT/AOT_stimuli/pictures/1693_fw.png	149.9855091571808	
37	58.29781794548035	picture	0		130	35.0	/experiments/knapen_aot/AOT/AOT_stimuli/pictures/1114_fw.png	149.99382996559143	1.0916571617126465
37	59.366199016571045	response	0	k		35.0	/experiments/knapen_aot/AOT/AOT_stimuli/pictures/1114_fw.png	151.06221103668213	
38	59.38947510719299	picture	0		100	36.0	/experiments/knapen_aot/AOT/AOT_stimuli/pictures/1369_fw.png	151.08548712730408	0.8386688232421875
38	60.214452028274536	response	0	j		36.0	/experiments/knapen_aot/AOT/AOT_stimuli/pictures/1369_fw.png	151.91046404838562	
39	60.22814393043518	picture	0		85	37.0	/experiments/knapen_aot/AOT/AOT_stimuli/pictures/0812_fw.png	151.92415595054626	0.7152500152587891
39	60.93119692802429	response	0	j		37.0	/experiments/knapen_aot/AOT/AOT_stimuli/pictures/0812_fw.png	152.62720894813538	
40	60.94339394569397	picture	0		80	38.0	/experiments/knapen_aot/AOT/AOT_stimuli/pictures/1925_fw.png	152.63940596580505	0.6666181087493896
40	61.591031074523926	response	0	j		38.0	/experiments/knapen_aot/AOT/AOT_stimuli/pictures/1925_fw.png	153.287043094635	
41	61.61001205444336	picture	0		109	39.0	/experiments/knapen_aot/AOT/AOT_stimuli/pictures/0344_fw.png	153.30602407455444	0.9098019599914551
41	62.50616693496704	response	0	j		39.0	/experiments/knapen_aot/AOT/AOT_stimuli/pictures/0344_fw.png	154.20217895507812	
42	62.519814014434814	picture	0		124	40.0	/experiments/knapen_aot/AOT/AOT_stimuli/pictures/0717_fw.png	154.2158260345459	1.0415830612182617
42	63.547871112823486	response	0	k		40.0	/experiments/knapen_aot/AOT/AOT_stimuli/pictures/0717_fw.png	155.24388313293457	
43	63.561397075653076	picture	0		106	41.0	/experiments/knapen_aot/AOT/AOT_stimuli/pictures/0790_fw.png	155.25740909576416	0.8888800144195557
43	64.43954110145569	response	0	k		41.0	/experiments/knapen_aot/AOT/AOT_stimuli/pictures/0790_fw.png	156.13555312156677	
44	64.45027709007263	picture	0		106	42.0	/experiments/knapen_aot/AOT/AOT_stimuli/pictures/0284_fw.png	156.14628911018372	0.8820228576660156
44	65.32290410995483	response	0	k		42.0	/experiments/knapen_aot/AOT/AOT_stimuli/pictures/0284_fw.png	157.01891613006592	
45	65.33229994773865	picture	0		128	43.0	/experiments/knapen_aot/AOT/AOT_stimuli/pictures/2120_fw.png	157.02831196784973	1.0694501399993896
45	66.38273310661316	response	0	k		43.0	/experiments/knapen_aot/AOT/AOT_stimuli/pictures/2120_fw.png	158.07874512672424	
46	66.40175008773804	picture	0		94	44.0	/experiments/knapen_aot/AOT/AOT_stimuli/pictures/1834_fw.png	158.09776210784912	0.7846729755401611
46	67.16603302955627	response	0	j		44.0	/experiments/knapen_aot/AOT/AOT_stimuli/pictures/1834_fw.png	158.86204504966736	
47	67.1864230632782	picture	0		107	45.0	/experiments/knapen_aot/AOT/AOT_stimuli/pictures/1955_fw.png	158.88243508338928	0.8957960605621338
47	68.0728440284729	response	0	j		45.0	/experiments/knapen_aot/AOT/AOT_stimuli/pictures/1955_fw.png	159.76885604858398	
48	68.08221912384033	picture	0		232	46.0	/experiments/knapen_aot/AOT/AOT_stimuli/pictures/0567_fw.png	159.77823114395142	1.9374828338623047
48	70.00616502761841	response	0	j		46.0	/experiments/knapen_aot/AOT/AOT_stimuli/pictures/0567_fw.png	161.7021770477295	
49	70.01970195770264	picture	0		154	47.0	/experiments/knapen_aot/AOT/AOT_stimuli/pictures/1033_fw.png	161.71571397781372	1.2916820049285889
49	71.29786515235901	response	0	j		47.0	/experiments/knapen_aot/AOT/AOT_stimuli/pictures/1033_fw.png	162.9938771724701	
50	71.31138396263123	picture	0		116	48.0	/experiments/knapen_aot/AOT/AOT_stimuli/pictures/0571_fw.png	163.0073959827423	0.9721810817718506
50	72.27284407615662	response	0	k		48.0	/experiments/knapen_aot/AOT/AOT_stimuli/pictures/0571_fw.png	163.9688560962677	
51	72.28356504440308	picture	0		98	49.0	/experiments/knapen_aot/AOT/AOT_stimuli/pictures/1737_fw.png	163.97957706451416	0.8194611072540283
51	73.08948111534119	response	0	j		49.0	/experiments/knapen_aot/AOT/AOT_stimuli/pictures/1737_fw.png	164.78549313545227	
52	73.1030261516571	picture	0		152	50.0	/experiments/knapen_aot/AOT/AOT_stimuli/pictures/1760_fw.png	164.7990381717682	1.2780218124389648
52	74.36445498466492	response	0	k		50.0	/experiments/knapen_aot/AOT/AOT_stimuli/pictures/1760_fw.png	166.060467004776	
53	74.38104796409607	picture	0		123	51.0	/experiments/knapen_aot/AOT/AOT_stimuli/pictures/1214_fw.png	166.07705998420715	1.0275321006774902
53	75.39090299606323	response	0	k		51.0	/experiments/knapen_aot/AOT/AOT_stimuli/pictures/1214_fw.png	167.08691501617432	
54	75.40858006477356	picture	0		114	52.0	/experiments/knapen_aot/AOT/AOT_stimuli/pictures/1150_fw.png	167.10459208488464	0.9513239860534668
54	76.34782099723816	response	0	k		52.0	/experiments/knapen_aot/AOT/AOT_stimuli/pictures/1150_fw.png	168.04383301734924	
55	76.35990405082703	picture	0		233	53.0	/experiments/knapen_aot/AOT/AOT_stimuli/pictures/0129_fw.png	168.0559160709381	1.9461390972137451
55	78.28944897651672	response	0	k		53.0	/experiments/knapen_aot/AOT/AOT_stimuli/pictures/0129_fw.png	169.9854609966278	
56	78.30604314804077	picture	0		88	54.0	/experiments/knapen_aot/AOT/AOT_stimuli/pictures/1565_fw.png	170.00205516815186	0.7343800067901611
56	79.03111600875854	response	0	j		54.0	/experiments/knapen_aot/AOT/AOT_stimuli/pictures/1565_fw.png	170.72712802886963	
57	79.04042315483093	picture	0		165	55.0	/experiments/knapen_aot/AOT/AOT_stimuli/pictures/1296_fw.png	170.73643517494202	1.3749258518218994
57	80.40613794326782	response	0	k		55.0	/experiments/knapen_aot/AOT/AOT_stimuli/pictures/1296_fw.png	172.1021499633789	
58	80.41534900665283	picture	0		95	56.0	/experiments/knapen_aot/AOT/AOT_stimuli/pictures/1271_fw.png	172.11136102676392	0.7917389869689941
58	81.1911039352417	response	0	j		56.0	/experiments/knapen_aot/AOT/AOT_stimuli/pictures/1271_fw.png	172.88711595535278	
59	81.20708799362183	picture	0		133	57.0	/experiments/knapen_aot/AOT/AOT_stimuli/pictures/1364_fw.png	172.9031000137329	1.111130952835083
59	82.30610609054565	response	0	j		57.0	/experiments/knapen_aot/AOT/AOT_stimuli/pictures/1364_fw.png	174.00211811065674	
60	82.31821894645691	picture	0		120	58.0	/experiments/knapen_aot/AOT/AOT_stimuli/pictures/0429_fw.png	174.014230966568	0.9999740123748779
60	83.30608296394348	response	0	j		58.0	/experiments/knapen_aot/AOT/AOT_stimuli/pictures/0429_fw.png	175.00209498405457	
61	83.31819295883179	picture	0		146	59.0	/experiments/knapen_aot/AOT/AOT_stimuli/pictures/1414_fw.png	175.01420497894287	1.215224027633667
61	84.52275896072388	response	0	k		59.0	/experiments/knapen_aot/AOT/AOT_stimuli/pictures/1414_fw.png	176.21877098083496	
62	84.53341698646545	picture	0		118	60.0	/experiments/knapen_aot/AOT/AOT_stimuli/pictures/1878_fw.png	176.22942900657654	0.9861531257629395
62	85.506098985672	response	0	k		60.0	/experiments/knapen_aot/AOT/AOT_stimuli/pictures/1878_fw.png	177.20211100578308	
63	85.5195701122284	picture	0		88	61.0	/experiments/knapen_aot/AOT/AOT_stimuli/pictures/0261_fw.png	177.21558213233948	0.7365000247955322
63	86.24782204627991	response	0	j		61.0	/experiments/knapen_aot/AOT/AOT_stimuli/pictures/0261_fw.png	177.943834066391	
64	86.25607013702393	picture	0		194	62.0	/experiments/knapen_aot/AOT/AOT_stimuli/pictures/1618_fw.png	177.952082157135	1.6176178455352783
64	87.86441111564636	response	0	j		62.0	/experiments/knapen_aot/AOT/AOT_stimuli/pictures/1618_fw.png	179.56042313575745	
65	87.8736879825592	picture	0		112	63.0	/experiments/knapen_aot/AOT/AOT_stimuli/pictures/0702_fw.png	179.5697000026703	0.9375240802764893
65	88.79101610183716	response	0	k		63.0	/experiments/knapen_aot/AOT/AOT_stimuli/pictures/0702_fw.png	180.48702812194824	
66	88.8112120628357	picture	0		132	64.0	/experiments/knapen_aot/AOT/AOT_stimuli/pictures/0336_fw.png	180.50722408294678	1.1041359901428223
66	89.90609908103943	response	0	k		64.0	/experiments/knapen_aot/AOT/AOT_stimuli/pictures/0336_fw.png	181.6021111011505	
67	89.91534805297852	picture	0		163	65.0	/experiments/knapen_aot/AOT/AOT_stimuli/pictures/1173_fw.png	181.6113600730896	1.3610880374908447
67	91.26433300971985	response	0	j		65.0	/experiments/knapen_aot/AOT/AOT_stimuli/pictures/1173_fw.png	182.96034502983093	
68	91.27643609046936	picture	0		128	66.0	/experiments/knapen_aot/AOT/AOT_stimuli/pictures/0285_fw.png	182.97244811058044	1.062859058380127
68	92.33108496665955	response	0	k		66.0	/experiments/knapen_aot/AOT/AOT_stimuli/pictures/0285_fw.png	184.02709698677063	
69	92.33929514884949	picture	0		95	67.0	/experiments/knapen_aot/AOT/AOT_stimuli/pictures/1480_fw.png	184.03530716896057	0.791597843170166
69	93.12273001670837	response	0	j		67.0	/experiments/knapen_aot/AOT/AOT_stimuli/pictures/1480_fw.png	184.81874203681946	
70	93.13089299201965	picture	0		112	68.0	/experiments/knapen_aot/AOT/AOT_stimuli/pictures/0795_fw.png	184.82690501213074	0.9371740818023682
70	94.05610513687134	response	0	j		68.0	/experiments/knapen_aot/AOT/AOT_stimuli/pictures/0795_fw.png	185.75211715698242	
71	94.06806707382202	picture	0		110	69.0	/experiments/knapen_aot/AOT/AOT_stimuli/pictures/0925_fw.png	185.7640790939331	0.91668701171875
71	94.9727430343628	response	0	k		69.0	/experiments/knapen_aot/AOT/AOT_stimuli/pictures/0925_fw.png	186.66875505447388	
72	94.98475408554077	picture	0		96	70.0	/experiments/knapen_aot/AOT/AOT_stimuli/pictures/1710_fw.png	186.68076610565186	0.7985739707946777
72	95.77264499664307	response	0	j		70.0	/experiments/knapen_aot/AOT/AOT_stimuli/pictures/1710_fw.png	187.46865701675415	
73	95.78332805633545	picture	0		138	71.0	/experiments/knapen_aot/AOT/AOT_stimuli/pictures/0672_fw.png	187.47934007644653	1.1527628898620605
73	96.92280197143555	response	0	k		71.0	/experiments/knapen_aot/AOT/AOT_stimuli/pictures/0672_fw.png	188.61881399154663	
74	96.93609094619751	picture	0		92	72.0	/experiments/knapen_aot/AOT/AOT_stimuli/pictures/0844_fw.png	188.6321029663086	0.7708501815795898
74	97.69766807556152	response	0	j		72.0	/experiments/knapen_aot/AOT/AOT_stimuli/pictures/0844_fw.png	189.3936800956726	
75	97.7069411277771	picture	0		106	73.0	/experiments/knapen_aot/AOT/AOT_stimuli/pictures/1814_fw.png	189.40295314788818	0.8907129764556885
75	98.57425594329834	response	0	k		73.0	/experiments/knapen_aot/AOT/AOT_stimuli/pictures/1814_fw.png	190.27026796340942	
76	98.59765410423279	picture	0		127	74.0	/experiments/knapen_aot/AOT/AOT_stimuli/pictures/1356_fw.png	190.29366612434387	1.0606868267059326
76	99.64775609970093	response	0	j		74.0	/experiments/knapen_aot/AOT/AOT_stimuli/pictures/1356_fw.png	191.343768119812	
77	99.65834093093872	picture	0		104	75.0	/experiments/knapen_aot/AOT/AOT_stimuli/pictures/0427_fw.png	191.3543529510498	0.8726961612701416
77	100.51431012153625	response	0	j		75.0	/experiments/knapen_aot/AOT/AOT_stimuli/pictures/0427_fw.png	192.21032214164734	
78	100.53103709220886	picture	0		114	76.0	/experiments/knapen_aot/AOT/AOT_stimuli/pictures/0500_fw.png	192.22704911231995	0.9536738395690918
78	101.47270393371582	response	0	k		76.0	/experiments/knapen_aot/AOT/AOT_stimuli/pictures/0500_fw.png	193.1687159538269	
79	101.48471093177795	picture	0		122	77.0	/experiments/knapen_aot/AOT/AOT_stimuli/pictures/2131_fw.png	193.18072295188904	1.0138521194458008
79	102.48940205574036	response	0	k		77.0	/experiments/knapen_aot/AOT/AOT_stimuli/pictures/2131_fw.png	194.18541407585144	
80	102.49856305122375	picture	0		211	78.0	/experiments/knapen_aot/AOT/AOT_stimuli/pictures/0771_fw.png	194.19457507133484	1.7657299041748047
80	104.24772310256958	response	0	k		78.0	/experiments/knapen_aot/AOT/AOT_stimuli/pictures/0771_fw.png	195.94373512268066	
81	104.26429295539856	picture	0		92	79.0	/experiments/knapen_aot/AOT/AOT_stimuli/pictures/1994_fw.png	195.96030497550964	0.7916040420532227
81	105.02263498306274	response	0	j		79.0	/experiments/knapen_aot/AOT/AOT_stimuli/pictures/1994_fw.png	196.71864700317383	
82	105.05589699745178	picture	0		179	80.0	/experiments/knapen_aot/AOT/AOT_stimuli/pictures/0677_fw.png	196.75190901756287	1.5120229721069336
82	106.539302110672	response	0	j		80.0	/experiments/knapen_aot/AOT/AOT_stimuli/pictures/0677_fw.png	198.23531413078308	
83	106.56791996955872	picture	0		104	81.0	/experiments/knapen_aot/AOT/AOT_stimuli/pictures/1587_fw.png	198.2639319896698	0.8713750839233398
83	107.42268013954163	response	0	j		81.0	/experiments/knapen_aot/AOT/AOT_stimuli/pictures/1587_fw.png	199.1186921596527	
84	107.43929505348206	picture	0		103	82.0	/experiments/knapen_aot/AOT/AOT_stimuli/pictures/2060_fw.png	199.13530707359314	0.8665568828582764
84	108.28925895690918	response	0	k		82.0	/experiments/knapen_aot/AOT/AOT_stimuli/pictures/2060_fw.png	199.98527097702026	
85	108.30585193634033	picture	0		145	83.0	/experiments/knapen_aot/AOT/AOT_stimuli/pictures/1601_fw.png	200.00186395645142	1.2166872024536133
85	109.50599813461304	response	0	k		83.0	/experiments/knapen_aot/AOT/AOT_stimuli/pictures/1601_fw.png	201.20201015472412	
86	109.52253913879395	picture	0		91	84.0	/experiments/knapen_aot/AOT/AOT_stimuli/pictures/1504_fw.png	201.21855115890503	0.7667548656463623
86	110.27266597747803	response	0	j		84.0	/experiments/knapen_aot/AOT/AOT_stimuli/pictures/1504_fw.png	201.9686779975891	
87	110.28929400444031	picture	0		200	85.0	/experiments/knapen_aot/AOT/AOT_stimuli/pictures/0055_fw.png	201.9853060245514	1.6749401092529297
87	111.94766306877136	response	0	k		85.0	/experiments/knapen_aot/AOT/AOT_stimuli/pictures/0055_fw.png	203.64367508888245	
88	111.96423411369324	picture	0		324	86.0	/experiments/knapen_aot/AOT/AOT_stimuli/pictures/1112_fw.png	203.66024613380432	2.708292007446289
88	114.65595412254333	response	0	j		86.0	/experiments/knapen_aot/AOT/AOT_stimuli/pictures/1112_fw.png	206.35196614265442	
89	114.67252612113953	picture	0		91	87.0	/experiments/knapen_aot/AOT/AOT_stimuli/pictures/0866_fw.png	206.3685381412506	0.7666878700256348
89	115.42261910438538	response	0	k		87.0	/experiments/knapen_aot/AOT/AOT_stimuli/pictures/0866_fw.png	207.11863112449646	
90	115.43921399116516	picture	0		118	88.0	/experiments/knapen_aot/AOT/AOT_stimuli/pictures/0242_fw.png	207.13522601127625	0.9916400909423828
90	116.41517615318298	response	0	j		88.0	/experiments/knapen_aot/AOT/AOT_stimuli/pictures/0242_fw.png	208.11118817329407	
91	116.43085408210754	picture	0		121	89.0	/experiments/knapen_aot/AOT/AOT_stimuli/pictures/0124_fw.png	208.12686610221863	1.0189039707183838
91	117.4309151172638	response	0	k		89.0	/experiments/knapen_aot/AOT/AOT_stimuli/pictures/0124_fw.png	209.12692713737488	
92	117.44975805282593	picture	0		170	90.0	/experiments/knapen_aot/AOT/AOT_stimuli/pictures/0038_fw.png	209.145770072937	1.4227089881896973
92	118.85597801208496	response	0	k		90.0	/experiments/knapen_aot/AOT/AOT_stimuli/pictures/0038_fw.png	210.55199003219604	
93	118.87246704101562	picture	0		88	91.0	/experiments/knapen_aot/AOT/AOT_stimuli/pictures/1837_fw.png	210.5684790611267	0.7417070865631104
93	119.59095907211304	response	0	j		91.0	/experiments/knapen_aot/AOT/AOT_stimuli/pictures/1837_fw.png	211.28697109222412	
94	119.61417412757874	picture	0		119	92.0	/experiments/knapen_aot/AOT/AOT_stimuli/pictures/1129_fw.png	211.31018614768982	1.000011920928955
94	120.59090495109558	response	0	j		92.0	/experiments/knapen_aot/AOT/AOT_stimuli/pictures/1129_fw.png	212.28691697120667	
95	120.61418604850769	picture	0		125	93.0	/experiments/knapen_aot/AOT/AOT_stimuli/pictures/0874_fw.png	212.31019806861877	1.0508649349212646
95	121.64759802818298	response	0	j		93.0	/experiments/knapen_aot/AOT/AOT_stimuli/pictures/0874_fw.png	213.34361004829407	
96	121.66505098342896	picture	0		115	94.0	/experiments/knapen_aot/AOT/AOT_stimuli/pictures/1803_fw.png	213.36106300354004	0.9657540321350098
96	122.60761308670044	response	0	j		94.0	/experiments/knapen_aot/AOT/AOT_stimuli/pictures/1803_fw.png	214.30362510681152	
97	122.63080501556396	picture	0		148	95.0	/experiments/knapen_aot/AOT/AOT_stimuli/pictures/1663_fw.png	214.32681703567505	1.242577075958252
97	123.85593509674072	response	0	j		95.0	/experiments/knapen_aot/AOT/AOT_stimuli/pictures/1663_fw.png	215.5519471168518	
98	123.87338209152222	picture	0		115	96.0	/experiments/knapen_aot/AOT/AOT_stimuli/pictures/1242_fw.png	215.5693941116333	0.9657628536224365
98	124.82258796691895	response	0	k		96.0	/experiments/knapen_aot/AOT/AOT_stimuli/pictures/1242_fw.png	216.51859998703003	
99	124.83914494514465	picture	0		94	97.0	/experiments/knapen_aot/AOT/AOT_stimuli/pictures/1169_fw.png	216.53515696525574	0.7916162014007568
99	125.60753798484802	response	0	j		97.0	/experiments/knapen_aot/AOT/AOT_stimuli/pictures/1169_fw.png	217.3035500049591	
100	125.63076114654541	picture	0		117	98.0	/experiments/knapen_aot/AOT/AOT_stimuli/pictures/1386_fw.png	217.3267731666565	0.9833559989929199
100	126.59077095985413	response	0	j		98.0	/experiments/knapen_aot/AOT/AOT_stimuli/pictures/1386_fw.png	218.2867829799652	
101	126.61411714553833	picture	0		152	99.0	/experiments/knapen_aot/AOT/AOT_stimuli/pictures/0149_fw.png	218.3101291656494	2.21753191947937
101	127.87258195877075	response	0	j		99.0	/experiments/knapen_aot/AOT/AOT_stimuli/pictures/0149_fw.png	219.56859397888184	
102	128.8316490650177	picture	0		88	100.0	/experiments/knapen_aot/AOT/AOT_stimuli/pictures/1967_fw.png	220.52766108512878	0.7360410690307617
102	129.55592393875122	response	0	j		100.0	/experiments/knapen_aot/AOT/AOT_stimuli/pictures/1967_fw.png	221.2519359588623	
103	129.56769013404846	picture	0		126	101.0	/experiments/knapen_aot/AOT/AOT_stimuli/pictures/1969_fw.png	221.26370215415955	1.0486459732055664
103	130.59911799430847	response	0	j		101.0	/experiments/knapen_aot/AOT/AOT_stimuli/pictures/1969_fw.png	222.29513001441956	
104	130.61633610725403	picture	0		312	102.0	/experiments/knapen_aot/AOT/AOT_stimuli/pictures/0498_fw.png	222.3123481273651	2.6061089038848877
104	133.20665907859802	response	0	k		102.0	/experiments/knapen_aot/AOT/AOT_stimuli/pictures/0498_fw.png	224.9026710987091	
105	133.22244501113892	picture	0		169	103.0	/experiments/knapen_aot/AOT/AOT_stimuli/pictures/0447_fw.png	224.91845703125	1.4166970252990723
105	134.6158139705658	response	0	k		103.0	/experiments/knapen_aot/AOT/AOT_stimuli/pictures/0447_fw.png	226.31182599067688	
106	134.639142036438	picture	0		119	104.0	/experiments/knapen_aot/AOT/AOT_stimuli/pictures/0419_fw.png	226.33515405654907	0.9999749660491943
106	135.62335515022278	response	0	k		104.0	/experiments/knapen_aot/AOT/AOT_stimuli/pictures/0419_fw.png	227.31936717033386	
107	135.63911700248718	picture	0		144	105.0	/experiments/knapen_aot/AOT/AOT_stimuli/pictures/0508_fw.png	227.33512902259827	1.2083220481872559
107	136.83166098594666	response	0	j		105.0	/experiments/knapen_aot/AOT/AOT_stimuli/pictures/0508_fw.png	228.52767300605774	
108	136.84743905067444	picture	0		138	106.0	/experiments/knapen_aot/AOT/AOT_stimuli/pictures/1713_fw.png	228.54345107078552	1.150799036026001
108	137.98920893669128	response	0	k		106.0	/experiments/knapen_aot/AOT/AOT_stimuli/pictures/1713_fw.png	229.68522095680237	
109	137.99823808670044	picture	0		107	107.0	/experiments/knapen_aot/AOT/AOT_stimuli/pictures/1533_fw.png	229.69425010681152	0.8991580009460449
109	138.8808310031891	response	0	k		107.0	/experiments/knapen_aot/AOT/AOT_stimuli/pictures/1533_fw.png	230.57684302330017	
110	138.89739608764648	picture	0		96	108.0	/experiments/knapen_aot/AOT/AOT_stimuli/pictures/0069_fw.png	230.59340810775757	0.8021769523620605
110	139.68920302391052	response	0	k		108.0	/experiments/knapen_aot/AOT/AOT_stimuli/pictures/0069_fw.png	231.3852150440216	
111	139.69957304000854	picture	0		132	109.0	/experiments/knapen_aot/AOT/AOT_stimuli/pictures/0529_fw.png	231.39558506011963	1.1061570644378662
111	140.7900140285492	response	0	k		109.0	/experiments/knapen_aot/AOT/AOT_stimuli/pictures/0529_fw.png	232.48602604866028	
112	140.8057301044464	picture	0		163	110.0	/experiments/knapen_aot/AOT/AOT_stimuli/pictures/0307_fw.png	232.5017421245575	1.359133005142212
112	142.15578508377075	response	0	k		110.0	/experiments/knapen_aot/AOT/AOT_stimuli/pictures/0307_fw.png	233.85179710388184	
113	142.16486310958862	picture	0		141	111.0	/experiments/knapen_aot/AOT/AOT_stimuli/pictures/1379_fw.png	233.8608751296997	1.1825230121612549
113	143.33160996437073	response	0	k		111.0	/experiments/knapen_aot/AOT/AOT_stimuli/pictures/1379_fw.png	235.0276219844818	
114	143.34738612174988	picture	0		241	112.0	/experiments/knapen_aot/AOT/AOT_stimuli/pictures/1284_fw.png	235.04339814186096	2.0118489265441895
114	145.347501039505	response	0	k		112.0	/experiments/knapen_aot/AOT/AOT_stimuli/pictures/1284_fw.png	237.0435130596161	
115	145.35923504829407	picture	0		213	113.0	/experiments/knapen_aot/AOT/AOT_stimuli/pictures/1797_fw.png	237.05524706840515	1.7798120975494385
115	147.12320113182068	response	0	j		113.0	/experiments/knapen_aot/AOT/AOT_stimuli/pictures/1797_fw.png	238.81921315193176	
116	147.1390471458435	picture	0		198	114.0	/experiments/knapen_aot/AOT/AOT_stimuli/pictures/0007_fw.png	238.8350591659546	1.6506829261779785
116	148.78082513809204	response	0	k		114.0	/experiments/knapen_aot/AOT/AOT_stimuli/pictures/0007_fw.png	240.47683715820312	
117	148.78973007202148	picture	0		130	115.0	/experiments/knapen_aot/AOT/AOT_stimuli/pictures/1024_fw.png	240.48574209213257	1.083333969116211
117	149.8641641139984	response	0	k		115.0	/experiments/knapen_aot/AOT/AOT_stimuli/pictures/1024_fw.png	241.5601761341095	
118	149.8730640411377	picture	0		160	116.0	/experiments/knapen_aot/AOT/AOT_stimuli/pictures/1396_fw.png	241.56907606124878	1.3333759307861328
118	151.19066500663757	response	0	k		116.0	/experiments/knapen_aot/AOT/AOT_stimuli/pictures/1396_fw.png	242.88667702674866	
119	151.20643997192383	picture	0		124	117.0	/experiments/knapen_aot/AOT/AOT_stimuli/pictures/1977_fw.png	242.9024519920349	1.034684181213379
119	152.22401094436646	response	0	j		117.0	/experiments/knapen_aot/AOT/AOT_stimuli/pictures/1977_fw.png	243.92002296447754	
120	152.2411241531372	picture	0		227	118.0	/experiments/knapen_aot/AOT/AOT_stimuli/pictures/1197_fw.png	243.9371361732483	1.897918939590454
120	154.12327313423157	response	0	k		118.0	/experiments/knapen_aot/AOT/AOT_stimuli/pictures/1197_fw.png	245.81928515434265	
121	154.13904309272766	picture	0		108	119.0	/experiments/knapen_aot/AOT/AOT_stimuli/pictures/1699_fw.png	245.83505511283875	0.9007458686828613
121	155.03076815605164	response	0	j		119.0	/experiments/knapen_aot/AOT/AOT_stimuli/pictures/1699_fw.png	246.72678017616272	
122	155.03978896141052	picture	0		171	120.0	/experiments/knapen_aot/AOT/AOT_stimuli/pictures/1231_fw.png	246.7358009815216	1.4325671195983887
122	156.45646810531616	response	0	k		120.0	/experiments/knapen_aot/AOT/AOT_stimuli/pictures/1231_fw.png	248.15248012542725	
123	156.4723560810089	picture	0		110	121.0	/experiments/knapen_aot/AOT/AOT_stimuli/pictures/1072_fw.png	248.16836810112	0.9214999675750732
123	157.38075494766235	response	0	k		121.0	/experiments/knapen_aot/AOT/AOT_stimuli/pictures/1072_fw.png	249.07676696777344	
124	157.39385604858398	picture	0		145	122.0	/experiments/knapen_aot/AOT/AOT_stimuli/pictures/0130_fw.png	249.08986806869507	1.2152879238128662
124	158.59745407104492	response	0	k		122.0	/experiments/knapen_aot/AOT/AOT_stimuli/pictures/0130_fw.png	250.293466091156	
125	158.60914397239685	picture	0		91	123.0	/experiments/knapen_aot/AOT/AOT_stimuli/pictures/1778_fw.png	250.30515599250793	0.7569200992584229
125	159.3557789325714	response	0	j		123.0	/experiments/knapen_aot/AOT/AOT_stimuli/pictures/1778_fw.png	251.0517909526825	
126	159.36606407165527	picture	0		98	124.0	/experiments/knapen_aot/AOT/AOT_stimuli/pictures/1629_fw.png	251.06207609176636	0.8195478916168213
126	160.17235612869263	response	0	j		124.0	/experiments/knapen_aot/AOT/AOT_stimuli/pictures/1629_fw.png	251.8683681488037	
127	160.1856119632721	picture	0		152	125.0	/experiments/knapen_aot/AOT/AOT_stimuli/pictures/2015_fw.png	251.88162398338318	1.2783770561218262
127	161.44740915298462	response	0	k		125.0	/experiments/knapen_aot/AOT/AOT_stimuli/pictures/2015_fw.png	253.1434211730957	
128	161.46398901939392	picture	0		124	126.0	/experiments/knapen_aot/AOT/AOT_stimuli/pictures/0346_fw.png	253.160001039505	1.0339760780334473
128	162.48907804489136	response	0	k		126.0	/experiments/knapen_aot/AOT/AOT_stimuli/pictures/0346_fw.png	254.18509006500244	
129	162.49796509742737	picture	0		96	127.0	/experiments/knapen_aot/AOT/AOT_stimuli/pictures/2046_fw.png	254.19397711753845	0.8076920509338379
129	163.2897219657898	response	0	k		127.0	/experiments/knapen_aot/AOT/AOT_stimuli/pictures/2046_fw.png	254.98573398590088	
130	163.3056571483612	picture	0		108	128.0	/experiments/knapen_aot/AOT/AOT_stimuli/pictures/1613_fw.png	255.0016691684723	0.9006118774414062
130	164.19745802879333	response	0	k		128.0	/experiments/knapen_aot/AOT/AOT_stimuli/pictures/1613_fw.png	255.89347004890442	
131	164.2062690258026	picture	0		98	129.0	/experiments/knapen_aot/AOT/AOT_stimuli/pictures/1445_fw.png	255.9022810459137	0.8194749355316162
131	165.00732493400574	response	0	k		129.0	/experiments/knapen_aot/AOT/AOT_stimuli/pictures/1445_fw.png	256.7033369541168	
132	165.02574396133423	picture	0		105	130.0	/experiments/knapen_aot/AOT/AOT_stimuli/pictures/1357_fw.png	256.7217559814453	0.8749620914459229
132	165.8890061378479	response	0	k		130.0	/experiments/knapen_aot/AOT/AOT_stimuli/pictures/1357_fw.png	257.585018157959	
133	165.90070605278015	picture	0		140	131.0	/experiments/knapen_aot/AOT/AOT_stimuli/pictures/1135_fw.png	257.59671807289124	1.1666829586029053
133	167.05575394630432	response	0	k		131.0	/experiments/knapen_aot/AOT/AOT_stimuli/pictures/1135_fw.png	258.7517659664154	
134	167.06738901138306	picture	0		108	132.0	/experiments/knapen_aot/AOT/AOT_stimuli/pictures/0805_fw.png	258.76340103149414	0.9049839973449707
134	167.9563980102539	response	0	j		132.0	/experiments/knapen_aot/AOT/AOT_stimuli/pictures/0805_fw.png	259.652410030365	
135	167.97237300872803	picture	0		112	133.0	/experiments/knapen_aot/AOT/AOT_stimuli/pictures/1605_fw.png	259.6683850288391	0.9352540969848633
135	168.89740800857544	response	0	j		133.0	/experiments/knapen_aot/AOT/AOT_stimuli/pictures/1605_fw.png	260.5934200286865	
136	168.9076271057129	picture	0		124	134.0	/experiments/knapen_aot/AOT/AOT_stimuli/pictures/0445_fw.png	260.603639125824	1.0396678447723389
136	169.9307370185852	response	0	j		134.0	/experiments/knapen_aot/AOT/AOT_stimuli/pictures/0445_fw.png	261.6267490386963	
137	169.94729495048523	picture	0		275	135.0	/experiments/knapen_aot/AOT/AOT_stimuli/pictures/2126_fw.png	261.6433069705963	2.2936410903930664
137	172.22397208213806	response	0	j		135.0	/experiments/knapen_aot/AOT/AOT_stimuli/pictures/2126_fw.png	263.91998410224915	
138	172.2409360408783	picture	0		115	136.0	/experiments/knapen_aot/AOT/AOT_stimuli/pictures/0475_fw.png	263.9369480609894	0.9583349227905273
138	173.18903613090515	response	0	k		136.0	/experiments/knapen_aot/AOT/AOT_stimuli/pictures/0475_fw.png	264.88504815101624	
139	173.19927096366882	picture	0		111	137.0	/experiments/knapen_aot/AOT/AOT_stimuli/pictures/0086_fw.png	264.8952829837799	0.9235880374908447
139	174.11400508880615	response	0	k		137.0	/experiments/knapen_aot/AOT/AOT_stimuli/pictures/0086_fw.png	265.81001710891724	
140	174.12285900115967	picture	0		141	138.0	/experiments/knapen_aot/AOT/AOT_stimuli/pictures/0532_fw.png	265.81887102127075	1.1827139854431152
140	175.2895791530609	response	0	j		138.0	/experiments/knapen_aot/AOT/AOT_stimuli/pictures/0532_fw.png	266.985591173172	
141	175.30557298660278	picture	0		112	139.0	/experiments/knapen_aot/AOT/AOT_stimuli/pictures/0613_fw.png	267.00158500671387	0.9352700710296631
141	176.22389006614685	response	0	j		139.0	/experiments/knapen_aot/AOT/AOT_stimuli/pictures/0613_fw.png	267.91990208625793	
142	176.24084305763245	picture	0		115	140.0	/experiments/knapen_aot/AOT/AOT_stimuli/pictures/0564_fw.png	267.93685507774353	0.9583699703216553
142	177.1889979839325	response	0	j		140.0	/experiments/knapen_aot/AOT/AOT_stimuli/pictures/0564_fw.png	268.8850100040436	
143	177.1992130279541	picture	0		122	141.0	/experiments/knapen_aot/AOT/AOT_stimuli/pictures/1463_fw.png	268.8952250480652	1.020841121673584
143	178.20623207092285	response	0	k		141.0	/experiments/knapen_aot/AOT/AOT_stimuli/pictures/1463_fw.png	269.90224409103394	
144	178.22005414962769	picture	0		100	142.0	/experiments/knapen_aot/AOT/AOT_stimuli/pictures/0962_fw.png	269.91606616973877	0.8402318954467773
144	179.04730415344238	response	0	k		142.0	/experiments/knapen_aot/AOT/AOT_stimuli/pictures/0962_fw.png	270.74331617355347	
145	179.06028604507446	picture	0		89	143.0	/experiments/knapen_aot/AOT/AOT_stimuli/pictures/0075_fw.png	270.75629806518555	0.7452819347381592
145	179.7895791530609	response	0	k		143.0	/experiments/knapen_aot/AOT/AOT_stimuli/pictures/0075_fw.png	271.485591173172	
146	179.80556797981262	picture	0		130	144.0	/experiments/knapen_aot/AOT/AOT_stimuli/pictures/1342_fw.png	271.5015799999237	1.0883009433746338
146	180.88067412376404	response	0	k		144.0	/experiments/knapen_aot/AOT/AOT_stimuli/pictures/1342_fw.png	272.5766861438751	
147	180.89386892318726	picture	0		159	145.0	/experiments/knapen_aot/AOT/AOT_stimuli/pictures/0515_fw.png	272.58988094329834	1.3330531120300293
147	182.20778107643127	response	0	k		145.0	/experiments/knapen_aot/AOT/AOT_stimuli/pictures/0515_fw.png	273.90379309654236	
148	182.22692203521729	picture	0		124	146.0	/experiments/knapen_aot/AOT/AOT_stimuli/pictures/0449_fw.png	273.92293405532837	1.0369620323181152
148	183.24050211906433	response	0	k		146.0	/experiments/knapen_aot/AOT/AOT_stimuli/pictures/0449_fw.png	274.9365141391754	
149	183.2638840675354	picture	0		95	147.0	/experiments/knapen_aot/AOT/AOT_stimuli/pictures/1479_fw.png	274.9598960876465	0.7963650226593018
149	184.04731512069702	response	0	j		147.0	/experiments/knapen_aot/AOT/AOT_stimuli/pictures/1479_fw.png	275.7433271408081	
150	184.0602490901947	picture	0		96	148.0	/experiments/knapen_aot/AOT/AOT_stimuli/pictures/0800_fw.png	275.7562611103058	0.7985780239105225
150	184.84725093841553	response	0	k		148.0	/experiments/knapen_aot/AOT/AOT_stimuli/pictures/0800_fw.png	276.5432629585266	
151	184.85882711410522	picture	0		151	149.0	/experiments/knapen_aot/AOT/AOT_stimuli/pictures/0357_fw.png	276.5548391342163	1.2570710182189941
151	186.10567212104797	response	0	k		149.0	/experiments/knapen_aot/AOT/AOT_stimuli/pictures/0357_fw.png	277.80168414115906	
152	186.11589813232422	picture	0		468	150.0	/experiments/knapen_aot/AOT/AOT_stimuli/pictures/0678_fw.png	277.8119101524353	3.90264892578125
152	189.9993200302124	response	0	k		150.0	/experiments/knapen_aot/AOT/AOT_stimuli/pictures/0678_fw.png	281.6953320503235	
153	190.01854705810547	picture	0		135	151.0	/experiments/knapen_aot/AOT/AOT_stimuli/pictures/1183_fw.png	281.71455907821655	1.1287870407104492
153	191.13068413734436	response	0	j		151.0	/experiments/knapen_aot/AOT/AOT_stimuli/pictures/1183_fw.png	282.82669615745544	
154	191.14733409881592	picture	0		154	152.0	/experiments/knapen_aot/AOT/AOT_stimuli/pictures/1299_fw.png	282.843346118927	1.2878539562225342
154	192.4160599708557	response	0	k		152.0	/experiments/knapen_aot/AOT/AOT_stimuli/pictures/1299_fw.png	284.1120719909668	
155	192.43518805503845	picture	0		98	153.0	/experiments/knapen_aot/AOT/AOT_stimuli/pictures/1248_fw.png	284.13120007514954	0.8263790607452393
155	193.24777507781982	response	0	k		153.0	/experiments/knapen_aot/AOT/AOT_stimuli/pictures/1248_fw.png	284.9437870979309	
156	193.2615671157837	picture	0		113	154.0	/experiments/knapen_aot/AOT/AOT_stimuli/pictures/0932_fw.png	284.9575791358948	0.944490909576416
156	194.1972529888153	response	0	k		154.0	/experiments/knapen_aot/AOT/AOT_stimuli/pictures/0932_fw.png	285.8932650089264	
157	194.2060580253601	picture	0		96	155.0	/experiments/knapen_aot/AOT/AOT_stimuli/pictures/1302_fw.png	285.9020700454712	0.8077740669250488
157	194.99780702590942	response	0	k		155.0	/experiments/knapen_aot/AOT/AOT_stimuli/pictures/1302_fw.png	286.6938190460205	
158	195.01383209228516	picture	0		85	156.0	/experiments/knapen_aot/AOT/AOT_stimuli/pictures/0820_fw.png	286.70984411239624	0.7129719257354736
158	195.71390414237976	response	0	j		156.0	/experiments/knapen_aot/AOT/AOT_stimuli/pictures/0820_fw.png	287.40991616249084	
159	195.72680401802063	picture	0		120	157.0	/experiments/knapen_aot/AOT/AOT_stimuli/pictures/1596_fw.png	287.4228160381317	1.0000629425048828
159	196.71390509605408	response	0	k		157.0	/experiments/knapen_aot/AOT/AOT_stimuli/pictures/1596_fw.png	288.40991711616516	
160	196.7268669605255	picture	0		328	158.0	/experiments/knapen_aot/AOT/AOT_stimuli/pictures/1313_fw.png	288.4228789806366	2.736976146697998
160	199.44736099243164	response	0	j		158.0	/experiments/knapen_aot/AOT/AOT_stimuli/pictures/1313_fw.png	291.1433730125427	
161	199.4638431072235	picture	0		91	159.0	/experiments/knapen_aot/AOT/AOT_stimuli/pictures/1255_fw.png	291.1598551273346	0.7629208564758301
161	200.20754599571228	response	0	k		159.0	/experiments/knapen_aot/AOT/AOT_stimuli/pictures/1255_fw.png	291.90355801582336	
162	200.22676396369934	picture	0		83	160.0	/experiments/knapen_aot/AOT/AOT_stimuli/pictures/0937_fw.png	291.9227759838104	0.6953861713409424
162	200.90560293197632	response	0	k		160.0	/experiments/knapen_aot/AOT/AOT_stimuli/pictures/0937_fw.png	292.6016149520874	
163	200.92215013504028	picture	0		189	161.0	/experiments/knapen_aot/AOT/AOT_stimuli/pictures/0095_fw.png	292.61816215515137	1.5833899974822998
163	202.4889359474182	response	0	k		161.0	/experiments/knapen_aot/AOT/AOT_stimuli/pictures/0095_fw.png	294.1849479675293	
164	202.50554013252258	picture	0		199	162.0	/experiments/knapen_aot/AOT/AOT_stimuli/pictures/1660_fw.png	294.20155215263367	1.666604995727539
164	204.15558910369873	response	0	j		162.0	/experiments/knapen_aot/AOT/AOT_stimuli/pictures/1660_fw.png	295.8516011238098	
165	204.17214512825012	picture	0		108	163.0	/experiments/knapen_aot/AOT/AOT_stimuli/pictures/2137_fw.png	295.8681571483612	0.9017889499664307
165	205.06395506858826	response	0	k		163.0	/experiments/knapen_aot/AOT/AOT_stimuli/pictures/2137_fw.png	296.75996708869934	
166	205.07393407821655	picture	0		117	164.0	/experiments/knapen_aot/AOT/AOT_stimuli/pictures/0787_fw.png	296.76994609832764	0.9815480709075928
166	206.0393509864807	response	0	j		164.0	/experiments/knapen_aot/AOT/AOT_stimuli/pictures/0787_fw.png	297.7353630065918	
167	206.05548214912415	picture	0		121	165.0	/experiments/knapen_aot/AOT/AOT_stimuli/pictures/1256_fw.png	297.75149416923523	1.0115058422088623
167	207.04890203475952	response	0	k		165.0	/experiments/knapen_aot/AOT/AOT_stimuli/pictures/1256_fw.png	298.7449140548706	
168	207.066987991333	picture	0		110	166.0	/experiments/knapen_aot/AOT/AOT_stimuli/pictures/0203_fw.png	298.7630000114441	0.9166440963745117
168	207.97220015525818	response	0	k		166.0	/experiments/knapen_aot/AOT/AOT_stimuli/pictures/0203_fw.png	299.66821217536926	
169	207.98363208770752	picture	0		97	167.0	/experiments/knapen_aot/AOT/AOT_stimuli/pictures/2115_fw.png	299.6796441078186	0.8055679798126221
169	208.7805690765381	response	0	j		167.0	/experiments/knapen_aot/AOT/AOT_stimuli/pictures/2115_fw.png	300.47658109664917	
170	208.78920006752014	picture	0		122	168.0	/experiments/knapen_aot/AOT/AOT_stimuli/pictures/1397_fw.png	300.4852120876312	1.0208079814910889
170	209.79726314544678	response	0	k		168.0	/experiments/knapen_aot/AOT/AOT_stimuli/pictures/1397_fw.png	301.49327516555786	
171	209.81000804901123	picture	0		110	169.0	/experiments/knapen_aot/AOT/AOT_stimuli/pictures/0315_fw.png	301.5060200691223	0.9235930442810059
171	210.72219514846802	response	0	k		169.0	/experiments/knapen_aot/AOT/AOT_stimuli/pictures/0315_fw.png	302.4182071685791	
172	210.73360109329224	picture	0		159	170.0	/experiments/knapen_aot/AOT/AOT_stimuli/pictures/1850_fw.png	302.4296131134033	1.3263919353485107
172	212.04082107543945	response	0	j		170.0	/experiments/knapen_aot/AOT/AOT_stimuli/pictures/1850_fw.png	303.73683309555054	
173	212.05999302864075	picture	0		182	171.0	/experiments/knapen_aot/AOT/AOT_stimuli/pictures/0766_fw.png	303.75600504875183	1.513895034790039
173	213.56386399269104	response	0	k		171.0	/experiments/knapen_aot/AOT/AOT_stimuli/pictures/0766_fw.png	305.2598760128021	
174	213.5738880634308	picture	0		155	172.0	/experiments/knapen_aot/AOT/AOT_stimuli/pictures/0068_fw.png	305.26990008354187	1.2916150093078613
174	214.84871315956116	response	0	j		172.0	/experiments/knapen_aot/AOT/AOT_stimuli/pictures/0068_fw.png	306.54472517967224	
175	214.86550307273865	picture	0		202	173.0	/experiments/knapen_aot/AOT/AOT_stimuli/pictures/1708_fw.png	306.56151509284973	1.6899938583374023
175	216.5392780303955	response	0	k		173.0	/experiments/knapen_aot/AOT/AOT_stimuli/pictures/1708_fw.png	308.2352900505066	
176	216.55549693107605	picture	0		191	174.0	/experiments/knapen_aot/AOT/AOT_stimuli/pictures/2154_fw.png	308.25150895118713	1.5947551727294922
176	218.13881707191467	response	0	k		174.0	/experiments/knapen_aot/AOT/AOT_stimuli/pictures/2154_fw.png	309.83482909202576	
177	218.15025210380554	picture	0		122	175.0	/experiments/knapen_aot/AOT/AOT_stimuli/pictures/0240_fw.png	309.8462641239166	1.0138039588928223
177	219.15549397468567	response	0	k		175.0	/experiments/knapen_aot/AOT/AOT_stimuli/pictures/0240_fw.png	310.85150599479675	
178	219.16405606269836	picture	0		109	176.0	/experiments/knapen_aot/AOT/AOT_stimuli/pictures/0326_fw.png	310.86006808280945	0.9097368717193604
178	220.06378197669983	response	0	j		176.0	/experiments/knapen_aot/AOT/AOT_stimuli/pictures/0326_fw.png	311.7597939968109	
179	220.07379293441772	picture	0		138	177.0	/experiments/knapen_aot/AOT/AOT_stimuli/pictures/0364_fw.png	311.7698049545288	1.1527791023254395
179	221.21383500099182	response	0	k		177.0	/experiments/knapen_aot/AOT/AOT_stimuli/pictures/0364_fw.png	312.9098470211029	
180	221.22657203674316	picture	0		98	178.0	/experiments/knapen_aot/AOT/AOT_stimuli/pictures/1030_fw.png	312.92258405685425	0.8125739097595215
180	222.0236520767212	response	0	j		178.0	/experiments/knapen_aot/AOT/AOT_stimuli/pictures/1030_fw.png	313.7196640968323	
181	222.03914594650269	picture	0		148	179.0	/experiments/knapen_aot/AOT/AOT_stimuli/pictures/0723_fw.png	313.73515796661377	1.2360291481018066
181	223.26379895210266	response	0	k		179.0	/experiments/knapen_aot/AOT/AOT_stimuli/pictures/0723_fw.png	314.95981097221375	
182	223.2751750946045	stim	0		382			314.9711871147156	3.180510997772217
182	224.2555160522461	response	0	k				315.9515280723572	
182	226.43967413902283	response	0	space				318.1356861591339	
