trial_nr	onset	event_type	phase	response	nr_frames	picture_index	picture_file	onset_abs	duration
0	0.039459874999010935	stim	0		43710			17.953051000004052	434.16056120800204
0	434.17306904100406	response	0	space				452.0866601660091	
2	434.20002108300105	picture	0		364	0.0	/Users/shufanzhang/Documents/PhD/Arrow_of_time/arrow_of_time/pictures/R_S_yt-uSHBdUi8_V0_24.png	452.1136122080061	3.1150479999923846
2	437.2972007079952	response	0	j		0.0	/Users/shufanzhang/Documents/PhD/Arrow_of_time/arrow_of_time/pictures/R_S_yt-uSHBdUi8_V0_24.png	455.21079183300026	
3	437.31506908299343	picture	0		189	1.0	/Users/shufanzhang/Documents/PhD/Arrow_of_time/arrow_of_time/pictures/R_S_yt-WhQMF3WM0Ig_29.png	455.2286602079985	1.680991958011873
3	438.9823344579927	response	0	j		1.0	/Users/shufanzhang/Documents/PhD/Arrow_of_time/arrow_of_time/pictures/R_S_yt-WhQMF3WM0Ig_29.png	456.89592558299773	
4	438.9960610410053	picture	0		237	2.0	/Users/shufanzhang/Documents/PhD/Arrow_of_time/arrow_of_time/pictures/R_S_ILnEDG_aP1A_35.png	456.90965216601035	2.023686166998232
4	441.0044254579989	response	0	j		2.0	/Users/shufanzhang/Documents/PhD/Arrow_of_time/arrow_of_time/pictures/R_S_ILnEDG_aP1A_35.png	458.9180165830039	
5	441.01974720800354	picture	0		122	3.0	/Users/shufanzhang/Documents/PhD/Arrow_of_time/arrow_of_time/pictures/S_b5-3.png	458.9333383330086	1.0517039580008714
5	442.05705124999804	response	0	j		3.0	/Users/shufanzhang/Documents/PhD/Arrow_of_time/arrow_of_time/pictures/S_b5-3.png	459.9706423750031	
6	442.0714511660044	picture	0		114	4.0	/Users/shufanzhang/Documents/PhD/Arrow_of_time/arrow_of_time/pictures/R_S_production_ID_3944248.png	459.98504229100945	1.0054835839982843
6	443.06209291599225	response	0	j		4.0	/Users/shufanzhang/Documents/PhD/Arrow_of_time/arrow_of_time/pictures/R_S_production_ID_3944248.png	460.9756840409973	
7	443.0769347500027	picture	0		453	5.0	/Users/shufanzhang/Documents/PhD/Arrow_of_time/arrow_of_time/pictures/n01630670_121.JPEG	460.99052587500773	3.8198154580022674
7	446.88170929100306	response	0	k		5.0	/Users/shufanzhang/Documents/PhD/Arrow_of_time/arrow_of_time/pictures/n01630670_121.JPEG	464.7953004160081	
8	446.89675020800496	picture	0		117	6.0	/Users/shufanzhang/Documents/PhD/Arrow_of_time/arrow_of_time/pictures/S_pexels-laker-5793000.png	464.81034133301	1.047409124992555
8	447.9309433330054	response	0	j		6.0	/Users/shufanzhang/Documents/PhD/Arrow_of_time/arrow_of_time/pictures/S_pexels-laker-5793000.png	465.84453445801046	
9	447.9441593329975	picture	0		142	7.0	/Users/shufanzhang/Documents/PhD/Arrow_of_time/arrow_of_time/pictures/R_S_ILSVRC2015_train_00369000.png	465.85775045800256	1.2371564170025522
9	449.16768083299394	response	0	j		7.0	/Users/shufanzhang/Documents/PhD/Arrow_of_time/arrow_of_time/pictures/R_S_ILSVRC2015_train_00369000.png	467.081271957999	
10	449.18131575000007	picture	0		119	8.0	/Users/shufanzhang/Documents/PhD/Arrow_of_time/arrow_of_time/pictures/S_ILSVRC2015_train_00415001.png	467.0949068750051	1.042857416003244
10	450.2095147499931	response	0	j		8.0	/Users/shufanzhang/Documents/PhD/Arrow_of_time/arrow_of_time/pictures/S_ILSVRC2015_train_00415001.png	468.12310587499815	
11	450.2241731660033	picture	0		131	9.0	/Users/shufanzhang/Documents/PhD/Arrow_of_time/arrow_of_time/pictures/n04613696_11624.JPEG	468.13776429100835	1.1255769999988843
11	451.33475241600536	response	0	k		9.0	/Users/shufanzhang/Documents/PhD/Arrow_of_time/arrow_of_time/pictures/n04613696_11624.JPEG	469.2483435410104	
12	451.3497501660022	picture	0		165	10.0	/Users/shufanzhang/Documents/PhD/Arrow_of_time/arrow_of_time/pictures/n02859443_21872.JPEG	469.26334129100724	1.408066374991904
12	452.7426718749921	response	0	k		10.0	/Users/shufanzhang/Documents/PhD/Arrow_of_time/arrow_of_time/pictures/n02859443_21872.JPEG	470.6562629999971	
13	452.7578165409941	picture	0		185	11.0	/Users/shufanzhang/Documents/PhD/Arrow_of_time/arrow_of_time/pictures/n07714990_3116.JPEG	470.67140766599914	1.5841528750024736
13	454.3273221249983	response	0	k		11.0	/Users/shufanzhang/Documents/PhD/Arrow_of_time/arrow_of_time/pictures/n07714990_3116.JPEG	472.24091325000336	
14	454.3419694159966	picture	0		131	12.0	/Users/shufanzhang/Documents/PhD/Arrow_of_time/arrow_of_time/pictures/n01882714_3551.JPEG	472.2555605410016	1.1324401669990038
14	455.46226395800477	response	0	k		12.0	/Users/shufanzhang/Documents/PhD/Arrow_of_time/arrow_of_time/pictures/n01882714_3551.JPEG	473.3758550830098	
15	455.4744095829956	picture	0		223	13.0	/Users/shufanzhang/Documents/PhD/Arrow_of_time/arrow_of_time/pictures/S_yt-nB2WgvYt7bA_170.png	473.3880007080006	1.901558333003777
15	457.3629359579936	response	0	k		13.0	/Users/shufanzhang/Documents/PhD/Arrow_of_time/arrow_of_time/pictures/S_yt-nB2WgvYt7bA_170.png	475.27652708299865	
16	457.37596791599935	picture	0		135	14.0	/Users/shufanzhang/Documents/PhD/Arrow_of_time/arrow_of_time/pictures/R_S_yt-RO4mhuXBVrY_67.png	475.2895590410044	1.171162667000317
16	458.5329886660038	response	0	j		14.0	/Users/shufanzhang/Documents/PhD/Arrow_of_time/arrow_of_time/pictures/R_S_yt-RO4mhuXBVrY_67.png	476.44657979100884	
17	458.54713058299967	picture	0		117	15.0	/Users/shufanzhang/Documents/PhD/Arrow_of_time/arrow_of_time/pictures/R_S_yt-6xXEMHBQ08A_28.png	476.4607217080047	1.0156697079946753
17	459.5473048749991	response	0	j		15.0	/Users/shufanzhang/Documents/PhD/Arrow_of_time/arrow_of_time/pictures/R_S_yt-6xXEMHBQ08A_28.png	477.46089600000414	
18	459.56280029099435	picture	0		109	16.0	/Users/shufanzhang/Documents/PhD/Arrow_of_time/arrow_of_time/pictures/n13044778_706.JPEG	477.4763914159994	0.9525096669967752
18	460.5025965829991	response	0	k		16.0	/Users/shufanzhang/Documents/PhD/Arrow_of_time/arrow_of_time/pictures/n13044778_706.JPEG	478.41618770800414	
19	460.5153099579911	picture	0		145	17.0	/Users/shufanzhang/Documents/PhD/Arrow_of_time/arrow_of_time/pictures/S_Pexels_Videos_278654_1.png	478.42890108299616	1.2509492080134805
19	461.7501901249925	response	0	j		17.0	/Users/shufanzhang/Documents/PhD/Arrow_of_time/arrow_of_time/pictures/S_Pexels_Videos_278654_1.png	479.66378124999756	
20	461.7662591660046	picture	0		113	18.0	/Users/shufanzhang/Documents/PhD/Arrow_of_time/arrow_of_time/pictures/n04443257_5252.JPEG	479.67985029100964	1.0013222499983385
20	462.7549676250055	response	0	k		18.0	/Users/shufanzhang/Documents/PhD/Arrow_of_time/arrow_of_time/pictures/n04443257_5252.JPEG	480.66855875001056	
21	462.76758141600294	picture	0		294	19.0	/Users/shufanzhang/Documents/PhD/Arrow_of_time/arrow_of_time/pictures/R_S_production_ID_4325591.png	480.681172541008	2.490898999996716
21	465.2478137500002	response	0	k		19.0	/Users/shufanzhang/Documents/PhD/Arrow_of_time/arrow_of_time/pictures/R_S_production_ID_4325591.png	483.16140487500525	
22	465.25848041599966	picture	0		80	20.0	/Users/shufanzhang/Documents/PhD/Arrow_of_time/arrow_of_time/pictures/S_yt-j3Sk8ZnAiEA_32.png	483.1720715410047	0.7049806669965619
22	465.9497027909965	response	0	j		20.0	/Users/shufanzhang/Documents/PhD/Arrow_of_time/arrow_of_time/pictures/S_yt-j3Sk8ZnAiEA_32.png	483.86329391600157	
23	465.9634610829962	picture	0		122	21.0	/Users/shufanzhang/Documents/PhD/Arrow_of_time/arrow_of_time/pictures/n02077923_6737.JPEG	483.87705220800126	1.0572438329982106
23	467.0070457499969	response	0	k		21.0	/Users/shufanzhang/Documents/PhD/Arrow_of_time/arrow_of_time/pictures/n02077923_6737.JPEG	484.92063687500195	
24	467.02070491599443	picture	0		101	22.0	/Users/shufanzhang/Documents/PhD/Arrow_of_time/arrow_of_time/pictures/R_S_yt-VfASxEzDrvc_145.png	484.93429604099947	0.8929505840060301
24	467.8876999159984	response	0	j		22.0	/Users/shufanzhang/Documents/PhD/Arrow_of_time/arrow_of_time/pictures/R_S_yt-VfASxEzDrvc_145.png	485.8012910410034	
25	467.91365550000046	picture	0		123	23.0	/Users/shufanzhang/Documents/PhD/Arrow_of_time/arrow_of_time/pictures/n04350905_11239.JPEG	485.8272466250055	1.0615346249978757
25	468.9602461250033	response	0	k		23.0	/Users/shufanzhang/Documents/PhD/Arrow_of_time/arrow_of_time/pictures/n04350905_11239.JPEG	486.87383725000836	
26	468.97519012499833	picture	0		141	24.0	/Users/shufanzhang/Documents/PhD/Arrow_of_time/arrow_of_time/pictures/n04081281_2467.JPEG	486.8887812500034	1.2143956660002004
26	470.1756775829999	response	0	k		24.0	/Users/shufanzhang/Documents/PhD/Arrow_of_time/arrow_of_time/pictures/n04081281_2467.JPEG	488.08926870800497	
27	470.18958579099854	picture	0		111	25.0	/Users/shufanzhang/Documents/PhD/Arrow_of_time/arrow_of_time/pictures/n04044716_20454.JPEG	488.1031769160036	0.9527764999947976
27	471.128802457999	response	0	k		25.0	/Users/shufanzhang/Documents/PhD/Arrow_of_time/arrow_of_time/pictures/n04044716_20454.JPEG	489.042393583004	
28	471.14236229099333	picture	0		212	26.0	/Users/shufanzhang/Documents/PhD/Arrow_of_time/arrow_of_time/pictures/S_yt-cu4AVz6o2eg_24.png	489.0559534159984	1.8013768340024399
28	472.930749666004	response	0	k		26.0	/Users/shufanzhang/Documents/PhD/Arrow_of_time/arrow_of_time/pictures/S_yt-cu4AVz6o2eg_24.png	490.844340791009	
29	472.9437391249958	picture	0		97	27.0	/Users/shufanzhang/Documents/PhD/Arrow_of_time/arrow_of_time/pictures/R_S_bing-www_dailymotion_com_video_x4kcklg_53.png	490.8573302500008	0.8493162079976173
29	473.7793419160007	response	0	j		27.0	/Users/shufanzhang/Documents/PhD/Arrow_of_time/arrow_of_time/pictures/R_S_bing-www_dailymotion_com_video_x4kcklg_53.png	491.69293304100574	
30	473.7930553329934	picture	0		155	28.0	/Users/shufanzhang/Documents/PhD/Arrow_of_time/arrow_of_time/pictures/S_yt-kYMffy4hTMo_107.png	491.70664645799843	1.3271059580001747
30	475.1048187910055	response	0	j		28.0	/Users/shufanzhang/Documents/PhD/Arrow_of_time/arrow_of_time/pictures/S_yt-kYMffy4hTMo_107.png	493.01840991601057	
31	475.12016129099356	picture	0		126	29.0	/Users/shufanzhang/Documents/PhD/Arrow_of_time/arrow_of_time/pictures/S_yt-S6N5FyjSFZE_4.png	493.0337524159986	1.1311480840086006
31	476.23598683299497	response	0	j		29.0	/Users/shufanzhang/Documents/PhD/Arrow_of_time/arrow_of_time/pictures/S_yt-S6N5FyjSFZE_4.png	494.149577958	
32	476.25130937500217	picture	0		176	30.0	/Users/shufanzhang/Documents/PhD/Arrow_of_time/arrow_of_time/pictures/n02687172_773.JPEG	494.1649005000072	1.4981495829997584
32	477.73420954099856	response	0	k		30.0	/Users/shufanzhang/Documents/PhD/Arrow_of_time/arrow_of_time/pictures/n02687172_773.JPEG	495.6478006660036	
33	477.7494589580019	picture	0		71	31.0	/Users/shufanzhang/Documents/PhD/Arrow_of_time/arrow_of_time/pictures/R_S_yt-kYMffy4hTMo_107.png	495.66305008300696	0.6503602919983678
33	478.38664149999386	response	0	j		31.0	/Users/shufanzhang/Documents/PhD/Arrow_of_time/arrow_of_time/pictures/R_S_yt-kYMffy4hTMo_107.png	496.3002326249989	
34	478.3998192500003	picture	0		133	32.0	/Users/shufanzhang/Documents/PhD/Arrow_of_time/arrow_of_time/pictures/R_S_b3TCugtX0h0_108.png	496.31341037500533	1.1379482909978833
34	479.524546457993	response	0	j		32.0	/Users/shufanzhang/Documents/PhD/Arrow_of_time/arrow_of_time/pictures/R_S_b3TCugtX0h0_108.png	497.438137582998	
35	479.5377675409982	picture	0		95	33.0	/Users/shufanzhang/Documents/PhD/Arrow_of_time/arrow_of_time/pictures/S_yt-AbJBxqEYoMg_27.png	497.4513586660032	0.8166031250002561
35	480.34758674999466	response	0	j		33.0	/Users/shufanzhang/Documents/PhD/Arrow_of_time/arrow_of_time/pictures/S_yt-AbJBxqEYoMg_27.png	498.2611778749997	
36	480.35437066599843	picture	0		173	34.0	/Users/shufanzhang/Documents/PhD/Arrow_of_time/arrow_of_time/pictures/n01795545_14217.JPEG	498.2679617910035	1.4808471249998547
36	481.8219827080029	response	0	k		34.0	/Users/shufanzhang/Documents/PhD/Arrow_of_time/arrow_of_time/pictures/n01795545_14217.JPEG	499.73557383300795	
37	481.8352177909983	picture	0		130	35.0	/Users/shufanzhang/Documents/PhD/Arrow_of_time/arrow_of_time/pictures/R_S_yt-hZxbKZ1WCVg_24.png	499.7488089160033	1.12348141700204
37	482.94518091599457	response	0	j		35.0	/Users/shufanzhang/Documents/PhD/Arrow_of_time/arrow_of_time/pictures/R_S_yt-hZxbKZ1WCVg_24.png	500.8587720409996	
38	482.9586992080003	picture	0		177	36.0	/Users/shufanzhang/Documents/PhD/Arrow_of_time/arrow_of_time/pictures/R_S_yt-wEbfIR14zZ8_7.png	500.87229033300537	1.5108237499953248
38	484.4557863749942	response	0	k		36.0	/Users/shufanzhang/Documents/PhD/Arrow_of_time/arrow_of_time/pictures/R_S_yt-wEbfIR14zZ8_7.png	502.36937749999925	
39	484.46952295799565	picture	0		93	37.0	/Users/shufanzhang/Documents/PhD/Arrow_of_time/arrow_of_time/pictures/S_ILSVRC2015_train_00417000.png	502.3831140830007	0.8047309579997091
39	485.2638739999966	response	0	j		37.0	/Users/shufanzhang/Documents/PhD/Arrow_of_time/arrow_of_time/pictures/S_ILSVRC2015_train_00417000.png	503.1774651250016	
40	485.27425391599536	picture	0		114	38.0	/Users/shufanzhang/Documents/PhD/Arrow_of_time/arrow_of_time/pictures/n04149813_4677.JPEG	503.1878450410004	0.978450459006126
40	486.2395972910017	response	0	k		38.0	/Users/shufanzhang/Documents/PhD/Arrow_of_time/arrow_of_time/pictures/n04149813_4677.JPEG	504.15318841600674	
41	486.2527043750015	picture	0		143	39.0	/Users/shufanzhang/Documents/PhD/Arrow_of_time/arrow_of_time/pictures/n04606251_6163.JPEG	504.1662955000065	1.227715332992375
41	487.46654537499126	response	0	k		39.0	/Users/shufanzhang/Documents/PhD/Arrow_of_time/arrow_of_time/pictures/n04606251_6163.JPEG	505.3801364999963	
42	487.48041970799386	picture	0		122	40.0	/Users/shufanzhang/Documents/PhD/Arrow_of_time/arrow_of_time/pictures/R_S_pexels-cottonbro-5310858.png	505.3940108329989	1.1286614580021705
42	488.59359195799334	response	0	j		40.0	/Users/shufanzhang/Documents/PhD/Arrow_of_time/arrow_of_time/pictures/R_S_pexels-cottonbro-5310858.png	506.5071830829984	
43	488.60908116599603	picture	0		116	41.0	/Users/shufanzhang/Documents/PhD/Arrow_of_time/arrow_of_time/pictures/n02749479_3074.JPEG	506.5226722910011	1.0090256670082454
43	489.6043389999977	response	0	k		41.0	/Users/shufanzhang/Documents/PhD/Arrow_of_time/arrow_of_time/pictures/n02749479_3074.JPEG	507.51793012500275	
44	489.6181068330043	picture	0		134	42.0	/Users/shufanzhang/Documents/PhD/Arrow_of_time/arrow_of_time/pictures/n03933933_11785.JPEG	507.5316979580093	1.1409511249948991
44	490.74352566599555	response	0	k		42.0	/Users/shufanzhang/Documents/PhD/Arrow_of_time/arrow_of_time/pictures/n03933933_11785.JPEG	508.6571167910006	
45	490.7590579579992	picture	0		248	43.0	/Users/shufanzhang/Documents/PhD/Arrow_of_time/arrow_of_time/pictures/R_S_comp_L007_C007_PS_v01_SDR_PS_20180925_SDR_2K_AVC.png	508.6726490830042	2.0932376669952646
45	492.8386771660007	response	0	j		43.0	/Users/shufanzhang/Documents/PhD/Arrow_of_time/arrow_of_time/pictures/R_S_comp_L007_C007_PS_v01_SDR_PS_20180925_SDR_2K_AVC.png	510.75226829100575	
46	492.85229562499444	picture	0		102	44.0	/Users/shufanzhang/Documents/PhD/Arrow_of_time/arrow_of_time/pictures/S_yt-lfDIg8kaXhA_169.png	510.7658867499995	0.8753115410072496
46	493.71476491600333	response	0	j		44.0	/Users/shufanzhang/Documents/PhD/Arrow_of_time/arrow_of_time/pictures/S_yt-lfDIg8kaXhA_169.png	511.6283560410084	
47	493.7276071660017	picture	0		145	45.0	/Users/shufanzhang/Documents/PhD/Arrow_of_time/arrow_of_time/pictures/S_yt-isJga8ec5UM_32.png	511.64119829100673	1.2480900419905083
47	494.95775237500493	response	0	j		45.0	/Users/shufanzhang/Documents/PhD/Arrow_of_time/arrow_of_time/pictures/S_yt-isJga8ec5UM_32.png	512.87134350001	
48	494.9756972079922	picture	0		173	46.0	/Users/shufanzhang/Documents/PhD/Arrow_of_time/arrow_of_time/pictures/n09288635_24719.JPEG	512.8892883329972	1.4828423330036458
48	496.4437958329945	response	0	k		46.0	/Users/shufanzhang/Documents/PhD/Arrow_of_time/arrow_of_time/pictures/n09288635_24719.JPEG	514.3573869579996	
49	496.45853954099584	picture	0		106	47.0	/Users/shufanzhang/Documents/PhD/Arrow_of_time/arrow_of_time/pictures/S_yt-3E02UEHdoZ4_752.png	514.3721306660009	0.9213384589966154
49	497.3636574999982	response	0	j		47.0	/Users/shufanzhang/Documents/PhD/Arrow_of_time/arrow_of_time/pictures/S_yt-3E02UEHdoZ4_752.png	515.2772486250033	
50	497.37987799999246	picture	0		111	48.0	/Users/shufanzhang/Documents/PhD/Arrow_of_time/arrow_of_time/pictures/R_S_ILSVRC2015_train_00165009.png	515.2934691249975	0.9609870830026921
50	498.32617291600036	response	0	j		48.0	/Users/shufanzhang/Documents/PhD/Arrow_of_time/arrow_of_time/pictures/R_S_ILSVRC2015_train_00165009.png	516.2397640410054	
51	498.34086508299515	picture	0		622	49.0	/Users/shufanzhang/Documents/PhD/Arrow_of_time/arrow_of_time/pictures/S_yt-iiGwN9FQrZo_1.png	516.2544562080002	5.266877750007552
51	503.59349400000065	response	0	k		49.0	/Users/shufanzhang/Documents/PhD/Arrow_of_time/arrow_of_time/pictures/S_yt-iiGwN9FQrZo_1.png	521.5070851250057	
52	503.6077428330027	picture	0		123	50.0	/Users/shufanzhang/Documents/PhD/Arrow_of_time/arrow_of_time/pictures/n03759954_13181.JPEG	521.5213339580077	1.0607904999924358
52	504.6544524579949	response	0	k		50.0	/Users/shufanzhang/Documents/PhD/Arrow_of_time/arrow_of_time/pictures/n03759954_13181.JPEG	522.568043583	
53	504.66853333299514	picture	0		95	51.0	/Users/shufanzhang/Documents/PhD/Arrow_of_time/arrow_of_time/pictures/S_pexels-cottonbro-5310858.png	522.5821244580002	0.8315756250085542
53	505.4863599160017	response	0	j		51.0	/Users/shufanzhang/Documents/PhD/Arrow_of_time/arrow_of_time/pictures/S_pexels-cottonbro-5310858.png	523.3999510410067	
54	505.5001089580037	picture	0		155	52.0	/Users/shufanzhang/Documents/PhD/Arrow_of_time/arrow_of_time/pictures/S_yt-5zcm2aYFYHw_49.png	523.4137000830087	1.325978832988767
54	506.8116638749925	response	0	k		52.0	/Users/shufanzhang/Documents/PhD/Arrow_of_time/arrow_of_time/pictures/S_yt-5zcm2aYFYHw_49.png	524.7252549999976	
55	506.82608779099246	picture	0		340	53.0	/Users/shufanzhang/Documents/PhD/Arrow_of_time/arrow_of_time/pictures/S_production_ID_4820331.png	524.7396789159975	2.8827981670037843
55	509.69918879099714	response	0	k		53.0	/Users/shufanzhang/Documents/PhD/Arrow_of_time/arrow_of_time/pictures/S_production_ID_4820331.png	527.6127799160022	
56	509.70888595799624	picture	0		94	54.0	/Users/shufanzhang/Documents/PhD/Arrow_of_time/arrow_of_time/pictures/S_yt-Bx2kLEUuN0E_456.png	527.6224770830013	0.8356235420069424
56	510.5291578329925	response	0	j		54.0	/Users/shufanzhang/Documents/PhD/Arrow_of_time/arrow_of_time/pictures/S_yt-Bx2kLEUuN0E_456.png	528.4427489579975	
57	510.5445095000032	picture	0		125	55.0	/Users/shufanzhang/Documents/PhD/Arrow_of_time/arrow_of_time/pictures/n02134084_2844.JPEG	528.4581006250082	1.0739231249899603
57	511.60226408300514	response	0	k		55.0	/Users/shufanzhang/Documents/PhD/Arrow_of_time/arrow_of_time/pictures/n02134084_2844.JPEG	529.5158552080102	
58	511.61843262499315	picture	0		86	56.0	/Users/shufanzhang/Documents/PhD/Arrow_of_time/arrow_of_time/pictures/S_comp_DB_D002_C003_PSNK_v04_SDR_PS_20180914_SDR_2K_AVC.png	529.5320237499982	0.7651965410041157
58	512.369579708	response	0	j		56.0	/Users/shufanzhang/Documents/PhD/Arrow_of_time/arrow_of_time/pictures/S_comp_DB_D002_C003_PSNK_v04_SDR_PS_20180914_SDR_2K_AVC.png	530.283170833005	
59	512.3836291659973	picture	0		116	57.0	/Users/shufanzhang/Documents/PhD/Arrow_of_time/arrow_of_time/pictures/S_yt-GjFQxAklviE_25.png	530.2972202910023	1.0029794169968227
59	513.3735186660051	response	0	j		57.0	/Users/shufanzhang/Documents/PhD/Arrow_of_time/arrow_of_time/pictures/S_yt-GjFQxAklviE_25.png	531.2871097910102	
60	513.3866085829941	picture	0		123	58.0	/Users/shufanzhang/Documents/PhD/Arrow_of_time/arrow_of_time/pictures/S_ILSVRC2015_train_00689000.png	531.3001997079991	1.052863625009195
60	514.427195790995	response	0	j		58.0	/Users/shufanzhang/Documents/PhD/Arrow_of_time/arrow_of_time/pictures/S_ILSVRC2015_train_00689000.png	532.3407869160001	
61	514.4394722080033	picture	0		108	59.0	/Users/shufanzhang/Documents/PhD/Arrow_of_time/arrow_of_time/pictures/n01630670_5687.JPEG	532.3530633330083	0.9213292919885134
61	515.3543899579963	response	0	k		59.0	/Users/shufanzhang/Documents/PhD/Arrow_of_time/arrow_of_time/pictures/n01630670_5687.JPEG	533.2679810830014	
62	515.3608014999918	picture	0		192	60.0	/Users/shufanzhang/Documents/PhD/Arrow_of_time/arrow_of_time/pictures/S_yt-ZPRkoZyAmfg_35.png	533.2743926249968	1.6395537909993436
62	516.9872115409962	response	0	k		60.0	/Users/shufanzhang/Documents/PhD/Arrow_of_time/arrow_of_time/pictures/S_yt-ZPRkoZyAmfg_35.png	534.9008026660013	
63	517.0003552909911	picture	0		93	61.0	/Users/shufanzhang/Documents/PhD/Arrow_of_time/arrow_of_time/pictures/S_yt-n_eO-7KedAE_21.png	534.9139464159962	0.8489329170115525
63	517.8337009579991	response	0	j		61.0	/Users/shufanzhang/Documents/PhD/Arrow_of_time/arrow_of_time/pictures/S_yt-n_eO-7KedAE_21.png	535.7472920830041	
64	517.8492882080027	picture	0		123	62.0	/Users/shufanzhang/Documents/PhD/Arrow_of_time/arrow_of_time/pictures/R_S_yt-ThT8utBaywI_68.png	535.7628793330077	1.1139419999963138
64	518.9494036249962	response	0	j		62.0	/Users/shufanzhang/Documents/PhD/Arrow_of_time/arrow_of_time/pictures/R_S_yt-ThT8utBaywI_68.png	536.8629947500012	
65	518.963230207999	picture	0		126	63.0	/Users/shufanzhang/Documents/PhD/Arrow_of_time/arrow_of_time/pictures/n02701002_23190.JPEG	536.876821333004	1.0927772919967538
65	520.0424597910023	response	0	k		63.0	/Users/shufanzhang/Documents/PhD/Arrow_of_time/arrow_of_time/pictures/n02701002_23190.JPEG	537.9560509160074	
66	520.0560074999958	picture	0		98	64.0	/Users/shufanzhang/Documents/PhD/Arrow_of_time/arrow_of_time/pictures/R_S_yt-sTBOjPxix5c_1072.png	537.9695986250008	0.8591624580003554
66	520.9000789999991	response	0	j		64.0	/Users/shufanzhang/Documents/PhD/Arrow_of_time/arrow_of_time/pictures/R_S_yt-sTBOjPxix5c_1072.png	538.8136701250041	
67	520.9151699579961	picture	0		147	65.0	/Users/shufanzhang/Documents/PhD/Arrow_of_time/arrow_of_time/pictures/R_S_yt-RlHmMGUjT9E_130.png	538.8287610830012	1.2700775830016937
67	522.1703102500032	response	0	j		65.0	/Users/shufanzhang/Documents/PhD/Arrow_of_time/arrow_of_time/pictures/R_S_yt-RlHmMGUjT9E_130.png	540.0839013750083	
68	522.1852475409978	picture	0		82	66.0	/Users/shufanzhang/Documents/PhD/Arrow_of_time/arrow_of_time/pictures/n02808304_4255.JPEG	540.0988386660028	0.7122982919972856
68	522.882880582998	response	0	k		66.0	/Users/shufanzhang/Documents/PhD/Arrow_of_time/arrow_of_time/pictures/n02808304_4255.JPEG	540.7964717080031	
69	522.8975458329951	picture	0		123	67.0	/Users/shufanzhang/Documents/PhD/Arrow_of_time/arrow_of_time/pictures/S_Roller_Coaster.png	540.8111369580001	1.0915010000026086
69	523.9733137080038	response	0	k		67.0	/Users/shufanzhang/Documents/PhD/Arrow_of_time/arrow_of_time/pictures/S_Roller_Coaster.png	541.8869048330089	
70	523.9890468329977	picture	0		115	68.0	/Users/shufanzhang/Documents/PhD/Arrow_of_time/arrow_of_time/pictures/n09468604_17339.JPEG	541.9026379580027	1.19597679200524
70	525.1719818749989	response	0	k		68.0	/Users/shufanzhang/Documents/PhD/Arrow_of_time/arrow_of_time/pictures/n09468604_17339.JPEG	543.0855730000039	
71	525.1850236250029	picture	0		121	69.0	/Users/shufanzhang/Documents/PhD/Arrow_of_time/arrow_of_time/pictures/S_yt-VjTiMtjdjTw_103.png	543.098614750008	1.0310243330022786
71	526.2026443749928	response	0	k		69.0	/Users/shufanzhang/Documents/PhD/Arrow_of_time/arrow_of_time/pictures/S_yt-VjTiMtjdjTw_103.png	544.1162354999979	
72	526.2160479580052	picture	0		210	70.0	/Users/shufanzhang/Documents/PhD/Arrow_of_time/arrow_of_time/pictures/n03126707_2670.JPEG	544.1296390830103	1.7843947499932256
72	527.986811625	response	0	k		70.0	/Users/shufanzhang/Documents/PhD/Arrow_of_time/arrow_of_time/pictures/n03126707_2670.JPEG	545.900402750005	
73	528.0004427079984	picture	0		105	71.0	/Users/shufanzhang/Documents/PhD/Arrow_of_time/arrow_of_time/pictures/R_S_yt-7WYXuBHeorw_188.png	545.9140338330035	0.9738040829979582
73	528.9603822909994	response	0	j		71.0	/Users/shufanzhang/Documents/PhD/Arrow_of_time/arrow_of_time/pictures/R_S_yt-7WYXuBHeorw_188.png	546.8739734160044	
74	528.9742467909964	picture	0		89	72.0	/Users/shufanzhang/Documents/PhD/Arrow_of_time/arrow_of_time/pictures/n02027492_526.JPEG	546.8878379160014	0.7843397920078132
74	529.7438850829931	response	0	k		72.0	/Users/shufanzhang/Documents/PhD/Arrow_of_time/arrow_of_time/pictures/n02027492_526.JPEG	547.6574762079981	
75	529.7585865830042	picture	0		158	73.0	/Users/shufanzhang/Documents/PhD/Arrow_of_time/arrow_of_time/pictures/R_S_yt-XF0fyyFEgWo_280.png	547.6721777080093	1.3587409999890951
75	531.0990731659986	response	0	k		73.0	/Users/shufanzhang/Documents/PhD/Arrow_of_time/arrow_of_time/pictures/R_S_yt-XF0fyyFEgWo_280.png	549.0126642910036	
76	531.1173275829933	picture	0		323	74.0	/Users/shufanzhang/Documents/PhD/Arrow_of_time/arrow_of_time/pictures/n03967562_4179.JPEG	549.0309187079984	2.739637542006676
76	533.8425664160022	response	0	k		74.0	/Users/shufanzhang/Documents/PhD/Arrow_of_time/arrow_of_time/pictures/n03967562_4179.JPEG	551.7561575410073	
77	533.856965125	picture	0		89	75.0	/Users/shufanzhang/Documents/PhD/Arrow_of_time/arrow_of_time/pictures/S_production_ID_4707837.png	551.770556250005	0.7755687079916243
77	534.618789250002	response	0	j		75.0	/Users/shufanzhang/Documents/PhD/Arrow_of_time/arrow_of_time/pictures/S_production_ID_4707837.png	552.532380375007	
78	534.6325338329916	picture	0		123	76.0	/Users/shufanzhang/Documents/PhD/Arrow_of_time/arrow_of_time/pictures/R_S_yt-KpOAdMtPGFs_17.png	552.5461249579967	1.1375520000001416
78	535.753664082993	response	0	j		76.0	/Users/shufanzhang/Documents/PhD/Arrow_of_time/arrow_of_time/pictures/R_S_yt-KpOAdMtPGFs_17.png	553.6672552079981	
79	535.7700858329918	picture	0		94	77.0	/Users/shufanzhang/Documents/PhD/Arrow_of_time/arrow_of_time/pictures/n03447721_6651.JPEG	553.6836769579968	0.7991972080053529
79	536.5521821659931	response	0	k		77.0	/Users/shufanzhang/Documents/PhD/Arrow_of_time/arrow_of_time/pictures/n03447721_6651.JPEG	554.4657732909982	
80	536.5692830409971	picture	0		136	78.0	/Users/shufanzhang/Documents/PhD/Arrow_of_time/arrow_of_time/pictures/S_video_inspire_texas_austin_oct2019_evening_00085.png	554.4828741660021	1.1672609170054784
80	537.7229082910053	response	0	j		78.0	/Users/shufanzhang/Documents/PhD/Arrow_of_time/arrow_of_time/pictures/S_video_inspire_texas_austin_oct2019_evening_00085.png	555.6364994160103	
81	537.7365439580026	picture	0		125	79.0	/Users/shufanzhang/Documents/PhD/Arrow_of_time/arrow_of_time/pictures/R_S_yt-R-SETZtYWaA_336.png	555.6501350830076	1.094953166990308
81	538.8106124159967	response	0	j		79.0	/Users/shufanzhang/Documents/PhD/Arrow_of_time/arrow_of_time/pictures/R_S_yt-R-SETZtYWaA_336.png	556.7242035410018	
82	538.8314971249929	picture	0		132	80.0	/Users/shufanzhang/Documents/PhD/Arrow_of_time/arrow_of_time/pictures/n03733281_29174.JPEG	556.7450882499979	1.1395313329994678
82	539.956884165993	response	0	k		80.0	/Users/shufanzhang/Documents/PhD/Arrow_of_time/arrow_of_time/pictures/n03733281_29174.JPEG	557.870475290998	
83	539.9710284579924	picture	0		180	81.0	/Users/shufanzhang/Documents/PhD/Arrow_of_time/arrow_of_time/pictures/R_S_wc-jujp1kJRHrkJ_54.png	557.8846195829974	1.5298522080120165
83	541.4881927910028	response	0	j		81.0	/Users/shufanzhang/Documents/PhD/Arrow_of_time/arrow_of_time/pictures/R_S_wc-jujp1kJRHrkJ_54.png	559.4017839160078	
84	541.5008806660044	picture	0		136	82.0	/Users/shufanzhang/Documents/PhD/Arrow_of_time/arrow_of_time/pictures/R_S_yt-Fm97IY0Z2LU_110.png	559.4144717910094	1.1702478749939473
84	542.6561402910011	response	0	j		82.0	/Users/shufanzhang/Documents/PhD/Arrow_of_time/arrow_of_time/pictures/R_S_yt-Fm97IY0Z2LU_110.png	560.5697314160061	
85	542.6711285409983	picture	0		114	83.0	/Users/shufanzhang/Documents/PhD/Arrow_of_time/arrow_of_time/pictures/S_pexels-mikhail-nilov-8410084.png	560.5847196660034	0.992590833993745
85	543.6466139160038	response	0	j		83.0	/Users/shufanzhang/Documents/PhD/Arrow_of_time/arrow_of_time/pictures/S_pexels-mikhail-nilov-8410084.png	561.5602050410089	
86	543.6637193749921	picture	0		150	84.0	/Users/shufanzhang/Documents/PhD/Arrow_of_time/arrow_of_time/pictures/n01737021_18954.JPEG	561.5773104999971	1.2952495000063209
86	544.9437105410034	response	0	k		84.0	/Users/shufanzhang/Documents/PhD/Arrow_of_time/arrow_of_time/pictures/n01737021_18954.JPEG	562.8573016660084	
87	544.9589688749984	picture	0		877	85.0	/Users/shufanzhang/Documents/PhD/Arrow_of_time/arrow_of_time/pictures/n09256479_4321.JPEG	562.8725600000034	7.344801832994563
87	552.2900102499989	response	0	j		85.0	/Users/shufanzhang/Documents/PhD/Arrow_of_time/arrow_of_time/pictures/n09256479_4321.JPEG	570.2036013750039	
88	552.303770707993	picture	0		110	86.0	/Users/shufanzhang/Documents/PhD/Arrow_of_time/arrow_of_time/pictures/S_yt-9EnchawJ3pA_90.png	570.217361832998	0.9528791250049835
88	553.2419291660044	response	0	j		86.0	/Users/shufanzhang/Documents/PhD/Arrow_of_time/arrow_of_time/pictures/S_yt-9EnchawJ3pA_90.png	571.1555202910095	
89	553.2566498329979	picture	0		105	87.0	/Users/shufanzhang/Documents/PhD/Arrow_of_time/arrow_of_time/pictures/S_yt-EAMpitsjbbA_153.png	571.170240958003	0.9167051249969518
89	554.1578255829954	response	0	j		87.0	/Users/shufanzhang/Documents/PhD/Arrow_of_time/arrow_of_time/pictures/S_yt-EAMpitsjbbA_153.png	572.0714167080005	
90	554.1733549579949	picture	0		116	88.0	/Users/shufanzhang/Documents/PhD/Arrow_of_time/arrow_of_time/pictures/n02101556_5243.JPEG	572.0869460829999	1.0067063750029774
90	555.1655093750014	response	0	k		88.0	/Users/shufanzhang/Documents/PhD/Arrow_of_time/arrow_of_time/pictures/n02101556_5243.JPEG	573.0791005000065	
91	555.1800613329979	picture	0		107	89.0	/Users/shufanzhang/Documents/PhD/Arrow_of_time/arrow_of_time/pictures/R_S_yt-22c5eZ1UNME_76.png	573.0936524580029	0.9307287499977974
91	556.097061833003	response	0	j		89.0	/Users/shufanzhang/Documents/PhD/Arrow_of_time/arrow_of_time/pictures/R_S_yt-22c5eZ1UNME_76.png	574.010652958008	
92	556.1107900829957	picture	0		112	90.0	/Users/shufanzhang/Documents/PhD/Arrow_of_time/arrow_of_time/pictures/n02403003_6124.JPEG	574.0243812080007	0.9727576250006678
92	557.0678933750023	response	0	k		90.0	/Users/shufanzhang/Documents/PhD/Arrow_of_time/arrow_of_time/pictures/n02403003_6124.JPEG	574.9814845000074	
93	557.0835477079963	picture	0		110	91.0	/Users/shufanzhang/Documents/PhD/Arrow_of_time/arrow_of_time/pictures/S_ILSVRC2015_train_00425000.png	574.9971388330014	0.9709689580049599
93	558.0327977080015	response	0	j		91.0	/Users/shufanzhang/Documents/PhD/Arrow_of_time/arrow_of_time/pictures/S_ILSVRC2015_train_00425000.png	575.9463888330065	
94	558.0545166660013	picture	0		102	92.0	/Users/shufanzhang/Documents/PhD/Arrow_of_time/arrow_of_time/pictures/n03838899_21453.JPEG	575.9681077910063	0.8895664589945227
94	558.928982707992	response	0	k		92.0	/Users/shufanzhang/Documents/PhD/Arrow_of_time/arrow_of_time/pictures/n03838899_21453.JPEG	576.842573832997	
95	558.9440831249958	picture	0		100	93.0	/Users/shufanzhang/Documents/PhD/Arrow_of_time/arrow_of_time/pictures/R_S_comp_DB_D002_C003_PSNK_v04_SDR_PS_20180914_SDR_2K_AVC.png	576.8576742500009	0.8815363330068067
95	559.8038795829925	response	0	j		93.0	/Users/shufanzhang/Documents/PhD/Arrow_of_time/arrow_of_time/pictures/R_S_comp_DB_D002_C003_PSNK_v04_SDR_PS_20180914_SDR_2K_AVC.png	577.7174707079976	
96	559.8256194580026	picture	0		123	94.0	/Users/shufanzhang/Documents/PhD/Arrow_of_time/arrow_of_time/pictures/n02667093_5587.JPEG	577.7392105830077	1.0578712499991525
96	560.8687078329967	response	0	k		94.0	/Users/shufanzhang/Documents/PhD/Arrow_of_time/arrow_of_time/pictures/n02667093_5587.JPEG	578.7822989580018	
97	560.8834907080018	picture	0		145	95.0	/Users/shufanzhang/Documents/PhD/Arrow_of_time/arrow_of_time/pictures/S_yt-Oxu6w0Zx9dQ_3.png	578.7970818330068	1.2457216670009075
97	562.1161960829922	response	0	k		95.0	/Users/shufanzhang/Documents/PhD/Arrow_of_time/arrow_of_time/pictures/S_yt-Oxu6w0Zx9dQ_3.png	580.0297872079973	
98	562.1292123750027	picture	0		90	96.0	/Users/shufanzhang/Documents/PhD/Arrow_of_time/arrow_of_time/pictures/S_b3TCugtX0h0_108.png	580.0428035000077	0.7822995829919819
98	562.8967954999971	response	0	j		96.0	/Users/shufanzhang/Documents/PhD/Arrow_of_time/arrow_of_time/pictures/S_b3TCugtX0h0_108.png	580.8103866250021	
99	562.9115119579947	picture	0		136	97.0	/Users/shufanzhang/Documents/PhD/Arrow_of_time/arrow_of_time/pictures/S_SE_A016_C009_SDR_20190717_SDR_2K_AVC.png	580.8251030829997	1.1699081249971641
99	564.0678126249986	response	0	k		97.0	/Users/shufanzhang/Documents/PhD/Arrow_of_time/arrow_of_time/pictures/S_SE_A016_C009_SDR_20190717_SDR_2K_AVC.png	581.9814037500037	
100	564.0814200829918	picture	0		113	98.0	/Users/shufanzhang/Documents/PhD/Arrow_of_time/arrow_of_time/pictures/n01978455_4275.JPEG	581.9950112079969	0.9823759170103585
100	565.0461810410052	response	0	k		98.0	/Users/shufanzhang/Documents/PhD/Arrow_of_time/arrow_of_time/pictures/n01978455_4275.JPEG	582.9597721660102	
101	565.0637960000022	picture	0		97	99.0	/Users/shufanzhang/Documents/PhD/Arrow_of_time/arrow_of_time/pictures/n04026417_2612.JPEG	582.9773871250072	0.8480354999919655
101	565.8948680409958	response	0	k		99.0	/Users/shufanzhang/Documents/PhD/Arrow_of_time/arrow_of_time/pictures/n04026417_2612.JPEG	583.8084591660008	
102	565.9118314999942	picture	0		118	100.0	/Users/shufanzhang/Documents/PhD/Arrow_of_time/arrow_of_time/pictures/n01860187_6680.JPEG	583.8254226249992	1.0229490000056103
102	566.9201030830009	response	0	k		100.0	/Users/shufanzhang/Documents/PhD/Arrow_of_time/arrow_of_time/pictures/n01860187_6680.JPEG	584.8336942080059	
103	566.9347804999998	picture	0		200	101.0	/Users/shufanzhang/Documents/PhD/Arrow_of_time/arrow_of_time/pictures/R_S_yt-ejSzwn8tY8g_49.png	584.8483716250048	1.6883818329952192
103	568.6084269580024	response	0	j		101.0	/Users/shufanzhang/Documents/PhD/Arrow_of_time/arrow_of_time/pictures/R_S_yt-ejSzwn8tY8g_49.png	586.5220180830074	
104	568.623162332995	picture	0		554	102.0	/Users/shufanzhang/Documents/PhD/Arrow_of_time/arrow_of_time/pictures/n03888605_32925.JPEG	586.536753458	4.677919624999049
104	573.286918333004	response	0	k		102.0	/Users/shufanzhang/Documents/PhD/Arrow_of_time/arrow_of_time/pictures/n03888605_32925.JPEG	591.200509458009	
105	573.301081957994	picture	0		99	103.0	/Users/shufanzhang/Documents/PhD/Arrow_of_time/arrow_of_time/pictures/n03982430_519.JPEG	591.2146730829991	0.8516280830081087
105	574.1386203330039	response	0	k		103.0	/Users/shufanzhang/Documents/PhD/Arrow_of_time/arrow_of_time/pictures/n03982430_519.JPEG	592.052211458009	
106	574.1527100410021	picture	0		119	104.0	/Users/shufanzhang/Documents/PhD/Arrow_of_time/arrow_of_time/pictures/S_Pexels_Videos_2791797.png	592.0663011660072	1.013102541997796
106	575.1504915410042	response	0	k		104.0	/Users/shufanzhang/Documents/PhD/Arrow_of_time/arrow_of_time/pictures/S_Pexels_Videos_2791797.png	593.0640826660092	
107	575.1658125829999	picture	0		98	105.0	/Users/shufanzhang/Documents/PhD/Arrow_of_time/arrow_of_time/pictures/n04238763_6377.JPEG	593.079403708005	0.8390433750028023
107	575.9907819579967	response	0	k		105.0	/Users/shufanzhang/Documents/PhD/Arrow_of_time/arrow_of_time/pictures/n04238763_6377.JPEG	593.9043730830017	
108	576.0048559580027	picture	0		81	106.0	/Users/shufanzhang/Documents/PhD/Arrow_of_time/arrow_of_time/pictures/n02058221_3542.JPEG	593.9184470830078	0.7339624579908559
108	576.7272070829931	response	0	k		106.0	/Users/shufanzhang/Documents/PhD/Arrow_of_time/arrow_of_time/pictures/n02058221_3542.JPEG	594.6407982079982	
109	576.7388184159936	picture	0		165	107.0	/Users/shufanzhang/Documents/PhD/Arrow_of_time/arrow_of_time/pictures/n13052670_922.JPEG	594.6524095409986	1.4251894170010928
109	578.1512503330014	response	0	k		107.0	/Users/shufanzhang/Documents/PhD/Arrow_of_time/arrow_of_time/pictures/n13052670_922.JPEG	596.0648414580064	
110	578.1640078329947	picture	0		107	108.0	/Users/shufanzhang/Documents/PhD/Arrow_of_time/arrow_of_time/pictures/n04147183_33318.JPEG	596.0775989579997	0.9165034580073552
110	579.0669770410022	response	0	k		108.0	/Users/shufanzhang/Documents/PhD/Arrow_of_time/arrow_of_time/pictures/n04147183_33318.JPEG	596.9805681660073	
111	579.080511291002	picture	0		337	109.0	/Users/shufanzhang/Documents/PhD/Arrow_of_time/arrow_of_time/pictures/S_yt-bWXohhodbjg_86.png	596.9941024160071	2.834539167000912
111	581.8935704579926	response	0	k		109.0	/Users/shufanzhang/Documents/PhD/Arrow_of_time/arrow_of_time/pictures/S_yt-bWXohhodbjg_86.png	599.8071615829977	
112	581.915050458003	picture	0		103	110.0	/Users/shufanzhang/Documents/PhD/Arrow_of_time/arrow_of_time/pictures/n01664065_25400.JPEG	599.828641583008	0.8698173750017304
112	582.7702370000043	response	0	k		110.0	/Users/shufanzhang/Documents/PhD/Arrow_of_time/arrow_of_time/pictures/n01664065_25400.JPEG	600.6838281250093	
113	582.7848678330047	picture	0		105	111.0	/Users/shufanzhang/Documents/PhD/Arrow_of_time/arrow_of_time/pictures/n02492035_9172.JPEG	600.6984589580097	0.89698683298775
113	583.6656911659957	response	0	k		111.0	/Users/shufanzhang/Documents/PhD/Arrow_of_time/arrow_of_time/pictures/n02492035_9172.JPEG	601.5792822910007	
114	583.6818546659924	picture	0		87	112.0	/Users/shufanzhang/Documents/PhD/Arrow_of_time/arrow_of_time/pictures/n03272010_433.JPEG	601.5954457909975	0.8752835839986801
114	584.5420833749959	response	0	k		112.0	/Users/shufanzhang/Documents/PhD/Arrow_of_time/arrow_of_time/pictures/n03272010_433.JPEG	602.4556745000009	
115	584.5571382499911	picture	0		126	113.0	/Users/shufanzhang/Documents/PhD/Arrow_of_time/arrow_of_time/pictures/S_yt-OdTWn1U1mO4_68.png	602.4707293749962	1.0942604160081828
115	585.6395260830031	response	0	k		113.0	/Users/shufanzhang/Documents/PhD/Arrow_of_time/arrow_of_time/pictures/S_yt-OdTWn1U1mO4_68.png	603.5531172080082	
116	585.6513986659993	picture	0		102	114.0	/Users/shufanzhang/Documents/PhD/Arrow_of_time/arrow_of_time/pictures/n03891251_7465.JPEG	603.5649897910043	0.8977584170061164
116	586.5319953750004	response	0	k		114.0	/Users/shufanzhang/Documents/PhD/Arrow_of_time/arrow_of_time/pictures/n03891251_7465.JPEG	604.4455865000054	
117	586.5491570830054	picture	0		124	115.0	/Users/shufanzhang/Documents/PhD/Arrow_of_time/arrow_of_time/pictures/n03196217_3605.JPEG	604.4627482080105	1.0510779999895021
117	587.5862706659973	response	0	k		115.0	/Users/shufanzhang/Documents/PhD/Arrow_of_time/arrow_of_time/pictures/n03196217_3605.JPEG	605.4998617910023	
118	587.6002350829949	picture	0		636	116.0	/Users/shufanzhang/Documents/PhD/Arrow_of_time/arrow_of_time/pictures/R_S_yt-YeT4acsbqok_210.png	605.513826208	5.33067850000225
118	592.9158500000049	response	0	j		116.0	/Users/shufanzhang/Documents/PhD/Arrow_of_time/arrow_of_time/pictures/R_S_yt-YeT4acsbqok_210.png	610.8294411250099	
119	592.9309135829972	picture	0		129	117.0	/Users/shufanzhang/Documents/PhD/Arrow_of_time/arrow_of_time/pictures/S_comp_CH_C002_C005_PSNK_v05_SDR_PS_FINAL_20180709_SDR_2K_AVC.png	610.8445047080022	1.0847853330051294
119	594.0027081659937	response	0	j		117.0	/Users/shufanzhang/Documents/PhD/Arrow_of_time/arrow_of_time/pictures/S_comp_CH_C002_C005_PSNK_v05_SDR_PS_FINAL_20180709_SDR_2K_AVC.png	611.9162992909987	
120	594.0156989160023	picture	0		319	118.0	/Users/shufanzhang/Documents/PhD/Arrow_of_time/arrow_of_time/pictures/R_S_yt-BAQ3Xhm_PPE_23.png	611.9292900410073	2.6833087089908076
120	596.6814658749936	response	0	j		118.0	/Users/shufanzhang/Documents/PhD/Arrow_of_time/arrow_of_time/pictures/R_S_yt-BAQ3Xhm_PPE_23.png	614.5950569999986	
121	596.6990076249931	picture	0		410	119.0	/Users/shufanzhang/Documents/PhD/Arrow_of_time/arrow_of_time/pictures/n03673027_12357.JPEG	614.6125987499981	3.4760482080018846
121	600.1578953749995	response	0	k		119.0	/Users/shufanzhang/Documents/PhD/Arrow_of_time/arrow_of_time/pictures/n03673027_12357.JPEG	618.0714865000045	
122	600.175055832995	picture	0		109	120.0	/Users/shufanzhang/Documents/PhD/Arrow_of_time/arrow_of_time/pictures/n02018795_6999.JPEG	618.088646958	0.9218653749994701
122	601.0816926660045	response	0	k		120.0	/Users/shufanzhang/Documents/PhD/Arrow_of_time/arrow_of_time/pictures/n02018795_6999.JPEG	618.9952837910096	
123	601.0969212079945	picture	0		146	121.0	/Users/shufanzhang/Documents/PhD/Arrow_of_time/arrow_of_time/pictures/n02641379_39329.JPEG	619.0105123329995	1.2960283330030506
123	602.3794598329987	response	0	k		121.0	/Users/shufanzhang/Documents/PhD/Arrow_of_time/arrow_of_time/pictures/n02641379_39329.JPEG	620.2930509580037	
124	602.3929495409975	picture	0		266	122.0	/Users/shufanzhang/Documents/PhD/Arrow_of_time/arrow_of_time/pictures/S_yt-wrfAMDCg93Y_8.png	620.3065406660025	2.2301901250029914
124	604.6083424160024	response	0	k		122.0	/Users/shufanzhang/Documents/PhD/Arrow_of_time/arrow_of_time/pictures/S_yt-wrfAMDCg93Y_8.png	622.5219335410075	
125	604.6231396660005	picture	0		128	123.0	/Users/shufanzhang/Documents/PhD/Arrow_of_time/arrow_of_time/pictures/n07716358_34784.JPEG	622.5367307910055	1.1037622919975547
125	605.7142909999966	response	0	k		123.0	/Users/shufanzhang/Documents/PhD/Arrow_of_time/arrow_of_time/pictures/n07716358_34784.JPEG	623.6278821250016	
126	605.726901957998	picture	0		88	124.0	/Users/shufanzhang/Documents/PhD/Arrow_of_time/arrow_of_time/pictures/S_ILSVRC2015_train_00584001.png	623.6404930830031	0.7504826670046896
126	606.4644600000029	response	0	k		124.0	/Users/shufanzhang/Documents/PhD/Arrow_of_time/arrow_of_time/pictures/S_ILSVRC2015_train_00584001.png	624.3780511250079	
127	606.4773846250027	picture	0		316	125.0	/Users/shufanzhang/Documents/PhD/Arrow_of_time/arrow_of_time/pictures/S_ILSVRC2015_train_00762000.png	624.3909757500078	2.6512628329946892
127	609.1173718749924	response	0	j		125.0	/Users/shufanzhang/Documents/PhD/Arrow_of_time/arrow_of_time/pictures/S_ILSVRC2015_train_00762000.png	627.0309629999974	
128	609.1286474579974	picture	0		118	126.0	/Users/shufanzhang/Documents/PhD/Arrow_of_time/arrow_of_time/pictures/S_yt-F2x6e7e7cAE_70.png	627.0422385830025	1.003809874993749
128	610.1178889580042	response	0	j		126.0	/Users/shufanzhang/Documents/PhD/Arrow_of_time/arrow_of_time/pictures/S_yt-F2x6e7e7cAE_70.png	628.0314800830092	
129	610.1324573329912	picture	0		91	127.0	/Users/shufanzhang/Documents/PhD/Arrow_of_time/arrow_of_time/pictures/S_pexels-tima-miroshnichenko-8724308.png	628.0460484579962	0.783072500009439
129	610.9028488329932	response	0	j		127.0	/Users/shufanzhang/Documents/PhD/Arrow_of_time/arrow_of_time/pictures/S_pexels-tima-miroshnichenko-8724308.png	628.8164399579982	
130	610.9155298330006	picture	0		72	128.0	/Users/shufanzhang/Documents/PhD/Arrow_of_time/arrow_of_time/pictures/R_S_yt-LUIvP_NDWAs_45.png	628.8291209580057	0.7667099999962375
130	611.6756569159916	response	0	j		128.0	/Users/shufanzhang/Documents/PhD/Arrow_of_time/arrow_of_time/pictures/R_S_yt-LUIvP_NDWAs_45.png	629.5892480409966	
131	611.6822398329969	picture	0		207	129.0	/Users/shufanzhang/Documents/PhD/Arrow_of_time/arrow_of_time/pictures/ILSVRC2012_test_00088583.JPEG	629.5958309580019	1.7516719169943826
131	613.419091082993	response	0	k		129.0	/Users/shufanzhang/Documents/PhD/Arrow_of_time/arrow_of_time/pictures/ILSVRC2012_test_00088583.JPEG	631.332682207998	
132	613.4339117499912	picture	0		280	130.0	/Users/shufanzhang/Documents/PhD/Arrow_of_time/arrow_of_time/pictures/n09246464_16480.JPEG	631.3475028749963	2.3502691250032512
132	615.769378500001	response	0	k		130.0	/Users/shufanzhang/Documents/PhD/Arrow_of_time/arrow_of_time/pictures/n09246464_16480.JPEG	633.6829696250061	
133	615.7841808749945	picture	0		136	131.0	/Users/shufanzhang/Documents/PhD/Arrow_of_time/arrow_of_time/pictures/R_S_Person_Going_Through_A_Bible.png	633.6977719999995	1.159196000007796
133	616.930488375001	response	0	j		131.0	/Users/shufanzhang/Documents/PhD/Arrow_of_time/arrow_of_time/pictures/R_S_Person_Going_Through_A_Bible.png	634.844079500006	
134	616.9433768750023	picture	0		92	132.0	/Users/shufanzhang/Documents/PhD/Arrow_of_time/arrow_of_time/pictures/R_S_yt-n_eO-7KedAE_21.png	634.8569680000073	0.7922755409963429
134	617.7234211659961	response	0	j		132.0	/Users/shufanzhang/Documents/PhD/Arrow_of_time/arrow_of_time/pictures/R_S_yt-n_eO-7KedAE_21.png	635.6370122910012	
135	617.7356524159986	picture	0		286	133.0	/Users/shufanzhang/Documents/PhD/Arrow_of_time/arrow_of_time/pictures/n12985857_1847.JPEG	635.6492435410037	2.430767333993572
135	620.1528424999997	response	0	k		133.0	/Users/shufanzhang/Documents/PhD/Arrow_of_time/arrow_of_time/pictures/n12985857_1847.JPEG	638.0664336250047	
136	620.1664197499922	picture	0		230	134.0	/Users/shufanzhang/Documents/PhD/Arrow_of_time/arrow_of_time/pictures/S_yt-HPjLtkyzN3E_101.png	638.0800108749972	1.9411334160104161
136	622.0927505830041	response	0	k		134.0	/Users/shufanzhang/Documents/PhD/Arrow_of_time/arrow_of_time/pictures/S_yt-HPjLtkyzN3E_101.png	640.0063417080091	
137	622.1075531660026	picture	0		134	135.0	/Users/shufanzhang/Documents/PhD/Arrow_of_time/arrow_of_time/pictures/n04346328_7408.JPEG	640.0211442910077	1.1380264170002192
137	623.230962207992	response	0	k		135.0	/Users/shufanzhang/Documents/PhD/Arrow_of_time/arrow_of_time/pictures/n04346328_7408.JPEG	641.144553332997	
138	623.2455795830028	picture	0		94	136.0	/Users/shufanzhang/Documents/PhD/Arrow_of_time/arrow_of_time/pictures/S_flickr-southeasternstar-3464778323_10.png	641.1591707080079	0.8333573330019135
138	624.0660717499995	response	0	j		136.0	/Users/shufanzhang/Documents/PhD/Arrow_of_time/arrow_of_time/pictures/S_flickr-southeasternstar-3464778323_10.png	641.9796628750046	
139	624.0789369160047	picture	0		148	137.0	/Users/shufanzhang/Documents/PhD/Arrow_of_time/arrow_of_time/pictures/R_S_yt-7lULOC_rSE0_747.png	641.9925280410098	1.4510225839912891
139	625.5222993329953	response	0	j		137.0	/Users/shufanzhang/Documents/PhD/Arrow_of_time/arrow_of_time/pictures/R_S_yt-7lULOC_rSE0_747.png	643.4358904580004	
140	625.529959499996	picture	0		93	138.0	/Users/shufanzhang/Documents/PhD/Arrow_of_time/arrow_of_time/pictures/S_ILSVRC2015_train_00165009.png	643.4435506250011	0.8026144159957767
140	626.3193190409947	response	0	j		138.0	/Users/shufanzhang/Documents/PhD/Arrow_of_time/arrow_of_time/pictures/S_ILSVRC2015_train_00165009.png	644.2329101659998	
141	626.3325739159918	picture	0		441	139.0	/Users/shufanzhang/Documents/PhD/Arrow_of_time/arrow_of_time/pictures/S_yt-zh2yLr-o_8A_953.png	644.2461650409969	4.0223862920101965
141	630.3433212079981	response	0	j		139.0	/Users/shufanzhang/Documents/PhD/Arrow_of_time/arrow_of_time/pictures/S_yt-zh2yLr-o_8A_953.png	648.2569123330031	
142	630.354960208002	picture	0		277	140.0	/Users/shufanzhang/Documents/PhD/Arrow_of_time/arrow_of_time/pictures/n03796401_8058.JPEG	648.268551333007	2.336571041989373
142	632.676577708	response	0	k		140.0	/Users/shufanzhang/Documents/PhD/Arrow_of_time/arrow_of_time/pictures/n03796401_8058.JPEG	650.590168833005	
143	632.6915312499914	picture	0		93	141.0	/Users/shufanzhang/Documents/PhD/Arrow_of_time/arrow_of_time/pictures/ILSVRC2012_test_00033878.JPEG	650.6051223749964	0.7874324160075048
143	633.4649254579999	response	0	j		141.0	/Users/shufanzhang/Documents/PhD/Arrow_of_time/arrow_of_time/pictures/ILSVRC2012_test_00033878.JPEG	651.378516583005	
144	633.4789636659989	picture	0		224	142.0	/Users/shufanzhang/Documents/PhD/Arrow_of_time/arrow_of_time/pictures/S_yt-7W50lcw5FCo_37.png	651.3925547910039	2.1854576250043465
144	635.6485193749977	response	0	k		142.0	/Users/shufanzhang/Documents/PhD/Arrow_of_time/arrow_of_time/pictures/S_yt-7W50lcw5FCo_37.png	653.5621105000027	
145	635.6644212910032	picture	0		134	143.0	/Users/shufanzhang/Documents/PhD/Arrow_of_time/arrow_of_time/pictures/R_S_PA_A004_C003_SDR_20190719_SDR_2K_AVC.png	653.5780124160083	1.139536083996063
145	636.7907654580049	response	0	j		143.0	/Users/shufanzhang/Documents/PhD/Arrow_of_time/arrow_of_time/pictures/R_S_PA_A004_C003_SDR_20190719_SDR_2K_AVC.png	654.7043565830099	
146	636.8039573749993	picture	0		210	144.0	/Users/shufanzhang/Documents/PhD/Arrow_of_time/arrow_of_time/pictures/S_yt-uWeU2s6JYyk_10.png	654.7175485000043	1.8099472500034608
146	638.6015194579959	response	0	j		144.0	/Users/shufanzhang/Documents/PhD/Arrow_of_time/arrow_of_time/pictures/S_yt-uWeU2s6JYyk_10.png	656.5151105830009	
147	638.6139046250028	picture	0		163	145.0	/Users/shufanzhang/Documents/PhD/Arrow_of_time/arrow_of_time/pictures/R_S_ILSVRC2015_train_00743006.png	656.5274957500078	1.393925999989733
147	639.9863945410034	response	0	j		145.0	/Users/shufanzhang/Documents/PhD/Arrow_of_time/arrow_of_time/pictures/R_S_ILSVRC2015_train_00743006.png	657.8999856660084	
148	640.0078306249925	picture	0		116	146.0	/Users/shufanzhang/Documents/PhD/Arrow_of_time/arrow_of_time/pictures/n01872401_18520.JPEG	657.9214217499975	0.9869421660114313
148	640.9801575829915	response	0	k		146.0	/Users/shufanzhang/Documents/PhD/Arrow_of_time/arrow_of_time/pictures/n01872401_18520.JPEG	658.8937487079966	
149	640.9947727910039	picture	0		101	147.0	/Users/shufanzhang/Documents/PhD/Arrow_of_time/arrow_of_time/pictures/n02096437_10584.JPEG	658.908363916009	0.9189175419887761
149	641.8998462500022	response	0	k		147.0	/Users/shufanzhang/Documents/PhD/Arrow_of_time/arrow_of_time/pictures/n02096437_10584.JPEG	659.8134373750072	
150	641.9136903329927	picture	0		126	148.0	/Users/shufanzhang/Documents/PhD/Arrow_of_time/arrow_of_time/pictures/R_S_production_ID_5139371.png	659.8272814579977	1.0571416669990867
150	642.9575383329939	response	0	j		148.0	/Users/shufanzhang/Documents/PhD/Arrow_of_time/arrow_of_time/pictures/R_S_production_ID_5139371.png	660.8711294579989	
151	642.9708319999918	picture	0		145	149.0	/Users/shufanzhang/Documents/PhD/Arrow_of_time/arrow_of_time/pictures/R_S_yt-xqjVM0Vj4mI_161.png	660.8844231249968	1.2269350000133272
151	644.1821817080054	response	0	j		149.0	/Users/shufanzhang/Documents/PhD/Arrow_of_time/arrow_of_time/pictures/R_S_yt-xqjVM0Vj4mI_161.png	662.0957728330104	
152	644.1977670000051	picture	0		203	150.0	/Users/shufanzhang/Documents/PhD/Arrow_of_time/arrow_of_time/pictures/n01734418_5604.JPEG	662.1113581250102	1.7166036659909878
152	645.902386791	response	0	k		150.0	/Users/shufanzhang/Documents/PhD/Arrow_of_time/arrow_of_time/pictures/n01734418_5604.JPEG	663.8159779160051	
153	645.9143706659961	picture	0		147	151.0	/Users/shufanzhang/Documents/PhD/Arrow_of_time/arrow_of_time/pictures/n03933933_16287.JPEG	663.8279617910011	1.23934308400203
153	647.1370478329918	response	0	k		151.0	/Users/shufanzhang/Documents/PhD/Arrow_of_time/arrow_of_time/pictures/n03933933_16287.JPEG	665.0506389579969	
154	647.1537137499981	picture	0		319	152.0	/Users/shufanzhang/Documents/PhD/Arrow_of_time/arrow_of_time/pictures/n02687172_17631.JPEG	665.0673048750032	2.720925375004299
154	649.8615602079954	response	0	k		152.0	/Users/shufanzhang/Documents/PhD/Arrow_of_time/arrow_of_time/pictures/n02687172_17631.JPEG	667.7751513330004	
155	649.8746391250024	picture	0		85	153.0	/Users/shufanzhang/Documents/PhD/Arrow_of_time/arrow_of_time/pictures/R_S_yt-kINZMjys3O4_112.png	667.7882302500075	0.8791800409962889
155	650.7390027499932	response	0	j		153.0	/Users/shufanzhang/Documents/PhD/Arrow_of_time/arrow_of_time/pictures/R_S_yt-kINZMjys3O4_112.png	668.6525938749983	
156	650.7538191659987	picture	0		128	154.0	/Users/shufanzhang/Documents/PhD/Arrow_of_time/arrow_of_time/pictures/R_S_yt-UzWRbs9Syf4_7.png	668.6674102910038	1.0882081250019837
156	651.8294099579944	response	0	j		154.0	/Users/shufanzhang/Documents/PhD/Arrow_of_time/arrow_of_time/pictures/R_S_yt-UzWRbs9Syf4_7.png	669.7430010829994	
157	651.8420272910007	picture	0		144	155.0	/Users/shufanzhang/Documents/PhD/Arrow_of_time/arrow_of_time/pictures/n03495258_5143.JPEG	669.7556184160057	1.2232349169935333
157	653.051736207999	response	0	k		155.0	/Users/shufanzhang/Documents/PhD/Arrow_of_time/arrow_of_time/pictures/n03495258_5143.JPEG	670.9653273330041	
158	653.0652622079942	picture	0		133	156.0	/Users/shufanzhang/Documents/PhD/Arrow_of_time/arrow_of_time/pictures/n04037443_53706.JPEG	670.9788533329993	1.1378907500038622
158	654.188163999992	response	0	k		156.0	/Users/shufanzhang/Documents/PhD/Arrow_of_time/arrow_of_time/pictures/n04037443_53706.JPEG	672.101755124997	
159	654.2031529579981	picture	0		239	157.0	/Users/shufanzhang/Documents/PhD/Arrow_of_time/arrow_of_time/pictures/S_production_ID_4325591.png	672.1167440830031	1.9976255000074161
159	656.1836807499931	response	0	k		157.0	/Users/shufanzhang/Documents/PhD/Arrow_of_time/arrow_of_time/pictures/S_production_ID_4325591.png	674.0972718749981	
160	656.2007784580055	picture	0		154	158.0	/Users/shufanzhang/Documents/PhD/Arrow_of_time/arrow_of_time/pictures/S_video-7.png	674.1143695830106	1.3167763329984155
160	657.5063095829973	response	0	j		158.0	/Users/shufanzhang/Documents/PhD/Arrow_of_time/arrow_of_time/pictures/S_video-7.png	675.4199007080024	
161	657.5175547910039	picture	0		145	159.0	/Users/shufanzhang/Documents/PhD/Arrow_of_time/arrow_of_time/pictures/S_yt-GVaF4tmJBZE_253.png	675.431145916009	1.2316562499909196
161	658.7336389580014	response	0	j		159.0	/Users/shufanzhang/Documents/PhD/Arrow_of_time/arrow_of_time/pictures/S_yt-GVaF4tmJBZE_253.png	676.6472300830064	
162	658.7492110409949	picture	0		82	160.0	/Users/shufanzhang/Documents/PhD/Arrow_of_time/arrow_of_time/pictures/n01855672_6948.JPEG	676.6628021659999	0.7025390839989996
162	659.4396575409919	response	0	k		160.0	/Users/shufanzhang/Documents/PhD/Arrow_of_time/arrow_of_time/pictures/n01855672_6948.JPEG	677.353248665997	
163	659.4517501249939	picture	0		133	161.0	/Users/shufanzhang/Documents/PhD/Arrow_of_time/arrow_of_time/pictures/n03535780_4549.JPEG	677.3653412499989	1.1315770410001278
163	660.5722142909945	response	0	k		161.0	/Users/shufanzhang/Documents/PhD/Arrow_of_time/arrow_of_time/pictures/n03535780_4549.JPEG	678.4858054159995	
164	660.583327165994	picture	0		124	162.0	/Users/shufanzhang/Documents/PhD/Arrow_of_time/arrow_of_time/pictures/R_S_yt-IDpUZ2NWBUY_60.png	678.496918290999	1.0588783340062946
164	661.6250259160006	response	0	k		162.0	/Users/shufanzhang/Documents/PhD/Arrow_of_time/arrow_of_time/pictures/R_S_yt-IDpUZ2NWBUY_60.png	679.5386170410056	
165	661.6422055000003	picture	0		154	163.0	/Users/shufanzhang/Documents/PhD/Arrow_of_time/arrow_of_time/pictures/S_video.png	679.5557966250053	1.309456749993842
165	662.9338925409975	response	0	j		163.0	/Users/shufanzhang/Documents/PhD/Arrow_of_time/arrow_of_time/pictures/S_video.png	680.8474836660025	
166	662.9516622499941	picture	0		127	164.0	/Users/shufanzhang/Documents/PhD/Arrow_of_time/arrow_of_time/pictures/S_video_inspire_california_big-sur_landscape_054.png	680.8652533749992	1.1287660410016542
166	664.0643044159951	response	0	j		164.0	/Users/shufanzhang/Documents/PhD/Arrow_of_time/arrow_of_time/pictures/S_video_inspire_california_big-sur_landscape_054.png	681.9778955410002	
167	664.0804282909958	picture	0		127	165.0	/Users/shufanzhang/Documents/PhD/Arrow_of_time/arrow_of_time/pictures/n04238763_4175.JPEG	681.9940194160008	1.0929747089976445
167	665.1582307079952	response	0	k		165.0	/Users/shufanzhang/Documents/PhD/Arrow_of_time/arrow_of_time/pictures/n04238763_4175.JPEG	683.0718218330003	
168	665.1734029999934	picture	0		277	166.0	/Users/shufanzhang/Documents/PhD/Arrow_of_time/arrow_of_time/pictures/S_yt-fQgLKiz2tuM_14.png	683.0869941249985	2.3659733750100713
168	667.5263609160029	response	0	j		166.0	/Users/shufanzhang/Documents/PhD/Arrow_of_time/arrow_of_time/pictures/S_yt-fQgLKiz2tuM_14.png	685.4399520410079	
169	667.5393763750035	picture	0		153	167.0	/Users/shufanzhang/Documents/PhD/Arrow_of_time/arrow_of_time/pictures/S_yt-Ub5Xx5BqIOk_74.png	685.4529675000085	1.30008283299685
169	668.8275652500015	response	0	j		167.0	/Users/shufanzhang/Documents/PhD/Arrow_of_time/arrow_of_time/pictures/S_yt-Ub5Xx5BqIOk_74.png	686.7411563750065	
170	668.8394592080003	picture	0		97	168.0	/Users/shufanzhang/Documents/PhD/Arrow_of_time/arrow_of_time/pictures/S_yt-YWfInCviN1s_126.png	686.7530503330054	0.8671726250031497
170	669.6812885410036	response	0	j		168.0	/Users/shufanzhang/Documents/PhD/Arrow_of_time/arrow_of_time/pictures/S_yt-YWfInCviN1s_126.png	687.5948796660086	
171	669.7066318330035	picture	0		559	169.0	/Users/shufanzhang/Documents/PhD/Arrow_of_time/arrow_of_time/pictures/ILSVRC2012_val_00048488.JPEG	687.6202229580085	4.673702999993111
171	674.3669892079924	response	0	k		169.0	/Users/shufanzhang/Documents/PhD/Arrow_of_time/arrow_of_time/pictures/ILSVRC2012_val_00048488.JPEG	692.2805803329975	
172	674.3803348329966	picture	0		117	170.0	/Users/shufanzhang/Documents/PhD/Arrow_of_time/arrow_of_time/pictures/S_yt-MToRA8FcNJ4_138.png	692.2939259580016	0.9995199580007466
172	675.3660769580019	response	0	k		170.0	/Users/shufanzhang/Documents/PhD/Arrow_of_time/arrow_of_time/pictures/S_yt-MToRA8FcNJ4_138.png	693.279668083007	
173	675.3798547909973	picture	0		264	171.0	/Users/shufanzhang/Documents/PhD/Arrow_of_time/arrow_of_time/pictures/S_yt-ZfDtalvUK5k_36.png	693.2934459160024	2.2250562499975786
173	677.591016958002	response	0	k		171.0	/Users/shufanzhang/Documents/PhD/Arrow_of_time/arrow_of_time/pictures/S_yt-ZfDtalvUK5k_36.png	695.504608083007	
174	677.6049110409949	picture	0		145	172.0	/Users/shufanzhang/Documents/PhD/Arrow_of_time/arrow_of_time/pictures/n03877845_10747.JPEG	695.518502166	1.2645141670072917
174	678.8552552500041	response	0	k		172.0	/Users/shufanzhang/Documents/PhD/Arrow_of_time/arrow_of_time/pictures/n03877845_10747.JPEG	696.7688463750092	
175	678.8694252080022	picture	0		186	173.0	/Users/shufanzhang/Documents/PhD/Arrow_of_time/arrow_of_time/pictures/n01986214_12921.JPEG	696.7830163330073	1.568496874999255
175	680.4300961660047	response	0	k		173.0	/Users/shufanzhang/Documents/PhD/Arrow_of_time/arrow_of_time/pictures/n01986214_12921.JPEG	698.3436872910097	
176	680.4379220830015	picture	0		117	174.0	/Users/shufanzhang/Documents/PhD/Arrow_of_time/arrow_of_time/pictures/S_yt-WhQMF3WM0Ig_29.png	698.3515132080065	0.9940512079920154
176	681.4192302080046	response	0	j		174.0	/Users/shufanzhang/Documents/PhD/Arrow_of_time/arrow_of_time/pictures/S_yt-WhQMF3WM0Ig_29.png	699.3328213330096	
177	681.4319732909935	picture	0		224	175.0	/Users/shufanzhang/Documents/PhD/Arrow_of_time/arrow_of_time/pictures/R_S_yt-cjndulbUtRc_51.png	699.3455644159985	1.8932136250077747
177	683.3034139160009	response	0	j		175.0	/Users/shufanzhang/Documents/PhD/Arrow_of_time/arrow_of_time/pictures/R_S_yt-cjndulbUtRc_51.png	701.2170050410059	
178	683.3251869160013	picture	0		395	176.0	/Users/shufanzhang/Documents/PhD/Arrow_of_time/arrow_of_time/pictures/n01664065_30633.JPEG	701.2387780410063	3.3100570419919677
178	686.6197844160051	response	0	k		176.0	/Users/shufanzhang/Documents/PhD/Arrow_of_time/arrow_of_time/pictures/n01664065_30633.JPEG	704.5333755410102	
179	686.6352439579932	picture	0		354	177.0	/Users/shufanzhang/Documents/PhD/Arrow_of_time/arrow_of_time/pictures/n02655020_2268.JPEG	704.5488350829983	2.9687098330032313
179	689.5897614999994	response	0	k		177.0	/Users/shufanzhang/Documents/PhD/Arrow_of_time/arrow_of_time/pictures/n02655020_2268.JPEG	707.5033526250045	
180	689.6039537909965	picture	0		446	178.0	/Users/shufanzhang/Documents/PhD/Arrow_of_time/arrow_of_time/pictures/n04347754_23610.JPEG	707.5175449160015	3.735399500001222
180	693.3264617079985	response	0	k		178.0	/Users/shufanzhang/Documents/PhD/Arrow_of_time/arrow_of_time/pictures/n04347754_23610.JPEG	711.2400528330036	
181	693.3393532909977	picture	0		195	179.0	/Users/shufanzhang/Documents/PhD/Arrow_of_time/arrow_of_time/pictures/R_S_ILSVRC2015_train_00473000.png	711.2529444160027	1.6455128749948926
181	694.9727752079925	response	0	j		179.0	/Users/shufanzhang/Documents/PhD/Arrow_of_time/arrow_of_time/pictures/R_S_ILSVRC2015_train_00473000.png	712.8863663329976	
182	694.9848661659926	stim	0		867			712.8984572909976	7.889056084008189
182	696.592811333001	response	0	j				714.506402458006	
182	702.3218435409945	response	0	j				720.2354346659995	
182	702.8615932499961	response	0	space				720.7751843750011	
