trial_nr	onset	event_type	phase	response	nr_frames	picture_index	picture_file	onset_abs	duration
0	0.16073918342590332	stim	0		993			173.0801591873169	8.288887023925781
0	8.424817085266113	response	0	space				181.3442370891571	
2	8.449626207351685	picture	0		561	0.0	/experiments/knapen_aot/AOT/AOT_stimuli/pictures/1517_fw.png	181.36904621124268	4.675855875015259
2	13.11637806892395	response	0	j		0.0	/experiments/knapen_aot/AOT/AOT_stimuli/pictures/1517_fw.png	186.03579807281494	
3	13.125482082366943	picture	0		184	1.0	/experiments/knapen_aot/AOT/AOT_stimuli/pictures/0973_fw.png	186.04490208625793	1.534627914428711
3	14.649673223495483	response	0	k		1.0	/experiments/knapen_aot/AOT/AOT_stimuli/pictures/0973_fw.png	187.56909322738647	
4	14.660109996795654	picture	0		207	2.0	/experiments/knapen_aot/AOT/AOT_stimuli/pictures/0821_fw.png	187.57953000068665	1.7311761379241943
4	16.375575065612793	response	0	k		2.0	/experiments/knapen_aot/AOT/AOT_stimuli/pictures/0821_fw.png	189.29499506950378	
5	16.39128613471985	picture	0		104	3.0	/experiments/knapen_aot/AOT/AOT_stimuli/pictures/1694_fw.png	189.31070613861084	0.8729839324951172
5	17.250492095947266	response	0	j		3.0	/experiments/knapen_aot/AOT/AOT_stimuli/pictures/1694_fw.png	190.16991209983826	
6	17.264270067214966	picture	0		125	4.0	/experiments/knapen_aot/AOT/AOT_stimuli/pictures/1155_fw.png	190.18369007110596	1.0485639572143555
6	18.29966402053833	response	0	k		4.0	/experiments/knapen_aot/AOT/AOT_stimuli/pictures/1155_fw.png	191.21908402442932	
7	18.31283402442932	picture	0		119	5.0	/experiments/knapen_aot/AOT/AOT_stimuli/pictures/1543_fw.png	191.2322540283203	0.9999880790710449
7	19.299689054489136	response	0	j		5.0	/experiments/knapen_aot/AOT/AOT_stimuli/pictures/1543_fw.png	192.21910905838013	
8	19.312822103500366	picture	0		138	6.0	/experiments/knapen_aot/AOT/AOT_stimuli/pictures/0303_fw.png	192.23224210739136	1.1617710590362549
8	20.458770036697388	response	0	j		6.0	/experiments/knapen_aot/AOT/AOT_stimuli/pictures/0303_fw.png	193.37819004058838	
9	20.47459316253662	picture	0		179	7.0	/experiments/knapen_aot/AOT/AOT_stimuli/pictures/0186_fw.png	193.3940131664276	1.5000028610229492
9	21.958803176879883	response	0	j		7.0	/experiments/knapen_aot/AOT/AOT_stimuli/pictures/0186_fw.png	194.87822318077087	
10	21.97459602355957	picture	0		103	8.0	/experiments/knapen_aot/AOT/AOT_stimuli/pictures/1457_fw.png	194.89401602745056	0.859065055847168
10	22.824681043624878	response	0	j		8.0	/experiments/knapen_aot/AOT/AOT_stimuli/pictures/1457_fw.png	195.74410104751587	
11	22.83366107940674	picture	0		622	9.0	/experiments/knapen_aot/AOT/AOT_stimuli/pictures/1990_fw.png	195.75308108329773	5.201292991638184
11	28.007992029190063	response	0	j		9.0	/experiments/knapen_aot/AOT/AOT_stimuli/pictures/1990_fw.png	200.92741203308105	
12	28.034954071044922	picture	0		188	10.0	/experiments/knapen_aot/AOT/AOT_stimuli/pictures/0768_fw.png	200.9543740749359	1.5695009231567383
12	29.59138321876526	response	0	k		10.0	/experiments/knapen_aot/AOT/AOT_stimuli/pictures/0768_fw.png	202.51080322265625	
13	29.60445499420166	picture	0		121	11.0	/experiments/knapen_aot/AOT/AOT_stimuli/pictures/1703_fw.png	202.52387499809265	1.0138170719146729
13	30.60801410675049	response	0	k		11.0	/experiments/knapen_aot/AOT/AOT_stimuli/pictures/1703_fw.png	203.52743411064148	
14	30.618272066116333	picture	0		110	12.0	/experiments/knapen_aot/AOT/AOT_stimuli/pictures/1589_fw.png	203.53769207000732	0.916762113571167
14	31.52466320991516	response	0	k		12.0	/experiments/knapen_aot/AOT/AOT_stimuli/pictures/1589_fw.png	204.44408321380615	
15	31.5350341796875	picture	0		253	13.0	/experiments/knapen_aot/AOT/AOT_stimuli/pictures/1107_fw.png	204.4544541835785	2.111053943634033
15	33.633079051971436	response	0	k		13.0	/experiments/knapen_aot/AOT/AOT_stimuli/pictures/1107_fw.png	206.55249905586243	
16	33.64608812332153	picture	0		139	14.0	/experiments/knapen_aot/AOT/AOT_stimuli/pictures/0558_fw.png	206.56550812721252	1.1666069030761719
16	34.7996551990509	response	0	k		14.0	/experiments/knapen_aot/AOT/AOT_stimuli/pictures/0558_fw.png	207.7190752029419	
17	34.812695026397705	picture	0		166	15.0	/experiments/knapen_aot/AOT/AOT_stimuli/pictures/2057_fw.png	207.7321150302887	1.3888890743255615
17	36.19132399559021	response	0	j		15.0	/experiments/knapen_aot/AOT/AOT_stimuli/pictures/2057_fw.png	209.1107439994812	
18	36.20158410072327	picture	0		96	16.0	/experiments/knapen_aot/AOT/AOT_stimuli/pictures/0259_fw.png	209.12100410461426	0.7985970973968506
18	36.991257190704346	response	0	k		16.0	/experiments/knapen_aot/AOT/AOT_stimuli/pictures/0259_fw.png	209.91067719459534	
19	37.00018119812012	picture	0		147	17.0	/experiments/knapen_aot/AOT/AOT_stimuli/pictures/1542_fw.png	209.9196012020111	1.2291889190673828
19	38.21630811691284	response	0	k		17.0	/experiments/knapen_aot/AOT/AOT_stimuli/pictures/1542_fw.png	211.13572812080383	
20	38.2293701171875	picture	0		110	18.0	/experiments/knapen_aot/AOT/AOT_stimuli/pictures/0400_fw.png	211.1487901210785	0.9236330986022949
20	39.14130902290344	response	0	j		18.0	/experiments/knapen_aot/AOT/AOT_stimuli/pictures/0400_fw.png	212.06072902679443	
21	39.153003215789795	picture	0		157	19.0	/experiments/knapen_aot/AOT/AOT_stimuli/pictures/0929_fw.png	212.0724232196808	1.313215970993042
21	40.44960308074951	response	0	j		19.0	/experiments/knapen_aot/AOT/AOT_stimuli/pictures/0929_fw.png	213.3690230846405	
22	40.46621918678284	picture	0		127	20.0	/experiments/knapen_aot/AOT/AOT_stimuli/pictures/2029_fw.png	213.38563919067383	1.0617029666900635
22	41.5164110660553	response	0	j		20.0	/experiments/knapen_aot/AOT/AOT_stimuli/pictures/2029_fw.png	214.4358310699463	
23	41.5279221534729	picture	0		100	21.0	/experiments/knapen_aot/AOT/AOT_stimuli/pictures/2017_fw.png	214.4473421573639	0.833319902420044
23	42.34971499443054	response	0	j		21.0	/experiments/knapen_aot/AOT/AOT_stimuli/pictures/2017_fw.png	215.26913499832153	
24	42.361242055892944	picture	0		223	22.0	/experiments/knapen_aot/AOT/AOT_stimuli/pictures/1227_fw.png	215.28066205978394	1.8611431121826172
24	44.208617210388184	response	0	j		22.0	/experiments/knapen_aot/AOT/AOT_stimuli/pictures/1227_fw.png	217.12803721427917	
25	44.22238516807556	picture	0		164	23.0	/experiments/knapen_aot/AOT/AOT_stimuli/pictures/1979_fw.png	217.14180517196655	1.3750479221343994
25	45.583566188812256	response	0	j		23.0	/experiments/knapen_aot/AOT/AOT_stimuli/pictures/1979_fw.png	218.50298619270325	
26	45.59743309020996	picture	0		203	24.0	/experiments/knapen_aot/AOT/AOT_stimuli/pictures/0219_fw.png	218.51685309410095	1.6943359375
26	47.2829430103302	response	0	k		24.0	/experiments/knapen_aot/AOT/AOT_stimuli/pictures/0219_fw.png	220.2023630142212	
27	47.29176902770996	picture	0		103	25.0	/experiments/knapen_aot/AOT/AOT_stimuli/pictures/0549_fw.png	220.21118903160095	0.861091136932373
27	48.14127707481384	response	0	j		25.0	/experiments/knapen_aot/AOT/AOT_stimuli/pictures/0549_fw.png	221.06069707870483	
28	48.152860164642334	picture	0		392	26.0	/experiments/knapen_aot/AOT/AOT_stimuli/pictures/0104_fw.png	221.07228016853333	3.26387095451355
28	51.40793704986572	response	0	k		26.0	/experiments/knapen_aot/AOT/AOT_stimuli/pictures/0104_fw.png	224.3273570537567	
29	51.416731119155884	picture	0		179	27.0	/experiments/knapen_aot/AOT/AOT_stimuli/pictures/0934_fw.png	224.33615112304688	1.500257968902588
29	52.89958119392395	response	0	k		27.0	/experiments/knapen_aot/AOT/AOT_stimuli/pictures/0934_fw.png	225.81900119781494	
30	52.91698908805847	picture	0		155	28.0	/experiments/knapen_aot/AOT/AOT_stimuli/pictures/1928_fw.png	225.83640909194946	1.2914059162139893
30	54.199568033218384	response	0	j		28.0	/experiments/knapen_aot/AOT/AOT_stimuli/pictures/1928_fw.png	227.11898803710938	
31	54.20839500427246	picture	0		283	29.0	/experiments/knapen_aot/AOT/AOT_stimuli/pictures/2167_fw.png	227.12781500816345	2.3610610961914062
31	56.55117106437683	response	0	k		29.0	/experiments/knapen_aot/AOT/AOT_stimuli/pictures/2167_fw.png	229.47059106826782	
32	56.56945610046387	picture	0		130	30.0	/experiments/knapen_aot/AOT/AOT_stimuli/pictures/1365_fw.png	229.48887610435486	1.08331298828125
32	57.641221046447754	response	0	k		30.0	/experiments/knapen_aot/AOT/AOT_stimuli/pictures/1365_fw.png	230.56064105033875	
33	57.65276908874512	picture	0		104	31.0	/experiments/knapen_aot/AOT/AOT_stimuli/pictures/1185_fw.png	230.5721890926361	0.8682050704956055
33	58.50780510902405	response	0	k		31.0	/experiments/knapen_aot/AOT/AOT_stimuli/pictures/1185_fw.png	231.42722511291504	
34	58.52097415924072	picture	0		112	32.0	/experiments/knapen_aot/AOT/AOT_stimuli/pictures/2005_fw.png	231.4403941631317	0.9373459815979004
34	59.44952201843262	response	0	k		32.0	/experiments/knapen_aot/AOT/AOT_stimuli/pictures/2005_fw.png	232.3689420223236	
35	59.45832014083862	picture	0		156	33.0	/experiments/knapen_aot/AOT/AOT_stimuli/pictures/1467_fw.png	232.37774014472961	1.3056089878082275
35	60.75002121925354	response	0	k		33.0	/experiments/knapen_aot/AOT/AOT_stimuli/pictures/1467_fw.png	233.66944122314453	
36	60.76392912864685	picture	0		135	34.0	/experiments/knapen_aot/AOT/AOT_stimuli/pictures/1999_fw.png	233.68334913253784	1.1320009231567383
36	61.88289213180542	response	0	k		34.0	/experiments/knapen_aot/AOT/AOT_stimuli/pictures/1999_fw.png	234.8023121356964	
37	61.89593005180359	picture	0		148	35.0	/experiments/knapen_aot/AOT/AOT_stimuli/pictures/1898_fw.png	234.81535005569458	1.2451629638671875
37	63.12507510185242	response	0	k		35.0	/experiments/knapen_aot/AOT/AOT_stimuli/pictures/1898_fw.png	236.0444951057434	
38	63.141093015670776	picture	0		124	36.0	/experiments/knapen_aot/AOT/AOT_stimuli/pictures/0923_fw.png	236.06051301956177	1.0396640300750732
38	64.15934300422668	response	0	j		36.0	/experiments/knapen_aot/AOT/AOT_stimuli/pictures/0923_fw.png	237.07876300811768	
39	64.18075704574585	picture	0		147	37.0	/experiments/knapen_aot/AOT/AOT_stimuli/pictures/1813_fw.png	237.10017704963684	1.2288930416107178
39	65.39278101921082	response	0	k		37.0	/experiments/knapen_aot/AOT/AOT_stimuli/pictures/1813_fw.png	238.3122010231018	
40	65.40965008735657	picture	0		264	38.0	/experiments/knapen_aot/AOT/AOT_stimuli/pictures/0674_fw.png	238.32907009124756	2.2013819217681885
40	67.5927140712738	response	0	k		38.0	/experiments/knapen_aot/AOT/AOT_stimuli/pictures/0674_fw.png	240.5121340751648	
41	67.61103200912476	picture	0		163	39.0	/experiments/knapen_aot/AOT/AOT_stimuli/pictures/2115_fw.png	240.53045201301575	1.3633852005004883
41	68.95833611488342	response	0	k		39.0	/experiments/knapen_aot/AOT/AOT_stimuli/pictures/2115_fw.png	241.8777561187744	
42	68.97441720962524	picture	0		130	40.0	/experiments/knapen_aot/AOT/AOT_stimuli/pictures/2142_fw.png	241.89383721351624	1.0880680084228516
42	70.04962921142578	response	0	k		40.0	/experiments/knapen_aot/AOT/AOT_stimuli/pictures/2142_fw.png	242.96904921531677	
43	70.0624852180481	picture	0		319	41.0	/experiments/knapen_aot/AOT/AOT_stimuli/pictures/1581_fw.png	242.9819052219391	2.6702218055725098
43	72.71613216400146	response	0	k		41.0	/experiments/knapen_aot/AOT/AOT_stimuli/pictures/1581_fw.png	245.63555216789246	
44	72.7327070236206	picture	0		126	42.0	/experiments/knapen_aot/AOT/AOT_stimuli/pictures/0883_fw.png	245.6521270275116	1.051846981048584
44	73.767657995224	response	0	j		42.0	/experiments/knapen_aot/AOT/AOT_stimuli/pictures/0883_fw.png	246.687077999115	
45	73.78455400466919	picture	0		124	43.0	/experiments/knapen_aot/AOT/AOT_stimuli/pictures/1606_fw.png	246.70397400856018	1.034717082977295
45	74.80788016319275	response	0	j		43.0	/experiments/knapen_aot/AOT/AOT_stimuli/pictures/1606_fw.png	247.72730016708374	
46	74.81927108764648	picture	0		160	44.0	/experiments/knapen_aot/AOT/AOT_stimuli/pictures/1419_fw.png	247.73869109153748	1.3333170413970947
46	76.14114999771118	response	0	k		44.0	/experiments/knapen_aot/AOT/AOT_stimuli/pictures/1419_fw.png	249.06057000160217	
47	76.15258812904358	picture	0		110	45.0	/experiments/knapen_aot/AOT/AOT_stimuli/pictures/0834_fw.png	249.07200813293457	0.9166769981384277
47	77.05780005455017	response	0	j		45.0	/experiments/knapen_aot/AOT/AOT_stimuli/pictures/0834_fw.png	249.97722005844116	
48	77.069265127182	picture	0		120	46.0	/experiments/knapen_aot/AOT/AOT_stimuli/pictures/0538_fw.png	249.988685131073	0.9999699592590332
48	78.05778503417969	response	0	k		46.0	/experiments/knapen_aot/AOT/AOT_stimuli/pictures/0538_fw.png	250.97720503807068	
49	78.06923508644104	picture	0		122	47.0	/experiments/knapen_aot/AOT/AOT_stimuli/pictures/0363_fw.png	250.98865509033203	1.0138850212097168
49	79.0744981765747	response	0	k		47.0	/experiments/knapen_aot/AOT/AOT_stimuli/pictures/0363_fw.png	251.9939181804657	
50	79.08312010765076	picture	0		137	48.0	/experiments/knapen_aot/AOT/AOT_stimuli/pictures/1299_fw.png	252.00254011154175	1.1458230018615723
50	80.21615815162659	response	0	k		48.0	/experiments/knapen_aot/AOT/AOT_stimuli/pictures/1299_fw.png	253.13557815551758	
51	80.22894310951233	picture	0		95	49.0	/experiments/knapen_aot/AOT/AOT_stimuli/pictures/0850_fw.png	253.14836311340332	0.7985880374908447
51	81.01614618301392	response	0	j		49.0	/experiments/knapen_aot/AOT/AOT_stimuli/pictures/0850_fw.png	253.9355661869049	
52	81.02753114700317	picture	0		97	50.0	/experiments/knapen_aot/AOT/AOT_stimuli/pictures/2054_fw.png	253.94695115089417	0.8134748935699463
52	81.82441711425781	response	0	k		50.0	/experiments/knapen_aot/AOT/AOT_stimuli/pictures/2054_fw.png	254.7438371181488	
53	81.84100604057312	picture	0		135	51.0	/experiments/knapen_aot/AOT/AOT_stimuli/pictures/0190_fw.png	254.7604260444641	1.131040096282959
53	82.95817518234253	response	0	j		51.0	/experiments/knapen_aot/AOT/AOT_stimuli/pictures/0190_fw.png	255.87759518623352	
54	82.97204613685608	picture	0		201	52.0	/experiments/knapen_aot/AOT/AOT_stimuli/pictures/1253_fw.png	255.89146614074707	1.6804630756378174
54	84.64102721214294	response	0	k		52.0	/experiments/knapen_aot/AOT/AOT_stimuli/pictures/1253_fw.png	257.56044721603394	
55	84.6525092124939	picture	0		165	53.0	/experiments/knapen_aot/AOT/AOT_stimuli/pictures/2042_fw.png	257.5719292163849	1.3749690055847168
55	86.0160551071167	response	0	k		53.0	/experiments/knapen_aot/AOT/AOT_stimuli/pictures/2042_fw.png	258.9354751110077	
56	86.02747821807861	picture	0		118	54.0	/experiments/knapen_aot/AOT/AOT_stimuli/pictures/0267_fw.png	258.9468982219696	0.9884629249572754
56	86.99992299079895	response	0	j		54.0	/experiments/knapen_aot/AOT/AOT_stimuli/pictures/0267_fw.png	259.91934299468994	
57	87.01594114303589	picture	0		212	55.0	/experiments/knapen_aot/AOT/AOT_stimuli/pictures/0712_fw.png	259.9353611469269	1.7684130668640137
57	88.76766920089722	response	0	k		55.0	/experiments/knapen_aot/AOT/AOT_stimuli/pictures/0712_fw.png	261.6870892047882	
58	88.7843542098999	picture	0		189	56.0	/experiments/knapen_aot/AOT/AOT_stimuli/pictures/1172_fw.png	261.7037742137909	1.5763638019561768
58	90.3493721485138	response	0	k		56.0	/experiments/knapen_aot/AOT/AOT_stimuli/pictures/1172_fw.png	263.2687921524048	
59	90.36071801185608	picture	0		103	57.0	/experiments/knapen_aot/AOT/AOT_stimuli/pictures/1511_fw.png	263.28013801574707	0.8612170219421387
59	91.20091915130615	response	0	j		57.0	/experiments/knapen_aot/AOT/AOT_stimuli/pictures/1511_fw.png	264.12033915519714	
60	91.22193503379822	picture	0		104	58.0	/experiments/knapen_aot/AOT/AOT_stimuli/pictures/1414_fw.png	264.1413550376892	0.8749539852142334
60	92.08307099342346	response	0	k		58.0	/experiments/knapen_aot/AOT/AOT_stimuli/pictures/1414_fw.png	265.00249099731445	
61	92.09688901901245	picture	0		187	59.0	/experiments/knapen_aot/AOT/AOT_stimuli/pictures/1307_fw.png	265.01630902290344	1.5624041557312012
61	93.6493330001831	response	0	k		59.0	/experiments/knapen_aot/AOT/AOT_stimuli/pictures/1307_fw.png	266.5687530040741	
62	93.65929317474365	picture	0		159	60.0	/experiments/knapen_aot/AOT/AOT_stimuli/pictures/0335_fw.png	266.57871317863464	1.3264069557189941
62	94.97440505027771	response	0	k		60.0	/experiments/knapen_aot/AOT/AOT_stimuli/pictures/0335_fw.png	267.8938250541687	
63	94.98570013046265	picture	0		134	61.0	/experiments/knapen_aot/AOT/AOT_stimuli/pictures/1939_fw.png	267.90512013435364	1.1180269718170166
63	96.09102511405945	response	0	j		61.0	/experiments/knapen_aot/AOT/AOT_stimuli/pictures/1939_fw.png	269.01044511795044	
64	96.10372710227966	picture	0		192	62.0	/experiments/knapen_aot/AOT/AOT_stimuli/pictures/0760_fw.png	269.02314710617065	1.604140043258667
64	97.69933009147644	response	0	k		62.0	/experiments/knapen_aot/AOT/AOT_stimuli/pictures/0760_fw.png	270.61875009536743	
65	97.70786714553833	picture	0		122	63.0	/experiments/knapen_aot/AOT/AOT_stimuli/pictures/1003_fw.png	270.6272871494293	1.020824909210205
65	98.71594619750977	response	0	k		63.0	/experiments/knapen_aot/AOT/AOT_stimuli/pictures/1003_fw.png	271.63536620140076	
66	98.72869205474854	picture	0		175	64.0	/experiments/knapen_aot/AOT/AOT_stimuli/pictures/0304_fw.png	271.6481120586395	1.465273141860962
66	100.1758861541748	response	0	k		64.0	/experiments/knapen_aot/AOT/AOT_stimuli/pictures/0304_fw.png	273.0953061580658	
67	100.1939651966095	picture	0		145	65.0	/experiments/knapen_aot/AOT/AOT_stimuli/pictures/0784_fw.png	273.1133852005005	1.2083489894866943
67	101.38415217399597	response	0	k		65.0	/experiments/knapen_aot/AOT/AOT_stimuli/pictures/0784_fw.png	274.30357217788696	
68	101.40231418609619	picture	0		143	66.0	/experiments/knapen_aot/AOT/AOT_stimuli/pictures/1195_fw.png	274.3217341899872	1.1944808959960938
68	102.57583212852478	response	0	k		66.0	/experiments/knapen_aot/AOT/AOT_stimuli/pictures/1195_fw.png	275.49525213241577	
69	102.59679508209229	picture	0		107	67.0	/experiments/knapen_aot/AOT/AOT_stimuli/pictures/1773_fw.png	275.5162150859833	0.8957791328430176
69	103.48261308670044	response	0	k		67.0	/experiments/knapen_aot/AOT/AOT_stimuli/pictures/1773_fw.png	276.40203309059143	
70	103.4925742149353	picture	0		125	68.0	/experiments/knapen_aot/AOT/AOT_stimuli/pictures/1321_fw.png	276.4119942188263	1.0416538715362549
70	104.52433609962463	response	0	j		68.0	/experiments/knapen_aot/AOT/AOT_stimuli/pictures/1321_fw.png	277.4437561035156	
71	104.53422808647156	picture	0		118	69.0	/experiments/knapen_aot/AOT/AOT_stimuli/pictures/1686_fw.png	277.45364809036255	0.9900000095367432
71	105.50784301757812	response	0	j		69.0	/experiments/knapen_aot/AOT/AOT_stimuli/pictures/1686_fw.png	278.4272630214691	
72	105.5242280960083	picture	0		109	70.0	/experiments/knapen_aot/AOT/AOT_stimuli/pictures/0524_fw.png	278.4436480998993	0.9127659797668457
72	106.42427611351013	response	0	k		70.0	/experiments/knapen_aot/AOT/AOT_stimuli/pictures/0524_fw.png	279.3436961174011	
73	106.43699407577515	picture	0		108	71.0	/experiments/knapen_aot/AOT/AOT_stimuli/pictures/1196_fw.png	279.35641407966614	0.912255048751831
73	107.33296298980713	response	0	j		71.0	/experiments/knapen_aot/AOT/AOT_stimuli/pictures/1196_fw.png	280.2523829936981	
74	107.34924912452698	picture	0		186	72.0	/experiments/knapen_aot/AOT/AOT_stimuli/pictures/1577_fw.png	280.26866912841797	1.5531589984893799
74	108.89099311828613	response	0	k		72.0	/experiments/knapen_aot/AOT/AOT_stimuli/pictures/1577_fw.png	281.8104131221771	
75	108.90240812301636	picture	0		118	73.0	/experiments/knapen_aot/AOT/AOT_stimuli/pictures/1846_fw.png	281.82182812690735	0.9884169101715088
75	109.87448620796204	response	0	k		73.0	/experiments/knapen_aot/AOT/AOT_stimuli/pictures/1846_fw.png	282.793906211853	
76	109.89082503318787	picture	0		90	74.0	/experiments/knapen_aot/AOT/AOT_stimuli/pictures/0174_fw.png	282.81024503707886	0.7544360160827637
76	110.63260912895203	response	0	k		74.0	/experiments/knapen_aot/AOT/AOT_stimuli/pictures/0174_fw.png	283.552029132843	
77	110.64526104927063	picture	0		273	75.0	/experiments/knapen_aot/AOT/AOT_stimuli/pictures/0534_fw.png	283.5646810531616	2.2872540950775146
77	112.91618514060974	response	0	k		75.0	/experiments/knapen_aot/AOT/AOT_stimuli/pictures/0534_fw.png	285.83560514450073	
78	112.93251514434814	picture	0		109	76.0	/experiments/knapen_aot/AOT/AOT_stimuli/pictures/0027_fw.png	285.85193514823914	0.9141490459442139
78	113.83280301094055	response	0	k		76.0	/experiments/knapen_aot/AOT/AOT_stimuli/pictures/0027_fw.png	286.75222301483154	
79	113.84666419029236	picture	0		87	77.0	/experiments/knapen_aot/AOT/AOT_stimuli/pictures/1210_fw.png	286.76608419418335	0.7291200160980225
79	114.56590104103088	response	0	k		77.0	/experiments/knapen_aot/AOT/AOT_stimuli/pictures/1210_fw.png	287.4853210449219	
80	114.57578420639038	picture	0		134	78.0	/experiments/knapen_aot/AOT/AOT_stimuli/pictures/0432_fw.png	287.4952042102814	1.1180799007415771
80	115.68249201774597	response	0	j		78.0	/experiments/knapen_aot/AOT/AOT_stimuli/pictures/0432_fw.png	288.60191202163696	
81	115.69386410713196	picture	0		105	79.0	/experiments/knapen_aot/AOT/AOT_stimuli/pictures/2143_fw.png	288.61328411102295	0.8749659061431885
81	116.55761218070984	response	0	k		79.0	/experiments/knapen_aot/AOT/AOT_stimuli/pictures/2143_fw.png	289.47703218460083	
82	116.56883001327515	picture	0		125	80.0	/experiments/knapen_aot/AOT/AOT_stimuli/pictures/0223_fw.png	289.48825001716614	1.0416481494903564
82	117.59240221977234	response	0	k		80.0	/experiments/knapen_aot/AOT/AOT_stimuli/pictures/0223_fw.png	290.51182222366333	
83	117.6104781627655	picture	0		112	81.0	/experiments/knapen_aot/AOT/AOT_stimuli/pictures/1724_fw.png	290.5298981666565	0.9304728507995605
83	118.53255009651184	response	0	k		81.0	/experiments/knapen_aot/AOT/AOT_stimuli/pictures/1724_fw.png	291.45197010040283	
84	118.54095101356506	picture	0		146	82.0	/experiments/knapen_aot/AOT/AOT_stimuli/pictures/0040_fw.png	291.46037101745605	1.22235107421875
84	119.74938917160034	response	0	k		82.0	/experiments/knapen_aot/AOT/AOT_stimuli/pictures/0040_fw.png	292.66880917549133	
85	119.76330208778381	picture	0		100	83.0	/experiments/knapen_aot/AOT/AOT_stimuli/pictures/0541_fw.png	292.6827220916748	0.8402400016784668
85	120.58439922332764	response	0	k		83.0	/experiments/knapen_aot/AOT/AOT_stimuli/pictures/0541_fw.png	293.5038192272186	
86	120.60354208946228	picture	0		134	84.0	/experiments/knapen_aot/AOT/AOT_stimuli/pictures/1640_fw.png	293.52296209335327	1.125093936920166
86	121.71589612960815	response	0	j		84.0	/experiments/knapen_aot/AOT/AOT_stimuli/pictures/1640_fw.png	294.63531613349915	
87	121.72863602638245	picture	0		141	85.0	/experiments/knapen_aot/AOT/AOT_stimuli/pictures/0265_fw.png	294.64805603027344	1.1803970336914062
87	122.89926314353943	response	0	j		85.0	/experiments/knapen_aot/AOT/AOT_stimuli/pictures/0265_fw.png	295.8186831474304	
88	122.90903306007385	picture	0		125	86.0	/experiments/knapen_aot/AOT/AOT_stimuli/pictures/0013_fw.png	295.82845306396484	1.0484161376953125
88	123.94086217880249	response	0	k		86.0	/experiments/knapen_aot/AOT/AOT_stimuli/pictures/0013_fw.png	296.8602821826935	
89	123.95744919776917	picture	0		115	87.0	/experiments/knapen_aot/AOT/AOT_stimuli/pictures/1200_fw.png	296.87686920166016	0.9584879875183105
89	124.90761303901672	response	0	k		87.0	/experiments/knapen_aot/AOT/AOT_stimuli/pictures/1200_fw.png	297.8270330429077	
90	124.91593718528748	picture	0		522	88.0	/experiments/knapen_aot/AOT/AOT_stimuli/pictures/0127_fw.png	297.83535718917847	4.358155965805054
90	129.25755214691162	response	0	k		88.0	/experiments/knapen_aot/AOT/AOT_stimuli/pictures/0127_fw.png	302.1769721508026	
91	129.27409315109253	picture	0		187	89.0	/experiments/knapen_aot/AOT/AOT_stimuli/pictures/0715_fw.png	302.1935131549835	1.558426856994629
91	130.824205160141	response	0	k		89.0	/experiments/knapen_aot/AOT/AOT_stimuli/pictures/0715_fw.png	303.743625164032	
92	130.83252000808716	picture	0		313	90.0	/experiments/knapen_aot/AOT/AOT_stimuli/pictures/2058_fw.png	303.75194001197815	2.616610050201416
92	133.43245816230774	response	0	k		90.0	/experiments/knapen_aot/AOT/AOT_stimuli/pictures/2058_fw.png	306.35187816619873	
93	133.44913005828857	picture	0		221	91.0	/experiments/knapen_aot/AOT/AOT_stimuli/pictures/1323_fw.png	306.36855006217957	1.8500139713287354
93	135.28245210647583	response	0	j		91.0	/experiments/knapen_aot/AOT/AOT_stimuli/pictures/1323_fw.png	308.2018721103668	
94	135.2991440296173	picture	0		120	92.0	/experiments/knapen_aot/AOT/AOT_stimuli/pictures/0235_fw.png	308.2185640335083	1.0056650638580322
94	136.29091811180115	response	0	k		92.0	/experiments/knapen_aot/AOT/AOT_stimuli/pictures/0235_fw.png	309.21033811569214	
95	136.30480909347534	picture	0		129	93.0	/experiments/knapen_aot/AOT/AOT_stimuli/pictures/0675_fw.png	309.22422909736633	1.0858960151672363
95	137.37423706054688	response	0	k		93.0	/experiments/knapen_aot/AOT/AOT_stimuli/pictures/0675_fw.png	310.29365706443787	
96	137.39070510864258	picture	0		113	94.0	/experiments/knapen_aot/AOT/AOT_stimuli/pictures/0773_fw.png	310.31012511253357	0.9417669773101807
96	138.32416415214539	response	0	k		94.0	/experiments/knapen_aot/AOT/AOT_stimuli/pictures/0773_fw.png	311.2435841560364	
97	138.33247208595276	picture	0		173	95.0	/experiments/knapen_aot/AOT/AOT_stimuli/pictures/0364_fw.png	311.25189208984375	1.4444730281829834
97	139.76579403877258	response	0	k		95.0	/experiments/knapen_aot/AOT/AOT_stimuli/pictures/0364_fw.png	312.6852140426636	
98	139.77694511413574	picture	0		121	96.0	/experiments/knapen_aot/AOT/AOT_stimuli/pictures/1084_fw.png	312.69636511802673	1.0069880485534668
98	140.77410316467285	response	0	k		96.0	/experiments/knapen_aot/AOT/AOT_stimuli/pictures/1084_fw.png	313.69352316856384	
99	140.7839331626892	picture	0		135	97.0	/experiments/knapen_aot/AOT/AOT_stimuli/pictures/1239_fw.png	313.7033531665802	1.1318528652191162
99	141.89911913871765	response	0	k		97.0	/experiments/knapen_aot/AOT/AOT_stimuli/pictures/1239_fw.png	314.81853914260864	
100	141.91578602790833	picture	0		141	98.0	/experiments/knapen_aot/AOT/AOT_stimuli/pictures/0350_fw.png	314.8352060317993	1.1832361221313477
100	143.08258700370789	response	0	j		98.0	/experiments/knapen_aot/AOT/AOT_stimuli/pictures/0350_fw.png	316.0020070075989	
101	143.09902215003967	picture	0		118	99.0	/experiments/knapen_aot/AOT/AOT_stimuli/pictures/0814_fw.png	316.01844215393066	0.9833500385284424
101	144.0741159915924	response	0	k		99.0	/experiments/knapen_aot/AOT/AOT_stimuli/pictures/0814_fw.png	316.9935359954834	
102	144.08237218856812	picture	0		155	100.0	/experiments/knapen_aot/AOT/AOT_stimuli/pictures/1275_fw.png	317.0017921924591	1.2916958332061768
102	145.365718126297	response	0	j		100.0	/experiments/knapen_aot/AOT/AOT_stimuli/pictures/1275_fw.png	318.285138130188	
103	145.3740680217743	picture	0		127	101.0	/experiments/knapen_aot/AOT/AOT_stimuli/pictures/0290_fw.png	318.2934880256653	1.0625321865081787
103	146.41749000549316	response	0	k		101.0	/experiments/knapen_aot/AOT/AOT_stimuli/pictures/0290_fw.png	319.33691000938416	
104	146.43660020828247	picture	0		97	102.0	/experiments/knapen_aot/AOT/AOT_stimuli/pictures/0968_fw.png	319.35602021217346	0.8055229187011719
104	147.22572112083435	response	0	j		102.0	/experiments/knapen_aot/AOT/AOT_stimuli/pictures/0968_fw.png	320.14514112472534	
105	147.24212312698364	picture	0		113	103.0	/experiments/knapen_aot/AOT/AOT_stimuli/pictures/1907_fw.png	320.16154313087463	0.9444899559020996
105	148.174143075943	response	0	k		103.0	/experiments/knapen_aot/AOT/AOT_stimuli/pictures/1907_fw.png	321.093563079834	
106	148.18661308288574	picture	0		106	104.0	/experiments/knapen_aot/AOT/AOT_stimuli/pictures/0486_fw.png	321.10603308677673	0.8818831443786621
106	149.05749201774597	response	0	j		104.0	/experiments/knapen_aot/AOT/AOT_stimuli/pictures/0486_fw.png	321.97691202163696	
107	149.0684962272644	picture	0		128	105.0	/experiments/knapen_aot/AOT/AOT_stimuli/pictures/1215_fw.png	321.9879162311554	1.0695288181304932
107	150.12416410446167	response	0	k		105.0	/experiments/knapen_aot/AOT/AOT_stimuli/pictures/1215_fw.png	323.04358410835266	
108	150.1380250453949	picture	0		415	106.0	/experiments/knapen_aot/AOT/AOT_stimuli/pictures/1440_fw.png	323.0574450492859	3.465139150619507
108	153.59068608283997	response	0	k		106.0	/experiments/knapen_aot/AOT/AOT_stimuli/pictures/1440_fw.png	326.51010608673096	
109	153.6031641960144	picture	0		216	107.0	/experiments/knapen_aot/AOT/AOT_stimuli/pictures/1889_fw.png	326.5225841999054	1.8041458129882812
109	155.39075803756714	response	0	j		107.0	/experiments/knapen_aot/AOT/AOT_stimuli/pictures/1889_fw.png	328.31017804145813	
110	155.40731000900269	picture	0		124	108.0	/experiments/knapen_aot/AOT/AOT_stimuli/pictures/0251_fw.png	328.3267300128937	1.0360960960388184
110	156.42562413215637	response	0	j		108.0	/experiments/knapen_aot/AOT/AOT_stimuli/pictures/0251_fw.png	329.34504413604736	
111	156.4434061050415	picture	0		107	109.0	/experiments/knapen_aot/AOT/AOT_stimuli/pictures/0895_fw.png	329.3628261089325	0.8888800144195557
111	157.32405018806458	response	0	k		109.0	/experiments/knapen_aot/AOT/AOT_stimuli/pictures/0895_fw.png	330.24347019195557	
112	157.33228611946106	picture	0		127	110.0	/experiments/knapen_aot/AOT/AOT_stimuli/pictures/0685_fw.png	330.25170612335205	1.0625240802764893
112	158.38238620758057	response	0	j		110.0	/experiments/knapen_aot/AOT/AOT_stimuli/pictures/0685_fw.png	331.30180621147156	
113	158.39481019973755	picture	0		119	111.0	/experiments/knapen_aot/AOT/AOT_stimuli/pictures/0399_fw.png	331.31423020362854	0.9930739402770996
113	159.37415218353271	response	0	k		111.0	/experiments/knapen_aot/AOT/AOT_stimuli/pictures/0399_fw.png	332.2935721874237	
114	159.38788414001465	picture	0		137	112.0	/experiments/knapen_aot/AOT/AOT_stimuli/pictures/1288_fw.png	332.30730414390564	1.1457810401916504
114	160.52402210235596	response	0	j		112.0	/experiments/knapen_aot/AOT/AOT_stimuli/pictures/1288_fw.png	333.44344210624695	
115	160.5336651802063	picture	0		115	113.0	/experiments/knapen_aot/AOT/AOT_stimuli/pictures/1509_fw.png	333.4530851840973	0.9583308696746826
115	161.48249506950378	response	0	j		113.0	/experiments/knapen_aot/AOT/AOT_stimuli/pictures/1509_fw.png	334.4019150733948	
116	161.49199604988098	picture	0		177	114.0	/experiments/knapen_aot/AOT/AOT_stimuli/pictures/1352_fw.png	334.411416053772	1.479323148727417
116	162.95741200447083	response	0	j		114.0	/experiments/knapen_aot/AOT/AOT_stimuli/pictures/1352_fw.png	335.8768320083618	
117	162.9713191986084	picture	0		147	115.0	/experiments/knapen_aot/AOT/AOT_stimuli/pictures/0106_fw.png	335.8907392024994	1.229043960571289
117	164.19067311286926	response	0	j		115.0	/experiments/knapen_aot/AOT/AOT_stimuli/pictures/0106_fw.png	337.11009311676025	
118	164.2003631591797	picture	0		109	116.0	/experiments/knapen_aot/AOT/AOT_stimuli/pictures/0582_fw.png	337.1197831630707	0.9096570014953613
118	165.09896421432495	response	0	j		116.0	/experiments/knapen_aot/AOT/AOT_stimuli/pictures/0582_fw.png	338.01838421821594	
119	165.11002016067505	picture	0		158	117.0	/experiments/knapen_aot/AOT/AOT_stimuli/pictures/1652_fw.png	338.02944016456604	1.3195078372955322
119	166.4089550971985	response	0	j		117.0	/experiments/knapen_aot/AOT/AOT_stimuli/pictures/1652_fw.png	339.3283751010895	
120	166.42952799797058	picture	0		113	118.0	/experiments/knapen_aot/AOT/AOT_stimuli/pictures/0169_fw.png	339.3489480018616	0.9443540573120117
120	167.36567902565002	response	0	j		118.0	/experiments/knapen_aot/AOT/AOT_stimuli/pictures/0169_fw.png	340.285099029541	
121	167.3738820552826	picture	0		147	119.0	/experiments/knapen_aot/AOT/AOT_stimuli/pictures/1481_fw.png	340.2933020591736	1.229175090789795
121	168.59069418907166	response	0	k		119.0	/experiments/knapen_aot/AOT/AOT_stimuli/pictures/1481_fw.png	341.51011419296265	
122	168.6030571460724	picture	0		113	120.0	/experiments/knapen_aot/AOT/AOT_stimuli/pictures/1162_fw.png	341.5224771499634	0.9374890327453613
122	169.53226518630981	response	0	j		120.0	/experiments/knapen_aot/AOT/AOT_stimuli/pictures/1162_fw.png	342.4516851902008	
123	169.54054617881775	picture	0		237	121.0	/experiments/knapen_aot/AOT/AOT_stimuli/pictures/1856_fw.png	342.45996618270874	1.9791259765625
123	171.50734519958496	response	0	k		121.0	/experiments/knapen_aot/AOT/AOT_stimuli/pictures/1856_fw.png	344.42676520347595	
124	171.51967215538025	picture	0		116	122.0	/experiments/knapen_aot/AOT/AOT_stimuli/pictures/1572_fw.png	344.43909215927124	0.9708690643310547
124	172.47399306297302	response	0	k		122.0	/experiments/knapen_aot/AOT/AOT_stimuli/pictures/1572_fw.png	345.393413066864	
125	172.4905412197113	picture	0		102	123.0	/experiments/knapen_aot/AOT/AOT_stimuli/pictures/1853_fw.png	345.4099612236023	0.8555858135223389
125	173.33228516578674	response	0	k		123.0	/experiments/knapen_aot/AOT/AOT_stimuli/pictures/1853_fw.png	346.25170516967773	
126	173.34612703323364	picture	0		126	124.0	/experiments/knapen_aot/AOT/AOT_stimuli/pictures/0275_fw.png	346.26554703712463	1.0555570125579834
126	174.39060401916504	response	0	k		124.0	/experiments/knapen_aot/AOT/AOT_stimuli/pictures/0275_fw.png	347.31002402305603	
127	174.40168404579163	picture	0		134	125.0	/experiments/knapen_aot/AOT/AOT_stimuli/pictures/1339_fw.png	347.3211040496826	1.1179530620574951
127	175.5072522163391	response	0	k		125.0	/experiments/knapen_aot/AOT/AOT_stimuli/pictures/1339_fw.png	348.4266722202301	
128	175.51963710784912	picture	0		135	126.0	/experiments/knapen_aot/AOT/AOT_stimuli/pictures/0899_fw.png	348.4390571117401	1.1249821186065674
128	176.6256160736084	response	0	k		126.0	/experiments/knapen_aot/AOT/AOT_stimuli/pictures/0899_fw.png	349.5450360774994	
129	176.6446192264557	picture	0		124	127.0	/experiments/knapen_aot/AOT/AOT_stimuli/pictures/0006_fw.png	349.5640392303467	1.0375869274139404
129	177.6656391620636	response	0	j		127.0	/experiments/knapen_aot/AOT/AOT_stimuli/pictures/0006_fw.png	350.5850591659546	
130	177.68220615386963	picture	0		107	128.0	/experiments/knapen_aot/AOT/AOT_stimuli/pictures/2152_fw.png	350.6016261577606	0.8929610252380371
130	178.56565809249878	response	0	j		128.0	/experiments/knapen_aot/AOT/AOT_stimuli/pictures/2152_fw.png	351.48507809638977	
131	178.57516717910767	picture	0		125	129.0	/experiments/knapen_aot/AOT/AOT_stimuli/pictures/1274_fw.png	351.49458718299866	1.0416548252105713
131	179.6073009967804	response	0	k		129.0	/experiments/knapen_aot/AOT/AOT_stimuli/pictures/1274_fw.png	352.5267210006714	
132	179.61682200431824	picture	0		133	130.0	/experiments/knapen_aot/AOT/AOT_stimuli/pictures/0233_fw.png	352.53624200820923	1.111119031906128
132	180.71562099456787	response	0	k		130.0	/experiments/knapen_aot/AOT/AOT_stimuli/pictures/0233_fw.png	353.63504099845886	
133	180.72794103622437	picture	0		146	131.0	/experiments/knapen_aot/AOT/AOT_stimuli/pictures/0367_fw.png	353.64736104011536	1.2152431011199951
133	181.932293176651	response	0	k		131.0	/experiments/knapen_aot/AOT/AOT_stimuli/pictures/0367_fw.png	354.851713180542	
134	181.94318413734436	picture	0		265	132.0	/experiments/knapen_aot/AOT/AOT_stimuli/pictures/1892_fw.png	354.86260414123535	2.2083709239959717
134	184.1406111717224	response	0	j		132.0	/experiments/knapen_aot/AOT/AOT_stimuli/pictures/1892_fw.png	357.0600311756134	
135	184.15155506134033	picture	0		130	133.0	/experiments/knapen_aot/AOT/AOT_stimuli/pictures/1395_fw.png	357.0709750652313	1.083245038986206
135	185.21718502044678	response	0	j		133.0	/experiments/knapen_aot/AOT/AOT_stimuli/pictures/1395_fw.png	358.13660502433777	
136	185.23480010032654	picture	0		167	134.0	/experiments/knapen_aot/AOT/AOT_stimuli/pictures/0646_fw.png	358.15422010421753	1.3890070915222168
136	186.6089220046997	response	0	k		134.0	/experiments/knapen_aot/AOT/AOT_stimuli/pictures/0646_fw.png	359.5283420085907	
137	186.62380719184875	picture	0		140	135.0	/experiments/knapen_aot/AOT/AOT_stimuli/pictures/0100_fw.png	359.54322719573975	1.1667029857635498
137	187.7821991443634	response	0	k		135.0	/experiments/knapen_aot/AOT/AOT_stimuli/pictures/0100_fw.png	360.7016191482544	
138	187.7905101776123	picture	0		133	136.0	/experiments/knapen_aot/AOT/AOT_stimuli/pictures/0591_fw.png	360.7099301815033	1.1109750270843506
138	188.89060020446777	response	0	j		136.0	/experiments/knapen_aot/AOT/AOT_stimuli/pictures/0591_fw.png	361.81002020835876	
139	188.90148520469666	picture	0		143	137.0	/experiments/knapen_aot/AOT/AOT_stimuli/pictures/0362_fw.png	361.82090520858765	1.1973419189453125
139	190.08223605155945	response	0	k		137.0	/experiments/knapen_aot/AOT/AOT_stimuli/pictures/0362_fw.png	363.00165605545044	
140	190.09882712364197	picture	0		117	138.0	/experiments/knapen_aot/AOT/AOT_stimuli/pictures/2174_fw.png	363.01824712753296	0.9762210845947266
140	191.06552910804749	response	0	j		138.0	/experiments/knapen_aot/AOT/AOT_stimuli/pictures/2174_fw.png	363.9849491119385	
141	191.0750482082367	picture	0		117	139.0	/experiments/knapen_aot/AOT/AOT_stimuli/pictures/0740_fw.png	363.9944682121277	0.9820849895477295
141	192.03382921218872	response	0	k		139.0	/experiments/knapen_aot/AOT/AOT_stimuli/pictures/0740_fw.png	364.9532492160797	
142	192.05713319778442	picture	0		237	140.0	/experiments/knapen_aot/AOT/AOT_stimuli/pictures/2122_fw.png	364.9765532016754	1.9762380123138428
142	194.01706504821777	response	0	j		140.0	/experiments/knapen_aot/AOT/AOT_stimuli/pictures/2122_fw.png	366.93648505210876	
143	194.03337121009827	picture	0		134	141.0	/experiments/knapen_aot/AOT/AOT_stimuli/pictures/1911_fw.png	366.95279121398926	1.1180799007415771
143	195.1405382156372	response	0	j		141.0	/experiments/knapen_aot/AOT/AOT_stimuli/pictures/1911_fw.png	368.0599582195282	
144	195.15145111083984	picture	0		142	142.0	/experiments/knapen_aot/AOT/AOT_stimuli/pictures/0464_fw.png	368.07087111473083	1.1806449890136719
144	196.32391214370728	response	0	j		142.0	/experiments/knapen_aot/AOT/AOT_stimuli/pictures/0464_fw.png	369.24333214759827	
145	196.33209609985352	picture	0		94	143.0	/experiments/knapen_aot/AOT/AOT_stimuli/pictures/1580_fw.png	369.2515161037445	0.7845840454101562
145	197.10721921920776	response	0	j		143.0	/experiments/knapen_aot/AOT/AOT_stimuli/pictures/1580_fw.png	370.02663922309875	
146	197.11668014526367	picture	0		120	144.0	/experiments/knapen_aot/AOT/AOT_stimuli/pictures/0124_fw.png	370.03610014915466	0.999985933303833
146	198.10720920562744	response	0	k		144.0	/experiments/knapen_aot/AOT/AOT_stimuli/pictures/0124_fw.png	371.02662920951843	
147	198.1166660785675	picture	0		134	145.0	/experiments/knapen_aot/AOT/AOT_stimuli/pictures/2073_fw.png	371.0360860824585	1.1180241107940674
147	199.21706008911133	response	0	k		145.0	/experiments/knapen_aot/AOT/AOT_stimuli/pictures/2073_fw.png	372.1364800930023	
148	199.23469018936157	picture	0		111	146.0	/experiments/knapen_aot/AOT/AOT_stimuli/pictures/1192_fw.png	372.15411019325256	0.9236059188842773
148	200.14883399009705	response	0	k		146.0	/experiments/knapen_aot/AOT/AOT_stimuli/pictures/1192_fw.png	373.06825399398804	
149	200.15829610824585	picture	0		276	147.0	/experiments/knapen_aot/AOT/AOT_stimuli/pictures/1747_fw.png	373.07771611213684	2.2987890243530273
149	202.44205713272095	response	0	j		147.0	/experiments/knapen_aot/AOT/AOT_stimuli/pictures/1747_fw.png	375.36147713661194	
150	202.45708513259888	picture	0		98	148.0	/experiments/knapen_aot/AOT/AOT_stimuli/pictures/0492_fw.png	375.37650513648987	0.8192648887634277
150	203.26540112495422	response	0	j		148.0	/experiments/knapen_aot/AOT/AOT_stimuli/pictures/0492_fw.png	376.1848211288452	
151	203.2763500213623	picture	0		116	149.0	/experiments/knapen_aot/AOT/AOT_stimuli/pictures/1985_fw.png	376.1957700252533	0.9652600288391113
151	204.2254400253296	response	0	j		149.0	/experiments/knapen_aot/AOT/AOT_stimuli/pictures/1985_fw.png	377.1448600292206	
152	204.24161005020142	picture	0		126	150.0	/experiments/knapen_aot/AOT/AOT_stimuli/pictures/0009_fw.png	377.1610300540924	1.0487861633300781
152	205.28211307525635	response	0	k		150.0	/experiments/knapen_aot/AOT/AOT_stimuli/pictures/0009_fw.png	378.20153307914734	
153	205.2903962135315	picture	0		214	151.0	/experiments/knapen_aot/AOT/AOT_stimuli/pictures/1176_fw.png	378.2098162174225	1.7916748523712158
153	207.06549501419067	response	0	k		151.0	/experiments/knapen_aot/AOT/AOT_stimuli/pictures/1176_fw.png	379.98491501808167	
154	207.0820710659027	picture	0		110	152.0	/experiments/knapen_aot/AOT/AOT_stimuli/pictures/1709_fw.png	380.0014910697937	0.9166059494018555
154	207.99052000045776	response	0	j		152.0	/experiments/knapen_aot/AOT/AOT_stimuli/pictures/1709_fw.png	380.90994000434875	
155	207.99867701530457	picture	0		106	153.0	/experiments/knapen_aot/AOT/AOT_stimuli/pictures/0840_fw.png	380.91809701919556	0.8917310237884521
155	208.87375712394714	response	0	j		153.0	/experiments/knapen_aot/AOT/AOT_stimuli/pictures/0840_fw.png	381.79317712783813	
156	208.89040803909302	picture	0		106	154.0	/experiments/knapen_aot/AOT/AOT_stimuli/pictures/1266_fw.png	381.809828042984	0.8916831016540527
156	209.7655041217804	response	0	k		154.0	/experiments/knapen_aot/AOT/AOT_stimuli/pictures/1266_fw.png	382.6849241256714	
157	209.78209114074707	picture	0		96	155.0	/experiments/knapen_aot/AOT/AOT_stimuli/pictures/2101_fw.png	382.70151114463806	0.8082818984985352
157	210.5737521648407	response	0	j		155.0	/experiments/knapen_aot/AOT/AOT_stimuli/pictures/2101_fw.png	383.4931721687317	
158	210.5903730392456	picture	0		289	156.0	/experiments/knapen_aot/AOT/AOT_stimuli/pictures/1886_fw.png	383.5097930431366	2.4083480834960938
158	212.99051809310913	response	0	k		156.0	/experiments/knapen_aot/AOT/AOT_stimuli/pictures/1886_fw.png	385.9099380970001	
159	212.9987211227417	picture	0		115	157.0	/experiments/knapen_aot/AOT/AOT_stimuli/pictures/2009_fw.png	385.9181411266327	0.965087890625
159	213.9488170146942	response	0	k		157.0	/experiments/knapen_aot/AOT/AOT_stimuli/pictures/2009_fw.png	386.8682370185852	
160	213.9638090133667	picture	0		100	158.0	/experiments/knapen_aot/AOT/AOT_stimuli/pictures/0662_fw.png	386.8832290172577	0.8402891159057617
160	214.7905240058899	response	0	k		158.0	/experiments/knapen_aot/AOT/AOT_stimuli/pictures/0662_fw.png	387.7099440097809	
161	214.80409812927246	picture	0		119	159.0	/experiments/knapen_aot/AOT/AOT_stimuli/pictures/0004_fw.png	387.72351813316345	0.9999160766601562
161	215.7904372215271	response	0	j		159.0	/experiments/knapen_aot/AOT/AOT_stimuli/pictures/0004_fw.png	388.7098572254181	
162	215.80401420593262	picture	0		142	160.0	/experiments/knapen_aot/AOT/AOT_stimuli/pictures/1182_fw.png	388.7234342098236	1.1874759197235107
162	216.98216319084167	response	0	j		160.0	/experiments/knapen_aot/AOT/AOT_stimuli/pictures/1182_fw.png	389.90158319473267	
163	216.99149012565613	picture	0		293	161.0	/experiments/knapen_aot/AOT/AOT_stimuli/pictures/1058_fw.png	389.9109101295471	2.444355010986328
163	219.4238030910492	response	0	k		161.0	/experiments/knapen_aot/AOT/AOT_stimuli/pictures/1058_fw.png	392.3432230949402	
164	219.43584513664246	picture	0		117	162.0	/experiments/knapen_aot/AOT/AOT_stimuli/pictures/1970_fw.png	392.35526514053345	0.9722719192504883
164	220.39878821372986	response	0	j		162.0	/experiments/knapen_aot/AOT/AOT_stimuli/pictures/1970_fw.png	393.31820821762085	
165	220.40811705589294	picture	0		110	163.0	/experiments/knapen_aot/AOT/AOT_stimuli/pictures/0708_fw.png	393.32753705978394	0.9166340827941895
165	221.3154001235962	response	0	j		163.0	/experiments/knapen_aot/AOT/AOT_stimuli/pictures/0708_fw.png	394.2348201274872	
166	221.32475113868713	picture	0		209	164.0	/experiments/knapen_aot/AOT/AOT_stimuli/pictures/0064_fw.png	394.2441711425781	1.7489089965820312
166	223.05033206939697	response	0	k		164.0	/experiments/knapen_aot/AOT/AOT_stimuli/pictures/0064_fw.png	395.96975207328796	
167	223.07366013526917	picture	0		100	165.0	/experiments/knapen_aot/AOT/AOT_stimuli/pictures/1599_fw.png	395.99308013916016	0.8344070911407471
167	223.89874410629272	response	0	j		165.0	/experiments/knapen_aot/AOT/AOT_stimuli/pictures/1599_fw.png	396.8181641101837	
168	223.9080672264099	picture	0		138	166.0	/experiments/knapen_aot/AOT/AOT_stimuli/pictures/1845_fw.png	396.8274872303009	1.1527397632598877
168	225.0420160293579	response	0	k		166.0	/experiments/knapen_aot/AOT/AOT_stimuli/pictures/1845_fw.png	397.9614360332489	
169	225.0608069896698	picture	0		117	167.0	/experiments/knapen_aot/AOT/AOT_stimuli/pictures/1050_fw.png	397.9802269935608	0.9722621440887451
169	226.0237581729889	response	0	k		167.0	/experiments/knapen_aot/AOT/AOT_stimuli/pictures/1050_fw.png	398.9431781768799	
170	226.03306913375854	picture	0		114	168.0	/experiments/knapen_aot/AOT/AOT_stimuli/pictures/1563_fw.png	398.95248913764954	0.9572489261627197
170	226.97368502616882	response	0	k		168.0	/experiments/knapen_aot/AOT/AOT_stimuli/pictures/1563_fw.png	399.8931050300598	
171	226.99031805992126	picture	0		120	169.0	/experiments/knapen_aot/AOT/AOT_stimuli/pictures/0466_fw.png	399.90973806381226	1.0010430812835693
171	227.98203706741333	response	0	k		169.0	/experiments/knapen_aot/AOT/AOT_stimuli/pictures/0466_fw.png	400.9014570713043	
172	227.99136114120483	picture	0		132	170.0	/experiments/knapen_aot/AOT/AOT_stimuli/pictures/2119_fw.png	400.9107811450958	1.1041319370269775
172	229.0819911956787	response	0	j		170.0	/experiments/knapen_aot/AOT/AOT_stimuli/pictures/2119_fw.png	402.0014111995697	
173	229.0954930782318	picture	0		125	171.0	/experiments/knapen_aot/AOT/AOT_stimuli/pictures/1751_fw.png	402.0149130821228	1.0486299991607666
173	230.13206911087036	response	0	j		171.0	/experiments/knapen_aot/AOT/AOT_stimuli/pictures/1751_fw.png	403.05148911476135	
174	230.14412307739258	picture	0		129	172.0	/experiments/knapen_aot/AOT/AOT_stimuli/pictures/0676_fw.png	403.06354308128357	1.0765039920806885
174	231.2069981098175	response	0	k		172.0	/experiments/knapen_aot/AOT/AOT_stimuli/pictures/0676_fw.png	404.1264181137085	
175	231.22062706947327	picture	0		177	173.0	/experiments/knapen_aot/AOT/AOT_stimuli/pictures/1387_fw.png	404.14004707336426	1.4866070747375488
175	232.6903932094574	response	0	k		173.0	/experiments/knapen_aot/AOT/AOT_stimuli/pictures/1387_fw.png	405.6098132133484	
176	232.70723414421082	picture	0		215	174.0	/experiments/knapen_aot/AOT/AOT_stimuli/pictures/1175_fw.png	405.6266541481018	1.799699068069458
176	234.4903600215912	response	0	k		174.0	/experiments/knapen_aot/AOT/AOT_stimuli/pictures/1175_fw.png	407.4097800254822	
177	234.50693321228027	picture	0		117	175.0	/experiments/knapen_aot/AOT/AOT_stimuli/pictures/1765_fw.png	407.42635321617126	0.977388858795166
177	235.47362208366394	response	0	k		175.0	/experiments/knapen_aot/AOT/AOT_stimuli/pictures/1765_fw.png	408.39304208755493	
178	235.48432207107544	picture	0		114	176.0	/experiments/knapen_aot/AOT/AOT_stimuli/pictures/0116_fw.png	408.40374207496643	0.9559550285339355
178	236.42372512817383	response	0	j		176.0	/experiments/knapen_aot/AOT/AOT_stimuli/pictures/0116_fw.png	409.3431451320648	
179	236.44027709960938	picture	0		125	177.0	/experiments/knapen_aot/AOT/AOT_stimuli/pictures/1069_fw.png	409.35969710350037	1.0499849319458008
179	237.47370100021362	response	0	k		177.0	/experiments/knapen_aot/AOT/AOT_stimuli/pictures/1069_fw.png	410.3931210041046	
180	237.49026203155518	picture	0		116	178.0	/experiments/knapen_aot/AOT/AOT_stimuli/pictures/1338_fw.png	410.40968203544617	0.9666390419006348
180	238.44186902046204	response	0	j		178.0	/experiments/knapen_aot/AOT/AOT_stimuli/pictures/1338_fw.png	411.361289024353	
181	238.4569010734558	picture	0		110	179.0	/experiments/knapen_aot/AOT/AOT_stimuli/pictures/1216_fw.png	411.3763210773468	0.9166669845581055
181	239.3653302192688	response	0	j		179.0	/experiments/knapen_aot/AOT/AOT_stimuli/pictures/1216_fw.png	412.2847502231598	
182	239.37356805801392	stim	0		639			412.2929880619049	5.326005935668945
182	240.9153070449829	response	0	j				413.8347270488739	
182	241.69033122062683	response	0	k				414.6097512245178	
182	244.69026899337769	response	0	space				417.6096889972687	
