trial_nr	onset	event_type	phase	response	nr_frames	picture_index	picture_file	onset_abs	duration
0	0.15845894813537598	stim	0		820			81.39166498184204	6.858072996139526
0	6.98434591293335	response	0	space				88.21755194664001	
2	7.016531944274902	picture	0		196	0.0	/experiments/knapen_aot/AOT/AOT_stimuli/pictures/1533_fw.png	88.24973797798157	1.641491174697876
2	8.641561031341553	response	0	k		0.0	/experiments/knapen_aot/AOT/AOT_stimuli/pictures/1533_fw.png	89.87476706504822	
3	8.658023118972778	picture	0		116	1.0	/experiments/knapen_aot/AOT/AOT_stimuli/pictures/0086_fw.png	89.89122915267944	0.9695727825164795
3	9.616482019424438	response	0	j		1.0	/experiments/knapen_aot/AOT/AOT_stimuli/pictures/0086_fw.png	90.8496880531311	
4	9.627595901489258	picture	0		143	2.0	/experiments/knapen_aot/AOT/AOT_stimuli/pictures/1698_fw.png	90.86080193519592	1.1944282054901123
4	10.801353931427002	response	0	k		2.0	/experiments/knapen_aot/AOT/AOT_stimuli/pictures/1698_fw.png	92.03455996513367	
5	10.82202410697937	picture	0		103	3.0	/experiments/knapen_aot/AOT/AOT_stimuli/pictures/1639_fw.png	92.05523014068604	0.8610799312591553
5	11.674782037734985	response	0	k		3.0	/experiments/knapen_aot/AOT/AOT_stimuli/pictures/1639_fw.png	92.90798807144165	
6	11.683104038238525	picture	0		93	4.0	/experiments/knapen_aot/AOT/AOT_stimuli/pictures/0113_fw.png	92.91631007194519	0.7778198719024658
6	12.44982099533081	response	0	j		4.0	/experiments/knapen_aot/AOT/AOT_stimuli/pictures/0113_fw.png	93.68302702903748	
7	12.460923910140991	picture	0		119	5.0	/experiments/knapen_aot/AOT/AOT_stimuli/pictures/1712_fw.png	93.69412994384766	0.9930191040039062
7	13.441340923309326	response	0	k		5.0	/experiments/knapen_aot/AOT/AOT_stimuli/pictures/1712_fw.png	94.67454695701599	
8	13.453943014144897	picture	0		119	6.0	/experiments/knapen_aot/AOT/AOT_stimuli/pictures/0545_fw.png	94.68714904785156	0.9930629730224609
8	14.433207035064697	response	0	k		6.0	/experiments/knapen_aot/AOT/AOT_stimuli/pictures/0545_fw.png	95.66641306877136	
9	14.447005987167358	picture	0		93	7.0	/experiments/knapen_aot/AOT/AOT_stimuli/pictures/0597_fw.png	95.68021202087402	0.7777650356292725
9	15.216430902481079	response	0	j		7.0	/experiments/knapen_aot/AOT/AOT_stimuli/pictures/0597_fw.png	96.44963693618774	
10	15.22477102279663	picture	0		302	8.0	/experiments/knapen_aot/AOT/AOT_stimuli/pictures/0421_fw.png	96.4579770565033	2.5208020210266113
10	17.733092069625854	response	0	j		8.0	/experiments/knapen_aot/AOT/AOT_stimuli/pictures/0421_fw.png	98.96629810333252	
11	17.745573043823242	picture	0		93	9.0	/experiments/knapen_aot/AOT/AOT_stimuli/pictures/0518_fw.png	98.97877907752991	0.7707600593566895
11	18.508095026016235	response	0	k		9.0	/experiments/knapen_aot/AOT/AOT_stimuli/pictures/0518_fw.png	99.7413010597229	
12	18.51633310317993	picture	0		98	10.0	/experiments/knapen_aot/AOT/AOT_stimuli/pictures/0787_fw.png	99.7495391368866	0.819511890411377
12	19.32468891143799	response	0	j		10.0	/experiments/knapen_aot/AOT/AOT_stimuli/pictures/0787_fw.png	100.55789494514465	
13	19.33584499359131	picture	0		389	11.0	/experiments/knapen_aot/AOT/AOT_stimuli/pictures/1961_fw.png	100.56905102729797	3.243022918701172
13	22.566385984420776	response	0	k		11.0	/experiments/knapen_aot/AOT/AOT_stimuli/pictures/1961_fw.png	103.79959201812744	
14	22.57886791229248	picture	0		150	12.0	/experiments/knapen_aot/AOT/AOT_stimuli/pictures/0388_fw.png	103.81207394599915	1.2500150203704834
14	23.816375017166138	response	0	j		12.0	/experiments/knapen_aot/AOT/AOT_stimuli/pictures/0388_fw.png	105.0495810508728	
15	23.828882932662964	picture	0		256	13.0	/experiments/knapen_aot/AOT/AOT_stimuli/pictures/0709_fw.png	105.06208896636963	2.131913185119629
15	25.949722051620483	response	0	j		13.0	/experiments/knapen_aot/AOT/AOT_stimuli/pictures/0709_fw.png	107.18292808532715	
16	25.960796117782593	picture	0		96	14.0	/experiments/knapen_aot/AOT/AOT_stimuli/pictures/2010_fw.png	107.19400215148926	0.7986137866973877
16	26.749725103378296	response	0	k		14.0	/experiments/knapen_aot/AOT/AOT_stimuli/pictures/2010_fw.png	107.98293113708496	
17	26.75940990447998	picture	0		123	15.0	/experiments/knapen_aot/AOT/AOT_stimuli/pictures/1302_fw.png	107.99261593818665	1.0277390480041504
17	27.774693965911865	response	0	k		15.0	/experiments/knapen_aot/AOT/AOT_stimuli/pictures/1302_fw.png	109.00789999961853	
18	27.78714895248413	picture	0		194	16.0	/experiments/knapen_aot/AOT/AOT_stimuli/pictures/1722_fw.png	109.0203549861908	1.6180810928344727
18	29.384644985198975	response	0	k		16.0	/experiments/knapen_aot/AOT/AOT_stimuli/pictures/1722_fw.png	110.61785101890564	
19	29.405230045318604	picture	0		98	17.0	/experiments/knapen_aot/AOT/AOT_stimuli/pictures/0892_fw.png	110.63843607902527	0.8193659782409668
19	30.216346979141235	response	0	k		17.0	/experiments/knapen_aot/AOT/AOT_stimuli/pictures/0892_fw.png	111.4495530128479	
20	30.22459602355957	picture	0		80	18.0	/experiments/knapen_aot/AOT/AOT_stimuli/pictures/1886_fw.png	111.45780205726624	0.6666710376739502
20	30.88313889503479	response	0	j		18.0	/experiments/knapen_aot/AOT/AOT_stimuli/pictures/1886_fw.png	112.11634492874146	
21	30.89126706123352	picture	0		164	19.0	/experiments/knapen_aot/AOT/AOT_stimuli/pictures/1467_fw.png	112.12447309494019	1.3681819438934326
21	32.249727964401245	response	0	j		19.0	/experiments/knapen_aot/AOT/AOT_stimuli/pictures/1467_fw.png	113.48293399810791	
22	32.25944900512695	picture	0		112	20.0	/experiments/knapen_aot/AOT/AOT_stimuli/pictures/0708_fw.png	113.49265503883362	0.9374659061431885
22	33.1761679649353	response	0	j		20.0	/experiments/knapen_aot/AOT/AOT_stimuli/pictures/0708_fw.png	114.40937399864197	
23	33.19691491127014	picture	0		116	21.0	/experiments/knapen_aot/AOT/AOT_stimuli/pictures/1845_fw.png	114.4301209449768	0.9720900058746338
23	34.158008098602295	response	0	k		21.0	/experiments/knapen_aot/AOT/AOT_stimuli/pictures/1845_fw.png	115.39121413230896	
24	34.169004917144775	picture	0		120	22.0	/experiments/knapen_aot/AOT/AOT_stimuli/pictures/0289_fw.png	115.40221095085144	0.999993085861206
24	35.158003091812134	response	0	k		22.0	/experiments/knapen_aot/AOT/AOT_stimuli/pictures/0289_fw.png	116.3912091255188	
25	35.16899800300598	picture	0		95	23.0	/experiments/knapen_aot/AOT/AOT_stimuli/pictures/1310_fw.png	116.40220403671265	0.7918210029602051
25	35.94968390464783	response	0	j		23.0	/experiments/knapen_aot/AOT/AOT_stimuli/pictures/1310_fw.png	117.18288993835449	
26	35.96081900596619	picture	0		466	24.0	/experiments/knapen_aot/AOT/AOT_stimuli/pictures/0134_fw.png	117.19402503967285	3.881761074066162
26	39.83298301696777	response	0	j		24.0	/experiments/knapen_aot/AOT/AOT_stimuli/pictures/0134_fw.png	121.06618905067444	
27	39.84258008003235	picture	0		93	25.0	/experiments/knapen_aot/AOT/AOT_stimuli/pictures/0415_fw.png	121.07578611373901	0.7777738571166992
27	40.601155042648315	response	0	k		25.0	/experiments/knapen_aot/AOT/AOT_stimuli/pictures/0415_fw.png	121.83436107635498	
28	40.62035393714905	picture	0		107	26.0	/experiments/knapen_aot/AOT/AOT_stimuli/pictures/1761_fw.png	121.85355997085571	0.8888850212097168
28	41.49967408180237	response	0	k		26.0	/experiments/knapen_aot/AOT/AOT_stimuli/pictures/1761_fw.png	122.73288011550903	
29	41.509238958358765	picture	0		222	27.0	/experiments/knapen_aot/AOT/AOT_stimuli/pictures/1025_fw.png	122.74244499206543	1.8569481372833252
29	43.34965491294861	response	0	k		27.0	/experiments/knapen_aot/AOT/AOT_stimuli/pictures/1025_fw.png	124.58286094665527	
30	43.36618709564209	picture	0		89	28.0	/experiments/knapen_aot/AOT/AOT_stimuli/pictures/2161_fw.png	124.59939312934875	0.7471969127655029
30	44.09963297843933	response	0	j		28.0	/experiments/knapen_aot/AOT/AOT_stimuli/pictures/2161_fw.png	125.332839012146	
31	44.11338400840759	picture	0		109	29.0	/experiments/knapen_aot/AOT/AOT_stimuli/pictures/1204_fw.png	125.34659004211426	0.9166810512542725
31	45.01633095741272	response	0	j		29.0	/experiments/knapen_aot/AOT/AOT_stimuli/pictures/1204_fw.png	126.24953699111938	
32	45.030065059661865	picture	0		164	30.0	/experiments/knapen_aot/AOT/AOT_stimuli/pictures/1083_fw.png	126.26327109336853	1.3749749660491943
32	46.384401082992554	response	0	k		30.0	/experiments/knapen_aot/AOT/AOT_stimuli/pictures/1083_fw.png	127.61760711669922	
33	46.40504002571106	picture	0		85	31.0	/experiments/knapen_aot/AOT/AOT_stimuli/pictures/1553_fw.png	127.63824605941772	0.7152609825134277
33	47.10797190666199	response	0	j		31.0	/experiments/knapen_aot/AOT/AOT_stimuli/pictures/1553_fw.png	128.34117794036865	
34	47.12030100822449	picture	0		144	32.0	/experiments/knapen_aot/AOT/AOT_stimuli/pictures/1677_fw.png	128.35350704193115	1.2083330154418945
34	48.31626892089844	response	0	k		32.0	/experiments/knapen_aot/AOT/AOT_stimuli/pictures/1677_fw.png	129.5494749546051	
35	48.32863402366638	picture	0		224	33.0	/experiments/knapen_aot/AOT/AOT_stimuli/pictures/0735_fw.png	129.56184005737305	1.8749420642852783
35	50.18438410758972	response	0	k		33.0	/experiments/knapen_aot/AOT/AOT_stimuli/pictures/0735_fw.png	131.4175901412964	
36	50.20357608795166	picture	0		165	34.0	/experiments/knapen_aot/AOT/AOT_stimuli/pictures/1517_fw.png	131.43678212165833	1.3750028610229492
36	51.56631803512573	response	0	j		34.0	/experiments/knapen_aot/AOT/AOT_stimuli/pictures/1517_fw.png	132.7995240688324	
37	51.57857894897461	picture	0		120	35.0	/experiments/knapen_aot/AOT/AOT_stimuli/pictures/1391_fw.png	132.81178498268127	1.007068157196045
37	52.56636691093445	response	0	k		35.0	/experiments/knapen_aot/AOT/AOT_stimuli/pictures/1391_fw.png	133.7995729446411	
38	52.585647106170654	picture	0		184	36.0	/experiments/knapen_aot/AOT/AOT_stimuli/pictures/2061_fw.png	133.81885313987732	1.5345799922943115
38	54.107954025268555	response	0	j		36.0	/experiments/knapen_aot/AOT/AOT_stimuli/pictures/2061_fw.png	135.34116005897522	
39	54.120227098464966	picture	0		106	37.0	/experiments/knapen_aot/AOT/AOT_stimuli/pictures/2032_fw.png	135.35343313217163	0.8819339275360107
39	54.984519958496094	response	0	k		37.0	/experiments/knapen_aot/AOT/AOT_stimuli/pictures/2032_fw.png	136.21772599220276	
40	55.00216102600098	picture	0		121	38.0	/experiments/knapen_aot/AOT/AOT_stimuli/pictures/1423_fw.png	136.23536705970764	1.0069339275360107
40	55.992785930633545	response	0	k		38.0	/experiments/knapen_aot/AOT/AOT_stimuli/pictures/1423_fw.png	137.2259919643402	
41	56.00909495353699	picture	0		145	39.0	/experiments/knapen_aot/AOT/AOT_stimuli/pictures/0813_fw.png	137.24230098724365	1.2082750797271729
41	57.20118308067322	response	0	k		39.0	/experiments/knapen_aot/AOT/AOT_stimuli/pictures/0813_fw.png	138.43438911437988	
42	57.21737003326416	picture	0		240	40.0	/experiments/knapen_aot/AOT/AOT_stimuli/pictures/0561_fw.png	138.45057606697083	2.0000460147857666
42	59.2011079788208	response	0	j		40.0	/experiments/knapen_aot/AOT/AOT_stimuli/pictures/0561_fw.png	140.43431401252747	
43	59.21741604804993	picture	0		161	41.0	/experiments/knapen_aot/AOT/AOT_stimuli/pictures/0244_fw.png	140.4506220817566	1.3403420448303223
43	60.54949402809143	response	0	k		41.0	/experiments/knapen_aot/AOT/AOT_stimuli/pictures/0244_fw.png	141.7827000617981	
44	60.55775809288025	picture	0		274	42.0	/experiments/knapen_aot/AOT/AOT_stimuli/pictures/0026_fw.png	141.7909641265869	2.2845799922943115
44	62.83285999298096	response	0	k		42.0	/experiments/knapen_aot/AOT/AOT_stimuli/pictures/0026_fw.png	144.06606602668762	
45	62.84233808517456	picture	0		108	43.0	/experiments/knapen_aot/AOT/AOT_stimuli/pictures/2079_fw.png	144.07554411888123	0.9028270244598389
45	63.7328999042511	response	0	j		43.0	/experiments/knapen_aot/AOT/AOT_stimuli/pictures/2079_fw.png	144.96610593795776	
46	63.7451651096344	picture	0		105	44.0	/experiments/knapen_aot/AOT/AOT_stimuli/pictures/1865_fw.png	144.97837114334106	0.8749527931213379
46	64.6011049747467	response	0	j		44.0	/experiments/knapen_aot/AOT/AOT_stimuli/pictures/1865_fw.png	145.83431100845337	
47	64.62011790275574	picture	0		836	45.0	/experiments/knapen_aot/AOT/AOT_stimuli/pictures/0540_fw.png	145.8533239364624	6.9792702198028564
47	71.58277702331543	response	0	j		45.0	/experiments/knapen_aot/AOT/AOT_stimuli/pictures/0540_fw.png	152.8159830570221	
48	71.5993881225586	picture	0		102	46.0	/experiments/knapen_aot/AOT/AOT_stimuli/pictures/0956_fw.png	152.83259415626526	0.8539848327636719
48	72.44111800193787	response	0	k		46.0	/experiments/knapen_aot/AOT/AOT_stimuli/pictures/0956_fw.png	153.67432403564453	
49	72.45337295532227	picture	0		103	47.0	/experiments/knapen_aot/AOT/AOT_stimuli/pictures/0488_fw.png	153.68657898902893	0.8611640930175781
49	73.29952311515808	response	0	j		47.0	/experiments/knapen_aot/AOT/AOT_stimuli/pictures/0488_fw.png	154.53272914886475	
50	73.31453704833984	picture	0		116	48.0	/experiments/knapen_aot/AOT/AOT_stimuli/pictures/1768_fw.png	154.5477430820465	0.9765210151672363
50	74.27451395988464	response	0	j		48.0	/experiments/knapen_aot/AOT/AOT_stimuli/pictures/1768_fw.png	155.5077199935913	
51	74.29105806350708	picture	0		99	49.0	/experiments/knapen_aot/AOT/AOT_stimuli/pictures/0552_fw.png	155.52426409721375	0.8289680480957031
51	75.1078200340271	response	0	k		49.0	/experiments/knapen_aot/AOT/AOT_stimuli/pictures/0552_fw.png	156.34102606773376	
52	75.12002611160278	picture	0		109	50.0	/experiments/knapen_aot/AOT/AOT_stimuli/pictures/2126_fw.png	156.35323214530945	0.909721851348877
52	76.00947403907776	response	0	j		50.0	/experiments/knapen_aot/AOT/AOT_stimuli/pictures/2126_fw.png	157.24268007278442	
53	76.02974796295166	picture	0		112	51.0	/experiments/knapen_aot/AOT/AOT_stimuli/pictures/0541_fw.png	157.26295399665833	0.9374749660491943
53	76.95779705047607	response	0	k		51.0	/experiments/knapen_aot/AOT/AOT_stimuli/pictures/0541_fw.png	158.19100308418274	
54	76.96722292900085	picture	0		135	52.0	/experiments/knapen_aot/AOT/AOT_stimuli/pictures/0697_fw.png	158.20042896270752	1.132127046585083
54	78.08285689353943	response	0	k		52.0	/experiments/knapen_aot/AOT/AOT_stimuli/pictures/0697_fw.png	159.3160629272461	
55	78.09934997558594	picture	0		139	53.0	/experiments/knapen_aot/AOT/AOT_stimuli/pictures/1462_fw.png	159.3325560092926	1.1595361232757568
55	79.24953603744507	response	0	j		53.0	/experiments/knapen_aot/AOT/AOT_stimuli/pictures/1462_fw.png	160.48274207115173	
56	79.2588860988617	picture	0		198	54.0	/experiments/knapen_aot/AOT/AOT_stimuli/pictures/1358_fw.png	160.49209213256836	1.6528007984161377
56	80.89949297904968	response	0	j		54.0	/experiments/knapen_aot/AOT/AOT_stimuli/pictures/1358_fw.png	162.13269901275635	
57	80.91168689727783	picture	0		135	55.0	/experiments/knapen_aot/AOT/AOT_stimuli/pictures/0625_fw.png	162.1448929309845	1.1249721050262451
57	82.01774096488953	response	0	k		55.0	/experiments/knapen_aot/AOT/AOT_stimuli/pictures/0625_fw.png	163.2509469985962	
58	82.03665900230408	picture	0		142	56.0	/experiments/knapen_aot/AOT/AOT_stimuli/pictures/2139_fw.png	163.26986503601074	1.1877210140228271
58	83.20930910110474	response	0	k		56.0	/experiments/knapen_aot/AOT/AOT_stimuli/pictures/2139_fw.png	164.4425151348114	
59	83.2243800163269	picture	0		131	57.0	/experiments/knapen_aot/AOT/AOT_stimuli/pictures/1592_fw.png	164.45758605003357	1.0969150066375732
59	84.30778002738953	response	0	k		57.0	/experiments/knapen_aot/AOT/AOT_stimuli/pictures/1592_fw.png	165.5409860610962	
60	84.32129502296448	picture	0		256	58.0	/experiments/knapen_aot/AOT/AOT_stimuli/pictures/1020_fw.png	165.55450105667114	2.1458170413970947
60	86.44942808151245	response	0	k		58.0	/experiments/knapen_aot/AOT/AOT_stimuli/pictures/1020_fw.png	167.68263411521912	
61	86.46711206436157	picture	0		122	59.0	/experiments/knapen_aot/AOT/AOT_stimuli/pictures/1920_fw.png	167.70031809806824	1.0208539962768555
61	87.47452592849731	response	0	j		59.0	/experiments/knapen_aot/AOT/AOT_stimuli/pictures/1920_fw.png	168.70773196220398	
62	87.48796606063843	picture	0		135	60.0	/experiments/knapen_aot/AOT/AOT_stimuli/pictures/0393_fw.png	168.7211720943451	1.1319389343261719
62	88.60103797912598	response	0	k		60.0	/experiments/knapen_aot/AOT/AOT_stimuli/pictures/0393_fw.png	169.83424401283264	
63	88.6199049949646	picture	0		115	61.0	/experiments/knapen_aot/AOT/AOT_stimuli/pictures/0213_fw.png	169.85311102867126	0.9583299160003662
63	89.56607007980347	response	0	j		61.0	/experiments/knapen_aot/AOT/AOT_stimuli/pictures/0213_fw.png	170.79927611351013	
64	89.57823491096497	picture	0		121	62.0	/experiments/knapen_aot/AOT/AOT_stimuli/pictures/0391_fw.png	170.81144094467163	1.0212080478668213
64	90.58271408081055	response	0	k		62.0	/experiments/knapen_aot/AOT/AOT_stimuli/pictures/0391_fw.png	171.8159201145172	
65	90.59944295883179	picture	0		138	63.0	/experiments/knapen_aot/AOT/AOT_stimuli/pictures/0874_fw.png	171.83264899253845	1.1582190990447998
65	91.74110102653503	response	0	k		63.0	/experiments/knapen_aot/AOT/AOT_stimuli/pictures/0874_fw.png	172.9743070602417	
66	91.75766205787659	picture	0		143	64.0	/experiments/knapen_aot/AOT/AOT_stimuli/pictures/0566_fw.png	172.99086809158325	1.2000000476837158
66	92.94116592407227	response	0	k		64.0	/experiments/knapen_aot/AOT/AOT_stimuli/pictures/0566_fw.png	174.17437195777893	
67	92.9576621055603	picture	0		197	65.0	/experiments/knapen_aot/AOT/AOT_stimuli/pictures/0743_fw.png	174.19086813926697	1.6416268348693848
67	94.59107208251953	response	0	k		65.0	/experiments/knapen_aot/AOT/AOT_stimuli/pictures/0743_fw.png	175.8242781162262	
68	94.59928894042969	picture	0		314	66.0	/experiments/knapen_aot/AOT/AOT_stimuli/pictures/1010_fw.png	175.83249497413635	2.62493896484375
68	97.20091509819031	response	0	k		66.0	/experiments/knapen_aot/AOT/AOT_stimuli/pictures/1010_fw.png	178.43412113189697	
69	97.22422790527344	picture	0		98	67.0	/experiments/knapen_aot/AOT/AOT_stimuli/pictures/1653_fw.png	178.4574339389801	0.8191862106323242
69	98.02599501609802	response	0	j		67.0	/experiments/knapen_aot/AOT/AOT_stimuli/pictures/1653_fw.png	179.2592010498047	
70	98.04341411590576	picture	0		129	68.0	/experiments/knapen_aot/AOT/AOT_stimuli/pictures/1429_fw.png	179.27662014961243	1.0763649940490723
70	99.1077139377594	response	0	k		68.0	/experiments/knapen_aot/AOT/AOT_stimuli/pictures/1429_fw.png	180.34091997146606	
71	99.11977910995483	picture	0		148	69.0	/experiments/knapen_aot/AOT/AOT_stimuli/pictures/1487_fw.png	180.3529851436615	1.2361187934875488
71	100.34115099906921	response	0	k		69.0	/experiments/knapen_aot/AOT/AOT_stimuli/pictures/1487_fw.png	181.57435703277588	
72	100.35589790344238	picture	0		94	70.0	/experiments/knapen_aot/AOT/AOT_stimuli/pictures/2056_fw.png	181.58910393714905	0.7850470542907715
72	101.1327269077301	response	0	k		70.0	/experiments/knapen_aot/AOT/AOT_stimuli/pictures/2056_fw.png	182.36593294143677	
73	101.14094495773315	picture	0		112	71.0	/experiments/knapen_aot/AOT/AOT_stimuli/pictures/0669_fw.png	182.37415099143982	0.937122106552124
73	102.06601691246033	response	0	j		71.0	/experiments/knapen_aot/AOT/AOT_stimuli/pictures/0669_fw.png	183.299222946167	
74	102.07806706428528	picture	0		156	72.0	/experiments/knapen_aot/AOT/AOT_stimuli/pictures/0458_fw.png	183.31127309799194	1.3055799007415771
74	103.37437510490417	response	0	k		72.0	/experiments/knapen_aot/AOT/AOT_stimuli/pictures/0458_fw.png	184.60758113861084	
75	103.38364696502686	picture	0		97	73.0	/experiments/knapen_aot/AOT/AOT_stimuli/pictures/1093_fw.png	184.61685299873352	0.8124890327453613
75	104.18268704414368	response	0	j		73.0	/experiments/knapen_aot/AOT/AOT_stimuli/pictures/1093_fw.png	185.41589307785034	
76	104.19613599777222	picture	0		102	74.0	/experiments/knapen_aot/AOT/AOT_stimuli/pictures/0200_fw.png	185.42934203147888	0.8541450500488281
76	105.03419995307922	response	0	j		74.0	/experiments/knapen_aot/AOT/AOT_stimuli/pictures/0200_fw.png	186.2674059867859	
77	105.05028104782104	picture	0		663	75.0	/experiments/knapen_aot/AOT/AOT_stimuli/pictures/0017_fw.png	186.2834870815277	5.532279968261719
77	110.56593894958496	response	0	j		75.0	/experiments/knapen_aot/AOT/AOT_stimuli/pictures/0017_fw.png	191.79914498329163	
78	110.58256101608276	picture	0		171	76.0	/experiments/knapen_aot/AOT/AOT_stimuli/pictures/2143_fw.png	191.81576704978943	1.4260890483856201
78	111.99932193756104	response	0	j		76.0	/experiments/knapen_aot/AOT/AOT_stimuli/pictures/2143_fw.png	193.2325279712677	
79	112.00865006446838	picture	0		126	77.0	/experiments/knapen_aot/AOT/AOT_stimuli/pictures/0797_fw.png	193.24185609817505	1.0572268962860107
79	113.04251599311829	response	0	j		77.0	/experiments/knapen_aot/AOT/AOT_stimuli/pictures/0797_fw.png	194.27572202682495	
80	113.0658769607544	picture	0		113	78.0	/experiments/knapen_aot/AOT/AOT_stimuli/pictures/1446_fw.png	194.29908299446106	0.9427180290222168
80	113.9993109703064	response	0	k		78.0	/experiments/knapen_aot/AOT/AOT_stimuli/pictures/1446_fw.png	195.23251700401306	
81	114.00859498977661	picture	0		218	79.0	/experiments/knapen_aot/AOT/AOT_stimuli/pictures/1301_fw.png	195.24180102348328	1.8194339275360107
81	115.80925393104553	response	0	k		79.0	/experiments/knapen_aot/AOT/AOT_stimuli/pictures/1301_fw.png	197.0424599647522	
82	115.82802891731262	picture	0		101	80.0	/experiments/knapen_aot/AOT/AOT_stimuli/pictures/1233_fw.png	197.0612349510193	0.8402152061462402
82	116.65761709213257	response	0	k		80.0	/experiments/knapen_aot/AOT/AOT_stimuli/pictures/1233_fw.png	197.89082312583923	
83	116.66824412345886	picture	0		246	81.0	/experiments/knapen_aot/AOT/AOT_stimuli/pictures/2104_fw.png	197.90145015716553	2.05598783493042
83	118.70762991905212	response	0	k		81.0	/experiments/knapen_aot/AOT/AOT_stimuli/pictures/2104_fw.png	199.9408359527588	
84	118.72423195838928	picture	0		100	82.0	/experiments/knapen_aot/AOT/AOT_stimuli/pictures/1067_fw.png	199.95743799209595	0.8398129940032959
84	119.54927706718445	response	0	k		82.0	/experiments/knapen_aot/AOT/AOT_stimuli/pictures/1067_fw.png	200.7824831008911	
85	119.56404495239258	picture	0		139	83.0	/experiments/knapen_aot/AOT/AOT_stimuli/pictures/0287_fw.png	200.79725098609924	1.166715145111084
85	120.71592903137207	response	0	k		83.0	/experiments/knapen_aot/AOT/AOT_stimuli/pictures/0287_fw.png	201.94913506507874	
86	120.73076009750366	picture	0		109	84.0	/experiments/knapen_aot/AOT/AOT_stimuli/pictures/2000_fw.png	201.96396613121033	0.9184718132019043
86	121.6258430480957	response	0	k		84.0	/experiments/knapen_aot/AOT/AOT_stimuli/pictures/2000_fw.png	202.85904908180237	
87	121.64923191070557	picture	0		91	85.0	/experiments/knapen_aot/AOT/AOT_stimuli/pictures/1793_fw.png	202.88243794441223	0.7666511535644531
87	122.39932489395142	response	0	k		85.0	/experiments/knapen_aot/AOT/AOT_stimuli/pictures/1793_fw.png	203.63253092765808	
88	122.41588306427002	picture	0		171	86.0	/experiments/knapen_aot/AOT/AOT_stimuli/pictures/1854_fw.png	203.64908909797668	1.4259159564971924
88	123.82587003707886	response	0	k		86.0	/experiments/knapen_aot/AOT/AOT_stimuli/pictures/1854_fw.png	205.05907607078552	
89	123.84179902076721	picture	0		136	87.0	/experiments/knapen_aot/AOT/AOT_stimuli/pictures/0646_fw.png	205.07500505447388	1.1324119567871094
89	124.96597194671631	response	0	k		87.0	/experiments/knapen_aot/AOT/AOT_stimuli/pictures/0646_fw.png	206.19917798042297	
90	124.97421097755432	picture	0		130	88.0	/experiments/knapen_aot/AOT/AOT_stimuli/pictures/0588_fw.png	206.207417011261	1.091660976409912
90	126.05017590522766	response	0	k		88.0	/experiments/knapen_aot/AOT/AOT_stimuli/pictures/0588_fw.png	207.28338193893433	
91	126.06587195396423	picture	0		168	89.0	/experiments/knapen_aot/AOT/AOT_stimuli/pictures/1355_fw.png	207.2990779876709	1.4009029865264893
91	127.45763897895813	response	0	j		89.0	/experiments/knapen_aot/AOT/AOT_stimuli/pictures/1355_fw.png	208.6908450126648	
92	127.46677494049072	picture	0		176	90.0	/experiments/knapen_aot/AOT/AOT_stimuli/pictures/2150_fw.png	208.6999809741974	1.4740750789642334
92	128.92516803741455	response	0	k		90.0	/experiments/knapen_aot/AOT/AOT_stimuli/pictures/2150_fw.png	210.15837407112122	
93	128.94085001945496	picture	0		186	91.0	/experiments/knapen_aot/AOT/AOT_stimuli/pictures/0554_fw.png	210.17405605316162	1.5536789894104004
93	130.48258709907532	response	0	k		91.0	/experiments/knapen_aot/AOT/AOT_stimuli/pictures/0554_fw.png	211.71579313278198	
94	130.49452900886536	picture	0		123	92.0	/experiments/knapen_aot/AOT/AOT_stimuli/pictures/2088_fw.png	211.72773504257202	1.0296640396118164
94	131.5084729194641	response	0	k		92.0	/experiments/knapen_aot/AOT/AOT_stimuli/pictures/2088_fw.png	212.74167895317078	
95	131.52419304847717	picture	0		108	93.0	/experiments/knapen_aot/AOT/AOT_stimuli/pictures/1958_fw.png	212.75739908218384	0.9082980155944824
95	132.41596293449402	response	0	j		93.0	/experiments/knapen_aot/AOT/AOT_stimuli/pictures/1958_fw.png	213.64916896820068	
96	132.43249106407166	picture	0		91	94.0	/experiments/knapen_aot/AOT/AOT_stimuli/pictures/2169_fw.png	213.66569709777832	0.7634179592132568
96	133.1826250553131	response	0	j		94.0	/experiments/knapen_aot/AOT/AOT_stimuli/pictures/2169_fw.png	214.41583108901978	
97	133.1959090232849	picture	0		80	95.0	/experiments/knapen_aot/AOT/AOT_stimuli/pictures/0271_fw.png	214.42911505699158	0.673569917678833
97	133.85756993293762	response	0	k		95.0	/experiments/knapen_aot/AOT/AOT_stimuli/pictures/0271_fw.png	215.0907759666443	
98	133.86947894096375	picture	0		105	96.0	/experiments/knapen_aot/AOT/AOT_stimuli/pictures/2013_fw.png	215.1026849746704	0.8749301433563232
98	134.73250889778137	response	0	j		96.0	/experiments/knapen_aot/AOT/AOT_stimuli/pictures/2013_fw.png	215.96571493148804	
99	134.74440908432007	picture	0		106	97.0	/experiments/knapen_aot/AOT/AOT_stimuli/pictures/0783_fw.png	215.97761511802673	0.8820269107818604
99	135.61587190628052	response	0	k		97.0	/experiments/knapen_aot/AOT/AOT_stimuli/pictures/0783_fw.png	216.84907793998718	
100	135.62643599510193	picture	0		168	98.0	/experiments/knapen_aot/AOT/AOT_stimuli/pictures/0340_fw.png	216.8596420288086	1.4028139114379883
100	137.0159649848938	response	0	k		98.0	/experiments/knapen_aot/AOT/AOT_stimuli/pictures/0340_fw.png	218.24917101860046	
101	137.02924990653992	picture	0		114	99.0	/experiments/knapen_aot/AOT/AOT_stimuli/pictures/0527_fw.png	218.26245594024658	0.9615461826324463
101	137.97418808937073	response	0	k		99.0	/experiments/knapen_aot/AOT/AOT_stimuli/pictures/0527_fw.png	219.2073941230774	
102	137.99079608917236	picture	0		1090	100.0	/experiments/knapen_aot/AOT/AOT_stimuli/pictures/1943_fw.png	219.22400212287903	9.086850881576538
102	147.0658140182495	response	0	j		100.0	/experiments/knapen_aot/AOT/AOT_stimuli/pictures/1943_fw.png	228.29902005195618	
103	147.0776469707489	picture	0		110	101.0	/experiments/knapen_aot/AOT/AOT_stimuli/pictures/1993_fw.png	228.31085300445557	0.9166469573974609
103	147.9825029373169	response	0	j		101.0	/experiments/knapen_aot/AOT/AOT_stimuli/pictures/1993_fw.png	229.21570897102356	
104	147.99429392814636	picture	0		104	102.0	/experiments/knapen_aot/AOT/AOT_stimuli/pictures/1740_fw.png	229.22749996185303	0.8750340938568115
104	148.85072112083435	response	0	k		102.0	/experiments/knapen_aot/AOT/AOT_stimuli/pictures/1740_fw.png	230.08392715454102	
105	148.86932802200317	picture	0		147	103.0	/experiments/knapen_aot/AOT/AOT_stimuli/pictures/1107_fw.png	230.10253405570984	1.2380778789520264
105	150.0916359424591	response	0	j		103.0	/experiments/knapen_aot/AOT/AOT_stimuli/pictures/1107_fw.png	231.32484197616577	
106	150.1074059009552	picture	0		353	104.0	/experiments/knapen_aot/AOT/AOT_stimuli/pictures/1966_fw.png	231.34061193466187	2.942430019378662
106	153.03409504890442	response	0	j		104.0	/experiments/knapen_aot/AOT/AOT_stimuli/pictures/1966_fw.png	234.26730108261108	
107	153.04983592033386	picture	0		119	105.0	/experiments/knapen_aot/AOT/AOT_stimuli/pictures/2151_fw.png	234.28304195404053	0.9931480884552002
107	154.02563309669495	response	0	j		105.0	/experiments/knapen_aot/AOT/AOT_stimuli/pictures/2151_fw.png	235.2588391304016	
108	154.04298400878906	picture	0		131	106.0	/experiments/knapen_aot/AOT/AOT_stimuli/pictures/0181_fw.png	235.27619004249573	1.0977020263671875
108	155.12406301498413	response	0	j		106.0	/experiments/knapen_aot/AOT/AOT_stimuli/pictures/0181_fw.png	236.3572690486908	
109	155.14068603515625	picture	0		132	107.0	/experiments/knapen_aot/AOT/AOT_stimuli/pictures/0844_fw.png	236.37389206886292	1.1035819053649902
109	156.2324299812317	response	0	j		107.0	/experiments/knapen_aot/AOT/AOT_stimuli/pictures/0844_fw.png	237.46563601493835	
110	156.24426794052124	picture	0		92	108.0	/experiments/knapen_aot/AOT/AOT_stimuli/pictures/0777_fw.png	237.4774739742279	0.7638781070709229
110	156.99913096427917	response	0	j		108.0	/experiments/knapen_aot/AOT/AOT_stimuli/pictures/0777_fw.png	238.23233699798584	
111	157.00814604759216	picture	0		132	109.0	/experiments/knapen_aot/AOT/AOT_stimuli/pictures/0211_fw.png	238.24135208129883	1.1075539588928223
111	158.09914708137512	response	0	k		109.0	/experiments/knapen_aot/AOT/AOT_stimuli/pictures/0211_fw.png	239.3323531150818	
112	158.11570000648499	picture	0		162	110.0	/experiments/knapen_aot/AOT/AOT_stimuli/pictures/0485_fw.png	239.34890604019165	1.3506789207458496
112	159.45063591003418	response	0	k		110.0	/experiments/knapen_aot/AOT/AOT_stimuli/pictures/0485_fw.png	240.68384194374084	
113	159.46637892723083	picture	0		90	111.0	/experiments/knapen_aot/AOT/AOT_stimuli/pictures/0745_fw.png	240.6995849609375	0.7500531673431396
113	160.20739793777466	response	0	k		111.0	/experiments/knapen_aot/AOT/AOT_stimuli/pictures/0745_fw.png	241.44060397148132	
114	160.21643209457397	picture	0		87	112.0	/experiments/knapen_aot/AOT/AOT_stimuli/pictures/1841_fw.png	241.44963812828064	0.7325918674468994
114	160.9324610233307	response	0	k		112.0	/experiments/knapen_aot/AOT/AOT_stimuli/pictures/1841_fw.png	242.16566705703735	
115	160.94902396202087	picture	0		152	113.0	/experiments/knapen_aot/AOT/AOT_stimuli/pictures/1850_fw.png	242.18222999572754	1.2673659324645996
115	162.20758605003357	response	0	k		113.0	/experiments/knapen_aot/AOT/AOT_stimuli/pictures/1850_fw.png	243.44079208374023	
116	162.21638989448547	picture	0		159	114.0	/experiments/knapen_aot/AOT/AOT_stimuli/pictures/1989_fw.png	243.44959592819214	1.3263850212097168
116	163.5324010848999	response	0	k		114.0	/experiments/knapen_aot/AOT/AOT_stimuli/pictures/1989_fw.png	244.76560711860657	
117	163.5427749156952	picture	0		108	115.0	/experiments/knapen_aot/AOT/AOT_stimuli/pictures/1110_fw.png	244.77598094940186	0.9027881622314453
117	164.42647910118103	response	0	k		115.0	/experiments/knapen_aot/AOT/AOT_stimuli/pictures/1110_fw.png	245.6596851348877	
118	164.44556307792664	picture	0		179	116.0	/experiments/knapen_aot/AOT/AOT_stimuli/pictures/1156_fw.png	245.6787691116333	1.4999849796295166
118	165.93234992027283	response	0	k		116.0	/experiments/knapen_aot/AOT/AOT_stimuli/pictures/1156_fw.png	247.1655559539795	
119	165.94554805755615	picture	0		96	117.0	/experiments/knapen_aot/AOT/AOT_stimuli/pictures/0555_fw.png	247.17875409126282	0.8055529594421387
119	166.7406940460205	response	0	k		117.0	/experiments/knapen_aot/AOT/AOT_stimuli/pictures/0555_fw.png	247.97390007972717	
120	166.7511010169983	picture	0		166	118.0	/experiments/knapen_aot/AOT/AOT_stimuli/pictures/1505_fw.png	247.98430705070496	1.3818960189819336
120	168.12411189079285	response	0	k		118.0	/experiments/knapen_aot/AOT/AOT_stimuli/pictures/1505_fw.png	249.3573179244995	
121	168.13299703598022	picture	0		164	119.0	/experiments/knapen_aot/AOT/AOT_stimuli/pictures/0774_fw.png	249.3662030696869	1.3743069171905518
121	169.49074602127075	response	0	j		119.0	/experiments/knapen_aot/AOT/AOT_stimuli/pictures/0774_fw.png	250.72395205497742	
122	169.50730395317078	picture	0		114	120.0	/experiments/knapen_aot/AOT/AOT_stimuli/pictures/0946_fw.png	250.74050998687744	0.9520900249481201
122	170.4423270225525	response	0	j		120.0	/experiments/knapen_aot/AOT/AOT_stimuli/pictures/0946_fw.png	251.67553305625916	
123	170.4593939781189	picture	0		114	121.0	/experiments/knapen_aot/AOT/AOT_stimuli/pictures/0815_fw.png	251.69260001182556	0.9515299797058105
123	171.3990581035614	response	0	k		121.0	/experiments/knapen_aot/AOT/AOT_stimuli/pictures/0815_fw.png	252.63226413726807	
124	171.4109239578247	picture	0		145	122.0	/experiments/knapen_aot/AOT/AOT_stimuli/pictures/0304_fw.png	252.64412999153137	1.2081639766693115
124	172.6073670387268	response	0	j		122.0	/experiments/knapen_aot/AOT/AOT_stimuli/pictures/0304_fw.png	253.84057307243347	
125	172.61908793449402	picture	0		129	123.0	/experiments/knapen_aot/AOT/AOT_stimuli/pictures/1364_fw.png	253.85229396820068	1.076397180557251
125	173.68236899375916	response	0	j		123.0	/experiments/knapen_aot/AOT/AOT_stimuli/pictures/1364_fw.png	254.91557502746582	
126	173.69548511505127	picture	0		190	124.0	/experiments/knapen_aot/AOT/AOT_stimuli/pictures/0312_fw.png	254.92869114875793	1.595139980316162
126	175.27400493621826	response	0	k		124.0	/experiments/knapen_aot/AOT/AOT_stimuli/pictures/0312_fw.png	256.5072109699249	
127	175.29062509536743	picture	0		117	125.0	/experiments/knapen_aot/AOT/AOT_stimuli/pictures/1183_fw.png	256.5238311290741	0.9812250137329102
127	176.25055694580078	response	0	k		125.0	/experiments/knapen_aot/AOT/AOT_stimuli/pictures/1183_fw.png	257.48376297950745	
128	176.27185010910034	picture	0		180	126.0	/experiments/knapen_aot/AOT/AOT_stimuli/pictures/0807_fw.png	257.505056142807	1.5068919658660889
128	177.76564598083496	response	0	k		126.0	/experiments/knapen_aot/AOT/AOT_stimuli/pictures/0807_fw.png	258.9988520145416	
129	177.77874207496643	picture	0		227	127.0	/experiments/knapen_aot/AOT/AOT_stimuli/pictures/1481_fw.png	259.0119481086731	1.895798921585083
129	179.659019947052	response	0	k		127.0	/experiments/knapen_aot/AOT/AOT_stimuli/pictures/1481_fw.png	260.89222598075867	
130	179.6745409965515	picture	0		127	128.0	/experiments/knapen_aot/AOT/AOT_stimuli/pictures/1991_fw.png	260.9077470302582	1.0625200271606445
130	180.7240309715271	response	0	j		128.0	/experiments/knapen_aot/AOT/AOT_stimuli/pictures/1991_fw.png	261.95723700523376	
131	180.73706102371216	picture	0		206	129.0	/experiments/knapen_aot/AOT/AOT_stimuli/pictures/1125_fw.png	261.9702670574188	1.7221860885620117
131	182.44224500656128	response	0	k		129.0	/experiments/knapen_aot/AOT/AOT_stimuli/pictures/1125_fw.png	263.67545104026794	
132	182.45924711227417	picture	0		102	130.0	/experiments/knapen_aot/AOT/AOT_stimuli/pictures/1569_fw.png	263.69245314598083	0.856348991394043
132	183.29967188835144	response	0	k		130.0	/experiments/knapen_aot/AOT/AOT_stimuli/pictures/1569_fw.png	264.5328779220581	
133	183.3155961036682	picture	0		147	131.0	/experiments/knapen_aot/AOT/AOT_stimuli/pictures/2097_fw.png	264.5488021373749	1.2333099842071533
133	184.53237390518188	response	0	k		131.0	/experiments/knapen_aot/AOT/AOT_stimuli/pictures/2097_fw.png	265.76557993888855	
134	184.54890608787537	picture	0		104	132.0	/experiments/knapen_aot/AOT/AOT_stimuli/pictures/2024_fw.png	265.78211212158203	0.8686749935150146
134	185.40732407569885	response	0	j		132.0	/experiments/knapen_aot/AOT/AOT_stimuli/pictures/2024_fw.png	266.6405301094055	
135	185.41758108139038	picture	0		91	133.0	/experiments/knapen_aot/AOT/AOT_stimuli/pictures/1977_fw.png	266.65078711509705	0.7568979263305664
135	186.16568207740784	response	0	k		133.0	/experiments/knapen_aot/AOT/AOT_stimuli/pictures/1977_fw.png	267.3988881111145	
136	186.17447900772095	picture	0		109	134.0	/experiments/knapen_aot/AOT/AOT_stimuli/pictures/0603_fw.png	267.4076850414276	0.9097349643707275
136	187.0672709941864	response	0	j		134.0	/experiments/knapen_aot/AOT/AOT_stimuli/pictures/0603_fw.png	268.30047702789307	
137	187.08421397209167	picture	0		669	135.0	/experiments/knapen_aot/AOT/AOT_stimuli/pictures/1983_fw.png	268.31742000579834	5.581284999847412
137	192.64895510673523	response	0	j		135.0	/experiments/knapen_aot/AOT/AOT_stimuli/pictures/1983_fw.png	273.8821611404419	
138	192.6654989719391	picture	0		82	136.0	/experiments/knapen_aot/AOT/AOT_stimuli/pictures/0115_fw.png	273.89870500564575	0.6916530132293701
138	193.34122109413147	response	0	j		136.0	/experiments/knapen_aot/AOT/AOT_stimuli/pictures/0115_fw.png	274.57442712783813	
139	193.35715198516846	picture	0		86	137.0	/experiments/knapen_aot/AOT/AOT_stimuli/pictures/0762_fw.png	274.5903580188751	0.720020055770874
139	194.05876898765564	response	0	j		137.0	/experiments/knapen_aot/AOT/AOT_stimuli/pictures/0762_fw.png	275.2919750213623	
140	194.07717204093933	picture	0		87	138.0	/experiments/knapen_aot/AOT/AOT_stimuli/pictures/1999_fw.png	275.310378074646	0.7222719192504883
140	194.7906060218811	response	0	k		138.0	/experiments/knapen_aot/AOT/AOT_stimuli/pictures/1999_fw.png	276.02381205558777	
141	194.79944396018982	picture	0		150	139.0	/experiments/knapen_aot/AOT/AOT_stimuli/pictures/1208_fw.png	276.0326499938965	1.2499761581420898
141	196.04061007499695	response	0	k		139.0	/experiments/knapen_aot/AOT/AOT_stimuli/pictures/1208_fw.png	277.2738161087036	
142	196.0494201183319	picture	0		233	140.0	/experiments/knapen_aot/AOT/AOT_stimuli/pictures/0136_fw.png	277.2826261520386	1.9443988800048828
142	197.98227095603943	response	0	k		140.0	/experiments/knapen_aot/AOT/AOT_stimuli/pictures/0136_fw.png	279.2154769897461	
143	197.9938189983368	picture	0		102	141.0	/experiments/knapen_aot/AOT/AOT_stimuli/pictures/1181_fw.png	279.22702503204346	0.8471910953521729
143	198.83227396011353	response	0	j		141.0	/experiments/knapen_aot/AOT/AOT_stimuli/pictures/1181_fw.png	280.0654799938202	
144	198.84101009368896	picture	0		100	142.0	/experiments/knapen_aot/AOT/AOT_stimuli/pictures/0873_fw.png	280.07421612739563	0.8333790302276611
144	199.65877604484558	response	0	j		142.0	/experiments/knapen_aot/AOT/AOT_stimuli/pictures/0873_fw.png	280.89198207855225	
145	199.67438912391663	picture	0		113	143.0	/experiments/knapen_aot/AOT/AOT_stimuli/pictures/1272_fw.png	280.9075951576233	0.9443957805633545
145	200.6071970462799	response	0	j		143.0	/experiments/knapen_aot/AOT/AOT_stimuli/pictures/1272_fw.png	281.8404030799866	
146	200.61878490447998	picture	0		128	144.0	/experiments/knapen_aot/AOT/AOT_stimuli/pictures/0732_fw.png	281.85199093818665	1.0716919898986816
146	201.6744420528412	response	0	j		144.0	/experiments/knapen_aot/AOT/AOT_stimuli/pictures/0732_fw.png	282.90764808654785	
147	201.69047689437866	picture	0		525	145.0	/experiments/knapen_aot/AOT/AOT_stimuli/pictures/0531_fw.png	282.9236829280853	4.379658222198486
147	206.05117011070251	response	0	k		145.0	/experiments/knapen_aot/AOT/AOT_stimuli/pictures/0531_fw.png	287.2843761444092	
148	206.07013511657715	picture	0		97	146.0	/experiments/knapen_aot/AOT/AOT_stimuli/pictures/0751_fw.png	287.3033411502838	0.8124959468841553
148	206.8671419620514	response	0	k		146.0	/experiments/knapen_aot/AOT/AOT_stimuli/pictures/0751_fw.png	288.10034799575806	
149	206.8826310634613	picture	0		102	147.0	/experiments/knapen_aot/AOT/AOT_stimuli/pictures/0960_fw.png	288.11583709716797	0.8541529178619385
149	207.72390007972717	response	0	j		147.0	/experiments/knapen_aot/AOT/AOT_stimuli/pictures/0960_fw.png	288.95710611343384	
150	207.73678398132324	picture	0		148	148.0	/experiments/knapen_aot/AOT/AOT_stimuli/pictures/0189_fw.png	288.9699900150299	1.2369880676269531
150	208.95725393295288	response	0	k		148.0	/experiments/knapen_aot/AOT/AOT_stimuli/pictures/0189_fw.png	290.19045996665955	
151	208.9737720489502	picture	0		163	149.0	/experiments/knapen_aot/AOT/AOT_stimuli/pictures/1855_fw.png	290.20697808265686	1.366657018661499
151	210.3238809108734	response	0	k		149.0	/experiments/knapen_aot/AOT/AOT_stimuli/pictures/1855_fw.png	291.5570869445801	
152	210.3404290676117	picture	0		90	150.0	/experiments/knapen_aot/AOT/AOT_stimuli/pictures/0562_fw.png	291.57363510131836	0.7504758834838867
152	211.07543802261353	response	0	j		150.0	/experiments/knapen_aot/AOT/AOT_stimuli/pictures/0562_fw.png	292.3086440563202	
153	211.09090495109558	picture	0		86	151.0	/experiments/knapen_aot/AOT/AOT_stimuli/pictures/0542_fw.png	292.32411098480225	0.7245240211486816
153	211.79936695098877	response	0	j		151.0	/experiments/knapen_aot/AOT/AOT_stimuli/pictures/0542_fw.png	293.03257298469543	
154	211.81542897224426	picture	0		152	152.0	/experiments/knapen_aot/AOT/AOT_stimuli/pictures/0042_fw.png	293.0486350059509	1.2686400413513184
154	213.06706595420837	response	0	j		152.0	/experiments/knapen_aot/AOT/AOT_stimuli/pictures/0042_fw.png	294.30027198791504	
155	213.08406901359558	picture	0		162	153.0	/experiments/knapen_aot/AOT/AOT_stimuli/pictures/1583_fw.png	294.31727504730225	1.356328010559082
155	214.42430806159973	response	0	k		153.0	/experiments/knapen_aot/AOT/AOT_stimuli/pictures/1583_fw.png	295.6575140953064	
156	214.44039702415466	picture	0		164	154.0	/experiments/knapen_aot/AOT/AOT_stimuli/pictures/1656_fw.png	295.6736030578613	1.3749780654907227
156	215.7992401123047	response	0	j		154.0	/experiments/knapen_aot/AOT/AOT_stimuli/pictures/1656_fw.png	297.03244614601135	
157	215.81537508964539	picture	0		475	155.0	/experiments/knapen_aot/AOT/AOT_stimuli/pictures/1575_fw.png	297.04858112335205	3.9667038917541504
157	219.7655050754547	response	0	j		155.0	/experiments/knapen_aot/AOT/AOT_stimuli/pictures/1575_fw.png	300.9987111091614	
158	219.78207898139954	picture	0		125	156.0	/experiments/knapen_aot/AOT/AOT_stimuli/pictures/0064_fw.png	301.0152850151062	1.0448250770568848
158	220.8154170513153	response	0	j		156.0	/experiments/knapen_aot/AOT/AOT_stimuli/pictures/0064_fw.png	302.048623085022	
159	220.82690405845642	picture	0		84	157.0	/experiments/knapen_aot/AOT/AOT_stimuli/pictures/0423_fw.png	302.0601100921631	0.7051188945770264
159	221.5154960155487	response	0	j		157.0	/experiments/knapen_aot/AOT/AOT_stimuli/pictures/0423_fw.png	302.74870204925537	
160	221.53202295303345	picture	0		111	158.0	/experiments/knapen_aot/AOT/AOT_stimuli/pictures/1246_fw.png	302.7652289867401	0.9333751201629639
160	222.44883108139038	response	0	k		158.0	/experiments/knapen_aot/AOT/AOT_stimuli/pictures/1246_fw.png	303.68203711509705	
161	222.4653980731964	picture	0		107	159.0	/experiments/knapen_aot/AOT/AOT_stimuli/pictures/1858_fw.png	303.6986041069031	0.8999848365783691
161	223.34881806373596	response	0	j		159.0	/experiments/knapen_aot/AOT/AOT_stimuli/pictures/1858_fw.png	304.5820240974426	
162	223.36538290977478	picture	0		101	160.0	/experiments/knapen_aot/AOT/AOT_stimuli/pictures/0324_fw.png	304.59858894348145	0.8434951305389404
162	224.19882011413574	response	0	k		160.0	/experiments/knapen_aot/AOT/AOT_stimuli/pictures/0324_fw.png	305.4320261478424	
163	224.20887804031372	picture	0		193	161.0	/experiments/knapen_aot/AOT/AOT_stimuli/pictures/0088_fw.png	305.4420840740204	1.6148080825805664
163	225.80715703964233	response	0	k		161.0	/experiments/knapen_aot/AOT/AOT_stimuli/pictures/0088_fw.png	307.040363073349	
164	225.8236861228943	picture	0		82	162.0	/experiments/knapen_aot/AOT/AOT_stimuli/pictures/1427_fw.png	307.05689215660095	0.6837668418884277
164	226.49193692207336	response	0	j		162.0	/experiments/knapen_aot/AOT/AOT_stimuli/pictures/1427_fw.png	307.72514295578003	
165	226.50745296478271	picture	0		105	163.0	/experiments/knapen_aot/AOT/AOT_stimuli/pictures/0403_fw.png	307.7406589984894	0.8828949928283691
165	227.37381601333618	response	0	k		163.0	/experiments/knapen_aot/AOT/AOT_stimuli/pictures/0403_fw.png	308.60702204704285	
166	227.39034795761108	picture	0		109	164.0	/experiments/knapen_aot/AOT/AOT_stimuli/pictures/0805_fw.png	308.62355399131775	0.9087080955505371
166	228.28375506401062	response	0	k		164.0	/experiments/knapen_aot/AOT/AOT_stimuli/pictures/0805_fw.png	309.5169610977173	
167	228.29905605316162	picture	0		87	165.0	/experiments/knapen_aot/AOT/AOT_stimuli/pictures/0757_fw.png	309.5322620868683	0.7291738986968994
167	229.01542401313782	response	0	j		165.0	/experiments/knapen_aot/AOT/AOT_stimuli/pictures/0757_fw.png	310.2486300468445	
168	229.02822995185852	picture	0		143	166.0	/experiments/knapen_aot/AOT/AOT_stimuli/pictures/1638_fw.png	310.2614359855652	1.1875109672546387
168	230.20707607269287	response	0	k		166.0	/experiments/knapen_aot/AOT/AOT_stimuli/pictures/1638_fw.png	311.44028210639954	
169	230.21574091911316	picture	0		155	167.0	/experiments/knapen_aot/AOT/AOT_stimuli/pictures/2107_fw.png	311.4489469528198	1.291668176651001
169	231.49881601333618	response	0	j		167.0	/experiments/knapen_aot/AOT/AOT_stimuli/pictures/2107_fw.png	312.73202204704285	
170	231.50740909576416	picture	0		168	168.0	/experiments/knapen_aot/AOT/AOT_stimuli/pictures/0760_fw.png	312.7406151294708	1.402750015258789
170	232.89201092720032	response	0	k		168.0	/experiments/knapen_aot/AOT/AOT_stimuli/pictures/0760_fw.png	314.125216960907	
171	232.91015911102295	picture	0		272	169.0	/experiments/knapen_aot/AOT/AOT_stimuli/pictures/1960_fw.png	314.1433651447296	2.263873815536499
171	235.16546511650085	response	0	k		169.0	/experiments/knapen_aot/AOT/AOT_stimuli/pictures/1960_fw.png	316.3986711502075	
172	235.17403292655945	picture	0		363	170.0	/experiments/knapen_aot/AOT/AOT_stimuli/pictures/2065_fw.png	316.4072389602661	3.02774715423584
172	238.19045901298523	response	0	j		170.0	/experiments/knapen_aot/AOT/AOT_stimuli/pictures/2065_fw.png	319.4236650466919	
173	238.2017800807953	picture	0		97	171.0	/experiments/knapen_aot/AOT/AOT_stimuli/pictures/1540_fw.png	319.43498611450195	0.8055679798126221
173	238.9987609386444	response	0	k		171.0	/experiments/knapen_aot/AOT/AOT_stimuli/pictures/1540_fw.png	320.2319669723511	
174	239.0073480606079	picture	0		92	172.0	/experiments/knapen_aot/AOT/AOT_stimuli/pictures/0489_fw.png	320.2405540943146	0.7708299160003662
174	239.76540398597717	response	0	j		172.0	/experiments/knapen_aot/AOT/AOT_stimuli/pictures/0489_fw.png	320.99861001968384	
175	239.77817797660828	picture	0		112	173.0	/experiments/knapen_aot/AOT/AOT_stimuli/pictures/1957_fw.png	321.01138401031494	0.9305679798126221
175	240.69196701049805	response	0	k		173.0	/experiments/knapen_aot/AOT/AOT_stimuli/pictures/1957_fw.png	321.9251730442047	
176	240.7087459564209	picture	0		109	174.0	/experiments/knapen_aot/AOT/AOT_stimuli/pictures/0404_fw.png	321.94195199012756	0.909649133682251
176	241.60711789131165	response	0	k		174.0	/experiments/knapen_aot/AOT/AOT_stimuli/pictures/0404_fw.png	322.8403239250183	
177	241.61839509010315	picture	0		97	175.0	/experiments/knapen_aot/AOT/AOT_stimuli/pictures/0872_fw.png	322.8516011238098	0.8055379390716553
177	242.41540908813477	response	0	j		175.0	/experiments/knapen_aot/AOT/AOT_stimuli/pictures/0872_fw.png	323.64861512184143	
178	242.4239330291748	picture	0		109	176.0	/experiments/knapen_aot/AOT/AOT_stimuli/pictures/2044_fw.png	323.65713906288147	0.9098029136657715
178	243.3236949443817	response	0	k		176.0	/experiments/knapen_aot/AOT/AOT_stimuli/pictures/2044_fw.png	324.5569009780884	
179	243.33373594284058	picture	0		398	177.0	/experiments/knapen_aot/AOT/AOT_stimuli/pictures/2176_fw.png	324.56694197654724	3.319343090057373
179	246.64032292366028	response	0	j		177.0	/experiments/knapen_aot/AOT/AOT_stimuli/pictures/2176_fw.png	327.87352895736694	
180	246.65307903289795	picture	0		102	178.0	/experiments/knapen_aot/AOT/AOT_stimuli/pictures/0998_fw.png	327.8862850666046	0.8472158908843994
180	247.4835560321808	response	0	j		178.0	/experiments/knapen_aot/AOT/AOT_stimuli/pictures/0998_fw.png	328.71676206588745	
181	247.50029492378235	picture	0		96	179.0	/experiments/knapen_aot/AOT/AOT_stimuli/pictures/2129_fw.png	328.733500957489	0.7987091541290283
181	248.28365397453308	response	0	k		179.0	/experiments/knapen_aot/AOT/AOT_stimuli/pictures/2129_fw.png	329.51686000823975	
182	248.29900407791138	stim	0		159			329.53221011161804	1.3263559341430664
182	249.6153860092163	response	0	space				330.848592042923	
