trial_nr	onset	event_type	phase	response	nr_frames	picture_index	picture_file	onset_abs	duration
0	0.14996099472045898	stim	0		614			109.4706358909607	5.141274929046631
0	5.266395092010498	response	0	space				114.58706998825073	
2	5.29123592376709	picture	0		268	0.0	/experiments/knapen_aot/AOT/AOT_stimuli/pictures/1146_fw.png	114.61191082000732	2.2333149909973145
2	7.516377925872803	response	0	k		0.0	/experiments/knapen_aot/AOT/AOT_stimuli/pictures/1146_fw.png	116.83705282211304	
3	7.524550914764404	picture	0		107	1.0	/experiments/knapen_aot/AOT/AOT_stimuli/pictures/1031_fw.png	116.84522581100464	0.8952500820159912
3	8.401246070861816	response	0	k		1.0	/experiments/knapen_aot/AOT/AOT_stimuli/pictures/1031_fw.png	117.72192096710205	
4	8.419800996780396	picture	0		138	2.0	/experiments/knapen_aot/AOT/AOT_stimuli/pictures/1428_fw.png	117.74047589302063	1.1527609825134277
4	9.558774948120117	response	0	j		2.0	/experiments/knapen_aot/AOT/AOT_stimuli/pictures/1428_fw.png	118.87944984436035	
5	9.572561979293823	picture	0		98	3.0	/experiments/knapen_aot/AOT/AOT_stimuli/pictures/1636_fw.png	118.89323687553406	0.8194139003753662
5	10.376314878463745	response	0	k		3.0	/experiments/knapen_aot/AOT/AOT_stimuli/pictures/1636_fw.png	119.69698977470398	
6	10.39197587966919	picture	0		103	4.0	/experiments/knapen_aot/AOT/AOT_stimuli/pictures/1515_fw.png	119.71265077590942	0.8611550331115723
6	11.241291046142578	response	0	j		4.0	/experiments/knapen_aot/AOT/AOT_stimuli/pictures/1515_fw.png	120.56196594238281	
7	11.253130912780762	picture	0		150	5.0	/experiments/knapen_aot/AOT/AOT_stimuli/pictures/0290_fw.png	120.573805809021	1.2499699592590332
7	12.491298913955688	response	0	k		5.0	/experiments/knapen_aot/AOT/AOT_stimuli/pictures/0290_fw.png	121.81197381019592	
8	12.503100872039795	picture	0		118	6.0	/experiments/knapen_aot/AOT/AOT_stimuli/pictures/0405_fw.png	121.82377576828003	0.9797830581665039
8	13.474646091461182	response	0	j		6.0	/experiments/knapen_aot/AOT/AOT_stimuli/pictures/0405_fw.png	122.79532098770142	
9	13.482883930206299	picture	0		128	7.0	/experiments/knapen_aot/AOT/AOT_stimuli/pictures/1439_fw.png	122.80355882644653	1.0688180923461914
9	14.541279077529907	response	0	j		7.0	/experiments/knapen_aot/AOT/AOT_stimuli/pictures/1439_fw.png	123.86195397377014	
10	14.55170202255249	picture	0		99	8.0	/experiments/knapen_aot/AOT/AOT_stimuli/pictures/1055_fw.png	123.87237691879272	0.8263418674468994
10	15.366262912750244	response	0	j		8.0	/experiments/knapen_aot/AOT/AOT_stimuli/pictures/1055_fw.png	124.68693780899048	
11	15.37804388999939	picture	0		112	9.0	/experiments/knapen_aot/AOT/AOT_stimuli/pictures/0782_fw.png	124.69871878623962	0.9305989742279053
11	16.299604892730713	response	0	j		9.0	/experiments/knapen_aot/AOT/AOT_stimuli/pictures/0782_fw.png	125.62027978897095	
12	16.308642864227295	picture	0		94	10.0	/experiments/knapen_aot/AOT/AOT_stimuli/pictures/1381_fw.png	125.62931776046753	0.7847239971160889
12	17.08299207687378	response	0	j		10.0	/experiments/knapen_aot/AOT/AOT_stimuli/pictures/1381_fw.png	126.40366697311401	
13	17.093366861343384	picture	0		108	11.0	/experiments/knapen_aot/AOT/AOT_stimuli/pictures/2076_fw.png	126.41404175758362	0.9027721881866455
13	17.976930856704712	response	0	j		11.0	/experiments/knapen_aot/AOT/AOT_stimuli/pictures/2076_fw.png	127.29760575294495	
14	17.99613904953003	picture	0		171	12.0	/experiments/knapen_aot/AOT/AOT_stimuli/pictures/2169_fw.png	127.31681394577026	1.430588960647583
14	19.40955901145935	response	0	k		12.0	/experiments/knapen_aot/AOT/AOT_stimuli/pictures/2169_fw.png	128.73023390769958	
15	19.426728010177612	picture	0		121	13.0	/experiments/knapen_aot/AOT/AOT_stimuli/pictures/0900_fw.png	128.74740290641785	1.0144920349121094
15	20.424617052078247	response	0	k		13.0	/experiments/knapen_aot/AOT/AOT_stimuli/pictures/0900_fw.png	129.74529194831848	
16	20.44122004508972	picture	0		102	14.0	/experiments/knapen_aot/AOT/AOT_stimuli/pictures/1088_fw.png	129.76189494132996	0.8534328937530518
16	21.282922983169556	response	0	k		14.0	/experiments/knapen_aot/AOT/AOT_stimuli/pictures/1088_fw.png	130.6035978794098	
17	21.294652938842773	picture	0		123	15.0	/experiments/knapen_aot/AOT/AOT_stimuli/pictures/1675_fw.png	130.615327835083	1.0278170108795166
17	22.308640956878662	response	0	k		15.0	/experiments/knapen_aot/AOT/AOT_stimuli/pictures/1675_fw.png	131.6293158531189	
18	22.32246994972229	picture	0		199	16.0	/experiments/knapen_aot/AOT/AOT_stimuli/pictures/2179_fw.png	131.64314484596252	1.6667110919952393
18	23.975244998931885	response	0	k		16.0	/experiments/knapen_aot/AOT/AOT_stimuli/pictures/2179_fw.png	133.29591989517212	
19	23.98918104171753	picture	0		116	17.0	/experiments/knapen_aot/AOT/AOT_stimuli/pictures/1603_fw.png	133.30985593795776	0.9721050262451172
19	24.949620008468628	response	0	j		17.0	/experiments/knapen_aot/AOT/AOT_stimuli/pictures/1603_fw.png	134.27029490470886	
20	24.961286067962646	picture	0		95	18.0	/experiments/knapen_aot/AOT/AOT_stimuli/pictures/0171_fw.png	134.28196096420288	0.7917230129241943
20	25.741257905960083	response	0	j		18.0	/experiments/knapen_aot/AOT/AOT_stimuli/pictures/0171_fw.png	135.06193280220032	
21	25.75300908088684	picture	0		92	19.0	/experiments/knapen_aot/AOT/AOT_stimuli/pictures/0605_fw.png	135.07368397712708	0.7798078060150146
21	26.51722002029419	response	0	j		19.0	/experiments/knapen_aot/AOT/AOT_stimuli/pictures/0605_fw.png	135.83789491653442	
22	26.532816886901855	picture	0		262	20.0	/experiments/knapen_aot/AOT/AOT_stimuli/pictures/1768_fw.png	135.8534917831421	2.1854350566864014
22	28.707927942276	response	0	k		20.0	/experiments/knapen_aot/AOT/AOT_stimuli/pictures/1768_fw.png	138.02860283851624	
23	28.718251943588257	picture	0		107	21.0	/experiments/knapen_aot/AOT/AOT_stimuli/pictures/1229_fw.png	138.0389268398285	0.898076057434082
23	29.59275507926941	response	0	j		21.0	/experiments/knapen_aot/AOT/AOT_stimuli/pictures/1229_fw.png	138.91342997550964	
24	29.61632800102234	picture	0		146	22.0	/experiments/knapen_aot/AOT/AOT_stimuli/pictures/1777_fw.png	138.93700289726257	1.2199320793151855
24	30.8177649974823	response	0	j		22.0	/experiments/knapen_aot/AOT/AOT_stimuli/pictures/1777_fw.png	140.13843989372253	
25	30.836260080337524	picture	0		96	23.0	/experiments/knapen_aot/AOT/AOT_stimuli/pictures/1413_fw.png	140.15693497657776	0.7986049652099609
25	31.62456703186035	response	0	j		23.0	/experiments/knapen_aot/AOT/AOT_stimuli/pictures/1413_fw.png	140.9452419281006	
26	31.634865045547485	picture	0		103	24.0	/experiments/knapen_aot/AOT/AOT_stimuli/pictures/1691_fw.png	140.95553994178772	0.8611109256744385
26	32.482917070388794	response	0	j		24.0	/experiments/knapen_aot/AOT/AOT_stimuli/pictures/1691_fw.png	141.80359196662903	
27	32.495975971221924	picture	0		122	25.0	/experiments/knapen_aot/AOT/AOT_stimuli/pictures/1797_fw.png	141.81665086746216	1.0207860469818115
27	33.507890939712524	response	0	k		25.0	/experiments/knapen_aot/AOT/AOT_stimuli/pictures/1797_fw.png	142.82856583595276	
28	33.516762018203735	picture	0		468	26.0	/experiments/knapen_aot/AOT/AOT_stimuli/pictures/0912_fw.png	142.83743691444397	3.9027390480041504
28	37.401071071624756	response	0	j		26.0	/experiments/knapen_aot/AOT/AOT_stimuli/pictures/0912_fw.png	146.721745967865	
29	37.419501066207886	picture	0		113	27.0	/experiments/knapen_aot/AOT/AOT_stimuli/pictures/0420_fw.png	146.74017596244812	0.9445078372955322
29	38.35024309158325	response	0	k		27.0	/experiments/knapen_aot/AOT/AOT_stimuli/pictures/0420_fw.png	147.6709179878235	
30	38.36400890350342	picture	0		211	28.0	/experiments/knapen_aot/AOT/AOT_stimuli/pictures/2003_fw.png	147.68468379974365	1.763822078704834
30	40.11620306968689	response	0	j		28.0	/experiments/knapen_aot/AOT/AOT_stimuli/pictures/2003_fw.png	149.43687796592712	
31	40.12783098220825	picture	0		122	29.0	/experiments/knapen_aot/AOT/AOT_stimuli/pictures/2059_fw.png	149.4485058784485	1.0300099849700928
31	41.14178705215454	response	0	k		29.0	/experiments/knapen_aot/AOT/AOT_stimuli/pictures/2059_fw.png	150.46246194839478	
32	41.157840967178345	picture	0		109	30.0	/experiments/knapen_aot/AOT/AOT_stimuli/pictures/0382_fw.png	150.47851586341858	0.9144411087036133
32	42.05850386619568	response	0	k		30.0	/experiments/knapen_aot/AOT/AOT_stimuli/pictures/0382_fw.png	151.3791787624359	
33	42.07228207588196	picture	0		142	31.0	/experiments/knapen_aot/AOT/AOT_stimuli/pictures/0364_fw.png	151.3929569721222	1.1874709129333496
33	43.249496936798096	response	0	k		31.0	/experiments/knapen_aot/AOT/AOT_stimuli/pictures/0364_fw.png	152.57017183303833	
34	43.25975298881531	picture	0		133	32.0	/experiments/knapen_aot/AOT/AOT_stimuli/pictures/2149_fw.png	152.58042788505554	1.1111299991607666
34	44.3578999042511	response	0	k		32.0	/experiments/knapen_aot/AOT/AOT_stimuli/pictures/2149_fw.png	153.67857480049133	
35	44.370882987976074	picture	0		124	33.0	/experiments/knapen_aot/AOT/AOT_stimuli/pictures/0257_fw.png	153.6915578842163	1.0417239665985107
35	45.393325090408325	response	0	k		33.0	/experiments/knapen_aot/AOT/AOT_stimuli/pictures/0257_fw.png	154.71399998664856	
36	45.412606954574585	picture	0		162	34.0	/experiments/knapen_aot/AOT/AOT_stimuli/pictures/1481_fw.png	154.73328185081482	1.354053020477295
36	46.75793504714966	response	0	k		34.0	/experiments/knapen_aot/AOT/AOT_stimuli/pictures/1481_fw.png	156.0786099433899	
37	46.76665997505188	picture	0		99	35.0	/experiments/knapen_aot/AOT/AOT_stimuli/pictures/0737_fw.png	156.08733487129211	0.8263640403747559
37	47.58282804489136	response	0	k		35.0	/experiments/knapen_aot/AOT/AOT_stimuli/pictures/0737_fw.png	156.9035029411316	
38	47.593024015426636	picture	0		117	36.0	/experiments/knapen_aot/AOT/AOT_stimuli/pictures/0433_fw.png	156.91369891166687	0.9792170524597168
38	48.55839991569519	response	0	j		36.0	/experiments/knapen_aot/AOT/AOT_stimuli/pictures/0433_fw.png	157.87907481193542	
39	48.57224106788635	picture	0		111	37.0	/experiments/knapen_aot/AOT/AOT_stimuli/pictures/1337_fw.png	157.8929159641266	0.9305188655853271
39	49.491108894348145	response	0	k		37.0	/experiments/knapen_aot/AOT/AOT_stimuli/pictures/1337_fw.png	158.81178379058838	
40	49.50275993347168	picture	0		80	38.0	/experiments/knapen_aot/AOT/AOT_stimuli/pictures/1021_fw.png	158.8234348297119	0.6666469573974609
40	50.15780806541443	response	0	j		38.0	/experiments/knapen_aot/AOT/AOT_stimuli/pictures/1021_fw.png	159.47848296165466	
41	50.16940689086914	picture	0		130	39.0	/experiments/knapen_aot/AOT/AOT_stimuli/pictures/1492_fw.png	159.49008178710938	1.0902881622314453
41	51.24940299987793	response	0	j		39.0	/experiments/knapen_aot/AOT/AOT_stimuli/pictures/1492_fw.png	160.57007789611816	
42	51.259695053100586	picture	0		105	40.0	/experiments/knapen_aot/AOT/AOT_stimuli/pictures/1517_fw.png	160.58036994934082	0.8749539852142334
42	52.12450289726257	response	0	k		40.0	/experiments/knapen_aot/AOT/AOT_stimuli/pictures/1517_fw.png	161.4451777935028	
43	52.13464903831482	picture	0		95	41.0	/experiments/knapen_aot/AOT/AOT_stimuli/pictures/1467_fw.png	161.45532393455505	0.79168701171875
43	52.91613698005676	response	0	j		41.0	/experiments/knapen_aot/AOT/AOT_stimuli/pictures/1467_fw.png	162.236811876297	
44	52.92633605003357	picture	0		116	42.0	/experiments/knapen_aot/AOT/AOT_stimuli/pictures/1150_fw.png	162.2470109462738	0.9652860164642334
44	53.8828330039978	response	0	k		42.0	/experiments/knapen_aot/AOT/AOT_stimuli/pictures/1150_fw.png	163.20350790023804	
45	53.8916220664978	picture	0		133	43.0	/experiments/knapen_aot/AOT/AOT_stimuli/pictures/0671_fw.png	163.21229696273804	1.1110649108886719
45	54.991122007369995	response	0	k		43.0	/experiments/knapen_aot/AOT/AOT_stimuli/pictures/0671_fw.png	164.31179690361023	
46	55.002686977386475	picture	0		85	44.0	/experiments/knapen_aot/AOT/AOT_stimuli/pictures/0843_fw.png	164.3233618736267	0.7083520889282227
46	55.69940996170044	response	0	j		44.0	/experiments/knapen_aot/AOT/AOT_stimuli/pictures/0843_fw.png	165.02008485794067	
47	55.7110390663147	picture	0		124	45.0	/experiments/knapen_aot/AOT/AOT_stimuli/pictures/0292_fw.png	165.03171396255493	1.0348169803619385
47	56.73281002044678	response	0	k		45.0	/experiments/knapen_aot/AOT/AOT_stimuli/pictures/0292_fw.png	166.053484916687	
48	56.745856046676636	picture	0		109	46.0	/experiments/knapen_aot/AOT/AOT_stimuli/pictures/2137_fw.png	166.06653094291687	0.9165630340576172
48	57.64943885803223	response	0	k		46.0	/experiments/knapen_aot/AOT/AOT_stimuli/pictures/2137_fw.png	166.97011375427246	
49	57.66241908073425	picture	0		93	47.0	/experiments/knapen_aot/AOT/AOT_stimuli/pictures/1120_fw.png	166.9830939769745	0.7869977951049805
49	58.433269023895264	response	0	j		47.0	/experiments/knapen_aot/AOT/AOT_stimuli/pictures/1120_fw.png	167.7539439201355	
50	58.44941687583923	picture	0		138	48.0	/experiments/knapen_aot/AOT/AOT_stimuli/pictures/2126_fw.png	167.77009177207947	1.1504721641540527
50	59.59106993675232	response	0	j		48.0	/experiments/knapen_aot/AOT/AOT_stimuli/pictures/2126_fw.png	168.91174483299255	
51	59.599889039993286	picture	0		90	49.0	/experiments/knapen_aot/AOT/AOT_stimuli/pictures/0639_fw.png	168.92056393623352	0.7577970027923584
51	60.3411009311676	response	0	j		49.0	/experiments/knapen_aot/AOT/AOT_stimuli/pictures/0639_fw.png	169.66177582740784	
52	60.357686042785645	picture	0		95	50.0	/experiments/knapen_aot/AOT/AOT_stimuli/pictures/2096_fw.png	169.67836093902588	0.8000249862670898
52	61.141589879989624	response	0	j		50.0	/experiments/knapen_aot/AOT/AOT_stimuli/pictures/2096_fw.png	170.46226477622986	
53	61.157711029052734	picture	0		138	51.0	/experiments/knapen_aot/AOT/AOT_stimuli/pictures/1129_fw.png	170.47838592529297	1.1505019664764404
53	62.299479961395264	response	0	k		51.0	/experiments/knapen_aot/AOT/AOT_stimuli/pictures/1129_fw.png	171.6201548576355	
54	62.308212995529175	picture	0		131	52.0	/experiments/knapen_aot/AOT/AOT_stimuli/pictures/0368_fw.png	171.6288878917694	1.0995230674743652
54	63.39165902137756	response	0	k		52.0	/experiments/knapen_aot/AOT/AOT_stimuli/pictures/0368_fw.png	172.7123339176178	
55	63.40773606300354	picture	0		148	53.0	/experiments/knapen_aot/AOT/AOT_stimuli/pictures/1686_fw.png	172.72841095924377	1.2416019439697266
55	64.63278198242188	response	0	k		53.0	/experiments/knapen_aot/AOT/AOT_stimuli/pictures/1686_fw.png	173.9534568786621	
56	64.64933800697327	picture	0		107	54.0	/experiments/knapen_aot/AOT/AOT_stimuli/pictures/0159_fw.png	173.9700129032135	0.8999760150909424
56	65.53277707099915	response	0	j		54.0	/experiments/knapen_aot/AOT/AOT_stimuli/pictures/0159_fw.png	174.85345196723938	
57	65.54931402206421	picture	0		104	55.0	/experiments/knapen_aot/AOT/AOT_stimuli/pictures/0391_fw.png	174.86998891830444	0.8700339794158936
57	66.40106105804443	response	0	k		55.0	/experiments/knapen_aot/AOT/AOT_stimuli/pictures/0391_fw.png	175.72173595428467	
58	66.4193480014801	picture	0		93	56.0	/experiments/knapen_aot/AOT/AOT_stimuli/pictures/1937_fw.png	175.74002289772034	0.7799849510192871
58	67.18322587013245	response	0	j		56.0	/experiments/knapen_aot/AOT/AOT_stimuli/pictures/1937_fw.png	176.50390076637268	
59	67.19933295249939	picture	0		90	57.0	/experiments/knapen_aot/AOT/AOT_stimuli/pictures/0252_fw.png	176.52000784873962	0.7546029090881348
59	67.94105505943298	response	0	j		57.0	/experiments/knapen_aot/AOT/AOT_stimuli/pictures/0252_fw.png	177.26172995567322	
60	67.95393586158752	picture	0		118	58.0	/experiments/knapen_aot/AOT/AOT_stimuli/pictures/0958_fw.png	177.27461075782776	0.9791991710662842
60	68.9244019985199	response	0	k		58.0	/experiments/knapen_aot/AOT/AOT_stimuli/pictures/0958_fw.png	178.24507689476013	
61	68.93313503265381	picture	0		101	59.0	/experiments/knapen_aot/AOT/AOT_stimuli/pictures/2165_fw.png	178.25380992889404	0.8495140075683594
61	69.76655387878418	response	0	j		59.0	/experiments/knapen_aot/AOT/AOT_stimuli/pictures/2165_fw.png	179.0872287750244	
62	69.78264904022217	picture	0		188	60.0	/experiments/knapen_aot/AOT/AOT_stimuli/pictures/0883_fw.png	179.1033239364624	1.5671119689941406
62	71.34116387367249	response	0	k		60.0	/experiments/knapen_aot/AOT/AOT_stimuli/pictures/0883_fw.png	180.66183876991272	
63	71.34976100921631	picture	0		144	61.0	/experiments/knapen_aot/AOT/AOT_stimuli/pictures/0908_fw.png	180.67043590545654	1.2013869285583496
63	72.54106187820435	response	0	j		61.0	/experiments/knapen_aot/AOT/AOT_stimuli/pictures/0908_fw.png	181.86173677444458	
64	72.55114793777466	picture	0		144	62.0	/experiments/knapen_aot/AOT/AOT_stimuli/pictures/1308_fw.png	181.8718228340149	1.2013771533966064
64	73.7410318851471	response	0	j		62.0	/experiments/knapen_aot/AOT/AOT_stimuli/pictures/1308_fw.png	183.06170678138733	
65	73.75252509117126	picture	0		213	63.0	/experiments/knapen_aot/AOT/AOT_stimuli/pictures/0388_fw.png	183.0731999874115	1.7777378559112549
65	75.5164749622345	response	0	k		63.0	/experiments/knapen_aot/AOT/AOT_stimuli/pictures/0388_fw.png	184.83714985847473	
66	75.53026294708252	picture	0		103	64.0	/experiments/knapen_aot/AOT/AOT_stimuli/pictures/0204_fw.png	184.85093784332275	0.8611400127410889
66	76.38265490531921	response	0	j		64.0	/experiments/knapen_aot/AOT/AOT_stimuli/pictures/0204_fw.png	185.70332980155945	
67	76.39140295982361	picture	0		78	65.0	/experiments/knapen_aot/AOT/AOT_stimuli/pictures/0276_fw.png	185.71207785606384	0.6527678966522217
67	77.02594590187073	response	0	j		65.0	/experiments/knapen_aot/AOT/AOT_stimuli/pictures/0276_fw.png	186.34662079811096	
68	77.04417085647583	picture	0		157	66.0	/experiments/knapen_aot/AOT/AOT_stimuli/pictures/0314_fw.png	186.36484575271606	1.3055131435394287
68	78.3409788608551	response	0	k		66.0	/experiments/knapen_aot/AOT/AOT_stimuli/pictures/0314_fw.png	187.66165375709534	
69	78.34968400001526	picture	0		86	67.0	/experiments/knapen_aot/AOT/AOT_stimuli/pictures/1750_fw.png	187.6703588962555	0.7222080230712891
69	79.05810189247131	response	0	j		67.0	/experiments/knapen_aot/AOT/AOT_stimuli/pictures/1750_fw.png	188.37877678871155	
70	79.07189202308655	picture	0		113	68.0	/experiments/knapen_aot/AOT/AOT_stimuli/pictures/0961_fw.png	188.39256691932678	0.9444179534912109
70	80.00764489173889	response	0	j		68.0	/experiments/knapen_aot/AOT/AOT_stimuli/pictures/0961_fw.png	189.32831978797913	
71	80.01630997657776	picture	0		89	69.0	/experiments/knapen_aot/AOT/AOT_stimuli/pictures/0167_fw.png	189.336984872818	0.7430729866027832
71	80.74933505058289	response	0	j		69.0	/experiments/knapen_aot/AOT/AOT_stimuli/pictures/0167_fw.png	190.07000994682312	
72	80.75938296318054	picture	0		130	70.0	/experiments/knapen_aot/AOT/AOT_stimuli/pictures/0325_fw.png	190.08005785942078	1.0833590030670166
72	81.8258888721466	response	0	k		70.0	/experiments/knapen_aot/AOT/AOT_stimuli/pictures/0325_fw.png	191.14656376838684	
73	81.84274196624756	picture	0		95	71.0	/experiments/knapen_aot/AOT/AOT_stimuli/pictures/1006_fw.png	191.1634168624878	0.7981729507446289
73	82.61752390861511	response	0	k		71.0	/experiments/knapen_aot/AOT/AOT_stimuli/pictures/1006_fw.png	191.93819880485535	
74	82.64091491699219	picture	0		125	72.0	/experiments/knapen_aot/AOT/AOT_stimuli/pictures/2070_fw.png	191.96158981323242	1.042022943496704
74	83.67433190345764	response	0	j		72.0	/experiments/knapen_aot/AOT/AOT_stimuli/pictures/2070_fw.png	192.99500679969788	
75	83.68293786048889	picture	0		111	73.0	/experiments/knapen_aot/AOT/AOT_stimuli/pictures/1666_fw.png	193.00361275672913	0.9307360649108887
75	84.59976601600647	response	0	j		73.0	/experiments/knapen_aot/AOT/AOT_stimuli/pictures/1666_fw.png	193.9204409122467	
76	84.61367392539978	picture	0		91	74.0	/experiments/knapen_aot/AOT/AOT_stimuli/pictures/0827_fw.png	193.93434882164001	0.7637181282043457
76	85.36597299575806	response	0	j		74.0	/experiments/knapen_aot/AOT/AOT_stimuli/pictures/0827_fw.png	194.6866478919983	
77	85.37739205360413	picture	0		86	75.0	/experiments/knapen_aot/AOT/AOT_stimuli/pictures/0158_fw.png	194.69806694984436	0.7152860164642334
77	86.0826940536499	response	0	j		75.0	/experiments/knapen_aot/AOT/AOT_stimuli/pictures/0158_fw.png	195.40336894989014	
78	86.09267807006836	picture	0		115	76.0	/experiments/knapen_aot/AOT/AOT_stimuli/pictures/0917_fw.png	195.4133529663086	0.9583029747009277
78	87.0342378616333	response	0	j		76.0	/experiments/knapen_aot/AOT/AOT_stimuli/pictures/0917_fw.png	196.35491275787354	
79	87.05098104476929	picture	0		86	77.0	/experiments/knapen_aot/AOT/AOT_stimuli/pictures/0449_fw.png	196.37165594100952	0.7153308391571045
79	87.75764608383179	response	0	j		77.0	/experiments/knapen_aot/AOT/AOT_stimuli/pictures/0449_fw.png	197.07832098007202	
80	87.76631188392639	picture	0		177	78.0	/experiments/knapen_aot/AOT/AOT_stimuli/pictures/0430_fw.png	197.08698678016663	1.4792261123657227
80	89.22619891166687	response	0	k		78.0	/experiments/knapen_aot/AOT/AOT_stimuli/pictures/0430_fw.png	198.5468738079071	
81	89.24553799629211	picture	0		93	79.0	/experiments/knapen_aot/AOT/AOT_stimuli/pictures/0311_fw.png	198.56621289253235	0.7845969200134277
81	90.00916385650635	response	0	j		79.0	/experiments/knapen_aot/AOT/AOT_stimuli/pictures/0311_fw.png	199.32983875274658	
82	90.03013491630554	picture	0		207	80.0	/experiments/knapen_aot/AOT/AOT_stimuli/pictures/0010_fw.png	199.35080981254578	1.729161024093628
82	91.74929594993591	response	0	k		80.0	/experiments/knapen_aot/AOT/AOT_stimuli/pictures/0010_fw.png	201.06997084617615	
83	91.75929594039917	picture	0		94	81.0	/experiments/knapen_aot/AOT/AOT_stimuli/pictures/1960_fw.png	201.0799708366394	0.7847030162811279
83	92.53262901306152	response	0	j		81.0	/experiments/knapen_aot/AOT/AOT_stimuli/pictures/1960_fw.png	201.85330390930176	
84	92.5439989566803	picture	0		118	82.0	/experiments/knapen_aot/AOT/AOT_stimuli/pictures/0425_fw.png	201.86467385292053	0.986069917678833
84	93.51630997657776	response	0	k		82.0	/experiments/knapen_aot/AOT/AOT_stimuli/pictures/0425_fw.png	202.836984872818	
85	93.53006887435913	picture	0		105	83.0	/experiments/knapen_aot/AOT/AOT_stimuli/pictures/1861_fw.png	202.85074377059937	0.8819551467895508
85	94.39931988716125	response	0	k		83.0	/experiments/knapen_aot/AOT/AOT_stimuli/pictures/1861_fw.png	203.7199947834015	
86	94.41202402114868	picture	0		139	84.0	/experiments/knapen_aot/AOT/AOT_stimuli/pictures/0568_fw.png	203.73269891738892	1.1597230434417725
86	95.55793404579163	response	0	k		84.0	/experiments/knapen_aot/AOT/AOT_stimuli/pictures/0568_fw.png	204.87860894203186	
87	95.57174706459045	picture	0		176	85.0	/experiments/knapen_aot/AOT/AOT_stimuli/pictures/0277_fw.png	204.8924219608307	1.47216796875
87	97.02574396133423	response	0	j		85.0	/experiments/knapen_aot/AOT/AOT_stimuli/pictures/0277_fw.png	206.34641885757446	
88	97.04391503334045	picture	0		106	86.0	/experiments/knapen_aot/AOT/AOT_stimuli/pictures/0723_fw.png	206.3645899295807	0.8819830417633057
88	97.91594886779785	response	0	j		86.0	/experiments/knapen_aot/AOT/AOT_stimuli/pictures/0723_fw.png	207.2366237640381	
89	97.92589807510376	picture	0		125	87.0	/experiments/knapen_aot/AOT/AOT_stimuli/pictures/1204_fw.png	207.246572971344	1.041579008102417
89	98.95762705802917	response	0	k		87.0	/experiments/knapen_aot/AOT/AOT_stimuli/pictures/1204_fw.png	208.2783019542694	
90	98.96747708320618	picture	0		130	88.0	/experiments/knapen_aot/AOT/AOT_stimuli/pictures/1486_fw.png	208.2881519794464	1.0834019184112549
90	100.03419494628906	response	0	k		88.0	/experiments/knapen_aot/AOT/AOT_stimuli/pictures/1486_fw.png	209.3548698425293	
91	100.05087900161743	picture	0		126	89.0	/experiments/knapen_aot/AOT/AOT_stimuli/pictures/1015_fw.png	209.37155389785767	1.0486509799957275
91	101.09085202217102	response	0	k		89.0	/experiments/knapen_aot/AOT/AOT_stimuli/pictures/1015_fw.png	210.41152691841125	
92	101.09952998161316	picture	0		91	90.0	/experiments/knapen_aot/AOT/AOT_stimuli/pictures/2133_fw.png	210.4202048778534	0.7638270854949951
92	101.8495659828186	response	0	j		90.0	/experiments/knapen_aot/AOT/AOT_stimuli/pictures/2133_fw.png	211.17024087905884	
93	101.86335706710815	picture	0		101	91.0	/experiments/knapen_aot/AOT/AOT_stimuli/pictures/1141_fw.png	211.1840319633484	0.8471999168395996
93	102.69930791854858	response	0	k		91.0	/experiments/knapen_aot/AOT/AOT_stimuli/pictures/1141_fw.png	212.01998281478882	
94	102.71055698394775	picture	0		102	92.0	/experiments/knapen_aot/AOT/AOT_stimuli/pictures/0242_fw.png	212.031231880188	0.8472130298614502
94	103.54924488067627	response	0	k		92.0	/experiments/knapen_aot/AOT/AOT_stimuli/pictures/0242_fw.png	212.8699197769165	
95	103.5577700138092	picture	0		107	93.0	/experiments/knapen_aot/AOT/AOT_stimuli/pictures/1419_fw.png	212.87844491004944	0.8958048820495605
95	104.43436598777771	response	0	k		93.0	/experiments/knapen_aot/AOT/AOT_stimuli/pictures/1419_fw.png	213.75504088401794	
96	104.45357489585876	picture	0		106	94.0	/experiments/knapen_aot/AOT/AOT_stimuli/pictures/2073_fw.png	213.774249792099	0.8819479942321777
96	105.32423090934753	response	0	k		94.0	/experiments/knapen_aot/AOT/AOT_stimuli/pictures/2073_fw.png	214.64490580558777	
97	105.33552289009094	picture	0		142	95.0	/experiments/knapen_aot/AOT/AOT_stimuli/pictures/0323_fw.png	214.65619778633118	1.1806330680847168
97	106.50759196281433	response	0	k		95.0	/experiments/knapen_aot/AOT/AOT_stimuli/pictures/0323_fw.png	215.82826685905457	
98	106.51615595817566	picture	0		290	96.0	/experiments/knapen_aot/AOT/AOT_stimuli/pictures/1358_fw.png	215.8368308544159	2.4165589809417725
98	108.92425489425659	response	0	j		96.0	/experiments/knapen_aot/AOT/AOT_stimuli/pictures/1358_fw.png	218.24492979049683	
99	108.93271493911743	picture	0		115	97.0	/experiments/knapen_aot/AOT/AOT_stimuli/pictures/1479_fw.png	218.25338983535767	0.958327054977417
99	109.8825089931488	response	0	k		97.0	/experiments/knapen_aot/AOT/AOT_stimuli/pictures/1479_fw.png	219.20318388938904	
100	109.89104199409485	picture	0		82	98.0	/experiments/knapen_aot/AOT/AOT_stimuli/pictures/1938_fw.png	219.21171689033508	0.6875178813934326
100	110.56589603424072	response	0	k		98.0	/experiments/knapen_aot/AOT/AOT_stimuli/pictures/1938_fw.png	219.88657093048096	
101	110.57855987548828	picture	0		107	99.0	/experiments/knapen_aot/AOT/AOT_stimuli/pictures/0401_fw.png	219.89923477172852	0.8888661861419678
101	111.45756888389587	response	0	j		99.0	/experiments/knapen_aot/AOT/AOT_stimuli/pictures/0401_fw.png	220.7782437801361	
102	111.46742606163025	picture	0		95	100.0	/experiments/knapen_aot/AOT/AOT_stimuli/pictures/2178_fw.png	220.78810095787048	0.7916619777679443
102	112.24236106872559	response	0	j		100.0	/experiments/knapen_aot/AOT/AOT_stimuli/pictures/2178_fw.png	221.56303596496582	
103	112.2590880393982	picture	0		164	101.0	/experiments/knapen_aot/AOT/AOT_stimuli/pictures/0019_fw.png	221.57976293563843	1.3680779933929443
103	113.61589288711548	response	0	j		101.0	/experiments/knapen_aot/AOT/AOT_stimuli/pictures/0019_fw.png	222.9365677833557	
104	113.62716603279114	picture	0		95	102.0	/experiments/knapen_aot/AOT/AOT_stimuli/pictures/0913_fw.png	222.94784092903137	0.7975139617919922
104	114.40743207931519	response	0	k		102.0	/experiments/knapen_aot/AOT/AOT_stimuli/pictures/0913_fw.png	223.72810697555542	
105	114.42467999458313	picture	0		100	103.0	/experiments/knapen_aot/AOT/AOT_stimuli/pictures/0786_fw.png	223.74535489082336	0.8410940170288086
105	115.24241089820862	response	0	j		103.0	/experiments/knapen_aot/AOT/AOT_stimuli/pictures/0786_fw.png	224.56308579444885	
106	115.26577401161194	picture	0		96	104.0	/experiments/knapen_aot/AOT/AOT_stimuli/pictures/0899_fw.png	224.58644890785217	0.8057739734649658
106	116.05769205093384	response	0	j		104.0	/experiments/knapen_aot/AOT/AOT_stimuli/pictures/0899_fw.png	225.37836694717407	
107	116.0715479850769	picture	0		305	105.0	/experiments/knapen_aot/AOT/AOT_stimuli/pictures/1163_fw.png	225.39222288131714	2.5485570430755615
107	118.60752701759338	response	0	j		105.0	/experiments/knapen_aot/AOT/AOT_stimuli/pictures/1163_fw.png	227.92820191383362	
108	118.62010502815247	picture	0		124	106.0	/experiments/knapen_aot/AOT/AOT_stimuli/pictures/0856_fw.png	227.9407799243927	1.0347368717193604
108	119.63404607772827	response	0	k		106.0	/experiments/knapen_aot/AOT/AOT_stimuli/pictures/0856_fw.png	228.9547209739685	
109	119.65484189987183	picture	0		166	107.0	/experiments/knapen_aot/AOT/AOT_stimuli/pictures/1572_fw.png	228.97551679611206	1.3888351917266846
109	121.02581787109375	response	0	k		107.0	/experiments/knapen_aot/AOT/AOT_stimuli/pictures/1572_fw.png	230.34649276733398	
110	121.04367709159851	picture	0		86	108.0	/experiments/knapen_aot/AOT/AOT_stimuli/pictures/0114_fw.png	230.36435198783875	0.7152888774871826
110	121.7491250038147	response	0	j		108.0	/experiments/knapen_aot/AOT/AOT_stimuli/pictures/0114_fw.png	231.06979990005493	
111	121.7589659690857	picture	0		103	109.0	/experiments/knapen_aot/AOT/AOT_stimuli/pictures/1566_fw.png	231.07964086532593	0.8611359596252441
111	122.60750102996826	response	0	k		109.0	/experiments/knapen_aot/AOT/AOT_stimuli/pictures/1566_fw.png	231.9281759262085	
112	122.62010192871094	picture	0		94	110.0	/experiments/knapen_aot/AOT/AOT_stimuli/pictures/0743_fw.png	231.94077682495117	0.7847189903259277
112	123.39096999168396	response	0	j		110.0	/experiments/knapen_aot/AOT/AOT_stimuli/pictures/0743_fw.png	232.7116448879242	
113	123.40482091903687	picture	0		154	111.0	/experiments/knapen_aot/AOT/AOT_stimuli/pictures/2054_fw.png	232.7254958152771	1.2917029857635498
113	124.68267607688904	response	0	k		111.0	/experiments/knapen_aot/AOT/AOT_stimuli/pictures/2054_fw.png	234.00335097312927	
114	124.69652390480042	picture	0		125	112.0	/experiments/knapen_aot/AOT/AOT_stimuli/pictures/0082_fw.png	234.01719880104065	1.0524921417236328
114	125.73245191574097	response	0	k		112.0	/experiments/knapen_aot/AOT/AOT_stimuli/pictures/0082_fw.png	235.0531268119812	
115	125.74901604652405	picture	0		100	113.0	/experiments/knapen_aot/AOT/AOT_stimuli/pictures/1583_fw.png	235.06969094276428	0.8363239765167236
115	126.57412099838257	response	0	j		113.0	/experiments/knapen_aot/AOT/AOT_stimuli/pictures/1583_fw.png	235.8947958946228	
116	126.58534002304077	picture	0		203	114.0	/experiments/knapen_aot/AOT/AOT_stimuli/pictures/2031_fw.png	235.906014919281	1.6971309185028076
116	128.25900602340698	response	0	k		114.0	/experiments/knapen_aot/AOT/AOT_stimuli/pictures/2031_fw.png	237.57968091964722	
117	128.28247094154358	picture	0		163	115.0	/experiments/knapen_aot/AOT/AOT_stimuli/pictures/1896_fw.png	237.6031458377838	1.3583719730377197
117	129.62562608718872	response	0	k		115.0	/experiments/knapen_aot/AOT/AOT_stimuli/pictures/1896_fw.png	238.94630098342896	
118	129.6408429145813	picture	0		113	116.0	/experiments/knapen_aot/AOT/AOT_stimuli/pictures/1824_fw.png	238.96151781082153	0.9444980621337891
118	130.5741229057312	response	0	k		116.0	/experiments/knapen_aot/AOT/AOT_stimuli/pictures/1824_fw.png	239.89479780197144	
119	130.5853409767151	picture	0		102	117.0	/experiments/knapen_aot/AOT/AOT_stimuli/pictures/2023_fw.png	239.90601587295532	0.8471360206604004
119	131.42411494255066	response	0	j		117.0	/experiments/knapen_aot/AOT/AOT_stimuli/pictures/2023_fw.png	240.7447898387909	
120	131.4324769973755	picture	0		141	118.0	/experiments/knapen_aot/AOT/AOT_stimuli/pictures/0185_fw.png	240.75315189361572	1.183189868927002
120	132.59918808937073	response	0	k		118.0	/experiments/knapen_aot/AOT/AOT_stimuli/pictures/0185_fw.png	241.91986298561096	
121	132.6156668663025	picture	0		130	119.0	/experiments/knapen_aot/AOT/AOT_stimuli/pictures/1975_fw.png	241.93634176254272	1.087644100189209
121	133.69074988365173	response	0	k		119.0	/experiments/knapen_aot/AOT/AOT_stimuli/pictures/1975_fw.png	243.01142477989197	
122	133.7033109664917	picture	0		118	120.0	/experiments/knapen_aot/AOT/AOT_stimuli/pictures/0354_fw.png	243.02398586273193	0.9874989986419678
122	134.6740710735321	response	0	k		120.0	/experiments/knapen_aot/AOT/AOT_stimuli/pictures/0354_fw.png	243.99474596977234	
123	134.69080996513367	picture	0		149	121.0	/experiments/knapen_aot/AOT/AOT_stimuli/pictures/1791_fw.png	244.0114848613739	1.2415931224822998
123	135.9240860939026	response	0	k		121.0	/experiments/knapen_aot/AOT/AOT_stimuli/pictures/1791_fw.png	245.24476099014282	
124	135.93240308761597	picture	0		114	122.0	/experiments/knapen_aot/AOT/AOT_stimuli/pictures/0026_fw.png	245.2530779838562	0.9514379501342773
124	136.87411999702454	response	0	k		122.0	/experiments/knapen_aot/AOT/AOT_stimuli/pictures/0026_fw.png	246.19479489326477	
125	136.88384103775024	picture	0		119	123.0	/experiments/knapen_aot/AOT/AOT_stimuli/pictures/1734_fw.png	246.20451593399048	0.9930820465087891
125	137.8590259552002	response	0	k		123.0	/experiments/knapen_aot/AOT/AOT_stimuli/pictures/1734_fw.png	247.17970085144043	
126	137.87692308425903	picture	0		162	124.0	/experiments/knapen_aot/AOT/AOT_stimuli/pictures/2129_fw.png	247.19759798049927	1.3471429347991943
126	139.21570491790771	response	0	k		124.0	/experiments/knapen_aot/AOT/AOT_stimuli/pictures/2129_fw.png	248.53637981414795	
127	139.22406601905823	picture	0		141	125.0	/experiments/knapen_aot/AOT/AOT_stimuli/pictures/1943_fw.png	248.54474091529846	1.180675983428955
127	140.39083099365234	response	0	k		125.0	/experiments/knapen_aot/AOT/AOT_stimuli/pictures/1943_fw.png	249.71150588989258	
128	140.40474200248718	picture	0		106	126.0	/experiments/knapen_aot/AOT/AOT_stimuli/pictures/0319_fw.png	249.72541689872742	0.8888158798217773
128	141.28249788284302	response	0	j		126.0	/experiments/knapen_aot/AOT/AOT_stimuli/pictures/0319_fw.png	250.60317277908325	
129	141.29355788230896	picture	0		80	127.0	/experiments/knapen_aot/AOT/AOT_stimuli/pictures/1366_fw.png	250.6142327785492	0.6666560173034668
129	141.94909501075745	response	0	j		127.0	/experiments/knapen_aot/AOT/AOT_stimuli/pictures/1366_fw.png	251.26976990699768	
130	141.96021389961243	picture	0		90	128.0	/experiments/knapen_aot/AOT/AOT_stimuli/pictures/0097_fw.png	251.28088879585266	0.7499830722808838
130	142.69910502433777	response	0	j		128.0	/experiments/knapen_aot/AOT/AOT_stimuli/pictures/0097_fw.png	252.019779920578	
131	142.7101969718933	picture	0		84	129.0	/experiments/knapen_aot/AOT/AOT_stimuli/pictures/0642_fw.png	252.03087186813354	0.701401948928833
131	143.39908504486084	response	0	j		129.0	/experiments/knapen_aot/AOT/AOT_stimuli/pictures/0642_fw.png	252.71975994110107	
132	143.41159892082214	picture	0		99	130.0	/experiments/knapen_aot/AOT/AOT_stimuli/pictures/2170_fw.png	252.73227381706238	0.8263671398162842
132	144.22423696517944	response	0	j		130.0	/experiments/knapen_aot/AOT/AOT_stimuli/pictures/2170_fw.png	253.54491186141968	
133	144.23796606063843	picture	0		78	131.0	/experiments/knapen_aot/AOT/AOT_stimuli/pictures/1417_fw.png	253.55864095687866	0.6528739929199219
133	144.88245296478271	response	0	j		131.0	/experiments/knapen_aot/AOT/AOT_stimuli/pictures/1417_fw.png	254.20312786102295	
134	144.89084005355835	picture	0		89	132.0	/experiments/knapen_aot/AOT/AOT_stimuli/pictures/1528_fw.png	254.21151494979858	0.7428858280181885
134	145.62403202056885	response	0	j		132.0	/experiments/knapen_aot/AOT/AOT_stimuli/pictures/1528_fw.png	254.94470691680908	
135	145.63372588157654	picture	0		130	133.0	/experiments/knapen_aot/AOT/AOT_stimuli/pictures/0691_fw.png	254.95440077781677	1.0833861827850342
135	146.70746397972107	response	0	j		133.0	/experiments/knapen_aot/AOT/AOT_stimuli/pictures/0691_fw.png	256.0281388759613	
136	146.71711206436157	picture	0		191	134.0	/experiments/knapen_aot/AOT/AOT_stimuli/pictures/1916_fw.png	256.0377869606018	1.5902578830718994
136	148.2990779876709	response	0	j		134.0	/experiments/knapen_aot/AOT/AOT_stimuli/pictures/1916_fw.png	257.61975288391113	
137	148.30736994743347	picture	0		99	135.0	/experiments/knapen_aot/AOT/AOT_stimuli/pictures/1594_fw.png	257.6280448436737	0.8263380527496338
137	149.1240270137787	response	0	k		135.0	/experiments/knapen_aot/AOT/AOT_stimuli/pictures/1594_fw.png	258.4447019100189	
138	149.1337080001831	picture	0		100	136.0	/experiments/knapen_aot/AOT/AOT_stimuli/pictures/1307_fw.png	258.45438289642334	0.8333580493927002
138	149.95741295814514	response	0	k		136.0	/experiments/knapen_aot/AOT/AOT_stimuli/pictures/1307_fw.png	259.2780878543854	
139	149.9670660495758	picture	0		132	137.0	/experiments/knapen_aot/AOT/AOT_stimuli/pictures/1108_fw.png	259.28774094581604	1.1041760444641113
139	151.05070686340332	response	0	j		137.0	/experiments/knapen_aot/AOT/AOT_stimuli/pictures/1108_fw.png	260.37138175964355	
140	151.07124209403992	picture	0		93	138.0	/experiments/knapen_aot/AOT/AOT_stimuli/pictures/2066_fw.png	260.39191699028015	0.7778098583221436
140	151.8341109752655	response	0	j		138.0	/experiments/knapen_aot/AOT/AOT_stimuli/pictures/2066_fw.png	261.15478587150574	
141	151.84905195236206	picture	0		146	139.0	/experiments/knapen_aot/AOT/AOT_stimuli/pictures/0610_fw.png	261.1697268486023	1.2222230434417725
141	153.05056595802307	response	0	j		139.0	/experiments/knapen_aot/AOT/AOT_stimuli/pictures/0610_fw.png	262.3712408542633	
142	153.07127499580383	picture	0		102	140.0	/experiments/knapen_aot/AOT/AOT_stimuli/pictures/0750_fw.png	262.39194989204407	0.8540849685668945
142	153.91573786735535	response	0	j		140.0	/experiments/knapen_aot/AOT/AOT_stimuli/pictures/0750_fw.png	263.2364127635956	
143	153.92535996437073	picture	0		142	141.0	/experiments/knapen_aot/AOT/AOT_stimuli/pictures/0633_fw.png	263.24603486061096	1.1875231266021729
143	155.09906387329102	response	0	k		141.0	/experiments/knapen_aot/AOT/AOT_stimuli/pictures/0633_fw.png	264.41973876953125	
144	155.1128830909729	picture	0		116	142.0	/experiments/knapen_aot/AOT/AOT_stimuli/pictures/1097_fw.png	264.43355798721313	0.9721798896789551
144	156.07399201393127	response	0	j		142.0	/experiments/knapen_aot/AOT/AOT_stimuli/pictures/1097_fw.png	265.3946669101715	
145	156.08506298065186	picture	0		154	143.0	/experiments/knapen_aot/AOT/AOT_stimuli/pictures/0268_fw.png	265.4057378768921	1.2888898849487305
145	157.35733795166016	response	0	j		143.0	/experiments/knapen_aot/AOT/AOT_stimuli/pictures/0268_fw.png	266.6780128479004	
146	157.3739528656006	picture	0		149	144.0	/experiments/knapen_aot/AOT/AOT_stimuli/pictures/2102_fw.png	266.6946277618408	1.245833158493042
146	158.60736894607544	response	0	j		144.0	/experiments/knapen_aot/AOT/AOT_stimuli/pictures/2102_fw.png	267.9280438423157	
147	158.61978602409363	picture	0		108	145.0	/experiments/knapen_aot/AOT/AOT_stimuli/pictures/0300_fw.png	267.94046092033386	0.8957619667053223
147	159.50738787651062	response	0	j		145.0	/experiments/knapen_aot/AOT/AOT_stimuli/pictures/0300_fw.png	268.82806277275085	
148	159.51554799079895	picture	0		153	146.0	/experiments/knapen_aot/AOT/AOT_stimuli/pictures/1398_fw.png	268.8362228870392	1.277806043624878
148	160.78230094909668	response	0	k		146.0	/experiments/knapen_aot/AOT/AOT_stimuli/pictures/1398_fw.png	270.1029758453369	
149	160.79335403442383	picture	0		95	147.0	/experiments/knapen_aot/AOT/AOT_stimuli/pictures/0395_fw.png	270.11402893066406	0.7916638851165771
149	161.57399487495422	response	0	j		147.0	/experiments/knapen_aot/AOT/AOT_stimuli/pictures/0395_fw.png	270.89466977119446	
150	161.5850179195404	picture	0		108	148.0	/experiments/knapen_aot/AOT/AOT_stimuli/pictures/1110_fw.png	270.90569281578064	0.9027590751647949
150	162.47397994995117	response	0	j		148.0	/experiments/knapen_aot/AOT/AOT_stimuli/pictures/1110_fw.png	271.7946548461914	
151	162.4877769947052	picture	0		85	149.0	/experiments/knapen_aot/AOT/AOT_stimuli/pictures/1614_fw.png	271.80845189094543	0.7152180671691895
151	163.19063901901245	response	0	j		149.0	/experiments/knapen_aot/AOT/AOT_stimuli/pictures/1614_fw.png	272.5113139152527	
152	163.2029950618744	picture	0		221	150.0	/experiments/knapen_aot/AOT/AOT_stimuli/pictures/0064_fw.png	272.5236699581146	1.8403208255767822
152	165.0322549343109	response	0	k		150.0	/experiments/knapen_aot/AOT/AOT_stimuli/pictures/0064_fw.png	274.35292983055115	
153	165.04331588745117	picture	0		119	151.0	/experiments/knapen_aot/AOT/AOT_stimuli/pictures/1159_fw.png	274.3639907836914	0.992988109588623
153	166.02392101287842	response	0	j		151.0	/experiments/knapen_aot/AOT/AOT_stimuli/pictures/1159_fw.png	275.34459590911865	
154	166.0363039970398	picture	0		310	152.0	/experiments/knapen_aot/AOT/AOT_stimuli/pictures/1459_fw.png	275.35697889328003	2.5833449363708496
154	168.6073100566864	response	0	k		152.0	/experiments/knapen_aot/AOT/AOT_stimuli/pictures/1459_fw.png	277.92798495292664	
155	168.61964893341064	picture	0		97	153.0	/experiments/knapen_aot/AOT/AOT_stimuli/pictures/1908_fw.png	277.9403238296509	0.8055670261383057
155	169.41560196876526	response	0	j		153.0	/experiments/knapen_aot/AOT/AOT_stimuli/pictures/1908_fw.png	278.7362768650055	
156	169.42521595954895	picture	0		233	154.0	/experiments/knapen_aot/AOT/AOT_stimuli/pictures/1238_fw.png	278.7458908557892	1.9443891048431396
156	171.35731196403503	response	0	j		154.0	/experiments/knapen_aot/AOT/AOT_stimuli/pictures/1238_fw.png	280.67798686027527	
157	171.3696050643921	picture	0		110	155.0	/experiments/knapen_aot/AOT/AOT_stimuli/pictures/0865_fw.png	280.6902799606323	0.9166789054870605
157	172.26722693443298	response	0	k		155.0	/experiments/knapen_aot/AOT/AOT_stimuli/pictures/0865_fw.png	281.5879018306732	
158	172.28628396987915	picture	0		92	156.0	/experiments/knapen_aot/AOT/AOT_stimuli/pictures/2167_fw.png	281.6069588661194	0.763901948928833
158	173.04059290885925	response	0	k		156.0	/experiments/knapen_aot/AOT/AOT_stimuli/pictures/2167_fw.png	282.3612678050995	
159	173.05018591880798	picture	0		100	157.0	/experiments/knapen_aot/AOT/AOT_stimuli/pictures/1073_fw.png	282.3708608150482	0.8332929611206055
159	173.86722993850708	response	0	k		157.0	/experiments/knapen_aot/AOT/AOT_stimuli/pictures/1073_fw.png	283.1879048347473	
160	173.8834788799286	picture	0		139	158.0	/experiments/knapen_aot/AOT/AOT_stimuli/pictures/1485_fw.png	283.2041537761688	1.1597230434417725
160	175.03220891952515	response	0	j		158.0	/experiments/knapen_aot/AOT/AOT_stimuli/pictures/1485_fw.png	284.3528838157654	
161	175.04320192337036	picture	0		101	159.0	/experiments/knapen_aot/AOT/AOT_stimuli/pictures/0726_fw.png	284.3638768196106	0.8402600288391113
161	175.8672878742218	response	0	j		159.0	/experiments/knapen_aot/AOT/AOT_stimuli/pictures/0726_fw.png	285.18796277046204	
162	175.88346195220947	picture	0		102	160.0	/experiments/knapen_aot/AOT/AOT_stimuli/pictures/0287_fw.png	285.2041368484497	0.8542759418487549
162	176.72391891479492	response	0	k		160.0	/experiments/knapen_aot/AOT/AOT_stimuli/pictures/0287_fw.png	286.04459381103516	
163	176.73773789405823	picture	0		124	161.0	/experiments/knapen_aot/AOT/AOT_stimuli/pictures/0407_fw.png	286.05841279029846	1.0445001125335693
163	177.76553297042847	response	0	k		161.0	/experiments/knapen_aot/AOT/AOT_stimuli/pictures/0407_fw.png	287.0862078666687	
164	177.7822380065918	picture	0		102	162.0	/experiments/knapen_aot/AOT/AOT_stimuli/pictures/0753_fw.png	287.10291290283203	0.8583090305328369
164	178.62389993667603	response	0	j		162.0	/experiments/knapen_aot/AOT/AOT_stimuli/pictures/0753_fw.png	287.94457483291626	
165	178.64054703712463	picture	0		127	163.0	/experiments/knapen_aot/AOT/AOT_stimuli/pictures/2077_fw.png	287.96122193336487	1.062337875366211
165	179.69050788879395	response	0	j		163.0	/experiments/knapen_aot/AOT/AOT_stimuli/pictures/2077_fw.png	289.0111827850342	
166	179.70288491249084	picture	0		168	164.0	/experiments/knapen_aot/AOT/AOT_stimuli/pictures/1294_fw.png	289.0235598087311	1.3958630561828613
166	181.08382105827332	response	0	k		164.0	/experiments/knapen_aot/AOT/AOT_stimuli/pictures/1294_fw.png	290.40449595451355	
167	181.0987479686737	picture	0		126	165.0	/experiments/knapen_aot/AOT/AOT_stimuli/pictures/0480_fw.png	290.41942286491394	1.0584189891815186
167	182.14053201675415	response	0	j		165.0	/experiments/knapen_aot/AOT/AOT_stimuli/pictures/0480_fw.png	291.4612069129944	
168	182.15716695785522	picture	0		100	166.0	/experiments/knapen_aot/AOT/AOT_stimuli/pictures/0349_fw.png	291.47784185409546	0.8417270183563232
168	182.98232293128967	response	0	j		166.0	/experiments/knapen_aot/AOT/AOT_stimuli/pictures/0349_fw.png	292.3029978275299	
169	182.99889397621155	picture	0		80	167.0	/experiments/knapen_aot/AOT/AOT_stimuli/pictures/0728_fw.png	292.3195688724518	0.6692869663238525
169	183.65037298202515	response	0	j		167.0	/experiments/knapen_aot/AOT/AOT_stimuli/pictures/0728_fw.png	292.9710478782654	
170	183.6681809425354	picture	0		98	168.0	/experiments/knapen_aot/AOT/AOT_stimuli/pictures/1882_fw.png	292.98885583877563	0.8193719387054443
170	184.4671609401703	response	0	j		168.0	/experiments/knapen_aot/AOT/AOT_stimuli/pictures/1882_fw.png	293.7878358364105	
171	184.48755288124084	picture	0		106	169.0	/experiments/knapen_aot/AOT/AOT_stimuli/pictures/1534_fw.png	293.8082277774811	0.8888680934906006
171	185.36556696891785	response	0	j		169.0	/experiments/knapen_aot/AOT/AOT_stimuli/pictures/1534_fw.png	294.6862418651581	
172	185.37642097473145	picture	0		157	170.0	/experiments/knapen_aot/AOT/AOT_stimuli/pictures/1555_fw.png	294.6970958709717	1.3140239715576172
172	186.6670970916748	response	0	k		170.0	/experiments/knapen_aot/AOT/AOT_stimuli/pictures/1555_fw.png	295.98777198791504	
173	186.69044494628906	picture	0		272	171.0	/experiments/knapen_aot/AOT/AOT_stimuli/pictures/1689_fw.png	296.0111198425293	2.2750320434570312
173	188.9489119052887	response	0	k		171.0	/experiments/knapen_aot/AOT/AOT_stimuli/pictures/1689_fw.png	298.26958680152893	
174	188.9654769897461	picture	0		100	172.0	/experiments/knapen_aot/AOT/AOT_stimuli/pictures/0969_fw.png	298.2861518859863	0.8416390419006348
174	189.79050993919373	response	0	k		172.0	/experiments/knapen_aot/AOT/AOT_stimuli/pictures/0969_fw.png	299.11118483543396	
175	189.80711603164673	picture	0		96	173.0	/experiments/knapen_aot/AOT/AOT_stimuli/pictures/0598_fw.png	299.12779092788696	0.8054108619689941
175	190.59886002540588	response	0	j		173.0	/experiments/knapen_aot/AOT/AOT_stimuli/pictures/0598_fw.png	299.9195349216461	
176	190.61252689361572	picture	0		91	174.0	/experiments/knapen_aot/AOT/AOT_stimuli/pictures/0570_fw.png	299.93320178985596	0.7639751434326172
176	191.36553192138672	response	0	j		174.0	/experiments/knapen_aot/AOT/AOT_stimuli/pictures/0570_fw.png	300.68620681762695	
177	191.37650203704834	picture	0		102	175.0	/experiments/knapen_aot/AOT/AOT_stimuli/pictures/2032_fw.png	300.6971769332886	0.854118824005127
177	192.21552300453186	response	0	j		175.0	/experiments/knapen_aot/AOT/AOT_stimuli/pictures/2032_fw.png	301.5361979007721	
178	192.23062086105347	picture	0		280	176.0	/experiments/knapen_aot/AOT/AOT_stimuli/pictures/0721_fw.png	301.5512957572937	2.3401801586151123
178	194.55713486671448	response	0	k		176.0	/experiments/knapen_aot/AOT/AOT_stimuli/pictures/0721_fw.png	303.8778097629547	
179	194.57080101966858	picture	0		99	177.0	/experiments/knapen_aot/AOT/AOT_stimuli/pictures/1341_fw.png	303.8914759159088	0.8363950252532959
179	195.39049792289734	response	0	j		177.0	/experiments/knapen_aot/AOT/AOT_stimuli/pictures/1341_fw.png	304.7111728191376	
180	195.40719604492188	picture	0		94	178.0	/experiments/knapen_aot/AOT/AOT_stimuli/pictures/0497_fw.png	304.7278709411621	0.7915449142456055
180	196.1822109222412	response	0	j		178.0	/experiments/knapen_aot/AOT/AOT_stimuli/pictures/0497_fw.png	305.50288581848145	
181	196.19874095916748	picture	0		104	179.0	/experiments/knapen_aot/AOT/AOT_stimuli/pictures/0714_fw.png	305.5194158554077	0.8720760345458984
181	197.05711102485657	response	0	k		179.0	/experiments/knapen_aot/AOT/AOT_stimuli/pictures/0714_fw.png	306.3777859210968	
182	197.07081699371338	stim	0		439			306.3914918899536	3.652862071990967
182	200.71541905403137	response	0	space				310.0360939502716	
