trial_nr	onset	event_type	phase	response	nr_frames	picture_index	picture_file	onset_abs	duration
0	0.11342191696166992	stim	0		890			129.8738148212433	7.441699028015137
0	7.529842853546143	response	0	space				137.29023575782776	
2	7.555120944976807	picture	0		354	0.0	/experiments/knapen_aot/AOT/AOT_stimuli/pictures/0329_fw.png	137.31551384925842	2.9513449668884277
2	10.496510028839111	response	0	j		0.0	/experiments/knapen_aot/AOT/AOT_stimuli/pictures/0329_fw.png	140.25690293312073	
3	10.506465911865234	picture	0		210	1.0	/experiments/knapen_aot/AOT/AOT_stimuli/pictures/0983_fw.png	140.26685881614685	1.7499499320983887
3	12.246485948562622	response	0	k		1.0	/experiments/knapen_aot/AOT/AOT_stimuli/pictures/0983_fw.png	142.00687885284424	
4	12.256415843963623	picture	0		119	2.0	/experiments/knapen_aot/AOT/AOT_stimuli/pictures/0744_fw.png	142.01680874824524	0.9931161403656006
4	13.238130807876587	response	0	k		2.0	/experiments/knapen_aot/AOT/AOT_stimuli/pictures/0744_fw.png	142.9985237121582	
5	13.249531984329224	picture	0		128	3.0	/experiments/knapen_aot/AOT/AOT_stimuli/pictures/1408_fw.png	143.00992488861084	1.0763559341430664
5	14.313162803649902	response	0	j		3.0	/experiments/knapen_aot/AOT/AOT_stimuli/pictures/1408_fw.png	144.07355570793152	
6	14.32588791847229	picture	0		130	4.0	/experiments/knapen_aot/AOT/AOT_stimuli/pictures/1320_fw.png	144.0862808227539	1.0832839012145996
6	15.396507978439331	response	0	k		4.0	/experiments/knapen_aot/AOT/AOT_stimuli/pictures/1320_fw.png	145.15690088272095	
7	15.40917181968689	picture	0		180	5.0	/experiments/knapen_aot/AOT/AOT_stimuli/pictures/0028_fw.png	145.1695647239685	1.500016212463379
7	16.896474838256836	response	0	k		5.0	/experiments/knapen_aot/AOT/AOT_stimuli/pictures/0028_fw.png	146.65686774253845	
8	16.90918803215027	picture	0		87	6.0	/experiments/knapen_aot/AOT/AOT_stimuli/pictures/0244_fw.png	146.66958093643188	0.7222108840942383
8	17.62150287628174	response	0	j		6.0	/experiments/knapen_aot/AOT/AOT_stimuli/pictures/0244_fw.png	147.38189578056335	
9	17.631398916244507	picture	0		493	7.0	/experiments/knapen_aot/AOT/AOT_stimuli/pictures/1474_fw.png	147.39179182052612	4.111087083816528
9	21.723269939422607	response	0	k		7.0	/experiments/knapen_aot/AOT/AOT_stimuli/pictures/1474_fw.png	151.48366284370422	
10	21.742486000061035	picture	0		96	8.0	/experiments/knapen_aot/AOT/AOT_stimuli/pictures/0503_fw.png	151.50287890434265	0.7985730171203613
10	22.52298593521118	response	0	k		8.0	/experiments/knapen_aot/AOT/AOT_stimuli/pictures/0503_fw.png	152.2833788394928	
11	22.541059017181396	picture	0		112	9.0	/experiments/knapen_aot/AOT/AOT_stimuli/pictures/0437_fw.png	152.301451921463	0.9306128025054932
11	23.4632248878479	response	0	k		9.0	/experiments/knapen_aot/AOT/AOT_stimuli/pictures/0437_fw.png	153.22361779212952	
12	23.47167181968689	picture	0		99	10.0	/experiments/knapen_aot/AOT/AOT_stimuli/pictures/0622_fw.png	153.2320647239685	0.8263270854949951
12	24.288141012191772	response	0	j		10.0	/experiments/knapen_aot/AOT/AOT_stimuli/pictures/0622_fw.png	154.0485339164734	
13	24.297998905181885	picture	0		115	11.0	/experiments/knapen_aot/AOT/AOT_stimuli/pictures/1092_fw.png	154.0583918094635	0.958319902420044
13	25.246434926986694	response	0	k		11.0	/experiments/knapen_aot/AOT/AOT_stimuli/pictures/1092_fw.png	155.0068278312683	
14	25.25631880760193	picture	0		154	12.0	/experiments/knapen_aot/AOT/AOT_stimuli/pictures/1924_fw.png	155.01671171188354	1.2847001552581787
14	26.523005962371826	response	0	j		12.0	/experiments/knapen_aot/AOT/AOT_stimuli/pictures/1924_fw.png	156.28339886665344	
15	26.541018962860107	picture	0		133	13.0	/experiments/knapen_aot/AOT/AOT_stimuli/pictures/1117_fw.png	156.30141186714172	1.1113128662109375
15	27.638322830200195	response	0	k		13.0	/experiments/knapen_aot/AOT/AOT_stimuli/pictures/1117_fw.png	157.3987157344818	
16	27.652331829071045	picture	0		104	14.0	/experiments/knapen_aot/AOT/AOT_stimuli/pictures/1471_fw.png	157.41272473335266	0.8774211406707764
16	28.513317823410034	response	0	k		14.0	/experiments/knapen_aot/AOT/AOT_stimuli/pictures/1471_fw.png	158.27371072769165	
17	28.52975296974182	picture	0		137	15.0	/experiments/knapen_aot/AOT/AOT_stimuli/pictures/0471_fw.png	158.29014587402344	1.1431708335876465
17	29.663079977035522	response	0	k		15.0	/experiments/knapen_aot/AOT/AOT_stimuli/pictures/0471_fw.png	159.42347288131714	
18	29.672923803329468	picture	0		126	16.0	/experiments/knapen_aot/AOT/AOT_stimuli/pictures/1239_fw.png	159.43331670761108	1.0486299991607666
18	30.713053941726685	response	0	k		16.0	/experiments/knapen_aot/AOT/AOT_stimuli/pictures/1239_fw.png	160.4734468460083	
19	30.721553802490234	picture	0		126	17.0	/experiments/knapen_aot/AOT/AOT_stimuli/pictures/1137_fw.png	160.48194670677185	1.0555400848388672
19	31.756173849105835	response	0	j		17.0	/experiments/knapen_aot/AOT/AOT_stimuli/pictures/1137_fw.png	161.51656675338745	
20	31.7770938873291	picture	0		96	18.0	/experiments/knapen_aot/AOT/AOT_stimuli/pictures/0424_fw.png	161.53748679161072	0.8055241107940674
20	32.57135987281799	response	0	j		18.0	/experiments/knapen_aot/AOT/AOT_stimuli/pictures/0424_fw.png	162.3317527770996	
21	32.58261799812317	picture	0		143	19.0	/experiments/knapen_aot/AOT/AOT_stimuli/pictures/0387_fw.png	162.34301090240479	1.1944139003753662
21	33.76327395439148	response	0	j		19.0	/experiments/knapen_aot/AOT/AOT_stimuli/pictures/0387_fw.png	163.5236668586731	
22	33.777031898498535	picture	0		93	20.0	/experiments/knapen_aot/AOT/AOT_stimuli/pictures/1522_fw.png	163.53742480278015	0.7777750492095947
22	34.53967094421387	response	0	j		20.0	/experiments/knapen_aot/AOT/AOT_stimuli/pictures/1522_fw.png	164.30006384849548	
23	34.55480694770813	picture	0		111	21.0	/experiments/knapen_aot/AOT/AOT_stimuli/pictures/2004_fw.png	164.31519985198975	0.9306130409240723
23	35.471575021743774	response	0	j		21.0	/experiments/knapen_aot/AOT/AOT_stimuli/pictures/2004_fw.png	165.2319679260254	
24	35.4854199886322	picture	0		254	22.0	/experiments/knapen_aot/AOT/AOT_stimuli/pictures/2104_fw.png	165.24581289291382	2.124941825866699
24	37.59654402732849	response	0	k		22.0	/experiments/knapen_aot/AOT/AOT_stimuli/pictures/2104_fw.png	167.3569369316101	
25	37.6103618144989	picture	0		92	23.0	/experiments/knapen_aot/AOT/AOT_stimuli/pictures/0766_fw.png	167.37075471878052	0.7708520889282227
25	38.364506006240845	response	0	j		23.0	/experiments/knapen_aot/AOT/AOT_stimuli/pictures/0766_fw.png	168.12489891052246	
26	38.381213903427124	picture	0		145	24.0	/experiments/knapen_aot/AOT/AOT_stimuli/pictures/1787_fw.png	168.14160680770874	1.2083508968353271
26	39.579712867736816	response	0	k		24.0	/experiments/knapen_aot/AOT/AOT_stimuli/pictures/1787_fw.png	169.34010577201843	
27	39.58956480026245	picture	0		93	25.0	/experiments/knapen_aot/AOT/AOT_stimuli/pictures/0769_fw.png	169.34995770454407	0.7777040004730225
27	40.34810400009155	response	0	j		25.0	/experiments/knapen_aot/AOT/AOT_stimuli/pictures/0769_fw.png	170.10849690437317	
28	40.367268800735474	picture	0		136	26.0	/experiments/knapen_aot/AOT/AOT_stimuli/pictures/1377_fw.png	170.1276617050171	1.132005214691162
28	41.48801398277283	response	0	j		26.0	/experiments/knapen_aot/AOT/AOT_stimuli/pictures/1377_fw.png	171.24840688705444	
29	41.499274015426636	picture	0		95	27.0	/experiments/knapen_aot/AOT/AOT_stimuli/pictures/0166_fw.png	171.25966691970825	0.7915618419647217
29	42.27969002723694	response	0	j		27.0	/experiments/knapen_aot/AOT/AOT_stimuli/pictures/0166_fw.png	172.04008293151855	
30	42.29083585739136	picture	0		118	28.0	/experiments/knapen_aot/AOT/AOT_stimuli/pictures/0167_fw.png	172.05122876167297	0.9861700534820557
30	43.263298988342285	response	0	j		28.0	/experiments/knapen_aot/AOT/AOT_stimuli/pictures/0167_fw.png	173.0236918926239	
31	43.27700591087341	picture	0		203	29.0	/experiments/knapen_aot/AOT/AOT_stimuli/pictures/0655_fw.png	173.03739881515503	1.6943531036376953
31	44.956358909606934	response	0	k		29.0	/experiments/knapen_aot/AOT/AOT_stimuli/pictures/0655_fw.png	174.71675181388855	
32	44.97135901451111	picture	0		120	30.0	/experiments/knapen_aot/AOT/AOT_stimuli/pictures/2151_fw.png	174.73175191879272	0.999992847442627
32	45.95630502700806	response	0	j		30.0	/experiments/knapen_aot/AOT/AOT_stimuli/pictures/2151_fw.png	175.71669793128967	
33	45.971351861953735	picture	0		164	31.0	/experiments/knapen_aot/AOT/AOT_stimuli/pictures/0004_fw.png	175.73174476623535	1.3680641651153564
33	47.32963299751282	response	0	k		31.0	/experiments/knapen_aot/AOT/AOT_stimuli/pictures/0004_fw.png	177.09002590179443	
34	47.33941602706909	picture	0		111	32.0	/experiments/knapen_aot/AOT/AOT_stimuli/pictures/0750_fw.png	177.0998089313507	0.923602819442749
34	48.2546329498291	response	0	k		32.0	/experiments/knapen_aot/AOT/AOT_stimuli/pictures/0750_fw.png	178.01502585411072	
35	48.26301884651184	picture	0		142	33.0	/experiments/knapen_aot/AOT/AOT_stimuli/pictures/0388_fw.png	178.02341175079346	1.187502145767212
35	49.4379780292511	response	0	j		33.0	/experiments/knapen_aot/AOT/AOT_stimuli/pictures/0388_fw.png	179.19837093353271	
36	49.45052099227905	picture	0		119	34.0	/experiments/knapen_aot/AOT/AOT_stimuli/pictures/0980_fw.png	179.21091389656067	1.0000009536743164
36	50.43798589706421	response	0	j		34.0	/experiments/knapen_aot/AOT/AOT_stimuli/pictures/0980_fw.png	180.19837880134583	
37	50.45052194595337	picture	0		134	35.0	/experiments/knapen_aot/AOT/AOT_stimuli/pictures/1965_fw.png	180.21091485023499	1.1180760860443115
37	51.54790496826172	response	0	k		35.0	/experiments/knapen_aot/AOT/AOT_stimuli/pictures/1965_fw.png	181.30829787254333	
38	51.56859803199768	picture	0		97	36.0	/experiments/knapen_aot/AOT/AOT_stimuli/pictures/0760_fw.png	181.3289909362793	0.8124449253082275
38	52.37128782272339	response	0	k		36.0	/experiments/knapen_aot/AOT/AOT_stimuli/pictures/0760_fw.png	182.131680727005	
39	52.38104295730591	picture	0		110	37.0	/experiments/knapen_aot/AOT/AOT_stimuli/pictures/0631_fw.png	182.14143586158752	0.9166879653930664
39	53.287930965423584	response	0	k		37.0	/experiments/knapen_aot/AOT/AOT_stimuli/pictures/0631_fw.png	183.0483238697052	
40	53.297730922698975	picture	0		96	38.0	/experiments/knapen_aot/AOT/AOT_stimuli/pictures/1639_fw.png	183.0581238269806	0.7985880374908447
40	54.08799386024475	response	0	j		38.0	/experiments/knapen_aot/AOT/AOT_stimuli/pictures/1639_fw.png	183.84838676452637	
41	54.09631896018982	picture	0		102	39.0	/experiments/knapen_aot/AOT/AOT_stimuli/pictures/1202_fw.png	183.85671186447144	0.854140043258667
41	54.937973976135254	response	0	k		39.0	/experiments/knapen_aot/AOT/AOT_stimuli/pictures/1202_fw.png	184.69836688041687	
42	54.950459003448486	picture	0		116	40.0	/experiments/knapen_aot/AOT/AOT_stimuli/pictures/1257_fw.png	184.7108519077301	0.9652888774871826
42	55.90459394454956	response	0	k		40.0	/experiments/knapen_aot/AOT/AOT_stimuli/pictures/1257_fw.png	185.66498684883118	
43	55.91574788093567	picture	0		115	41.0	/experiments/knapen_aot/AOT/AOT_stimuli/pictures/1732_fw.png	185.67614078521729	0.9583039283752441
43	56.862931966781616	response	0	j		41.0	/experiments/knapen_aot/AOT/AOT_stimuli/pictures/1732_fw.png	186.62332487106323	
44	56.87405180931091	picture	0		106	42.0	/experiments/knapen_aot/AOT/AOT_stimuli/pictures/1476_fw.png	186.63444471359253	0.8819570541381836
44	57.74624490737915	response	0	k		42.0	/experiments/knapen_aot/AOT/AOT_stimuli/pictures/1476_fw.png	187.50663781166077	
45	57.7560088634491	picture	0		109	43.0	/experiments/knapen_aot/AOT/AOT_stimuli/pictures/0466_fw.png	187.5164017677307	0.9096851348876953
45	58.65462589263916	response	0	k		43.0	/experiments/knapen_aot/AOT/AOT_stimuli/pictures/0466_fw.png	188.41501879692078	
46	58.66569399833679	picture	0		122	44.0	/experiments/knapen_aot/AOT/AOT_stimuli/pictures/0106_fw.png	188.4260869026184	1.0138168334960938
46	59.67129182815552	response	0	k		44.0	/experiments/knapen_aot/AOT/AOT_stimuli/pictures/0106_fw.png	189.43168473243713	
47	59.679510831832886	picture	0		160	45.0	/experiments/knapen_aot/AOT/AOT_stimuli/pictures/1063_fw.png	189.4399037361145	1.3333611488342285
47	61.00459098815918	response	0	k		45.0	/experiments/knapen_aot/AOT/AOT_stimuli/pictures/1063_fw.png	190.7649838924408	
48	61.012871980667114	picture	0		111	46.0	/experiments/knapen_aot/AOT/AOT_stimuli/pictures/1625_fw.png	190.77326488494873	0.9306089878082275
48	61.9296338558197	response	0	k		46.0	/experiments/knapen_aot/AOT/AOT_stimuli/pictures/1625_fw.png	191.69002676010132	
49	61.94348096847534	picture	0		92	47.0	/experiments/knapen_aot/AOT/AOT_stimuli/pictures/1873_fw.png	191.70387387275696	0.7708070278167725
49	62.7045578956604	response	0	j		47.0	/experiments/knapen_aot/AOT/AOT_stimuli/pictures/1873_fw.png	192.46495079994202	
50	62.714287996292114	picture	0		101	48.0	/experiments/knapen_aot/AOT/AOT_stimuli/pictures/1934_fw.png	192.47468090057373	0.8402299880981445
50	63.54619097709656	response	0	k		48.0	/experiments/knapen_aot/AOT/AOT_stimuli/pictures/1934_fw.png	193.30658388137817	
51	63.55451798439026	picture	0		84	49.0	/experiments/knapen_aot/AOT/AOT_stimuli/pictures/1983_fw.png	193.31491088867188	0.7014110088348389
51	64.24623990058899	response	0	j		49.0	/experiments/knapen_aot/AOT/AOT_stimuli/pictures/1983_fw.png	194.0066328048706	
52	64.2559289932251	picture	0		152	50.0	/experiments/knapen_aot/AOT/AOT_stimuli/pictures/1162_fw.png	194.0163218975067	1.2708468437194824
52	65.51295280456543	response	0	k		50.0	/experiments/knapen_aot/AOT/AOT_stimuli/pictures/1162_fw.png	195.27334570884705	
53	65.52677583694458	picture	0		89	51.0	/experiments/knapen_aot/AOT/AOT_stimuli/pictures/1727_fw.png	195.2871687412262	0.7500121593475342
53	66.26296281814575	response	0	j		51.0	/experiments/knapen_aot/AOT/AOT_stimuli/pictures/1727_fw.png	196.02335572242737	
54	66.27678799629211	picture	0		143	52.0	/experiments/knapen_aot/AOT/AOT_stimuli/pictures/0299_fw.png	196.03718090057373	1.1943600177764893
54	67.46292495727539	response	0	k		52.0	/experiments/knapen_aot/AOT/AOT_stimuli/pictures/0299_fw.png	197.223317861557	
55	67.4711480140686	picture	0		107	53.0	/experiments/knapen_aot/AOT/AOT_stimuli/pictures/1530_fw.png	197.23154091835022	0.8999829292297363
55	68.34775495529175	response	0	k		53.0	/experiments/knapen_aot/AOT/AOT_stimuli/pictures/1530_fw.png	198.10814785957336	
56	68.37113094329834	picture	0		117	54.0	/experiments/knapen_aot/AOT/AOT_stimuli/pictures/0638_fw.png	198.13152384757996	0.9750518798828125
56	69.33789992332458	response	0	k		54.0	/experiments/knapen_aot/AOT/AOT_stimuli/pictures/0638_fw.png	199.0982928276062	
57	69.34618282318115	picture	0		88	55.0	/experiments/knapen_aot/AOT/AOT_stimuli/pictures/0895_fw.png	199.10657572746277	0.7361280918121338
57	70.07120990753174	response	0	j		55.0	/experiments/knapen_aot/AOT/AOT_stimuli/pictures/0895_fw.png	199.83160281181335	
58	70.08231091499329	picture	0		122	56.0	/experiments/knapen_aot/AOT/AOT_stimuli/pictures/1736_fw.png	199.8427038192749	1.0138208866119385
58	71.087975025177	response	0	k		56.0	/experiments/knapen_aot/AOT/AOT_stimuli/pictures/1736_fw.png	200.84836792945862	
59	71.09613180160522	picture	0		106	57.0	/experiments/knapen_aot/AOT/AOT_stimuli/pictures/1393_fw.png	200.85652470588684	0.8889281749725342
59	71.96444082260132	response	0	j		57.0	/experiments/knapen_aot/AOT/AOT_stimuli/pictures/1393_fw.png	201.72483372688293	
60	71.98505997657776	picture	0		128	58.0	/experiments/knapen_aot/AOT/AOT_stimuli/pictures/0202_fw.png	201.74545288085938	1.0693509578704834
60	73.04621386528015	response	0	k		58.0	/experiments/knapen_aot/AOT/AOT_stimuli/pictures/0202_fw.png	202.80660676956177	
61	73.05441093444824	picture	0		134	59.0	/experiments/knapen_aot/AOT/AOT_stimuli/pictures/2165_fw.png	202.81480383872986	1.1180450916290283
61	74.15609097480774	response	0	k		59.0	/experiments/knapen_aot/AOT/AOT_stimuli/pictures/2165_fw.png	203.91648387908936	
62	74.17245602607727	picture	0		188	60.0	/experiments/knapen_aot/AOT/AOT_stimuli/pictures/2096_fw.png	203.9328489303589	1.573624849319458
62	75.72951984405518	response	0	k		60.0	/experiments/knapen_aot/AOT/AOT_stimuli/pictures/2096_fw.png	205.4899127483368	
63	75.74608087539673	picture	0		100	61.0	/experiments/knapen_aot/AOT/AOT_stimuli/pictures/2106_fw.png	205.50647377967834	0.8416910171508789
63	76.56433987617493	response	0	j		61.0	/experiments/knapen_aot/AOT/AOT_stimuli/pictures/2106_fw.png	206.32473278045654	
64	76.58777189254761	picture	0		100	62.0	/experiments/knapen_aot/AOT/AOT_stimuli/pictures/1260_fw.png	206.34816479682922	0.8347079753875732
64	77.41281294822693	response	0	j		62.0	/experiments/knapen_aot/AOT/AOT_stimuli/pictures/1260_fw.png	207.17320585250854	
65	77.42247986793518	picture	0		87	63.0	/experiments/knapen_aot/AOT/AOT_stimuli/pictures/1581_fw.png	207.1828727722168	0.7293241024017334
65	78.13780498504639	response	0	j		63.0	/experiments/knapen_aot/AOT/AOT_stimuli/pictures/1581_fw.png	207.898197889328	
66	78.15180397033691	picture	0		97	64.0	/experiments/knapen_aot/AOT/AOT_stimuli/pictures/1181_fw.png	207.91219687461853	0.812391996383667
66	78.9478189945221	response	0	k		64.0	/experiments/knapen_aot/AOT/AOT_stimuli/pictures/1181_fw.png	208.7082118988037	
67	78.96419596672058	picture	0		87	65.0	/experiments/knapen_aot/AOT/AOT_stimuli/pictures/1278_fw.png	208.7245888710022	0.729111909866333
67	79.67953395843506	response	0	j		65.0	/experiments/knapen_aot/AOT/AOT_stimuli/pictures/1278_fw.png	209.43992686271667	
68	79.69330787658691	picture	0		111	66.0	/experiments/knapen_aot/AOT/AOT_stimuli/pictures/0601_fw.png	209.45370078086853	0.9305689334869385
68	80.61285495758057	response	0	j		66.0	/experiments/knapen_aot/AOT/AOT_stimuli/pictures/0601_fw.png	210.37324786186218	
69	80.62387681007385	picture	0		101	67.0	/experiments/knapen_aot/AOT/AOT_stimuli/pictures/0857_fw.png	210.38426971435547	0.840177059173584
69	81.45451879501343	response	0	k		67.0	/experiments/knapen_aot/AOT/AOT_stimuli/pictures/0857_fw.png	211.21491169929504	
70	81.46405386924744	picture	0		99	68.0	/experiments/knapen_aot/AOT/AOT_stimuli/pictures/1775_fw.png	211.22444677352905	0.8264219760894775
70	82.27946090698242	response	0	j		68.0	/experiments/knapen_aot/AOT/AOT_stimuli/pictures/1775_fw.png	212.03985381126404	
71	82.29047584533691	picture	0		154	69.0	/experiments/knapen_aot/AOT/AOT_stimuli/pictures/1116_fw.png	212.05086874961853	1.2847530841827393
71	83.55613398551941	response	0	k		69.0	/experiments/knapen_aot/AOT/AOT_stimuli/pictures/1116_fw.png	213.31652688980103	
72	83.57522892951965	picture	0		83	70.0	/experiments/knapen_aot/AOT/AOT_stimuli/pictures/1078_fw.png	213.33562183380127	0.6875040531158447
72	84.25449895858765	response	0	j		70.0	/experiments/knapen_aot/AOT/AOT_stimuli/pictures/1078_fw.png	214.01489186286926	
73	84.2627329826355	picture	0		99	71.0	/experiments/knapen_aot/AOT/AOT_stimuli/pictures/1469_fw.png	214.02312588691711	0.8263118267059326
73	85.0794517993927	response	0	k		71.0	/experiments/knapen_aot/AOT/AOT_stimuli/pictures/1469_fw.png	214.83984470367432	
74	85.08904480934143	picture	0		105	72.0	/experiments/knapen_aot/AOT/AOT_stimuli/pictures/0296_fw.png	214.84943771362305	0.87506103515625
74	85.95448303222656	response	0	k		72.0	/experiments/knapen_aot/AOT/AOT_stimuli/pictures/0296_fw.png	215.71487593650818	
75	85.96410584449768	picture	0		124	73.0	/experiments/knapen_aot/AOT/AOT_stimuli/pictures/0285_fw.png	215.7244987487793	1.040363073348999
75	86.98786282539368	response	0	k		73.0	/experiments/knapen_aot/AOT/AOT_stimuli/pictures/0285_fw.png	216.7482557296753	
76	87.00446891784668	picture	0		132	74.0	/experiments/knapen_aot/AOT/AOT_stimuli/pictures/0189_fw.png	216.7648618221283	1.1054959297180176
76	88.09615802764893	response	0	k		74.0	/experiments/knapen_aot/AOT/AOT_stimuli/pictures/0189_fw.png	217.85655093193054	
77	88.1099648475647	picture	0		134	75.0	/experiments/knapen_aot/AOT/AOT_stimuli/pictures/1655_fw.png	217.8703577518463	1.1248700618743896
77	89.22112083435059	response	0	k		75.0	/experiments/knapen_aot/AOT/AOT_stimuli/pictures/1655_fw.png	218.9815137386322	
78	89.23483490943909	picture	0		104	76.0	/experiments/knapen_aot/AOT/AOT_stimuli/pictures/1592_fw.png	218.9952278137207	0.8751139640808105
78	90.09617400169373	response	0	k		76.0	/experiments/knapen_aot/AOT/AOT_stimuli/pictures/1592_fw.png	219.85656690597534	
79	90.1099488735199	picture	0		123	77.0	/experiments/knapen_aot/AOT/AOT_stimuli/pictures/0523_fw.png	219.8703417778015	1.0277221202850342
79	91.12948989868164	response	0	k		77.0	/experiments/knapen_aot/AOT/AOT_stimuli/pictures/0523_fw.png	220.88988280296326	
80	91.13767099380493	picture	0		117	78.0	/experiments/knapen_aot/AOT/AOT_stimuli/pictures/0621_fw.png	220.89806389808655	0.9791669845581055
80	92.10449194908142	response	0	j		78.0	/experiments/knapen_aot/AOT/AOT_stimuli/pictures/0621_fw.png	221.86488485336304	
81	92.11683797836304	picture	0		157	79.0	/experiments/knapen_aot/AOT/AOT_stimuli/pictures/1111_fw.png	221.87723088264465	1.3125250339508057
81	93.42128586769104	response	0	k		79.0	/experiments/knapen_aot/AOT/AOT_stimuli/pictures/1111_fw.png	223.18167877197266	
82	93.42936301231384	picture	0		118	80.0	/experiments/knapen_aot/AOT/AOT_stimuli/pictures/1292_fw.png	223.18975591659546	0.9860379695892334
82	94.40446996688843	response	0	j		80.0	/experiments/knapen_aot/AOT/AOT_stimuli/pictures/1292_fw.png	224.16486287117004	
83	94.41540098190308	picture	0		97	81.0	/experiments/knapen_aot/AOT/AOT_stimuli/pictures/1327_fw.png	224.1757938861847	0.8056228160858154
83	95.2128210067749	response	0	k		81.0	/experiments/knapen_aot/AOT/AOT_stimuli/pictures/1327_fw.png	224.97321391105652	
84	95.22102379798889	picture	0		107	82.0	/experiments/knapen_aot/AOT/AOT_stimuli/pictures/1475_fw.png	224.9814167022705	0.8957509994506836
84	96.104416847229	response	0	k		82.0	/experiments/knapen_aot/AOT/AOT_stimuli/pictures/1475_fw.png	225.86480975151062	
85	96.11677479743958	picture	0		221	83.0	/experiments/knapen_aot/AOT/AOT_stimuli/pictures/1054_fw.png	225.8771677017212	1.8402550220489502
85	97.94613981246948	response	0	j		83.0	/experiments/knapen_aot/AOT/AOT_stimuli/pictures/1054_fw.png	227.7065327167511	
86	97.95702981948853	picture	0		112	84.0	/experiments/knapen_aot/AOT/AOT_stimuli/pictures/1726_fw.png	227.71742272377014	0.9306461811065674
86	98.87945199012756	response	0	j		84.0	/experiments/knapen_aot/AOT/AOT_stimuli/pictures/1726_fw.png	228.63984489440918	
87	98.88767600059509	picture	0		108	85.0	/experiments/knapen_aot/AOT/AOT_stimuli/pictures/0561_fw.png	228.6480689048767	0.9026718139648438
87	99.77267980575562	response	0	k		85.0	/experiments/knapen_aot/AOT/AOT_stimuli/pictures/0561_fw.png	229.53307271003723	
88	99.79034781455994	picture	0		108	86.0	/experiments/knapen_aot/AOT/AOT_stimuli/pictures/0323_fw.png	229.55074071884155	0.9027872085571289
88	100.67958283424377	response	0	j		86.0	/experiments/knapen_aot/AOT/AOT_stimuli/pictures/0323_fw.png	230.4399757385254	
89	100.69313502311707	picture	0		117	87.0	/experiments/knapen_aot/AOT/AOT_stimuli/pictures/1095_fw.png	230.45352792739868	0.9791319370269775
89	101.66280579566956	response	0	k		87.0	/experiments/knapen_aot/AOT/AOT_stimuli/pictures/1095_fw.png	231.42319869995117	
90	101.67226696014404	picture	0		96	88.0	/experiments/knapen_aot/AOT/AOT_stimuli/pictures/1437_fw.png	231.43265986442566	0.7987289428710938
90	102.46274900436401	response	0	k		88.0	/experiments/knapen_aot/AOT/AOT_stimuli/pictures/1437_fw.png	232.22314190864563	
91	102.47099590301514	picture	0		99	89.0	/experiments/knapen_aot/AOT/AOT_stimuli/pictures/0400_fw.png	232.23138880729675	0.8262789249420166
91	103.28773784637451	response	0	k		89.0	/experiments/knapen_aot/AOT/AOT_stimuli/pictures/0400_fw.png	233.04813075065613	
92	103.29727482795715	picture	0		104	90.0	/experiments/knapen_aot/AOT/AOT_stimuli/pictures/1820_fw.png	233.05766773223877	0.8680319786071777
92	104.1544098854065	response	0	j		90.0	/experiments/knapen_aot/AOT/AOT_stimuli/pictures/1820_fw.png	233.9148027896881	
93	104.16530680656433	picture	0		88	91.0	/experiments/knapen_aot/AOT/AOT_stimuli/pictures/0031_fw.png	233.92569971084595	0.7361721992492676
93	104.88774299621582	response	0	j		91.0	/experiments/knapen_aot/AOT/AOT_stimuli/pictures/0031_fw.png	234.64813590049744	
94	104.9014790058136	picture	0		98	92.0	/experiments/knapen_aot/AOT/AOT_stimuli/pictures/1022_fw.png	234.66187191009521	0.8194699287414551
94	105.71269798278809	response	0	j		92.0	/experiments/knapen_aot/AOT/AOT_stimuli/pictures/1022_fw.png	235.4730908870697	
95	105.72094893455505	picture	0		122	93.0	/experiments/knapen_aot/AOT/AOT_stimuli/pictures/1146_fw.png	235.48134183883667	1.0206820964813232
95	106.72933292388916	response	0	k		93.0	/experiments/knapen_aot/AOT/AOT_stimuli/pictures/1146_fw.png	236.48972582817078	
96	106.74163103103638	picture	0		125	94.0	/experiments/knapen_aot/AOT/AOT_stimuli/pictures/1848_fw.png	236.502023935318	1.041632890701294
96	107.76424789428711	response	0	k		94.0	/experiments/knapen_aot/AOT/AOT_stimuli/pictures/1848_fw.png	237.52464079856873	
97	107.78326392173767	picture	0		208	95.0	/experiments/knapen_aot/AOT/AOT_stimuli/pictures/0227_fw.png	237.5436568260193	1.736098051071167
97	109.50437784194946	response	0	k		95.0	/experiments/knapen_aot/AOT/AOT_stimuli/pictures/0227_fw.png	239.26477074623108	
98	109.51936197280884	picture	0		147	96.0	/experiments/knapen_aot/AOT/AOT_stimuli/pictures/1104_fw.png	239.27975487709045	1.2291579246520996
98	110.7376868724823	response	0	k		96.0	/experiments/knapen_aot/AOT/AOT_stimuli/pictures/1104_fw.png	240.49807977676392	
99	110.74851989746094	picture	0		110	97.0	/experiments/knapen_aot/AOT/AOT_stimuli/pictures/0252_fw.png	240.50891280174255	0.9166789054870605
99	111.65437698364258	response	0	k		97.0	/experiments/knapen_aot/AOT/AOT_stimuli/pictures/0252_fw.png	241.4147698879242	
100	111.665198802948	picture	0		100	98.0	/experiments/knapen_aot/AOT/AOT_stimuli/pictures/1380_fw.png	241.42559170722961	0.8333220481872559
100	112.48768281936646	response	0	k		98.0	/experiments/knapen_aot/AOT/AOT_stimuli/pictures/1380_fw.png	242.24807572364807	
101	112.49852085113525	picture	0		141	99.0	/experiments/knapen_aot/AOT/AOT_stimuli/pictures/1868_fw.png	242.25891375541687	1.1736321449279785
101	113.66268491744995	response	0	k		99.0	/experiments/knapen_aot/AOT/AOT_stimuli/pictures/1868_fw.png	243.42307782173157	
102	113.67215299606323	picture	0		161	100.0	/experiments/knapen_aot/AOT/AOT_stimuli/pictures/1573_fw.png	243.43254590034485	1.340364933013916
102	115.00435280799866	response	0	k		100.0	/experiments/knapen_aot/AOT/AOT_stimuli/pictures/1573_fw.png	244.76474571228027	
103	115.01251792907715	picture	0		99	101.0	/experiments/knapen_aot/AOT/AOT_stimuli/pictures/1545_fw.png	244.77291083335876	0.8262028694152832
103	115.82932782173157	response	0	j		101.0	/experiments/knapen_aot/AOT/AOT_stimuli/pictures/1545_fw.png	245.58972072601318	
104	115.83872079849243	picture	0		232	102.0	/experiments/knapen_aot/AOT/AOT_stimuli/pictures/1426_fw.png	245.59911370277405	1.9375481605529785
104	117.76264691352844	response	0	j		102.0	/experiments/knapen_aot/AOT/AOT_stimuli/pictures/1426_fw.png	247.52303981781006	
105	117.77626895904541	picture	0		100	103.0	/experiments/knapen_aot/AOT/AOT_stimuli/pictures/0274_fw.png	247.53666186332703	0.8402299880981445
105	118.60428094863892	response	0	k		103.0	/experiments/knapen_aot/AOT/AOT_stimuli/pictures/0274_fw.png	248.36467385292053	
106	118.61649894714355	picture	0		107	104.0	/experiments/knapen_aot/AOT/AOT_stimuli/pictures/0788_fw.png	248.37689185142517	0.8962559700012207
106	119.49601888656616	response	0	j		104.0	/experiments/knapen_aot/AOT/AOT_stimuli/pictures/0788_fw.png	249.25641179084778	
107	119.51275491714478	picture	0		88	105.0	/experiments/knapen_aot/AOT/AOT_stimuli/pictures/1841_fw.png	249.2731478214264	0.7426369190216064
107	120.23765897750854	response	0	k		105.0	/experiments/knapen_aot/AOT/AOT_stimuli/pictures/1841_fw.png	249.99805188179016	
108	120.25539183616638	picture	0		119	106.0	/experiments/knapen_aot/AOT/AOT_stimuli/pictures/1890_fw.png	250.015784740448	0.9930400848388672
108	121.23764896392822	response	0	k		106.0	/experiments/knapen_aot/AOT/AOT_stimuli/pictures/1890_fw.png	250.99804186820984	
109	121.24843192100525	picture	0		116	107.0	/experiments/knapen_aot/AOT/AOT_stimuli/pictures/2008_fw.png	251.00882482528687	0.9652509689331055
109	122.2043240070343	response	0	j		107.0	/experiments/knapen_aot/AOT/AOT_stimuli/pictures/2008_fw.png	251.96471691131592	
110	122.21368288993835	picture	0		139	108.0	/experiments/knapen_aot/AOT/AOT_stimuli/pictures/0839_fw.png	251.97407579421997	1.1655499935150146
110	123.36264896392822	response	0	k		108.0	/experiments/knapen_aot/AOT/AOT_stimuli/pictures/0839_fw.png	253.12304186820984	
111	123.37923288345337	picture	0		108	109.0	/experiments/knapen_aot/AOT/AOT_stimuli/pictures/0431_fw.png	253.13962578773499	0.9039261341094971
111	124.27094984054565	response	0	k		109.0	/experiments/knapen_aot/AOT/AOT_stimuli/pictures/0431_fw.png	254.03134274482727	
112	124.28315901756287	picture	0		87	110.0	/experiments/knapen_aot/AOT/AOT_stimuli/pictures/0124_fw.png	254.04355192184448	0.7221848964691162
112	124.98916482925415	response	0	j		110.0	/experiments/knapen_aot/AOT/AOT_stimuli/pictures/0124_fw.png	254.74955773353577	
113	125.00534391403198	picture	0		98	111.0	/experiments/knapen_aot/AOT/AOT_stimuli/pictures/1891_fw.png	254.7657368183136	0.819403886795044
113	125.81261682510376	response	0	k		111.0	/experiments/knapen_aot/AOT/AOT_stimuli/pictures/1891_fw.png	255.57300972938538	
114	125.82474780082703	picture	0		100	112.0	/experiments/knapen_aot/AOT/AOT_stimuli/pictures/1909_fw.png	255.58514070510864	0.8333251476287842
114	126.64585781097412	response	0	j		112.0	/experiments/knapen_aot/AOT/AOT_stimuli/pictures/1909_fw.png	256.40625071525574	
115	126.65807294845581	picture	0		118	113.0	/experiments/knapen_aot/AOT/AOT_stimuli/pictures/2036_fw.png	256.4184658527374	0.986224889755249
115	127.62949299812317	response	0	j		113.0	/experiments/knapen_aot/AOT/AOT_stimuli/pictures/2036_fw.png	257.3898859024048	
116	127.64429783821106	picture	0		357	114.0	/experiments/knapen_aot/AOT/AOT_stimuli/pictures/2074_fw.png	257.4046907424927	2.98484206199646
116	130.60570693016052	response	0	k		114.0	/experiments/knapen_aot/AOT/AOT_stimuli/pictures/2074_fw.png	260.36609983444214	
117	130.62913990020752	picture	0		129	115.0	/experiments/knapen_aot/AOT/AOT_stimuli/pictures/0802_fw.png	260.38953280448914	1.0775349140167236
117	131.69593286514282	response	0	j		115.0	/experiments/knapen_aot/AOT/AOT_stimuli/pictures/0802_fw.png	261.45632576942444	
118	131.70667481422424	picture	0		97	116.0	/experiments/knapen_aot/AOT/AOT_stimuli/pictures/0383_fw.png	261.46706771850586	0.8057990074157715
118	132.50426697731018	response	0	j		116.0	/experiments/knapen_aot/AOT/AOT_stimuli/pictures/0383_fw.png	262.2646598815918	
119	132.51247382164001	picture	0		122	117.0	/experiments/knapen_aot/AOT/AOT_stimuli/pictures/1606_fw.png	262.27286672592163	1.0205512046813965
119	133.52093291282654	response	0	k		117.0	/experiments/knapen_aot/AOT/AOT_stimuli/pictures/1606_fw.png	263.28132581710815	
120	133.5330250263214	picture	0		127	118.0	/experiments/knapen_aot/AOT/AOT_stimuli/pictures/0905_fw.png	263.293417930603	1.0556228160858154
120	134.5724868774414	response	0	k		118.0	/experiments/knapen_aot/AOT/AOT_stimuli/pictures/0905_fw.png	264.332879781723	
121	134.58864784240723	picture	0		111	119.0	/experiments/knapen_aot/AOT/AOT_stimuli/pictures/0636_fw.png	264.34904074668884	0.9237680435180664
121	135.5042839050293	response	0	j		119.0	/experiments/knapen_aot/AOT/AOT_stimuli/pictures/0636_fw.png	265.2646768093109	
122	135.5124158859253	picture	0		113	120.0	/experiments/knapen_aot/AOT/AOT_stimuli/pictures/1455_fw.png	265.2728087902069	0.950329065322876
122	136.4458680152893	response	0	j		120.0	/experiments/knapen_aot/AOT/AOT_stimuli/pictures/1455_fw.png	266.2062609195709	
123	136.46274495124817	picture	0		122	121.0	/experiments/knapen_aot/AOT/AOT_stimuli/pictures/0130_fw.png	266.2231378555298	1.0217669010162354
123	137.47088289260864	response	0	k		121.0	/experiments/knapen_aot/AOT/AOT_stimuli/pictures/0130_fw.png	267.23127579689026	
124	137.4845118522644	picture	0		158	122.0	/experiments/knapen_aot/AOT/AOT_stimuli/pictures/0056_fw.png	267.244904756546	1.3279931545257568
124	138.7892198562622	response	0	j		122.0	/experiments/knapen_aot/AOT/AOT_stimuli/pictures/0056_fw.png	268.5496127605438	
125	138.81250500679016	picture	0		124	123.0	/experiments/knapen_aot/AOT/AOT_stimuli/pictures/0733_fw.png	268.5728979110718	1.0332679748535156
125	139.83750200271606	response	0	j		123.0	/experiments/knapen_aot/AOT/AOT_stimuli/pictures/0733_fw.png	269.5978949069977	
126	139.84577298164368	picture	0		187	124.0	/experiments/knapen_aot/AOT/AOT_stimuli/pictures/2099_fw.png	269.6061658859253	1.5622029304504395
126	141.38918280601501	response	0	j		124.0	/experiments/knapen_aot/AOT/AOT_stimuli/pictures/2099_fw.png	271.14957571029663	
127	141.40797591209412	picture	0		102	125.0	/experiments/knapen_aot/AOT/AOT_stimuli/pictures/0109_fw.png	271.16836881637573	0.8472089767456055
127	142.2458939552307	response	0	k		125.0	/experiments/knapen_aot/AOT/AOT_stimuli/pictures/0109_fw.png	272.00628685951233	
128	142.25518488883972	picture	0		128	126.0	/experiments/knapen_aot/AOT/AOT_stimuli/pictures/0129_fw.png	272.01557779312134	1.069437026977539
128	143.31257700920105	response	0	k		126.0	/experiments/knapen_aot/AOT/AOT_stimuli/pictures/0129_fw.png	273.07296991348267	
129	143.32462191581726	picture	0		92	127.0	/experiments/knapen_aot/AOT/AOT_stimuli/pictures/0676_fw.png	273.0850148200989	0.7638158798217773
129	144.07918882369995	response	0	j		127.0	/experiments/knapen_aot/AOT/AOT_stimuli/pictures/0676_fw.png	273.83958172798157	
130	144.08843779563904	picture	0		95	128.0	/experiments/knapen_aot/AOT/AOT_stimuli/pictures/1811_fw.png	273.84883069992065	0.7990992069244385
130	144.8709318637848	response	0	j		128.0	/experiments/knapen_aot/AOT/AOT_stimuli/pictures/1811_fw.png	274.6313247680664	
131	144.88753700256348	picture	0		87	129.0	/experiments/knapen_aot/AOT/AOT_stimuli/pictures/1536_fw.png	274.6479299068451	0.7286808490753174
131	145.59735298156738	response	0	j		129.0	/experiments/knapen_aot/AOT/AOT_stimuli/pictures/1536_fw.png	275.357745885849	
132	145.6162178516388	picture	0		123	130.0	/experiments/knapen_aot/AOT/AOT_stimuli/pictures/1502_fw.png	275.3766107559204	1.0277860164642334
132	146.62916684150696	response	0	k		130.0	/experiments/knapen_aot/AOT/AOT_stimuli/pictures/1502_fw.png	276.3895597457886	
133	146.64400386810303	picture	0		166	131.0	/experiments/knapen_aot/AOT/AOT_stimuli/pictures/1126_fw.png	276.40439677238464	1.3890039920806885
133	148.0140299797058	response	0	j		131.0	/experiments/knapen_aot/AOT/AOT_stimuli/pictures/1126_fw.png	277.7744228839874	
134	148.03300786018372	picture	0		152	132.0	/experiments/knapen_aot/AOT/AOT_stimuli/pictures/0917_fw.png	277.79340076446533	1.2637519836425781
134	149.28751802444458	response	0	k		132.0	/experiments/knapen_aot/AOT/AOT_stimuli/pictures/0917_fw.png	279.0479109287262	
135	149.2967598438263	picture	0		113	133.0	/experiments/knapen_aot/AOT/AOT_stimuli/pictures/1125_fw.png	279.0571527481079	0.9444241523742676
135	150.2291660308838	response	0	j		133.0	/experiments/knapen_aot/AOT/AOT_stimuli/pictures/1125_fw.png	279.9895589351654	
136	150.24118399620056	picture	0		259	134.0	/experiments/knapen_aot/AOT/AOT_stimuli/pictures/1015_fw.png	280.0015769004822	2.1597068309783936
136	152.38079500198364	response	0	k		134.0	/experiments/knapen_aot/AOT/AOT_stimuli/pictures/1015_fw.png	282.14118790626526	
137	152.40089082717896	picture	0		220	135.0	/experiments/knapen_aot/AOT/AOT_stimuli/pictures/0560_fw.png	282.16128373146057	1.8402900695800781
137	154.2292058467865	response	0	k		135.0	/experiments/knapen_aot/AOT/AOT_stimuli/pictures/0560_fw.png	283.9895987510681	
138	154.24118089675903	picture	0		123	136.0	/experiments/knapen_aot/AOT/AOT_stimuli/pictures/1182_fw.png	284.00157380104065	1.0277750492095947
138	155.25415086746216	response	0	k		136.0	/experiments/knapen_aot/AOT/AOT_stimuli/pictures/1182_fw.png	285.0145437717438	
139	155.26895594596863	picture	0		119	137.0	/experiments/knapen_aot/AOT/AOT_stimuli/pictures/1267_fw.png	285.02934885025024	0.9933919906616211
139	156.254136800766	response	0	k		137.0	/experiments/knapen_aot/AOT/AOT_stimuli/pictures/1267_fw.png	286.0145297050476	
140	156.26234793663025	picture	0		143	138.0	/experiments/knapen_aot/AOT/AOT_stimuli/pictures/1282_fw.png	286.02274084091187	1.194058895111084
140	157.44580793380737	response	0	k		138.0	/experiments/knapen_aot/AOT/AOT_stimuli/pictures/1282_fw.png	287.206200838089	
141	157.45640683174133	picture	0		100	139.0	/experiments/knapen_aot/AOT/AOT_stimuli/pictures/1832_fw.png	287.21679973602295	0.8333351612091064
141	158.2791600227356	response	0	j		139.0	/experiments/knapen_aot/AOT/AOT_stimuli/pictures/1832_fw.png	288.0395529270172	
142	158.28974199295044	picture	0		148	140.0	/experiments/knapen_aot/AOT/AOT_stimuli/pictures/1518_fw.png	288.05013489723206	1.2360749244689941
142	159.51249480247498	response	0	k		140.0	/experiments/knapen_aot/AOT/AOT_stimuli/pictures/1518_fw.png	289.2728877067566	
143	159.52581691741943	picture	0		93	141.0	/experiments/knapen_aot/AOT/AOT_stimuli/pictures/1586_fw.png	289.28620982170105	0.7847800254821777
143	160.295795917511	response	0	j		141.0	/experiments/knapen_aot/AOT/AOT_stimuli/pictures/1586_fw.png	290.0561888217926	
144	160.3105969429016	picture	0		112	142.0	/experiments/knapen_aot/AOT/AOT_stimuli/pictures/0350_fw.png	290.0709898471832	0.9374430179595947
144	161.2374758720398	response	0	k		142.0	/experiments/knapen_aot/AOT/AOT_stimuli/pictures/0350_fw.png	290.9978687763214	
145	161.2480399608612	picture	0		118	143.0	/experiments/knapen_aot/AOT/AOT_stimuli/pictures/0354_fw.png	291.0084328651428	0.986151933670044
145	162.2207748889923	response	0	k		143.0	/experiments/knapen_aot/AOT/AOT_stimuli/pictures/0354_fw.png	291.9811677932739	
146	162.23419189453125	picture	0		132	144.0	/experiments/knapen_aot/AOT/AOT_stimuli/pictures/1398_fw.png	291.99458479881287	1.1041021347045898
146	163.3291358947754	response	0	k		144.0	/experiments/knapen_aot/AOT/AOT_stimuli/pictures/1398_fw.png	293.089528799057	
147	163.33829402923584	picture	0		111	145.0	/experiments/knapen_aot/AOT/AOT_stimuli/pictures/0860_fw.png	293.09868693351746	0.9305899143218994
147	164.25415992736816	response	0	k		145.0	/experiments/knapen_aot/AOT/AOT_stimuli/pictures/0860_fw.png	294.0145528316498	
148	164.26888394355774	picture	0		120	146.0	/experiments/knapen_aot/AOT/AOT_stimuli/pictures/1723_fw.png	294.02927684783936	1.006950855255127
148	165.26248502731323	response	0	j		146.0	/experiments/knapen_aot/AOT/AOT_stimuli/pictures/1723_fw.png	295.02287793159485	
149	165.27583479881287	picture	0		113	147.0	/experiments/knapen_aot/AOT/AOT_stimuli/pictures/1073_fw.png	295.0362277030945	0.9531900882720947
149	166.2056429386139	response	0	j		147.0	/experiments/knapen_aot/AOT/AOT_stimuli/pictures/1073_fw.png	295.9660358428955	
150	166.22902488708496	picture	0		88	148.0	/experiments/knapen_aot/AOT/AOT_stimuli/pictures/0662_fw.png	295.9894177913666	0.7416460514068604
150	166.9541299343109	response	0	j		148.0	/experiments/knapen_aot/AOT/AOT_stimuli/pictures/0662_fw.png	296.71452283859253	
151	166.97067093849182	picture	0		126	149.0	/experiments/knapen_aot/AOT/AOT_stimuli/pictures/0078_fw.png	296.73106384277344	1.0551080703735352
151	168.00563287734985	response	0	j		149.0	/experiments/knapen_aot/AOT/AOT_stimuli/pictures/0078_fw.png	297.76602578163147	
152	168.02577900886536	picture	0		135	150.0	/experiments/knapen_aot/AOT/AOT_stimuli/pictures/1660_fw.png	297.786171913147	1.1319329738616943
152	169.14585089683533	response	0	k		150.0	/experiments/knapen_aot/AOT/AOT_stimuli/pictures/1660_fw.png	298.90624380111694	
153	169.15771198272705	picture	0		117	151.0	/experiments/knapen_aot/AOT/AOT_stimuli/pictures/2067_fw.png	298.91810488700867	0.9860799312591553
153	170.12908101081848	response	0	j		151.0	/experiments/knapen_aot/AOT/AOT_stimuli/pictures/2067_fw.png	299.8894739151001	
154	170.1437919139862	picture	0		132	152.0	/experiments/knapen_aot/AOT/AOT_stimuli/pictures/0405_fw.png	299.9041848182678	1.104140043258667
154	171.2373948097229	response	0	k		152.0	/experiments/knapen_aot/AOT/AOT_stimuli/pictures/0405_fw.png	300.9977877140045	
155	171.24793195724487	picture	0		169	153.0	/experiments/knapen_aot/AOT/AOT_stimuli/pictures/0690_fw.png	301.0083248615265	1.4097318649291992
155	172.64576292037964	response	0	k		153.0	/experiments/knapen_aot/AOT/AOT_stimuli/pictures/0690_fw.png	302.40615582466125	
156	172.65766382217407	picture	0		130	154.0	/experiments/knapen_aot/AOT/AOT_stimuli/pictures/1568_fw.png	302.4180567264557	1.0902860164642334
156	173.73743891716003	response	0	k		154.0	/experiments/knapen_aot/AOT/AOT_stimuli/pictures/1568_fw.png	303.49783182144165	
157	173.7479498386383	picture	0		189	155.0	/experiments/knapen_aot/AOT/AOT_stimuli/pictures/0146_fw.png	303.5083427429199	1.5763330459594727
157	175.31244897842407	response	0	j		155.0	/experiments/knapen_aot/AOT/AOT_stimuli/pictures/0146_fw.png	305.0728418827057	
158	175.32428288459778	picture	0		120	156.0	/experiments/knapen_aot/AOT/AOT_stimuli/pictures/0063_fw.png	305.0846757888794	0.9999749660491943
158	176.31239795684814	response	0	k		156.0	/experiments/knapen_aot/AOT/AOT_stimuli/pictures/0063_fw.png	306.07279086112976	
159	176.32425785064697	picture	0		94	157.0	/experiments/knapen_aot/AOT/AOT_stimuli/pictures/1256_fw.png	306.0846507549286	0.7847559452056885
159	177.09569883346558	response	0	j		157.0	/experiments/knapen_aot/AOT/AOT_stimuli/pictures/1256_fw.png	306.8560917377472	
160	177.10901379585266	picture	0		94	158.0	/experiments/knapen_aot/AOT/AOT_stimuli/pictures/1403_fw.png	306.8694067001343	0.7917110919952393
160	177.88739490509033	response	0	j		158.0	/experiments/knapen_aot/AOT/AOT_stimuli/pictures/1403_fw.png	307.64778780937195	
161	177.9007248878479	picture	0		79	159.0	/experiments/knapen_aot/AOT/AOT_stimuli/pictures/1593_fw.png	307.6611177921295	0.669975996017456
161	178.55403184890747	response	0	j		159.0	/experiments/knapen_aot/AOT/AOT_stimuli/pictures/1593_fw.png	308.3144247531891	
162	178.57070088386536	picture	0		136	160.0	/experiments/knapen_aot/AOT/AOT_stimuli/pictures/1045_fw.png	308.331093788147	1.1355149745941162
162	179.69573187828064	response	0	k		160.0	/experiments/knapen_aot/AOT/AOT_stimuli/pictures/1045_fw.png	309.45612478256226	
163	179.70621585845947	picture	0		108	161.0	/experiments/knapen_aot/AOT/AOT_stimuli/pictures/0661_fw.png	309.4666087627411	0.9028670787811279
163	180.589008808136	response	0	k		161.0	/experiments/knapen_aot/AOT/AOT_stimuli/pictures/0661_fw.png	310.3494017124176	
164	180.6090829372406	picture	0		117	162.0	/experiments/knapen_aot/AOT/AOT_stimuli/pictures/1738_fw.png	310.3694758415222	0.9866578578948975
164	181.57907485961914	response	0	j		162.0	/experiments/knapen_aot/AOT/AOT_stimuli/pictures/1738_fw.png	311.33946776390076	
165	181.5957407951355	picture	0		145	163.0	/experiments/knapen_aot/AOT/AOT_stimuli/pictures/0490_fw.png	311.3561336994171	1.2165420055389404
165	182.79654788970947	response	0	j		163.0	/experiments/knapen_aot/AOT/AOT_stimuli/pictures/0490_fw.png	312.5569407939911	
166	182.81228280067444	picture	0		116	164.0	/experiments/knapen_aot/AOT/AOT_stimuli/pictures/0300_fw.png	312.57267570495605	0.9702901840209961
166	183.77074885368347	response	0	j		164.0	/experiments/knapen_aot/AOT/AOT_stimuli/pictures/0300_fw.png	313.5311417579651	
167	183.78257298469543	picture	0		101	165.0	/experiments/knapen_aot/AOT/AOT_stimuli/pictures/1828_fw.png	313.54296588897705	0.8402578830718994
167	184.6056468486786	response	0	k		165.0	/experiments/knapen_aot/AOT/AOT_stimuli/pictures/1828_fw.png	314.3660397529602	
168	184.62283086776733	picture	0		176	166.0	/experiments/knapen_aot/AOT/AOT_stimuli/pictures/0207_fw.png	314.38322377204895	1.4652400016784668
168	186.07903289794922	response	0	k		166.0	/experiments/knapen_aot/AOT/AOT_stimuli/pictures/0207_fw.png	315.83942580223083	
169	186.0880708694458	picture	0		139	167.0	/experiments/knapen_aot/AOT/AOT_stimuli/pictures/0409_fw.png	315.8484637737274	1.1597440242767334
169	187.23727083206177	response	0	j		167.0	/experiments/knapen_aot/AOT/AOT_stimuli/pictures/0409_fw.png	316.9976637363434	
170	187.24781489372253	picture	0		119	168.0	/experiments/knapen_aot/AOT/AOT_stimuli/pictures/0364_fw.png	317.00820779800415	0.9930300712585449
170	188.22900891304016	response	0	k		168.0	/experiments/knapen_aot/AOT/AOT_stimuli/pictures/0364_fw.png	317.9894018173218	
171	188.24084496498108	picture	0		110	169.0	/experiments/knapen_aot/AOT/AOT_stimuli/pictures/0645_fw.png	318.0012378692627	0.9166698455810547
171	189.14578700065613	response	0	j		169.0	/experiments/knapen_aot/AOT/AOT_stimuli/pictures/0645_fw.png	318.90617990493774	
172	189.15751481056213	picture	0		134	170.0	/experiments/knapen_aot/AOT/AOT_stimuli/pictures/0772_fw.png	318.91790771484375	1.1180980205535889
172	190.26234793663025	response	0	k		170.0	/experiments/knapen_aot/AOT/AOT_stimuli/pictures/0772_fw.png	320.02274084091187	
173	190.27561283111572	picture	0		153	171.0	/experiments/knapen_aot/AOT/AOT_stimuli/pictures/2041_fw.png	320.03600573539734	1.286581039428711
173	191.54650783538818	response	0	k		171.0	/experiments/knapen_aot/AOT/AOT_stimuli/pictures/2041_fw.png	321.3069007396698	
174	191.56219387054443	picture	0		111	172.0	/experiments/knapen_aot/AOT/AOT_stimuli/pictures/1674_fw.png	321.32258677482605	0.9334080219268799
174	192.47899293899536	response	0	j		172.0	/experiments/knapen_aot/AOT/AOT_stimuli/pictures/1674_fw.png	322.239385843277	
175	192.4956018924713	picture	0		112	173.0	/experiments/knapen_aot/AOT/AOT_stimuli/pictures/1000_fw.png	322.25599479675293	0.9415900707244873
175	193.41389679908752	response	0	k		173.0	/experiments/knapen_aot/AOT/AOT_stimuli/pictures/1000_fw.png	323.17428970336914	
176	193.4371919631958	picture	0		100	174.0	/experiments/knapen_aot/AOT/AOT_stimuli/pictures/0931_fw.png	323.1975848674774	0.8383629322052002
176	194.26236987113953	response	0	j		174.0	/experiments/knapen_aot/AOT/AOT_stimuli/pictures/0931_fw.png	324.02276277542114	
177	194.275554895401	picture	0		105	175.0	/experiments/knapen_aot/AOT/AOT_stimuli/pictures/0903_fw.png	324.0359477996826	0.8818860054016113
177	195.14569091796875	response	0	j		175.0	/experiments/knapen_aot/AOT/AOT_stimuli/pictures/0903_fw.png	324.90608382225037	
178	195.1574409008026	picture	0		156	176.0	/experiments/knapen_aot/AOT/AOT_stimuli/pictures/0089_fw.png	324.91783380508423	1.2985920906066895
178	196.44564294815063	response	0	j		176.0	/experiments/knapen_aot/AOT/AOT_stimuli/pictures/0089_fw.png	326.20603585243225	
179	196.4560329914093	picture	0		113	177.0	/experiments/knapen_aot/AOT/AOT_stimuli/pictures/2082_fw.png	326.2164258956909	0.9444608688354492
179	197.38131380081177	response	0	j		177.0	/experiments/knapen_aot/AOT/AOT_stimuli/pictures/2082_fw.png	327.1417067050934	
180	197.40049386024475	picture	0		104	178.0	/experiments/knapen_aot/AOT/AOT_stimuli/pictures/1259_fw.png	327.16088676452637	0.8749749660491943
180	198.26223397254944	response	0	k		178.0	/experiments/knapen_aot/AOT/AOT_stimuli/pictures/1259_fw.png	328.02262687683105	
181	198.27546882629395	picture	0		114	179.0	/experiments/knapen_aot/AOT/AOT_stimuli/pictures/0678_fw.png	328.03586173057556	0.9583451747894287
181	199.21477890014648	response	0	j		179.0	/experiments/knapen_aot/AOT/AOT_stimuli/pictures/0678_fw.png	328.9751718044281	
182	199.23381400108337	stim	0		479			328.994206905365	3.986670970916748
182	203.21235179901123	response	0	space				332.97274470329285	
