trial_nr	onset	event_type	phase	response	nr_frames	picture_index	picture_file	onset_abs	duration
0	0.16624188423156738	stim	0		773			81.35299277305603	6.4582359790802
0	6.6076500415802	response	0	space				87.79440093040466	
2	6.624477863311768	picture	0		1765	0.0	/experiments/knapen_aot/AOT/AOT_stimuli/pictures/0424_fw.png	87.81122875213623	14.71622610092163
2	21.324203968048096	response	0	k		0.0	/experiments/knapen_aot/AOT/AOT_stimuli/pictures/0424_fw.png	102.51095485687256	
3	21.3407039642334	picture	0		339	1.0	/experiments/knapen_aot/AOT/AOT_stimuli/pictures/1401_fw.png	102.52745485305786	3.325205087661743
3	24.15751600265503	response	0	j		1.0	/experiments/knapen_aot/AOT/AOT_stimuli/pictures/1401_fw.png	105.34426689147949	
4	24.66590905189514	picture	0		1	2.0	/experiments/knapen_aot/AOT/AOT_stimuli/pictures/2087_fw.png	105.8526599407196	0.01657390594482422
4	24.664355993270874	response	0	j		2.0	/experiments/knapen_aot/AOT/AOT_stimuli/pictures/2087_fw.png	105.85110688209534	
5	24.682482957839966	picture	0		241	3.0	/experiments/knapen_aot/AOT/AOT_stimuli/pictures/1782_fw.png	105.86923384666443	2.0112080574035645
5	26.682502031326294	response	0	j		3.0	/experiments/knapen_aot/AOT/AOT_stimuli/pictures/1782_fw.png	107.86925292015076	
6	26.69369101524353	picture	0		158	4.0	/experiments/knapen_aot/AOT/AOT_stimuli/pictures/0015_fw.png	107.880441904068	1.9970309734344482
6	27.999377965927124	response	0	k		4.0	/experiments/knapen_aot/AOT/AOT_stimuli/pictures/0015_fw.png	109.18612885475159	
7	28.69072198867798	picture	0		95	5.0	/experiments/knapen_aot/AOT/AOT_stimuli/pictures/1823_fw.png	109.87747287750244	0.8166089057922363
7	29.467309951782227	response	0	j		5.0	/experiments/knapen_aot/AOT/AOT_stimuli/pictures/1823_fw.png	110.65406084060669	
8	29.507330894470215	picture	0		448	6.0	/experiments/knapen_aot/AOT/AOT_stimuli/pictures/0824_fw.png	110.69408178329468	3.7418079376220703
8	33.23246383666992	response	0	k		6.0	/experiments/knapen_aot/AOT/AOT_stimuli/pictures/0824_fw.png	114.41921472549438	
9	33.249138832092285	picture	0		173	7.0	/experiments/knapen_aot/AOT/AOT_stimuli/pictures/1367_fw.png	114.43588972091675	1.4444551467895508
9	34.682461977005005	response	0	k		7.0	/experiments/knapen_aot/AOT/AOT_stimuli/pictures/1367_fw.png	115.86921286582947	
10	34.693593978881836	picture	0		126	8.0	/experiments/knapen_aot/AOT/AOT_stimuli/pictures/1060_fw.png	115.8803448677063	1.0486180782318115
10	35.73243284225464	response	0	j		8.0	/experiments/knapen_aot/AOT/AOT_stimuli/pictures/1060_fw.png	116.9191837310791	
11	35.74221205711365	picture	0		121	9.0	/experiments/knapen_aot/AOT/AOT_stimuli/pictures/1279_fw.png	116.92896294593811	1.006950855255127
11	36.74072504043579	response	0	j		9.0	/experiments/knapen_aot/AOT/AOT_stimuli/pictures/1279_fw.png	117.92747592926025	
12	36.749162912368774	picture	0		138	10.0	/experiments/knapen_aot/AOT/AOT_stimuli/pictures/0607_fw.png	117.93591380119324	1.1527180671691895
12	37.88396692276001	response	0	k		10.0	/experiments/knapen_aot/AOT/AOT_stimuli/pictures/0607_fw.png	119.07071781158447	
13	37.901880979537964	picture	0		130	11.0	/experiments/knapen_aot/AOT/AOT_stimuli/pictures/1694_fw.png	119.08863186836243	1.0833220481872559
13	38.97412705421448	response	0	k		11.0	/experiments/knapen_aot/AOT/AOT_stimuli/pictures/1694_fw.png	120.16087794303894	
14	38.98520302772522	picture	0		121	12.0	/experiments/knapen_aot/AOT/AOT_stimuli/pictures/0035_fw.png	120.17195391654968	1.0069568157196045
14	39.9823899269104	response	0	k		12.0	/experiments/knapen_aot/AOT/AOT_stimuli/pictures/0035_fw.png	121.16914081573486	
15	39.992159843444824	picture	0		108	13.0	/experiments/knapen_aot/AOT/AOT_stimuli/pictures/1077_fw.png	121.17891073226929	0.9027690887451172
15	40.87582302093506	response	0	j		13.0	/experiments/knapen_aot/AOT/AOT_stimuli/pictures/1077_fw.png	122.06257390975952	
16	40.89492893218994	picture	0		262	14.0	/experiments/knapen_aot/AOT/AOT_stimuli/pictures/1464_fw.png	122.0816798210144	2.180551052093506
16	43.05899500846863	response	0	k		14.0	/experiments/knapen_aot/AOT/AOT_stimuli/pictures/1464_fw.png	124.24574589729309	
17	43.07547998428345	picture	0		140	15.0	/experiments/knapen_aot/AOT/AOT_stimuli/pictures/0584_fw.png	124.26223087310791	1.1666970252990723
17	44.232359886169434	response	0	k		15.0	/experiments/knapen_aot/AOT/AOT_stimuli/pictures/0584_fw.png	125.4191107749939	
18	44.24217700958252	picture	0		190	16.0	/experiments/knapen_aot/AOT/AOT_stimuli/pictures/1668_fw.png	125.42892789840698	1.590073823928833
18	45.81571698188782	response	0	k		16.0	/experiments/knapen_aot/AOT/AOT_stimuli/pictures/1668_fw.png	127.00246787071228	
19	45.83225083351135	picture	0		232	17.0	/experiments/knapen_aot/AOT/AOT_stimuli/pictures/0961_fw.png	127.01900172233582	1.9375782012939453
19	47.75739598274231	response	0	k		17.0	/experiments/knapen_aot/AOT/AOT_stimuli/pictures/0961_fw.png	128.94414687156677	
20	47.7698290348053	picture	0		296	18.0	/experiments/knapen_aot/AOT/AOT_stimuli/pictures/0289_fw.png	128.95657992362976	2.465276002883911
20	50.2240149974823	response	0	j		18.0	/experiments/knapen_aot/AOT/AOT_stimuli/pictures/0289_fw.png	131.41076588630676	
21	50.23510503768921	picture	0		123	19.0	/experiments/knapen_aot/AOT/AOT_stimuli/pictures/1224_fw.png	131.42185592651367	1.0277788639068604
21	51.24911403656006	response	0	k		19.0	/experiments/knapen_aot/AOT/AOT_stimuli/pictures/1224_fw.png	132.43586492538452	
22	51.26288390159607	picture	0		133	20.0	/experiments/knapen_aot/AOT/AOT_stimuli/pictures/1222_fw.png	132.44963479042053	1.1110930442810059
22	52.36565804481506	response	0	j		20.0	/experiments/knapen_aot/AOT/AOT_stimuli/pictures/1222_fw.png	133.55240893363953	
23	52.373976945877075	picture	0		111	21.0	/experiments/knapen_aot/AOT/AOT_stimuli/pictures/1540_fw.png	133.56072783470154	0.9305388927459717
23	53.28393197059631	response	0	k		21.0	/experiments/knapen_aot/AOT/AOT_stimuli/pictures/1540_fw.png	134.47068285942078	
24	53.30451583862305	picture	0		191	22.0	/experiments/knapen_aot/AOT/AOT_stimuli/pictures/0551_fw.png	134.4912667274475	1.5971992015838623
24	54.89074993133545	response	0	k		22.0	/experiments/knapen_aot/AOT/AOT_stimuli/pictures/0551_fw.png	136.0775008201599	
25	54.90171504020691	picture	0		99	23.0	/experiments/knapen_aot/AOT/AOT_stimuli/pictures/1717_fw.png	136.08846592903137	0.8263959884643555
25	55.715672969818115	response	0	j		23.0	/experiments/knapen_aot/AOT/AOT_stimuli/pictures/1717_fw.png	136.90242385864258	
26	55.728111028671265	picture	0		395	24.0	/experiments/knapen_aot/AOT/AOT_stimuli/pictures/0110_fw.png	136.91486191749573	3.295747995376587
26	59.00734901428223	response	0	k		24.0	/experiments/knapen_aot/AOT/AOT_stimuli/pictures/0110_fw.png	140.1940999031067	
27	59.02385902404785	picture	0		434	25.0	/experiments/knapen_aot/AOT/AOT_stimuli/pictures/2166_fw.png	140.21060991287231	3.683328866958618
27	62.63228988647461	response	0	k		25.0	/experiments/knapen_aot/AOT/AOT_stimuli/pictures/2166_fw.png	143.81904077529907	
28	62.70718789100647	picture	0		105	26.0	/experiments/knapen_aot/AOT/AOT_stimuli/pictures/0784_fw.png	143.89393877983093	0.8833069801330566
28	63.5739688873291	response	0	j		26.0	/experiments/knapen_aot/AOT/AOT_stimuli/pictures/0784_fw.png	144.76071977615356	
29	63.590494871139526	picture	0		139	27.0	/experiments/knapen_aot/AOT/AOT_stimuli/pictures/0963_fw.png	144.777245759964	1.1583900451660156
29	64.74059700965881	response	0	j		27.0	/experiments/knapen_aot/AOT/AOT_stimuli/pictures/0963_fw.png	145.92734789848328	
30	64.74888491630554	picture	0		249	28.0	/experiments/knapen_aot/AOT/AOT_stimuli/pictures/0515_fw.png	145.93563580513	2.083266019821167
30	66.81559205055237	response	0	k		28.0	/experiments/knapen_aot/AOT/AOT_stimuli/pictures/0515_fw.png	148.00234293937683	
31	66.83215093612671	picture	0		155	29.0	/experiments/knapen_aot/AOT/AOT_stimuli/pictures/1827_fw.png	148.01890182495117	1.2916769981384277
31	68.11556696891785	response	0	j		29.0	/experiments/knapen_aot/AOT/AOT_stimuli/pictures/1827_fw.png	149.3023178577423	
32	68.12382793426514	picture	0		138	30.0	/experiments/knapen_aot/AOT/AOT_stimuli/pictures/0736_fw.png	149.3105788230896	1.152724027633667
32	69.2656798362732	response	0	k		30.0	/experiments/knapen_aot/AOT/AOT_stimuli/pictures/0736_fw.png	150.45243072509766	
33	69.2765519618988	picture	0		133	31.0	/experiments/knapen_aot/AOT/AOT_stimuli/pictures/1026_fw.png	150.46330285072327	1.1111130714416504
33	70.37384486198425	response	0	k		31.0	/experiments/knapen_aot/AOT/AOT_stimuli/pictures/1026_fw.png	151.56059575080872	
34	70.38766503334045	picture	0		127	32.0	/experiments/knapen_aot/AOT/AOT_stimuli/pictures/0692_fw.png	151.57441592216492	1.0624728202819824
34	71.44053196907043	response	0	j		32.0	/experiments/knapen_aot/AOT/AOT_stimuli/pictures/0692_fw.png	152.6272828578949	
35	71.45013785362244	picture	0		153	33.0	/experiments/knapen_aot/AOT/AOT_stimuli/pictures/1407_fw.png	152.6368887424469	1.2777860164642334
35	72.71546602249146	response	0	k		33.0	/experiments/knapen_aot/AOT/AOT_stimuli/pictures/1407_fw.png	153.90221691131592	
36	72.72792387008667	picture	0		207	34.0	/experiments/knapen_aot/AOT/AOT_stimuli/pictures/0084_fw.png	153.91467475891113	1.7221851348876953
36	74.44053387641907	response	0	k		34.0	/experiments/knapen_aot/AOT/AOT_stimuli/pictures/0084_fw.png	155.62728476524353	
37	74.45010900497437	picture	0		97	35.0	/experiments/knapen_aot/AOT/AOT_stimuli/pictures/0937_fw.png	155.63685989379883	0.8124659061431885
37	75.24880599975586	response	0	j		35.0	/experiments/knapen_aot/AOT/AOT_stimuli/pictures/0937_fw.png	156.43555688858032	
38	75.26257491111755	picture	0		425	36.0	/experiments/knapen_aot/AOT/AOT_stimuli/pictures/1663_fw.png	156.44932579994202	3.5485711097717285
38	78.798907995224	response	0	k		36.0	/experiments/knapen_aot/AOT/AOT_stimuli/pictures/1663_fw.png	159.98565888404846	
39	78.81114602088928	picture	0		141	37.0	/experiments/knapen_aot/AOT/AOT_stimuli/pictures/1297_fw.png	159.99789690971375	1.1736249923706055
39	79.97373604774475	response	0	k		37.0	/experiments/knapen_aot/AOT/AOT_stimuli/pictures/1297_fw.png	161.1604869365692	
40	79.98477101325989	picture	0		95	38.0	/experiments/knapen_aot/AOT/AOT_stimuli/pictures/0248_fw.png	161.17152190208435	0.7916598320007324
40	80.76550388336182	response	0	j		38.0	/experiments/knapen_aot/AOT/AOT_stimuli/pictures/0248_fw.png	161.95225477218628	
41	80.77643084526062	picture	0		497	39.0	/experiments/knapen_aot/AOT/AOT_stimuli/pictures/1997_fw.png	161.96318173408508	4.1389100551605225
41	84.90038299560547	response	0	k		39.0	/experiments/knapen_aot/AOT/AOT_stimuli/pictures/1997_fw.png	166.08713388442993	
42	84.91534090042114	picture	0		113	40.0	/experiments/knapen_aot/AOT/AOT_stimuli/pictures/1779_fw.png	166.1020917892456	0.9444291591644287
42	85.84885096549988	response	0	j		40.0	/experiments/knapen_aot/AOT/AOT_stimuli/pictures/1779_fw.png	167.03560185432434	
43	85.85977005958557	picture	0		692	41.0	/experiments/knapen_aot/AOT/AOT_stimuli/pictures/0364_fw.png	167.04652094841003	5.763847827911377
43	91.61544585227966	response	0	k		41.0	/experiments/knapen_aot/AOT/AOT_stimuli/pictures/0364_fw.png	172.80219674110413	
44	91.62361788749695	picture	0		188	42.0	/experiments/knapen_aot/AOT/AOT_stimuli/pictures/0190_fw.png	172.8103687763214	1.569338083267212
44	93.1821038722992	response	0	k		42.0	/experiments/knapen_aot/AOT/AOT_stimuli/pictures/0190_fw.png	174.36885476112366	
45	93.19295597076416	picture	0		116	43.0	/experiments/knapen_aot/AOT/AOT_stimuli/pictures/2085_fw.png	174.37970685958862	1.1723570823669434
45	94.148756980896	response	0	j		43.0	/experiments/knapen_aot/AOT/AOT_stimuli/pictures/2085_fw.png	175.33550786972046	
46	94.3653130531311	picture	0		159	44.0	/experiments/knapen_aot/AOT/AOT_stimuli/pictures/0894_fw.png	175.55206394195557	1.3332748413085938
46	95.67535185813904	response	0	j		44.0	/experiments/knapen_aot/AOT/AOT_stimuli/pictures/0894_fw.png	176.8621027469635	
47	95.6985878944397	picture	0		122	45.0	/experiments/knapen_aot/AOT/AOT_stimuli/pictures/1404_fw.png	176.88533878326416	1.022083044052124
47	96.70041489601135	response	0	k		45.0	/experiments/knapen_aot/AOT/AOT_stimuli/pictures/1404_fw.png	177.88716578483582	
48	96.72067093849182	picture	0		101	46.0	/experiments/knapen_aot/AOT/AOT_stimuli/pictures/1242_fw.png	177.90742182731628	0.9653170108795166
48	97.55707502365112	response	0	j		46.0	/experiments/knapen_aot/AOT/AOT_stimuli/pictures/1242_fw.png	178.7438259124756	
49	97.68598794937134	picture	0		125	47.0	/experiments/knapen_aot/AOT/AOT_stimuli/pictures/0458_fw.png	178.8727388381958	1.0416080951690674
49	98.71537590026855	response	0	j		47.0	/experiments/knapen_aot/AOT/AOT_stimuli/pictures/0458_fw.png	179.90212678909302	
50	98.7275960445404	picture	0		188	48.0	/experiments/knapen_aot/AOT/AOT_stimuli/pictures/0114_fw.png	179.91434693336487	1.562816858291626
50	100.27528285980225	response	0	k		48.0	/experiments/knapen_aot/AOT/AOT_stimuli/pictures/0114_fw.png	181.4620337486267	
51	100.29041290283203	picture	0		108	49.0	/experiments/knapen_aot/AOT/AOT_stimuli/pictures/0927_fw.png	181.4771637916565	0.9024889469146729
51	101.18202590942383	response	0	j		49.0	/experiments/knapen_aot/AOT/AOT_stimuli/pictures/0927_fw.png	182.3687767982483	
52	101.1929018497467	picture	0		176	50.0	/experiments/knapen_aot/AOT/AOT_stimuli/pictures/1745_fw.png	182.37965273857117	1.4652462005615234
52	102.64869999885559	response	0	k		50.0	/experiments/knapen_aot/AOT/AOT_stimuli/pictures/1745_fw.png	183.83545088768005	
53	102.65814805030823	picture	0		128	51.0	/experiments/knapen_aot/AOT/AOT_stimuli/pictures/1305_fw.png	183.8448989391327	1.069502830505371
53	103.70851993560791	response	0	k		51.0	/experiments/knapen_aot/AOT/AOT_stimuli/pictures/1305_fw.png	184.89527082443237	
54	103.7276508808136	picture	0		237	52.0	/experiments/knapen_aot/AOT/AOT_stimuli/pictures/0635_fw.png	184.91440176963806	1.9721150398254395
54	105.68359899520874	response	0	k		52.0	/experiments/knapen_aot/AOT/AOT_stimuli/pictures/0635_fw.png	186.8703498840332	
55	105.69976592063904	picture	0		160	53.0	/experiments/knapen_aot/AOT/AOT_stimuli/pictures/1194_fw.png	186.8865168094635	1.3333690166473389
55	107.0236279964447	response	0	k		53.0	/experiments/knapen_aot/AOT/AOT_stimuli/pictures/1194_fw.png	188.21037888526917	
56	107.03313493728638	picture	0		114	54.0	/experiments/knapen_aot/AOT/AOT_stimuli/pictures/1071_fw.png	188.21988582611084	0.9513339996337891
56	107.97379994392395	response	0	j		54.0	/experiments/knapen_aot/AOT/AOT_stimuli/pictures/1071_fw.png	189.1605508327484	
57	107.98446893692017	picture	0		119	55.0	/experiments/knapen_aot/AOT/AOT_stimuli/pictures/1603_fw.png	189.17121982574463	0.9930219650268555
57	108.965322971344	response	0	k		55.0	/experiments/knapen_aot/AOT/AOT_stimuli/pictures/1603_fw.png	190.15207386016846	
58	108.97749090194702	picture	0		134	56.0	/experiments/knapen_aot/AOT/AOT_stimuli/pictures/1783_fw.png	190.16424179077148	1.1180379390716553
58	110.07517194747925	response	0	k		56.0	/experiments/knapen_aot/AOT/AOT_stimuli/pictures/1783_fw.png	191.2619228363037	
59	110.09552884101868	picture	0		145	57.0	/experiments/knapen_aot/AOT/AOT_stimuli/pictures/2045_fw.png	191.28227972984314	1.2152860164642334
59	111.29186296463013	response	0	k		57.0	/experiments/knapen_aot/AOT/AOT_stimuli/pictures/2045_fw.png	192.4786138534546	
60	111.31081485748291	picture	0		124	58.0	/experiments/knapen_aot/AOT/AOT_stimuli/pictures/0224_fw.png	192.49756574630737	1.0347721576690674
60	112.33196997642517	response	0	k		58.0	/experiments/knapen_aot/AOT/AOT_stimuli/pictures/0224_fw.png	193.51872086524963	
61	112.34558701515198	picture	0		135	59.0	/experiments/knapen_aot/AOT/AOT_stimuli/pictures/0201_fw.png	193.53233790397644	1.1319630146026611
61	113.46536684036255	response	0	j		59.0	/experiments/knapen_aot/AOT/AOT_stimuli/pictures/0201_fw.png	194.652117729187	
62	113.47755002975464	picture	0		109	60.0	/experiments/knapen_aot/AOT/AOT_stimuli/pictures/0595_fw.png	194.6643009185791	0.9096310138702393
62	114.37356400489807	response	0	j		60.0	/experiments/knapen_aot/AOT/AOT_stimuli/pictures/0595_fw.png	195.56031489372253	
63	114.38718104362488	picture	0		123	61.0	/experiments/knapen_aot/AOT/AOT_stimuli/pictures/2137_fw.png	195.57393193244934	1.0363709926605225
63	115.4069619178772	response	0	k		61.0	/experiments/knapen_aot/AOT/AOT_stimuli/pictures/2137_fw.png	196.59371280670166	
64	115.4235520362854	picture	0		121	62.0	/experiments/knapen_aot/AOT/AOT_stimuli/pictures/0828_fw.png	196.61030292510986	1.0122098922729492
64	116.42364501953125	response	0	k		62.0	/experiments/knapen_aot/AOT/AOT_stimuli/pictures/0828_fw.png	197.6103959083557	
65	116.43576192855835	picture	0		144	63.0	/experiments/knapen_aot/AOT/AOT_stimuli/pictures/0972_fw.png	197.6225128173828	1.2013869285583496
65	117.62358403205872	response	0	k		63.0	/experiments/knapen_aot/AOT/AOT_stimuli/pictures/0972_fw.png	198.81033492088318	
66	117.6371488571167	picture	0		125	64.0	/experiments/knapen_aot/AOT/AOT_stimuli/pictures/1575_fw.png	198.82389974594116	1.048600196838379
66	118.67362904548645	response	0	k		64.0	/experiments/knapen_aot/AOT/AOT_stimuli/pictures/1575_fw.png	199.8603799343109	
67	118.68574905395508	picture	0		388	65.0	/experiments/knapen_aot/AOT/AOT_stimuli/pictures/2155_fw.png	199.87249994277954	3.229400873184204
67	121.9001350402832	response	0	j		65.0	/experiments/knapen_aot/AOT/AOT_stimuli/pictures/2155_fw.png	203.08688592910767	
68	121.91514992713928	picture	0		103	66.0	/experiments/knapen_aot/AOT/AOT_stimuli/pictures/1905_fw.png	203.10190081596375	0.8608551025390625
68	122.76528286933899	response	0	k		66.0	/experiments/knapen_aot/AOT/AOT_stimuli/pictures/1905_fw.png	203.95203375816345	
69	122.77600502967834	picture	0		119	67.0	/experiments/knapen_aot/AOT/AOT_stimuli/pictures/1098_fw.png	203.9627559185028	1.1558289527893066
69	123.75693893432617	response	0	k		67.0	/experiments/knapen_aot/AOT/AOT_stimuli/pictures/1098_fw.png	204.94368982315063	
70	123.93183398246765	picture	0		91	68.0	/experiments/knapen_aot/AOT/AOT_stimuli/pictures/1514_fw.png	205.11858487129211	0.7666280269622803
70	124.6820068359375	response	0	j		68.0	/experiments/knapen_aot/AOT/AOT_stimuli/pictures/1514_fw.png	205.86875772476196	
71	124.69846200942993	picture	0		196	69.0	/experiments/knapen_aot/AOT/AOT_stimuli/pictures/1000_fw.png	205.8852128982544	1.6333138942718506
71	126.31680989265442	response	0	k		69.0	/experiments/knapen_aot/AOT/AOT_stimuli/pictures/1000_fw.png	207.50356078147888	
72	126.33177590370178	picture	0		117	70.0	/experiments/knapen_aot/AOT/AOT_stimuli/pictures/0567_fw.png	207.51852679252625	0.9833719730377197
72	127.29170799255371	response	0	j		70.0	/experiments/knapen_aot/AOT/AOT_stimuli/pictures/0567_fw.png	208.47845888137817	
73	127.3151478767395	picture	0		132	71.0	/experiments/knapen_aot/AOT/AOT_stimuli/pictures/1058_fw.png	208.50189876556396	1.0999760627746582
73	128.40693283081055	response	0	j		71.0	/experiments/knapen_aot/AOT/AOT_stimuli/pictures/1058_fw.png	209.593683719635	
74	128.41512393951416	picture	0		117	72.0	/experiments/knapen_aot/AOT/AOT_stimuli/pictures/1969_fw.png	209.60187482833862	0.9788150787353516
74	129.38192486763	response	0	k		72.0	/experiments/knapen_aot/AOT/AOT_stimuli/pictures/1969_fw.png	210.56867575645447	
75	129.3939390182495	picture	0		130	73.0	/experiments/knapen_aot/AOT/AOT_stimuli/pictures/0461_fw.png	210.58068990707397	1.0878498554229736
75	130.46521401405334	response	0	k		73.0	/experiments/knapen_aot/AOT/AOT_stimuli/pictures/0461_fw.png	211.6519649028778	
76	130.48178887367249	picture	0		122	74.0	/experiments/knapen_aot/AOT/AOT_stimuli/pictures/0281_fw.png	211.66853976249695	1.024963140487671
76	131.48348188400269	response	0	k		74.0	/experiments/knapen_aot/AOT/AOT_stimuli/pictures/0281_fw.png	212.67023277282715	
77	131.50675201416016	picture	0		247	75.0	/experiments/knapen_aot/AOT/AOT_stimuli/pictures/0637_fw.png	212.69350290298462	2.0607898235321045
77	133.55684995651245	response	0	k		75.0	/experiments/knapen_aot/AOT/AOT_stimuli/pictures/0637_fw.png	214.7436008453369	
78	133.56754183769226	picture	0		120	76.0	/experiments/knapen_aot/AOT/AOT_stimuli/pictures/0176_fw.png	214.75429272651672	1.0000221729278564
78	134.55683398246765	response	0	j		76.0	/experiments/knapen_aot/AOT/AOT_stimuli/pictures/0176_fw.png	215.74358487129211	
79	134.56756401062012	picture	0		110	77.0	/experiments/knapen_aot/AOT/AOT_stimuli/pictures/0312_fw.png	215.75431489944458	0.9165778160095215
79	135.47350883483887	response	0	j		77.0	/experiments/knapen_aot/AOT/AOT_stimuli/pictures/0312_fw.png	216.66025972366333	
80	135.48414182662964	picture	0		176	78.0	/experiments/knapen_aot/AOT/AOT_stimuli/pictures/0677_fw.png	216.6708927154541	1.4726231098175049
80	136.94013500213623	response	0	j		78.0	/experiments/knapen_aot/AOT/AOT_stimuli/pictures/0677_fw.png	218.1268858909607	
81	136.95676493644714	picture	0		97	79.0	/experiments/knapen_aot/AOT/AOT_stimuli/pictures/0958_fw.png	218.1435158252716	0.8121399879455566
81	137.756826877594	response	0	j		79.0	/experiments/knapen_aot/AOT/AOT_stimuli/pictures/0958_fw.png	218.94357776641846	
82	137.7689049243927	picture	0		116	80.0	/experiments/knapen_aot/AOT/AOT_stimuli/pictures/1122_fw.png	218.95565581321716	0.9652109146118164
82	138.71668195724487	response	0	k		80.0	/experiments/knapen_aot/AOT/AOT_stimuli/pictures/1122_fw.png	219.90343284606934	
83	138.73411583900452	picture	0		189	81.0	/experiments/knapen_aot/AOT/AOT_stimuli/pictures/1771_fw.png	219.92086672782898	1.9892160892486572
83	140.29163002967834	response	0	j		81.0	/experiments/knapen_aot/AOT/AOT_stimuli/pictures/1771_fw.png	221.4783809185028	
84	140.72333192825317	picture	0		123	82.0	/experiments/knapen_aot/AOT/AOT_stimuli/pictures/1563_fw.png	221.91008281707764	1.0316131114959717
84	141.74008798599243	response	0	k		82.0	/experiments/knapen_aot/AOT/AOT_stimuli/pictures/1563_fw.png	222.9268388748169	
85	141.75494503974915	picture	0		356	83.0	/experiments/knapen_aot/AOT/AOT_stimuli/pictures/0034_fw.png	222.9416959285736	2.9720938205718994
85	144.7083568572998	response	0	k		83.0	/experiments/knapen_aot/AOT/AOT_stimuli/pictures/0034_fw.png	225.89510774612427	
86	144.72703886032104	picture	0		110	84.0	/experiments/knapen_aot/AOT/AOT_stimuli/pictures/0193_fw.png	225.9137897491455	0.921252965927124
86	145.63174200057983	response	0	j		84.0	/experiments/knapen_aot/AOT/AOT_stimuli/pictures/0193_fw.png	226.8184928894043	
87	145.64829182624817	picture	0		157	85.0	/experiments/knapen_aot/AOT/AOT_stimuli/pictures/0054_fw.png	226.83504271507263	1.3148880004882812
87	146.94843101501465	response	0	j		85.0	/experiments/knapen_aot/AOT/AOT_stimuli/pictures/0054_fw.png	228.1351819038391	
88	146.96317982673645	picture	0		109	86.0	/experiments/knapen_aot/AOT/AOT_stimuli/pictures/0349_fw.png	228.1499307155609	0.9100890159606934
88	147.86508798599243	response	0	j		86.0	/experiments/knapen_aot/AOT/AOT_stimuli/pictures/0349_fw.png	229.0518388748169	
89	147.87326884269714	picture	0		111	87.0	/experiments/knapen_aot/AOT/AOT_stimuli/pictures/0624_fw.png	229.0600197315216	0.930131196975708
89	148.79008197784424	response	0	k		87.0	/experiments/knapen_aot/AOT/AOT_stimuli/pictures/0624_fw.png	229.9768328666687	
90	148.80340003967285	picture	0		112	88.0	/experiments/knapen_aot/AOT/AOT_stimuli/pictures/0957_fw.png	229.99015092849731	0.9374918937683105
90	149.72501587867737	response	0	j		88.0	/experiments/knapen_aot/AOT/AOT_stimuli/pictures/0957_fw.png	230.91176676750183	
91	149.74089193344116	picture	0		590	89.0	/experiments/knapen_aot/AOT/AOT_stimuli/pictures/1344_fw.png	230.92764282226562	4.923967123031616
91	154.64829802513123	response	0	k		89.0	/experiments/knapen_aot/AOT/AOT_stimuli/pictures/1344_fw.png	235.8350489139557	
92	154.66485905647278	picture	0		111	90.0	/experiments/knapen_aot/AOT/AOT_stimuli/pictures/0879_fw.png	235.85160994529724	0.9333658218383789
92	155.58173203468323	response	0	k		90.0	/experiments/knapen_aot/AOT/AOT_stimuli/pictures/0879_fw.png	236.7684829235077	
93	155.59822487831116	picture	0		101	91.0	/experiments/knapen_aot/AOT/AOT_stimuli/pictures/1453_fw.png	236.78497576713562	0.8499741554260254
93	156.43166089057922	response	0	j		91.0	/experiments/knapen_aot/AOT/AOT_stimuli/pictures/1453_fw.png	237.6184117794037	
94	156.44819903373718	picture	0		104	92.0	/experiments/knapen_aot/AOT/AOT_stimuli/pictures/2000_fw.png	237.63494992256165	0.8690438270568848
94	157.299870967865	response	0	j		92.0	/experiments/knapen_aot/AOT/AOT_stimuli/pictures/2000_fw.png	238.48662185668945	
95	157.31724286079407	picture	0		123	93.0	/experiments/knapen_aot/AOT/AOT_stimuli/pictures/1780_fw.png	238.50399374961853	1.027717113494873
95	158.3249020576477	response	0	j		93.0	/experiments/knapen_aot/AOT/AOT_stimuli/pictures/1780_fw.png	239.51165294647217	
96	158.34495997428894	picture	0		93	94.0	/experiments/knapen_aot/AOT/AOT_stimuli/pictures/0684_fw.png	239.5317108631134	0.7865839004516602
96	159.1081759929657	response	0	j		94.0	/experiments/knapen_aot/AOT/AOT_stimuli/pictures/0684_fw.png	240.29492688179016	
97	159.1315438747406	picture	0		92	95.0	/experiments/knapen_aot/AOT/AOT_stimuli/pictures/2118_fw.png	240.31829476356506	0.791640043258667
97	159.89000296592712	response	0	k		95.0	/experiments/knapen_aot/AOT/AOT_stimuli/pictures/2118_fw.png	241.0767538547516	
98	159.92318391799927	picture	0		86	96.0	/experiments/knapen_aot/AOT/AOT_stimuli/pictures/0522_fw.png	241.10993480682373	0.7416911125183105
98	160.63166284561157	response	0	j		96.0	/experiments/knapen_aot/AOT/AOT_stimuli/pictures/0522_fw.png	241.81841373443604	
99	160.66487503051758	picture	0		114	97.0	/experiments/knapen_aot/AOT/AOT_stimuli/pictures/0795_fw.png	241.85162591934204	0.9583768844604492
99	161.60667896270752	response	0	j		97.0	/experiments/knapen_aot/AOT/AOT_stimuli/pictures/0795_fw.png	242.79342985153198	
100	161.62325191497803	picture	0		172	98.0	/experiments/knapen_aot/AOT/AOT_stimuli/pictures/1454_fw.png	242.8100028038025	1.4369380474090576
100	163.04834389686584	response	0	j		98.0	/experiments/knapen_aot/AOT/AOT_stimuli/pictures/1454_fw.png	244.2350947856903	
101	163.06018996238708	picture	0		99	99.0	/experiments/knapen_aot/AOT/AOT_stimuli/pictures/0562_fw.png	244.24694085121155	0.8264639377593994
101	163.87335801124573	response	0	k		99.0	/experiments/knapen_aot/AOT/AOT_stimuli/pictures/0562_fw.png	245.0601089000702	
102	163.88665390014648	picture	0		143	100.0	/experiments/knapen_aot/AOT/AOT_stimuli/pictures/0295_fw.png	245.07340478897095	1.2031910419464111
102	165.07416105270386	response	0	k		100.0	/experiments/knapen_aot/AOT/AOT_stimuli/pictures/0295_fw.png	246.26091194152832	
103	165.0898449420929	picture	0		114	101.0	/experiments/knapen_aot/AOT/AOT_stimuli/pictures/1083_fw.png	246.27659583091736	0.9582920074462891
103	166.03251886367798	response	0	k		101.0	/experiments/knapen_aot/AOT/AOT_stimuli/pictures/1083_fw.png	247.21926975250244	
104	166.04813694953918	picture	0		108	102.0	/experiments/knapen_aot/AOT/AOT_stimuli/pictures/1519_fw.png	247.23488783836365	0.9083199501037598
104	166.94004702568054	response	0	j		102.0	/experiments/knapen_aot/AOT/AOT_stimuli/pictures/1519_fw.png	248.126797914505	
105	166.95645689964294	picture	0		131	103.0	/experiments/knapen_aot/AOT/AOT_stimuli/pictures/1906_fw.png	248.1432077884674	1.0967350006103516
105	168.03999185562134	response	0	j		103.0	/experiments/knapen_aot/AOT/AOT_stimuli/pictures/1906_fw.png	249.2267427444458	
106	168.0531919002533	picture	0		99	104.0	/experiments/knapen_aot/AOT/AOT_stimuli/pictures/0950_fw.png	249.23994278907776	0.8333289623260498
106	168.87332606315613	response	0	k		104.0	/experiments/knapen_aot/AOT/AOT_stimuli/pictures/0950_fw.png	250.0600769519806	
107	168.88652086257935	picture	0		116	105.0	/experiments/knapen_aot/AOT/AOT_stimuli/pictures/0577_fw.png	250.0732717514038	0.9722120761871338
107	169.84826183319092	response	0	k		105.0	/experiments/knapen_aot/AOT/AOT_stimuli/pictures/0577_fw.png	251.03501272201538	
108	169.85873293876648	picture	0		94	106.0	/experiments/knapen_aot/AOT/AOT_stimuli/pictures/1490_fw.png	251.04548382759094	0.7847180366516113
108	170.63163495063782	response	0	j		106.0	/experiments/knapen_aot/AOT/AOT_stimuli/pictures/1490_fw.png	251.81838583946228	
109	170.6434509754181	picture	0		125	107.0	/experiments/knapen_aot/AOT/AOT_stimuli/pictures/2047_fw.png	251.83020186424255	1.046375036239624
109	171.6732099056244	response	0	k		107.0	/experiments/knapen_aot/AOT/AOT_stimuli/pictures/2047_fw.png	252.85996079444885	
110	171.68982601165771	picture	0		119	108.0	/experiments/knapen_aot/AOT/AOT_stimuli/pictures/1082_fw.png	252.87657690048218	0.9952850341796875
110	172.67328000068665	response	0	j		108.0	/experiments/knapen_aot/AOT/AOT_stimuli/pictures/1082_fw.png	253.8600308895111	
111	172.6851110458374	picture	0		106	109.0	/experiments/knapen_aot/AOT/AOT_stimuli/pictures/1210_fw.png	253.87186193466187	0.8819928169250488
111	173.5565299987793	response	0	j		109.0	/experiments/knapen_aot/AOT/AOT_stimuli/pictures/1210_fw.png	254.74328088760376	
112	173.56710386276245	picture	0		109	110.0	/experiments/knapen_aot/AOT/AOT_stimuli/pictures/0056_fw.png	254.7538547515869	0.9096541404724121
112	174.46487092971802	response	0	j		110.0	/experiments/knapen_aot/AOT/AOT_stimuli/pictures/0056_fw.png	255.65162181854248	
113	174.47675800323486	picture	0		137	111.0	/experiments/knapen_aot/AOT/AOT_stimuli/pictures/1334_fw.png	255.66350889205933	1.1463220119476318
113	175.6065230369568	response	0	j		111.0	/experiments/knapen_aot/AOT/AOT_stimuli/pictures/1334_fw.png	256.79327392578125	
114	175.6230800151825	picture	0		136	112.0	/experiments/knapen_aot/AOT/AOT_stimuli/pictures/1036_fw.png	256.80983090400696	1.141758918762207
114	176.74152493476868	response	0	k		112.0	/experiments/knapen_aot/AOT/AOT_stimuli/pictures/1036_fw.png	257.92827582359314	
115	176.7648389339447	picture	0		256	113.0	/experiments/knapen_aot/AOT/AOT_stimuli/pictures/1310_fw.png	257.95158982276917	2.158289909362793
115	178.88984298706055	response	0	k		113.0	/experiments/knapen_aot/AOT/AOT_stimuli/pictures/1310_fw.png	260.076593875885	
116	178.9231288433075	picture	0		100	114.0	/experiments/knapen_aot/AOT/AOT_stimuli/pictures/0530_fw.png	260.10987973213196	0.8666160106658936
116	179.7481689453125	response	0	j		114.0	/experiments/knapen_aot/AOT/AOT_stimuli/pictures/0530_fw.png	260.93491983413696	
117	179.7897448539734	picture	0		105	115.0	/experiments/knapen_aot/AOT/AOT_stimuli/pictures/0994_fw.png	260.97649574279785	0.8833560943603516
117	180.65657496452332	response	0	j		115.0	/experiments/knapen_aot/AOT/AOT_stimuli/pictures/0994_fw.png	261.8433258533478	
118	180.67310094833374	picture	0		145	116.0	/experiments/knapen_aot/AOT/AOT_stimuli/pictures/0805_fw.png	261.8598518371582	1.2132599353790283
118	181.87322282791138	response	0	j		116.0	/experiments/knapen_aot/AOT/AOT_stimuli/pictures/0805_fw.png	263.05997371673584	
119	181.88636088371277	picture	0		105	117.0	/experiments/knapen_aot/AOT/AOT_stimuli/pictures/1876_fw.png	263.07311177253723	0.8819489479064941
119	182.75651597976685	response	0	k		117.0	/experiments/knapen_aot/AOT/AOT_stimuli/pictures/1876_fw.png	263.9432668685913	
120	182.76830983161926	picture	0		109	118.0	/experiments/knapen_aot/AOT/AOT_stimuli/pictures/0924_fw.png	263.9550607204437	0.9097390174865723
120	183.6648609638214	response	0	k		118.0	/experiments/knapen_aot/AOT/AOT_stimuli/pictures/0924_fw.png	264.8516118526459	
121	183.67804884910583	picture	0		133	119.0	/experiments/knapen_aot/AOT/AOT_stimuli/pictures/0416_fw.png	264.8647997379303	1.1180510520935059
121	184.7815079689026	response	0	k		119.0	/experiments/knapen_aot/AOT/AOT_stimuli/pictures/0416_fw.png	265.96825885772705	
122	184.79609990119934	picture	0		131	120.0	/experiments/knapen_aot/AOT/AOT_stimuli/pictures/1593_fw.png	265.9828507900238	1.0971989631652832
122	185.88153195381165	response	0	k		120.0	/experiments/knapen_aot/AOT/AOT_stimuli/pictures/1593_fw.png	267.0682828426361	
123	185.89329886436462	picture	0		95	121.0	/experiments/knapen_aot/AOT/AOT_stimuli/pictures/0402_fw.png	267.0800497531891	0.79168701171875
123	186.67319989204407	response	0	j		121.0	/experiments/knapen_aot/AOT/AOT_stimuli/pictures/0402_fw.png	267.85995078086853	
124	186.68498587608337	picture	0		246	122.0	/experiments/knapen_aot/AOT/AOT_stimuli/pictures/2158_fw.png	267.87173676490784	2.0547289848327637
124	188.7163770198822	response	0	k		122.0	/experiments/knapen_aot/AOT/AOT_stimuli/pictures/2158_fw.png	269.90312790870667	
125	188.73971486091614	picture	0		105	123.0	/experiments/knapen_aot/AOT/AOT_stimuli/pictures/1044_fw.png	269.9264657497406	0.8757829666137695
125	189.60655283927917	response	0	j		123.0	/experiments/knapen_aot/AOT/AOT_stimuli/pictures/1044_fw.png	270.79330372810364	
126	189.6154978275299	picture	0		127	124.0	/experiments/knapen_aot/AOT/AOT_stimuli/pictures/0604_fw.png	270.80224871635437	1.0625030994415283
126	190.66480994224548	response	0	k		124.0	/experiments/knapen_aot/AOT/AOT_stimuli/pictures/0604_fw.png	271.85156083106995	
127	190.67800092697144	picture	0		120	125.0	/experiments/knapen_aot/AOT/AOT_stimuli/pictures/1226_fw.png	271.8647518157959	1.0068910121917725
127	191.67315196990967	response	0	k		125.0	/experiments/knapen_aot/AOT/AOT_stimuli/pictures/1226_fw.png	272.85990285873413	
128	191.6848919391632	picture	0		132	126.0	/experiments/knapen_aot/AOT/AOT_stimuli/pictures/0491_fw.png	272.87164282798767	1.097217082977295
128	192.7731900215149	response	0	k		126.0	/experiments/knapen_aot/AOT/AOT_stimuli/pictures/0491_fw.png	273.95994091033936	
129	192.7821090221405	picture	0		103	127.0	/experiments/knapen_aot/AOT/AOT_stimuli/pictures/0520_fw.png	273.96885991096497	0.8611078262329102
129	193.631520986557	response	0	j		127.0	/experiments/knapen_aot/AOT/AOT_stimuli/pictures/0520_fw.png	274.81827187538147	
130	193.6432168483734	picture	0		243	128.0	/experiments/knapen_aot/AOT/AOT_stimuli/pictures/2033_fw.png	274.8299677371979	2.0902421474456787
130	195.65716290473938	response	0	k		128.0	/experiments/knapen_aot/AOT/AOT_stimuli/pictures/2033_fw.png	276.84391379356384	
131	195.7334589958191	picture	0		97	129.0	/experiments/knapen_aot/AOT/AOT_stimuli/pictures/1213_fw.png	276.92020988464355	0.8145530223846436
131	196.53229594230652	response	0	k		129.0	/experiments/knapen_aot/AOT/AOT_stimuli/pictures/1213_fw.png	277.719046831131	
132	196.54801201820374	picture	0		233	130.0	/experiments/knapen_aot/AOT/AOT_stimuli/pictures/0264_fw.png	277.7347629070282	1.9424078464508057
132	198.48147201538086	response	0	k		130.0	/experiments/knapen_aot/AOT/AOT_stimuli/pictures/0264_fw.png	279.6682229042053	
133	198.49041986465454	picture	0		110	131.0	/experiments/knapen_aot/AOT/AOT_stimuli/pictures/0524_fw.png	279.677170753479	0.9166159629821777
133	199.39814805984497	response	0	k		131.0	/experiments/knapen_aot/AOT/AOT_stimuli/pictures/0524_fw.png	280.58489894866943	
134	199.40703582763672	picture	0		455	132.0	/experiments/knapen_aot/AOT/AOT_stimuli/pictures/0370_fw.png	280.5937867164612	3.7916040420532227
134	203.18976402282715	response	0	k		132.0	/experiments/knapen_aot/AOT/AOT_stimuli/pictures/0370_fw.png	284.3765149116516	
135	203.19863986968994	picture	0		110	133.0	/experiments/knapen_aot/AOT/AOT_stimuli/pictures/1557_fw.png	284.3853907585144	0.9167001247406006
135	204.106458902359	response	0	k		133.0	/experiments/knapen_aot/AOT/AOT_stimuli/pictures/1557_fw.png	285.2932097911835	
136	204.11533999443054	picture	0		117	134.0	/experiments/knapen_aot/AOT/AOT_stimuli/pictures/0691_fw.png	285.302090883255	0.9791569709777832
136	205.08142805099487	response	0	k		134.0	/experiments/knapen_aot/AOT/AOT_stimuli/pictures/0691_fw.png	286.26817893981934	
137	205.09449696540833	picture	0		109	135.0	/experiments/knapen_aot/AOT/AOT_stimuli/pictures/0310_fw.png	286.2812478542328	0.911823034286499
137	205.9904658794403	response	0	j		135.0	/experiments/knapen_aot/AOT/AOT_stimuli/pictures/0310_fw.png	287.17721676826477	
138	206.00631999969482	picture	0		97	136.0	/experiments/knapen_aot/AOT/AOT_stimuli/pictures/1551_fw.png	287.1930708885193	0.810391902923584
138	206.8064000606537	response	0	k		136.0	/experiments/knapen_aot/AOT/AOT_stimuli/pictures/1551_fw.png	287.99315094947815	
139	206.8167119026184	picture	0		135	137.0	/experiments/knapen_aot/AOT/AOT_stimuli/pictures/1990_fw.png	288.00346279144287	1.1249580383300781
139	207.9246208667755	response	0	k		137.0	/experiments/knapen_aot/AOT/AOT_stimuli/pictures/1990_fw.png	289.1113717556	
140	207.9416699409485	picture	0		140	138.0	/experiments/knapen_aot/AOT/AOT_stimuli/pictures/2156_fw.png	289.12842082977295	1.1666760444641113
140	209.09804797172546	response	0	j		138.0	/experiments/knapen_aot/AOT/AOT_stimuli/pictures/2156_fw.png	290.2847988605499	
141	209.1083459854126	picture	0		118	139.0	/experiments/knapen_aot/AOT/AOT_stimuli/pictures/0471_fw.png	290.29509687423706	0.9861130714416504
141	210.08136296272278	response	0	k		139.0	/experiments/knapen_aot/AOT/AOT_stimuli/pictures/0471_fw.png	291.26811385154724	
142	210.09445905685425	picture	0		147	140.0	/experiments/knapen_aot/AOT/AOT_stimuli/pictures/0282_fw.png	291.2812099456787	1.22216796875
142	211.30636286735535	response	0	k		140.0	/experiments/knapen_aot/AOT/AOT_stimuli/pictures/0282_fw.png	292.4931137561798	
143	211.31662702560425	picture	0		152	141.0	/experiments/knapen_aot/AOT/AOT_stimuli/pictures/0618_fw.png	292.5033779144287	1.27296781539917
143	212.5737099647522	response	0	j		141.0	/experiments/knapen_aot/AOT/AOT_stimuli/pictures/0618_fw.png	293.76046085357666	
144	212.58959484100342	picture	0		116	142.0	/experiments/knapen_aot/AOT/AOT_stimuli/pictures/0072_fw.png	293.7763457298279	0.9700520038604736
144	213.54123187065125	response	0	k		142.0	/experiments/knapen_aot/AOT/AOT_stimuli/pictures/0072_fw.png	294.7279827594757	
145	213.5596468448639	picture	0		105	143.0	/experiments/knapen_aot/AOT/AOT_stimuli/pictures/0898_fw.png	294.74639773368835	0.8750150203704834
145	214.42298102378845	response	0	j		143.0	/experiments/knapen_aot/AOT/AOT_stimuli/pictures/0898_fw.png	295.6097319126129	
146	214.43466186523438	picture	0		197	144.0	/experiments/knapen_aot/AOT/AOT_stimuli/pictures/0610_fw.png	295.62141275405884	1.6388530731201172
146	216.06469297409058	response	0	j		144.0	/experiments/knapen_aot/AOT/AOT_stimuli/pictures/0610_fw.png	297.25144386291504	
147	216.0735149383545	picture	0		128	145.0	/experiments/knapen_aot/AOT/AOT_stimuli/pictures/1652_fw.png	297.26026582717896	1.0694859027862549
147	217.12457394599915	response	0	k		145.0	/experiments/knapen_aot/AOT/AOT_stimuli/pictures/1652_fw.png	298.3113248348236	
148	217.14300084114075	picture	0		107	146.0	/experiments/knapen_aot/AOT/AOT_stimuli/pictures/1517_fw.png	298.3297517299652	0.8965420722961426
148	218.02301383018494	response	0	k		146.0	/experiments/knapen_aot/AOT/AOT_stimuli/pictures/1517_fw.png	299.2097647190094	
149	218.0395429134369	picture	0		115	147.0	/experiments/knapen_aot/AOT/AOT_stimuli/pictures/1639_fw.png	299.22629380226135	0.9666979312896729
149	218.99033284187317	response	0	k		147.0	/experiments/knapen_aot/AOT/AOT_stimuli/pictures/1639_fw.png	300.17708373069763	
150	219.00624084472656	picture	0		111	148.0	/experiments/knapen_aot/AOT/AOT_stimuli/pictures/0566_fw.png	300.192991733551	0.935305118560791
150	219.92302083969116	response	0	j		148.0	/experiments/knapen_aot/AOT/AOT_stimuli/pictures/0566_fw.png	301.1097717285156	
151	219.94154596328735	picture	0		113	149.0	/experiments/knapen_aot/AOT/AOT_stimuli/pictures/0020_fw.png	301.1282968521118	0.9444880485534668
151	220.8729808330536	response	0	j		149.0	/experiments/knapen_aot/AOT/AOT_stimuli/pictures/0020_fw.png	302.05973172187805	
152	220.88603401184082	picture	0		114	150.0	/experiments/knapen_aot/AOT/AOT_stimuli/pictures/0198_fw.png	302.0727849006653	0.9785308837890625
152	221.8235468864441	response	0	k		150.0	/experiments/knapen_aot/AOT/AOT_stimuli/pictures/0198_fw.png	303.01029777526855	
153	221.86456489562988	picture	0		85	151.0	/experiments/knapen_aot/AOT/AOT_stimuli/pictures/0778_fw.png	303.05131578445435	1.2333810329437256
153	222.5646150112152	response	0	j		151.0	/experiments/knapen_aot/AOT/AOT_stimuli/pictures/0778_fw.png	303.7513659000397	
154	223.0979459285736	picture	0		96	152.0	/experiments/knapen_aot/AOT/AOT_stimuli/pictures/1577_fw.png	304.28469681739807	1.010206937789917
154	223.8896608352661	response	0	j		152.0	/experiments/knapen_aot/AOT/AOT_stimuli/pictures/1577_fw.png	305.0764117240906	
155	224.10815286636353	picture	0		94	153.0	/experiments/knapen_aot/AOT/AOT_stimuli/pictures/1538_fw.png	305.294903755188	0.7986061573028564
155	224.88152503967285	response	0	k		153.0	/experiments/knapen_aot/AOT/AOT_stimuli/pictures/1538_fw.png	306.0682759284973	
156	224.90675902366638	picture	0		218	154.0	/experiments/knapen_aot/AOT/AOT_stimuli/pictures/1243_fw.png	306.09350991249084	1.824476957321167
156	226.7146520614624	response	0	k		154.0	/experiments/knapen_aot/AOT/AOT_stimuli/pictures/1243_fw.png	307.90140295028687	
157	226.73123598098755	picture	0		108	155.0	/experiments/knapen_aot/AOT/AOT_stimuli/pictures/0399_fw.png	307.917986869812	0.9117019176483154
157	227.62294602394104	response	0	j		155.0	/experiments/knapen_aot/AOT/AOT_stimuli/pictures/0399_fw.png	308.8096969127655	
158	227.64293789863586	picture	0		96	156.0	/experiments/knapen_aot/AOT/AOT_stimuli/pictures/0982_fw.png	308.8296887874603	0.8132870197296143
158	228.43957901000977	response	0	j		156.0	/experiments/knapen_aot/AOT/AOT_stimuli/pictures/0982_fw.png	309.62632989883423	
159	228.45622491836548	picture	0		242	157.0	/experiments/knapen_aot/AOT/AOT_stimuli/pictures/1052_fw.png	309.64297580718994	2.108253002166748
159	230.46462082862854	response	0	k		157.0	/experiments/knapen_aot/AOT/AOT_stimuli/pictures/1052_fw.png	311.651371717453	
160	230.56447792053223	picture	0		130	158.0	/experiments/knapen_aot/AOT/AOT_stimuli/pictures/1119_fw.png	311.7512288093567	1.0916600227355957
160	231.6396279335022	response	0	k		158.0	/experiments/knapen_aot/AOT/AOT_stimuli/pictures/1119_fw.png	312.82637882232666	
161	231.65613794326782	picture	0		109	159.0	/experiments/knapen_aot/AOT/AOT_stimuli/pictures/1433_fw.png	312.8428888320923	1.1417319774627686
161	232.54954385757446	response	0	k		159.0	/experiments/knapen_aot/AOT/AOT_stimuli/pictures/1433_fw.png	313.7362947463989	
162	232.7978699207306	picture	0		81	160.0	/experiments/knapen_aot/AOT/AOT_stimuli/pictures/0918_fw.png	313.98462080955505	0.6832559108734131
162	233.46463203430176	response	0	j		160.0	/experiments/knapen_aot/AOT/AOT_stimuli/pictures/0918_fw.png	314.6513829231262	
163	233.481125831604	picture	0		108	161.0	/experiments/knapen_aot/AOT/AOT_stimuli/pictures/1826_fw.png	314.66787672042847	1.0416510105133057
163	234.37293887138367	response	0	j		161.0	/experiments/knapen_aot/AOT/AOT_stimuli/pictures/1826_fw.png	315.55968976020813	
164	234.5227768421173	picture	0		96	162.0	/experiments/knapen_aot/AOT/AOT_stimuli/pictures/0227_fw.png	315.7095277309418	0.8006219863891602
164	235.3146140575409	response	0	j		162.0	/experiments/knapen_aot/AOT/AOT_stimuli/pictures/0227_fw.png	316.50136494636536	
165	235.32339882850647	picture	0		116	163.0	/experiments/knapen_aot/AOT/AOT_stimuli/pictures/0418_fw.png	316.51014971733093	0.9744250774383545
165	236.2817280292511	response	0	k		163.0	/experiments/knapen_aot/AOT/AOT_stimuli/pictures/0418_fw.png	317.46847891807556	
166	236.29782390594482	picture	0		286	164.0	/experiments/knapen_aot/AOT/AOT_stimuli/pictures/0494_fw.png	317.4845747947693	2.3865671157836914
166	238.6729030609131	response	0	j		164.0	/experiments/knapen_aot/AOT/AOT_stimuli/pictures/0494_fw.png	319.85965394973755	
167	238.68439102172852	picture	0		95	165.0	/experiments/knapen_aot/AOT/AOT_stimuli/pictures/0891_fw.png	319.871141910553	0.796766996383667
167	239.4645848274231	response	0	j		165.0	/experiments/knapen_aot/AOT/AOT_stimuli/pictures/0891_fw.png	320.65133571624756	
168	239.48115801811218	picture	0		107	166.0	/experiments/knapen_aot/AOT/AOT_stimuli/pictures/2157_fw.png	320.66790890693665	0.9000129699707031
168	240.35785293579102	response	0	j		166.0	/experiments/knapen_aot/AOT/AOT_stimuli/pictures/2157_fw.png	321.5446038246155	
169	240.38117098808289	picture	0		144	167.0	/experiments/knapen_aot/AOT/AOT_stimuli/pictures/2037_fw.png	321.56792187690735	1.2082939147949219
169	241.57354283332825	response	0	k		167.0	/experiments/knapen_aot/AOT/AOT_stimuli/pictures/2037_fw.png	322.7602937221527	
170	241.5894649028778	picture	0		354	168.0	/experiments/knapen_aot/AOT/AOT_stimuli/pictures/0943_fw.png	322.77621579170227	2.958343029022217
170	244.5317189693451	response	0	j		168.0	/experiments/knapen_aot/AOT/AOT_stimuli/pictures/0943_fw.png	325.71846985816956	
171	244.54780793190002	picture	0		93	169.0	/experiments/knapen_aot/AOT/AOT_stimuli/pictures/2121_fw.png	325.7345588207245	0.7754299640655518
171	245.31446886062622	response	0	k		169.0	/experiments/knapen_aot/AOT/AOT_stimuli/pictures/2121_fw.png	326.5012197494507	
172	245.32323789596558	picture	0		160	170.0	/experiments/knapen_aot/AOT/AOT_stimuli/pictures/1680_fw.png	326.50998878479004	1.3412079811096191
172	246.6479058265686	response	0	k		170.0	/experiments/knapen_aot/AOT/AOT_stimuli/pictures/1680_fw.png	327.83465671539307	
173	246.6644458770752	picture	0		122	171.0	/experiments/knapen_aot/AOT/AOT_stimuli/pictures/0651_fw.png	327.85119676589966	1.0249719619750977
173	247.67289996147156	response	0	j		171.0	/experiments/knapen_aot/AOT/AOT_stimuli/pictures/0651_fw.png	328.859650850296	
174	247.6894178390503	picture	0		99	172.0	/experiments/knapen_aot/AOT/AOT_stimuli/pictures/1956_fw.png	328.87616872787476	0.8284411430358887
174	248.5062220096588	response	0	k		172.0	/experiments/knapen_aot/AOT/AOT_stimuli/pictures/1956_fw.png	329.6929728984833	
175	248.51785898208618	picture	0		81	173.0	/experiments/knapen_aot/AOT/AOT_stimuli/pictures/2139_fw.png	329.70460987091064	0.6799068450927734
175	249.18115496635437	response	0	j		173.0	/experiments/knapen_aot/AOT/AOT_stimuli/pictures/2139_fw.png	330.36790585517883	
176	249.19776582717896	picture	0		117	174.0	/experiments/knapen_aot/AOT/AOT_stimuli/pictures/0283_fw.png	330.3845167160034	0.979600191116333
176	250.15814590454102	response	0	j		174.0	/experiments/knapen_aot/AOT/AOT_stimuli/pictures/0283_fw.png	331.3448967933655	
177	250.1773660182953	picture	0		133	175.0	/experiments/knapen_aot/AOT/AOT_stimuli/pictures/1489_fw.png	331.36411690711975	1.1041429042816162
177	251.2728669643402	response	0	k		175.0	/experiments/knapen_aot/AOT/AOT_stimuli/pictures/1489_fw.png	332.4596178531647	
178	251.2815089225769	picture	0		117	176.0	/experiments/knapen_aot/AOT/AOT_stimuli/pictures/2058_fw.png	332.46825981140137	0.9791910648345947
178	252.24785995483398	response	0	j		176.0	/experiments/knapen_aot/AOT/AOT_stimuli/pictures/2058_fw.png	333.43461084365845	
179	252.2606999874115	picture	0		101	177.0	/experiments/knapen_aot/AOT/AOT_stimuli/pictures/1114_fw.png	333.44745087623596	0.8453459739685059
179	253.08950901031494	response	0	j		177.0	/experiments/knapen_aot/AOT/AOT_stimuli/pictures/1114_fw.png	334.2762598991394	
180	253.10604596138	picture	0		176	178.0	/experiments/knapen_aot/AOT/AOT_stimuli/pictures/0723_fw.png	334.29279685020447	1.4751670360565186
180	254.55781888961792	response	0	k		178.0	/experiments/knapen_aot/AOT/AOT_stimuli/pictures/0723_fw.png	335.7445697784424	
181	254.58121299743652	picture	0		121	179.0	/experiments/knapen_aot/AOT/AOT_stimuli/pictures/0144_fw.png	335.767963886261	1.0664598941802979
181	255.5811309814453	response	0	k		179.0	/experiments/knapen_aot/AOT/AOT_stimuli/pictures/0144_fw.png	336.7678818702698	
182	255.64767289161682	stim	0		536			336.8344237804413	4.467236042022705
182	260.1061749458313	response	0	space				341.29292583465576	
