trial_nr	onset	event_type	phase	response	nr_frames	picture_index	picture_file	onset_abs	duration
0	0.15983009338378906	stim	0		713			76.94082999229431	5.95782995223999
0	6.097656011581421	response	0	space				82.87865591049194	
2	6.117660045623779	picture	0		278	0.0	/experiments/knapen_aot/AOT/AOT_stimuli/pictures/0750_fw.png	82.8986599445343	2.3194079399108887
2	8.423262119293213	response	0	k		0.0	/experiments/knapen_aot/AOT/AOT_stimuli/pictures/0750_fw.png	85.20426201820374	
3	8.437067985534668	picture	0		120	1.0	/experiments/knapen_aot/AOT/AOT_stimuli/pictures/1631_fw.png	85.21806788444519	1.0069551467895508
3	9.430941104888916	response	0	k		1.0	/experiments/knapen_aot/AOT/AOT_stimuli/pictures/1631_fw.png	86.21194100379944	
4	9.444023132324219	picture	0		89	2.0	/experiments/knapen_aot/AOT/AOT_stimuli/pictures/0926_fw.png	86.22502303123474	0.750018835067749
4	10.174858093261719	response	0	j		2.0	/experiments/knapen_aot/AOT/AOT_stimuli/pictures/0926_fw.png	86.95585799217224	
5	10.194041967391968	picture	0		242	3.0	/experiments/knapen_aot/AOT/AOT_stimuli/pictures/0963_fw.png	86.97504186630249	2.0207760334014893
5	12.199241161346436	response	0	k		3.0	/experiments/knapen_aot/AOT/AOT_stimuli/pictures/0963_fw.png	88.98024106025696	
6	12.214818000793457	picture	0		115	4.0	/experiments/knapen_aot/AOT/AOT_stimuli/pictures/0229_fw.png	88.99581789970398	0.9583110809326172
6	13.164441108703613	response	0	j		4.0	/experiments/knapen_aot/AOT/AOT_stimuli/pictures/0229_fw.png	89.94544100761414	
7	13.173129081726074	picture	0		118	5.0	/experiments/knapen_aot/AOT/AOT_stimuli/pictures/0285_fw.png	89.9541289806366	0.986077070236206
7	14.147629022598267	response	0	k		5.0	/experiments/knapen_aot/AOT/AOT_stimuli/pictures/0285_fw.png	90.92862892150879	
8	14.15920615196228	picture	0		148	6.0	/experiments/knapen_aot/AOT/AOT_stimuli/pictures/0251_fw.png	90.9402060508728	1.2361888885498047
8	15.381587028503418	response	0	j		6.0	/experiments/knapen_aot/AOT/AOT_stimuli/pictures/0251_fw.png	92.16258692741394	
9	15.395395040512085	picture	0		96	7.0	/experiments/knapen_aot/AOT/AOT_stimuli/pictures/1224_fw.png	92.17639493942261	0.8055050373077393
9	16.189358949661255	response	0	j		7.0	/experiments/knapen_aot/AOT/AOT_stimuli/pictures/1224_fw.png	92.97035884857178	
10	16.200900077819824	picture	0		101	8.0	/experiments/knapen_aot/AOT/AOT_stimuli/pictures/0975_fw.png	92.98189997673035	0.8471899032592773
10	17.02420210838318	response	0	j		8.0	/experiments/knapen_aot/AOT/AOT_stimuli/pictures/0975_fw.png	93.8052020072937	
11	17.0480899810791	picture	0		101	9.0	/experiments/knapen_aot/AOT/AOT_stimuli/pictures/1884_fw.png	93.82908987998962	0.8577771186828613
11	17.881494998931885	response	0	j		9.0	/experiments/knapen_aot/AOT/AOT_stimuli/pictures/1884_fw.png	94.66249489784241	
12	17.905867099761963	picture	0		93	10.0	/experiments/knapen_aot/AOT/AOT_stimuli/pictures/1245_fw.png	94.68686699867249	0.7882280349731445
12	18.673202991485596	response	0	j		10.0	/experiments/knapen_aot/AOT/AOT_stimuli/pictures/1245_fw.png	95.45420289039612	
13	18.694095134735107	picture	0		105	11.0	/experiments/knapen_aot/AOT/AOT_stimuli/pictures/1557_fw.png	95.47509503364563	1.5553278923034668
13	19.564306020736694	response	0	k		11.0	/experiments/knapen_aot/AOT/AOT_stimuli/pictures/1557_fw.png	96.34530591964722	
14	20.249423027038574	picture	0		102	12.0	/experiments/knapen_aot/AOT/AOT_stimuli/pictures/1259_fw.png	97.0304229259491	0.8564300537109375
14	21.08984899520874	response	0	j		12.0	/experiments/knapen_aot/AOT/AOT_stimuli/pictures/1259_fw.png	97.87084889411926	
15	21.10585308074951	picture	0		107	13.0	/experiments/knapen_aot/AOT/AOT_stimuli/pictures/1313_fw.png	97.88685297966003	0.9005739688873291
15	21.98926615715027	response	0	j		13.0	/experiments/knapen_aot/AOT/AOT_stimuli/pictures/1313_fw.png	98.77026605606079	
16	22.00642704963684	picture	0		96	14.0	/experiments/knapen_aot/AOT/AOT_stimuli/pictures/0323_fw.png	98.78742694854736	0.8055250644683838
16	22.790884971618652	response	0	j		14.0	/experiments/knapen_aot/AOT/AOT_stimuli/pictures/0323_fw.png	99.57188487052917	
17	22.811952114105225	picture	0		126	15.0	/experiments/knapen_aot/AOT/AOT_stimuli/pictures/2171_fw.png	99.59295201301575	1.0555479526519775
17	23.85589599609375	response	0	j		15.0	/experiments/knapen_aot/AOT/AOT_stimuli/pictures/2171_fw.png	100.63689589500427	
18	23.867500066757202	picture	0		112	16.0	/experiments/knapen_aot/AOT/AOT_stimuli/pictures/1194_fw.png	100.64849996566772	0.9305410385131836
18	24.78924798965454	response	0	k		16.0	/experiments/knapen_aot/AOT/AOT_stimuli/pictures/1194_fw.png	101.57024788856506	
19	24.798041105270386	picture	0		172	17.0	/experiments/knapen_aot/AOT/AOT_stimuli/pictures/1933_fw.png	101.57904100418091	1.449427843093872
19	26.216431140899658	response	0	k		17.0	/experiments/knapen_aot/AOT/AOT_stimuli/pictures/1933_fw.png	102.99743103981018	
20	26.247468948364258	picture	0		121	18.0	/experiments/knapen_aot/AOT/AOT_stimuli/pictures/1390_fw.png	103.02846884727478	1.0250821113586426
20	27.247570037841797	response	0	j		18.0	/experiments/knapen_aot/AOT/AOT_stimuli/pictures/1390_fw.png	104.02856993675232	
21	27.2725510597229	picture	0		121	19.0	/experiments/knapen_aot/AOT/AOT_stimuli/pictures/0768_fw.png	104.05355095863342	1.0115859508514404
21	28.272571086883545	response	0	k		19.0	/experiments/knapen_aot/AOT/AOT_stimuli/pictures/0768_fw.png	105.05357098579407	
22	28.28413701057434	picture	0		140	20.0	/experiments/knapen_aot/AOT/AOT_stimuli/pictures/0257_fw.png	105.06513690948486	1.1884889602661133
22	29.439226150512695	response	0	k		20.0	/experiments/knapen_aot/AOT/AOT_stimuli/pictures/0257_fw.png	106.22022604942322	
23	29.472625970840454	picture	0		96	21.0	/experiments/knapen_aot/AOT/AOT_stimuli/pictures/1103_fw.png	106.25362586975098	0.8081810474395752
23	30.264222145080566	response	0	j		21.0	/experiments/knapen_aot/AOT/AOT_stimuli/pictures/1103_fw.png	107.04522204399109	
24	30.28080701828003	picture	0		100	22.0	/experiments/knapen_aot/AOT/AOT_stimuli/pictures/1674_fw.png	107.06180691719055	0.83656907081604
24	31.10592007637024	response	0	j		22.0	/experiments/knapen_aot/AOT/AOT_stimuli/pictures/1674_fw.png	107.88691997528076	
25	31.11737608909607	picture	0		106	23.0	/experiments/knapen_aot/AOT/AOT_stimuli/pictures/2104_fw.png	107.89837598800659	0.8883838653564453
25	31.989171981811523	response	0	k		23.0	/experiments/knapen_aot/AOT/AOT_stimuli/pictures/2104_fw.png	108.77017188072205	
26	32.005759954452515	picture	0		111	24.0	/experiments/knapen_aot/AOT/AOT_stimuli/pictures/1401_fw.png	108.78675985336304	0.9449710845947266
26	32.92303514480591	response	0	k		24.0	/experiments/knapen_aot/AOT/AOT_stimuli/pictures/1401_fw.png	109.70403504371643	
27	32.95073103904724	picture	0		109	25.0	/experiments/knapen_aot/AOT/AOT_stimuli/pictures/1934_fw.png	109.73173093795776	0.9096901416778564
27	33.847583055496216	response	0	k		25.0	/experiments/knapen_aot/AOT/AOT_stimuli/pictures/1934_fw.png	110.62858295440674	
28	33.8604211807251	picture	0		83	26.0	/experiments/knapen_aot/AOT/AOT_stimuli/pictures/1483_fw.png	110.64142107963562	0.7038049697875977
28	34.53925704956055	response	0	j		26.0	/experiments/knapen_aot/AOT/AOT_stimuli/pictures/1483_fw.png	111.32025694847107	
29	34.564226150512695	picture	0		101	27.0	/experiments/knapen_aot/AOT/AOT_stimuli/pictures/0183_fw.png	111.34522604942322	0.8448100090026855
29	35.39757800102234	response	0	k		27.0	/experiments/knapen_aot/AOT/AOT_stimuli/pictures/0183_fw.png	112.17857789993286	
30	35.40903615951538	picture	0		97	28.0	/experiments/knapen_aot/AOT/AOT_stimuli/pictures/1132_fw.png	112.1900360584259	0.8217599391937256
30	36.19916105270386	response	0	j		28.0	/experiments/knapen_aot/AOT/AOT_stimuli/pictures/1132_fw.png	112.98016095161438	
31	36.230796098709106	picture	0		97	29.0	/experiments/knapen_aot/AOT/AOT_stimuli/pictures/0126_fw.png	113.01179599761963	0.8166708946228027
31	37.02400803565979	response	0	j		29.0	/experiments/knapen_aot/AOT/AOT_stimuli/pictures/0126_fw.png	113.80500793457031	
32	37.04746699333191	picture	0		110	30.0	/experiments/knapen_aot/AOT/AOT_stimuli/pictures/1090_fw.png	113.82846689224243	0.9171020984649658
32	37.955888986587524	response	0	j		30.0	/experiments/knapen_aot/AOT/AOT_stimuli/pictures/1090_fw.png	114.73688888549805	
33	37.964569091796875	picture	0		96	31.0	/experiments/knapen_aot/AOT/AOT_stimuli/pictures/0736_fw.png	114.7455689907074	0.8079040050506592
33	38.756333112716675	response	0	k		31.0	/experiments/knapen_aot/AOT/AOT_stimuli/pictures/0736_fw.png	115.5373330116272	
34	38.772473096847534	picture	0		310	32.0	/experiments/knapen_aot/AOT/AOT_stimuli/pictures/1335_fw.png	115.55347299575806	2.5916659832000732
34	41.34751296043396	response	0	k		32.0	/experiments/knapen_aot/AOT/AOT_stimuli/pictures/1335_fw.png	118.12851285934448	
35	41.36413908004761	picture	0		105	33.0	/experiments/knapen_aot/AOT/AOT_stimuli/pictures/0352_fw.png	118.14513897895813	0.8781599998474121
35	42.224092960357666	response	0	j		33.0	/experiments/knapen_aot/AOT/AOT_stimuli/pictures/0352_fw.png	119.00509285926819	
36	42.24229907989502	picture	0		103	34.0	/experiments/knapen_aot/AOT/AOT_stimuli/pictures/1535_fw.png	119.02329897880554	0.863447904586792
36	43.08959603309631	response	0	j		34.0	/experiments/knapen_aot/AOT/AOT_stimuli/pictures/1535_fw.png	119.87059593200684	
37	43.10574698448181	picture	0		92	35.0	/experiments/knapen_aot/AOT/AOT_stimuli/pictures/0866_fw.png	119.88674688339233	0.7684931755065918
37	43.86420798301697	response	0	k		35.0	/experiments/knapen_aot/AOT/AOT_stimuli/pictures/0866_fw.png	120.64520788192749	
38	43.8742401599884	picture	0		98	36.0	/experiments/knapen_aot/AOT/AOT_stimuli/pictures/1205_fw.png	120.65524005889893	0.8194129467010498
38	44.680848121643066	response	0	k		36.0	/experiments/knapen_aot/AOT/AOT_stimuli/pictures/1205_fw.png	121.46184802055359	
39	44.69365310668945	picture	0		124	37.0	/experiments/knapen_aot/AOT/AOT_stimuli/pictures/1912_fw.png	121.47465300559998	1.041761875152588
39	45.7146110534668	response	0	j		37.0	/experiments/knapen_aot/AOT/AOT_stimuli/pictures/1912_fw.png	122.49561095237732	
40	45.73541498184204	picture	0		104	38.0	/experiments/knapen_aot/AOT/AOT_stimuli/pictures/1918_fw.png	122.51641488075256	0.8748571872711182
40	46.59753108024597	response	0	k		38.0	/experiments/knapen_aot/AOT/AOT_stimuli/pictures/1918_fw.png	123.3785309791565	
41	46.61027216911316	picture	0		103	39.0	/experiments/knapen_aot/AOT/AOT_stimuli/pictures/0098_fw.png	123.39127206802368	0.8543930053710938
41	47.45582914352417	response	0	j		39.0	/experiments/knapen_aot/AOT/AOT_stimuli/pictures/0098_fw.png	124.23682904243469	
42	47.46466517448425	picture	0		90	40.0	/experiments/knapen_aot/AOT/AOT_stimuli/pictures/0243_fw.png	124.24566507339478	0.7499368190765381
42	48.20587706565857	response	0	k		40.0	/experiments/knapen_aot/AOT/AOT_stimuli/pictures/0243_fw.png	124.98687696456909	
43	48.21460199356079	picture	0		419	41.0	/experiments/knapen_aot/AOT/AOT_stimuli/pictures/0761_fw.png	124.99560189247131	3.49288010597229
43	51.69749903678894	response	0	j		41.0	/experiments/knapen_aot/AOT/AOT_stimuli/pictures/0761_fw.png	128.47849893569946	
44	51.70748209953308	picture	0		124	42.0	/experiments/knapen_aot/AOT/AOT_stimuli/pictures/1681_fw.png	128.4884819984436	1.0486319065093994
44	52.730857133865356	response	0	j		42.0	/experiments/knapen_aot/AOT/AOT_stimuli/pictures/1681_fw.png	129.51185703277588	
45	52.75611400604248	picture	0		84	43.0	/experiments/knapen_aot/AOT/AOT_stimuli/pictures/2084_fw.png	129.537113904953	0.7013909816741943
45	53.44750213623047	response	0	j		43.0	/experiments/knapen_aot/AOT/AOT_stimuli/pictures/2084_fw.png	130.228502035141	
46	53.457504987716675	picture	0		89	44.0	/experiments/knapen_aot/AOT/AOT_stimuli/pictures/0239_fw.png	130.2385048866272	0.7502090930938721
46	54.18921995162964	response	0	k		44.0	/experiments/knapen_aot/AOT/AOT_stimuli/pictures/0239_fw.png	130.97021985054016	
47	54.20771408081055	picture	0		107	45.0	/experiments/knapen_aot/AOT/AOT_stimuli/pictures/0617_fw.png	130.98871397972107	0.8956069946289062
47	55.089487075805664	response	0	k		45.0	/experiments/knapen_aot/AOT/AOT_stimuli/pictures/0617_fw.png	131.8704869747162	
48	55.10332107543945	picture	0		111	46.0	/experiments/knapen_aot/AOT/AOT_stimuli/pictures/0410_fw.png	131.88432097434998	0.9444169998168945
48	56.01576018333435	response	0	j		46.0	/experiments/knapen_aot/AOT/AOT_stimuli/pictures/0410_fw.png	132.79676008224487	
49	56.04773807525635	picture	0		84	47.0	/experiments/knapen_aot/AOT/AOT_stimuli/pictures/2128_fw.png	132.82873797416687	0.7079870700836182
49	56.7392041683197	response	0	k		47.0	/experiments/knapen_aot/AOT/AOT_stimuli/pictures/2128_fw.png	133.52020406723022	
50	56.755725145339966	picture	0		160	48.0	/experiments/knapen_aot/AOT/AOT_stimuli/pictures/1404_fw.png	133.5367250442505	1.333664894104004
50	58.080832958221436	response	0	j		48.0	/experiments/knapen_aot/AOT/AOT_stimuli/pictures/1404_fw.png	134.86183285713196	
51	58.08939003944397	picture	0		143	49.0	/experiments/knapen_aot/AOT/AOT_stimuli/pictures/0295_fw.png	134.8703899383545	1.194437026977539
51	59.272518157958984	response	0	k		49.0	/experiments/knapen_aot/AOT/AOT_stimuli/pictures/0295_fw.png	136.0535180568695	
52	59.28382706642151	picture	0		121	50.0	/experiments/knapen_aot/AOT/AOT_stimuli/pictures/1170_fw.png	136.06482696533203	1.0069301128387451
52	60.28095102310181	response	0	j		50.0	/experiments/knapen_aot/AOT/AOT_stimuli/pictures/1170_fw.png	137.06195092201233	
53	60.290757179260254	picture	0		106	51.0	/experiments/knapen_aot/AOT/AOT_stimuli/pictures/1186_fw.png	137.07175707817078	0.8818747997283936
53	61.164106130599976	response	0	j		51.0	/experiments/knapen_aot/AOT/AOT_stimuli/pictures/1186_fw.png	137.9451060295105	
54	61.17263197898865	picture	0		94	52.0	/experiments/knapen_aot/AOT/AOT_stimuli/pictures/0986_fw.png	137.95363187789917	0.7847731113433838
54	61.94746994972229	response	0	k		52.0	/experiments/knapen_aot/AOT/AOT_stimuli/pictures/0986_fw.png	138.7284698486328	
55	61.95740509033203	picture	0		86	53.0	/experiments/knapen_aot/AOT/AOT_stimuli/pictures/0271_fw.png	138.73840498924255	0.7152769565582275
55	62.66419005393982	response	0	j		53.0	/experiments/knapen_aot/AOT/AOT_stimuli/pictures/0271_fw.png	139.44518995285034	
56	62.67268204689026	picture	0		350	54.0	/experiments/knapen_aot/AOT/AOT_stimuli/pictures/0644_fw.png	139.45368194580078	2.916649103164673
56	65.58083009719849	response	0	j		54.0	/experiments/knapen_aot/AOT/AOT_stimuli/pictures/0644_fw.png	142.361829996109	
57	65.58933115005493	picture	0		97	55.0	/experiments/knapen_aot/AOT/AOT_stimuli/pictures/0084_fw.png	142.37033104896545	0.816356897354126
57	66.38910412788391	response	0	k		55.0	/experiments/knapen_aot/AOT/AOT_stimuli/pictures/0084_fw.png	143.17010402679443	
58	66.40568804740906	picture	0		87	56.0	/experiments/knapen_aot/AOT/AOT_stimuli/pictures/1636_fw.png	143.18668794631958	0.7252840995788574
58	67.12240600585938	response	0	j		56.0	/experiments/knapen_aot/AOT/AOT_stimuli/pictures/1636_fw.png	143.9034059047699	
59	67.13097214698792	picture	0		158	57.0	/experiments/knapen_aot/AOT/AOT_stimuli/pictures/0253_fw.png	143.91197204589844	1.319443941116333
59	68.43229007720947	response	0	j		57.0	/experiments/knapen_aot/AOT/AOT_stimuli/pictures/0253_fw.png	145.21328997612	
60	68.45041608810425	picture	0		264	58.0	/experiments/knapen_aot/AOT/AOT_stimuli/pictures/0072_fw.png	145.23141598701477	2.2013468742370605
60	70.63260316848755	response	0	k		58.0	/experiments/knapen_aot/AOT/AOT_stimuli/pictures/0072_fw.png	147.41360306739807	
61	70.65176296234131	picture	0		157	59.0	/experiments/knapen_aot/AOT/AOT_stimuli/pictures/1117_fw.png	147.43276286125183	1.3055710792541504
61	71.94743514060974	response	0	j		59.0	/experiments/knapen_aot/AOT/AOT_stimuli/pictures/1117_fw.png	148.72843503952026	
62	71.95733404159546	picture	0		91	60.0	/experiments/knapen_aot/AOT/AOT_stimuli/pictures/1239_fw.png	148.73833394050598	0.7569189071655273
62	72.70572996139526	response	0	k		60.0	/experiments/knapen_aot/AOT/AOT_stimuli/pictures/1239_fw.png	149.4867298603058	
63	72.71425294876099	picture	0		94	61.0	/experiments/knapen_aot/AOT/AOT_stimuli/pictures/1433_fw.png	149.4952528476715	0.7847161293029785
63	73.48919415473938	response	0	k		61.0	/experiments/knapen_aot/AOT/AOT_stimuli/pictures/1433_fw.png	150.2701940536499	
64	73.49896907806396	picture	0		116	62.0	/experiments/knapen_aot/AOT/AOT_stimuli/pictures/1645_fw.png	150.2799689769745	0.9653100967407227
64	74.45573115348816	response	0	k		62.0	/experiments/knapen_aot/AOT/AOT_stimuli/pictures/1645_fw.png	151.23673105239868	
65	74.46427917480469	picture	0		138	63.0	/experiments/knapen_aot/AOT/AOT_stimuli/pictures/1126_fw.png	151.2452790737152	1.152695894241333
65	75.60568404197693	response	0	k		63.0	/experiments/knapen_aot/AOT/AOT_stimuli/pictures/1126_fw.png	152.38668394088745	
66	75.61697506904602	picture	0		89	64.0	/experiments/knapen_aot/AOT/AOT_stimuli/pictures/1474_fw.png	152.39797496795654	0.7430729866027832
66	76.34738802909851	response	0	j		64.0	/experiments/knapen_aot/AOT/AOT_stimuli/pictures/1474_fw.png	153.12838792800903	
67	76.3600480556488	picture	0		90	65.0	/experiments/knapen_aot/AOT/AOT_stimuli/pictures/0651_fw.png	153.14104795455933	0.7499709129333496
67	77.09737014770508	response	0	k		65.0	/experiments/knapen_aot/AOT/AOT_stimuli/pictures/0651_fw.png	153.8783700466156	
68	77.11001896858215	picture	0		84	66.0	/experiments/knapen_aot/AOT/AOT_stimuli/pictures/1134_fw.png	153.89101886749268	0.701383113861084
68	77.79759001731873	response	0	j		66.0	/experiments/knapen_aot/AOT/AOT_stimuli/pictures/1134_fw.png	154.57858991622925	
69	77.81140208244324	picture	0		90	67.0	/experiments/knapen_aot/AOT/AOT_stimuli/pictures/1398_fw.png	154.59240198135376	0.7569060325622559
69	78.55567502975464	response	0	k		67.0	/experiments/knapen_aot/AOT/AOT_stimuli/pictures/1398_fw.png	155.33667492866516	
70	78.5683081150055	picture	0		419	68.0	/experiments/knapen_aot/AOT/AOT_stimuli/pictures/0783_fw.png	155.34930801391602	3.4999890327453613
70	82.05564904212952	response	0	k		68.0	/experiments/knapen_aot/AOT/AOT_stimuli/pictures/0783_fw.png	158.83664894104004	
71	82.06829714775085	picture	0		133	69.0	/experiments/knapen_aot/AOT/AOT_stimuli/pictures/1752_fw.png	158.84929704666138	1.1180448532104492
71	83.17254400253296	response	0	j		69.0	/experiments/knapen_aot/AOT/AOT_stimuli/pictures/1752_fw.png	159.95354390144348	
72	83.1863420009613	picture	0		94	70.0	/experiments/knapen_aot/AOT/AOT_stimuli/pictures/1534_fw.png	159.96734189987183	0.7917001247406006
72	83.96422410011292	response	0	k		70.0	/experiments/knapen_aot/AOT/AOT_stimuli/pictures/1534_fw.png	160.74522399902344	
73	83.9780421257019	picture	0		105	71.0	/experiments/knapen_aot/AOT/AOT_stimuli/pictures/0833_fw.png	160.75904202461243	0.8819088935852051
73	84.84071516990662	response	0	j		71.0	/experiments/knapen_aot/AOT/AOT_stimuli/pictures/0833_fw.png	161.62171506881714	
74	84.85995101928711	picture	0		91	72.0	/experiments/knapen_aot/AOT/AOT_stimuli/pictures/0924_fw.png	161.64095091819763	0.7569229602813721
74	85.60562300682068	response	0	j		72.0	/experiments/knapen_aot/AOT/AOT_stimuli/pictures/0924_fw.png	162.3866229057312	
75	85.61687397956848	picture	0		100	73.0	/experiments/knapen_aot/AOT/AOT_stimuli/pictures/0266_fw.png	162.397873878479	0.8402509689331055
75	86.43227696418762	response	0	k		73.0	/experiments/knapen_aot/AOT/AOT_stimuli/pictures/0266_fw.png	163.21327686309814	
76	86.45712494850159	picture	0		100	74.0	/experiments/knapen_aot/AOT/AOT_stimuli/pictures/1517_fw.png	163.2381248474121	0.8334360122680664
76	87.28062200546265	response	0	k		74.0	/experiments/knapen_aot/AOT/AOT_stimuli/pictures/1517_fw.png	164.06162190437317	
77	87.29056096076965	picture	0		101	75.0	/experiments/knapen_aot/AOT/AOT_stimuli/pictures/1840_fw.png	164.07156085968018	0.8401710987091064
77	88.12234115600586	response	0	k		75.0	/experiments/knapen_aot/AOT/AOT_stimuli/pictures/1840_fw.png	164.90334105491638	
78	88.13073205947876	picture	0		105	76.0	/experiments/knapen_aot/AOT/AOT_stimuli/pictures/0281_fw.png	164.91173195838928	0.8749558925628662
78	88.99725317955017	response	0	k		76.0	/experiments/knapen_aot/AOT/AOT_stimuli/pictures/0281_fw.png	165.7782530784607	
79	89.00568795204163	picture	0		103	77.0	/experiments/knapen_aot/AOT/AOT_stimuli/pictures/0484_fw.png	165.78668785095215	0.861112117767334
79	89.8488290309906	response	0	k		77.0	/experiments/knapen_aot/AOT/AOT_stimuli/pictures/0484_fw.png	166.62982892990112	
80	89.86680006980896	picture	0		123	78.0	/experiments/knapen_aot/AOT/AOT_stimuli/pictures/1473_fw.png	166.64779996871948	1.0277740955352783
80	90.88078904151917	response	0	k		78.0	/experiments/knapen_aot/AOT/AOT_stimuli/pictures/1473_fw.png	167.6617889404297	
81	90.89457416534424	picture	0		117	79.0	/experiments/knapen_aot/AOT/AOT_stimuli/pictures/2121_fw.png	167.67557406425476	0.9791347980499268
81	91.86399912834167	response	0	j		79.0	/experiments/knapen_aot/AOT/AOT_stimuli/pictures/2121_fw.png	168.6449990272522	
82	91.87370896339417	picture	0		87	80.0	/experiments/knapen_aot/AOT/AOT_stimuli/pictures/1266_fw.png	168.6547088623047	0.7293469905853271
82	92.5891261100769	response	0	j		80.0	/experiments/knapen_aot/AOT/AOT_stimuli/pictures/1266_fw.png	169.37012600898743	
83	92.60305595397949	picture	0		99	81.0	/experiments/knapen_aot/AOT/AOT_stimuli/pictures/0208_fw.png	169.38405585289001	0.8333940505981445
83	93.42245197296143	response	0	j		81.0	/experiments/knapen_aot/AOT/AOT_stimuli/pictures/0208_fw.png	170.20345187187195	
84	93.43645000457764	picture	0		107	82.0	/experiments/knapen_aot/AOT/AOT_stimuli/pictures/2027_fw.png	170.21744990348816	0.8956279754638672
84	94.32229208946228	response	0	k		82.0	/experiments/knapen_aot/AOT/AOT_stimuli/pictures/2027_fw.png	171.1032919883728	
85	94.3320779800415	picture	0		561	83.0	/experiments/knapen_aot/AOT/AOT_stimuli/pictures/1676_fw.png	171.11307787895203	4.6735570430755615
85	98.99726414680481	response	0	k		83.0	/experiments/knapen_aot/AOT/AOT_stimuli/pictures/1676_fw.png	175.77826404571533	
86	99.00563502311707	picture	0		105	84.0	/experiments/knapen_aot/AOT/AOT_stimuli/pictures/1010_fw.png	175.7866349220276	0.8749430179595947
86	99.87226104736328	response	0	k		84.0	/experiments/knapen_aot/AOT/AOT_stimuli/pictures/1010_fw.png	176.6532609462738	
87	99.88057804107666	picture	0		119	85.0	/experiments/knapen_aot/AOT/AOT_stimuli/pictures/1119_fw.png	176.66157793998718	0.9999349117279053
87	100.85716915130615	response	0	k		85.0	/experiments/knapen_aot/AOT/AOT_stimuli/pictures/1119_fw.png	177.63816905021667	
88	100.88051295280457	picture	0		111	86.0	/experiments/knapen_aot/AOT/AOT_stimuli/pictures/1802_fw.png	177.6615128517151	0.9306290149688721
88	101.79741597175598	response	0	k		86.0	/experiments/knapen_aot/AOT/AOT_stimuli/pictures/1802_fw.png	178.5784158706665	
89	101.81114196777344	picture	0		94	87.0	/experiments/knapen_aot/AOT/AOT_stimuli/pictures/0276_fw.png	178.59214186668396	0.7917060852050781
89	102.5890109539032	response	0	k		87.0	/experiments/knapen_aot/AOT/AOT_stimuli/pictures/0276_fw.png	179.37001085281372	
90	102.60284805297852	picture	0		90	88.0	/experiments/knapen_aot/AOT/AOT_stimuli/pictures/0204_fw.png	179.38384795188904	0.7568809986114502
90	103.34724402427673	response	0	j		88.0	/experiments/knapen_aot/AOT/AOT_stimuli/pictures/0204_fw.png	180.12824392318726	
91	103.35972905158997	picture	0		89	89.0	/experiments/knapen_aot/AOT/AOT_stimuli/pictures/0015_fw.png	180.1407289505005	0.7430639266967773
91	104.08901405334473	response	0	k		89.0	/experiments/knapen_aot/AOT/AOT_stimuli/pictures/0015_fw.png	180.87001395225525	
92	104.10279297828674	picture	0		146	90.0	/experiments/knapen_aot/AOT/AOT_stimuli/pictures/1151_fw.png	180.88379287719727	1.2222461700439453
92	105.31395602226257	response	0	j		90.0	/experiments/knapen_aot/AOT/AOT_stimuli/pictures/1151_fw.png	182.0949559211731	
93	105.32503914833069	picture	0		98	91.0	/experiments/knapen_aot/AOT/AOT_stimuli/pictures/1796_fw.png	182.1060390472412	0.8194248676300049
93	106.13064217567444	response	0	j		91.0	/experiments/knapen_aot/AOT/AOT_stimuli/pictures/1796_fw.png	182.91164207458496	
94	106.1444640159607	picture	0		112	92.0	/experiments/knapen_aot/AOT/AOT_stimuli/pictures/0394_fw.png	182.92546391487122	0.9374921321868896
94	107.07223606109619	response	0	j		92.0	/experiments/knapen_aot/AOT/AOT_stimuli/pictures/0394_fw.png	183.8532359600067	
95	107.08195614814758	picture	0		142	93.0	/experiments/knapen_aot/AOT/AOT_stimuli/pictures/1098_fw.png	183.8629560470581	1.1875348091125488
95	108.24892807006836	response	0	j		93.0	/experiments/knapen_aot/AOT/AOT_stimuli/pictures/1098_fw.png	185.02992796897888	
96	108.26949095726013	picture	0		107	94.0	/experiments/knapen_aot/AOT/AOT_stimuli/pictures/0707_fw.png	185.05049085617065	0.902705192565918
96	109.15549898147583	response	0	j		94.0	/experiments/knapen_aot/AOT/AOT_stimuli/pictures/0707_fw.png	185.93649888038635	
97	109.17219614982605	picture	0		96	95.0	/experiments/knapen_aot/AOT/AOT_stimuli/pictures/1759_fw.png	185.95319604873657	0.8055298328399658
97	109.96395611763	response	0	k		95.0	/experiments/knapen_aot/AOT/AOT_stimuli/pictures/1759_fw.png	186.74495601654053	
98	109.97772598266602	picture	0		158	96.0	/experiments/knapen_aot/AOT/AOT_stimuli/pictures/1712_fw.png	186.75872588157654	1.3194220066070557
98	111.28891801834106	response	0	k		96.0	/experiments/knapen_aot/AOT/AOT_stimuli/pictures/1712_fw.png	188.0699179172516	
99	111.29714798927307	picture	0		115	97.0	/experiments/knapen_aot/AOT/AOT_stimuli/pictures/0367_fw.png	188.0781478881836	0.9583241939544678
99	112.24040508270264	response	0	k		97.0	/experiments/knapen_aot/AOT/AOT_stimuli/pictures/0367_fw.png	189.02140498161316	
100	112.25547218322754	picture	0		146	98.0	/experiments/knapen_aot/AOT/AOT_stimuli/pictures/1447_fw.png	189.03647208213806	1.2222869396209717
100	113.45707297325134	response	0	k		98.0	/experiments/knapen_aot/AOT/AOT_stimuli/pictures/1447_fw.png	190.23807287216187	
101	113.47775912284851	picture	0		175	99.0	/experiments/knapen_aot/AOT/AOT_stimuli/pictures/1095_fw.png	190.25875902175903	1.465245008468628
101	114.93053007125854	response	0	k		99.0	/experiments/knapen_aot/AOT/AOT_stimuli/pictures/1095_fw.png	191.71152997016907	
102	114.94300413131714	picture	0		289	100.0	/experiments/knapen_aot/AOT/AOT_stimuli/pictures/0759_fw.png	191.72400403022766	2.409687042236328
102	117.33893418312073	response	0	j		100.0	/experiments/knapen_aot/AOT/AOT_stimuli/pictures/0759_fw.png	194.11993408203125	
103	117.35269117355347	picture	0		84	101.0	/experiments/knapen_aot/AOT/AOT_stimuli/pictures/0340_fw.png	194.133691072464	0.708460807800293
103	118.04042410850525	response	0	k		101.0	/experiments/knapen_aot/AOT/AOT_stimuli/pictures/0340_fw.png	194.82142400741577	
104	118.06115198135376	picture	0		90	102.0	/experiments/knapen_aot/AOT/AOT_stimuli/pictures/0377_fw.png	194.84215188026428	0.7567920684814453
104	118.80551314353943	response	0	j		102.0	/experiments/knapen_aot/AOT/AOT_stimuli/pictures/0377_fw.png	195.58651304244995	
105	118.8179440498352	picture	0		106	103.0	/experiments/knapen_aot/AOT/AOT_stimuli/pictures/0725_fw.png	195.59894394874573	0.8819611072540283
105	119.68885898590088	response	0	j		103.0	/experiments/knapen_aot/AOT/AOT_stimuli/pictures/0725_fw.png	196.4698588848114	
106	119.69990515708923	picture	0		138	104.0	/experiments/knapen_aot/AOT/AOT_stimuli/pictures/1609_fw.png	196.48090505599976	1.1528048515319824
106	120.8320460319519	response	0	k		104.0	/experiments/knapen_aot/AOT/AOT_stimuli/pictures/1609_fw.png	197.61304593086243	
107	120.85271000862122	picture	0		110	105.0	/experiments/knapen_aot/AOT/AOT_stimuli/pictures/2056_fw.png	197.63370990753174	0.9235241413116455
107	121.76387000083923	response	0	k		105.0	/experiments/knapen_aot/AOT/AOT_stimuli/pictures/2056_fw.png	198.54486989974976	
108	121.77623414993286	picture	0		101	106.0	/experiments/knapen_aot/AOT/AOT_stimuli/pictures/0507_fw.png	198.55723404884338	0.840289831161499
108	122.60552597045898	response	0	j		106.0	/experiments/knapen_aot/AOT/AOT_stimuli/pictures/0507_fw.png	199.3865258693695	
109	122.61652398109436	picture	0		106	107.0	/experiments/knapen_aot/AOT/AOT_stimuli/pictures/1360_fw.png	199.39752388000488	0.8819291591644287
109	123.48885107040405	response	0	k		107.0	/experiments/knapen_aot/AOT/AOT_stimuli/pictures/1360_fw.png	200.26985096931458	
110	123.49845314025879	picture	0		112	108.0	/experiments/knapen_aot/AOT/AOT_stimuli/pictures/0146_fw.png	200.2794530391693	0.9374678134918213
110	124.422189950943	response	0	j		108.0	/experiments/knapen_aot/AOT/AOT_stimuli/pictures/0146_fw.png	201.20318984985352	
111	124.43592095375061	picture	0		174	109.0	/experiments/knapen_aot/AOT/AOT_stimuli/pictures/0570_fw.png	201.21692085266113	1.4583470821380615
111	125.88042902946472	response	0	k		109.0	/experiments/knapen_aot/AOT/AOT_stimuli/pictures/0570_fw.png	202.66142892837524	
112	125.89426803588867	picture	0		194	110.0	/experiments/knapen_aot/AOT/AOT_stimuli/pictures/2103_fw.png	202.6752679347992	1.6277849674224854
112	127.50546503067017	response	0	j		110.0	/experiments/knapen_aot/AOT/AOT_stimuli/pictures/2103_fw.png	204.2864649295807	
113	127.52205300331116	picture	0		102	111.0	/experiments/knapen_aot/AOT/AOT_stimuli/pictures/0614_fw.png	204.30305290222168	0.8513531684875488
113	128.36381006240845	response	0	j		111.0	/experiments/knapen_aot/AOT/AOT_stimuli/pictures/0614_fw.png	205.14480996131897	
114	128.3734061717987	picture	0		174	112.0	/experiments/knapen_aot/AOT/AOT_stimuli/pictures/1178_fw.png	205.15440607070923	1.4514009952545166
114	129.8138029575348	response	0	k		112.0	/experiments/knapen_aot/AOT/AOT_stimuli/pictures/1178_fw.png	206.5948028564453	
115	129.82480716705322	picture	0		157	113.0	/experiments/knapen_aot/AOT/AOT_stimuli/pictures/1714_fw.png	206.60580706596375	1.305534839630127
115	131.12207698822021	response	0	k		113.0	/experiments/knapen_aot/AOT/AOT_stimuli/pictures/1714_fw.png	207.90307688713074	
116	131.13034200668335	picture	0		91	114.0	/experiments/knapen_aot/AOT/AOT_stimuli/pictures/1248_fw.png	207.91134190559387	0.7639000415802002
116	131.8804371356964	response	0	j		114.0	/experiments/knapen_aot/AOT/AOT_stimuli/pictures/1248_fw.png	208.66143703460693	
117	131.89424204826355	picture	0		73	115.0	/experiments/knapen_aot/AOT/AOT_stimuli/pictures/0117_fw.png	208.67524194717407	0.611090898513794
117	132.49708914756775	response	0	k		115.0	/experiments/knapen_aot/AOT/AOT_stimuli/pictures/0117_fw.png	209.27808904647827	
118	132.50533294677734	picture	0		142	116.0	/experiments/knapen_aot/AOT/AOT_stimuli/pictures/1485_fw.png	209.28633284568787	1.1875901222229004
118	133.68041706085205	response	0	k		116.0	/experiments/knapen_aot/AOT/AOT_stimuli/pictures/1485_fw.png	210.46141695976257	
119	133.69292306900024	picture	0		99	117.0	/experiments/knapen_aot/AOT/AOT_stimuli/pictures/1050_fw.png	210.47392296791077	0.8331871032714844
119	134.51373505592346	response	0	j		117.0	/experiments/knapen_aot/AOT/AOT_stimuli/pictures/1050_fw.png	211.29473495483398	
120	134.52611017227173	picture	0		92	118.0	/experiments/knapen_aot/AOT/AOT_stimuli/pictures/1965_fw.png	211.30711007118225	0.7708687782287598
120	135.2887749671936	response	0	k		118.0	/experiments/knapen_aot/AOT/AOT_stimuli/pictures/1965_fw.png	212.06977486610413	
121	135.2969789505005	picture	0		177	119.0	/experiments/knapen_aot/AOT/AOT_stimuli/pictures/0316_fw.png	212.077978849411	1.479180097579956
121	136.76376295089722	response	0	k		119.0	/experiments/knapen_aot/AOT/AOT_stimuli/pictures/0316_fw.png	213.54476284980774	
122	136.77615904808044	picture	0		152	120.0	/experiments/knapen_aot/AOT/AOT_stimuli/pictures/1436_fw.png	213.55715894699097	1.2791619300842285
122	138.0387749671936	response	0	j		120.0	/experiments/knapen_aot/AOT/AOT_stimuli/pictures/1436_fw.png	214.81977486610413	
123	138.05532097816467	picture	0		87	121.0	/experiments/knapen_aot/AOT/AOT_stimuli/pictures/1247_fw.png	214.8363208770752	0.7334389686584473
123	138.77209997177124	response	0	k		121.0	/experiments/knapen_aot/AOT/AOT_stimuli/pictures/1247_fw.png	215.55309987068176	
124	138.78875994682312	picture	0		101	122.0	/experiments/knapen_aot/AOT/AOT_stimuli/pictures/1438_fw.png	215.56975984573364	0.841529130935669
124	139.62212705612183	response	0	j		122.0	/experiments/knapen_aot/AOT/AOT_stimuli/pictures/1438_fw.png	216.40312695503235	
125	139.6302890777588	picture	0		131	123.0	/experiments/knapen_aot/AOT/AOT_stimuli/pictures/1807_fw.png	216.4112889766693	1.097174882888794
125	140.71376013755798	response	0	k		123.0	/experiments/knapen_aot/AOT/AOT_stimuli/pictures/1807_fw.png	217.4947600364685	
126	140.72746396064758	picture	0		147	124.0	/experiments/knapen_aot/AOT/AOT_stimuli/pictures/0571_fw.png	217.5084638595581	1.229140043258667
126	141.94708395004272	response	0	j		124.0	/experiments/knapen_aot/AOT/AOT_stimuli/pictures/0571_fw.png	218.72808384895325	
127	141.95660400390625	picture	0		377	125.0	/experiments/knapen_aot/AOT/AOT_stimuli/pictures/1607_fw.png	218.73760390281677	3.1458470821380615
127	145.08868718147278	response	0	k		125.0	/experiments/knapen_aot/AOT/AOT_stimuli/pictures/1607_fw.png	221.8696870803833	
128	145.1024510860443	picture	0		770	126.0	/experiments/knapen_aot/AOT/AOT_stimuli/pictures/1348_fw.png	221.88345098495483	6.423517942428589
128	151.51370000839233	response	0	k		126.0	/experiments/knapen_aot/AOT/AOT_stimuli/pictures/1348_fw.png	228.29469990730286	
129	151.5259690284729	picture	0		111	127.0	/experiments/knapen_aot/AOT/AOT_stimuli/pictures/1100_fw.png	228.30696892738342	0.9236149787902832
129	152.43865299224854	response	0	j		127.0	/experiments/knapen_aot/AOT/AOT_stimuli/pictures/1100_fw.png	229.21965289115906	
130	152.44958400726318	picture	0		105	128.0	/experiments/knapen_aot/AOT/AOT_stimuli/pictures/1212_fw.png	229.2305839061737	0.8749699592590332
130	153.3137400150299	response	0	j		128.0	/experiments/knapen_aot/AOT/AOT_stimuli/pictures/1212_fw.png	230.09473991394043	
131	153.32455396652222	picture	0		85	129.0	/experiments/knapen_aot/AOT/AOT_stimuli/pictures/1419_fw.png	230.10555386543274	0.7083711624145508
131	154.02204513549805	response	0	j		129.0	/experiments/knapen_aot/AOT/AOT_stimuli/pictures/1419_fw.png	230.80304503440857	
132	154.03292512893677	picture	0		110	130.0	/experiments/knapen_aot/AOT/AOT_stimuli/pictures/1448_fw.png	230.8139250278473	0.9166078567504883
132	154.93867707252502	response	0	k		130.0	/experiments/knapen_aot/AOT/AOT_stimuli/pictures/1448_fw.png	231.71967697143555	
133	154.94953298568726	picture	0		101	131.0	/experiments/knapen_aot/AOT/AOT_stimuli/pictures/1728_fw.png	231.73053288459778	0.8473970890045166
133	155.78034114837646	response	0	j		131.0	/experiments/knapen_aot/AOT/AOT_stimuli/pictures/1728_fw.png	232.561341047287	
134	155.79693007469177	picture	0		95	132.0	/experiments/knapen_aot/AOT/AOT_stimuli/pictures/0623_fw.png	232.5779299736023	0.7916610240936279
134	156.58033108711243	response	0	k		132.0	/experiments/knapen_aot/AOT/AOT_stimuli/pictures/0623_fw.png	233.36133098602295	
135	156.5885910987854	picture	0		245	133.0	/experiments/knapen_aot/AOT/AOT_stimuli/pictures/0188_fw.png	233.36959099769592	2.0499939918518066
135	158.62203311920166	response	0	j		133.0	/experiments/knapen_aot/AOT/AOT_stimuli/pictures/0188_fw.png	235.40303301811218	
136	158.6385850906372	picture	0		108	134.0	/experiments/knapen_aot/AOT/AOT_stimuli/pictures/1996_fw.png	235.41958498954773	0.9084339141845703
136	159.53035616874695	response	0	j		134.0	/experiments/knapen_aot/AOT/AOT_stimuli/pictures/1996_fw.png	236.31135606765747	
137	159.54701900482178	picture	0		99	135.0	/experiments/knapen_aot/AOT/AOT_stimuli/pictures/0348_fw.png	236.3280189037323	0.8260509967803955
137	160.36367416381836	response	0	j		135.0	/experiments/knapen_aot/AOT/AOT_stimuli/pictures/0348_fw.png	237.14467406272888	
138	160.37307000160217	picture	0		95	136.0	/experiments/knapen_aot/AOT/AOT_stimuli/pictures/0860_fw.png	237.1540699005127	0.7917201519012451
138	161.15532302856445	response	0	j		136.0	/experiments/knapen_aot/AOT/AOT_stimuli/pictures/0860_fw.png	237.93632292747498	
139	161.16479015350342	picture	0		92	137.0	/experiments/knapen_aot/AOT/AOT_stimuli/pictures/1976_fw.png	237.94579005241394	0.7707879543304443
139	161.92198514938354	response	0	j		137.0	/experiments/knapen_aot/AOT/AOT_stimuli/pictures/1976_fw.png	238.70298504829407	
140	161.93557810783386	picture	0		502	138.0	/experiments/knapen_aot/AOT/AOT_stimuli/pictures/0945_fw.png	238.71657800674438	4.1875410079956055
140	166.11365604400635	response	0	k		138.0	/experiments/knapen_aot/AOT/AOT_stimuli/pictures/0945_fw.png	242.89465594291687	
141	166.12311911582947	picture	0		110	139.0	/experiments/knapen_aot/AOT/AOT_stimuli/pictures/1774_fw.png	242.90411901474	0.9166040420532227
141	167.0302860736847	response	0	j		139.0	/experiments/knapen_aot/AOT/AOT_stimuli/pictures/1774_fw.png	243.81128597259521	
142	167.0397231578827	picture	0		95	140.0	/experiments/knapen_aot/AOT/AOT_stimuli/pictures/0879_fw.png	243.8207230567932	0.7916038036346436
142	167.8219850063324	response	0	j		140.0	/experiments/knapen_aot/AOT/AOT_stimuli/pictures/0879_fw.png	244.60298490524292	
143	167.83132696151733	picture	0		91	141.0	/experiments/knapen_aot/AOT/AOT_stimuli/pictures/0210_fw.png	244.61232686042786	0.7655880451202393
143	168.58026909828186	response	0	k		141.0	/experiments/knapen_aot/AOT/AOT_stimuli/pictures/0210_fw.png	245.36126899719238	
144	168.59691500663757	picture	0		242	142.0	/experiments/knapen_aot/AOT/AOT_stimuli/pictures/1032_fw.png	245.3779149055481	2.0192291736602783
144	170.6053020954132	response	0	k		142.0	/experiments/knapen_aot/AOT/AOT_stimuli/pictures/1032_fw.png	247.38630199432373	
145	170.61614418029785	picture	0		94	143.0	/experiments/knapen_aot/AOT/AOT_stimuli/pictures/2034_fw.png	247.39714407920837	0.7846179008483887
145	171.3885941505432	response	0	k		143.0	/experiments/knapen_aot/AOT/AOT_stimuli/pictures/2034_fw.png	248.16959404945374	
146	171.40076208114624	picture	0		84	144.0	/experiments/knapen_aot/AOT/AOT_stimuli/pictures/1318_fw.png	248.18176198005676	0.7013890743255615
146	172.08859205245972	response	0	j		144.0	/experiments/knapen_aot/AOT/AOT_stimuli/pictures/1318_fw.png	248.86959195137024	
147	172.1021511554718	picture	0		104	145.0	/experiments/knapen_aot/AOT/AOT_stimuli/pictures/0189_fw.png	248.88315105438232	0.8749639987945557
147	172.96359300613403	response	0	k		145.0	/experiments/knapen_aot/AOT/AOT_stimuli/pictures/0189_fw.png	249.74459290504456	
148	172.97711515426636	picture	0		87	146.0	/experiments/knapen_aot/AOT/AOT_stimuli/pictures/2177_fw.png	249.75811505317688	0.7364039421081543
148	173.69013905525208	response	0	j		146.0	/experiments/knapen_aot/AOT/AOT_stimuli/pictures/2177_fw.png	250.4711389541626	
149	173.7135190963745	picture	0		236	147.0	/experiments/knapen_aot/AOT/AOT_stimuli/pictures/0498_fw.png	250.49451899528503	1.9749770164489746
149	175.6651029586792	response	0	j		147.0	/experiments/knapen_aot/AOT/AOT_stimuli/pictures/0498_fw.png	252.44610285758972	
150	175.6884961128235	picture	0		115	148.0	/experiments/knapen_aot/AOT/AOT_stimuli/pictures/0631_fw.png	252.469496011734	0.9623000621795654
150	176.63859605789185	response	0	j		148.0	/experiments/knapen_aot/AOT/AOT_stimuli/pictures/0631_fw.png	253.41959595680237	
151	176.65079617500305	picture	0		103	149.0	/experiments/knapen_aot/AOT/AOT_stimuli/pictures/1586_fw.png	253.43179607391357	0.8680708408355713
151	177.50519800186157	response	0	j		149.0	/experiments/knapen_aot/AOT/AOT_stimuli/pictures/1586_fw.png	254.2861979007721	
152	177.51886701583862	picture	0		120	150.0	/experiments/knapen_aot/AOT/AOT_stimuli/pictures/1166_fw.png	254.29986691474915	1.0068070888519287
152	178.5135681629181	response	0	k		150.0	/experiments/knapen_aot/AOT/AOT_stimuli/pictures/1166_fw.png	255.2945680618286	
153	178.52567410469055	picture	0		146	151.0	/experiments/knapen_aot/AOT/AOT_stimuli/pictures/0131_fw.png	255.30667400360107	1.2211580276489258
153	179.73025798797607	response	0	j		151.0	/experiments/knapen_aot/AOT/AOT_stimuli/pictures/0131_fw.png	256.5112578868866	
154	179.74683213233948	picture	0		132	152.0	/experiments/knapen_aot/AOT/AOT_stimuli/pictures/1919_fw.png	256.52783203125	1.1052658557891846
154	180.8385729789734	response	0	k		152.0	/experiments/knapen_aot/AOT/AOT_stimuli/pictures/1919_fw.png	257.6195728778839	
155	180.85209798812866	picture	0		98	153.0	/experiments/knapen_aot/AOT/AOT_stimuli/pictures/0773_fw.png	257.6330978870392	0.8196921348571777
155	181.65683007240295	response	0	k		153.0	/experiments/knapen_aot/AOT/AOT_stimuli/pictures/0773_fw.png	258.4378299713135	
156	181.67179012298584	picture	0		145	154.0	/experiments/knapen_aot/AOT/AOT_stimuli/pictures/0122_fw.png	258.45279002189636	1.2166919708251953
156	182.865149974823	response	0	k		154.0	/experiments/knapen_aot/AOT/AOT_stimuli/pictures/0122_fw.png	259.6461498737335	
157	182.88848209381104	picture	0		87	155.0	/experiments/knapen_aot/AOT/AOT_stimuli/pictures/1074_fw.png	259.66948199272156	0.72747802734375
157	183.60526609420776	response	0	j		155.0	/experiments/knapen_aot/AOT/AOT_stimuli/pictures/1074_fw.png	260.3862659931183	
158	183.61596012115479	picture	0		242	156.0	/experiments/knapen_aot/AOT/AOT_stimuli/pictures/1684_fw.png	260.3969600200653	2.0208089351654053
158	185.62199211120605	response	0	j		156.0	/experiments/knapen_aot/AOT/AOT_stimuli/pictures/1684_fw.png	262.4029920101166	
159	185.6367690563202	picture	0		97	157.0	/experiments/knapen_aot/AOT/AOT_stimuli/pictures/0228_fw.png	262.4177689552307	0.812493085861206
159	186.43856501579285	response	0	k		157.0	/experiments/knapen_aot/AOT/AOT_stimuli/pictures/0228_fw.png	263.21956491470337	
160	186.4492621421814	picture	0		127	158.0	/experiments/knapen_aot/AOT/AOT_stimuli/pictures/2033_fw.png	263.2302620410919	1.05582594871521
160	187.4900460243225	response	0	k		158.0	/experiments/knapen_aot/AOT/AOT_stimuli/pictures/2033_fw.png	264.27104592323303	
161	187.5050880908966	picture	0		175	159.0	/experiments/knapen_aot/AOT/AOT_stimuli/pictures/0088_fw.png	264.28608798980713	1.4666788578033447
161	188.95514297485352	response	0	j		159.0	/experiments/knapen_aot/AOT/AOT_stimuli/pictures/0088_fw.png	265.73614287376404	
162	188.97176694869995	picture	0		199	160.0	/experiments/knapen_aot/AOT/AOT_stimuli/pictures/0829_fw.png	265.7527668476105	1.6667060852050781
162	190.62199211120605	response	0	k		160.0	/experiments/knapen_aot/AOT/AOT_stimuli/pictures/0829_fw.png	267.4029920101166	
163	190.63847303390503	picture	0		127	161.0	/experiments/knapen_aot/AOT/AOT_stimuli/pictures/1803_fw.png	267.41947293281555	1.0607120990753174
163	191.68173718452454	response	0	k		161.0	/experiments/knapen_aot/AOT/AOT_stimuli/pictures/1803_fw.png	268.46273708343506	
164	191.69918513298035	picture	0		234	162.0	/experiments/knapen_aot/AOT/AOT_stimuli/pictures/1773_fw.png	268.48018503189087	1.9559659957885742
164	193.6385691165924	response	0	k		162.0	/experiments/knapen_aot/AOT/AOT_stimuli/pictures/1773_fw.png	270.41956901550293	
165	193.65515112876892	picture	0		120	163.0	/experiments/knapen_aot/AOT/AOT_stimuli/pictures/0052_fw.png	270.43615102767944	1.0023448467254639
165	194.6468391418457	response	0	k		163.0	/experiments/knapen_aot/AOT/AOT_stimuli/pictures/0052_fw.png	271.4278390407562	
166	194.65749597549438	picture	0		114	164.0	/experiments/knapen_aot/AOT/AOT_stimuli/pictures/1402_fw.png	271.4384958744049	0.9513521194458008
166	195.59681701660156	response	0	j		164.0	/experiments/knapen_aot/AOT/AOT_stimuli/pictures/1402_fw.png	272.3778169155121	
167	195.60884809494019	picture	0		90	165.0	/experiments/knapen_aot/AOT/AOT_stimuli/pictures/0643_fw.png	272.3898479938507	0.7500519752502441
167	196.3468141555786	response	0	j		165.0	/experiments/knapen_aot/AOT/AOT_stimuli/pictures/0643_fw.png	273.12781405448914	
168	196.35890007019043	picture	0		101	166.0	/experiments/knapen_aot/AOT/AOT_stimuli/pictures/1993_fw.png	273.13989996910095	0.8471848964691162
168	197.1968231201172	response	0	k		166.0	/experiments/knapen_aot/AOT/AOT_stimuli/pictures/1993_fw.png	273.9778230190277	
169	197.20608496665955	picture	0		104	167.0	/experiments/knapen_aot/AOT/AOT_stimuli/pictures/1099_fw.png	273.98708486557007	0.8680760860443115
169	198.063472032547	response	0	j		167.0	/experiments/knapen_aot/AOT/AOT_stimuli/pictures/1099_fw.png	274.8444719314575	
170	198.07416105270386	picture	0		130	168.0	/experiments/knapen_aot/AOT/AOT_stimuli/pictures/1055_fw.png	274.8551609516144	1.0832839012145996
170	199.146831035614	response	0	k		168.0	/experiments/knapen_aot/AOT/AOT_stimuli/pictures/1055_fw.png	275.92783093452454	
171	199.15744495391846	picture	0		176	169.0	/experiments/knapen_aot/AOT/AOT_stimuli/pictures/1654_fw.png	275.938444852829	1.465299129486084
171	200.61342906951904	response	0	j		169.0	/experiments/knapen_aot/AOT/AOT_stimuli/pictures/1654_fw.png	277.39442896842957	
172	200.62274408340454	picture	0		199	170.0	/experiments/knapen_aot/AOT/AOT_stimuli/pictures/0238_fw.png	277.40374398231506	1.6597390174865723
172	202.2718300819397	response	0	k		170.0	/experiments/knapen_aot/AOT/AOT_stimuli/pictures/0238_fw.png	279.0528299808502	
173	202.2824831008911	picture	0		97	171.0	/experiments/knapen_aot/AOT/AOT_stimuli/pictures/0705_fw.png	279.06348299980164	0.8142070770263672
173	203.0733561515808	response	0	k		171.0	/experiments/knapen_aot/AOT/AOT_stimuli/pictures/0705_fw.png	279.85435605049133	
174	203.09669017791748	picture	0		132	172.0	/experiments/knapen_aot/AOT/AOT_stimuli/pictures/1879_fw.png	279.877690076828	1.102376937866211
174	204.18844318389893	response	0	k		172.0	/experiments/knapen_aot/AOT/AOT_stimuli/pictures/1879_fw.png	280.96944308280945	
175	204.1990671157837	picture	0		141	173.0	/experiments/knapen_aot/AOT/AOT_stimuli/pictures/0327_fw.png	280.9800670146942	1.173637866973877
175	205.36347103118896	response	0	k		173.0	/experiments/knapen_aot/AOT/AOT_stimuli/pictures/0327_fw.png	282.1444709300995	
176	205.37270498275757	picture	0		120	174.0	/experiments/knapen_aot/AOT/AOT_stimuli/pictures/2101_fw.png	282.1537048816681	0.999953031539917
176	206.36351203918457	response	0	j		174.0	/experiments/knapen_aot/AOT/AOT_stimuli/pictures/2101_fw.png	283.1445119380951	
177	206.37265801429749	picture	0		95	175.0	/experiments/knapen_aot/AOT/AOT_stimuli/pictures/0852_fw.png	283.153657913208	0.7916960716247559
177	207.1550691127777	response	0	j		175.0	/experiments/knapen_aot/AOT/AOT_stimuli/pictures/0852_fw.png	283.93606901168823	
178	207.16435408592224	picture	0		113	176.0	/experiments/knapen_aot/AOT/AOT_stimuli/pictures/1806_fw.png	283.94535398483276	0.9444420337677002
178	208.08999609947205	response	0	k		176.0	/experiments/knapen_aot/AOT/AOT_stimuli/pictures/1806_fw.png	284.87099599838257	
179	208.10879611968994	picture	0		117	177.0	/experiments/knapen_aot/AOT/AOT_stimuli/pictures/1734_fw.png	284.88979601860046	0.9721548557281494
179	209.0718071460724	response	0	j		177.0	/experiments/knapen_aot/AOT/AOT_stimuli/pictures/1734_fw.png	285.8528070449829	
180	209.0809509754181	picture	0		90	178.0	/experiments/knapen_aot/AOT/AOT_stimuli/pictures/0482_fw.png	285.8619508743286	0.7500472068786621
180	209.8218331336975	response	0	j		178.0	/experiments/knapen_aot/AOT/AOT_stimuli/pictures/0482_fw.png	286.60283303260803	
181	209.83099818229675	picture	0		116	179.0	/experiments/knapen_aot/AOT/AOT_stimuli/pictures/1320_fw.png	286.6119980812073	0.9657118320465088
181	210.78846502304077	response	0	j		179.0	/experiments/knapen_aot/AOT/AOT_stimuli/pictures/1320_fw.png	287.5694649219513	
182	210.79671001434326	stim	0		103			287.5777099132538	0.8606531620025635
182	211.64674615859985	response	0	space				288.4277460575104	
