trial_nr	onset	event_type	phase	response	nr_frames	picture_index	picture_file	onset_abs	duration
0	0.1583540439605713	stim	0		772			83.1013720035553	6.4579150676727295
0	6.591324090957642	response	0	space				89.53434205055237	
2	6.616269111633301	picture	0		306	0.0	/experiments/knapen_aot/AOT/AOT_stimuli/pictures/0668_fw.png	89.55928707122803	2.554986000061035
2	9.157999992370605	response	0	j		0.0	/experiments/knapen_aot/AOT/AOT_stimuli/pictures/0668_fw.png	92.10101795196533	
3	9.171255111694336	picture	0		119	1.0	/experiments/knapen_aot/AOT/AOT_stimuli/pictures/0277_fw.png	92.11427307128906	1.0000839233398438
3	10.157994985580444	response	0	k		1.0	/experiments/knapen_aot/AOT/AOT_stimuli/pictures/0277_fw.png	93.10101294517517	
4	10.17133903503418	picture	0		142	2.0	/experiments/knapen_aot/AOT/AOT_stimuli/pictures/0340_fw.png	93.1143569946289	1.1873779296875
4	11.349733114242554	response	0	k		2.0	/experiments/knapen_aot/AOT/AOT_stimuli/pictures/0340_fw.png	94.29275107383728	
5	11.35871696472168	picture	0		108	3.0	/experiments/knapen_aot/AOT/AOT_stimuli/pictures/0209_fw.png	94.3017349243164	0.9027950763702393
5	12.242828130722046	response	0	j		3.0	/experiments/knapen_aot/AOT/AOT_stimuli/pictures/0209_fw.png	95.18584609031677	
6	12.261512041091919	picture	0		90	4.0	/experiments/knapen_aot/AOT/AOT_stimuli/pictures/0023_fw.png	95.20453000068665	0.7499649524688721
6	12.999696016311646	response	0	j		4.0	/experiments/knapen_aot/AOT/AOT_stimuli/pictures/0023_fw.png	95.94271397590637	
7	13.011476993560791	picture	0		792	5.0	/experiments/knapen_aot/AOT/AOT_stimuli/pictures/0242_fw.png	95.95449495315552	6.597186088562012
7	19.59960103034973	response	0	k		5.0	/experiments/knapen_aot/AOT/AOT_stimuli/pictures/0242_fw.png	102.54261898994446	
8	19.608663082122803	picture	0		296	6.0	/experiments/knapen_aot/AOT/AOT_stimuli/pictures/0290_fw.png	102.55168104171753	2.474189043045044
8	22.067059993743896	response	0	k		6.0	/experiments/knapen_aot/AOT/AOT_stimuli/pictures/0290_fw.png	105.01007795333862	
9	22.082852125167847	picture	0		199	7.0	/experiments/knapen_aot/AOT/AOT_stimuli/pictures/0640_fw.png	105.02587008476257	1.6666779518127441
9	23.733747959136963	response	0	k		7.0	/experiments/knapen_aot/AOT/AOT_stimuli/pictures/0640_fw.png	106.67676591873169	
10	23.74953007698059	picture	0		86	8.0	/experiments/knapen_aot/AOT/AOT_stimuli/pictures/0065_fw.png	106.69254803657532	0.7250020503997803
10	24.451099157333374	response	0	j		8.0	/experiments/knapen_aot/AOT/AOT_stimuli/pictures/0065_fw.png	107.3941171169281	
11	24.47453212738037	picture	0		106	9.0	/experiments/knapen_aot/AOT/AOT_stimuli/pictures/0393_fw.png	107.4175500869751	0.8840939998626709
11	25.349584102630615	response	0	k		9.0	/experiments/knapen_aot/AOT/AOT_stimuli/pictures/0393_fw.png	108.29260206222534	
12	25.358626127243042	picture	0		82	10.0	/experiments/knapen_aot/AOT/AOT_stimuli/pictures/1492_fw.png	108.30164408683777	0.6876089572906494
12	26.026875019073486	response	0	j		10.0	/experiments/knapen_aot/AOT/AOT_stimuli/pictures/1492_fw.png	108.96989297866821	
13	26.04623508453369	picture	0		137	11.0	/experiments/knapen_aot/AOT/AOT_stimuli/pictures/0932_fw.png	108.98925304412842	1.145646095275879
13	27.182849168777466	response	0	k		11.0	/experiments/knapen_aot/AOT/AOT_stimuli/pictures/0932_fw.png	110.12586712837219	
14	27.19188117980957	picture	0		127	12.0	/experiments/knapen_aot/AOT/AOT_stimuli/pictures/1303_fw.png	110.1348991394043	1.062591791152954
14	28.23519802093506	response	0	k		12.0	/experiments/knapen_aot/AOT/AOT_stimuli/pictures/1303_fw.png	111.17821598052979	
15	28.254472970962524	picture	0		106	13.0	/experiments/knapen_aot/AOT/AOT_stimuli/pictures/0144_fw.png	111.19749093055725	0.8961920738220215
15	29.132905960083008	response	0	j		13.0	/experiments/knapen_aot/AOT/AOT_stimuli/pictures/0144_fw.png	112.07592391967773	
16	29.150665044784546	picture	0		116	14.0	/experiments/knapen_aot/AOT/AOT_stimuli/pictures/0141_fw.png	112.09368300437927	0.9738409519195557
16	30.108713150024414	response	0	k		14.0	/experiments/knapen_aot/AOT/AOT_stimuli/pictures/0141_fw.png	113.05173110961914	
17	30.1245059967041	picture	0		126	15.0	/experiments/knapen_aot/AOT/AOT_stimuli/pictures/0103_fw.png	113.06752395629883	1.0534770488739014
17	31.1662859916687	response	0	k		15.0	/experiments/knapen_aot/AOT/AOT_stimuli/pictures/0103_fw.png	114.10930395126343	
18	31.177983045578003	picture	0		110	16.0	/experiments/knapen_aot/AOT/AOT_stimuli/pictures/0364_fw.png	114.12100100517273	0.9166750907897949
18	32.07609701156616	response	0	j		16.0	/experiments/knapen_aot/AOT/AOT_stimuli/pictures/0364_fw.png	115.01911497116089	
19	32.0946581363678	picture	0		118	17.0	/experiments/knapen_aot/AOT/AOT_stimuli/pictures/1024_fw.png	115.03767609596252	0.9881129264831543
19	33.067015171051025	response	0	k		17.0	/experiments/knapen_aot/AOT/AOT_stimuli/pictures/1024_fw.png	116.01003313064575	
20	33.08277106285095	picture	0		262	18.0	/experiments/knapen_aot/AOT/AOT_stimuli/pictures/1110_fw.png	116.02578902244568	2.1854560375213623
20	35.25104808807373	response	0	j		18.0	/experiments/knapen_aot/AOT/AOT_stimuli/pictures/1110_fw.png	118.19406604766846	
21	35.268227100372314	picture	0		98	19.0	/experiments/knapen_aot/AOT/AOT_stimuli/pictures/1844_fw.png	118.21124505996704	0.819472074508667
21	36.068418979644775	response	0	j		19.0	/experiments/knapen_aot/AOT/AOT_stimuli/pictures/1844_fw.png	119.0114369392395	
22	36.08769917488098	picture	0		132	20.0	/experiments/knapen_aot/AOT/AOT_stimuli/pictures/1962_fw.png	119.03071713447571	1.104083776473999
22	37.18283796310425	response	0	j		20.0	/experiments/knapen_aot/AOT/AOT_stimuli/pictures/1962_fw.png	120.12585592269897	
23	37.19178295135498	picture	0		172	21.0	/experiments/knapen_aot/AOT/AOT_stimuli/pictures/1316_fw.png	120.1348009109497	1.4411351680755615
23	38.616204023361206	response	0	k		21.0	/experiments/knapen_aot/AOT/AOT_stimuli/pictures/1316_fw.png	121.55922198295593	
24	38.63291811943054	picture	0		718	22.0	/experiments/knapen_aot/AOT/AOT_stimuli/pictures/2091_fw.png	121.57593607902527	5.991621971130371
24	44.60854506492615	response	0	j		22.0	/experiments/knapen_aot/AOT/AOT_stimuli/pictures/2091_fw.png	127.55156302452087	
25	44.62454009056091	picture	0		171	23.0	/experiments/knapen_aot/AOT/AOT_stimuli/pictures/1429_fw.png	127.56755805015564	1.4283599853515625
25	46.04117703437805	response	0	j		23.0	/experiments/knapen_aot/AOT/AOT_stimuli/pictures/1429_fw.png	128.98419499397278	
26	46.052900075912476	picture	0		82	24.0	/experiments/knapen_aot/AOT/AOT_stimuli/pictures/2066_fw.png	128.9959180355072	0.6882269382476807
26	46.72455811500549	response	0	j		24.0	/experiments/knapen_aot/AOT/AOT_stimuli/pictures/2066_fw.png	129.66757607460022	
27	46.741127014160156	picture	0		86	25.0	/experiments/knapen_aot/AOT/AOT_stimuli/pictures/0140_fw.png	129.68414497375488	0.7214090824127197
27	47.44336795806885	response	0	j		25.0	/experiments/knapen_aot/AOT/AOT_stimuli/pictures/0140_fw.png	130.38638591766357	
28	47.462536096572876	picture	0		197	26.0	/experiments/knapen_aot/AOT/AOT_stimuli/pictures/1128_fw.png	130.4055540561676	1.6458449363708496
28	49.09948396682739	response	0	j		26.0	/experiments/knapen_aot/AOT/AOT_stimuli/pictures/1128_fw.png	132.04250192642212	
29	49.108381032943726	picture	0		173	27.0	/experiments/knapen_aot/AOT/AOT_stimuli/pictures/0806_fw.png	132.05139899253845	1.4444241523742676
29	50.54115605354309	response	0	j		27.0	/experiments/knapen_aot/AOT/AOT_stimuli/pictures/0806_fw.png	133.48417401313782	
30	50.55280518531799	picture	0		109	28.0	/experiments/knapen_aot/AOT/AOT_stimuli/pictures/1584_fw.png	133.49582314491272	0.9097108840942383
30	51.443339109420776	response	0	j		28.0	/experiments/knapen_aot/AOT/AOT_stimuli/pictures/1584_fw.png	134.3863570690155	
31	51.46251606941223	picture	0		131	29.0	/experiments/knapen_aot/AOT/AOT_stimuli/pictures/0621_fw.png	134.40553402900696	1.0971789360046387
31	52.549474000930786	response	0	j		29.0	/experiments/knapen_aot/AOT/AOT_stimuli/pictures/0621_fw.png	135.4924919605255	
32	52.55969500541687	picture	0		145	30.0	/experiments/knapen_aot/AOT/AOT_stimuli/pictures/1737_fw.png	135.5027129650116	1.2083520889282227
32	53.75780200958252	response	0	j		30.0	/experiments/knapen_aot/AOT/AOT_stimuli/pictures/1737_fw.png	136.70081996917725	
33	53.76804709434509	picture	0		149	31.0	/experiments/knapen_aot/AOT/AOT_stimuli/pictures/1885_fw.png	136.71106505393982	1.243027925491333
33	54.999454975128174	response	0	j		31.0	/experiments/knapen_aot/AOT/AOT_stimuli/pictures/1885_fw.png	137.9424729347229	
34	55.011075019836426	picture	0		147	32.0	/experiments/knapen_aot/AOT/AOT_stimuli/pictures/0990_fw.png	137.95409297943115	1.222231149673462
34	56.22445607185364	response	0	k		32.0	/experiments/knapen_aot/AOT/AOT_stimuli/pictures/0990_fw.png	139.16747403144836	
35	56.23330616950989	picture	0		175	33.0	/experiments/knapen_aot/AOT/AOT_stimuli/pictures/0514_fw.png	139.17632412910461	1.4583439826965332
35	57.67602300643921	response	0	j		33.0	/experiments/knapen_aot/AOT/AOT_stimuli/pictures/0514_fw.png	140.61904096603394	
36	57.69165015220642	picture	0		194	34.0	/experiments/knapen_aot/AOT/AOT_stimuli/pictures/0738_fw.png	140.63466811180115	1.6243698596954346
36	59.292665004730225	response	0	k		34.0	/experiments/knapen_aot/AOT/AOT_stimuli/pictures/0738_fw.png	142.23568296432495	
37	59.316020011901855	picture	0		279	35.0	/experiments/knapen_aot/AOT/AOT_stimuli/pictures/0653_fw.png	142.25903797149658	2.326993942260742
37	61.632814168930054	response	0	k		35.0	/experiments/knapen_aot/AOT/AOT_stimuli/pictures/0653_fw.png	144.57583212852478	
38	61.6430139541626	picture	0		148	36.0	/experiments/knapen_aot/AOT/AOT_stimuli/pictures/2147_fw.png	144.58603191375732	1.2360680103302002
38	62.86006999015808	response	0	j		36.0	/experiments/knapen_aot/AOT/AOT_stimuli/pictures/2147_fw.png	145.8030879497528	
39	62.8790819644928	picture	0		89	37.0	/experiments/knapen_aot/AOT/AOT_stimuli/pictures/0357_fw.png	145.82209992408752	0.7500150203704834
39	63.61606001853943	response	0	j		37.0	/experiments/knapen_aot/AOT/AOT_stimuli/pictures/0357_fw.png	146.55907797813416	
40	63.62909698486328	picture	0		88	38.0	/experiments/knapen_aot/AOT/AOT_stimuli/pictures/0915_fw.png	146.572114944458	0.7454261779785156
40	64.35837316513062	response	0	j		38.0	/experiments/knapen_aot/AOT/AOT_stimuli/pictures/0915_fw.png	147.30139112472534	
41	64.3745231628418	picture	0		147	39.0	/experiments/knapen_aot/AOT/AOT_stimuli/pictures/0906_fw.png	147.31754112243652	1.2267417907714844
41	65.59106707572937	response	0	k		39.0	/experiments/knapen_aot/AOT/AOT_stimuli/pictures/0906_fw.png	148.5340850353241	
42	65.60126495361328	picture	0		128	40.0	/experiments/knapen_aot/AOT/AOT_stimuli/pictures/2167_fw.png	148.544282913208	1.0730550289154053
42	66.65159702301025	response	0	k		40.0	/experiments/knapen_aot/AOT/AOT_stimuli/pictures/2167_fw.png	149.59461498260498	
43	66.67431998252869	picture	0		108	41.0	/experiments/knapen_aot/AOT/AOT_stimuli/pictures/1423_fw.png	149.6173379421234	0.9084551334381104
43	67.56666803359985	response	0	k		41.0	/experiments/knapen_aot/AOT/AOT_stimuli/pictures/1423_fw.png	150.50968599319458	
44	67.5827751159668	picture	0		84	42.0	/experiments/knapen_aot/AOT/AOT_stimuli/pictures/1281_fw.png	150.52579307556152	0.7059650421142578
44	68.26759696006775	response	0	j		42.0	/experiments/knapen_aot/AOT/AOT_stimuli/pictures/1281_fw.png	151.21061491966248	
45	68.28874015808105	picture	0		116	43.0	/experiments/knapen_aot/AOT/AOT_stimuli/pictures/1585_fw.png	151.23175811767578	0.9722278118133545
45	69.24942803382874	response	0	j		43.0	/experiments/knapen_aot/AOT/AOT_stimuli/pictures/1585_fw.png	152.19244599342346	
46	69.26096796989441	picture	0		106	44.0	/experiments/knapen_aot/AOT/AOT_stimuli/pictures/0431_fw.png	152.20398592948914	0.8819379806518555
46	70.13275218009949	response	0	j		44.0	/experiments/knapen_aot/AOT/AOT_stimuli/pictures/0431_fw.png	153.0757701396942	
47	70.14290595054626	picture	0		109	45.0	/experiments/knapen_aot/AOT/AOT_stimuli/pictures/1212_fw.png	153.085923910141	0.9096660614013672
47	71.04107117652893	response	0	k		45.0	/experiments/knapen_aot/AOT/AOT_stimuli/pictures/1212_fw.png	153.98408913612366	
48	71.05257201194763	picture	0		127	46.0	/experiments/knapen_aot/AOT/AOT_stimuli/pictures/0841_fw.png	153.99558997154236	1.0556070804595947
48	72.09266996383667	response	0	j		46.0	/experiments/knapen_aot/AOT/AOT_stimuli/pictures/0841_fw.png	155.0356879234314	
49	72.10817909240723	picture	0		198	47.0	/experiments/knapen_aot/AOT/AOT_stimuli/pictures/1054_fw.png	155.05119705200195	1.652730941772461
49	73.74941205978394	response	0	k		47.0	/experiments/knapen_aot/AOT/AOT_stimuli/pictures/1054_fw.png	156.69243001937866	
50	73.76091003417969	picture	0		91	48.0	/experiments/knapen_aot/AOT/AOT_stimuli/pictures/0674_fw.png	156.7039279937744	0.7569570541381836
50	74.50093603134155	response	0	j		48.0	/experiments/knapen_aot/AOT/AOT_stimuli/pictures/0674_fw.png	157.44395399093628	
51	74.51786708831787	picture	0		94	49.0	/experiments/knapen_aot/AOT/AOT_stimuli/pictures/0675_fw.png	157.4608850479126	0.7847230434417725
51	75.28434896469116	response	0	j		49.0	/experiments/knapen_aot/AOT/AOT_stimuli/pictures/0675_fw.png	158.2273669242859	
52	75.30259013175964	picture	0		426	50.0	/experiments/knapen_aot/AOT/AOT_stimuli/pictures/2051_fw.png	158.24560809135437	3.548555850982666
52	78.84100794792175	response	0	k		50.0	/experiments/knapen_aot/AOT/AOT_stimuli/pictures/2051_fw.png	161.78402590751648	
53	78.85114598274231	picture	0		296	51.0	/experiments/knapen_aot/AOT/AOT_stimuli/pictures/1797_fw.png	161.79416394233704	2.4731101989746094
53	81.30774903297424	response	0	k		51.0	/experiments/knapen_aot/AOT/AOT_stimuli/pictures/1797_fw.png	164.25076699256897	
54	81.32425618171692	picture	0		90	52.0	/experiments/knapen_aot/AOT/AOT_stimuli/pictures/1420_fw.png	164.26727414131165	0.7560358047485352
54	82.06651210784912	response	0	j		52.0	/experiments/knapen_aot/AOT/AOT_stimuli/pictures/1420_fw.png	165.00953006744385	
55	82.08029198646545	picture	0		99	53.0	/experiments/knapen_aot/AOT/AOT_stimuli/pictures/1038_fw.png	165.02330994606018	0.8333680629730225
55	82.89982604980469	response	0	k		53.0	/experiments/knapen_aot/AOT/AOT_stimuli/pictures/1038_fw.png	165.8428440093994	
56	82.91366004943848	picture	0		114	54.0	/experiments/knapen_aot/AOT/AOT_stimuli/pictures/1148_fw.png	165.8566780090332	0.9583010673522949
56	83.85813999176025	response	0	k		54.0	/experiments/knapen_aot/AOT/AOT_stimuli/pictures/1148_fw.png	166.80115795135498	
57	83.87196111679077	picture	0		153	55.0	/experiments/knapen_aot/AOT/AOT_stimuli/pictures/0478_fw.png	166.8149790763855	1.277742862701416
57	85.1409649848938	response	0	k		55.0	/experiments/knapen_aot/AOT/AOT_stimuli/pictures/0478_fw.png	168.08398294448853	
58	85.14970397949219	picture	0		141	56.0	/experiments/knapen_aot/AOT/AOT_stimuli/pictures/0008_fw.png	168.0927219390869	1.1829981803894043
58	86.31654214859009	response	0	k		56.0	/experiments/knapen_aot/AOT/AOT_stimuli/pictures/0008_fw.png	169.25956010818481	
59	86.33270215988159	picture	0		608	57.0	/experiments/knapen_aot/AOT/AOT_stimuli/pictures/0887_fw.png	169.27572011947632	5.066945791244507
59	91.3910059928894	response	0	k		57.0	/experiments/knapen_aot/AOT/AOT_stimuli/pictures/0887_fw.png	174.33402395248413	
60	91.3996479511261	picture	0		98	58.0	/experiments/knapen_aot/AOT/AOT_stimuli/pictures/1574_fw.png	174.34266591072083	0.8193981647491455
60	92.2076370716095	response	0	j		58.0	/experiments/knapen_aot/AOT/AOT_stimuli/pictures/1574_fw.png	175.15065503120422	
61	92.21904611587524	picture	0		108	59.0	/experiments/knapen_aot/AOT/AOT_stimuli/pictures/1426_fw.png	175.16206407546997	0.905210018157959
61	93.10799503326416	response	0	j		59.0	/experiments/knapen_aot/AOT/AOT_stimuli/pictures/1426_fw.png	176.0510129928589	
62	93.1242561340332	picture	0		104	60.0	/experiments/knapen_aot/AOT/AOT_stimuli/pictures/0989_fw.png	176.06727409362793	0.8725440502166748
62	93.98308110237122	response	0	k		60.0	/experiments/knapen_aot/AOT/AOT_stimuli/pictures/0989_fw.png	176.92609906196594	
63	93.99680018424988	picture	0		107	61.0	/experiments/knapen_aot/AOT/AOT_stimuli/pictures/0964_fw.png	176.9398181438446	0.8958868980407715
63	94.87591814994812	response	0	j		61.0	/experiments/knapen_aot/AOT/AOT_stimuli/pictures/0964_fw.png	177.81893610954285	
64	94.89268708229065	picture	0		103	62.0	/experiments/knapen_aot/AOT/AOT_stimuli/pictures/0380_fw.png	177.83570504188538	0.8610320091247559
64	95.74095010757446	response	0	j		62.0	/experiments/knapen_aot/AOT/AOT_stimuli/pictures/0380_fw.png	178.6839680671692	
65	95.7537190914154	picture	0		107	63.0	/experiments/knapen_aot/AOT/AOT_stimuli/pictures/0311_fw.png	178.69673705101013	0.8889398574829102
65	96.63266897201538	response	0	j		63.0	/experiments/knapen_aot/AOT/AOT_stimuli/pictures/0311_fw.png	179.5756869316101	
66	96.64265894889832	picture	0		219	64.0	/experiments/knapen_aot/AOT/AOT_stimuli/pictures/2164_fw.png	179.58567690849304	1.8263270854949951
66	98.45757603645325	response	0	k		64.0	/experiments/knapen_aot/AOT/AOT_stimuli/pictures/2164_fw.png	181.40059399604797	
67	98.46898603439331	picture	0		267	65.0	/experiments/knapen_aot/AOT/AOT_stimuli/pictures/1575_fw.png	181.41200399398804	2.222252130508423
67	100.67579317092896	response	0	j		65.0	/experiments/knapen_aot/AOT/AOT_stimuli/pictures/1575_fw.png	183.61881113052368	
68	100.69123816490173	picture	0		306	66.0	/experiments/knapen_aot/AOT/AOT_stimuli/pictures/1850_fw.png	183.63425612449646	2.5555179119110107
68	103.23298001289368	response	0	j		66.0	/experiments/knapen_aot/AOT/AOT_stimuli/pictures/1850_fw.png	186.1759979724884	
69	103.24675607681274	picture	0		230	67.0	/experiments/knapen_aot/AOT/AOT_stimuli/pictures/0013_fw.png	186.18977403640747	1.9235739707946777
69	105.15761804580688	response	0	j		67.0	/experiments/knapen_aot/AOT/AOT_stimuli/pictures/0013_fw.png	188.1006360054016	
70	105.17033004760742	picture	0		94	68.0	/experiments/knapen_aot/AOT/AOT_stimuli/pictures/1689_fw.png	188.11334800720215	0.7847371101379395
70	105.94128108024597	response	0	k		68.0	/experiments/knapen_aot/AOT/AOT_stimuli/pictures/1689_fw.png	188.8842990398407	
71	105.95506715774536	picture	0		103	69.0	/experiments/knapen_aot/AOT/AOT_stimuli/pictures/0559_fw.png	188.8980851173401	0.8611049652099609
71	106.80757904052734	response	0	k		69.0	/experiments/knapen_aot/AOT/AOT_stimuli/pictures/0559_fw.png	189.75059700012207	
72	106.81617212295532	picture	0		85	70.0	/experiments/knapen_aot/AOT/AOT_stimuli/pictures/1852_fw.png	189.75919008255005	0.7083978652954102
72	107.50910711288452	response	0	j		70.0	/experiments/knapen_aot/AOT/AOT_stimuli/pictures/1852_fw.png	190.45212507247925	
73	107.52456998825073	picture	0		263	71.0	/experiments/knapen_aot/AOT/AOT_stimuli/pictures/1235_fw.png	190.46758794784546	2.1943230628967285
73	109.70080494880676	response	0	j		71.0	/experiments/knapen_aot/AOT/AOT_stimuli/pictures/1235_fw.png	192.6438229084015	
74	109.71889305114746	picture	0		133	72.0	/experiments/knapen_aot/AOT/AOT_stimuli/pictures/1683_fw.png	192.6619110107422	1.1112070083618164
74	110.816251039505	response	0	k		72.0	/experiments/knapen_aot/AOT/AOT_stimuli/pictures/1683_fw.png	193.75926899909973	
75	110.83010005950928	picture	0		106	73.0	/experiments/knapen_aot/AOT/AOT_stimuli/pictures/0814_fw.png	193.773118019104	0.8887460231781006
75	111.70093107223511	response	0	j		73.0	/experiments/knapen_aot/AOT/AOT_stimuli/pictures/0814_fw.png	194.64394903182983	
76	111.71884608268738	picture	0		128	74.0	/experiments/knapen_aot/AOT/AOT_stimuli/pictures/1058_fw.png	194.6618640422821	1.0694820880889893
76	112.77462315559387	response	0	k		74.0	/experiments/knapen_aot/AOT/AOT_stimuli/pictures/1058_fw.png	195.7176411151886	
77	112.78832817077637	picture	0		155	75.0	/experiments/knapen_aot/AOT/AOT_stimuli/pictures/0521_fw.png	195.7313461303711	1.2986218929290771
77	114.07420110702515	response	0	j		75.0	/experiments/knapen_aot/AOT/AOT_stimuli/pictures/0521_fw.png	197.01721906661987	
78	114.08695006370544	picture	0		189	76.0	/experiments/knapen_aot/AOT/AOT_stimuli/pictures/1676_fw.png	197.02996802330017	1.5763330459594727
78	115.64953398704529	response	0	j		76.0	/experiments/knapen_aot/AOT/AOT_stimuli/pictures/1676_fw.png	198.59255194664001	
79	115.66328310966492	picture	0		123	77.0	/experiments/knapen_aot/AOT/AOT_stimuli/pictures/2112_fw.png	198.60630106925964	1.0278120040893555
79	116.68250012397766	response	0	k		77.0	/experiments/knapen_aot/AOT/AOT_stimuli/pictures/2112_fw.png	199.6255180835724	
80	116.69109511375427	picture	0		205	78.0	/experiments/knapen_aot/AOT/AOT_stimuli/pictures/0876_fw.png	199.634113073349	1.7083399295806885
80	118.39089703559875	response	0	k		78.0	/experiments/knapen_aot/AOT/AOT_stimuli/pictures/0876_fw.png	201.33391499519348	
81	118.39943504333496	picture	0		122	79.0	/experiments/knapen_aot/AOT/AOT_stimuli/pictures/1874_fw.png	201.3424530029297	1.0207910537719727
81	119.40749502182007	response	0	j		79.0	/experiments/knapen_aot/AOT/AOT_stimuli/pictures/1874_fw.png	202.3505129814148	
82	119.42022609710693	picture	0		104	80.0	/experiments/knapen_aot/AOT/AOT_stimuli/pictures/0028_fw.png	202.36324405670166	0.8749969005584717
82	120.2825059890747	response	0	j		80.0	/experiments/knapen_aot/AOT/AOT_stimuli/pictures/0028_fw.png	203.22552394866943	
83	120.2952229976654	picture	0		142	81.0	/experiments/knapen_aot/AOT/AOT_stimuli/pictures/0087_fw.png	203.23824095726013	1.1805140972137451
83	121.46587014198303	response	0	k		81.0	/experiments/knapen_aot/AOT/AOT_stimuli/pictures/0087_fw.png	204.40888810157776	
84	121.47573709487915	picture	0		142	82.0	/experiments/knapen_aot/AOT/AOT_stimuli/pictures/0676_fw.png	204.41875505447388	1.1875169277191162
84	122.64944911003113	response	0	k		82.0	/experiments/knapen_aot/AOT/AOT_stimuli/pictures/0676_fw.png	205.59246706962585	
85	122.66325402259827	picture	0		115	83.0	/experiments/knapen_aot/AOT/AOT_stimuli/pictures/1733_fw.png	205.606271982193	0.9652500152587891
85	123.61582803726196	response	0	k		83.0	/experiments/knapen_aot/AOT/AOT_stimuli/pictures/1733_fw.png	206.5588459968567	
86	123.62850403785706	picture	0		157	84.0	/experiments/knapen_aot/AOT/AOT_stimuli/pictures/1116_fw.png	206.57152199745178	1.3124420642852783
86	124.93246507644653	response	0	j		84.0	/experiments/knapen_aot/AOT/AOT_stimuli/pictures/1116_fw.png	207.87548303604126	
87	124.94094610214233	picture	0		113	85.0	/experiments/knapen_aot/AOT/AOT_stimuli/pictures/1550_fw.png	207.88396406173706	0.9444429874420166
87	125.87415218353271	response	0	j		85.0	/experiments/knapen_aot/AOT/AOT_stimuli/pictures/1550_fw.png	208.81717014312744	
88	125.88538908958435	picture	0		123	86.0	/experiments/knapen_aot/AOT/AOT_stimuli/pictures/2108_fw.png	208.82840704917908	1.0303230285644531
88	126.89236497879028	response	0	k		86.0	/experiments/knapen_aot/AOT/AOT_stimuli/pictures/2108_fw.png	209.835382938385	
89	126.9157121181488	picture	0		115	87.0	/experiments/knapen_aot/AOT/AOT_stimuli/pictures/1979_fw.png	209.85873007774353	0.9627268314361572
89	127.86581301689148	response	0	k		87.0	/experiments/knapen_aot/AOT/AOT_stimuli/pictures/1979_fw.png	210.8088309764862	
90	127.87843894958496	picture	0		165	88.0	/experiments/knapen_aot/AOT/AOT_stimuli/pictures/0202_fw.png	210.8214569091797	1.3749840259552002
90	129.2408001422882	response	0	k		88.0	/experiments/knapen_aot/AOT/AOT_stimuli/pictures/0202_fw.png	212.18381810188293	
91	129.25342297554016	picture	0		138	89.0	/experiments/knapen_aot/AOT/AOT_stimuli/pictures/1328_fw.png	212.1964409351349	1.1458220481872559
91	130.39074611663818	response	0	k		89.0	/experiments/knapen_aot/AOT/AOT_stimuli/pictures/1328_fw.png	213.3337640762329	
92	130.39924502372742	picture	0		230	90.0	/experiments/knapen_aot/AOT/AOT_stimuli/pictures/2062_fw.png	213.34226298332214	1.9166300296783447
92	132.30064916610718	response	0	k		90.0	/experiments/knapen_aot/AOT/AOT_stimuli/pictures/2062_fw.png	215.2436671257019	
93	132.31587505340576	picture	0		93	91.0	/experiments/knapen_aot/AOT/AOT_stimuli/pictures/1651_fw.png	215.2588930130005	0.7777860164642334
93	133.08239316940308	response	0	k		91.0	/experiments/knapen_aot/AOT/AOT_stimuli/pictures/1651_fw.png	216.0254111289978	
94	133.09366106987	picture	0		102	92.0	/experiments/knapen_aot/AOT/AOT_stimuli/pictures/0916_fw.png	216.03667902946472	0.8471920490264893
94	133.93248915672302	response	0	k		92.0	/experiments/knapen_aot/AOT/AOT_stimuli/pictures/0916_fw.png	216.87550711631775	
95	133.94085311889648	picture	0		101	93.0	/experiments/knapen_aot/AOT/AOT_stimuli/pictures/1382_fw.png	216.8838710784912	0.8473260402679443
95	134.77428913116455	response	0	j		93.0	/experiments/knapen_aot/AOT/AOT_stimuli/pictures/1382_fw.png	217.71730709075928	
96	134.78817915916443	picture	0		122	94.0	/experiments/knapen_aot/AOT/AOT_stimuli/pictures/0100_fw.png	217.73119711875916	1.0207409858703613
96	135.79909110069275	response	0	k		94.0	/experiments/knapen_aot/AOT/AOT_stimuli/pictures/0100_fw.png	218.74210906028748	
97	135.8089201450348	picture	0		130	95.0	/experiments/knapen_aot/AOT/AOT_stimuli/pictures/0782_fw.png	218.75193810462952	1.0834150314331055
97	136.88244915008545	response	0	j		95.0	/experiments/knapen_aot/AOT/AOT_stimuli/pictures/0782_fw.png	219.82546710968018	
98	136.8923351764679	picture	0		116	96.0	/experiments/knapen_aot/AOT/AOT_stimuli/pictures/1649_fw.png	219.83535313606262	0.9651479721069336
98	137.8490719795227	response	0	k		96.0	/experiments/knapen_aot/AOT/AOT_stimuli/pictures/1649_fw.png	220.79208993911743	
99	137.85748314857483	picture	0		159	97.0	/experiments/knapen_aot/AOT/AOT_stimuli/pictures/0326_fw.png	220.80050110816956	1.3264110088348389
99	139.17406296730042	response	0	k		97.0	/experiments/knapen_aot/AOT/AOT_stimuli/pictures/0326_fw.png	222.11708092689514	
100	139.18389415740967	picture	0		108	98.0	/experiments/knapen_aot/AOT/AOT_stimuli/pictures/0997_fw.png	222.1269121170044	0.9029278755187988
100	140.074049949646	response	0	j		98.0	/experiments/knapen_aot/AOT/AOT_stimuli/pictures/0997_fw.png	223.01706790924072	
101	140.08682203292847	picture	0		92	99.0	/experiments/knapen_aot/AOT/AOT_stimuli/pictures/0850_fw.png	223.0298399925232	0.7637379169464111
101	140.84074807167053	response	0	k		99.0	/experiments/knapen_aot/AOT/AOT_stimuli/pictures/0850_fw.png	223.78376603126526	
102	140.85055994987488	picture	0		109	100.0	/experiments/knapen_aot/AOT/AOT_stimuli/pictures/0564_fw.png	223.7935779094696	0.9097111225128174
102	141.749027967453	response	0	j		100.0	/experiments/knapen_aot/AOT/AOT_stimuli/pictures/0564_fw.png	224.69204592704773	
103	141.7602710723877	picture	0		184	101.0	/experiments/knapen_aot/AOT/AOT_stimuli/pictures/1766_fw.png	224.70328903198242	1.5346999168395996
103	143.28243398666382	response	0	j		101.0	/experiments/knapen_aot/AOT/AOT_stimuli/pictures/1766_fw.png	226.22545194625854	
104	143.2949709892273	picture	0		110	102.0	/experiments/knapen_aot/AOT/AOT_stimuli/pictures/0959_fw.png	226.23798894882202	0.9166381359100342
104	144.19905400276184	response	0	k		102.0	/experiments/knapen_aot/AOT/AOT_stimuli/pictures/0959_fw.png	227.14207196235657	
105	144.21160912513733	picture	0		222	103.0	/experiments/knapen_aot/AOT/AOT_stimuli/pictures/0081_fw.png	227.15462708473206	1.8472089767456055
105	146.0490300655365	response	0	j		103.0	/experiments/knapen_aot/AOT/AOT_stimuli/pictures/0081_fw.png	228.99204802513123	
106	146.05881810188293	picture	0		110	104.0	/experiments/knapen_aot/AOT/AOT_stimuli/pictures/1244_fw.png	229.00183606147766	0.916693925857544
106	146.9657380580902	response	0	k		104.0	/experiments/knapen_aot/AOT/AOT_stimuli/pictures/1244_fw.png	229.90875601768494	
107	146.97551202774048	picture	0		108	105.0	/experiments/knapen_aot/AOT/AOT_stimuli/pictures/0466_fw.png	229.9185299873352	0.9027400016784668
107	147.86573004722595	response	0	k		105.0	/experiments/knapen_aot/AOT/AOT_stimuli/pictures/0466_fw.png	230.80874800682068	
108	147.87825202941895	picture	0		100	106.0	/experiments/knapen_aot/AOT/AOT_stimuli/pictures/2104_fw.png	230.82126998901367	0.8333311080932617
108	148.69252514839172	response	0	j		106.0	/experiments/knapen_aot/AOT/AOT_stimuli/pictures/2104_fw.png	231.63554310798645	
109	148.7115831375122	picture	0		116	107.0	/experiments/knapen_aot/AOT/AOT_stimuli/pictures/0022_fw.png	231.65460109710693	0.9722399711608887
109	149.67402005195618	response	0	k		107.0	/experiments/knapen_aot/AOT/AOT_stimuli/pictures/0022_fw.png	232.6170380115509	
110	149.6838231086731	picture	0		96	108.0	/experiments/knapen_aot/AOT/AOT_stimuli/pictures/1026_fw.png	232.62684106826782	0.7985260486602783
110	150.47401595115662	response	0	j		108.0	/experiments/knapen_aot/AOT/AOT_stimuli/pictures/1026_fw.png	233.41703391075134	
111	150.48234915733337	picture	0		94	109.0	/experiments/knapen_aot/AOT/AOT_stimuli/pictures/1339_fw.png	233.4253671169281	0.7847578525543213
111	151.25734400749207	response	0	j		109.0	/experiments/knapen_aot/AOT/AOT_stimuli/pictures/1339_fw.png	234.2003619670868	
112	151.2671070098877	picture	0		123	110.0	/experiments/knapen_aot/AOT/AOT_stimuli/pictures/0911_fw.png	234.21012496948242	1.0277760028839111
112	152.28240609169006	response	0	k		110.0	/experiments/knapen_aot/AOT/AOT_stimuli/pictures/0911_fw.png	235.2254240512848	
113	152.2948830127716	picture	0		144	111.0	/experiments/knapen_aot/AOT/AOT_stimuli/pictures/0714_fw.png	235.23790097236633	1.204045057296753
113	153.4824709892273	response	0	k		111.0	/experiments/knapen_aot/AOT/AOT_stimuli/pictures/0714_fw.png	236.42548894882202	
114	153.49892807006836	picture	0		92	112.0	/experiments/knapen_aot/AOT/AOT_stimuli/pictures/0484_fw.png	236.4419460296631	0.7681939601898193
114	154.25739407539368	response	0	j		112.0	/experiments/knapen_aot/AOT/AOT_stimuli/pictures/0484_fw.png	237.2004120349884	
115	154.26712203025818	picture	0		122	113.0	/experiments/knapen_aot/AOT/AOT_stimuli/pictures/1027_fw.png	237.2101399898529	1.020880937576294
115	155.27410197257996	response	0	j		113.0	/experiments/knapen_aot/AOT/AOT_stimuli/pictures/1027_fw.png	238.21711993217468	
116	155.28800296783447	picture	0		95	114.0	/experiments/knapen_aot/AOT/AOT_stimuli/pictures/0627_fw.png	238.2310209274292	0.7985031604766846
116	156.07398104667664	response	0	j		114.0	/experiments/knapen_aot/AOT/AOT_stimuli/pictures/0627_fw.png	239.01699900627136	
117	156.08650612831116	picture	0		103	115.0	/experiments/knapen_aot/AOT/AOT_stimuli/pictures/1035_fw.png	239.02952408790588	0.8541259765625
117	156.92568111419678	response	0	j		115.0	/experiments/knapen_aot/AOT/AOT_stimuli/pictures/1035_fw.png	239.8686990737915	
118	156.94063210487366	picture	0		97	116.0	/experiments/knapen_aot/AOT/AOT_stimuli/pictures/1532_fw.png	239.88365006446838	0.8124969005584717
118	157.7339391708374	response	0	k		116.0	/experiments/knapen_aot/AOT/AOT_stimuli/pictures/1532_fw.png	240.67695713043213	
119	157.75312900543213	picture	0		84	117.0	/experiments/knapen_aot/AOT/AOT_stimuli/pictures/2154_fw.png	240.69614696502686	0.7041771411895752
119	158.44076108932495	response	0	j		117.0	/experiments/knapen_aot/AOT/AOT_stimuli/pictures/2154_fw.png	241.38377904891968	
120	158.4573061466217	picture	0		256	118.0	/experiments/knapen_aot/AOT/AOT_stimuli/pictures/0900_fw.png	241.40032410621643	2.136119842529297
120	160.58228397369385	response	0	j		118.0	/experiments/knapen_aot/AOT/AOT_stimuli/pictures/0900_fw.png	243.52530193328857	
121	160.593425989151	picture	0		341	119.0	/experiments/knapen_aot/AOT/AOT_stimuli/pictures/0577_fw.png	243.53644394874573	2.84028697013855
121	163.42396903038025	response	0	k		119.0	/experiments/knapen_aot/AOT/AOT_stimuli/pictures/0577_fw.png	246.36698698997498	
122	163.43371295928955	picture	0		381	120.0	/experiments/knapen_aot/AOT/AOT_stimuli/pictures/0398_fw.png	246.37673091888428	3.173549175262451
122	166.5989601612091	response	0	k		120.0	/experiments/knapen_aot/AOT/AOT_stimuli/pictures/0398_fw.png	249.54197812080383	
123	166.607262134552	picture	0		153	121.0	/experiments/knapen_aot/AOT/AOT_stimuli/pictures/0217_fw.png	249.55028009414673	1.2777550220489502
123	167.87399101257324	response	0	k		121.0	/experiments/knapen_aot/AOT/AOT_stimuli/pictures/0217_fw.png	250.81700897216797	
124	167.88501715660095	picture	0		95	122.0	/experiments/knapen_aot/AOT/AOT_stimuli/pictures/0258_fw.png	250.82803511619568	0.7916359901428223
124	168.66558003425598	response	0	j		122.0	/experiments/knapen_aot/AOT/AOT_stimuli/pictures/0258_fw.png	251.6085979938507	
125	168.67665314674377	picture	0		101	123.0	/experiments/knapen_aot/AOT/AOT_stimuli/pictures/1278_fw.png	251.6196711063385	0.8402979373931885
125	169.5073161125183	response	0	j		123.0	/experiments/knapen_aot/AOT/AOT_stimuli/pictures/1278_fw.png	252.45033407211304	
126	169.51695108413696	picture	0		99	124.0	/experiments/knapen_aot/AOT/AOT_stimuli/pictures/1087_fw.png	252.4599690437317	0.8263399600982666
126	170.32555508613586	response	0	k		124.0	/experiments/knapen_aot/AOT/AOT_stimuli/pictures/1087_fw.png	253.2685730457306	
127	170.34329104423523	picture	0		887	125.0	/experiments/knapen_aot/AOT/AOT_stimuli/pictures/1660_fw.png	253.28630900382996	7.388822078704834
127	177.7171139717102	response	0	k		125.0	/experiments/knapen_aot/AOT/AOT_stimuli/pictures/1660_fw.png	260.66013193130493	
128	177.73211312294006	picture	0		128	126.0	/experiments/knapen_aot/AOT/AOT_stimuli/pictures/2165_fw.png	260.6751310825348	1.0695300102233887
128	178.79061913490295	response	0	k		126.0	/experiments/knapen_aot/AOT/AOT_stimuli/pictures/2165_fw.png	261.7336370944977	
129	178.80164313316345	picture	0		249	127.0	/experiments/knapen_aot/AOT/AOT_stimuli/pictures/1077_fw.png	261.7446610927582	2.0762758255004883
129	180.86555314064026	response	0	k		127.0	/experiments/knapen_aot/AOT/AOT_stimuli/pictures/1077_fw.png	263.808571100235	
130	180.87791895866394	picture	0		128	128.0	/experiments/knapen_aot/AOT/AOT_stimuli/pictures/1447_fw.png	263.82093691825867	1.062629222869873
130	181.925635099411	response	0	k		128.0	/experiments/knapen_aot/AOT/AOT_stimuli/pictures/1447_fw.png	264.86865305900574	
131	181.9405481815338	picture	0		190	129.0	/experiments/knapen_aot/AOT/AOT_stimuli/pictures/0389_fw.png	264.88356614112854	1.5832359790802002
131	183.51566910743713	response	0	k		129.0	/experiments/knapen_aot/AOT/AOT_stimuli/pictures/0389_fw.png	266.45868706703186	
132	183.523784160614	picture	0		105	130.0	/experiments/knapen_aot/AOT/AOT_stimuli/pictures/1671_fw.png	266.46680212020874	0.8749418258666992
132	184.39053916931152	response	0	k		130.0	/experiments/knapen_aot/AOT/AOT_stimuli/pictures/1671_fw.png	267.33355712890625	
133	184.3987259864807	picture	0		115	131.0	/experiments/knapen_aot/AOT/AOT_stimuli/pictures/1836_fw.png	267.34174394607544	0.9583961963653564
133	185.34211015701294	response	0	k		131.0	/experiments/knapen_aot/AOT/AOT_stimuli/pictures/1836_fw.png	268.28512811660767	
134	185.35712218284607	picture	0		143	132.0	/experiments/knapen_aot/AOT/AOT_stimuli/pictures/1221_fw.png	268.3001401424408	1.2000319957733154
134	186.53377604484558	response	0	j		132.0	/experiments/knapen_aot/AOT/AOT_stimuli/pictures/1221_fw.png	269.4767940044403	
135	186.55715417861938	picture	0		118	133.0	/experiments/knapen_aot/AOT/AOT_stimuli/pictures/0898_fw.png	269.5001721382141	0.991614818572998
135	187.52547216415405	response	0	k		133.0	/experiments/knapen_aot/AOT/AOT_stimuli/pictures/0898_fw.png	270.4684901237488	
136	187.54876899719238	picture	0		135	134.0	/experiments/knapen_aot/AOT/AOT_stimuli/pictures/1775_fw.png	270.4917869567871	1.1277260780334473
136	188.6655261516571	response	0	k		134.0	/experiments/knapen_aot/AOT/AOT_stimuli/pictures/1775_fw.png	271.60854411125183	
137	188.67649507522583	picture	0		170	135.0	/experiments/knapen_aot/AOT/AOT_stimuli/pictures/1997_fw.png	271.61951303482056	1.4166369438171387
137	190.0821990966797	response	0	k		135.0	/experiments/knapen_aot/AOT/AOT_stimuli/pictures/1997_fw.png	273.0252170562744	
138	190.09313201904297	picture	0		101	136.0	/experiments/knapen_aot/AOT/AOT_stimuli/pictures/0071_fw.png	273.0361499786377	0.8402731418609619
138	190.91703009605408	response	0	k		136.0	/experiments/knapen_aot/AOT/AOT_stimuli/pictures/0071_fw.png	273.8600480556488	
139	190.93340516090393	picture	0		145	137.0	/experiments/knapen_aot/AOT/AOT_stimuli/pictures/1601_fw.png	273.87642312049866	1.208331823348999
139	192.12541604042053	response	0	k		137.0	/experiments/knapen_aot/AOT/AOT_stimuli/pictures/1601_fw.png	275.06843400001526	
140	192.14173698425293	picture	0		113	138.0	/experiments/knapen_aot/AOT/AOT_stimuli/pictures/1014_fw.png	275.08475494384766	0.9444279670715332
140	193.07385206222534	response	0	k		138.0	/experiments/knapen_aot/AOT/AOT_stimuli/pictures/1014_fw.png	276.01687002182007	
141	193.08616495132446	picture	0		275	139.0	/experiments/knapen_aot/AOT/AOT_stimuli/pictures/1803_fw.png	276.0291829109192	2.2916500568389893
141	195.36549305915833	response	0	k		139.0	/experiments/knapen_aot/AOT/AOT_stimuli/pictures/1803_fw.png	278.30851101875305	
142	195.37781500816345	picture	0		163	140.0	/experiments/knapen_aot/AOT/AOT_stimuli/pictures/2110_fw.png	278.3208329677582	1.3542490005493164
142	196.72385096549988	response	0	k		140.0	/experiments/knapen_aot/AOT/AOT_stimuli/pictures/2110_fw.png	279.6668689250946	
143	196.73206400871277	picture	0		262	141.0	/experiments/knapen_aot/AOT/AOT_stimuli/pictures/0323_fw.png	279.6750819683075	2.1874191761016846
143	198.90719318389893	response	0	k		141.0	/experiments/knapen_aot/AOT/AOT_stimuli/pictures/0323_fw.png	281.85021114349365	
144	198.91948318481445	picture	0		100	142.0	/experiments/knapen_aot/AOT/AOT_stimuli/pictures/1824_fw.png	281.8625011444092	0.8332679271697998
144	199.73375296592712	response	0	k		142.0	/experiments/knapen_aot/AOT/AOT_stimuli/pictures/1824_fw.png	282.67677092552185	
145	199.75275111198425	picture	0		153	143.0	/experiments/knapen_aot/AOT/AOT_stimuli/pictures/0694_fw.png	282.695769071579	1.2709989547729492
145	201.0154311656952	response	0	k		143.0	/experiments/knapen_aot/AOT/AOT_stimuli/pictures/0694_fw.png	283.9584491252899	
146	201.0237500667572	picture	0		147	144.0	/experiments/knapen_aot/AOT/AOT_stimuli/pictures/1207_fw.png	283.96676802635193	1.2289690971374512
146	202.2405230998993	response	0	k		144.0	/experiments/knapen_aot/AOT/AOT_stimuli/pictures/1207_fw.png	285.183541059494	
147	202.25271916389465	picture	0		95	145.0	/experiments/knapen_aot/AOT/AOT_stimuli/pictures/0537_fw.png	285.1957371234894	0.7986187934875488
147	203.04049396514893	response	0	j		145.0	/experiments/knapen_aot/AOT/AOT_stimuli/pictures/0537_fw.png	285.98351192474365	
148	203.0513379573822	picture	0		113	146.0	/experiments/knapen_aot/AOT/AOT_stimuli/pictures/0970_fw.png	285.99435591697693	0.9444479942321777
148	203.98208117485046	response	0	k		146.0	/experiments/knapen_aot/AOT/AOT_stimuli/pictures/0970_fw.png	286.9250991344452	
149	203.99578595161438	picture	0		301	147.0	/experiments/knapen_aot/AOT/AOT_stimuli/pictures/1819_fw.png	286.9388039112091	2.513902187347412
149	206.49883794784546	response	0	j		147.0	/experiments/knapen_aot/AOT/AOT_stimuli/pictures/1819_fw.png	289.4418559074402	
150	206.5096881389618	picture	0		110	148.0	/experiments/knapen_aot/AOT/AOT_stimuli/pictures/0961_fw.png	289.4527060985565	0.9223380088806152
150	207.41548800468445	response	0	k		148.0	/experiments/knapen_aot/AOT/AOT_stimuli/pictures/0961_fw.png	290.3585059642792	
151	207.4320261478424	picture	0		89	149.0	/experiments/knapen_aot/AOT/AOT_stimuli/pictures/0132_fw.png	290.37504410743713	0.7442629337310791
151	208.1654131412506	response	0	j		149.0	/experiments/knapen_aot/AOT/AOT_stimuli/pictures/0132_fw.png	291.10843110084534	
152	208.1762890815735	picture	0		152	150.0	/experiments/knapen_aot/AOT/AOT_stimuli/pictures/0085_fw.png	291.1193070411682	1.2724089622497559
152	209.43214511871338	response	0	j		150.0	/experiments/knapen_aot/AOT/AOT_stimuli/pictures/0085_fw.png	292.3751630783081	
153	209.44869804382324	picture	0		200	151.0	/experiments/knapen_aot/AOT/AOT_stimuli/pictures/1750_fw.png	292.39171600341797	1.6720061302185059
153	211.1071310043335	response	0	j		151.0	/experiments/knapen_aot/AOT/AOT_stimuli/pictures/1750_fw.png	294.0501489639282	
154	211.12070417404175	picture	0		90	152.0	/experiments/knapen_aot/AOT/AOT_stimuli/pictures/1436_fw.png	294.0637221336365	0.7569408416748047
154	211.86543703079224	response	0	k		152.0	/experiments/knapen_aot/AOT/AOT_stimuli/pictures/1436_fw.png	294.80845499038696	
155	211.87764501571655	picture	0		137	153.0	/experiments/knapen_aot/AOT/AOT_stimuli/pictures/0432_fw.png	294.8206629753113	1.138880968093872
155	213.00714302062988	response	0	k		153.0	/experiments/knapen_aot/AOT/AOT_stimuli/pictures/0432_fw.png	295.9501609802246	
156	213.01652598381042	picture	0		100	154.0	/experiments/knapen_aot/AOT/AOT_stimuli/pictures/0831_fw.png	295.95954394340515	0.8333721160888672
156	213.84042096138	response	0	k		154.0	/experiments/knapen_aot/AOT/AOT_stimuli/pictures/0831_fw.png	296.78343892097473	
157	213.8498980998993	picture	0		120	155.0	/experiments/knapen_aot/AOT/AOT_stimuli/pictures/0726_fw.png	296.792916059494	0.9999489784240723
157	214.84041094779968	response	0	k		155.0	/experiments/knapen_aot/AOT/AOT_stimuli/pictures/0726_fw.png	297.7834289073944	
158	214.84984707832336	picture	0		92	156.0	/experiments/knapen_aot/AOT/AOT_stimuli/pictures/1151_fw.png	297.7928650379181	0.770845890045166
158	215.60707998275757	response	0	k		156.0	/experiments/knapen_aot/AOT/AOT_stimuli/pictures/1151_fw.png	298.5500979423523	
159	215.62069296836853	picture	0		105	157.0	/experiments/knapen_aot/AOT/AOT_stimuli/pictures/2044_fw.png	298.56371092796326	0.886282205581665
159	216.49048709869385	response	0	k		157.0	/experiments/knapen_aot/AOT/AOT_stimuli/pictures/2044_fw.png	299.4335050582886	
160	216.5069751739502	picture	0		101	158.0	/experiments/knapen_aot/AOT/AOT_stimuli/pictures/1927_fw.png	299.4499931335449	0.8428390026092529
160	217.33375000953674	response	0	j		158.0	/experiments/knapen_aot/AOT/AOT_stimuli/pictures/1927_fw.png	300.27676796913147	
161	217.34981417655945	picture	0		180	159.0	/experiments/knapen_aot/AOT/AOT_stimuli/pictures/0737_fw.png	300.2928321361542	1.4999828338623047
161	218.84042406082153	response	0	j		159.0	/experiments/knapen_aot/AOT/AOT_stimuli/pictures/0737_fw.png	301.78344202041626	
162	218.84979701042175	picture	0		149	160.0	/experiments/knapen_aot/AOT/AOT_stimuli/pictures/1176_fw.png	301.7928149700165	1.2430579662322998
162	220.08212208747864	response	0	j		160.0	/experiments/knapen_aot/AOT/AOT_stimuli/pictures/1176_fw.png	303.02514004707336	
163	220.09285497665405	picture	0		115	161.0	/experiments/knapen_aot/AOT/AOT_stimuli/pictures/1307_fw.png	303.0358729362488	0.9583301544189453
163	221.0404269695282	response	0	j		161.0	/experiments/knapen_aot/AOT/AOT_stimuli/pictures/1307_fw.png	303.9834449291229	
164	221.051185131073	picture	0		120	162.0	/experiments/knapen_aot/AOT/AOT_stimuli/pictures/1365_fw.png	303.9942030906677	1.0141868591308594
164	222.04061102867126	response	0	j		162.0	/experiments/knapen_aot/AOT/AOT_stimuli/pictures/1365_fw.png	304.983628988266	
165	222.06537199020386	picture	0		104	163.0	/experiments/knapen_aot/AOT/AOT_stimuli/pictures/0296_fw.png	305.0083899497986	0.8677091598510742
165	222.92370295524597	response	0	k		163.0	/experiments/knapen_aot/AOT/AOT_stimuli/pictures/0296_fw.png	305.8667209148407	
166	222.93308115005493	picture	0		118	164.0	/experiments/knapen_aot/AOT/AOT_stimuli/pictures/0820_fw.png	305.87609910964966	0.9860999584197998
166	223.90707898139954	response	0	j		164.0	/experiments/knapen_aot/AOT/AOT_stimuli/pictures/0820_fw.png	306.85009694099426	
167	223.91918110847473	picture	0		98	165.0	/experiments/knapen_aot/AOT/AOT_stimuli/pictures/2069_fw.png	306.86219906806946	0.8127830028533936
167	224.7237250804901	response	0	j		165.0	/experiments/knapen_aot/AOT/AOT_stimuli/pictures/2069_fw.png	307.66674304008484	
168	224.73196411132812	picture	0		135	166.0	/experiments/knapen_aot/AOT/AOT_stimuli/pictures/1394_fw.png	307.67498207092285	1.131742000579834
168	225.84872698783875	response	0	k		166.0	/experiments/knapen_aot/AOT/AOT_stimuli/pictures/1394_fw.png	308.7917449474335	
169	225.86370611190796	picture	0		125	167.0	/experiments/knapen_aot/AOT/AOT_stimuli/pictures/0372_fw.png	308.8067240715027	1.0516600608825684
169	226.89867997169495	response	0	k		167.0	/experiments/knapen_aot/AOT/AOT_stimuli/pictures/0372_fw.png	309.8416979312897	
170	226.91536617279053	picture	0		87	168.0	/experiments/knapen_aot/AOT/AOT_stimuli/pictures/0114_fw.png	309.85838413238525	0.7260439395904541
170	227.63196516036987	response	0	k		168.0	/experiments/knapen_aot/AOT/AOT_stimuli/pictures/0114_fw.png	310.5749831199646	
171	227.64141011238098	picture	0		97	169.0	/experiments/knapen_aot/AOT/AOT_stimuli/pictures/0709_fw.png	310.5844280719757	0.81557297706604
171	228.44036602973938	response	0	k		169.0	/experiments/knapen_aot/AOT/AOT_stimuli/pictures/0709_fw.png	311.3833839893341	
172	228.45698308944702	picture	0		105	170.0	/experiments/knapen_aot/AOT/AOT_stimuli/pictures/0441_fw.png	311.40000104904175	0.8788049221038818
172	229.32369804382324	response	0	k		170.0	/experiments/knapen_aot/AOT/AOT_stimuli/pictures/0441_fw.png	312.26671600341797	
173	229.3357880115509	picture	0		141	171.0	/experiments/knapen_aot/AOT/AOT_stimuli/pictures/0030_fw.png	312.27880597114563	1.1794791221618652
173	230.49870014190674	response	0	k		171.0	/experiments/knapen_aot/AOT/AOT_stimuli/pictures/0030_fw.png	313.44171810150146	
174	230.51526713371277	picture	0		92	172.0	/experiments/knapen_aot/AOT/AOT_stimuli/pictures/1324_fw.png	313.4582850933075	0.774986982345581
174	231.27372097969055	response	0	k		172.0	/experiments/knapen_aot/AOT/AOT_stimuli/pictures/1324_fw.png	314.2167389392853	
175	231.29025411605835	picture	0		130	173.0	/experiments/knapen_aot/AOT/AOT_stimuli/pictures/0099_fw.png	314.2332720756531	1.087280035018921
175	232.35856103897095	response	0	j		173.0	/experiments/knapen_aot/AOT/AOT_stimuli/pictures/0099_fw.png	315.3015789985657	
176	232.37753415107727	picture	0		120	174.0	/experiments/knapen_aot/AOT/AOT_stimuli/pictures/1256_fw.png	315.320552110672	0.9999079704284668
176	233.35854816436768	response	0	k		174.0	/experiments/knapen_aot/AOT/AOT_stimuli/pictures/1256_fw.png	316.3015661239624	
177	233.37744212150574	picture	0		130	175.0	/experiments/knapen_aot/AOT/AOT_stimuli/pictures/0843_fw.png	316.32046008110046	1.0879008769989014
177	234.4486789703369	response	0	k		175.0	/experiments/knapen_aot/AOT/AOT_stimuli/pictures/0843_fw.png	317.39169692993164	
178	234.46534299850464	picture	0		114	176.0	/experiments/knapen_aot/AOT/AOT_stimuli/pictures/0486_fw.png	317.40836095809937	0.9537341594696045
178	235.40697503089905	response	0	k		176.0	/experiments/knapen_aot/AOT/AOT_stimuli/pictures/0486_fw.png	318.3499929904938	
179	235.41907715797424	picture	0		114	177.0	/experiments/knapen_aot/AOT/AOT_stimuli/pictures/0636_fw.png	318.36209511756897	0.9514257907867432
179	236.3502640724182	response	0	j		177.0	/experiments/knapen_aot/AOT/AOT_stimuli/pictures/0636_fw.png	319.29328203201294	
180	236.370502948761	picture	0		119	178.0	/experiments/knapen_aot/AOT/AOT_stimuli/pictures/0734_fw.png	319.3135209083557	1.0000231266021729
180	237.35025811195374	response	0	j		178.0	/experiments/knapen_aot/AOT/AOT_stimuli/pictures/0734_fw.png	320.29327607154846	
181	237.37052607536316	picture	0		95	179.0	/experiments/knapen_aot/AOT/AOT_stimuli/pictures/0420_fw.png	320.3135440349579	0.7986099720001221
181	238.1502649784088	response	0	k		179.0	/experiments/knapen_aot/AOT/AOT_stimuli/pictures/0420_fw.png	321.09328293800354	
182	238.16913604736328	stim	0		237			321.112154006958	1.9721729755401611
182	240.13202095031738	response	0	space				323.0750389099121	
