trial_nr	onset	event_type	phase	response	nr_frames	picture_index	picture_file	onset_abs	duration
0	0.1560819149017334	stim	0		1023			86.7330310344696	8.548232078552246
0	8.67941689491272	response	0	space				95.25636601448059	
2	8.70431399345398	picture	0		165	0.0	/experiments/knapen_aot/AOT/AOT_stimuli/pictures/1391_fw.png	95.28126311302185	1.37857985496521
2	10.071044921875	response	0	j		0.0	/experiments/knapen_aot/AOT/AOT_stimuli/pictures/1391_fw.png	96.64799404144287	
3	10.08289384841919	picture	0		258	1.0	/experiments/knapen_aot/AOT/AOT_stimuli/pictures/0640_fw.png	96.65984296798706	2.1547210216522217
3	12.221958875656128	response	0	k		1.0	/experiments/knapen_aot/AOT/AOT_stimuli/pictures/0640_fw.png	98.798907995224	
4	12.237614870071411	picture	0		171	2.0	/experiments/knapen_aot/AOT/AOT_stimuli/pictures/1166_fw.png	98.81456398963928	1.4285969734191895
4	13.654409885406494	response	0	j		2.0	/experiments/knapen_aot/AOT/AOT_stimuli/pictures/1166_fw.png	100.23135900497437	
5	13.6662118434906	picture	0		173	3.0	/experiments/knapen_aot/AOT/AOT_stimuli/pictures/0566_fw.png	100.24316096305847	1.451409101486206
5	15.104410886764526	response	0	k		3.0	/experiments/knapen_aot/AOT/AOT_stimuli/pictures/0566_fw.png	101.6813600063324	
6	15.117620944976807	picture	0		97	4.0	/experiments/knapen_aot/AOT/AOT_stimuli/pictures/2139_fw.png	101.69457006454468	0.8124608993530273
6	15.921003818511963	response	0	k		4.0	/experiments/knapen_aot/AOT/AOT_stimuli/pictures/2139_fw.png	102.49795293807983	
7	15.930081844329834	picture	0		96	5.0	/experiments/knapen_aot/AOT/AOT_stimuli/pictures/1496_fw.png	102.5070309638977	0.8075079917907715
7	16.721866846084595	response	0	j		5.0	/experiments/knapen_aot/AOT/AOT_stimuli/pictures/1496_fw.png	103.29881596565247	
8	16.737589836120605	picture	0		118	6.0	/experiments/knapen_aot/AOT/AOT_stimuli/pictures/0256_fw.png	103.31453895568848	0.9841690063476562
8	17.712730884552002	response	0	k		6.0	/experiments/knapen_aot/AOT/AOT_stimuli/pictures/0256_fw.png	104.28968000411987	
9	17.72175884246826	picture	0		356	7.0	/experiments/knapen_aot/AOT/AOT_stimuli/pictures/0808_fw.png	104.29870796203613	2.9721951484680176
9	20.680168867111206	response	0	k		7.0	/experiments/knapen_aot/AOT/AOT_stimuli/pictures/0808_fw.png	107.25711798667908	
10	20.69395399093628	picture	0		101	8.0	/experiments/knapen_aot/AOT/AOT_stimuli/pictures/0461_fw.png	107.27090311050415	0.8471579551696777
10	21.529330015182495	response	0	j		8.0	/experiments/knapen_aot/AOT/AOT_stimuli/pictures/0461_fw.png	108.10627913475037	
11	21.541111946105957	picture	0		106	9.0	/experiments/knapen_aot/AOT/AOT_stimuli/pictures/1806_fw.png	108.11806106567383	0.882004976272583
11	22.412669897079468	response	0	k		9.0	/experiments/knapen_aot/AOT/AOT_stimuli/pictures/1806_fw.png	108.98961901664734	
12	22.42311692237854	picture	0		87	10.0	/experiments/knapen_aot/AOT/AOT_stimuli/pictures/0954_fw.png	109.00006604194641	0.7311220169067383
12	23.138484954833984	response	0	j		10.0	/experiments/knapen_aot/AOT/AOT_stimuli/pictures/0954_fw.png	109.71543407440186	
13	23.15423893928528	picture	0		92	11.0	/experiments/knapen_aot/AOT/AOT_stimuli/pictures/1277_fw.png	109.73118805885315	0.768812894821167
13	23.91265296936035	response	0	k		11.0	/experiments/knapen_aot/AOT/AOT_stimuli/pictures/1277_fw.png	110.48960208892822	
14	23.923051834106445	picture	0		91	12.0	/experiments/knapen_aot/AOT/AOT_stimuli/pictures/0697_fw.png	110.50000095367432	0.7569470405578613
14	24.670963048934937	response	0	j		12.0	/experiments/knapen_aot/AOT/AOT_stimuli/pictures/0697_fw.png	111.24791216850281	
15	24.679998874664307	picture	0		118	13.0	/experiments/knapen_aot/AOT/AOT_stimuli/pictures/0015_fw.png	111.25694799423218	0.9860730171203613
15	25.654348850250244	response	0	k		13.0	/experiments/knapen_aot/AOT/AOT_stimuli/pictures/0015_fw.png	112.23129796981812	
16	25.666071891784668	picture	0		108	14.0	/experiments/knapen_aot/AOT/AOT_stimuli/pictures/0483_fw.png	112.24302101135254	0.8964650630950928
16	26.554330825805664	response	0	j		14.0	/experiments/knapen_aot/AOT/AOT_stimuli/pictures/0483_fw.png	113.13127994537354	
17	26.56253695487976	picture	0		105	15.0	/experiments/knapen_aot/AOT/AOT_stimuli/pictures/1884_fw.png	113.13948607444763	0.8813869953155518
17	27.430080890655518	response	0	k		15.0	/experiments/knapen_aot/AOT/AOT_stimuli/pictures/1884_fw.png	114.00703001022339	
18	27.443923950195312	picture	0		439	16.0	/experiments/knapen_aot/AOT/AOT_stimuli/pictures/1663_fw.png	114.02087306976318	3.6686489582061768
18	31.096724033355713	response	0	k		16.0	/experiments/knapen_aot/AOT/AOT_stimuli/pictures/1663_fw.png	117.67367315292358	
19	31.11257290840149	picture	0		106	17.0	/experiments/knapen_aot/AOT/AOT_stimuli/pictures/0541_fw.png	117.68952202796936	0.8867909908294678
19	31.98080587387085	response	0	k		17.0	/experiments/knapen_aot/AOT/AOT_stimuli/pictures/0541_fw.png	118.55775499343872	
20	31.999363899230957	picture	0		159	18.0	/experiments/knapen_aot/AOT/AOT_stimuli/pictures/0955_fw.png	118.57631301879883	1.3263671398162842
20	33.312638998031616	response	0	k		18.0	/experiments/knapen_aot/AOT/AOT_stimuli/pictures/0955_fw.png	119.88958811759949	
21	33.32573103904724	picture	0		488	19.0	/experiments/knapen_aot/AOT/AOT_stimuli/pictures/1054_fw.png	119.90268015861511	4.076373815536499
21	37.38836097717285	response	0	j		19.0	/experiments/knapen_aot/AOT/AOT_stimuli/pictures/1054_fw.png	123.96531009674072	
22	37.40210485458374	picture	0		108	20.0	/experiments/knapen_aot/AOT/AOT_stimuli/pictures/1176_fw.png	123.97905397415161	0.9027471542358398
22	38.2959349155426	response	0	k		20.0	/experiments/knapen_aot/AOT/AOT_stimuli/pictures/1176_fw.png	124.87288403511047	
23	38.30485200881958	picture	0		108	21.0	/experiments/knapen_aot/AOT/AOT_stimuli/pictures/1859_fw.png	124.88180112838745	0.9027810096740723
23	39.18911385536194	response	0	k		21.0	/experiments/knapen_aot/AOT/AOT_stimuli/pictures/1859_fw.png	125.76606297492981	
24	39.20763301849365	picture	0		307	22.0	/experiments/knapen_aot/AOT/AOT_stimuli/pictures/1104_fw.png	125.78458213806152	2.555522918701172
24	41.75423192977905	response	0	k		22.0	/experiments/knapen_aot/AOT/AOT_stimuli/pictures/1104_fw.png	128.33118104934692	
25	41.763155937194824	picture	0		306	23.0	/experiments/knapen_aot/AOT/AOT_stimuli/pictures/1651_fw.png	128.3401050567627	2.557663917541504
25	44.30493903160095	response	0	k		23.0	/experiments/knapen_aot/AOT/AOT_stimuli/pictures/1651_fw.png	130.88188815116882	
26	44.32081985473633	picture	0		97	24.0	/experiments/knapen_aot/AOT/AOT_stimuli/pictures/1188_fw.png	130.8977689743042	0.8103961944580078
26	45.120903968811035	response	0	j		24.0	/experiments/knapen_aot/AOT/AOT_stimuli/pictures/1188_fw.png	131.6978530883789	
27	45.131216049194336	picture	0		120	25.0	/experiments/knapen_aot/AOT/AOT_stimuli/pictures/1751_fw.png	131.7081651687622	1.0062448978424072
27	46.12094688415527	response	0	j		25.0	/experiments/knapen_aot/AOT/AOT_stimuli/pictures/1751_fw.png	132.69789600372314	
28	46.13746094703674	picture	0		124	26.0	/experiments/knapen_aot/AOT/AOT_stimuli/pictures/0791_fw.png	132.71441006660461	1.0353870391845703
28	47.162545919418335	response	0	k		26.0	/experiments/knapen_aot/AOT/AOT_stimuli/pictures/0791_fw.png	133.7394950389862	
29	47.17284798622131	picture	0		110	27.0	/experiments/knapen_aot/AOT/AOT_stimuli/pictures/2030_fw.png	133.74979710578918	0.9166369438171387
29	48.079262018203735	response	0	k		27.0	/experiments/knapen_aot/AOT/AOT_stimuli/pictures/2030_fw.png	134.6562111377716	
30	48.08948493003845	picture	0		144	28.0	/experiments/knapen_aot/AOT/AOT_stimuli/pictures/0195_fw.png	134.66643404960632	1.2013859748840332
30	49.27924394607544	response	0	k		28.0	/experiments/knapen_aot/AOT/AOT_stimuli/pictures/0195_fw.png	135.8561930656433	
31	49.290870904922485	picture	0		104	29.0	/experiments/knapen_aot/AOT/AOT_stimuli/pictures/2093_fw.png	135.86782002449036	0.8680670261383057
31	50.14585900306702	response	0	j		29.0	/experiments/knapen_aot/AOT/AOT_stimuli/pictures/2093_fw.png	136.7228081226349	
32	50.15893793106079	picture	0		266	30.0	/experiments/knapen_aot/AOT/AOT_stimuli/pictures/2147_fw.png	136.73588705062866	2.2222208976745605
32	52.37087392807007	response	0	k		30.0	/experiments/knapen_aot/AOT/AOT_stimuli/pictures/2147_fw.png	138.94782304763794	
33	52.38115882873535	picture	0		124	31.0	/experiments/knapen_aot/AOT/AOT_stimuli/pictures/0652_fw.png	138.95810794830322	1.034646987915039
33	53.40418982505798	response	0	j		31.0	/experiments/knapen_aot/AOT/AOT_stimuli/pictures/0652_fw.png	139.98113894462585	
34	53.41580581665039	picture	0		127	32.0	/experiments/knapen_aot/AOT/AOT_stimuli/pictures/0502_fw.png	139.99275493621826	1.0555732250213623
34	54.46252989768982	response	0	k		32.0	/experiments/knapen_aot/AOT/AOT_stimuli/pictures/0502_fw.png	141.0394790172577	
35	54.47137904167175	picture	0		297	33.0	/experiments/knapen_aot/AOT/AOT_stimuli/pictures/2052_fw.png	141.04832816123962	2.47914981842041
35	56.937532901763916	response	0	k		33.0	/experiments/knapen_aot/AOT/AOT_stimuli/pictures/2052_fw.png	143.5144820213318	
36	56.95052886009216	picture	0		116	34.0	/experiments/knapen_aot/AOT/AOT_stimuli/pictures/1062_fw.png	143.52747797966003	0.9722139835357666
36	57.91251492500305	response	0	j		34.0	/experiments/knapen_aot/AOT/AOT_stimuli/pictures/1062_fw.png	144.48946404457092	
37	57.92274284362793	picture	0		127	35.0	/experiments/knapen_aot/AOT/AOT_stimuli/pictures/1299_fw.png	144.4996919631958	1.0648071765899658
37	58.971534967422485	response	0	j		35.0	/experiments/knapen_aot/AOT/AOT_stimuli/pictures/1299_fw.png	145.54848408699036	
38	58.987550020217896	picture	0		95	36.0	/experiments/knapen_aot/AOT/AOT_stimuli/pictures/2119_fw.png	145.56449913978577	0.7962579727172852
38	59.76467800140381	response	0	j		36.0	/experiments/knapen_aot/AOT/AOT_stimuli/pictures/2119_fw.png	146.34162712097168	
39	59.78380799293518	picture	0		125	37.0	/experiments/knapen_aot/AOT/AOT_stimuli/pictures/0799_fw.png	146.36075711250305	1.0486149787902832
39	60.82080292701721	response	0	k		37.0	/experiments/knapen_aot/AOT/AOT_stimuli/pictures/0799_fw.png	147.39775204658508	
40	60.832422971725464	picture	0		106	38.0	/experiments/knapen_aot/AOT/AOT_stimuli/pictures/2095_fw.png	147.40937209129333	0.8819520473480225
40	61.7041699886322	response	0	k		38.0	/experiments/knapen_aot/AOT/AOT_stimuli/pictures/2095_fw.png	148.28111910820007	
41	61.714375019073486	picture	0		100	39.0	/experiments/knapen_aot/AOT/AOT_stimuli/pictures/0376_fw.png	148.29132413864136	0.8333618640899658
41	62.5375189781189	response	0	j		39.0	/experiments/knapen_aot/AOT/AOT_stimuli/pictures/0376_fw.png	149.11446809768677	
42	62.54773688316345	picture	0		272	40.0	/experiments/knapen_aot/AOT/AOT_stimuli/pictures/0752_fw.png	149.12468600273132	2.2707700729370117
42	64.79744100570679	response	0	k		40.0	/experiments/knapen_aot/AOT/AOT_stimuli/pictures/0752_fw.png	151.37439012527466	
43	64.81850695610046	picture	0		108	41.0	/experiments/knapen_aot/AOT/AOT_stimuli/pictures/0732_fw.png	151.39545607566833	0.9027509689331055
43	65.71241402626038	response	0	k		41.0	/experiments/knapen_aot/AOT/AOT_stimuli/pictures/0732_fw.png	152.28936314582825	
44	65.72125792503357	picture	0		102	42.0	/experiments/knapen_aot/AOT/AOT_stimuli/pictures/0284_fw.png	152.29820704460144	0.8542239665985107
44	66.56246781349182	response	0	k		42.0	/experiments/knapen_aot/AOT/AOT_stimuli/pictures/0284_fw.png	153.1394169330597	
45	66.57548189163208	picture	0		113	43.0	/experiments/knapen_aot/AOT/AOT_stimuli/pictures/0743_fw.png	153.15243101119995	0.9535231590270996
45	67.51302981376648	response	0	j		43.0	/experiments/knapen_aot/AOT/AOT_stimuli/pictures/0743_fw.png	154.08997893333435	
46	67.52900505065918	picture	0		102	44.0	/experiments/knapen_aot/AOT/AOT_stimuli/pictures/1140_fw.png	154.10595417022705	0.8519399166107178
46	68.37078404426575	response	0	k		44.0	/experiments/knapen_aot/AOT/AOT_stimuli/pictures/1140_fw.png	154.94773316383362	
47	68.3809449672699	picture	0		178	45.0	/experiments/knapen_aot/AOT/AOT_stimuli/pictures/2039_fw.png	154.95789408683777	1.4897370338439941
47	69.85412502288818	response	0	j		45.0	/experiments/knapen_aot/AOT/AOT_stimuli/pictures/2039_fw.png	156.43107414245605	
48	69.87068200111389	picture	0		198	46.0	/experiments/knapen_aot/AOT/AOT_stimuli/pictures/1231_fw.png	156.44763112068176	1.658423900604248
48	71.51300597190857	response	0	j		46.0	/experiments/knapen_aot/AOT/AOT_stimuli/pictures/1231_fw.png	158.08995509147644	
49	71.52910590171814	picture	0		114	47.0	/experiments/knapen_aot/AOT/AOT_stimuli/pictures/1399_fw.png	158.106055021286	0.9582381248474121
49	72.47136497497559	response	0	j		47.0	/experiments/knapen_aot/AOT/AOT_stimuli/pictures/1399_fw.png	159.04831409454346	
50	72.48734402656555	picture	0		138	48.0	/experiments/knapen_aot/AOT/AOT_stimuli/pictures/1735_fw.png	159.06429314613342	1.158308982849121
50	73.62907195091248	response	0	k		48.0	/experiments/knapen_aot/AOT/AOT_stimuli/pictures/1735_fw.png	160.20602107048035	
51	73.64565300941467	picture	0		281	49.0	/experiments/knapen_aot/AOT/AOT_stimuli/pictures/2071_fw.png	160.22260212898254	2.3463659286499023
51	75.97284889221191	response	0	j		49.0	/experiments/knapen_aot/AOT/AOT_stimuli/pictures/2071_fw.png	162.54979801177979	
52	75.99201893806458	picture	0		130	50.0	/experiments/knapen_aot/AOT/AOT_stimuli/pictures/0555_fw.png	162.56896805763245	1.0902719497680664
52	77.07077503204346	response	0	k		50.0	/experiments/knapen_aot/AOT/AOT_stimuli/pictures/0555_fw.png	163.64772415161133	
53	77.08229088783264	picture	0		111	51.0	/experiments/knapen_aot/AOT/AOT_stimuli/pictures/1667_fw.png	163.6592400074005	0.9235739707946777
53	77.98894095420837	response	0	k		51.0	/experiments/knapen_aot/AOT/AOT_stimuli/pictures/1667_fw.png	164.56589007377625	
54	78.00586485862732	picture	0		126	52.0	/experiments/knapen_aot/AOT/AOT_stimuli/pictures/1317_fw.png	164.5828139781952	1.0564451217651367
54	79.04574584960938	response	0	j		52.0	/experiments/knapen_aot/AOT/AOT_stimuli/pictures/1317_fw.png	165.62269496917725	
55	79.06230998039246	picture	0		119	53.0	/experiments/knapen_aot/AOT/AOT_stimuli/pictures/1060_fw.png	165.63925909996033	0.9999730587005615
55	80.04592084884644	response	0	k		53.0	/experiments/knapen_aot/AOT/AOT_stimuli/pictures/1060_fw.png	166.6228699684143	
56	80.06228303909302	picture	0		119	54.0	/experiments/knapen_aot/AOT/AOT_stimuli/pictures/1820_fw.png	166.6392321586609	0.9921808242797852
56	81.04574704170227	response	0	j		54.0	/experiments/knapen_aot/AOT/AOT_stimuli/pictures/1820_fw.png	167.62269616127014	
57	81.0544638633728	picture	0		113	55.0	/experiments/knapen_aot/AOT/AOT_stimuli/pictures/1600_fw.png	167.63141298294067	0.94439697265625
57	81.9805519580841	response	0	j		55.0	/experiments/knapen_aot/AOT/AOT_stimuli/pictures/1600_fw.png	168.55750107765198	
58	81.99886083602905	picture	0		363	56.0	/experiments/knapen_aot/AOT/AOT_stimuli/pictures/1665_fw.png	168.57580995559692	3.0301520824432373
58	85.01295304298401	response	0	k		56.0	/experiments/knapen_aot/AOT/AOT_stimuli/pictures/1665_fw.png	171.58990216255188	
59	85.02901291847229	picture	0		164	57.0	/experiments/knapen_aot/AOT/AOT_stimuli/pictures/0936_fw.png	171.60596203804016	1.3726439476013184
59	86.3805639743805	response	0	k		57.0	/experiments/knapen_aot/AOT/AOT_stimuli/pictures/0936_fw.png	172.95751309394836	
60	86.40165686607361	picture	0		172	58.0	/experiments/knapen_aot/AOT/AOT_stimuli/pictures/1969_fw.png	172.97860598564148	1.4374611377716064
60	87.82901191711426	response	0	k		58.0	/experiments/knapen_aot/AOT/AOT_stimuli/pictures/1969_fw.png	174.40596103668213	
61	87.83911800384521	picture	0		176	59.0	/experiments/knapen_aot/AOT/AOT_stimuli/pictures/0008_fw.png	174.4160671234131	1.4652869701385498
61	89.29571390151978	response	0	k		59.0	/experiments/knapen_aot/AOT/AOT_stimuli/pictures/0008_fw.png	175.87266302108765	
62	89.30440497398376	picture	0		185	60.0	/experiments/knapen_aot/AOT/AOT_stimuli/pictures/1626_fw.png	175.88135409355164	1.5416228771209717
62	90.83744502067566	response	0	k		60.0	/experiments/knapen_aot/AOT/AOT_stimuli/pictures/1626_fw.png	177.41439414024353	
63	90.84602785110474	picture	0		143	61.0	/experiments/knapen_aot/AOT/AOT_stimuli/pictures/0106_fw.png	177.4229769706726	1.1944401264190674
63	92.0290310382843	response	0	k		61.0	/experiments/knapen_aot/AOT/AOT_stimuli/pictures/0106_fw.png	178.60598015785217	
64	92.0404679775238	picture	0		96	62.0	/experiments/knapen_aot/AOT/AOT_stimuli/pictures/0567_fw.png	178.61741709709167	0.7986140251159668
64	92.82901096343994	response	0	k		62.0	/experiments/knapen_aot/AOT/AOT_stimuli/pictures/0567_fw.png	179.4059600830078	
65	92.83908200263977	picture	0		84	63.0	/experiments/knapen_aot/AOT/AOT_stimuli/pictures/1042_fw.png	179.41603112220764	0.7013659477233887
65	93.52900385856628	response	0	j		63.0	/experiments/knapen_aot/AOT/AOT_stimuli/pictures/1042_fw.png	180.10595297813416	
66	93.54044795036316	picture	0		90	64.0	/experiments/knapen_aot/AOT/AOT_stimuli/pictures/1848_fw.png	180.11739706993103	0.7499649524688721
66	94.27903604507446	response	0	k		64.0	/experiments/knapen_aot/AOT/AOT_stimuli/pictures/1848_fw.png	180.85598516464233	
67	94.29041290283203	picture	0		129	65.0	/experiments/knapen_aot/AOT/AOT_stimuli/pictures/0415_fw.png	180.8673620223999	1.0763700008392334
67	95.35398983955383	response	0	k		65.0	/experiments/knapen_aot/AOT/AOT_stimuli/pictures/0415_fw.png	181.9309389591217	
68	95.36678290367126	picture	0		168	66.0	/experiments/knapen_aot/AOT/AOT_stimuli/pictures/2068_fw.png	181.94373202323914	1.395833969116211
68	96.7539918422699	response	0	k		66.0	/experiments/knapen_aot/AOT/AOT_stimuli/pictures/2068_fw.png	183.33094096183777	
69	96.76261687278748	picture	0		104	67.0	/experiments/knapen_aot/AOT/AOT_stimuli/pictures/1392_fw.png	183.33956599235535	0.8680801391601562
69	97.62070488929749	response	0	j		67.0	/experiments/knapen_aot/AOT/AOT_stimuli/pictures/1392_fw.png	184.19765400886536	
70	97.63069701194763	picture	0		169	68.0	/experiments/knapen_aot/AOT/AOT_stimuli/pictures/1356_fw.png	184.2076461315155	1.414834976196289
70	99.02214097976685	response	0	k		68.0	/experiments/knapen_aot/AOT/AOT_stimuli/pictures/1356_fw.png	185.59909009933472	
71	99.04553198814392	picture	0		214	69.0	/experiments/knapen_aot/AOT/AOT_stimuli/pictures/1608_fw.png	185.6224811077118	1.7864789962768555
71	100.8139078617096	response	0	k		69.0	/experiments/knapen_aot/AOT/AOT_stimuli/pictures/1608_fw.png	187.39085698127747	
72	100.83201098442078	picture	0		108	70.0	/experiments/knapen_aot/AOT/AOT_stimuli/pictures/1284_fw.png	187.40896010398865	0.9028010368347168
72	101.72106790542603	response	0	j		70.0	/experiments/knapen_aot/AOT/AOT_stimuli/pictures/1284_fw.png	188.2980170249939	
73	101.7348120212555	picture	0		108	71.0	/experiments/knapen_aot/AOT/AOT_stimuli/pictures/0712_fw.png	188.31176114082336	0.9027879238128662
73	102.62890791893005	response	0	j		71.0	/experiments/knapen_aot/AOT/AOT_stimuli/pictures/0712_fw.png	189.20585703849792	
74	102.63759994506836	picture	0		133	72.0	/experiments/knapen_aot/AOT/AOT_stimuli/pictures/1907_fw.png	189.21454906463623	1.111069917678833
74	103.73730492591858	response	0	k		72.0	/experiments/knapen_aot/AOT/AOT_stimuli/pictures/1907_fw.png	190.31425404548645	
75	103.74866986274719	picture	0		154	73.0	/experiments/knapen_aot/AOT/AOT_stimuli/pictures/2105_fw.png	190.32561898231506	1.2847390174865723
75	105.01420187950134	response	0	j		73.0	/experiments/knapen_aot/AOT/AOT_stimuli/pictures/2105_fw.png	191.5911509990692	
76	105.03340888023376	picture	0		104	74.0	/experiments/knapen_aot/AOT/AOT_stimuli/pictures/2150_fw.png	191.61035799980164	0.8704431056976318
76	105.88767790794373	response	0	j		74.0	/experiments/knapen_aot/AOT/AOT_stimuli/pictures/2150_fw.png	192.4646270275116	
77	105.9038519859314	picture	0		104	75.0	/experiments/knapen_aot/AOT/AOT_stimuli/pictures/0548_fw.png	192.48080110549927	0.8725728988647461
77	106.76270604133606	response	0	j		75.0	/experiments/knapen_aot/AOT/AOT_stimuli/pictures/0548_fw.png	193.33965516090393	
78	106.77642488479614	picture	0		114	76.0	/experiments/knapen_aot/AOT/AOT_stimuli/pictures/1954_fw.png	193.353374004364	0.9583301544189453
78	107.72095704078674	response	0	k		76.0	/experiments/knapen_aot/AOT/AOT_stimuli/pictures/1954_fw.png	194.29790616035461	
79	107.73475503921509	picture	0		132	77.0	/experiments/knapen_aot/AOT/AOT_stimuli/pictures/0236_fw.png	194.31170415878296	1.1041820049285889
79	108.82210683822632	response	0	k		77.0	/experiments/knapen_aot/AOT/AOT_stimuli/pictures/0236_fw.png	195.3990559577942	
80	108.83893704414368	picture	0		97	78.0	/experiments/knapen_aot/AOT/AOT_stimuli/pictures/1549_fw.png	195.41588616371155	0.8149049282073975
80	109.63763093948364	response	0	j		78.0	/experiments/knapen_aot/AOT/AOT_stimuli/pictures/1549_fw.png	196.2145800590515	
81	109.65384197235107	picture	0		146	79.0	/experiments/knapen_aot/AOT/AOT_stimuli/pictures/2108_fw.png	196.23079109191895	1.2249999046325684
81	110.86230802536011	response	0	k		79.0	/experiments/knapen_aot/AOT/AOT_stimuli/pictures/2108_fw.png	197.43925714492798	
82	110.87884187698364	picture	0		109	80.0	/experiments/knapen_aot/AOT/AOT_stimuli/pictures/0992_fw.png	197.4557909965515	0.9114739894866943
82	111.77899193763733	response	0	k		80.0	/experiments/knapen_aot/AOT/AOT_stimuli/pictures/0992_fw.png	198.3559410572052	
83	111.79031586647034	picture	0		182	81.0	/experiments/knapen_aot/AOT/AOT_stimuli/pictures/0447_fw.png	198.3672649860382	1.5137970447540283
83	113.29555988311768	response	0	k		81.0	/experiments/knapen_aot/AOT/AOT_stimuli/pictures/0447_fw.png	199.87250900268555	
84	113.30411291122437	picture	0		196	82.0	/experiments/knapen_aot/AOT/AOT_stimuli/pictures/1245_fw.png	199.88106203079224	1.6389050483703613
84	114.92931699752808	response	0	k		82.0	/experiments/knapen_aot/AOT/AOT_stimuli/pictures/1245_fw.png	201.50626611709595	
85	114.94301795959473	picture	0		133	83.0	/experiments/knapen_aot/AOT/AOT_stimuli/pictures/0931_fw.png	201.5199670791626	1.1111230850219727
85	116.0456428527832	response	0	j		83.0	/experiments/knapen_aot/AOT/AOT_stimuli/pictures/0931_fw.png	202.62259197235107	
86	116.0541410446167	picture	0		195	84.0	/experiments/knapen_aot/AOT/AOT_stimuli/pictures/2145_fw.png	202.63109016418457	1.633009910583496
86	117.6705629825592	response	0	j		84.0	/experiments/knapen_aot/AOT/AOT_stimuli/pictures/2145_fw.png	204.24751210212708	
87	117.6871509552002	picture	0		114	85.0	/experiments/knapen_aot/AOT/AOT_stimuli/pictures/0314_fw.png	204.26410007476807	0.9503250122070312
87	118.62220096588135	response	0	k		85.0	/experiments/knapen_aot/AOT/AOT_stimuli/pictures/0314_fw.png	205.19915008544922	
88	118.63747596740723	picture	0		120	86.0	/experiments/knapen_aot/AOT/AOT_stimuli/pictures/1985_fw.png	205.2144250869751	1.0000028610229492
88	119.62206888198853	response	0	j		86.0	/experiments/knapen_aot/AOT/AOT_stimuli/pictures/1985_fw.png	206.1990180015564	
89	119.63747882843018	picture	0		88	87.0	/experiments/knapen_aot/AOT/AOT_stimuli/pictures/1028_fw.png	206.21442794799805	0.7360200881958008
89	120.36220288276672	response	0	j		87.0	/experiments/knapen_aot/AOT/AOT_stimuli/pictures/1028_fw.png	206.9391520023346	
90	120.37349891662598	picture	0		87	88.0	/experiments/knapen_aot/AOT/AOT_stimuli/pictures/0579_fw.png	206.95044803619385	0.7222199440002441
90	121.08717584609985	response	0	k		88.0	/experiments/knapen_aot/AOT/AOT_stimuli/pictures/0579_fw.png	207.66412496566772	
91	121.09571886062622	picture	0		95	89.0	/experiments/knapen_aot/AOT/AOT_stimuli/pictures/2024_fw.png	207.6726679801941	0.7997441291809082
91	121.8788628578186	response	0	k		89.0	/experiments/knapen_aot/AOT/AOT_stimuli/pictures/2024_fw.png	208.45581197738647	
92	121.89546298980713	picture	0		94	90.0	/experiments/knapen_aot/AOT/AOT_stimuli/pictures/0126_fw.png	208.472412109375	0.7918269634246826
92	122.67055892944336	response	0	k		90.0	/experiments/knapen_aot/AOT/AOT_stimuli/pictures/0126_fw.png	209.24750804901123	
93	122.68728995323181	picture	0		155	91.0	/experiments/knapen_aot/AOT/AOT_stimuli/pictures/0175_fw.png	209.26423907279968	1.297334909439087
93	123.97079300880432	response	0	k		91.0	/experiments/knapen_aot/AOT/AOT_stimuli/pictures/0175_fw.png	210.5477421283722	
94	123.9846248626709	picture	0		96	92.0	/experiments/knapen_aot/AOT/AOT_stimuli/pictures/0060_fw.png	210.56157398223877	0.8055181503295898
94	124.77885389328003	response	0	k		92.0	/experiments/knapen_aot/AOT/AOT_stimuli/pictures/0060_fw.png	211.3558030128479	
95	124.79014301300049	picture	0		77	93.0	/experiments/knapen_aot/AOT/AOT_stimuli/pictures/1232_fw.png	211.36709213256836	0.6388018131256104
95	125.41375589370728	response	0	j		93.0	/experiments/knapen_aot/AOT/AOT_stimuli/pictures/1232_fw.png	211.99070501327515	
96	125.4289448261261	picture	0		85	94.0	/experiments/knapen_aot/AOT/AOT_stimuli/pictures/1222_fw.png	212.00589394569397	0.716515064239502
96	126.12891793251038	response	0	k		94.0	/experiments/knapen_aot/AOT/AOT_stimuli/pictures/1222_fw.png	212.70586705207825	
97	126.1454598903656	picture	0		86	95.0	/experiments/knapen_aot/AOT/AOT_stimuli/pictures/0243_fw.png	212.72240900993347	0.7210559844970703
97	126.85385394096375	response	0	k		95.0	/experiments/knapen_aot/AOT/AOT_stimuli/pictures/0243_fw.png	213.43080306053162	
98	126.86651587486267	picture	0		120	96.0	/experiments/knapen_aot/AOT/AOT_stimuli/pictures/0827_fw.png	213.44346499443054	0.9999761581420898
98	127.85384488105774	response	0	k		96.0	/experiments/knapen_aot/AOT/AOT_stimuli/pictures/0827_fw.png	214.4307940006256	
99	127.86649203300476	picture	0		95	97.0	/experiments/knapen_aot/AOT/AOT_stimuli/pictures/0341_fw.png	214.44344115257263	0.7955880165100098
99	128.64548897743225	response	0	k		97.0	/experiments/knapen_aot/AOT/AOT_stimuli/pictures/0341_fw.png	215.22243809700012	
100	128.66208004951477	picture	0		136	98.0	/experiments/knapen_aot/AOT/AOT_stimuli/pictures/1647_fw.png	215.23902916908264	1.13496994972229
100	129.78719091415405	response	0	j		98.0	/experiments/knapen_aot/AOT/AOT_stimuli/pictures/1647_fw.png	216.36414003372192	
101	129.79704999923706	picture	0		89	99.0	/experiments/knapen_aot/AOT/AOT_stimuli/pictures/1939_fw.png	216.37399911880493	0.7483358383178711
101	130.5288119316101	response	0	j		99.0	/experiments/knapen_aot/AOT/AOT_stimuli/pictures/1939_fw.png	217.10576105117798	
102	130.54538583755493	picture	0		119	100.0	/experiments/knapen_aot/AOT/AOT_stimuli/pictures/0192_fw.png	217.1223349571228	0.9947171211242676
102	131.52887296676636	response	0	j		100.0	/experiments/knapen_aot/AOT/AOT_stimuli/pictures/0192_fw.png	218.10582208633423	
103	131.5401029586792	picture	0		130	101.0	/experiments/knapen_aot/AOT/AOT_stimuli/pictures/0203_fw.png	218.11705207824707	1.0832910537719727
103	132.6054458618164	response	0	k		101.0	/experiments/knapen_aot/AOT/AOT_stimuli/pictures/0203_fw.png	219.18239498138428	
104	132.62339401245117	picture	0		243	102.0	/experiments/knapen_aot/AOT/AOT_stimuli/pictures/0624_fw.png	219.20034313201904	2.0303688049316406
104	134.63739490509033	response	0	j		102.0	/experiments/knapen_aot/AOT/AOT_stimuli/pictures/0624_fw.png	221.2143440246582	
105	134.6537628173828	picture	0		88	103.0	/experiments/knapen_aot/AOT/AOT_stimuli/pictures/1673_fw.png	221.23071193695068	0.7334542274475098
105	135.37882494926453	response	0	j		103.0	/experiments/knapen_aot/AOT/AOT_stimuli/pictures/1673_fw.png	221.9557740688324	
106	135.38721704483032	picture	0		127	104.0	/experiments/knapen_aot/AOT/AOT_stimuli/pictures/0446_fw.png	221.9641661643982	1.0625529289245605
106	136.43717789649963	response	0	j		104.0	/experiments/knapen_aot/AOT/AOT_stimuli/pictures/0446_fw.png	223.0141270160675	
107	136.44976997375488	picture	0		97	105.0	/experiments/knapen_aot/AOT/AOT_stimuli/pictures/0347_fw.png	223.02671909332275	0.8055119514465332
107	137.24544382095337	response	0	j		105.0	/experiments/knapen_aot/AOT/AOT_stimuli/pictures/0347_fw.png	223.82239294052124	
108	137.25528192520142	picture	0		88	106.0	/experiments/knapen_aot/AOT/AOT_stimuli/pictures/1463_fw.png	223.8322310447693	0.7360880374908447
108	137.9789559841156	response	0	j		106.0	/experiments/knapen_aot/AOT/AOT_stimuli/pictures/1463_fw.png	224.55590510368347	
109	137.99136996269226	picture	0		99	107.0	/experiments/knapen_aot/AOT/AOT_stimuli/pictures/0407_fw.png	224.56831908226013	0.826524019241333
109	138.80393385887146	response	0	j		107.0	/experiments/knapen_aot/AOT/AOT_stimuli/pictures/0407_fw.png	225.38088297843933	
110	138.8178939819336	picture	0		83	108.0	/experiments/knapen_aot/AOT/AOT_stimuli/pictures/1632_fw.png	225.39484310150146	0.7024979591369629
110	139.50380492210388	response	0	k		108.0	/experiments/knapen_aot/AOT/AOT_stimuli/pictures/1632_fw.png	226.08075404167175	
111	139.52039194107056	picture	0		102	109.0	/experiments/knapen_aot/AOT/AOT_stimuli/pictures/0632_fw.png	226.09734106063843	0.8529250621795654
111	140.3621108531952	response	0	k		109.0	/experiments/knapen_aot/AOT/AOT_stimuli/pictures/0632_fw.png	226.93905997276306	
112	140.37331700325012	picture	0		129	110.0	/experiments/knapen_aot/AOT/AOT_stimuli/pictures/0907_fw.png	226.950266122818	1.0765259265899658
112	141.43050503730774	response	0	j		110.0	/experiments/knapen_aot/AOT/AOT_stimuli/pictures/0907_fw.png	228.0074541568756	
113	141.4498429298401	picture	0		126	111.0	/experiments/knapen_aot/AOT/AOT_stimuli/pictures/0985_fw.png	228.02679204940796	1.048435926437378
113	142.4870958328247	response	0	j		111.0	/experiments/knapen_aot/AOT/AOT_stimuli/pictures/0985_fw.png	229.06404495239258	
114	142.49827885627747	picture	0		295	112.0	/experiments/knapen_aot/AOT/AOT_stimuli/pictures/1860_fw.png	229.07522797584534	2.4583070278167725
114	144.9454219341278	response	0	k		112.0	/experiments/knapen_aot/AOT/AOT_stimuli/pictures/1860_fw.png	231.52237105369568	
115	144.95658588409424	picture	0		101	113.0	/experiments/knapen_aot/AOT/AOT_stimuli/pictures/1292_fw.png	231.5335350036621	0.8470759391784668
115	145.78710889816284	response	0	j		113.0	/experiments/knapen_aot/AOT/AOT_stimuli/pictures/1292_fw.png	232.3640580177307	
116	145.8036618232727	picture	0		106	114.0	/experiments/knapen_aot/AOT/AOT_stimuli/pictures/0610_fw.png	232.38061094284058	0.8916280269622803
116	146.67892503738403	response	0	k		114.0	/experiments/knapen_aot/AOT/AOT_stimuli/pictures/0610_fw.png	233.2558741569519	
117	146.69528985023499	picture	0		132	115.0	/experiments/knapen_aot/AOT/AOT_stimuli/pictures/0487_fw.png	233.27223896980286	1.1016571521759033
117	147.78710198402405	response	0	k		115.0	/experiments/knapen_aot/AOT/AOT_stimuli/pictures/0487_fw.png	234.36405110359192	
118	147.7969470024109	picture	0		382	116.0	/experiments/knapen_aot/AOT/AOT_stimuli/pictures/1948_fw.png	234.37389612197876	3.187417984008789
118	150.97054481506348	response	0	j		116.0	/experiments/knapen_aot/AOT/AOT_stimuli/pictures/1948_fw.png	237.54749393463135	
119	150.98436498641968	picture	0		95	117.0	/experiments/knapen_aot/AOT/AOT_stimuli/pictures/0444_fw.png	237.56131410598755	0.7985680103302002
119	151.77044081687927	response	0	k		117.0	/experiments/knapen_aot/AOT/AOT_stimuli/pictures/0444_fw.png	238.34738993644714	
120	151.78293299674988	picture	0		116	118.0	/experiments/knapen_aot/AOT/AOT_stimuli/pictures/2009_fw.png	238.35988211631775	0.9653229713439941
120	152.73709893226624	response	0	j		118.0	/experiments/knapen_aot/AOT/AOT_stimuli/pictures/2009_fw.png	239.3140480518341	
121	152.74825596809387	picture	0		214	119.0	/experiments/knapen_aot/AOT/AOT_stimuli/pictures/0480_fw.png	239.32520508766174	1.7846260070800781
121	154.52040696144104	response	0	k		119.0	/experiments/knapen_aot/AOT/AOT_stimuli/pictures/0480_fw.png	241.0973560810089	
122	154.53288197517395	picture	0		87	120.0	/experiments/knapen_aot/AOT/AOT_stimuli/pictures/1366_fw.png	241.10983109474182	0.7291219234466553
122	155.24538493156433	response	0	j		120.0	/experiments/knapen_aot/AOT/AOT_stimuli/pictures/1366_fw.png	241.8223340511322	
123	155.2620038986206	picture	0		93	121.0	/experiments/knapen_aot/AOT/AOT_stimuli/pictures/1005_fw.png	241.83895301818848	0.7778480052947998
123	156.02187991142273	response	0	j		121.0	/experiments/knapen_aot/AOT/AOT_stimuli/pictures/1005_fw.png	242.5988290309906	
124	156.0398519039154	picture	0		217	122.0	/experiments/knapen_aot/AOT/AOT_stimuli/pictures/1730_fw.png	242.61680102348328	1.8137500286102295
124	157.8303680419922	response	0	j		122.0	/experiments/knapen_aot/AOT/AOT_stimuli/pictures/1730_fw.png	244.40731716156006	
125	157.85360193252563	picture	0		150	123.0	/experiments/knapen_aot/AOT/AOT_stimuli/pictures/0618_fw.png	244.4305510520935	1.2584710121154785
125	159.0954258441925	response	0	k		123.0	/experiments/knapen_aot/AOT/AOT_stimuli/pictures/0618_fw.png	245.67237496376038	
126	159.1120729446411	picture	0		90	124.0	/experiments/knapen_aot/AOT/AOT_stimuli/pictures/0647_fw.png	245.68902206420898	0.7541298866271973
126	159.85368394851685	response	0	k		124.0	/experiments/knapen_aot/AOT/AOT_stimuli/pictures/0647_fw.png	246.43063306808472	
127	159.8662028312683	picture	0		136	125.0	/experiments/knapen_aot/AOT/AOT_stimuli/pictures/1957_fw.png	246.44315195083618	1.1375410556793213
127	160.9870250225067	response	0	k		125.0	/experiments/knapen_aot/AOT/AOT_stimuli/pictures/1957_fw.png	247.56397414207458	
128	161.00374388694763	picture	0		86	126.0	/experiments/knapen_aot/AOT/AOT_stimuli/pictures/1357_fw.png	247.5806930065155	0.7165710926055908
128	161.71202683448792	response	0	j		126.0	/experiments/knapen_aot/AOT/AOT_stimuli/pictures/1357_fw.png	248.2889759540558	
129	161.72031497955322	picture	0		118	127.0	/experiments/knapen_aot/AOT/AOT_stimuli/pictures/0213_fw.png	248.2972640991211	0.9861178398132324
129	162.6953890323639	response	0	j		127.0	/experiments/knapen_aot/AOT/AOT_stimuli/pictures/0213_fw.png	249.27233815193176	
130	162.70643281936646	picture	0		91	128.0	/experiments/knapen_aot/AOT/AOT_stimuli/pictures/0527_fw.png	249.28338193893433	0.7569470405578613
130	163.44683599472046	response	0	k		128.0	/experiments/knapen_aot/AOT/AOT_stimuli/pictures/0527_fw.png	250.02378511428833	
131	163.46337985992432	picture	0		91	129.0	/experiments/knapen_aot/AOT/AOT_stimuli/pictures/2038_fw.png	250.0403289794922	0.7569310665130615
131	164.21208381652832	response	0	j		129.0	/experiments/knapen_aot/AOT/AOT_stimuli/pictures/2038_fw.png	250.7890329360962	
132	164.22031092643738	picture	0		125	130.0	/experiments/knapen_aot/AOT/AOT_stimuli/pictures/1874_fw.png	250.79726004600525	1.0416340827941895
132	165.25370383262634	response	0	k		130.0	/experiments/knapen_aot/AOT/AOT_stimuli/pictures/1874_fw.png	251.8306529521942	
133	165.26194500923157	picture	0		109	131.0	/experiments/knapen_aot/AOT/AOT_stimuli/pictures/0462_fw.png	251.83889412879944	0.9098629951477051
133	166.1620228290558	response	0	j		131.0	/experiments/knapen_aot/AOT/AOT_stimuli/pictures/0462_fw.png	252.73897194862366	
134	166.17180800437927	picture	0		123	132.0	/experiments/knapen_aot/AOT/AOT_stimuli/pictures/2034_fw.png	252.74875712394714	1.0317978858947754
134	167.18701696395874	response	0	k		132.0	/experiments/knapen_aot/AOT/AOT_stimuli/pictures/2034_fw.png	253.7639660835266	
135	167.20360589027405	picture	0		101	133.0	/experiments/knapen_aot/AOT/AOT_stimuli/pictures/0322_fw.png	253.78055500984192	0.8430619239807129
135	168.03020000457764	response	0	k		133.0	/experiments/knapen_aot/AOT/AOT_stimuli/pictures/0322_fw.png	254.6071491241455	
136	168.04666781425476	picture	0		98	134.0	/experiments/knapen_aot/AOT/AOT_stimuli/pictures/0592_fw.png	254.62361693382263	0.8194072246551514
136	168.8536639213562	response	0	k		134.0	/experiments/knapen_aot/AOT/AOT_stimuli/pictures/0592_fw.png	255.43061304092407	
137	168.8660750389099	picture	0		133	135.0	/experiments/knapen_aot/AOT/AOT_stimuli/pictures/1210_fw.png	255.44302415847778	1.1125237941741943
137	169.96198081970215	response	0	j		135.0	/experiments/knapen_aot/AOT/AOT_stimuli/pictures/1210_fw.png	256.53892993927	
138	169.9785988330841	picture	0		127	136.0	/experiments/knapen_aot/AOT/AOT_stimuli/pictures/2156_fw.png	256.555547952652	1.0610990524291992
138	171.0219178199768	response	0	k		136.0	/experiments/knapen_aot/AOT/AOT_stimuli/pictures/2156_fw.png	257.5988669395447	
139	171.0396978855133	picture	0		111	137.0	/experiments/knapen_aot/AOT/AOT_stimuli/pictures/0475_fw.png	257.6166470050812	0.9235799312591553
139	171.95363998413086	response	0	k		137.0	/experiments/knapen_aot/AOT/AOT_stimuli/pictures/0475_fw.png	258.53058910369873	
140	171.96327781677246	picture	0		163	138.0	/experiments/knapen_aot/AOT/AOT_stimuli/pictures/0145_fw.png	258.54022693634033	1.3654282093048096
140	173.31195282936096	response	0	k		138.0	/experiments/knapen_aot/AOT/AOT_stimuli/pictures/0145_fw.png	259.88890194892883	
141	173.32870602607727	picture	0		113	139.0	/experiments/knapen_aot/AOT/AOT_stimuli/pictures/0810_fw.png	259.90565514564514	0.9470529556274414
141	174.2619879245758	response	0	j		139.0	/experiments/knapen_aot/AOT/AOT_stimuli/pictures/0810_fw.png	260.8389370441437	
142	174.2757589817047	picture	0		176	140.0	/experiments/knapen_aot/AOT/AOT_stimuli/pictures/0100_fw.png	260.8527081012726	1.4778540134429932
142	175.73695492744446	response	0	k		140.0	/experiments/knapen_aot/AOT/AOT_stimuli/pictures/0100_fw.png	262.31390404701233	
143	175.7536129951477	picture	0		138	141.0	/experiments/knapen_aot/AOT/AOT_stimuli/pictures/1961_fw.png	262.3305621147156	1.1583569049835205
143	176.89530682563782	response	0	k		141.0	/experiments/knapen_aot/AOT/AOT_stimuli/pictures/1961_fw.png	263.4722559452057	
144	176.91196990013123	picture	0		92	142.0	/experiments/knapen_aot/AOT/AOT_stimuli/pictures/1453_fw.png	263.4889190196991	0.7749199867248535
144	177.67032194137573	response	0	k		142.0	/experiments/knapen_aot/AOT/AOT_stimuli/pictures/1453_fw.png	264.2472710609436	
145	177.68688988685608	picture	0		136	143.0	/experiments/knapen_aot/AOT/AOT_stimuli/pictures/1603_fw.png	264.26383900642395	1.1374220848083496
145	178.81193590164185	response	0	j		143.0	/experiments/knapen_aot/AOT/AOT_stimuli/pictures/1603_fw.png	265.3888850212097	
146	178.82431197166443	picture	0		287	144.0	/experiments/knapen_aot/AOT/AOT_stimuli/pictures/0508_fw.png	265.4012610912323	2.388906955718994
146	181.20365500450134	response	0	k		144.0	/experiments/knapen_aot/AOT/AOT_stimuli/pictures/0508_fw.png	267.7806041240692	
147	181.21321892738342	picture	0		111	145.0	/experiments/knapen_aot/AOT/AOT_stimuli/pictures/1744_fw.png	267.7901680469513	0.9321091175079346
147	182.12861895561218	response	0	k		145.0	/experiments/knapen_aot/AOT/AOT_stimuli/pictures/1744_fw.png	268.70556807518005	
148	182.14532804489136	picture	0		85	146.0	/experiments/knapen_aot/AOT/AOT_stimuli/pictures/1493_fw.png	268.72227716445923	0.7137439250946045
148	182.83851599693298	response	0	j		146.0	/experiments/knapen_aot/AOT/AOT_stimuli/pictures/1493_fw.png	269.41546511650085	
149	182.85907196998596	picture	0		110	147.0	/experiments/knapen_aot/AOT/AOT_stimuli/pictures/2043_fw.png	269.43602108955383	0.9236490726470947
149	183.7702498435974	response	0	j		147.0	/experiments/knapen_aot/AOT/AOT_stimuli/pictures/2043_fw.png	270.3471989631653	
150	183.78272104263306	picture	0		82	148.0	/experiments/knapen_aot/AOT/AOT_stimuli/pictures/1684_fw.png	270.3596701622009	0.6804358959197998
150	184.44699788093567	response	0	j		148.0	/experiments/knapen_aot/AOT/AOT_stimuli/pictures/1684_fw.png	271.02394700050354	
151	184.46315693855286	picture	0		77	149.0	/experiments/knapen_aot/AOT/AOT_stimuli/pictures/1077_fw.png	271.0401060581207	0.648669958114624
151	185.09523391723633	response	0	k		149.0	/experiments/knapen_aot/AOT/AOT_stimuli/pictures/1077_fw.png	271.6721830368042	
152	185.11182689666748	picture	0		225	150.0	/experiments/knapen_aot/AOT/AOT_stimuli/pictures/0110_fw.png	271.68877601623535	1.8790791034698486
152	186.97865986824036	response	0	k		150.0	/experiments/knapen_aot/AOT/AOT_stimuli/pictures/0110_fw.png	273.5556089878082	
153	186.99090600013733	picture	0		418	151.0	/experiments/knapen_aot/AOT/AOT_stimuli/pictures/0170_fw.png	273.5678551197052	3.479214906692505
153	190.46192383766174	response	0	k		151.0	/experiments/knapen_aot/AOT/AOT_stimuli/pictures/0170_fw.png	277.0388729572296	
154	190.47012090682983	picture	0		110	152.0	/experiments/knapen_aot/AOT/AOT_stimuli/pictures/0932_fw.png	277.0470700263977	0.9250190258026123
154	191.3785629272461	response	0	k		152.0	/experiments/knapen_aot/AOT/AOT_stimuli/pictures/0932_fw.png	277.95551204681396	
155	191.39513993263245	picture	0		82	153.0	/experiments/knapen_aot/AOT/AOT_stimuli/pictures/2124_fw.png	277.9720890522003	0.686060905456543
155	192.0701928138733	response	0	k		153.0	/experiments/knapen_aot/AOT/AOT_stimuli/pictures/2124_fw.png	278.64714193344116	
156	192.081200838089	picture	0		90	154.0	/experiments/knapen_aot/AOT/AOT_stimuli/pictures/1416_fw.png	278.65814995765686	0.7500100135803223
156	192.82025384902954	response	0	k		154.0	/experiments/knapen_aot/AOT/AOT_stimuli/pictures/1416_fw.png	279.3972029685974	
157	192.8312108516693	picture	0		271	155.0	/experiments/knapen_aot/AOT/AOT_stimuli/pictures/0935_fw.png	279.4081599712372	2.256855010986328
157	195.07854795455933	response	0	k		155.0	/experiments/knapen_aot/AOT/AOT_stimuli/pictures/0935_fw.png	281.6554970741272	
158	195.08806586265564	picture	0		123	156.0	/experiments/knapen_aot/AOT/AOT_stimuli/pictures/0189_fw.png	281.6650149822235	1.0277671813964844
158	196.10354495048523	response	0	k		156.0	/experiments/knapen_aot/AOT/AOT_stimuli/pictures/0189_fw.png	282.6804940700531	
159	196.11583304405212	picture	0		121	157.0	/experiments/knapen_aot/AOT/AOT_stimuli/pictures/1548_fw.png	282.69278216362	1.0069448947906494
159	197.11190795898438	response	0	j		157.0	/experiments/knapen_aot/AOT/AOT_stimuli/pictures/1548_fw.png	283.68885707855225	
160	197.12277793884277	picture	0		144	158.0	/experiments/knapen_aot/AOT/AOT_stimuli/pictures/1197_fw.png	283.69972705841064	1.2013740539550781
160	198.3119080066681	response	0	j		158.0	/experiments/knapen_aot/AOT/AOT_stimuli/pictures/1197_fw.png	284.88885712623596	
161	198.32415199279785	picture	0		172	159.0	/experiments/knapen_aot/AOT/AOT_stimuli/pictures/1316_fw.png	284.9011011123657	1.4305388927459717
161	199.74515104293823	response	0	j		159.0	/experiments/knapen_aot/AOT/AOT_stimuli/pictures/1316_fw.png	286.3221001625061	
162	199.75469088554382	picture	0		97	160.0	/experiments/knapen_aot/AOT/AOT_stimuli/pictures/0572_fw.png	286.3316400051117	0.8125159740447998
162	200.55356884002686	response	0	j		160.0	/experiments/knapen_aot/AOT/AOT_stimuli/pictures/0572_fw.png	287.1305179595947	
163	200.56720685958862	picture	0		92	161.0	/experiments/knapen_aot/AOT/AOT_stimuli/pictures/1802_fw.png	287.1441559791565	0.7708170413970947
163	201.3285038471222	response	0	j		161.0	/experiments/knapen_aot/AOT/AOT_stimuli/pictures/1802_fw.png	287.90545296669006	
164	201.33802390098572	picture	0		100	162.0	/experiments/knapen_aot/AOT/AOT_stimuli/pictures/0934_fw.png	287.9149730205536	0.8403761386871338
164	202.16188383102417	response	0	k		162.0	/experiments/knapen_aot/AOT/AOT_stimuli/pictures/0934_fw.png	288.73883295059204	
165	202.17840003967285	picture	0		93	163.0	/experiments/knapen_aot/AOT/AOT_stimuli/pictures/1362_fw.png	288.7553491592407	0.7833688259124756
165	202.9451780319214	response	0	j		163.0	/experiments/knapen_aot/AOT/AOT_stimuli/pictures/1362_fw.png	289.52212715148926	
166	202.96176886558533	picture	0		86	164.0	/experiments/knapen_aot/AOT/AOT_stimuli/pictures/1903_fw.png	289.5387179851532	0.725121021270752
166	203.66343092918396	response	0	j		164.0	/experiments/knapen_aot/AOT/AOT_stimuli/pictures/1903_fw.png	290.24038004875183	
167	203.68688988685608	picture	0		198	165.0	/experiments/knapen_aot/AOT/AOT_stimuli/pictures/0802_fw.png	290.26383900642395	1.6510770320892334
167	205.32853984832764	response	0	k		165.0	/experiments/knapen_aot/AOT/AOT_stimuli/pictures/0802_fw.png	291.9054889678955	
168	205.3379669189453	picture	0		120	166.0	/experiments/knapen_aot/AOT/AOT_stimuli/pictures/1051_fw.png	291.9149160385132	1.0000200271606445
168	206.32853198051453	response	0	j		166.0	/experiments/knapen_aot/AOT/AOT_stimuli/pictures/1051_fw.png	292.9054811000824	
169	206.33798694610596	picture	0		95	167.0	/experiments/knapen_aot/AOT/AOT_stimuli/pictures/1659_fw.png	292.9149360656738	0.798861026763916
169	207.120267868042	response	0	j		167.0	/experiments/knapen_aot/AOT/AOT_stimuli/pictures/1659_fw.png	293.69721698760986	
170	207.13684797286987	picture	0		81	168.0	/experiments/knapen_aot/AOT/AOT_stimuli/pictures/2005_fw.png	293.71379709243774	0.6832079887390137
170	207.8034749031067	response	0	j		168.0	/experiments/knapen_aot/AOT/AOT_stimuli/pictures/2005_fw.png	294.38042402267456	
171	207.8200559616089	picture	0		87	169.0	/experiments/knapen_aot/AOT/AOT_stimuli/pictures/0720_fw.png	294.39700508117676	0.7262308597564697
171	208.5368049144745	response	0	j		169.0	/experiments/knapen_aot/AOT/AOT_stimuli/pictures/0720_fw.png	295.11375403404236	
172	208.54628682136536	picture	0		109	170.0	/experiments/knapen_aot/AOT/AOT_stimuli/pictures/1502_fw.png	295.1232359409332	0.9097301959991455
172	209.4384138584137	response	0	k		170.0	/experiments/knapen_aot/AOT/AOT_stimuli/pictures/1502_fw.png	296.01536297798157	
173	209.4560170173645	picture	0		98	171.0	/experiments/knapen_aot/AOT/AOT_stimuli/pictures/0824_fw.png	296.0329661369324	0.8194179534912109
173	210.25512886047363	response	0	j		171.0	/experiments/knapen_aot/AOT/AOT_stimuli/pictures/0824_fw.png	296.8320779800415	
174	210.2754349708557	picture	0		82	172.0	/experiments/knapen_aot/AOT/AOT_stimuli/pictures/0569_fw.png	296.8523840904236	0.6874959468841553
174	210.9534788131714	response	0	j		172.0	/experiments/knapen_aot/AOT/AOT_stimuli/pictures/0569_fw.png	297.53042793273926	
175	210.96293091773987	picture	0		88	173.0	/experiments/knapen_aot/AOT/AOT_stimuli/pictures/1625_fw.png	297.53988003730774	0.7362070083618164
175	211.6868178844452	response	0	j		173.0	/experiments/knapen_aot/AOT/AOT_stimuli/pictures/1625_fw.png	298.26376700401306	
176	211.69913792610168	picture	0		103	174.0	/experiments/knapen_aot/AOT/AOT_stimuli/pictures/0346_fw.png	298.27608704566956	0.8542320728302002
176	212.54514384269714	response	0	k		174.0	/experiments/knapen_aot/AOT/AOT_stimuli/pictures/0346_fw.png	299.122092962265	
177	212.55336999893188	picture	0		79	175.0	/experiments/knapen_aot/AOT/AOT_stimuli/pictures/1000_fw.png	299.13031911849976	0.6595339775085449
177	213.20350003242493	response	0	j		175.0	/experiments/knapen_aot/AOT/AOT_stimuli/pictures/1000_fw.png	299.7804491519928	
178	213.21290397644043	picture	0		180	176.0	/experiments/knapen_aot/AOT/AOT_stimuli/pictures/0059_fw.png	299.7898530960083	1.500032901763916
178	214.70347595214844	response	0	j		176.0	/experiments/knapen_aot/AOT/AOT_stimuli/pictures/0059_fw.png	301.2804250717163	
179	214.71293687820435	picture	0		85	177.0	/experiments/knapen_aot/AOT/AOT_stimuli/pictures/0582_fw.png	301.2898859977722	0.7082901000976562
179	215.41177582740784	response	0	j		177.0	/experiments/knapen_aot/AOT/AOT_stimuli/pictures/0582_fw.png	301.9887249469757	
180	215.421226978302	picture	0		118	178.0	/experiments/knapen_aot/AOT/AOT_stimuli/pictures/1849_fw.png	301.9981760978699	0.9860470294952393
180	216.3951699733734	response	0	j		178.0	/experiments/knapen_aot/AOT/AOT_stimuli/pictures/1849_fw.png	302.9721190929413	
181	216.40727400779724	picture	0		147	179.0	/experiments/knapen_aot/AOT/AOT_stimuli/pictures/2123_fw.png	302.9842231273651	1.2222909927368164
181	217.62014198303223	response	0	j		179.0	/experiments/knapen_aot/AOT/AOT_stimuli/pictures/2123_fw.png	304.1970911026001	
182	217.62956500053406	stim	0		111			304.20651412010193	0.9237709045410156
182	218.54511904716492	response	0	space				305.1220681667328	
