trial_nr	onset	event_type	phase	response	nr_frames	picture_index	picture_file	onset_abs	duration
0	0.043257417011773214	stim	0		2054			18.732676708023064	17.16406204100349
0	17.19508258299902	response	0	space				35.88450187401031	
2	17.207319458015263	picture	0		723	0.0	/Users/shufanzhang/Documents/PhD/Arrow_of_time/arrow_of_time/pictures/R_S_yt-uSHBdUi8_V0_24.png	35.896738749026554	6.030965749989264
2	23.228596333006863	response	0	j		0.0	/Users/shufanzhang/Documents/PhD/Arrow_of_time/arrow_of_time/pictures/R_S_yt-uSHBdUi8_V0_24.png	41.91801562401815	
3	23.238285208004527	picture	0		42	1.0	/Users/shufanzhang/Documents/PhD/Arrow_of_time/arrow_of_time/pictures/R_S_yt-WhQMF3WM0Ig_29.png	41.92770449901582	0.3608572090161033
3	23.593074042000808	response	0	j		1.0	/Users/shufanzhang/Documents/PhD/Arrow_of_time/arrow_of_time/pictures/R_S_yt-WhQMF3WM0Ig_29.png	42.2824933330121	
4	23.59914241702063	picture	0		32	2.0	/Users/shufanzhang/Documents/PhD/Arrow_of_time/arrow_of_time/pictures/R_S_ILnEDG_aP1A_35.png	42.28856170803192	0.25529408297734335
4	23.84515587502392	response	0	j		2.0	/Users/shufanzhang/Documents/PhD/Arrow_of_time/arrow_of_time/pictures/R_S_ILnEDG_aP1A_35.png	42.53457516603521	
5	23.854436499997973	picture	0		29	3.0	/Users/shufanzhang/Documents/PhD/Arrow_of_time/arrow_of_time/pictures/S_b5-3.png	42.543855791009264	0.24913879201631062
5	24.094330625026487	response	0	j		3.0	/Users/shufanzhang/Documents/PhD/Arrow_of_time/arrow_of_time/pictures/S_b5-3.png	42.78374991603778	
6	24.103575292014284	picture	0		42	4.0	/Users/shufanzhang/Documents/PhD/Arrow_of_time/arrow_of_time/pictures/R_S_production_ID_3944248.png	42.792994583025575	0.33890166599303484
6	24.431251458008774	response	0	j		4.0	/Users/shufanzhang/Documents/PhD/Arrow_of_time/arrow_of_time/pictures/R_S_production_ID_3944248.png	43.120670749020064	
7	24.44247695800732	picture	0		50	5.0	/Users/shufanzhang/Documents/PhD/Arrow_of_time/arrow_of_time/pictures/n01630670_121.JPEG	43.13189624901861	0.4190224590129219
7	24.85235095801181	response	0	j		5.0	/Users/shufanzhang/Documents/PhD/Arrow_of_time/arrow_of_time/pictures/n01630670_121.JPEG	43.5417702490231	
8	24.86149941702024	picture	0		67	6.0	/Users/shufanzhang/Documents/PhD/Arrow_of_time/arrow_of_time/pictures/S_pexels-laker-5793000.png	43.55091870803153	0.5672255409881473
8	25.419842083007097	response	0	j		6.0	/Users/shufanzhang/Documents/PhD/Arrow_of_time/arrow_of_time/pictures/S_pexels-laker-5793000.png	44.10926137401839	
9	25.428724958008388	picture	0		51	7.0	/Users/shufanzhang/Documents/PhD/Arrow_of_time/arrow_of_time/pictures/R_S_ILSVRC2015_train_00369000.png	44.11814424901968	0.4193711669940967
9	25.830838082998525	response	0	j		7.0	/Users/shufanzhang/Documents/PhD/Arrow_of_time/arrow_of_time/pictures/R_S_ILSVRC2015_train_00369000.png	44.520257374009816	
10	25.848096125002485	picture	0		44	8.0	/Users/shufanzhang/Documents/PhD/Arrow_of_time/arrow_of_time/pictures/S_ILSVRC2015_train_00415001.png	44.537515416013775	0.3683985420211684
10	26.206990000006044	response	0	j		8.0	/Users/shufanzhang/Documents/PhD/Arrow_of_time/arrow_of_time/pictures/S_ILSVRC2015_train_00415001.png	44.896409291017335	
11	26.216494667023653	picture	0		49	9.0	/Users/shufanzhang/Documents/PhD/Arrow_of_time/arrow_of_time/pictures/n04613696_11624.JPEG	44.905913958034944	0.4114728749846108
11	26.618918583000777	response	0	j		9.0	/Users/shufanzhang/Documents/PhD/Arrow_of_time/arrow_of_time/pictures/n04613696_11624.JPEG	45.30833787401207	
12	26.627967542008264	picture	0		51	10.0	/Users/shufanzhang/Documents/PhD/Arrow_of_time/arrow_of_time/pictures/n02859443_21872.JPEG	45.317386833019555	0.41978808300336823
12	27.038831333018607	response	0	j		10.0	/Users/shufanzhang/Documents/PhD/Arrow_of_time/arrow_of_time/pictures/n02859443_21872.JPEG	45.7282506240299	
13	27.047755625011632	picture	0		59	11.0	/Users/shufanzhang/Documents/PhD/Arrow_of_time/arrow_of_time/pictures/n07714990_3116.JPEG	45.73717491602292	0.5003701249952428
13	27.537128666997887	response	0	j		11.0	/Users/shufanzhang/Documents/PhD/Arrow_of_time/arrow_of_time/pictures/n07714990_3116.JPEG	46.22654795800918	
14	27.548125750006875	picture	0		68	12.0	/Users/shufanzhang/Documents/PhD/Arrow_of_time/arrow_of_time/pictures/n01882714_3551.JPEG	46.237545041018166	0.5630472500051837
14	28.102507083007367	response	0	j		12.0	/Users/shufanzhang/Documents/PhD/Arrow_of_time/arrow_of_time/pictures/n01882714_3551.JPEG	46.79192637401866	
15	28.11117300001206	picture	0		116	13.0	/Users/shufanzhang/Documents/PhD/Arrow_of_time/arrow_of_time/pictures/S_yt-nB2WgvYt7bA_170.png	46.80059229102335	0.965603958000429
15	29.069074042025022	response	0	j		13.0	/Users/shufanzhang/Documents/PhD/Arrow_of_time/arrow_of_time/pictures/S_yt-nB2WgvYt7bA_170.png	47.75849333303631	
16	29.076776958012488	picture	0		51	14.0	/Users/shufanzhang/Documents/PhD/Arrow_of_time/arrow_of_time/pictures/R_S_yt-RO4mhuXBVrY_67.png	47.76619624902378	0.41843550000339746
16	29.482220917008817	response	0	j		14.0	/Users/shufanzhang/Documents/PhD/Arrow_of_time/arrow_of_time/pictures/R_S_yt-RO4mhuXBVrY_67.png	48.17164020802011	
17	29.495212458015885	picture	0		77	15.0	/Users/shufanzhang/Documents/PhD/Arrow_of_time/arrow_of_time/pictures/R_S_yt-6xXEMHBQ08A_28.png	48.184631749027176	0.6400295420025941
17	30.123335500014946	response	0	j		15.0	/Users/shufanzhang/Documents/PhD/Arrow_of_time/arrow_of_time/pictures/R_S_yt-6xXEMHBQ08A_28.png	48.81275479102624	
18	30.13524200001848	picture	0		58	16.0	/Users/shufanzhang/Documents/PhD/Arrow_of_time/arrow_of_time/pictures/n13044778_706.JPEG	48.82466129102977	0.48570024999207817
18	30.607777208002517	response	0	j		16.0	/Users/shufanzhang/Documents/PhD/Arrow_of_time/arrow_of_time/pictures/n13044778_706.JPEG	49.29719649901381	
19	30.620942250010557	picture	0		76	17.0	/Users/shufanzhang/Documents/PhD/Arrow_of_time/arrow_of_time/pictures/S_Pexels_Videos_278654_1.png	49.31036154102185	0.6421718749916181
19	31.252317875012523	response	0	j		17.0	/Users/shufanzhang/Documents/PhD/Arrow_of_time/arrow_of_time/pictures/S_Pexels_Videos_278654_1.png	49.94173716602381	
20	31.263114125002176	picture	0		53	18.0	/Users/shufanzhang/Documents/PhD/Arrow_of_time/arrow_of_time/pictures/n04443257_5252.JPEG	49.952533416013466	0.4352950000029523
20	31.687801250023767	response	0	j		18.0	/Users/shufanzhang/Documents/PhD/Arrow_of_time/arrow_of_time/pictures/n04443257_5252.JPEG	50.37722054103506	
21	31.698409125005128	picture	0		52	19.0	/Users/shufanzhang/Documents/PhD/Arrow_of_time/arrow_of_time/pictures/R_S_production_ID_4325591.png	50.38782841601642	0.4389759580080863
21	32.12768912501633	response	0	j		19.0	/Users/shufanzhang/Documents/PhD/Arrow_of_time/arrow_of_time/pictures/R_S_production_ID_4325591.png	50.81710841602762	
22	32.137385083013214	picture	0		51	20.0	/Users/shufanzhang/Documents/PhD/Arrow_of_time/arrow_of_time/pictures/S_yt-j3Sk8ZnAiEA_32.png	50.826804374024505	0.42412158398656175
22	32.55274491701857	response	0	j		20.0	/Users/shufanzhang/Documents/PhD/Arrow_of_time/arrow_of_time/pictures/S_yt-j3Sk8ZnAiEA_32.png	51.24216420802986	
23	32.561506666999776	picture	0		47	21.0	/Users/shufanzhang/Documents/PhD/Arrow_of_time/arrow_of_time/pictures/n02077923_6737.JPEG	51.25092595801107	0.3925181660160888
23	32.94423895800719	response	0	j		21.0	/Users/shufanzhang/Documents/PhD/Arrow_of_time/arrow_of_time/pictures/n02077923_6737.JPEG	51.63365824901848	
24	32.954024833015865	picture	0		60	22.0	/Users/shufanzhang/Documents/PhD/Arrow_of_time/arrow_of_time/pictures/R_S_yt-VfASxEzDrvc_145.png	51.643444124027155	0.5027174169954378
24	33.44360279201646	response	0	j		22.0	/Users/shufanzhang/Documents/PhD/Arrow_of_time/arrow_of_time/pictures/R_S_yt-VfASxEzDrvc_145.png	52.133022083027754	
25	33.4567422500113	picture	0		59	23.0	/Users/shufanzhang/Documents/PhD/Arrow_of_time/arrow_of_time/pictures/n04350905_11239.JPEG	52.14616154102259	0.4880392499908339
25	33.93599100000574	response	0	j		23.0	/Users/shufanzhang/Documents/PhD/Arrow_of_time/arrow_of_time/pictures/n04350905_11239.JPEG	52.62541029101703	
26	33.94478150000214	picture	0		70	24.0	/Users/shufanzhang/Documents/PhD/Arrow_of_time/arrow_of_time/pictures/n04081281_2467.JPEG	52.63420079101343	0.5753134170081466
26	34.511972667009104	response	0	j		24.0	/Users/shufanzhang/Documents/PhD/Arrow_of_time/arrow_of_time/pictures/n04081281_2467.JPEG	53.201391958020395	
27	34.52009491701028	picture	0		69	25.0	/Users/shufanzhang/Documents/PhD/Arrow_of_time/arrow_of_time/pictures/n04044716_20454.JPEG	53.209514208021574	0.5850017910124734
27	35.095738833013456	response	0	j		25.0	/Users/shufanzhang/Documents/PhD/Arrow_of_time/arrow_of_time/pictures/n04044716_20454.JPEG	53.78515812402475	
28	35.10509670802276	picture	0		55	26.0	/Users/shufanzhang/Documents/PhD/Arrow_of_time/arrow_of_time/pictures/S_yt-cu4AVz6o2eg_24.png	53.79451599903405	0.45702587498817593
28	35.552478708006674	response	0	j		26.0	/Users/shufanzhang/Documents/PhD/Arrow_of_time/arrow_of_time/pictures/S_yt-cu4AVz6o2eg_24.png	54.241897999017965	
29	35.56212258301093	picture	0		62	27.0	/Users/shufanzhang/Documents/PhD/Arrow_of_time/arrow_of_time/pictures/R_S_bing-www_dailymotion_com_video_x4kcklg_53.png	54.25154187402222	0.5117175419873092
29	36.064588708017254	response	0	j		27.0	/Users/shufanzhang/Documents/PhD/Arrow_of_time/arrow_of_time/pictures/R_S_bing-www_dailymotion_com_video_x4kcklg_53.png	54.754007999028545	
30	36.07384012499824	picture	0		52	28.0	/Users/shufanzhang/Documents/PhD/Arrow_of_time/arrow_of_time/pictures/S_yt-kYMffy4hTMo_107.png	54.76325941600953	0.4310143330076244
30	36.496249333024025	response	0	j		28.0	/Users/shufanzhang/Documents/PhD/Arrow_of_time/arrow_of_time/pictures/S_yt-kYMffy4hTMo_107.png	55.185668624035316	
31	36.504854458005866	picture	0		76	29.0	/Users/shufanzhang/Documents/PhD/Arrow_of_time/arrow_of_time/pictures/S_yt-S6N5FyjSFZE_4.png	55.19427374901716	0.6315140420047101
31	37.12373745802324	response	0	j		29.0	/Users/shufanzhang/Documents/PhD/Arrow_of_time/arrow_of_time/pictures/S_yt-S6N5FyjSFZE_4.png	55.81315674903453	
32	37.136368500010576	picture	0		69	30.0	/Users/shufanzhang/Documents/PhD/Arrow_of_time/arrow_of_time/pictures/n02687172_773.JPEG	55.82578779102187	0.5842986670031678
32	37.711658125015674	response	0	j		30.0	/Users/shufanzhang/Documents/PhD/Arrow_of_time/arrow_of_time/pictures/n02687172_773.JPEG	56.401077416026965	
33	37.720667167013744	picture	0		61	31.0	/Users/shufanzhang/Documents/PhD/Arrow_of_time/arrow_of_time/pictures/R_S_yt-kYMffy4hTMo_107.png	56.410086458025035	0.5056670829944778
33	38.217518958001165	response	0	j		31.0	/Users/shufanzhang/Documents/PhD/Arrow_of_time/arrow_of_time/pictures/R_S_yt-kYMffy4hTMo_107.png	56.906938249012455	
34	38.22633425000822	picture	0		65	32.0	/Users/shufanzhang/Documents/PhD/Arrow_of_time/arrow_of_time/pictures/R_S_b3TCugtX0h0_108.png	56.91575354101951	0.5354445830162149
34	38.753870125015965	response	0	j		32.0	/Users/shufanzhang/Documents/PhD/Arrow_of_time/arrow_of_time/pictures/R_S_b3TCugtX0h0_108.png	57.443289416027255	
35	38.76177883302444	picture	0		56	33.0	/Users/shufanzhang/Documents/PhD/Arrow_of_time/arrow_of_time/pictures/S_yt-AbJBxqEYoMg_27.png	57.45119812403573	0.46611329200095497
35	39.21425795802497	response	0	j		33.0	/Users/shufanzhang/Documents/PhD/Arrow_of_time/arrow_of_time/pictures/S_yt-AbJBxqEYoMg_27.png	57.903677249036264	
36	39.22789212502539	picture	0		60	34.0	/Users/shufanzhang/Documents/PhD/Arrow_of_time/arrow_of_time/pictures/n01795545_14217.JPEG	57.91731141603668	0.5099666249880102
36	39.72962845800794	response	0	j		34.0	/Users/shufanzhang/Documents/PhD/Arrow_of_time/arrow_of_time/pictures/n01795545_14217.JPEG	58.41904774901923	
37	39.7378587500134	picture	0		68	35.0	/Users/shufanzhang/Documents/PhD/Arrow_of_time/arrow_of_time/pictures/R_S_yt-hZxbKZ1WCVg_24.png	58.42727804102469	0.5652974999975413
37	40.29416670801584	response	0	j		35.0	/Users/shufanzhang/Documents/PhD/Arrow_of_time/arrow_of_time/pictures/R_S_yt-hZxbKZ1WCVg_24.png	58.98358599902713	
38	40.30315625001094	picture	0		53	36.0	/Users/shufanzhang/Documents/PhD/Arrow_of_time/arrow_of_time/pictures/R_S_yt-wEbfIR14zZ8_7.png	58.992575541022234	0.44172333300230093
38	40.735414417024	response	0	j		36.0	/Users/shufanzhang/Documents/PhD/Arrow_of_time/arrow_of_time/pictures/R_S_yt-wEbfIR14zZ8_7.png	59.424833708035294	
39	40.744879583013244	picture	0		76	37.0	/Users/shufanzhang/Documents/PhD/Arrow_of_time/arrow_of_time/pictures/S_ILSVRC2015_train_00417000.png	59.434298874024535	0.6294370419927873
39	41.35588316700887	response	0	j		37.0	/Users/shufanzhang/Documents/PhD/Arrow_of_time/arrow_of_time/pictures/S_ILSVRC2015_train_00417000.png	60.04530245802016	
40	41.37431662500603	picture	0		58	38.0	/Users/shufanzhang/Documents/PhD/Arrow_of_time/arrow_of_time/pictures/n04149813_4677.JPEG	60.06373591601732	0.4778895420022309
40	41.839523750008084	response	0	j		38.0	/Users/shufanzhang/Documents/PhD/Arrow_of_time/arrow_of_time/pictures/n04149813_4677.JPEG	60.528943041019375	
41	41.85220616700826	picture	0		67	39.0	/Users/shufanzhang/Documents/PhD/Arrow_of_time/arrow_of_time/pictures/n04606251_6163.JPEG	60.54162545801955	0.5594507910136599
41	42.39917170800618	response	0	j		39.0	/Users/shufanzhang/Documents/PhD/Arrow_of_time/arrow_of_time/pictures/n04606251_6163.JPEG	61.08859099901747	
42	42.41165695802192	picture	0		54	40.0	/Users/shufanzhang/Documents/PhD/Arrow_of_time/arrow_of_time/pictures/R_S_pexels-cottonbro-5310858.png	61.10107624903321	0.4609316249843687
42	42.86169725001673	response	0	j		40.0	/Users/shufanzhang/Documents/PhD/Arrow_of_time/arrow_of_time/pictures/R_S_pexels-cottonbro-5310858.png	61.55111654102802	
43	42.87258858300629	picture	0		83	41.0	/Users/shufanzhang/Documents/PhD/Arrow_of_time/arrow_of_time/pictures/n02749479_3074.JPEG	61.56200787401758	0.6869475000130478
43	43.53888683300465	response	0	j		41.0	/Users/shufanzhang/Documents/PhD/Arrow_of_time/arrow_of_time/pictures/n02749479_3074.JPEG	62.228306124015944	
44	43.55953608301934	picture	0		58	42.0	/Users/shufanzhang/Documents/PhD/Arrow_of_time/arrow_of_time/pictures/n03933933_11785.JPEG	62.24895537403063	0.4819417499820702
44	44.022319542011246	response	0	j		42.0	/Users/shufanzhang/Documents/PhD/Arrow_of_time/arrow_of_time/pictures/n03933933_11785.JPEG	62.71173883302254	
45	44.04147783300141	picture	0		58	43.0	/Users/shufanzhang/Documents/PhD/Arrow_of_time/arrow_of_time/pictures/R_S_comp_L007_C007_PS_v01_SDR_PS_20180925_SDR_2K_AVC.png	62.7308971240127	0.48691995901754126
45	44.519168667000486	response	0	j		43.0	/Users/shufanzhang/Documents/PhD/Arrow_of_time/arrow_of_time/pictures/R_S_comp_L007_C007_PS_v01_SDR_PS_20180925_SDR_2K_AVC.png	63.208587958011776	
46	44.52839779201895	picture	0		60	44.0	/Users/shufanzhang/Documents/PhD/Arrow_of_time/arrow_of_time/pictures/S_yt-lfDIg8kaXhA_169.png	63.21781708303024	0.4940694999822881
46	45.013090125023155	response	0	j		44.0	/Users/shufanzhang/Documents/PhD/Arrow_of_time/arrow_of_time/pictures/S_yt-lfDIg8kaXhA_169.png	63.702509416034445	
47	45.02246729200124	picture	0		58	45.0	/Users/shufanzhang/Documents/PhD/Arrow_of_time/arrow_of_time/pictures/S_yt-isJga8ec5UM_32.png	63.71188658301253	0.4897451249998994
47	45.50239320800756	response	0	j		45.0	/Users/shufanzhang/Documents/PhD/Arrow_of_time/arrow_of_time/pictures/S_yt-isJga8ec5UM_32.png	64.19181249901885	
48	45.51221241700114	picture	0		50	46.0	/Users/shufanzhang/Documents/PhD/Arrow_of_time/arrow_of_time/pictures/n09288635_24719.JPEG	64.20163170801243	0.4093100830214098
48	45.9125318750157	response	0	j		46.0	/Users/shufanzhang/Documents/PhD/Arrow_of_time/arrow_of_time/pictures/n09288635_24719.JPEG	64.60195116602699	
49	45.92152250002255	picture	0		50	47.0	/Users/shufanzhang/Documents/PhD/Arrow_of_time/arrow_of_time/pictures/S_yt-3E02UEHdoZ4_752.png	64.61094179103384	0.42376824998063967
49	46.3356276670238	response	0	j		47.0	/Users/shufanzhang/Documents/PhD/Arrow_of_time/arrow_of_time/pictures/S_yt-3E02UEHdoZ4_752.png	65.02504695803509	
50	46.34529075000319	picture	0		81	48.0	/Users/shufanzhang/Documents/PhD/Arrow_of_time/arrow_of_time/pictures/R_S_ILSVRC2015_train_00165009.png	65.03471004101448	0.6762223330151755
50	47.01200758302002	response	0	j		48.0	/Users/shufanzhang/Documents/PhD/Arrow_of_time/arrow_of_time/pictures/R_S_ILSVRC2015_train_00165009.png	65.70142687403131	
51	47.02151308301836	picture	0		52	49.0	/Users/shufanzhang/Documents/PhD/Arrow_of_time/arrow_of_time/pictures/S_yt-iiGwN9FQrZo_1.png	65.71093237402965	0.4223993750056252
51	47.43195325002307	response	0	j		49.0	/Users/shufanzhang/Documents/PhD/Arrow_of_time/arrow_of_time/pictures/S_yt-iiGwN9FQrZo_1.png	66.12137254103436	
52	47.44391245802399	picture	0		58	50.0	/Users/shufanzhang/Documents/PhD/Arrow_of_time/arrow_of_time/pictures/n03759954_13181.JPEG	66.13333174903528	0.49472333397716284
52	47.928224917006446	response	0	j		50.0	/Users/shufanzhang/Documents/PhD/Arrow_of_time/arrow_of_time/pictures/n03759954_13181.JPEG	66.61764420801774	
53	47.93863579200115	picture	0		69	51.0	/Users/shufanzhang/Documents/PhD/Arrow_of_time/arrow_of_time/pictures/S_pexels-cottonbro-5310858.png	66.62805508301244	0.5745067500101868
53	48.50380025000777	response	0	j		51.0	/Users/shufanzhang/Documents/PhD/Arrow_of_time/arrow_of_time/pictures/S_pexels-cottonbro-5310858.png	67.19321954101906	
54	48.51314254201134	picture	0		76	52.0	/Users/shufanzhang/Documents/PhD/Arrow_of_time/arrow_of_time/pictures/S_yt-5zcm2aYFYHw_49.png	67.20256183302263	0.6244139159971382
54	49.12932491701213	response	0	j		52.0	/Users/shufanzhang/Documents/PhD/Arrow_of_time/arrow_of_time/pictures/S_yt-5zcm2aYFYHw_49.png	67.81874420802342	
55	49.137556458008476	picture	0		65	53.0	/Users/shufanzhang/Documents/PhD/Arrow_of_time/arrow_of_time/pictures/S_production_ID_4820331.png	67.82697574901977	0.5454246250155848
55	49.6730977500265	response	0	j		53.0	/Users/shufanzhang/Documents/PhD/Arrow_of_time/arrow_of_time/pictures/S_production_ID_4820331.png	68.36251704103779	
56	49.68298108302406	picture	0		66	54.0	/Users/shufanzhang/Documents/PhD/Arrow_of_time/arrow_of_time/pictures/S_yt-Bx2kLEUuN0E_456.png	68.37240037403535	0.5461019589856733
56	50.22042879200308	response	0	j		54.0	/Users/shufanzhang/Documents/PhD/Arrow_of_time/arrow_of_time/pictures/S_yt-Bx2kLEUuN0E_456.png	68.90984808301437	
57	50.229083042009734	picture	0		78	55.0	/Users/shufanzhang/Documents/PhD/Arrow_of_time/arrow_of_time/pictures/n02134084_2844.JPEG	68.91850233302102	0.658595790999243
57	50.87810908301617	response	0	j		55.0	/Users/shufanzhang/Documents/PhD/Arrow_of_time/arrow_of_time/pictures/n02134084_2844.JPEG	69.56752837402746	
58	50.88767883300898	picture	0		79	56.0	/Users/shufanzhang/Documents/PhD/Arrow_of_time/arrow_of_time/pictures/S_comp_DB_D002_C003_PSNK_v04_SDR_PS_20180914_SDR_2K_AVC.png	69.57709812402027	0.658767374989111
58	51.53637904202333	response	0	j		56.0	/Users/shufanzhang/Documents/PhD/Arrow_of_time/arrow_of_time/pictures/S_comp_DB_D002_C003_PSNK_v04_SDR_PS_20180914_SDR_2K_AVC.png	70.22579833303462	
59	51.54644620799809	picture	0		132	57.0	/Users/shufanzhang/Documents/PhD/Arrow_of_time/arrow_of_time/pictures/S_yt-GjFQxAklviE_25.png	70.23586549900938	1.0891000420087948
59	52.62362079200102	response	0	j		57.0	/Users/shufanzhang/Documents/PhD/Arrow_of_time/arrow_of_time/pictures/S_yt-GjFQxAklviE_25.png	71.31304008301231	
60	52.63554625000688	picture	0		75	58.0	/Users/shufanzhang/Documents/PhD/Arrow_of_time/arrow_of_time/pictures/S_ILSVRC2015_train_00689000.png	71.32496554101817	0.6246295000019018
60	53.25146904200665	response	0	j		58.0	/Users/shufanzhang/Documents/PhD/Arrow_of_time/arrow_of_time/pictures/S_ILSVRC2015_train_00689000.png	71.94088833301794	
61	53.260175750008784	picture	0		72	59.0	/Users/shufanzhang/Documents/PhD/Arrow_of_time/arrow_of_time/pictures/n01630670_5687.JPEG	71.94959504102007	0.6081465420138557
61	53.85785083301016	response	0	j		59.0	/Users/shufanzhang/Documents/PhD/Arrow_of_time/arrow_of_time/pictures/n01630670_5687.JPEG	72.54727012402145	
62	53.86832229202264	picture	0		62	60.0	/Users/shufanzhang/Documents/PhD/Arrow_of_time/arrow_of_time/pictures/S_yt-ZPRkoZyAmfg_35.png	72.55774158303393	0.50896779098548
62	54.36446491701645	response	0	j		60.0	/Users/shufanzhang/Documents/PhD/Arrow_of_time/arrow_of_time/pictures/S_yt-ZPRkoZyAmfg_35.png	73.05388420802774	
63	54.37729008300812	picture	0		100	61.0	/Users/shufanzhang/Documents/PhD/Arrow_of_time/arrow_of_time/pictures/S_yt-n_eO-7KedAE_21.png	73.06670937401941	0.8424002499959897
63	55.21033954201266	response	0	j		61.0	/Users/shufanzhang/Documents/PhD/Arrow_of_time/arrow_of_time/pictures/S_yt-n_eO-7KedAE_21.png	73.89975883302395	
64	55.21969033300411	picture	0		64	62.0	/Users/shufanzhang/Documents/PhD/Arrow_of_time/arrow_of_time/pictures/R_S_yt-ThT8utBaywI_68.png	73.9091096240154	0.5238868750166148
64	55.731161833013175	response	0	j		62.0	/Users/shufanzhang/Documents/PhD/Arrow_of_time/arrow_of_time/pictures/R_S_yt-ThT8utBaywI_68.png	74.42058112402447	
65	55.743577208020724	picture	0		60	63.0	/Users/shufanzhang/Documents/PhD/Arrow_of_time/arrow_of_time/pictures/n02701002_23190.JPEG	74.43299649903201	0.5079812089970801
65	56.23962904201471	response	0	j		63.0	/Users/shufanzhang/Documents/PhD/Arrow_of_time/arrow_of_time/pictures/n02701002_23190.JPEG	74.929048333026	
66	56.251558417017804	picture	0		59	64.0	/Users/shufanzhang/Documents/PhD/Arrow_of_time/arrow_of_time/pictures/R_S_yt-sTBOjPxix5c_1072.png	74.9409777080291	0.49359554098919034
66	56.73555533299805	response	0	j		64.0	/Users/shufanzhang/Documents/PhD/Arrow_of_time/arrow_of_time/pictures/R_S_yt-sTBOjPxix5c_1072.png	75.42497462400934	
67	56.745153958006995	picture	0		56	65.0	/Users/shufanzhang/Documents/PhD/Arrow_of_time/arrow_of_time/pictures/R_S_yt-RlHmMGUjT9E_130.png	75.43457324901829	0.46888433399726637
67	57.20359308301704	response	0	j		65.0	/Users/shufanzhang/Documents/PhD/Arrow_of_time/arrow_of_time/pictures/R_S_yt-RlHmMGUjT9E_130.png	75.89301237402833	
68	57.21403829200426	picture	0		55	66.0	/Users/shufanzhang/Documents/PhD/Arrow_of_time/arrow_of_time/pictures/n02808304_4255.JPEG	75.90345758301555	0.45681504101958126
68	57.661484458018094	response	0	j		66.0	/Users/shufanzhang/Documents/PhD/Arrow_of_time/arrow_of_time/pictures/n02808304_4255.JPEG	76.35090374902938	
69	57.67085333302384	picture	0		67	67.0	/Users/shufanzhang/Documents/PhD/Arrow_of_time/arrow_of_time/pictures/S_Roller_Coaster.png	76.36027262403513	0.5582122920022812
69	58.2188034170249	response	0	j		67.0	/Users/shufanzhang/Documents/PhD/Arrow_of_time/arrow_of_time/pictures/S_Roller_Coaster.png	76.90822270803619	
70	58.229065625026124	picture	0		57	68.0	/Users/shufanzhang/Documents/PhD/Arrow_of_time/arrow_of_time/pictures/n09468604_17339.JPEG	76.91848491603741	0.4685422919865232
70	58.67999420801061	response	0	j		68.0	/Users/shufanzhang/Documents/PhD/Arrow_of_time/arrow_of_time/pictures/n09468604_17339.JPEG	77.3694134990219	
71	58.69760791701265	picture	0		59	69.0	/Users/shufanzhang/Documents/PhD/Arrow_of_time/arrow_of_time/pictures/S_yt-VjTiMtjdjTw_103.png	77.38702720802394	0.49808250000933185
71	59.18607804202475	response	0	j		69.0	/Users/shufanzhang/Documents/PhD/Arrow_of_time/arrow_of_time/pictures/S_yt-VjTiMtjdjTw_103.png	77.87549733303604	
72	59.19569041702198	picture	0		57	70.0	/Users/shufanzhang/Documents/PhD/Arrow_of_time/arrow_of_time/pictures/n03126707_2670.JPEG	77.88510970803327	0.4644179579918273
72	59.648123667022446	response	0	j		70.0	/Users/shufanzhang/Documents/PhD/Arrow_of_time/arrow_of_time/pictures/n03126707_2670.JPEG	78.33754295803374	
73	59.660108375013806	picture	0		76	71.0	/Users/shufanzhang/Documents/PhD/Arrow_of_time/arrow_of_time/pictures/R_S_yt-7WYXuBHeorw_188.png	78.3495276660251	0.6374677919957321
73	60.28851054201368	response	0	j		71.0	/Users/shufanzhang/Documents/PhD/Arrow_of_time/arrow_of_time/pictures/R_S_yt-7WYXuBHeorw_188.png	78.97792983302497	
74	60.29757616700954	picture	0		57	72.0	/Users/shufanzhang/Documents/PhD/Arrow_of_time/arrow_of_time/pictures/n02027492_526.JPEG	78.98699545802083	0.48399025000981055
74	60.77142912501586	response	0	j		72.0	/Users/shufanzhang/Documents/PhD/Arrow_of_time/arrow_of_time/pictures/n02027492_526.JPEG	79.46084841602715	
75	60.78156641701935	picture	0		52	73.0	/Users/shufanzhang/Documents/PhD/Arrow_of_time/arrow_of_time/pictures/R_S_yt-XF0fyyFEgWo_280.png	79.47098570803064	0.43006749998312443
75	61.20009312502225	response	0	j		73.0	/Users/shufanzhang/Documents/PhD/Arrow_of_time/arrow_of_time/pictures/R_S_yt-XF0fyyFEgWo_280.png	79.88951241603354	
76	61.21163391700247	picture	0		64	74.0	/Users/shufanzhang/Documents/PhD/Arrow_of_time/arrow_of_time/pictures/n03967562_4179.JPEG	79.90105320801376	0.5429692500038072
76	61.74445325002307	response	0	j		74.0	/Users/shufanzhang/Documents/PhD/Arrow_of_time/arrow_of_time/pictures/n03967562_4179.JPEG	80.43387254103436	
77	61.75460316700628	picture	0		54	75.0	/Users/shufanzhang/Documents/PhD/Arrow_of_time/arrow_of_time/pictures/S_production_ID_4707837.png	80.44402245801757	0.4485440000134986
77	62.19399045800674	response	0	j		75.0	/Users/shufanzhang/Documents/PhD/Arrow_of_time/arrow_of_time/pictures/S_production_ID_4707837.png	80.88340974901803	
78	62.20314716701978	picture	0		61	76.0	/Users/shufanzhang/Documents/PhD/Arrow_of_time/arrow_of_time/pictures/R_S_yt-KpOAdMtPGFs_17.png	80.89256645803107	0.5046370409836527
78	62.69916329201078	response	0	j		76.0	/Users/shufanzhang/Documents/PhD/Arrow_of_time/arrow_of_time/pictures/R_S_yt-KpOAdMtPGFs_17.png	81.38858258302207	
79	62.70778420800343	picture	0		72	77.0	/Users/shufanzhang/Documents/PhD/Arrow_of_time/arrow_of_time/pictures/n03447721_6651.JPEG	81.39720349901472	0.5938202500110492
79	63.29336891701678	response	0	j		77.0	/Users/shufanzhang/Documents/PhD/Arrow_of_time/arrow_of_time/pictures/n03447721_6651.JPEG	81.98278820802807	
80	63.30160445801448	picture	0		53	78.0	/Users/shufanzhang/Documents/PhD/Arrow_of_time/arrow_of_time/pictures/S_video_inspire_texas_austin_oct2019_evening_00085.png	81.99102374902577	0.4523402919876389
80	63.744063917023595	response	0	j		78.0	/Users/shufanzhang/Documents/PhD/Arrow_of_time/arrow_of_time/pictures/S_video_inspire_texas_austin_oct2019_evening_00085.png	82.43348320803489	
81	63.75394475000212	picture	0		68	79.0	/Users/shufanzhang/Documents/PhD/Arrow_of_time/arrow_of_time/pictures/R_S_yt-R-SETZtYWaA_336.png	82.44336404101341	0.5668052080145571
81	64.31014941702597	response	0	j		79.0	/Users/shufanzhang/Documents/PhD/Arrow_of_time/arrow_of_time/pictures/R_S_yt-R-SETZtYWaA_336.png	82.99956870803726	
82	64.32074995801668	picture	0		101	80.0	/Users/shufanzhang/Documents/PhD/Arrow_of_time/arrow_of_time/pictures/n03733281_29174.JPEG	83.01016924902797	0.8322722089942545
82	65.14502754202113	response	0	j		80.0	/Users/shufanzhang/Documents/PhD/Arrow_of_time/arrow_of_time/pictures/n03733281_29174.JPEG	83.83444683303242	
83	65.15302216701093	picture	0		72	81.0	/Users/shufanzhang/Documents/PhD/Arrow_of_time/arrow_of_time/pictures/R_S_wc-jujp1kJRHrkJ_54.png	83.84244145802222	0.5998088750056922
83	65.73958166700322	response	0	j		81.0	/Users/shufanzhang/Documents/PhD/Arrow_of_time/arrow_of_time/pictures/R_S_wc-jujp1kJRHrkJ_54.png	84.42900095801451	
84	65.75283104201662	picture	0		70	82.0	/Users/shufanzhang/Documents/PhD/Arrow_of_time/arrow_of_time/pictures/R_S_yt-Fm97IY0Z2LU_110.png	84.44225033302791	0.5859931659942959
84	66.32876895801746	response	0	j		82.0	/Users/shufanzhang/Documents/PhD/Arrow_of_time/arrow_of_time/pictures/R_S_yt-Fm97IY0Z2LU_110.png	85.01818824902875	
85	66.33882420801092	picture	0		60	83.0	/Users/shufanzhang/Documents/PhD/Arrow_of_time/arrow_of_time/pictures/S_pexels-mikhail-nilov-8410084.png	85.02824349902221	0.5073949999932665
85	66.83609341701958	response	0	j		83.0	/Users/shufanzhang/Documents/PhD/Arrow_of_time/arrow_of_time/pictures/S_pexels-mikhail-nilov-8410084.png	85.52551270803087	
86	66.84621920800419	picture	0		76	84.0	/Users/shufanzhang/Documents/PhD/Arrow_of_time/arrow_of_time/pictures/n01737021_18954.JPEG	85.53563849901548	0.6253577090101317
86	67.45560612500412	response	0	j		84.0	/Users/shufanzhang/Documents/PhD/Arrow_of_time/arrow_of_time/pictures/n01737021_18954.JPEG	86.14502541601541	
87	67.47157691701432	picture	0		66	85.0	/Users/shufanzhang/Documents/PhD/Arrow_of_time/arrow_of_time/pictures/n09256479_4321.JPEG	86.16099620802561	0.5560676250024699
87	68.01782520802226	response	0	j		85.0	/Users/shufanzhang/Documents/PhD/Arrow_of_time/arrow_of_time/pictures/n09256479_4321.JPEG	86.70724449903355	
88	68.02764454201679	picture	0		61	86.0	/Users/shufanzhang/Documents/PhD/Arrow_of_time/arrow_of_time/pictures/S_yt-9EnchawJ3pA_90.png	86.71706383302808	0.506275291001657
88	68.51384295802563	response	0	j		86.0	/Users/shufanzhang/Documents/PhD/Arrow_of_time/arrow_of_time/pictures/S_yt-9EnchawJ3pA_90.png	87.20326224903692	
89	68.53391983301844	picture	0		64	87.0	/Users/shufanzhang/Documents/PhD/Arrow_of_time/arrow_of_time/pictures/S_yt-EAMpitsjbbA_153.png	87.22333912402974	0.5284347499837168
89	69.05189620802412	response	0	j		87.0	/Users/shufanzhang/Documents/PhD/Arrow_of_time/arrow_of_time/pictures/S_yt-EAMpitsjbbA_153.png	87.74131549903541	
90	69.06235458300216	picture	0		66	88.0	/Users/shufanzhang/Documents/PhD/Arrow_of_time/arrow_of_time/pictures/n02101556_5243.JPEG	87.75177387401345	0.5582113340205979
90	69.61100591701688	response	0	j		88.0	/Users/shufanzhang/Documents/PhD/Arrow_of_time/arrow_of_time/pictures/n02101556_5243.JPEG	88.30042520802817	
91	69.62056591702276	picture	0		56	89.0	/Users/shufanzhang/Documents/PhD/Arrow_of_time/arrow_of_time/pictures/R_S_yt-22c5eZ1UNME_76.png	88.30998520803405	0.46278124998207204
91	70.07189362501958	response	0	j		89.0	/Users/shufanzhang/Documents/PhD/Arrow_of_time/arrow_of_time/pictures/R_S_yt-22c5eZ1UNME_76.png	88.76131291603087	
92	70.08334716700483	picture	0		110	90.0	/Users/shufanzhang/Documents/PhD/Arrow_of_time/arrow_of_time/pictures/n02403003_6124.JPEG	88.77276645801612	0.9105480410216842
92	70.98201116701239	response	0	j		90.0	/Users/shufanzhang/Documents/PhD/Arrow_of_time/arrow_of_time/pictures/n02403003_6124.JPEG	89.67143045802368	
93	70.99389520802652	picture	0		235	91.0	/Users/shufanzhang/Documents/PhD/Arrow_of_time/arrow_of_time/pictures/S_ILSVRC2015_train_00425000.png	89.6833144990378	1.966472000000067
93	72.94529895801679	response	0	j		91.0	/Users/shufanzhang/Documents/PhD/Arrow_of_time/arrow_of_time/pictures/S_ILSVRC2015_train_00425000.png	91.63471824902808	
94	72.96036720802658	picture	0		79	92.0	/Users/shufanzhang/Documents/PhD/Arrow_of_time/arrow_of_time/pictures/n03838899_21453.JPEG	91.64978649903787	0.6511988749844022
94	73.59856129201944	response	0	j		92.0	/Users/shufanzhang/Documents/PhD/Arrow_of_time/arrow_of_time/pictures/n03838899_21453.JPEG	92.28798058303073	
95	73.61156608301098	picture	0		101	93.0	/Users/shufanzhang/Documents/PhD/Arrow_of_time/arrow_of_time/pictures/R_S_comp_DB_D002_C003_PSNK_v04_SDR_PS_20180914_SDR_2K_AVC.png	92.30098537402228	0.8531146250024904
95	74.45321191701805	response	0	j		93.0	/Users/shufanzhang/Documents/PhD/Arrow_of_time/arrow_of_time/pictures/R_S_comp_DB_D002_C003_PSNK_v04_SDR_PS_20180914_SDR_2K_AVC.png	93.14263120802934	
96	74.46468070801347	picture	0		340	94.0	/Users/shufanzhang/Documents/PhD/Arrow_of_time/arrow_of_time/pictures/n02667093_5587.JPEG	93.15409999902477	2.8298748749948572
96	77.28501833300106	response	0	j		94.0	/Users/shufanzhang/Documents/PhD/Arrow_of_time/arrow_of_time/pictures/n02667093_5587.JPEG	95.97443762401235	
97	77.29455558300833	picture	0		225	95.0	/Users/shufanzhang/Documents/PhD/Arrow_of_time/arrow_of_time/pictures/S_yt-Oxu6w0Zx9dQ_3.png	95.98397487401962	1.8717071670107543
97	79.1471663750126	response	0	j		95.0	/Users/shufanzhang/Documents/PhD/Arrow_of_time/arrow_of_time/pictures/S_yt-Oxu6w0Zx9dQ_3.png	97.8365856660239	
98	79.16626275001909	picture	0		82	96.0	/Users/shufanzhang/Documents/PhD/Arrow_of_time/arrow_of_time/pictures/S_b3TCugtX0h0_108.png	97.85568204103038	0.6775372499832883
98	79.83087175001856	response	0	j		96.0	/Users/shufanzhang/Documents/PhD/Arrow_of_time/arrow_of_time/pictures/S_b3TCugtX0h0_108.png	98.52029104102985	
99	79.84380000000237	picture	0		66	97.0	/Users/shufanzhang/Documents/PhD/Arrow_of_time/arrow_of_time/pictures/S_SE_A016_C009_SDR_20190717_SDR_2K_AVC.png	98.53321929101367	0.5548572920088191
99	80.38601924999966	response	0	j		97.0	/Users/shufanzhang/Documents/PhD/Arrow_of_time/arrow_of_time/pictures/S_SE_A016_C009_SDR_20190717_SDR_2K_AVC.png	99.07543854101095	
100	80.3986572920112	picture	0		64	98.0	/Users/shufanzhang/Documents/PhD/Arrow_of_time/arrow_of_time/pictures/n01978455_4275.JPEG	99.08807658302248	0.5391871249885298
100	80.92731041699881	response	0	j		98.0	/Users/shufanzhang/Documents/PhD/Arrow_of_time/arrow_of_time/pictures/n01978455_4275.JPEG	99.6167297080101	
101	80.93784441699972	picture	0		62	99.0	/Users/shufanzhang/Documents/PhD/Arrow_of_time/arrow_of_time/pictures/n04026417_2612.JPEG	99.62726370801101	0.5159010410134215
101	81.4403273750213	response	0	j		99.0	/Users/shufanzhang/Documents/PhD/Arrow_of_time/arrow_of_time/pictures/n04026417_2612.JPEG	100.12974666603259	
102	81.45374545801315	picture	0		78	100.0	/Users/shufanzhang/Documents/PhD/Arrow_of_time/arrow_of_time/pictures/n01860187_6680.JPEG	100.14316474902444	0.6433558749849908
102	82.08594045802602	response	0	j		100.0	/Users/shufanzhang/Documents/PhD/Arrow_of_time/arrow_of_time/pictures/n01860187_6680.JPEG	100.7753597490373	
103	82.09710133299814	picture	0		88	101.0	/Users/shufanzhang/Documents/PhD/Arrow_of_time/arrow_of_time/pictures/R_S_yt-ejSzwn8tY8g_49.png	100.78652062400943	0.741827584017301
103	82.82791662501404	response	0	j		101.0	/Users/shufanzhang/Documents/PhD/Arrow_of_time/arrow_of_time/pictures/R_S_yt-ejSzwn8tY8g_49.png	101.51733591602533	
104	82.83892891701544	picture	0		94	102.0	/Users/shufanzhang/Documents/PhD/Arrow_of_time/arrow_of_time/pictures/n03888605_32925.JPEG	101.52834820802673	0.7744969159830362
104	83.60493587501696	response	0	j		102.0	/Users/shufanzhang/Documents/PhD/Arrow_of_time/arrow_of_time/pictures/n03888605_32925.JPEG	102.29435516602825	
105	83.61342583299847	picture	0		59	103.0	/Users/shufanzhang/Documents/PhD/Arrow_of_time/arrow_of_time/pictures/n03982430_519.JPEG	102.30284512400976	0.49230091701610945
105	84.08770662502502	response	0	j		103.0	/Users/shufanzhang/Documents/PhD/Arrow_of_time/arrow_of_time/pictures/n03982430_519.JPEG	102.77712591603631	
106	84.10572675001458	picture	0		80	104.0	/Users/shufanzhang/Documents/PhD/Arrow_of_time/arrow_of_time/pictures/S_Pexels_Videos_2791797.png	102.79514604102587	0.6693338330078404
106	84.75558004202321	response	0	j		104.0	/Users/shufanzhang/Documents/PhD/Arrow_of_time/arrow_of_time/pictures/S_Pexels_Videos_2791797.png	103.4449993330345	
107	84.77506058302242	picture	0		68	105.0	/Users/shufanzhang/Documents/PhD/Arrow_of_time/arrow_of_time/pictures/n04238763_6377.JPEG	103.46447987403371	0.5785348339995835
107	85.34375966701191	response	0	j		105.0	/Users/shufanzhang/Documents/PhD/Arrow_of_time/arrow_of_time/pictures/n04238763_6377.JPEG	104.0331789580232	
108	85.353595417022	picture	0		80	106.0	/Users/shufanzhang/Documents/PhD/Arrow_of_time/arrow_of_time/pictures/n02058221_3542.JPEG	104.0430147080333	0.6648071249946952
108	86.01011020800797	response	0	j		106.0	/Users/shufanzhang/Documents/PhD/Arrow_of_time/arrow_of_time/pictures/n02058221_3542.JPEG	104.69952949901926	
109	86.0184025420167	picture	0		69	107.0	/Users/shufanzhang/Documents/PhD/Arrow_of_time/arrow_of_time/pictures/n13052670_922.JPEG	104.70782183302799	0.5849632080062293
109	86.59411054200609	response	0	j		107.0	/Users/shufanzhang/Documents/PhD/Arrow_of_time/arrow_of_time/pictures/n13052670_922.JPEG	105.28352983301738	
110	86.60336575002293	picture	0		88	108.0	/Users/shufanzhang/Documents/PhD/Arrow_of_time/arrow_of_time/pictures/n04147183_33318.JPEG	105.29278504103422	0.7242852499766741
110	87.3226528330124	response	0	j		108.0	/Users/shufanzhang/Documents/PhD/Arrow_of_time/arrow_of_time/pictures/n04147183_33318.JPEG	106.01207212402369	
111	87.3276509999996	picture	0		64	109.0	/Users/shufanzhang/Documents/PhD/Arrow_of_time/arrow_of_time/pictures/S_yt-bWXohhodbjg_86.png	106.0170702910109	0.5470569170138333
111	87.85753779200604	response	0	j		109.0	/Users/shufanzhang/Documents/PhD/Arrow_of_time/arrow_of_time/pictures/S_yt-bWXohhodbjg_86.png	106.54695708301733	
112	87.87470791701344	picture	0		71	110.0	/Users/shufanzhang/Documents/PhD/Arrow_of_time/arrow_of_time/pictures/n01664065_25400.JPEG	106.56412720802473	0.5925423750013579
112	88.46073833300034	response	0	j		110.0	/Users/shufanzhang/Documents/PhD/Arrow_of_time/arrow_of_time/pictures/n01664065_25400.JPEG	107.15015762401163	
113	88.4672502920148	picture	0		66	111.0	/Users/shufanzhang/Documents/PhD/Arrow_of_time/arrow_of_time/pictures/n02492035_9172.JPEG	107.15666958302609	0.556789791007759
113	89.01210904199979	response	0	j		111.0	/Users/shufanzhang/Documents/PhD/Arrow_of_time/arrow_of_time/pictures/n02492035_9172.JPEG	107.70152833301108	
114	89.02404008302256	picture	0		66	112.0	/Users/shufanzhang/Documents/PhD/Arrow_of_time/arrow_of_time/pictures/n03272010_433.JPEG	107.71345937403385	0.5439091669977643
114	89.56042470800458	response	0	j		112.0	/Users/shufanzhang/Documents/PhD/Arrow_of_time/arrow_of_time/pictures/n03272010_433.JPEG	108.24984399901587	
115	89.56794925002032	picture	0		63	113.0	/Users/shufanzhang/Documents/PhD/Arrow_of_time/arrow_of_time/pictures/S_yt-OdTWn1U1mO4_68.png	108.25736854103161	0.5233188749989495
115	90.08024150002166	response	0	j		113.0	/Users/shufanzhang/Documents/PhD/Arrow_of_time/arrow_of_time/pictures/S_yt-OdTWn1U1mO4_68.png	108.76966079103295	
116	90.09126812501927	picture	0		58	114.0	/Users/shufanzhang/Documents/PhD/Arrow_of_time/arrow_of_time/pictures/n03891251_7465.JPEG	108.78068741603056	0.47957329198834486
116	90.55650783301098	response	0	j		114.0	/Users/shufanzhang/Documents/PhD/Arrow_of_time/arrow_of_time/pictures/n03891251_7465.JPEG	109.24592712402227	
117	90.57084141700761	picture	0		57	115.0	/Users/shufanzhang/Documents/PhD/Arrow_of_time/arrow_of_time/pictures/n03196217_3605.JPEG	109.2602607080189	0.4849556660046801
117	91.04632824999862	response	0	j		115.0	/Users/shufanzhang/Documents/PhD/Arrow_of_time/arrow_of_time/pictures/n03196217_3605.JPEG	109.73574754100991	
118	91.0557970830123	picture	0		71	116.0	/Users/shufanzhang/Documents/PhD/Arrow_of_time/arrow_of_time/pictures/R_S_yt-YeT4acsbqok_210.png	109.74521637402358	0.5886990420112852
118	91.63550587501959	response	0	j		116.0	/Users/shufanzhang/Documents/PhD/Arrow_of_time/arrow_of_time/pictures/R_S_yt-YeT4acsbqok_210.png	110.32492516603088	
119	91.64449612502358	picture	0		61	117.0	/Users/shufanzhang/Documents/PhD/Arrow_of_time/arrow_of_time/pictures/S_comp_CH_C002_C005_PSNK_v05_SDR_PS_FINAL_20180709_SDR_2K_AVC.png	110.33391541603487	0.5000256669882219
119	92.1322937500081	response	0	j		117.0	/Users/shufanzhang/Documents/PhD/Arrow_of_time/arrow_of_time/pictures/S_comp_CH_C002_C005_PSNK_v05_SDR_PS_FINAL_20180709_SDR_2K_AVC.png	110.8217130410194	
120	92.1445217920118	picture	0		58	118.0	/Users/shufanzhang/Documents/PhD/Arrow_of_time/arrow_of_time/pictures/R_S_yt-BAQ3Xhm_PPE_23.png	110.83394108302309	0.4914423330046702
120	92.6203241670155	response	0	j		118.0	/Users/shufanzhang/Documents/PhD/Arrow_of_time/arrow_of_time/pictures/R_S_yt-BAQ3Xhm_PPE_23.png	111.30974345802679	
121	92.63596412501647	picture	0		70	119.0	/Users/shufanzhang/Documents/PhD/Arrow_of_time/arrow_of_time/pictures/n03673027_12357.JPEG	111.32538341602776	0.5841754169960041
121	93.20958233301644	response	0	j		119.0	/Users/shufanzhang/Documents/PhD/Arrow_of_time/arrow_of_time/pictures/n03673027_12357.JPEG	111.89900162402773	
122	93.22013954201248	picture	0		65	120.0	/Users/shufanzhang/Documents/PhD/Arrow_of_time/arrow_of_time/pictures/n02018795_6999.JPEG	111.90955883302377	0.5426712080079596
122	93.75225137500092	response	0	j		120.0	/Users/shufanzhang/Documents/PhD/Arrow_of_time/arrow_of_time/pictures/n02018795_6999.JPEG	112.44167066601221	
123	93.76281075002044	picture	0		78	121.0	/Users/shufanzhang/Documents/PhD/Arrow_of_time/arrow_of_time/pictures/n02641379_39329.JPEG	112.45223004103173	0.6446042500028852
123	94.38871725002537	response	0	j		121.0	/Users/shufanzhang/Documents/PhD/Arrow_of_time/arrow_of_time/pictures/n02641379_39329.JPEG	113.07813654103666	
124	94.40741500002332	picture	0		54	122.0	/Users/shufanzhang/Documents/PhD/Arrow_of_time/arrow_of_time/pictures/S_yt-wrfAMDCg93Y_8.png	113.09683429103461	0.4553626249835361
124	94.85358275001636	response	0	j		122.0	/Users/shufanzhang/Documents/PhD/Arrow_of_time/arrow_of_time/pictures/S_yt-wrfAMDCg93Y_8.png	113.54300204102765	
125	94.86277762500686	picture	0		63	123.0	/Users/shufanzhang/Documents/PhD/Arrow_of_time/arrow_of_time/pictures/n07716358_34784.JPEG	113.55219691601815	0.5255266670137644
125	95.37789516701014	response	0	j		123.0	/Users/shufanzhang/Documents/PhD/Arrow_of_time/arrow_of_time/pictures/n07716358_34784.JPEG	114.06731445802143	
126	95.38830429202062	picture	0		61	124.0	/Users/shufanzhang/Documents/PhD/Arrow_of_time/arrow_of_time/pictures/S_ILSVRC2015_train_00584001.png	114.07772358303191	0.506636415986577
126	95.8851513749978	response	0	j		124.0	/Users/shufanzhang/Documents/PhD/Arrow_of_time/arrow_of_time/pictures/S_ILSVRC2015_train_00584001.png	114.5745706660091	
127	95.8949407080072	picture	0		59	125.0	/Users/shufanzhang/Documents/PhD/Arrow_of_time/arrow_of_time/pictures/S_ILSVRC2015_train_00762000.png	114.58435999901849	0.4915634590142872
127	96.3768769169983	response	0	j		125.0	/Users/shufanzhang/Documents/PhD/Arrow_of_time/arrow_of_time/pictures/S_ILSVRC2015_train_00762000.png	115.06629620800959	
128	96.38650416702149	picture	0		135	126.0	/Users/shufanzhang/Documents/PhD/Arrow_of_time/arrow_of_time/pictures/S_yt-F2x6e7e7cAE_70.png	115.07592345803278	1.1260568329889793
128	97.50231354200514	response	0	j		126.0	/Users/shufanzhang/Documents/PhD/Arrow_of_time/arrow_of_time/pictures/S_yt-F2x6e7e7cAE_70.png	116.19173283301643	
129	97.51256100001046	picture	0		62	127.0	/Users/shufanzhang/Documents/PhD/Arrow_of_time/arrow_of_time/pictures/S_pexels-tima-miroshnichenko-8724308.png	116.20198029102175	0.5067896250111517
129	98.00634337501833	response	0	j		127.0	/Users/shufanzhang/Documents/PhD/Arrow_of_time/arrow_of_time/pictures/S_pexels-tima-miroshnichenko-8724308.png	116.69576266602962	
130	98.01935062502162	picture	0		212	128.0	/Users/shufanzhang/Documents/PhD/Arrow_of_time/arrow_of_time/pictures/R_S_yt-LUIvP_NDWAs_45.png	116.7087699160329	1.7741069579788018
130	99.78190283302683	response	0	j		128.0	/Users/shufanzhang/Documents/PhD/Arrow_of_time/arrow_of_time/pictures/R_S_yt-LUIvP_NDWAs_45.png	118.47132212403812	
131	99.79345758300042	picture	0		72	129.0	/Users/shufanzhang/Documents/PhD/Arrow_of_time/arrow_of_time/pictures/ILSVRC2012_test_00088583.JPEG	118.48287687401171	0.6114916250226088
131	100.39520616701338	response	0	j		129.0	/Users/shufanzhang/Documents/PhD/Arrow_of_time/arrow_of_time/pictures/ILSVRC2012_test_00088583.JPEG	119.08462545802468	
132	100.40494920802303	picture	0		90	130.0	/Users/shufanzhang/Documents/PhD/Arrow_of_time/arrow_of_time/pictures/n09246464_16480.JPEG	119.09436849903432	0.7503239999932703
132	101.14495700001135	response	0	j		130.0	/Users/shufanzhang/Documents/PhD/Arrow_of_time/arrow_of_time/pictures/n09246464_16480.JPEG	119.83437629102264	
133	101.1552732080163	picture	0		157	131.0	/Users/shufanzhang/Documents/PhD/Arrow_of_time/arrow_of_time/pictures/R_S_Person_Going_Through_A_Bible.png	119.84469249902759	1.30429133400321
133	102.44823329200153	response	0	j		131.0	/Users/shufanzhang/Documents/PhD/Arrow_of_time/arrow_of_time/pictures/R_S_Person_Going_Through_A_Bible.png	121.13765258301282	
134	102.4595645420195	picture	0		99	132.0	/Users/shufanzhang/Documents/PhD/Arrow_of_time/arrow_of_time/pictures/R_S_yt-n_eO-7KedAE_21.png	121.1489838330308	0.8372634160041343
134	103.28609270800371	response	0	j		132.0	/Users/shufanzhang/Documents/PhD/Arrow_of_time/arrow_of_time/pictures/R_S_yt-n_eO-7KedAE_21.png	121.975511999015	
135	103.29682795802364	picture	0		66	133.0	/Users/shufanzhang/Documents/PhD/Arrow_of_time/arrow_of_time/pictures/n12985857_1847.JPEG	121.98624724903493	0.5434621250024065
135	103.83087937501841	response	0	j		133.0	/Users/shufanzhang/Documents/PhD/Arrow_of_time/arrow_of_time/pictures/n12985857_1847.JPEG	122.5202986660297	
136	103.84029008302605	picture	0		61	134.0	/Users/shufanzhang/Documents/PhD/Arrow_of_time/arrow_of_time/pictures/S_yt-HPjLtkyzN3E_101.png	122.52970937403734	0.5064557499717921
136	104.33736237502308	response	0	j		134.0	/Users/shufanzhang/Documents/PhD/Arrow_of_time/arrow_of_time/pictures/S_yt-HPjLtkyzN3E_101.png	123.02678166603437	
137	104.34674583299784	picture	0		82	135.0	/Users/shufanzhang/Documents/PhD/Arrow_of_time/arrow_of_time/pictures/n04346328_7408.JPEG	123.03616512400913	0.690977667021798
137	105.02788208299899	response	0	j		135.0	/Users/shufanzhang/Documents/PhD/Arrow_of_time/arrow_of_time/pictures/n04346328_7408.JPEG	123.71730137401028	
138	105.03772350001964	picture	0		136	136.0	/Users/shufanzhang/Documents/PhD/Arrow_of_time/arrow_of_time/pictures/S_flickr-southeasternstar-3464778323_10.png	123.72714279103093	1.1415954580006655
138	106.16920995802502	response	0	j		136.0	/Users/shufanzhang/Documents/PhD/Arrow_of_time/arrow_of_time/pictures/S_flickr-southeasternstar-3464778323_10.png	124.85862924903631	
139	106.1793189580203	picture	0		59	137.0	/Users/shufanzhang/Documents/PhD/Arrow_of_time/arrow_of_time/pictures/R_S_yt-7lULOC_rSE0_747.png	124.8687382490316	0.4862193749868311
139	106.65597670801799	response	0	j		137.0	/Users/shufanzhang/Documents/PhD/Arrow_of_time/arrow_of_time/pictures/R_S_yt-7lULOC_rSE0_747.png	125.34539599902928	
140	106.66553833300713	picture	0		77	138.0	/Users/shufanzhang/Documents/PhD/Arrow_of_time/arrow_of_time/pictures/S_ILSVRC2015_train_00165009.png	125.35495762401843	0.6368667920178268
140	107.29124412502279	response	0	j		138.0	/Users/shufanzhang/Documents/PhD/Arrow_of_time/arrow_of_time/pictures/S_ILSVRC2015_train_00165009.png	125.98066341603408	
141	107.30240512502496	picture	0		127	139.0	/Users/shufanzhang/Documents/PhD/Arrow_of_time/arrow_of_time/pictures/S_yt-zh2yLr-o_8A_953.png	125.99182441603625	1.061595374980243
141	108.34600429201964	response	0	j		139.0	/Users/shufanzhang/Documents/PhD/Arrow_of_time/arrow_of_time/pictures/S_yt-zh2yLr-o_8A_953.png	127.03542358303093	
142	108.3640005000052	picture	0		76	140.0	/Users/shufanzhang/Documents/PhD/Arrow_of_time/arrow_of_time/pictures/n03796401_8058.JPEG	127.0534197910165	0.6417244170152117
142	108.99468420800986	response	0	j		140.0	/Users/shufanzhang/Documents/PhD/Arrow_of_time/arrow_of_time/pictures/n03796401_8058.JPEG	127.68410349902115	
143	109.00572491702042	picture	0		101	141.0	/Users/shufanzhang/Documents/PhD/Arrow_of_time/arrow_of_time/pictures/ILSVRC2012_test_00033878.JPEG	127.6951442080317	0.8397260829806328
143	109.83577520801919	response	0	j		141.0	/Users/shufanzhang/Documents/PhD/Arrow_of_time/arrow_of_time/pictures/ILSVRC2012_test_00033878.JPEG	128.52519449903048	
144	109.84545100000105	picture	0		80	142.0	/Users/shufanzhang/Documents/PhD/Arrow_of_time/arrow_of_time/pictures/S_yt-7W50lcw5FCo_37.png	128.53487029101234	0.6640876250166912
144	110.49941158300499	response	0	j		142.0	/Users/shufanzhang/Documents/PhD/Arrow_of_time/arrow_of_time/pictures/S_yt-7W50lcw5FCo_37.png	129.18883087401628	
145	110.50953862501774	picture	0		68	143.0	/Users/shufanzhang/Documents/PhD/Arrow_of_time/arrow_of_time/pictures/R_S_PA_A004_C003_SDR_20190719_SDR_2K_AVC.png	129.19895791602903	0.5793491670046933
145	111.07869208301418	response	0	j		143.0	/Users/shufanzhang/Documents/PhD/Arrow_of_time/arrow_of_time/pictures/R_S_PA_A004_C003_SDR_20190719_SDR_2K_AVC.png	129.76811137402547	
146	111.08888779202243	picture	0		64	144.0	/Users/shufanzhang/Documents/PhD/Arrow_of_time/arrow_of_time/pictures/S_yt-uWeU2s6JYyk_10.png	129.77830708303372	0.5324991660017986
146	111.61071033301414	response	0	j		144.0	/Users/shufanzhang/Documents/PhD/Arrow_of_time/arrow_of_time/pictures/S_yt-uWeU2s6JYyk_10.png	130.30012962402543	
147	111.62138695802423	picture	0		346	145.0	/Users/shufanzhang/Documents/PhD/Arrow_of_time/arrow_of_time/pictures/R_S_ILSVRC2015_train_00743006.png	130.31080624903552	2.897224833985092
147	114.49420329200802	response	0	j		145.0	/Users/shufanzhang/Documents/PhD/Arrow_of_time/arrow_of_time/pictures/R_S_ILSVRC2015_train_00743006.png	133.18362258301931	
148	114.51861179200932	picture	0		77	146.0	/Users/shufanzhang/Documents/PhD/Arrow_of_time/arrow_of_time/pictures/n01872401_18520.JPEG	133.20803108302061	0.6381864580034744
148	115.14802537500509	response	0	j		146.0	/Users/shufanzhang/Documents/PhD/Arrow_of_time/arrow_of_time/pictures/n01872401_18520.JPEG	133.83744466601638	
149	115.1567982500128	picture	0		77	147.0	/Users/shufanzhang/Documents/PhD/Arrow_of_time/arrow_of_time/pictures/n02096437_10584.JPEG	133.8462175410241	0.6445447499863803
149	115.79152645802242	response	0	j		147.0	/Users/shufanzhang/Documents/PhD/Arrow_of_time/arrow_of_time/pictures/n02096437_10584.JPEG	134.4809457490337	
150	115.80134299999918	picture	0		83	148.0	/Users/shufanzhang/Documents/PhD/Arrow_of_time/arrow_of_time/pictures/R_S_production_ID_5139371.png	134.49076229101047	0.6896852080244571
150	116.48089500001515	response	0	j		148.0	/Users/shufanzhang/Documents/PhD/Arrow_of_time/arrow_of_time/pictures/R_S_production_ID_5139371.png	135.17031429102644	
151	116.49102820802364	picture	0		77	149.0	/Users/shufanzhang/Documents/PhD/Arrow_of_time/arrow_of_time/pictures/R_S_yt-xqjVM0Vj4mI_161.png	135.18044749903493	0.6437484170019161
151	117.12384825001936	response	0	j		149.0	/Users/shufanzhang/Documents/PhD/Arrow_of_time/arrow_of_time/pictures/R_S_yt-xqjVM0Vj4mI_161.png	135.81326754103065	
152	117.13477662502555	picture	0		68	150.0	/Users/shufanzhang/Documents/PhD/Arrow_of_time/arrow_of_time/pictures/n01734418_5604.JPEG	135.82419591603684	0.5613393749808893
152	117.68996454201988	response	0	j		150.0	/Users/shufanzhang/Documents/PhD/Arrow_of_time/arrow_of_time/pictures/n01734418_5604.JPEG	136.37938383303117	
153	117.69611600000644	picture	0		76	151.0	/Users/shufanzhang/Documents/PhD/Arrow_of_time/arrow_of_time/pictures/n03933933_16287.JPEG	136.38553529101773	0.6344524169981014
153	118.31927629202255	response	0	j		151.0	/Users/shufanzhang/Documents/PhD/Arrow_of_time/arrow_of_time/pictures/n03933933_16287.JPEG	137.00869558303384	
154	118.33056841700454	picture	0		103	152.0	/Users/shufanzhang/Documents/PhD/Arrow_of_time/arrow_of_time/pictures/n02687172_17631.JPEG	137.01998770801583	0.8496075830189511
154	119.16855349999969	response	0	j		152.0	/Users/shufanzhang/Documents/PhD/Arrow_of_time/arrow_of_time/pictures/n02687172_17631.JPEG	137.85797279101098	
155	119.1801760000235	picture	0		64	153.0	/Users/shufanzhang/Documents/PhD/Arrow_of_time/arrow_of_time/pictures/R_S_yt-kINZMjys3O4_112.png	137.86959529103478	0.5448719999985769
155	119.71506583300652	response	0	j		153.0	/Users/shufanzhang/Documents/PhD/Arrow_of_time/arrow_of_time/pictures/R_S_yt-kINZMjys3O4_112.png	138.4044851240178	
156	119.72504800002207	picture	0		143	154.0	/Users/shufanzhang/Documents/PhD/Arrow_of_time/arrow_of_time/pictures/R_S_yt-UzWRbs9Syf4_7.png	138.41446729103336	1.1898188749910332
156	120.90583166701254	response	0	j		154.0	/Users/shufanzhang/Documents/PhD/Arrow_of_time/arrow_of_time/pictures/R_S_yt-UzWRbs9Syf4_7.png	139.59525095802383	
157	120.9148668750131	picture	0		88	155.0	/Users/shufanzhang/Documents/PhD/Arrow_of_time/arrow_of_time/pictures/n03495258_5143.JPEG	139.6042861660244	0.7369307499902789
157	121.64130516702426	response	0	j		155.0	/Users/shufanzhang/Documents/PhD/Arrow_of_time/arrow_of_time/pictures/n03495258_5143.JPEG	140.33072445803555	
158	121.65179762500338	picture	0		60	156.0	/Users/shufanzhang/Documents/PhD/Arrow_of_time/arrow_of_time/pictures/n04037443_53706.JPEG	140.34121691601467	0.4942299170070328
158	122.1260503330268	response	0	j		156.0	/Users/shufanzhang/Documents/PhD/Arrow_of_time/arrow_of_time/pictures/n04037443_53706.JPEG	140.8154696240381	
159	122.14602754201042	picture	0		149	157.0	/Users/shufanzhang/Documents/PhD/Arrow_of_time/arrow_of_time/pictures/S_production_ID_4325591.png	140.8354468330217	1.2362105830106884
159	123.37630937501672	response	0	j		157.0	/Users/shufanzhang/Documents/PhD/Arrow_of_time/arrow_of_time/pictures/S_production_ID_4325591.png	142.065728666028	
160	123.3822381250211	picture	0		75	158.0	/Users/shufanzhang/Documents/PhD/Arrow_of_time/arrow_of_time/pictures/S_video-7.png	142.0716574160324	0.6345101670012809
160	124.00687333301175	response	0	j		158.0	/Users/shufanzhang/Documents/PhD/Arrow_of_time/arrow_of_time/pictures/S_video-7.png	142.69629262402304	
161	124.01674829202238	picture	0		61	159.0	/Users/shufanzhang/Documents/PhD/Arrow_of_time/arrow_of_time/pictures/S_yt-GVaF4tmJBZE_253.png	142.70616758303368	0.5080139999918174
161	124.51466866701958	response	0	j		159.0	/Users/shufanzhang/Documents/PhD/Arrow_of_time/arrow_of_time/pictures/S_yt-GVaF4tmJBZE_253.png	143.20408795803087	
162	124.5247622920142	picture	0		90	160.0	/Users/shufanzhang/Documents/PhD/Arrow_of_time/arrow_of_time/pictures/n01855672_6948.JPEG	143.2141815830255	0.7455428329994902
162	125.26012833300047	response	0	j		160.0	/Users/shufanzhang/Documents/PhD/Arrow_of_time/arrow_of_time/pictures/n01855672_6948.JPEG	143.94954762401176	
163	125.27030512501369	picture	0		64	161.0	/Users/shufanzhang/Documents/PhD/Arrow_of_time/arrow_of_time/pictures/n03535780_4549.JPEG	143.95972441602498	0.5436352920078207
163	125.80533570802072	response	0	j		161.0	/Users/shufanzhang/Documents/PhD/Arrow_of_time/arrow_of_time/pictures/n03535780_4549.JPEG	144.494754999032	
164	125.81394041702151	picture	0		154	162.0	/Users/shufanzhang/Documents/PhD/Arrow_of_time/arrow_of_time/pictures/R_S_yt-IDpUZ2NWBUY_60.png	144.5033597080328	1.2776488749950659
164	127.08255537500372	response	0	j		162.0	/Users/shufanzhang/Documents/PhD/Arrow_of_time/arrow_of_time/pictures/R_S_yt-IDpUZ2NWBUY_60.png	145.771974666015	
165	127.09158929201658	picture	0		92	163.0	/Users/shufanzhang/Documents/PhD/Arrow_of_time/arrow_of_time/pictures/S_video.png	145.78100858302787	0.7805340409977362
165	127.85088316700421	response	0	j		163.0	/Users/shufanzhang/Documents/PhD/Arrow_of_time/arrow_of_time/pictures/S_video.png	146.5403024580155	
166	127.87212333301431	picture	0		59	164.0	/Users/shufanzhang/Documents/PhD/Arrow_of_time/arrow_of_time/pictures/S_video_inspire_california_big-sur_landscape_054.png	146.5615426240256	0.5024826249864418
166	128.35608508301084	response	0	j		164.0	/Users/shufanzhang/Documents/PhD/Arrow_of_time/arrow_of_time/pictures/S_video_inspire_california_big-sur_landscape_054.png	147.04550437402213	
167	128.37460595800076	picture	0		69	165.0	/Users/shufanzhang/Documents/PhD/Arrow_of_time/arrow_of_time/pictures/n04238763_4175.JPEG	147.06402524901205	0.5810717499989551
167	128.94402170801186	response	0	j		165.0	/Users/shufanzhang/Documents/PhD/Arrow_of_time/arrow_of_time/pictures/n04238763_4175.JPEG	147.63344099902315	
168	128.9556777079997	picture	0		77	166.0	/Users/shufanzhang/Documents/PhD/Arrow_of_time/arrow_of_time/pictures/S_yt-fQgLKiz2tuM_14.png	147.645096999011	0.639446625020355
168	129.58753379201517	response	0	j		166.0	/Users/shufanzhang/Documents/PhD/Arrow_of_time/arrow_of_time/pictures/S_yt-fQgLKiz2tuM_14.png	148.27695308302646	
169	129.59512433302007	picture	0		72	167.0	/Users/shufanzhang/Documents/PhD/Arrow_of_time/arrow_of_time/pictures/S_yt-Ub5Xx5BqIOk_74.png	148.28454362403136	0.601027291995706
169	130.18591525001102	response	0	j		167.0	/Users/shufanzhang/Documents/PhD/Arrow_of_time/arrow_of_time/pictures/S_yt-Ub5Xx5BqIOk_74.png	148.8753345410223	
170	130.19615162501577	picture	0		161	168.0	/Users/shufanzhang/Documents/PhD/Arrow_of_time/arrow_of_time/pictures/S_yt-YWfInCviN1s_126.png	148.88557091602706	1.3511492919933517
170	131.52869320800528	response	0	j		168.0	/Users/shufanzhang/Documents/PhD/Arrow_of_time/arrow_of_time/pictures/S_yt-YWfInCviN1s_126.png	150.21811249901657	
171	131.54730091700912	picture	0		68	169.0	/Users/shufanzhang/Documents/PhD/Arrow_of_time/arrow_of_time/pictures/ILSVRC2012_val_00048488.JPEG	150.23672020802042	0.5618005830037873
171	132.09750516701024	response	0	j		169.0	/Users/shufanzhang/Documents/PhD/Arrow_of_time/arrow_of_time/pictures/ILSVRC2012_val_00048488.JPEG	150.78692445802153	
172	132.1091015000129	picture	0		65	170.0	/Users/shufanzhang/Documents/PhD/Arrow_of_time/arrow_of_time/pictures/S_yt-MToRA8FcNJ4_138.png	150.7985207910242	0.5458234999969136
172	132.64430333301425	response	0	j		170.0	/Users/shufanzhang/Documents/PhD/Arrow_of_time/arrow_of_time/pictures/S_yt-MToRA8FcNJ4_138.png	151.33372262402554	
173	132.65492500000983	picture	0		75	171.0	/Users/shufanzhang/Documents/PhD/Arrow_of_time/arrow_of_time/pictures/S_yt-ZfDtalvUK5k_36.png	151.34434429102112	0.6255882499972358
173	133.2695218330191	response	0	j		171.0	/Users/shufanzhang/Documents/PhD/Arrow_of_time/arrow_of_time/pictures/S_yt-ZfDtalvUK5k_36.png	151.9589411240304	
174	133.28051325000706	picture	0		82	172.0	/Users/shufanzhang/Documents/PhD/Arrow_of_time/arrow_of_time/pictures/n03877845_10747.JPEG	151.96993254101835	0.6804114580154419
174	133.95177504202002	response	0	j		172.0	/Users/shufanzhang/Documents/PhD/Arrow_of_time/arrow_of_time/pictures/n03877845_10747.JPEG	152.6411943330313	
175	133.9609247080225	picture	0		59	173.0	/Users/shufanzhang/Documents/PhD/Arrow_of_time/arrow_of_time/pictures/n01986214_12921.JPEG	152.6503439990338	0.48274958398542367
175	134.4308880000026	response	0	j		173.0	/Users/shufanzhang/Documents/PhD/Arrow_of_time/arrow_of_time/pictures/n01986214_12921.JPEG	153.1203072910139	
176	134.44367429200793	picture	0		91	174.0	/Users/shufanzhang/Documents/PhD/Arrow_of_time/arrow_of_time/pictures/S_yt-WhQMF3WM0Ig_29.png	153.13309358301922	0.7601334580103867
