trial_nr	onset	event_type	phase	response	nr_frames	picture_index	picture_file	onset_abs	duration
0	0.03501437499653548	stim	0		15661			20.98040241599665	147.20323020900832
0	147.21881649999705	response	0	space				168.16420454099716	
2	147.23824458400486	picture	0		228	0.0	/Users/shufanzhang/Documents/PhD/Arrow_of_time/arrow_of_time/pictures/n02090379_3314.JPEG	168.18363262500498	1.9597594999941066
2	149.189107875005	response	0	k		0.0	/Users/shufanzhang/Documents/PhD/Arrow_of_time/arrow_of_time/pictures/n02090379_3314.JPEG	170.1344959160051	
3	149.19800408399897	picture	0		265	1.0	/Users/shufanzhang/Documents/PhD/Arrow_of_time/arrow_of_time/pictures/ILSVRC2012_test_00038372.JPEG	170.14339212499908	2.4557687909982633
3	151.64255929199862	response	0	k		1.0	/Users/shufanzhang/Documents/PhD/Arrow_of_time/arrow_of_time/pictures/ILSVRC2012_test_00038372.JPEG	172.58794733299874	
4	151.65377287499723	picture	0		219	2.0	/Users/shufanzhang/Documents/PhD/Arrow_of_time/arrow_of_time/pictures/S_yt-loe3Rqs8TEM_46.png	172.59916091599735	1.8803525840048678
4	153.52281708399823	response	0	k		2.0	/Users/shufanzhang/Documents/PhD/Arrow_of_time/arrow_of_time/pictures/S_yt-loe3Rqs8TEM_46.png	174.46820512499835	
5	153.5341254590021	picture	0		110	3.0	/Users/shufanzhang/Documents/PhD/Arrow_of_time/arrow_of_time/pictures/S_yt-3NMDWrZr1Z4_255.png	174.4795135000022	0.9184751660068287
5	154.4384689169965	response	0	j		3.0	/Users/shufanzhang/Documents/PhD/Arrow_of_time/arrow_of_time/pictures/S_yt-3NMDWrZr1Z4_255.png	175.3838569579966	
6	154.45260062500893	picture	0		1149	4.0	/Users/shufanzhang/Documents/PhD/Arrow_of_time/arrow_of_time/pictures/n01739381_1084.JPEG	175.39798866600904	9.623865208995994
6	164.0653015840071	response	0	k		4.0	/Users/shufanzhang/Documents/PhD/Arrow_of_time/arrow_of_time/pictures/n01739381_1084.JPEG	185.01068962500722	
7	164.07646583400492	picture	0		106	5.0	/Users/shufanzhang/Documents/PhD/Arrow_of_time/arrow_of_time/pictures/R_S_yt-mL3MuCfKtdY_79.png	185.02185387500504	0.9332766250008717
7	164.99871237500338	response	0	j		5.0	/Users/shufanzhang/Documents/PhD/Arrow_of_time/arrow_of_time/pictures/R_S_yt-mL3MuCfKtdY_79.png	185.9441004160035	
8	165.0097424590058	picture	0		103	6.0	/Users/shufanzhang/Documents/PhD/Arrow_of_time/arrow_of_time/pictures/R_S_ILSVRC2015_train_00599000.png	185.9551305000059	0.8681413750018692
8	165.86561545899895	response	0	j		6.0	/Users/shufanzhang/Documents/PhD/Arrow_of_time/arrow_of_time/pictures/R_S_ILSVRC2015_train_00599000.png	186.81100349999906	
9	165.87788383400766	picture	0		123	7.0	/Users/shufanzhang/Documents/PhD/Arrow_of_time/arrow_of_time/pictures/n04141327_4178.JPEG	186.82327187500778	1.0456077080016257
9	166.8929525840067	response	0	k		7.0	/Users/shufanzhang/Documents/PhD/Arrow_of_time/arrow_of_time/pictures/n04141327_4178.JPEG	187.83834062500682	
10	166.9234915420093	picture	0		98	8.0	/Users/shufanzhang/Documents/PhD/Arrow_of_time/arrow_of_time/pictures/S_yt-FMIevUic_XY_50.png	187.8688795830094	0.8615594169968972
10	167.77876020899566	response	0	j		8.0	/Users/shufanzhang/Documents/PhD/Arrow_of_time/arrow_of_time/pictures/S_yt-FMIevUic_XY_50.png	188.72414824999578	
11	167.78505095900618	picture	0		170	9.0	/Users/shufanzhang/Documents/PhD/Arrow_of_time/arrow_of_time/pictures/S_yt-mQRzWCcKOR8_28.png	188.7304390000063	1.4537546249921434
11	169.23061904200586	response	0	j		9.0	/Users/shufanzhang/Documents/PhD/Arrow_of_time/arrow_of_time/pictures/S_yt-mQRzWCcKOR8_28.png	190.17600708300597	
12	169.23880558399833	picture	0		741	10.0	/Users/shufanzhang/Documents/PhD/Arrow_of_time/arrow_of_time/pictures/n03792782_20071.JPEG	190.18419362499844	6.255219416008913
12	175.4866606669966	response	0	k		10.0	/Users/shufanzhang/Documents/PhD/Arrow_of_time/arrow_of_time/pictures/n03792782_20071.JPEG	196.43204870799673	
13	175.49402500000724	picture	0		132	11.0	/Users/shufanzhang/Documents/PhD/Arrow_of_time/arrow_of_time/pictures/R_S_pexels-cottonbro-9063801_1.png	196.43941304100736	1.1216064170002937
13	176.61012654200022	response	0	j		11.0	/Users/shufanzhang/Documents/PhD/Arrow_of_time/arrow_of_time/pictures/R_S_pexels-cottonbro-9063801_1.png	197.55551458300033	
14	176.61563141700753	picture	0		125	12.0	/Users/shufanzhang/Documents/PhD/Arrow_of_time/arrow_of_time/pictures/n03930313_7086.JPEG	197.56101945800765	1.0668680829985533
14	177.67583249999734	response	0	k		12.0	/Users/shufanzhang/Documents/PhD/Arrow_of_time/arrow_of_time/pictures/n03930313_7086.JPEG	198.62122054099746	
15	177.6824995000061	picture	0		141	13.0	/Users/shufanzhang/Documents/PhD/Arrow_of_time/arrow_of_time/pictures/n02165105_5484.JPEG	198.6278875410062	1.196114459002274
15	178.86983029200928	response	0	k		13.0	/Users/shufanzhang/Documents/PhD/Arrow_of_time/arrow_of_time/pictures/n02165105_5484.JPEG	199.8152183330094	
16	178.87861395900836	picture	0		122	14.0	/Users/shufanzhang/Documents/PhD/Arrow_of_time/arrow_of_time/pictures/n01675722_808.JPEG	199.82400200000848	1.0313679579994641
16	179.90381779200106	response	0	k		14.0	/Users/shufanzhang/Documents/PhD/Arrow_of_time/arrow_of_time/pictures/n01675722_808.JPEG	200.84920583300118	
17	179.90998191700783	picture	0		119	15.0	/Users/shufanzhang/Documents/PhD/Arrow_of_time/arrow_of_time/pictures/S_9smWynsk6sI_158.png	200.85536995800794	1.0164899999945192
17	180.89743112500582	response	0	j		15.0	/Users/shufanzhang/Documents/PhD/Arrow_of_time/arrow_of_time/pictures/S_9smWynsk6sI_158.png	201.84281916600594	
18	180.92647191700235	picture	0		92	16.0	/Users/shufanzhang/Documents/PhD/Arrow_of_time/arrow_of_time/pictures/R_S_pexels-c-technical-6491262.png	201.87185995800246	0.7810117500048364
18	181.70089679199737	response	0	j		16.0	/Users/shufanzhang/Documents/PhD/Arrow_of_time/arrow_of_time/pictures/R_S_pexels-c-technical-6491262.png	202.64628483299748	
19	181.70748366700718	picture	0		96	17.0	/Users/shufanzhang/Documents/PhD/Arrow_of_time/arrow_of_time/pictures/S_ioSkDvwpEaU_35.png	202.6528717080073	0.810977000001003
19	182.51099750000867	response	0	j		17.0	/Users/shufanzhang/Documents/PhD/Arrow_of_time/arrow_of_time/pictures/S_ioSkDvwpEaU_35.png	203.45638554100879	
20	182.51846066700818	picture	0		98	18.0	/Users/shufanzhang/Documents/PhD/Arrow_of_time/arrow_of_time/pictures/R_S_comp_A103_C002_0205DG_v12_SDR_FINAL_20180706_SDR_2K_AVC.png	203.4638487080083	0.8285392499965383
20	183.33725162500923	response	0	j		18.0	/Users/shufanzhang/Documents/PhD/Arrow_of_time/arrow_of_time/pictures/R_S_comp_A103_C002_0205DG_v12_SDR_FINAL_20180706_SDR_2K_AVC.png	204.28263966600935	
21	183.34699991700472	picture	0		123	19.0	/Users/shufanzhang/Documents/PhD/Arrow_of_time/arrow_of_time/pictures/R_S_yt-mHLTJkMrkZI_143.png	204.29238795800484	1.0493868329940597
21	184.3817003340082	response	0	j		19.0	/Users/shufanzhang/Documents/PhD/Arrow_of_time/arrow_of_time/pictures/R_S_yt-mHLTJkMrkZI_143.png	205.32708837500832	
22	184.39638674999878	picture	0		108	20.0	/Users/shufanzhang/Documents/PhD/Arrow_of_time/arrow_of_time/pictures/S_Pexels_Videos_2795736.png	205.3417747909989	0.9028047090105247
22	185.29248283400375	response	0	j		20.0	/Users/shufanzhang/Documents/PhD/Arrow_of_time/arrow_of_time/pictures/S_Pexels_Videos_2795736.png	206.23787087500386	
23	185.2991914590093	picture	0		100	21.0	/Users/shufanzhang/Documents/PhD/Arrow_of_time/arrow_of_time/pictures/R_S_ILSVRC2015_test_00012005.png	206.24457950000942	0.8399376249872148
23	186.12824879199616	response	0	j		21.0	/Users/shufanzhang/Documents/PhD/Arrow_of_time/arrow_of_time/pictures/R_S_ILSVRC2015_test_00012005.png	207.07363683299627	
24	186.13912908399652	picture	0		100	22.0	/Users/shufanzhang/Documents/PhD/Arrow_of_time/arrow_of_time/pictures/n01749939_96.JPEG	207.08451712499664	0.856161208008416
24	186.9636909999972	response	0	k		22.0	/Users/shufanzhang/Documents/PhD/Arrow_of_time/arrow_of_time/pictures/n01749939_96.JPEG	207.9090790409973	
25	186.99529029200494	picture	0		121	23.0	/Users/shufanzhang/Documents/PhD/Arrow_of_time/arrow_of_time/pictures/R_S_yt-roThCERxVCs_133.png	207.94067833300505	1.038476499990793
25	188.0199680000078	response	0	j		23.0	/Users/shufanzhang/Documents/PhD/Arrow_of_time/arrow_of_time/pictures/R_S_yt-roThCERxVCs_133.png	208.9653560410079	
26	188.03376679199573	picture	0		107	24.0	/Users/shufanzhang/Documents/PhD/Arrow_of_time/arrow_of_time/pictures/n03530642_3595.JPEG	208.97915483299585	0.8939923330035526
26	188.91286395900534	response	0	k		24.0	/Users/shufanzhang/Documents/PhD/Arrow_of_time/arrow_of_time/pictures/n03530642_3595.JPEG	209.85825200000545	
27	188.92775912499928	picture	0		113	25.0	/Users/shufanzhang/Documents/PhD/Arrow_of_time/arrow_of_time/pictures/S_pexels-roman-odintsov-8231493.png	209.8731471659994	0.9469883749989094
27	189.86427195899887	response	0	j		25.0	/Users/shufanzhang/Documents/PhD/Arrow_of_time/arrow_of_time/pictures/S_pexels-roman-odintsov-8231493.png	210.80965999999898	
28	189.8747474999982	picture	0		119	26.0	/Users/shufanzhang/Documents/PhD/Arrow_of_time/arrow_of_time/pictures/R_S_G007_C004_UHD_SDR_2K_AVC.png	210.8201355409983	1.001810250003473
28	190.87054179199913	response	0	j		26.0	/Users/shufanzhang/Documents/PhD/Arrow_of_time/arrow_of_time/pictures/R_S_G007_C004_UHD_SDR_2K_AVC.png	211.81592983299925	
29	190.87655775000167	picture	0		223	27.0	/Users/shufanzhang/Documents/PhD/Arrow_of_time/arrow_of_time/pictures/S_yt-caS_SY5WmeE_5.png	211.82194579100178	1.8859763749933336
29	192.75216437500785	response	0	k		27.0	/Users/shufanzhang/Documents/PhD/Arrow_of_time/arrow_of_time/pictures/S_yt-caS_SY5WmeE_5.png	213.69755241600797	
30	192.762534124995	picture	0		87	28.0	/Users/shufanzhang/Documents/PhD/Arrow_of_time/arrow_of_time/pictures/n01692333_3478.JPEG	213.70792216599511	0.7415773750108201
30	193.48124358399946	response	0	k		28.0	/Users/shufanzhang/Documents/PhD/Arrow_of_time/arrow_of_time/pictures/n01692333_3478.JPEG	214.42663162499957	
31	193.50411150000582	picture	0		224	29.0	/Users/shufanzhang/Documents/PhD/Arrow_of_time/arrow_of_time/pictures/R_S_comp_HK_H004_C001_PSNK_DENOISE_v14_SDR_PS_FINAL_20180731_SDR_2K_AVC.png	214.44949954100593	1.8889300000009825
31	195.38231000000087	response	0	j		29.0	/Users/shufanzhang/Documents/PhD/Arrow_of_time/arrow_of_time/pictures/R_S_comp_HK_H004_C001_PSNK_DENOISE_v14_SDR_PS_FINAL_20180731_SDR_2K_AVC.png	216.32769804100099	
32	195.3930415000068	picture	0		363	30.0	/Users/shufanzhang/Documents/PhD/Arrow_of_time/arrow_of_time/pictures/S_yt-Y-8d31A9JXg_12.png	216.33842954100692	3.3441034169954946
32	198.7247766250075	response	0	k		30.0	/Users/shufanzhang/Documents/PhD/Arrow_of_time/arrow_of_time/pictures/S_yt-Y-8d31A9JXg_12.png	219.67016466600762	
33	198.7371449170023	picture	0		129	31.0	/Users/shufanzhang/Documents/PhD/Arrow_of_time/arrow_of_time/pictures/n02417914_11649.JPEG	219.6825329580024	1.0788618749938905
33	199.80140658399614	response	0	k		31.0	/Users/shufanzhang/Documents/PhD/Arrow_of_time/arrow_of_time/pictures/n02417914_11649.JPEG	220.74679462499626	
34	199.8160067919962	picture	0		84	32.0	/Users/shufanzhang/Documents/PhD/Arrow_of_time/arrow_of_time/pictures/n02128925_35841.JPEG	220.7613948329963	0.7500596669997321
34	200.5455544590077	response	0	k		32.0	/Users/shufanzhang/Documents/PhD/Arrow_of_time/arrow_of_time/pictures/n02128925_35841.JPEG	221.4909425000078	
35	200.56606645899592	picture	0		89	33.0	/Users/shufanzhang/Documents/PhD/Arrow_of_time/arrow_of_time/pictures/n01981276_1165.JPEG	221.51145449999603	0.757167041010689
35	201.31137112500437	response	0	k		33.0	/Users/shufanzhang/Documents/PhD/Arrow_of_time/arrow_of_time/pictures/n01981276_1165.JPEG	222.25675916600449	
36	201.3232335000066	picture	0		252	34.0	/Users/shufanzhang/Documents/PhD/Arrow_of_time/arrow_of_time/pictures/n03777568_4677.JPEG	222.26862154100672	2.159594749988173
36	203.47234766700421	response	0	k		34.0	/Users/shufanzhang/Documents/PhD/Arrow_of_time/arrow_of_time/pictures/n03777568_4677.JPEG	224.41773570800433	
37	203.48282824999478	picture	0		105	35.0	/Users/shufanzhang/Documents/PhD/Arrow_of_time/arrow_of_time/pictures/S_yt-bmGWhOCsvJo_128.png	224.4282162909949	0.8904896670137532
37	204.3611946250021	response	0	j		35.0	/Users/shufanzhang/Documents/PhD/Arrow_of_time/arrow_of_time/pictures/S_yt-bmGWhOCsvJo_128.png	225.3065826660022	
38	204.37331791700854	picture	0		126	36.0	/Users/shufanzhang/Documents/PhD/Arrow_of_time/arrow_of_time/pictures/S_comp_HK_H004_C010_PSNK_v08_SDR_PS_20181009_SDR_2K_AVC.png	225.31870595800865	1.0528981249954086
38	205.4158809590008	response	0	j		36.0	/Users/shufanzhang/Documents/PhD/Arrow_of_time/arrow_of_time/pictures/S_comp_HK_H004_C010_PSNK_v08_SDR_PS_20181009_SDR_2K_AVC.png	226.3612690000009	
39	205.42621604200394	picture	0		98	37.0	/Users/shufanzhang/Documents/PhD/Arrow_of_time/arrow_of_time/pictures/R_S_ILSVRC2015_train_00524006.png	226.37160408300406	0.8202166249975562
39	206.23567866699887	response	0	j		37.0	/Users/shufanzhang/Documents/PhD/Arrow_of_time/arrow_of_time/pictures/R_S_ILSVRC2015_train_00524006.png	227.18106670799898	
40	206.2464326670015	picture	0		156	38.0	/Users/shufanzhang/Documents/PhD/Arrow_of_time/arrow_of_time/pictures/n01914609_2978.JPEG	227.19182070800161	1.4652769579988671
40	207.68024941699696	response	0	k		38.0	/Users/shufanzhang/Documents/PhD/Arrow_of_time/arrow_of_time/pictures/n01914609_2978.JPEG	228.62563745799707	
41	207.71170962500037	picture	0		120	39.0	/Users/shufanzhang/Documents/PhD/Arrow_of_time/arrow_of_time/pictures/n01877812_10482.JPEG	228.65709766600048	1.0193011250084965
41	208.71144524999545	response	0	k		39.0	/Users/shufanzhang/Documents/PhD/Arrow_of_time/arrow_of_time/pictures/n01877812_10482.JPEG	229.65683329099556	
42	208.73101075000886	picture	0		101	40.0	/Users/shufanzhang/Documents/PhD/Arrow_of_time/arrow_of_time/pictures/n03854065_10600.JPEG	229.67639879100898	0.8685070419887779
42	209.58374674999504	response	0	k		40.0	/Users/shufanzhang/Documents/PhD/Arrow_of_time/arrow_of_time/pictures/n03854065_10600.JPEG	230.52913479099516	
43	209.59951779199764	picture	0		109	41.0	/Users/shufanzhang/Documents/PhD/Arrow_of_time/arrow_of_time/pictures/R_S_yt-UzWRbs9Syf4_7.png	230.54490583299776	0.9345594580081524
43	210.52322704200924	response	0	j		41.0	/Users/shufanzhang/Documents/PhD/Arrow_of_time/arrow_of_time/pictures/R_S_yt-UzWRbs9Syf4_7.png	231.46861508300935	
44	210.5340772500058	picture	0		140	42.0	/Users/shufanzhang/Documents/PhD/Arrow_of_time/arrow_of_time/pictures/n01737021_13157.JPEG	231.4794652910059	1.1748718339949846
44	211.69000554199738	response	0	k		42.0	/Users/shufanzhang/Documents/PhD/Arrow_of_time/arrow_of_time/pictures/n01737021_13157.JPEG	232.6353935829975	
45	211.70894908400078	picture	0		176	43.0	/Users/shufanzhang/Documents/PhD/Arrow_of_time/arrow_of_time/pictures/n03868242_1209.JPEG	232.6543371250009	1.4820145830017282
45	213.17585479200352	response	0	k		43.0	/Users/shufanzhang/Documents/PhD/Arrow_of_time/arrow_of_time/pictures/n03868242_1209.JPEG	234.12124283300363	
46	213.1909636670025	picture	0		109	44.0	/Users/shufanzhang/Documents/PhD/Arrow_of_time/arrow_of_time/pictures/S_b4-3.png	234.13635170800262	0.9240609580010641
46	214.10240962500393	response	0	j		44.0	/Users/shufanzhang/Documents/PhD/Arrow_of_time/arrow_of_time/pictures/S_b4-3.png	235.04779766600404	
47	214.11502462500357	picture	0		117	45.0	/Users/shufanzhang/Documents/PhD/Arrow_of_time/arrow_of_time/pictures/n01914609_165.JPEG	235.06041266600369	1.0446611249935813
47	215.15217058399867	response	0	k		45.0	/Users/shufanzhang/Documents/PhD/Arrow_of_time/arrow_of_time/pictures/n01914609_165.JPEG	236.09755862499878	
48	215.15968574999715	picture	0		149	46.0	/Users/shufanzhang/Documents/PhD/Arrow_of_time/arrow_of_time/pictures/n03992509_2240.JPEG	236.10507379099727	1.2617072090069996
48	216.4100529999996	response	0	k		46.0	/Users/shufanzhang/Documents/PhD/Arrow_of_time/arrow_of_time/pictures/n03992509_2240.JPEG	237.35544104099972	
49	216.42139295900415	picture	0		113	47.0	/Users/shufanzhang/Documents/PhD/Arrow_of_time/arrow_of_time/pictures/R_S_yt-R0gFQo85cAE_5.png	237.36678100000427	0.9453085830027703
49	217.3565202089958	response	0	j		47.0	/Users/shufanzhang/Documents/PhD/Arrow_of_time/arrow_of_time/pictures/R_S_yt-R0gFQo85cAE_5.png	238.3019082499959	
50	217.36670154200692	picture	0		127	48.0	/Users/shufanzhang/Documents/PhD/Arrow_of_time/arrow_of_time/pictures/n01768244_6160.JPEG	238.31208958300704	0.9919999580015428
50	218.34823804200278	response	0	k		48.0	/Users/shufanzhang/Documents/PhD/Arrow_of_time/arrow_of_time/pictures/n01768244_6160.JPEG	239.2936260830029	
51	218.35870150000846	picture	0		158	49.0	/Users/shufanzhang/Documents/PhD/Arrow_of_time/arrow_of_time/pictures/S_yt-B8Sy53C6Pxw_8.png	239.30408954100858	1.321827541993116
51	219.66905295899778	response	0	j		49.0	/Users/shufanzhang/Documents/PhD/Arrow_of_time/arrow_of_time/pictures/S_yt-B8Sy53C6Pxw_8.png	240.6144409999979	
52	219.68052904200158	picture	0		95	50.0	/Users/shufanzhang/Documents/PhD/Arrow_of_time/arrow_of_time/pictures/S_ILSVRC2015_train_00549001.png	240.6259170830017	0.9214505830022972
52	220.59031829200103	response	0	j		50.0	/Users/shufanzhang/Documents/PhD/Arrow_of_time/arrow_of_time/pictures/S_ILSVRC2015_train_00549001.png	241.53570633300114	
53	220.60197962500388	picture	0		123	51.0	/Users/shufanzhang/Documents/PhD/Arrow_of_time/arrow_of_time/pictures/ILSVRC2012_test_00016248.JPEG	241.547367666004	1.0611658339912537
53	221.63055337499827	response	0	k		51.0	/Users/shufanzhang/Documents/PhD/Arrow_of_time/arrow_of_time/pictures/ILSVRC2012_test_00016248.JPEG	242.5759414159984	
54	221.66314545899513	picture	0		113	52.0	/Users/shufanzhang/Documents/PhD/Arrow_of_time/arrow_of_time/pictures/R_S_yt-aiDGx4AN8J0_9.png	242.60853349999525	0.9507535410084529
54	222.60297629200795	response	0	j		52.0	/Users/shufanzhang/Documents/PhD/Arrow_of_time/arrow_of_time/pictures/R_S_yt-aiDGx4AN8J0_9.png	243.54836433300807	
55	222.61389900000358	picture	0		115	53.0	/Users/shufanzhang/Documents/PhD/Arrow_of_time/arrow_of_time/pictures/R_S_yt-JTVyt-eu4VI_1.png	243.5592870410037	0.9625235419953242
55	223.56313266699726	response	0	j		53.0	/Users/shufanzhang/Documents/PhD/Arrow_of_time/arrow_of_time/pictures/R_S_yt-JTVyt-eu4VI_1.png	244.50852070799738	
56	223.5764225419989	picture	0		107	54.0	/Users/shufanzhang/Documents/PhD/Arrow_of_time/arrow_of_time/pictures/n04389033_960.JPEG	244.52181058299902	0.8950434169964865
56	224.4612113750045	response	0	k		54.0	/Users/shufanzhang/Documents/PhD/Arrow_of_time/arrow_of_time/pictures/n04389033_960.JPEG	245.4065994160046	
57	224.4714659589954	picture	0		132	55.0	/Users/shufanzhang/Documents/PhD/Arrow_of_time/arrow_of_time/pictures/n03662601_1589.JPEG	245.4168539999955	1.1126220830046805
57	225.5703550420003	response	0	k		55.0	/Users/shufanzhang/Documents/PhD/Arrow_of_time/arrow_of_time/pictures/n03662601_1589.JPEG	246.51574308300042	
58	225.58408804200008	picture	0		106	56.0	/Users/shufanzhang/Documents/PhD/Arrow_of_time/arrow_of_time/pictures/n01531178_1980.JPEG	246.5294760830002	0.8883270420046756
58	226.46072733400797	response	0	k		56.0	/Users/shufanzhang/Documents/PhD/Arrow_of_time/arrow_of_time/pictures/n01531178_1980.JPEG	247.40611537500808	
59	226.47241508400475	picture	0		109	57.0	/Users/shufanzhang/Documents/PhD/Arrow_of_time/arrow_of_time/pictures/R_S_ILSVRC2015_train_00404003.png	247.41780312500487	0.9122214999952121
59	227.37301287500304	response	0	j		57.0	/Users/shufanzhang/Documents/PhD/Arrow_of_time/arrow_of_time/pictures/R_S_ILSVRC2015_train_00404003.png	248.31840091600316	
60	227.38463658399996	picture	0		99	58.0	/Users/shufanzhang/Documents/PhD/Arrow_of_time/arrow_of_time/pictures/S_yt-qF-69JWJX_Y_55.png	248.33002462500008	0.8761853750038426
60	228.24770125000214	response	0	j		58.0	/Users/shufanzhang/Documents/PhD/Arrow_of_time/arrow_of_time/pictures/S_yt-qF-69JWJX_Y_55.png	249.19308929100225	
61	228.2608219590038	picture	0		181	59.0	/Users/shufanzhang/Documents/PhD/Arrow_of_time/arrow_of_time/pictures/R_S_video_inspire_florida_miami_brickell_sunset_00036.png	249.20621000000392	1.5132073749991832
61	229.76211120899825	response	0	j		59.0	/Users/shufanzhang/Documents/PhD/Arrow_of_time/arrow_of_time/pictures/R_S_video_inspire_florida_miami_brickell_sunset_00036.png	250.70749924999836	
62	229.774029334003	picture	0		98	60.0	/Users/shufanzhang/Documents/PhD/Arrow_of_time/arrow_of_time/pictures/S_production_ID_3944248.png	250.7194173750031	0.8258194160007406
62	230.587954542003	response	0	j		60.0	/Users/shufanzhang/Documents/PhD/Arrow_of_time/arrow_of_time/pictures/S_production_ID_3944248.png	251.5333425830031	
63	230.59984875000373	picture	0		103	61.0	/Users/shufanzhang/Documents/PhD/Arrow_of_time/arrow_of_time/pictures/S_yt-ni4JaYu7PhU_6.png	251.54523679100384	0.8565848339931108
63	231.44421000000148	response	0	j		61.0	/Users/shufanzhang/Documents/PhD/Arrow_of_time/arrow_of_time/pictures/S_yt-ni4JaYu7PhU_6.png	252.3895980410016	
64	231.45643358399684	picture	0		93	62.0	/Users/shufanzhang/Documents/PhD/Arrow_of_time/arrow_of_time/pictures/R_S_yt-w_e3sxIzepA_115.png	252.40182162499696	0.7841055410099216
64	232.2228372499958	response	0	j		62.0	/Users/shufanzhang/Documents/PhD/Arrow_of_time/arrow_of_time/pictures/R_S_yt-w_e3sxIzepA_115.png	253.1682252909959	
65	232.24053912500676	picture	0		104	63.0	/Users/shufanzhang/Documents/PhD/Arrow_of_time/arrow_of_time/pictures/n01981276_18340.JPEG	253.18592716600688	0.8727745419892017
65	233.1022342500073	response	0	k		63.0	/Users/shufanzhang/Documents/PhD/Arrow_of_time/arrow_of_time/pictures/n01981276_18340.JPEG	254.04762229100743	
66	233.11331366699596	picture	0		107	64.0	/Users/shufanzhang/Documents/PhD/Arrow_of_time/arrow_of_time/pictures/S_yt-Id-f63kUHsE_20.png	254.05870170799608	0.9012257920112461
66	234.00326595900697	response	0	j		64.0	/Users/shufanzhang/Documents/PhD/Arrow_of_time/arrow_of_time/pictures/S_yt-Id-f63kUHsE_20.png	254.94865400000708	
67	234.0145394590072	picture	0		108	65.0	/Users/shufanzhang/Documents/PhD/Arrow_of_time/arrow_of_time/pictures/R_S_yt-zKnjBBYWe90_369.png	254.95992750000732	0.9565906249918044
67	234.94857212499483	response	0	j		65.0	/Users/shufanzhang/Documents/PhD/Arrow_of_time/arrow_of_time/pictures/R_S_yt-zKnjBBYWe90_369.png	255.89396016599494	
68	234.97113008399901	picture	0		115	66.0	/Users/shufanzhang/Documents/PhD/Arrow_of_time/arrow_of_time/pictures/n01872401_18520.JPEG	255.91651812499913	0.9747486660053255
68	235.93593074999808	response	0	k		66.0	/Users/shufanzhang/Documents/PhD/Arrow_of_time/arrow_of_time/pictures/n01872401_18520.JPEG	256.8813187909982	
69	235.94587875000434	picture	0		110	67.0	/Users/shufanzhang/Documents/PhD/Arrow_of_time/arrow_of_time/pictures/S_yt-0qfEA1ZFWjA_123.png	256.89126679100445	0.925354499995592
69	236.85984137500054	response	0	j		67.0	/Users/shufanzhang/Documents/PhD/Arrow_of_time/arrow_of_time/pictures/S_yt-0qfEA1ZFWjA_123.png	257.80522941600066	
70	236.87123324999993	picture	0		151	68.0	/Users/shufanzhang/Documents/PhD/Arrow_of_time/arrow_of_time/pictures/S_yt-ejSzwn8tY8g_49.png	257.81662129100005	1.2664094589999877
70	238.12732791699818	response	0	j		68.0	/Users/shufanzhang/Documents/PhD/Arrow_of_time/arrow_of_time/pictures/S_yt-ejSzwn8tY8g_49.png	259.0727159579983	
71	238.13764270899992	picture	0		112	69.0	/Users/shufanzhang/Documents/PhD/Arrow_of_time/arrow_of_time/pictures/R_S_ILSVRC2015_train_00369004.png	259.08303075000003	0.9347178330062889
71	239.06018583400873	response	0	j		69.0	/Users/shufanzhang/Documents/PhD/Arrow_of_time/arrow_of_time/pictures/R_S_ILSVRC2015_train_00369004.png	260.00557387500885	
72	239.0723605420062	picture	0		127	70.0	/Users/shufanzhang/Documents/PhD/Arrow_of_time/arrow_of_time/pictures/S_yt-DpLc4e4bpu0_1467.png	260.0177485830063	1.0676617080025608
72	240.12814458399953	response	0	k		70.0	/Users/shufanzhang/Documents/PhD/Arrow_of_time/arrow_of_time/pictures/S_yt-DpLc4e4bpu0_1467.png	261.07353262499964	
73	240.14002225000877	picture	0		193	71.0	/Users/shufanzhang/Documents/PhD/Arrow_of_time/arrow_of_time/pictures/S_yt-BG-G7m5wLZ4_94.png	261.0854102910089	1.6075857089890633
73	241.7356573750003	response	0	j		71.0	/Users/shufanzhang/Documents/PhD/Arrow_of_time/arrow_of_time/pictures/S_yt-BG-G7m5wLZ4_94.png	262.6810454160004	
74	241.74760795899783	picture	0		113	72.0	/Users/shufanzhang/Documents/PhD/Arrow_of_time/arrow_of_time/pictures/S_yt-gMqeZkpA_1Q_61.png	262.69299599999795	0.9645470830000704
74	242.68035645900818	response	0	j		72.0	/Users/shufanzhang/Documents/PhD/Arrow_of_time/arrow_of_time/pictures/S_yt-gMqeZkpA_1Q_61.png	263.6257445000083	
75	242.7121550419979	picture	0		98	73.0	/Users/shufanzhang/Documents/PhD/Arrow_of_time/arrow_of_time/pictures/R_S_yt-McqS-QObQbk_122.png	263.657543082998	0.8232953330007149
75	243.52131808400736	response	0	j		73.0	/Users/shufanzhang/Documents/PhD/Arrow_of_time/arrow_of_time/pictures/R_S_yt-McqS-QObQbk_122.png	264.4667061250075	
76	243.53545037499862	picture	0		97	74.0	/Users/shufanzhang/Documents/PhD/Arrow_of_time/arrow_of_time/pictures/n01924916_8864.JPEG	264.48083841599873	0.8125605840032222
76	244.33571537499665	response	0	k		74.0	/Users/shufanzhang/Documents/PhD/Arrow_of_time/arrow_of_time/pictures/n01924916_8864.JPEG	265.28110341599677	
77	244.34801095900184	picture	0		108	75.0	/Users/shufanzhang/Documents/PhD/Arrow_of_time/arrow_of_time/pictures/S_pexels-mart-production-7698693.png	265.29339900000195	0.9039486249967013
77	245.24245874999906	response	0	j		75.0	/Users/shufanzhang/Documents/PhD/Arrow_of_time/arrow_of_time/pictures/S_pexels-mart-production-7698693.png	266.1878467909992	
78	245.25195958399854	picture	0		108	76.0	/Users/shufanzhang/Documents/PhD/Arrow_of_time/arrow_of_time/pictures/S_yt-UmLeGNcqouI_718.png	266.19734762499866	0.9165512080071494
78	246.1540300839988	response	0	j		76.0	/Users/shufanzhang/Documents/PhD/Arrow_of_time/arrow_of_time/pictures/S_yt-UmLeGNcqouI_718.png	267.0994181249989	
79	246.1685107920057	picture	0		249	77.0	/Users/shufanzhang/Documents/PhD/Arrow_of_time/arrow_of_time/pictures/n01860187_6680.JPEG	267.1138988330058	2.0905693329987116
79	248.2458396669972	response	0	k		77.0	/Users/shufanzhang/Documents/PhD/Arrow_of_time/arrow_of_time/pictures/n01860187_6680.JPEG	269.1912277079973	
80	248.2590801250044	picture	0		109	78.0	/Users/shufanzhang/Documents/PhD/Arrow_of_time/arrow_of_time/pictures/n03670208_42576.JPEG	269.2044681660045	0.9275347090006107
80	249.1551942090009	response	0	k		78.0	/Users/shufanzhang/Documents/PhD/Arrow_of_time/arrow_of_time/pictures/n03670208_42576.JPEG	270.100582250001	
81	249.186614834005	picture	0		103	79.0	/Users/shufanzhang/Documents/PhD/Arrow_of_time/arrow_of_time/pictures/R_S_ILSVRC2015_train_00745000.png	270.1320028750051	0.8703160409932025
81	250.04439662500226	response	0	j		79.0	/Users/shufanzhang/Documents/PhD/Arrow_of_time/arrow_of_time/pictures/R_S_ILSVRC2015_train_00745000.png	270.9897846660024	
82	250.05693087499822	picture	0		100	80.0	/Users/shufanzhang/Documents/PhD/Arrow_of_time/arrow_of_time/pictures/n01687978_7602.JPEG	271.00231891599833	0.8408673750091111
82	250.8868722920015	response	0	k		80.0	/Users/shufanzhang/Documents/PhD/Arrow_of_time/arrow_of_time/pictures/n01687978_7602.JPEG	271.8322603330016	
83	250.89779825000733	picture	0		118	81.0	/Users/shufanzhang/Documents/PhD/Arrow_of_time/arrow_of_time/pictures/n01729322_5682.JPEG	271.84318629100744	1.0457576670014532
83	251.9287026249949	response	0	k		81.0	/Users/shufanzhang/Documents/PhD/Arrow_of_time/arrow_of_time/pictures/n01729322_5682.JPEG	272.874090665995	
84	251.94355591700878	picture	0		174	82.0	/Users/shufanzhang/Documents/PhD/Arrow_of_time/arrow_of_time/pictures/R_S_ILSVRC2015_train_00165012.png	272.8889439580089	1.4567929999902844
84	253.38006616699568	response	0	j		82.0	/Users/shufanzhang/Documents/PhD/Arrow_of_time/arrow_of_time/pictures/R_S_ILSVRC2015_train_00165012.png	274.3254542079958	
85	253.40034891699906	picture	0		95	83.0	/Users/shufanzhang/Documents/PhD/Arrow_of_time/arrow_of_time/pictures/n01980166_4821.JPEG	274.3457369579992	0.8041593750094762
85	254.18918616700103	response	0	k		83.0	/Users/shufanzhang/Documents/PhD/Arrow_of_time/arrow_of_time/pictures/n01980166_4821.JPEG	275.13457420800114	
86	254.20450829200854	picture	0		122	84.0	/Users/shufanzhang/Documents/PhD/Arrow_of_time/arrow_of_time/pictures/n03733281_12070.JPEG	275.14989633300866	1.0555800829897635
86	255.25079837499652	response	0	k		84.0	/Users/shufanzhang/Documents/PhD/Arrow_of_time/arrow_of_time/pictures/n03733281_12070.JPEG	276.19618641599664	
87	255.2600883749983	picture	0		111	85.0	/Users/shufanzhang/Documents/PhD/Arrow_of_time/arrow_of_time/pictures/S_comp_GMT060_117NC_363D_1034_AUSTRALIA_v35_SDR_PS_FINAL_20180731_SDR_2K_AVC.png	276.2054764159984	0.9374329170095734
87	256.1863025000057	response	0	j		85.0	/Users/shufanzhang/Documents/PhD/Arrow_of_time/arrow_of_time/pictures/S_comp_GMT060_117NC_363D_1034_AUSTRALIA_v35_SDR_PS_FINAL_20180731_SDR_2K_AVC.png	277.1316905410058	
88	256.1975212920079	picture	0		102	86.0	/Users/shufanzhang/Documents/PhD/Arrow_of_time/arrow_of_time/pictures/R_S_yt-AjyR9--Mx3A_44.png	277.142909333008	0.9329515419958625
88	257.1189565840032	response	0	j		86.0	/Users/shufanzhang/Documents/PhD/Arrow_of_time/arrow_of_time/pictures/R_S_yt-AjyR9--Mx3A_44.png	278.0643446250033	
89	257.13047283400374	picture	0		98	87.0	/Users/shufanzhang/Documents/PhD/Arrow_of_time/arrow_of_time/pictures/n07760859_6649.JPEG	278.07586087500385	0.8213897079986054
89	257.9380168750067	response	0	k		87.0	/Users/shufanzhang/Documents/PhD/Arrow_of_time/arrow_of_time/pictures/n07760859_6649.JPEG	278.88340491600684	
90	257.95186254200235	picture	0		129	88.0	/Users/shufanzhang/Documents/PhD/Arrow_of_time/arrow_of_time/pictures/S_yt-25xuzTBhwPk_109.png	278.89725058300246	1.117912667003111
90	259.04806016699877	response	0	j		88.0	/Users/shufanzhang/Documents/PhD/Arrow_of_time/arrow_of_time/pictures/S_yt-25xuzTBhwPk_109.png	279.9934482079989	
91	259.06977520900546	picture	0		94	89.0	/Users/shufanzhang/Documents/PhD/Arrow_of_time/arrow_of_time/pictures/n04146614_5867.JPEG	280.01516325000557	0.8395510409900453
91	259.89069658399967	response	0	k		89.0	/Users/shufanzhang/Documents/PhD/Arrow_of_time/arrow_of_time/pictures/n04146614_5867.JPEG	280.8360846249998	
92	259.9093262499955	picture	0		139	90.0	/Users/shufanzhang/Documents/PhD/Arrow_of_time/arrow_of_time/pictures/n03485407_1212.JPEG	280.8547142909956	1.1607157500111498
92	261.0634828339971	response	0	k		90.0	/Users/shufanzhang/Documents/PhD/Arrow_of_time/arrow_of_time/pictures/n03485407_1212.JPEG	282.0088708749972	
93	261.07004200000665	picture	0		108	91.0	/Users/shufanzhang/Documents/PhD/Arrow_of_time/arrow_of_time/pictures/S_yt-HFiRYTnMZxE_338.png	282.01543004100677	0.9079634590016212
93	261.9609452500008	response	0	j		91.0	/Users/shufanzhang/Documents/PhD/Arrow_of_time/arrow_of_time/pictures/S_yt-HFiRYTnMZxE_338.png	282.9063332910009	
94	261.9780054590083	picture	0		109	92.0	/Users/shufanzhang/Documents/PhD/Arrow_of_time/arrow_of_time/pictures/n03970156_53124.JPEG	282.9233935000084	0.9163083329913206
94	262.8823027920007	response	0	k		92.0	/Users/shufanzhang/Documents/PhD/Arrow_of_time/arrow_of_time/pictures/n03970156_53124.JPEG	283.8276908330008	
95	262.8943137919996	picture	0		148	93.0	/Users/shufanzhang/Documents/PhD/Arrow_of_time/arrow_of_time/pictures/n03954731_3715.JPEG	283.8397018329997	1.2395692499994766
95	264.1232197089994	response	0	k		93.0	/Users/shufanzhang/Documents/PhD/Arrow_of_time/arrow_of_time/pictures/n03954731_3715.JPEG	285.0686077499995	
96	264.13388304199907	picture	0		859	94.0	/Users/shufanzhang/Documents/PhD/Arrow_of_time/arrow_of_time/pictures/S_yt-iuqdW5OLSzc_6.png	285.0792710829992	7.185919708004803
96	271.3062835000019	response	0	j		94.0	/Users/shufanzhang/Documents/PhD/Arrow_of_time/arrow_of_time/pictures/S_yt-iuqdW5OLSzc_6.png	292.251671541002	
97	271.3198027500039	picture	0		79	95.0	/Users/shufanzhang/Documents/PhD/Arrow_of_time/arrow_of_time/pictures/n01688243_3064.JPEG	292.265190791004	0.7386961669981247
97	272.04832645900024	response	0	k		95.0	/Users/shufanzhang/Documents/PhD/Arrow_of_time/arrow_of_time/pictures/n01688243_3064.JPEG	292.99371450000035	
98	272.058498917002	picture	0		108	96.0	/Users/shufanzhang/Documents/PhD/Arrow_of_time/arrow_of_time/pictures/ILSVRC2012_test_00088583.JPEG	293.0038869580021	0.9109076250024373
98	272.95769024999754	response	0	k		96.0	/Users/shufanzhang/Documents/PhD/Arrow_of_time/arrow_of_time/pictures/ILSVRC2012_test_00088583.JPEG	293.90307829099766	
99	272.96940654200444	picture	0		94	97.0	/Users/shufanzhang/Documents/PhD/Arrow_of_time/arrow_of_time/pictures/R_S_yt-HoRtvVuuvOs_5.png	293.91479458300455	0.7857967919990188
99	273.74360233399784	response	0	j		97.0	/Users/shufanzhang/Documents/PhD/Arrow_of_time/arrow_of_time/pictures/R_S_yt-HoRtvVuuvOs_5.png	294.68899037499796	
100	273.75520333400345	picture	0		182	98.0	/Users/shufanzhang/Documents/PhD/Arrow_of_time/arrow_of_time/pictures/S_yt-D99Pp5JlUQI_47.png	294.70059137500357	1.731124041005387
100	275.4571700000088	response	0	k		98.0	/Users/shufanzhang/Documents/PhD/Arrow_of_time/arrow_of_time/pictures/S_yt-D99Pp5JlUQI_47.png	296.4025580410089	
101	275.48632737500884	picture	0		145	99.0	/Users/shufanzhang/Documents/PhD/Arrow_of_time/arrow_of_time/pictures/ILSVRC2012_test_00072196.JPEG	296.43171541600896	1.2121838339953683
101	276.684062291999	response	0	k		99.0	/Users/shufanzhang/Documents/PhD/Arrow_of_time/arrow_of_time/pictures/ILSVRC2012_test_00072196.JPEG	297.6294503329991	
102	276.6985112090042	picture	0		91	100.0	/Users/shufanzhang/Documents/PhD/Arrow_of_time/arrow_of_time/pictures/R_S_yt-BAwvfRmE1LU_79.png	297.6438992500043	0.7795225830050185
102	277.47076633400866	response	0	j		100.0	/Users/shufanzhang/Documents/PhD/Arrow_of_time/arrow_of_time/pictures/R_S_yt-BAwvfRmE1LU_79.png	298.4161543750088	
103	277.4780337920092	picture	0		236	101.0	/Users/shufanzhang/Documents/PhD/Arrow_of_time/arrow_of_time/pictures/S_yt--4P7Xab3nPw_304.png	298.42342183300934	1.979590291986824
103	279.4458030840033	response	0	k		101.0	/Users/shufanzhang/Documents/PhD/Arrow_of_time/arrow_of_time/pictures/S_yt--4P7Xab3nPw_304.png	300.3911911250034	
104	279.45762408399605	picture	0		119	102.0	/Users/shufanzhang/Documents/PhD/Arrow_of_time/arrow_of_time/pictures/S_yt-2y6A9DJPsDU_65.png	300.40301212499617	0.9999312500003725
104	280.44544820900774	response	0	j		102.0	/Users/shufanzhang/Documents/PhD/Arrow_of_time/arrow_of_time/pictures/S_yt-2y6A9DJPsDU_65.png	301.39083625000785	
105	280.4575553339964	picture	0		281	103.0	/Users/shufanzhang/Documents/PhD/Arrow_of_time/arrow_of_time/pictures/S_yt-QytEkcDtaQA_9.png	301.40294337499654	2.337968332998571
105	282.78384379199997	response	0	k		103.0	/Users/shufanzhang/Documents/PhD/Arrow_of_time/arrow_of_time/pictures/S_yt-QytEkcDtaQA_9.png	303.7292318330001	
106	282.795523666995	picture	0		94	104.0	/Users/shufanzhang/Documents/PhD/Arrow_of_time/arrow_of_time/pictures/R_S_yt-aqrdb6BiFx4_12.png	303.7409117079951	0.8023685830121394
106	283.5864675420016	response	0	j		104.0	/Users/shufanzhang/Documents/PhD/Arrow_of_time/arrow_of_time/pictures/R_S_yt-aqrdb6BiFx4_12.png	304.53185558300174	
107	283.59789225000713	picture	0		107	105.0	/Users/shufanzhang/Documents/PhD/Arrow_of_time/arrow_of_time/pictures/S_yt-g_LvosijBF0_54.png	304.54328029100725	1.2410438749939203
107	284.8273524170072	response	0	k		105.0	/Users/shufanzhang/Documents/PhD/Arrow_of_time/arrow_of_time/pictures/S_yt-g_LvosijBF0_54.png	305.7727404580073	
108	284.83893612500106	picture	0		78	106.0	/Users/shufanzhang/Documents/PhD/Arrow_of_time/arrow_of_time/pictures/S_yt-TNtO8RPd3iE_25.png	305.78432416600117	0.8489009170007193
108	285.67527833400527	response	0	j		106.0	/Users/shufanzhang/Documents/PhD/Arrow_of_time/arrow_of_time/pictures/S_yt-TNtO8RPd3iE_25.png	306.6206663750054	
109	285.6878370420018	picture	0		159	107.0	/Users/shufanzhang/Documents/PhD/Arrow_of_time/arrow_of_time/pictures/S_yt-8wyJ7zyOo8g_9.png	306.6332250830019	1.3301996670052176
109	287.0065792499954	response	0	k		107.0	/Users/shufanzhang/Documents/PhD/Arrow_of_time/arrow_of_time/pictures/S_yt-8wyJ7zyOo8g_9.png	307.9519672909955	
110	287.018036709007	picture	0		105	108.0	/Users/shufanzhang/Documents/PhD/Arrow_of_time/arrow_of_time/pictures/S_yt-MNo__ov96eI_22.png	307.9634247500071	1.0106733329885174
110	288.0111345839978	response	0	j		108.0	/Users/shufanzhang/Documents/PhD/Arrow_of_time/arrow_of_time/pictures/S_yt-MNo__ov96eI_22.png	308.9565226249979	
111	288.0287100419955	picture	0		109	109.0	/Users/shufanzhang/Documents/PhD/Arrow_of_time/arrow_of_time/pictures/n03131574_4227.JPEG	308.9740980829956	0.9145671670121374
111	288.92839312499564	response	0	k		109.0	/Users/shufanzhang/Documents/PhD/Arrow_of_time/arrow_of_time/pictures/n03131574_4227.JPEG	309.87378116599575	
112	288.94327720900765	picture	0		440	110.0	/Users/shufanzhang/Documents/PhD/Arrow_of_time/arrow_of_time/pictures/R_S_PA_A004_C003_SDR_20190719_SDR_2K_AVC.png	309.88866525000776	3.6827210829942487
112	292.615052292007	response	0	j		110.0	/Users/shufanzhang/Documents/PhD/Arrow_of_time/arrow_of_time/pictures/R_S_PA_A004_C003_SDR_20190719_SDR_2K_AVC.png	313.56044033300714	
113	292.6259982920019	picture	0		188	111.0	/Users/shufanzhang/Documents/PhD/Arrow_of_time/arrow_of_time/pictures/S_yt-WRBmpC-RxIc_678.png	313.571386333002	1.5836100000014994
113	294.19036379200406	response	0	j		111.0	/Users/shufanzhang/Documents/PhD/Arrow_of_time/arrow_of_time/pictures/S_yt-WRBmpC-RxIc_678.png	315.1357518330042	
114	294.2096082920034	picture	0		155	112.0	/Users/shufanzhang/Documents/PhD/Arrow_of_time/arrow_of_time/pictures/n03891251_1488.JPEG	315.1549963330035	1.4055769580008928
114	295.6036832920072	response	0	k		112.0	/Users/shufanzhang/Documents/PhD/Arrow_of_time/arrow_of_time/pictures/n03891251_1488.JPEG	316.5490713330073	
115	295.6151852500043	picture	0		90	113.0	/Users/shufanzhang/Documents/PhD/Arrow_of_time/arrow_of_time/pictures/n02281787_2559.JPEG	316.5605732910044	0.7488091249979334
115	296.3524370840023	response	0	k		113.0	/Users/shufanzhang/Documents/PhD/Arrow_of_time/arrow_of_time/pictures/n02281787_2559.JPEG	317.2978251250024	
116	296.3639943750022	picture	0		118	114.0	/Users/shufanzhang/Documents/PhD/Arrow_of_time/arrow_of_time/pictures/n02114855_11083.JPEG	317.30938241600234	0.9904125419998309
116	297.34403150000435	response	0	k		114.0	/Users/shufanzhang/Documents/PhD/Arrow_of_time/arrow_of_time/pictures/n02114855_11083.JPEG	318.28941954100446	
117	297.35440691700205	picture	0		117	115.0	/Users/shufanzhang/Documents/PhD/Arrow_of_time/arrow_of_time/pictures/n04258138_7132.JPEG	318.29979495800217	0.9844555419986136
117	298.32811687499634	response	0	k		115.0	/Users/shufanzhang/Documents/PhD/Arrow_of_time/arrow_of_time/pictures/n04258138_7132.JPEG	319.27350491599645	
118	298.33886245900067	picture	0		96	116.0	/Users/shufanzhang/Documents/PhD/Arrow_of_time/arrow_of_time/pictures/S_yt-x7TqP8l4lCA_39.png	319.2842505000008	0.8896482080017449
118	299.21284779200505	response	0	j		116.0	/Users/shufanzhang/Documents/PhD/Arrow_of_time/arrow_of_time/pictures/S_yt-x7TqP8l4lCA_39.png	320.15823583300516	
119	299.2285106670024	picture	0		358	117.0	/Users/shufanzhang/Documents/PhD/Arrow_of_time/arrow_of_time/pictures/S_b1-3.png	320.1738987080025	3.0287126670009457
119	302.242292875002	response	0	k		117.0	/Users/shufanzhang/Documents/PhD/Arrow_of_time/arrow_of_time/pictures/S_b1-3.png	323.18768091600214	
120	302.25722333400336	picture	0		109	118.0	/Users/shufanzhang/Documents/PhD/Arrow_of_time/arrow_of_time/pictures/n04146614_1829.JPEG	323.20261137500347	0.912302249998902
120	303.1564429590071	response	0	k		118.0	/Users/shufanzhang/Documents/PhD/Arrow_of_time/arrow_of_time/pictures/n04146614_1829.JPEG	324.1018310000072	
121	303.16952558400226	picture	0		120	119.0	/Users/shufanzhang/Documents/PhD/Arrow_of_time/arrow_of_time/pictures/n02727426_14171.JPEG	324.1149136250024	1.0033091249933932
121	304.15888991700194	response	0	k		119.0	/Users/shufanzhang/Documents/PhD/Arrow_of_time/arrow_of_time/pictures/n02727426_14171.JPEG	325.10427795800206	
122	304.17283470899565	picture	0		88	120.0	/Users/shufanzhang/Documents/PhD/Arrow_of_time/arrow_of_time/pictures/R_S_ILSVRC2015_train_00595000.png	325.11822274999577	0.7714537910069339
122	304.9327570000023	response	0	j		120.0	/Users/shufanzhang/Documents/PhD/Arrow_of_time/arrow_of_time/pictures/R_S_ILSVRC2015_train_00595000.png	325.8781450410024	
123	304.9442885000026	picture	0		94	121.0	/Users/shufanzhang/Documents/PhD/Arrow_of_time/arrow_of_time/pictures/S_dwi2oPzQ1Wo_48.png	325.8896765410027	0.796713167001144
123	305.7230692090088	response	0	j		121.0	/Users/shufanzhang/Documents/PhD/Arrow_of_time/arrow_of_time/pictures/S_dwi2oPzQ1Wo_48.png	326.66845725000894	
124	305.74100166700373	picture	0		82	122.0	/Users/shufanzhang/Documents/PhD/Arrow_of_time/arrow_of_time/pictures/n02279972_36722.JPEG	326.68638970800384	0.7246847079950385
124	306.45275050000055	response	0	k		122.0	/Users/shufanzhang/Documents/PhD/Arrow_of_time/arrow_of_time/pictures/n02279972_36722.JPEG	327.39813854100066	
125	306.46568637499877	picture	0		100	123.0	/Users/shufanzhang/Documents/PhD/Arrow_of_time/arrow_of_time/pictures/R_S_pexels-roman-odintsov-8232443.png	327.4110744159989	0.8387623750022613
125	307.2938837920083	response	0	j		123.0	/Users/shufanzhang/Documents/PhD/Arrow_of_time/arrow_of_time/pictures/R_S_pexels-roman-odintsov-8232443.png	328.2392718330084	
126	307.30444875000103	picture	0		97	124.0	/Users/shufanzhang/Documents/PhD/Arrow_of_time/arrow_of_time/pictures/R_S_yt-ph1AkIToO4E_46.png	328.24983679100114	0.8351679589977721
126	308.1271812920022	response	0	j		124.0	/Users/shufanzhang/Documents/PhD/Arrow_of_time/arrow_of_time/pictures/R_S_yt-ph1AkIToO4E_46.png	329.0725693330023	
127	308.1396167089988	picture	0		113	125.0	/Users/shufanzhang/Documents/PhD/Arrow_of_time/arrow_of_time/pictures/S_comp_A103_C002_0205DG_v12_SDR_FINAL_20180706_SDR_2K_AVC.png	329.0850047499989	0.9660173750016838
127	309.08915191699634	response	0	j		125.0	/Users/shufanzhang/Documents/PhD/Arrow_of_time/arrow_of_time/pictures/S_comp_A103_C002_0205DG_v12_SDR_FINAL_20180706_SDR_2K_AVC.png	330.03453995799646	
128	309.1056340840005	picture	0		127	126.0	/Users/shufanzhang/Documents/PhD/Arrow_of_time/arrow_of_time/pictures/n03126707_32441.JPEG	330.0510221250006	1.10430829100369
128	310.19778729199606	response	0	k		126.0	/Users/shufanzhang/Documents/PhD/Arrow_of_time/arrow_of_time/pictures/n03126707_32441.JPEG	331.1431753329962	
129	310.2099423750042	picture	0		110	127.0	/Users/shufanzhang/Documents/PhD/Arrow_of_time/arrow_of_time/pictures/S_59eT4XDXNno_25.png	331.1553304160043	1.0483033749915194
129	311.22576958400896	response	0	j		127.0	/Users/shufanzhang/Documents/PhD/Arrow_of_time/arrow_of_time/pictures/S_59eT4XDXNno_25.png	332.1711576250091	
130	311.2582457499957	picture	0		198	128.0	/Users/shufanzhang/Documents/PhD/Arrow_of_time/arrow_of_time/pictures/ILSVRC2012_test_00009846.JPEG	332.2036337909958	1.658659084001556
130	312.90633083399734	response	0	k		128.0	/Users/shufanzhang/Documents/PhD/Arrow_of_time/arrow_of_time/pictures/ILSVRC2012_test_00009846.JPEG	333.85171887499746	
131	312.91690483399725	picture	0		92	129.0	/Users/shufanzhang/Documents/PhD/Arrow_of_time/arrow_of_time/pictures/n04131690_6113.JPEG	333.86229287499737	0.772009332999005
131	313.6775014589948	response	0	k		129.0	/Users/shufanzhang/Documents/PhD/Arrow_of_time/arrow_of_time/pictures/n04131690_6113.JPEG	334.6228894999949	
132	313.68891416699626	picture	0		285	130.0	/Users/shufanzhang/Documents/PhD/Arrow_of_time/arrow_of_time/pictures/S_yt-zLZ4NEUf9tM_19.png	334.63430220799637	2.4006759580079233
132	316.0778757500084	response	0	j		130.0	/Users/shufanzhang/Documents/PhD/Arrow_of_time/arrow_of_time/pictures/S_yt-zLZ4NEUf9tM_19.png	337.0232637910085	
133	316.0895901250042	picture	0		101	131.0	/Users/shufanzhang/Documents/PhD/Arrow_of_time/arrow_of_time/pictures/S_yt-ebajhZwlVJM_32.png	337.0349781660043	0.8481377089919988
133	316.9227225000068	response	0	j		131.0	/Users/shufanzhang/Documents/PhD/Arrow_of_time/arrow_of_time/pictures/S_yt-ebajhZwlVJM_32.png	337.8681105410069	
134	316.9377278339962	picture	0		199	132.0	/Users/shufanzhang/Documents/PhD/Arrow_of_time/arrow_of_time/pictures/n03661043_10366.JPEG	337.8831158749963	1.668281416001264
134	318.5948668339988	response	0	k		132.0	/Users/shufanzhang/Documents/PhD/Arrow_of_time/arrow_of_time/pictures/n03661043_10366.JPEG	339.54025487499894	
135	318.60600924999744	picture	0		198	133.0	/Users/shufanzhang/Documents/PhD/Arrow_of_time/arrow_of_time/pictures/S_yt-12WvjZ36dmU_4.png	339.55139729099756	1.6513979590090457
135	320.2463200420025	response	0	k		133.0	/Users/shufanzhang/Documents/PhD/Arrow_of_time/arrow_of_time/pictures/S_yt-12WvjZ36dmU_4.png	341.1917080830026	
136	320.2574072090065	picture	0		100	134.0	/Users/shufanzhang/Documents/PhD/Arrow_of_time/arrow_of_time/pictures/S_wc-1MzpHfRq1MUK_32.png	341.2027952500066	0.8337342500017257
136	321.07962404200225	response	0	j		134.0	/Users/shufanzhang/Documents/PhD/Arrow_of_time/arrow_of_time/pictures/S_wc-1MzpHfRq1MUK_32.png	342.02501208300237	
137	321.0911414590082	picture	0		106	135.0	/Users/shufanzhang/Documents/PhD/Arrow_of_time/arrow_of_time/pictures/S_ILSVRC2015_train_00682006.png	342.0365295000083	0.8821536659961566
137	321.95460945900413	response	0	k		135.0	/Users/shufanzhang/Documents/PhD/Arrow_of_time/arrow_of_time/pictures/S_ILSVRC2015_train_00682006.png	342.89999750000425	
138	321.97329512500437	picture	0		117	136.0	/Users/shufanzhang/Documents/PhD/Arrow_of_time/arrow_of_time/pictures/n04335435_985.JPEG	342.9186831660045	0.9859092499973485
138	322.945544000002	response	0	k		136.0	/Users/shufanzhang/Documents/PhD/Arrow_of_time/arrow_of_time/pictures/n04335435_985.JPEG	343.8909320410021	
139	322.9592043750017	picture	0		95	137.0	/Users/shufanzhang/Documents/PhD/Arrow_of_time/arrow_of_time/pictures/n04259630_16135.JPEG	343.90459241600183	0.7986871250031982
139	323.7443933750037	response	0	k		137.0	/Users/shufanzhang/Documents/PhD/Arrow_of_time/arrow_of_time/pictures/n04259630_16135.JPEG	344.6897814160038	
140	323.7578915000049	picture	0		209	138.0	/Users/shufanzhang/Documents/PhD/Arrow_of_time/arrow_of_time/pictures/S_flickr-lamujuri-10653517683_4.png	344.70327954100503	1.7406532500026515
140	325.48660891699546	response	0	j		138.0	/Users/shufanzhang/Documents/PhD/Arrow_of_time/arrow_of_time/pictures/S_flickr-lamujuri-10653517683_4.png	346.4319969579956	
141	325.49854475000757	picture	0		106	139.0	/Users/shufanzhang/Documents/PhD/Arrow_of_time/arrow_of_time/pictures/ILSVRC2012_test_00014080.JPEG	346.4439327910077	0.8820800419925945
141	326.3681127089949	response	0	k		139.0	/Users/shufanzhang/Documents/PhD/Arrow_of_time/arrow_of_time/pictures/ILSVRC2012_test_00014080.JPEG	347.313500749995	
142	326.38062479200016	picture	0		109	140.0	/Users/shufanzhang/Documents/PhD/Arrow_of_time/arrow_of_time/pictures/S_yt-WTxvvlP8xnw_113.png	347.3260128330003	0.9117922080040444
142	327.27981562500645	response	0	j		140.0	/Users/shufanzhang/Documents/PhD/Arrow_of_time/arrow_of_time/pictures/S_yt-WTxvvlP8xnw_113.png	348.22520366600656	
143	327.2924170000042	picture	0		103	141.0	/Users/shufanzhang/Documents/PhD/Arrow_of_time/arrow_of_time/pictures/S_yt-lCb_efvJcdE_5.png	348.2378050410043	0.8559066250018077
143	328.13520791700284	response	0	j		141.0	/Users/shufanzhang/Documents/PhD/Arrow_of_time/arrow_of_time/pictures/S_yt-lCb_efvJcdE_5.png	349.08059595800296	
144	328.148323625006	picture	0		102	142.0	/Users/shufanzhang/Documents/PhD/Arrow_of_time/arrow_of_time/pictures/S_yt-pOCEuqVE7ro_61.png	349.09371166600613	0.8582448749948526
144	328.9937973339984	response	0	j		142.0	/Users/shufanzhang/Documents/PhD/Arrow_of_time/arrow_of_time/pictures/S_yt-pOCEuqVE7ro_61.png	349.9391853749985	
145	329.00656850000087	picture	0		110	143.0	/Users/shufanzhang/Documents/PhD/Arrow_of_time/arrow_of_time/pictures/n03791053_292.JPEG	349.951956541001	0.9170687090081628
145	329.91158041699964	response	0	k		143.0	/Users/shufanzhang/Documents/PhD/Arrow_of_time/arrow_of_time/pictures/n03791053_292.JPEG	350.85696845799976	
146	329.92363720900903	picture	0		114	144.0	/Users/shufanzhang/Documents/PhD/Arrow_of_time/arrow_of_time/pictures/R_S_yt-tfHCqgH1guY_235.png	350.86902525000914	0.9509629579988541
146	330.86124437500257	response	0	j		144.0	/Users/shufanzhang/Documents/PhD/Arrow_of_time/arrow_of_time/pictures/R_S_yt-tfHCqgH1guY_235.png	351.8066324160027	
147	330.8746001670079	picture	0		196	145.0	/Users/shufanzhang/Documents/PhD/Arrow_of_time/arrow_of_time/pictures/S_yt-tOOaOzYvtKE_79.png	351.819988208008	1.6278810419898946
147	332.4952404170035	response	0	j		145.0	/Users/shufanzhang/Documents/PhD/Arrow_of_time/arrow_of_time/pictures/S_yt-tOOaOzYvtKE_79.png	353.44062845800363	
148	332.5024812089978	picture	0		112	146.0	/Users/shufanzhang/Documents/PhD/Arrow_of_time/arrow_of_time/pictures/R_S_production_ID_5049072.png	353.4478692499979	0.9786363330058521
148	333.4692402500077	response	0	j		146.0	/Users/shufanzhang/Documents/PhD/Arrow_of_time/arrow_of_time/pictures/R_S_production_ID_5049072.png	354.41462829100783	
149	333.48111754200363	picture	0		110	147.0	/Users/shufanzhang/Documents/PhD/Arrow_of_time/arrow_of_time/pictures/S_pexels-roman-odintsov-8232443.png	354.42650558300375	0.9205727920052595
149	334.3875635840086	response	0	j		147.0	/Users/shufanzhang/Documents/PhD/Arrow_of_time/arrow_of_time/pictures/S_pexels-roman-odintsov-8232443.png	355.3329516250087	
150	334.4016903340089	picture	0		320	148.0	/Users/shufanzhang/Documents/PhD/Arrow_of_time/arrow_of_time/pictures/S_pexels-cottonbro-9499408.png	355.347078375009	2.66637629098841
150	337.05631116700533	response	0	j		148.0	/Users/shufanzhang/Documents/PhD/Arrow_of_time/arrow_of_time/pictures/S_pexels-cottonbro-9499408.png	358.00169920800545	
151	337.0680666249973	picture	0		593	149.0	/Users/shufanzhang/Documents/PhD/Arrow_of_time/arrow_of_time/pictures/S_yt-mOQJwaPQbMg_5.png	358.0134546659974	5.049970125008258
151	342.10579558400786	response	0	k		149.0	/Users/shufanzhang/Documents/PhD/Arrow_of_time/arrow_of_time/pictures/S_yt-mOQJwaPQbMg_5.png	363.051183625008	
152	342.11803675000556	picture	0		220	150.0	/Users/shufanzhang/Documents/PhD/Arrow_of_time/arrow_of_time/pictures/S_yt-0Sph9-EZQRA_35.png	363.0634247910057	1.837562375003472
152	343.94435737500316	response	0	k		150.0	/Users/shufanzhang/Documents/PhD/Arrow_of_time/arrow_of_time/pictures/S_yt-0Sph9-EZQRA_35.png	364.8897454160033	
153	343.95559912500903	picture	0		132	151.0	/Users/shufanzhang/Documents/PhD/Arrow_of_time/arrow_of_time/pictures/S_yt-eF5J5Kjt6oY_23.png	364.90098716600914	1.1024457499879645
153	345.0448097920016	response	0	j		151.0	/Users/shufanzhang/Documents/PhD/Arrow_of_time/arrow_of_time/pictures/S_yt-eF5J5Kjt6oY_23.png	365.99019783300173	
154	345.058044874997	picture	0		114	152.0	/Users/shufanzhang/Documents/PhD/Arrow_of_time/arrow_of_time/pictures/n13052670_9201.JPEG	366.0034329159971	0.9555530420038849
154	346.00187070900574	response	0	k		152.0	/Users/shufanzhang/Documents/PhD/Arrow_of_time/arrow_of_time/pictures/n13052670_9201.JPEG	366.94725875000586	
155	346.0135979170009	picture	0		118	153.0	/Users/shufanzhang/Documents/PhD/Arrow_of_time/arrow_of_time/pictures/S_yt-YlA-FPDylDE_100.png	366.958985958001	0.9921382080065086
155	346.99411574999976	response	0	j		153.0	/Users/shufanzhang/Documents/PhD/Arrow_of_time/arrow_of_time/pictures/S_yt-YlA-FPDylDE_100.png	367.9395037909999	
156	347.0057361250074	picture	0		168	154.0	/Users/shufanzhang/Documents/PhD/Arrow_of_time/arrow_of_time/pictures/R_S_yt-zgkJCgcT1s4_300.png	367.9511241660075	1.4269585000001825
156	348.3965824589977	response	0	j		154.0	/Users/shufanzhang/Documents/PhD/Arrow_of_time/arrow_of_time/pictures/R_S_yt-zgkJCgcT1s4_300.png	369.34197049999784	
157	348.43269462500757	picture	0		103	155.0	/Users/shufanzhang/Documents/PhD/Arrow_of_time/arrow_of_time/pictures/n03967562_4179.JPEG	369.3780826660077	0.8586905839911196
157	349.2793706670054	response	0	k		155.0	/Users/shufanzhang/Documents/PhD/Arrow_of_time/arrow_of_time/pictures/n03967562_4179.JPEG	370.22475870800554	
158	349.2913852089987	picture	0		92	156.0	/Users/shufanzhang/Documents/PhD/Arrow_of_time/arrow_of_time/pictures/n04418357_9604.JPEG	370.2367732499988	0.884728457996971
158	350.1617471250065	response	0	k		156.0	/Users/shufanzhang/Documents/PhD/Arrow_of_time/arrow_of_time/pictures/n04418357_9604.JPEG	371.10713516600663	
159	350.17611366699566	picture	0		142	157.0	/Users/shufanzhang/Documents/PhD/Arrow_of_time/arrow_of_time/pictures/S_yt-nA-1mD3ky2c_37.png	371.1215017079958	1.1829526250076015
159	351.3399750420067	response	0	k		157.0	/Users/shufanzhang/Documents/PhD/Arrow_of_time/arrow_of_time/pictures/S_yt-nA-1mD3ky2c_37.png	372.2853630830068	
160	351.35906629200326	picture	0		265	158.0	/Users/shufanzhang/Documents/PhD/Arrow_of_time/arrow_of_time/pictures/n09288635_813.JPEG	372.3044543330034	2.2445422080054414
160	353.5887988750037	response	0	k		158.0	/Users/shufanzhang/Documents/PhD/Arrow_of_time/arrow_of_time/pictures/n09288635_813.JPEG	374.5341869160038	
161	353.6036085000087	picture	0		92	159.0	/Users/shufanzhang/Documents/PhD/Arrow_of_time/arrow_of_time/pictures/R_S_ILSVRC2015_train_00584001.png	374.5489965410088	0.7813957919861423
161	354.3726244169957	response	0	j		159.0	/Users/shufanzhang/Documents/PhD/Arrow_of_time/arrow_of_time/pictures/R_S_ILSVRC2015_train_00584001.png	375.3180124579958	
162	354.38500429199485	picture	0		633	160.0	/Users/shufanzhang/Documents/PhD/Arrow_of_time/arrow_of_time/pictures/n04228054_3307.JPEG	375.33039233299496	5.3891586670069955
162	359.7620644999988	response	0	k		160.0	/Users/shufanzhang/Documents/PhD/Arrow_of_time/arrow_of_time/pictures/n04228054_3307.JPEG	380.70745254099893	
163	359.77416295900184	picture	0		132	161.0	/Users/shufanzhang/Documents/PhD/Arrow_of_time/arrow_of_time/pictures/S_yt-WASlRH1zA8c_175.png	380.71955100000196	1.1286560409935191
163	360.8881187920051	response	0	j		161.0	/Users/shufanzhang/Documents/PhD/Arrow_of_time/arrow_of_time/pictures/S_yt-WASlRH1zA8c_175.png	381.83350683300523	
164	360.90281899999536	picture	0		1215	162.0	/Users/shufanzhang/Documents/PhD/Arrow_of_time/arrow_of_time/pictures/S_yt-tfHCqgH1guY_235.png	381.8482070409955	10.150283125010901
164	371.0411744169978	response	0	j		162.0	/Users/shufanzhang/Documents/PhD/Arrow_of_time/arrow_of_time/pictures/S_yt-tfHCqgH1guY_235.png	391.98656245799793	
165	371.05310212500626	picture	0		123	163.0	/Users/shufanzhang/Documents/PhD/Arrow_of_time/arrow_of_time/pictures/S_yt-n1snPiGfg0A_45.png	391.9984901660064	1.0854468339966843
165	372.12542141700396	response	0	j		163.0	/Users/shufanzhang/Documents/PhD/Arrow_of_time/arrow_of_time/pictures/S_yt-n1snPiGfg0A_45.png	393.0708094580041	
166	372.13854895900295	picture	0		184	164.0	/Users/shufanzhang/Documents/PhD/Arrow_of_time/arrow_of_time/pictures/ILSVRC2012_val_00009327.JPEG	393.08393700000306	1.5779057909967378
166	373.7013618339988	response	0	k		164.0	/Users/shufanzhang/Documents/PhD/Arrow_of_time/arrow_of_time/pictures/ILSVRC2012_val_00009327.JPEG	394.64674987499893	
167	373.7164547499997	picture	0		111	165.0	/Users/shufanzhang/Documents/PhD/Arrow_of_time/arrow_of_time/pictures/R_S_flickr-51283549@N02-23064904264_16.png	394.6618427909998	0.9437925840029493
167	374.64931854199676	response	0	j		165.0	/Users/shufanzhang/Documents/PhD/Arrow_of_time/arrow_of_time/pictures/R_S_flickr-51283549@N02-23064904264_16.png	395.5947065829969	
168	374.66024733400263	picture	0		130	166.0	/Users/shufanzhang/Documents/PhD/Arrow_of_time/arrow_of_time/pictures/R_S_yt-WRBmpC-RxIc_678.png	395.60563537500275	1.093593708006665
168	375.7405605420063	response	0	j		166.0	/Users/shufanzhang/Documents/PhD/Arrow_of_time/arrow_of_time/pictures/R_S_yt-WRBmpC-RxIc_678.png	396.6859485830064	
169	375.7538410420093	picture	0		112	167.0	/Users/shufanzhang/Documents/PhD/Arrow_of_time/arrow_of_time/pictures/R_S_comp_DB_D001_C001_PSNK_v06_SDR_PS_20180824_SDR_2K_AVC.png	396.6992290830094	1.0795085419958923
169	376.8227861250052	response	0	j		167.0	/Users/shufanzhang/Documents/PhD/Arrow_of_time/arrow_of_time/pictures/R_S_comp_DB_D001_C001_PSNK_v06_SDR_PS_20180824_SDR_2K_AVC.png	397.76817416600534	
170	376.8333495840052	picture	0		93	168.0	/Users/shufanzhang/Documents/PhD/Arrow_of_time/arrow_of_time/pictures/n04258138_4676.JPEG	397.7787376250053	0.7843874160025734
170	377.60207395900215	response	0	k		168.0	/Users/shufanzhang/Documents/PhD/Arrow_of_time/arrow_of_time/pictures/n04258138_4676.JPEG	398.54746200000227	
171	377.61773700000776	picture	0		170	169.0	/Users/shufanzhang/Documents/PhD/Arrow_of_time/arrow_of_time/pictures/ILSVRC2012_test_00041531.JPEG	398.5631250410079	1.4322904169966932
171	379.032533125006	response	0	k		169.0	/Users/shufanzhang/Documents/PhD/Arrow_of_time/arrow_of_time/pictures/ILSVRC2012_test_00041531.JPEG	399.9779211660061	
172	379.05002741700446	picture	0		99	170.0	/Users/shufanzhang/Documents/PhD/Arrow_of_time/arrow_of_time/pictures/n02966687_1449.JPEG	399.9954154580046	0.84603916699416
172	379.8849924590031	response	0	k		170.0	/Users/shufanzhang/Documents/PhD/Arrow_of_time/arrow_of_time/pictures/n02966687_1449.JPEG	400.83038050000323	
173	379.8960665839986	picture	0		81	171.0	/Users/shufanzhang/Documents/PhD/Arrow_of_time/arrow_of_time/pictures/n01945685_22020.JPEG	400.84145462499873	0.679671916004736
173	380.5650881670008	response	0	k		171.0	/Users/shufanzhang/Documents/PhD/Arrow_of_time/arrow_of_time/pictures/n01945685_22020.JPEG	401.5104762080009	
174	380.57573850000335	picture	0		79	172.0	/Users/shufanzhang/Documents/PhD/Arrow_of_time/arrow_of_time/pictures/S_yt-hDYtYKUsVE4_120.png	401.52112654100347	0.8355975839949679
174	381.3799156669993	response	0	j		172.0	/Users/shufanzhang/Documents/PhD/Arrow_of_time/arrow_of_time/pictures/S_yt-hDYtYKUsVE4_120.png	402.3253037079994	
175	381.4113360839983	picture	0		137	173.0	/Users/shufanzhang/Documents/PhD/Arrow_of_time/arrow_of_time/pictures/R_S_yt-mI9voWol7cE_104.png	402.35672412499844	1.1523345000023255
175	382.5522896670009	response	0	j		173.0	/Users/shufanzhang/Documents/PhD/Arrow_of_time/arrow_of_time/pictures/R_S_yt-mI9voWol7cE_104.png	403.497677708001	
176	382.56367058400065	picture	0		95	174.0	/Users/shufanzhang/Documents/PhD/Arrow_of_time/arrow_of_time/pictures/S_c5iVM3LI6kI_252.png	403.50905862500076	0.8044850410078652
176	383.34741937500075	response	0	j		174.0	/Users/shufanzhang/Documents/PhD/Arrow_of_time/arrow_of_time/pictures/S_c5iVM3LI6kI_252.png	404.29280741600087	
177	383.3681556250085	picture	0		128	175.0	/Users/shufanzhang/Documents/PhD/Arrow_of_time/arrow_of_time/pictures/n03841143_5390.JPEG	404.3135436660086	1.0629131669993512
177	384.4188333750062	response	0	k		175.0	/Users/shufanzhang/Documents/PhD/Arrow_of_time/arrow_of_time/pictures/n03841143_5390.JPEG	405.36422141600633	
178	384.43106879200786	picture	0		87	176.0	/Users/shufanzhang/Documents/PhD/Arrow_of_time/arrow_of_time/pictures/n01739381_5593.JPEG	405.376456833008	0.7476490830013063
178	385.1629361670057	response	0	k		176.0	/Users/shufanzhang/Documents/PhD/Arrow_of_time/arrow_of_time/pictures/n01739381_5593.JPEG	406.1083242080058	
179	385.17871787500917	picture	0		168	177.0	/Users/shufanzhang/Documents/PhD/Arrow_of_time/arrow_of_time/pictures/S_ILSVRC2015_train_00339000.png	406.1241059160093	1.4117768749856623
179	386.5775618750049	response	0	k		177.0	/Users/shufanzhang/Documents/PhD/Arrow_of_time/arrow_of_time/pictures/S_ILSVRC2015_train_00339000.png	407.522949916005	
180	386.59049474999483	picture	0		147	178.0	/Users/shufanzhang/Documents/PhD/Arrow_of_time/arrow_of_time/pictures/n02128757_28707.JPEG	407.53588279099495	1.2326018340099836
180	387.8115822499967	response	0	k		178.0	/Users/shufanzhang/Documents/PhD/Arrow_of_time/arrow_of_time/pictures/n02128757_28707.JPEG	408.75697029099683	
181	387.8230965840048	picture	0		98	179.0	/Users/shufanzhang/Documents/PhD/Arrow_of_time/arrow_of_time/pictures/S_yt-yPl8LcgSMjo_32.png	408.76848462500493	0.8615652909938945
181	388.66911674999574	response	0	j		179.0	/Users/shufanzhang/Documents/PhD/Arrow_of_time/arrow_of_time/pictures/S_yt-yPl8LcgSMjo_32.png	409.61450479099585	
182	388.6846618749987	stim	0		542			409.6300499159988	4.929472750009154
182	393.60528462499497	response	0	space				414.5506726659951	
