trial_nr	onset	event_type	phase	response	nr_frames	picture_index	picture_file	onset_abs	duration
0	0.04169145799824037	stim	0		2124			18.807645541994134	20.52806133300328
0	20.55224729100155	response	0	space				39.31820137499744	
2	20.56975279100152	picture	0		320	0.0	/Users/shufanzhang/Documents/PhD/Arrow_of_time/arrow_of_time/pictures/R_S_yt-uSHBdUi8_V0_24.png	39.33570687499741	2.6864620839987765
2	23.24225899999874	response	0	j		0.0	/Users/shufanzhang/Documents/PhD/Arrow_of_time/arrow_of_time/pictures/R_S_yt-uSHBdUi8_V0_24.png	42.00821308399463	
3	23.256214875000296	picture	0		531	1.0	/Users/shufanzhang/Documents/PhD/Arrow_of_time/arrow_of_time/pictures/R_S_yt-WhQMF3WM0Ig_29.png	42.02216895899619	4.667928583003231
3	27.91686154100171	response	0	j		1.0	/Users/shufanzhang/Documents/PhD/Arrow_of_time/arrow_of_time/pictures/R_S_yt-WhQMF3WM0Ig_29.png	46.6828156249976	
4	27.924143458003527	picture	0		236	2.0	/Users/shufanzhang/Documents/PhD/Arrow_of_time/arrow_of_time/pictures/R_S_ILnEDG_aP1A_35.png	46.69009754199942	1.9736304999969434
4	29.887501333003456	response	0	j		2.0	/Users/shufanzhang/Documents/PhD/Arrow_of_time/arrow_of_time/pictures/R_S_ILnEDG_aP1A_35.png	48.65345541699935	
5	29.89777395800047	picture	0		153	3.0	/Users/shufanzhang/Documents/PhD/Arrow_of_time/arrow_of_time/pictures/S_b5-3.png	48.663728041996364	1.3200491669995245
5	31.207454625000537	response	0	j		3.0	/Users/shufanzhang/Documents/PhD/Arrow_of_time/arrow_of_time/pictures/S_b5-3.png	49.97340870899643	
6	31.217823124999995	picture	0		132	4.0	/Users/shufanzhang/Documents/PhD/Arrow_of_time/arrow_of_time/pictures/R_S_production_ID_3944248.png	49.98377720899589	1.1079425830030232
6	32.31592437499785	response	0	j		4.0	/Users/shufanzhang/Documents/PhD/Arrow_of_time/arrow_of_time/pictures/R_S_production_ID_3944248.png	51.08187845899374	
7	32.32576570800302	picture	0		114	5.0	/Users/shufanzhang/Documents/PhD/Arrow_of_time/arrow_of_time/pictures/n01630670_121.JPEG	51.09171979199891	0.9486801249950076
7	33.262984749999305	response	0	k		5.0	/Users/shufanzhang/Documents/PhD/Arrow_of_time/arrow_of_time/pictures/n01630670_121.JPEG	52.0289388339952	
8	33.274445832998026	picture	0		115	6.0	/Users/shufanzhang/Documents/PhD/Arrow_of_time/arrow_of_time/pictures/S_pexels-laker-5793000.png	52.04039991699392	0.9586413750002976
8	34.22063925000111	response	0	j		6.0	/Users/shufanzhang/Documents/PhD/Arrow_of_time/arrow_of_time/pictures/S_pexels-laker-5793000.png	52.98659333399701	
9	34.233087207998324	picture	0		121	7.0	/Users/shufanzhang/Documents/PhD/Arrow_of_time/arrow_of_time/pictures/R_S_ILSVRC2015_train_00369000.png	52.99904129199422	1.0207722500053933
9	35.2416072499982	response	0	j		7.0	/Users/shufanzhang/Documents/PhD/Arrow_of_time/arrow_of_time/pictures/R_S_ILSVRC2015_train_00369000.png	54.00756133399409	
10	35.25385945800372	picture	0		285	8.0	/Users/shufanzhang/Documents/PhD/Arrow_of_time/arrow_of_time/pictures/S_ILSVRC2015_train_00415001.png	54.01981354199961	2.5233381250000093
10	37.76599654099846	response	0	k		8.0	/Users/shufanzhang/Documents/PhD/Arrow_of_time/arrow_of_time/pictures/S_ILSVRC2015_train_00415001.png	56.53195062499435	
11	37.777197583003726	picture	0		115	9.0	/Users/shufanzhang/Documents/PhD/Arrow_of_time/arrow_of_time/pictures/n04613696_11624.JPEG	56.54315166699962	0.9677428329960094
11	38.73578108299989	response	0	k		9.0	/Users/shufanzhang/Documents/PhD/Arrow_of_time/arrow_of_time/pictures/n04613696_11624.JPEG	57.501735166995786	
12	38.744940415999736	picture	0		111	10.0	/Users/shufanzhang/Documents/PhD/Arrow_of_time/arrow_of_time/pictures/n02859443_21872.JPEG	57.51089449999563	0.9271829170029378
12	39.662088249999215	response	0	k		10.0	/Users/shufanzhang/Documents/PhD/Arrow_of_time/arrow_of_time/pictures/n02859443_21872.JPEG	58.42804233399511	
13	39.67212333300267	picture	0		95	11.0	/Users/shufanzhang/Documents/PhD/Arrow_of_time/arrow_of_time/pictures/n07714990_3116.JPEG	58.43807741699857	0.8092421670007752
13	40.46944704100315	response	0	k		11.0	/Users/shufanzhang/Documents/PhD/Arrow_of_time/arrow_of_time/pictures/n07714990_3116.JPEG	59.23540112499904	
14	40.48136550000345	picture	0		103	12.0	/Users/shufanzhang/Documents/PhD/Arrow_of_time/arrow_of_time/pictures/n01882714_3551.JPEG	59.24731958399934	0.8579332909939694
14	41.32642816600128	response	0	k		12.0	/Users/shufanzhang/Documents/PhD/Arrow_of_time/arrow_of_time/pictures/n01882714_3551.JPEG	60.09238224999717	
15	41.33929879099742	picture	0		109	13.0	/Users/shufanzhang/Documents/PhD/Arrow_of_time/arrow_of_time/pictures/S_yt-nB2WgvYt7bA_170.png	60.10525287499331	0.9159458340000128
15	42.244848333000846	response	0	k		13.0	/Users/shufanzhang/Documents/PhD/Arrow_of_time/arrow_of_time/pictures/S_yt-nB2WgvYt7bA_170.png	61.01080241699674	
16	42.25524462499743	picture	0		219	14.0	/Users/shufanzhang/Documents/PhD/Arrow_of_time/arrow_of_time/pictures/R_S_yt-RO4mhuXBVrY_67.png	61.021198708993325	1.8922756250030943
16	44.13732237499789	response	0	j		14.0	/Users/shufanzhang/Documents/PhD/Arrow_of_time/arrow_of_time/pictures/R_S_yt-RO4mhuXBVrY_67.png	62.90327645899379	
17	44.147520250000525	picture	0		172	15.0	/Users/shufanzhang/Documents/PhD/Arrow_of_time/arrow_of_time/pictures/R_S_yt-6xXEMHBQ08A_28.png	62.91347433399642	1.5072560830012662
17	45.64407008299895	response	0	k		15.0	/Users/shufanzhang/Documents/PhD/Arrow_of_time/arrow_of_time/pictures/R_S_yt-6xXEMHBQ08A_28.png	64.41002416699484	
18	45.65477633300179	picture	0		107	16.0	/Users/shufanzhang/Documents/PhD/Arrow_of_time/arrow_of_time/pictures/n13044778_706.JPEG	64.42073041699769	0.9047708750003949
18	46.54879920800158	response	0	k		16.0	/Users/shufanzhang/Documents/PhD/Arrow_of_time/arrow_of_time/pictures/n13044778_706.JPEG	65.31475329199748	
19	46.559547208002186	picture	0		97	17.0	/Users/shufanzhang/Documents/PhD/Arrow_of_time/arrow_of_time/pictures/S_Pexels_Videos_278654_1.png	65.32550129199808	0.8133681249964866
19	47.35952079100389	response	0	j		17.0	/Users/shufanzhang/Documents/PhD/Arrow_of_time/arrow_of_time/pictures/S_Pexels_Videos_278654_1.png	66.12547487499978	
20	47.37291533299867	picture	0		106	18.0	/Users/shufanzhang/Documents/PhD/Arrow_of_time/arrow_of_time/pictures/n04443257_5252.JPEG	66.13886941699457	0.9417567499986035
20	48.304092457998195	response	0	k		18.0	/Users/shufanzhang/Documents/PhD/Arrow_of_time/arrow_of_time/pictures/n04443257_5252.JPEG	67.07004654199409	
21	48.31467208299728	picture	0		92	19.0	/Users/shufanzhang/Documents/PhD/Arrow_of_time/arrow_of_time/pictures/R_S_production_ID_4325591.png	67.08062616699317	0.7780829580005957
21	49.081919000003836	response	0	j		19.0	/Users/shufanzhang/Documents/PhD/Arrow_of_time/arrow_of_time/pictures/R_S_production_ID_4325591.png	67.84787308399973	
22	49.09275504099787	picture	0		132	20.0	/Users/shufanzhang/Documents/PhD/Arrow_of_time/arrow_of_time/pictures/S_yt-j3Sk8ZnAiEA_32.png	67.85870912499377	1.1316896670032293
22	50.2155500000008	response	0	j		20.0	/Users/shufanzhang/Documents/PhD/Arrow_of_time/arrow_of_time/pictures/S_yt-j3Sk8ZnAiEA_32.png	68.9815040839967	
23	50.2244447080011	picture	0		106	21.0	/Users/shufanzhang/Documents/PhD/Arrow_of_time/arrow_of_time/pictures/n02077923_6737.JPEG	68.990398791997	0.8933630000028643
23	51.10718166600418	response	0	k		21.0	/Users/shufanzhang/Documents/PhD/Arrow_of_time/arrow_of_time/pictures/n02077923_6737.JPEG	69.87313575000007	
24	51.117807708003966	picture	0		99	22.0	/Users/shufanzhang/Documents/PhD/Arrow_of_time/arrow_of_time/pictures/R_S_yt-VfASxEzDrvc_145.png	69.88376179199986	0.8580660419975175
24	51.95877816600114	response	0	j		22.0	/Users/shufanzhang/Documents/PhD/Arrow_of_time/arrow_of_time/pictures/R_S_yt-VfASxEzDrvc_145.png	70.72473224999703	
25	51.97587375000148	picture	0		93	23.0	/Users/shufanzhang/Documents/PhD/Arrow_of_time/arrow_of_time/pictures/n04350905_11239.JPEG	70.74182783399738	0.8134892910020426
25	52.779417249999824	response	0	k		23.0	/Users/shufanzhang/Documents/PhD/Arrow_of_time/arrow_of_time/pictures/n04350905_11239.JPEG	71.54537133399572	
26	52.789363041003526	picture	0		91	24.0	/Users/shufanzhang/Documents/PhD/Arrow_of_time/arrow_of_time/pictures/n04081281_2467.JPEG	71.55531712499942	0.8494724999982282
26	53.62577541600331	response	0	k		24.0	/Users/shufanzhang/Documents/PhD/Arrow_of_time/arrow_of_time/pictures/n04081281_2467.JPEG	72.3917294999992	
27	53.638835541001754	picture	0		93	25.0	/Users/shufanzhang/Documents/PhD/Arrow_of_time/arrow_of_time/pictures/n04044716_20454.JPEG	72.40478962499765	0.779092374999891
27	54.40727200000401	response	0	k		25.0	/Users/shufanzhang/Documents/PhD/Arrow_of_time/arrow_of_time/pictures/n04044716_20454.JPEG	73.17322608399991	
28	54.417927916001645	picture	0		173	26.0	/Users/shufanzhang/Documents/PhD/Arrow_of_time/arrow_of_time/pictures/S_yt-cu4AVz6o2eg_24.png	73.18388199999754	1.5200679170011426
28	55.92581029100256	response	0	k		26.0	/Users/shufanzhang/Documents/PhD/Arrow_of_time/arrow_of_time/pictures/S_yt-cu4AVz6o2eg_24.png	74.69176437499846	
29	55.93799583300279	picture	0		109	27.0	/Users/shufanzhang/Documents/PhD/Arrow_of_time/arrow_of_time/pictures/R_S_bing-www_dailymotion_com_video_x4kcklg_53.png	74.70394991699868	0.9112752079963684
29	56.83994870800234	response	0	j		27.0	/Users/shufanzhang/Documents/PhD/Arrow_of_time/arrow_of_time/pictures/R_S_bing-www_dailymotion_com_video_x4kcklg_53.png	75.60590279199823	
30	56.849271040999156	picture	0		100	28.0	/Users/shufanzhang/Documents/PhD/Arrow_of_time/arrow_of_time/pictures/S_yt-kYMffy4hTMo_107.png	75.61522512499505	0.8438450419998844
30	57.683322666001914	response	0	j		28.0	/Users/shufanzhang/Documents/PhD/Arrow_of_time/arrow_of_time/pictures/S_yt-kYMffy4hTMo_107.png	76.44927674999781	
31	57.69311608299904	picture	0		157	29.0	/Users/shufanzhang/Documents/PhD/Arrow_of_time/arrow_of_time/pictures/S_yt-S6N5FyjSFZE_4.png	76.45907016699493	1.4773594580037752
31	59.15801099999953	response	0	j		29.0	/Users/shufanzhang/Documents/PhD/Arrow_of_time/arrow_of_time/pictures/S_yt-S6N5FyjSFZE_4.png	77.92396508399543	
32	59.170475541002816	picture	0		189	30.0	/Users/shufanzhang/Documents/PhD/Arrow_of_time/arrow_of_time/pictures/n02687172_773.JPEG	77.93642962499871	1.643554292000772
32	60.80367875000229	response	0	k		30.0	/Users/shufanzhang/Documents/PhD/Arrow_of_time/arrow_of_time/pictures/n02687172_773.JPEG	79.56963283399818	
33	60.81402983300359	picture	0		99	31.0	/Users/shufanzhang/Documents/PhD/Arrow_of_time/arrow_of_time/pictures/R_S_yt-kYMffy4hTMo_107.png	79.57998391699948	0.9109847079962492
33	61.717943249997916	response	0	j		31.0	/Users/shufanzhang/Documents/PhD/Arrow_of_time/arrow_of_time/pictures/R_S_yt-kYMffy4hTMo_107.png	80.48389733399381	
34	61.72501454099984	picture	0		112	32.0	/Users/shufanzhang/Documents/PhD/Arrow_of_time/arrow_of_time/pictures/R_S_b3TCugtX0h0_108.png	80.49096862499573	0.9383661669999128
34	62.65285900000163	response	0	k		32.0	/Users/shufanzhang/Documents/PhD/Arrow_of_time/arrow_of_time/pictures/R_S_b3TCugtX0h0_108.png	81.41881308399752	
35	62.66338070799975	picture	0		131	33.0	/Users/shufanzhang/Documents/PhD/Arrow_of_time/arrow_of_time/pictures/S_yt-AbJBxqEYoMg_27.png	81.42933479199564	1.1413353750031092
35	63.79221216600126	response	0	j		33.0	/Users/shufanzhang/Documents/PhD/Arrow_of_time/arrow_of_time/pictures/S_yt-AbJBxqEYoMg_27.png	82.55816624999716	
36	63.80471608300286	picture	0		114	34.0	/Users/shufanzhang/Documents/PhD/Arrow_of_time/arrow_of_time/pictures/n01795545_14217.JPEG	82.57067016699875	0.9503914999950211
36	64.74218462499994	response	0	k		34.0	/Users/shufanzhang/Documents/PhD/Arrow_of_time/arrow_of_time/pictures/n01795545_14217.JPEG	83.50813870899583	
37	64.75510758299788	picture	0		111	35.0	/Users/shufanzhang/Documents/PhD/Arrow_of_time/arrow_of_time/pictures/R_S_yt-hZxbKZ1WCVg_24.png	83.52106166699377	0.9334473330018227
37	65.67782599999919	response	0	j		35.0	/Users/shufanzhang/Documents/PhD/Arrow_of_time/arrow_of_time/pictures/R_S_yt-hZxbKZ1WCVg_24.png	84.44378008399508	
38	65.6885549159997	picture	0		150	36.0	/Users/shufanzhang/Documents/PhD/Arrow_of_time/arrow_of_time/pictures/R_S_yt-wEbfIR14zZ8_7.png	84.4545089999956	1.25496545900387
38	66.9335102499972	response	0	k		36.0	/Users/shufanzhang/Documents/PhD/Arrow_of_time/arrow_of_time/pictures/R_S_yt-wEbfIR14zZ8_7.png	85.69946433399309	
39	66.94352037500357	picture	0		94	37.0	/Users/shufanzhang/Documents/PhD/Arrow_of_time/arrow_of_time/pictures/S_ILSVRC2015_train_00417000.png	85.70947445899947	0.8036552499979734
39	67.73664587500389	response	0	j		37.0	/Users/shufanzhang/Documents/PhD/Arrow_of_time/arrow_of_time/pictures/S_ILSVRC2015_train_00417000.png	86.50259995899978	
40	67.74717562500155	picture	0		88	38.0	/Users/shufanzhang/Documents/PhD/Arrow_of_time/arrow_of_time/pictures/n04149813_4677.JPEG	86.51312970899744	0.7365042500023264
40	68.4718172080029	response	0	k		38.0	/Users/shufanzhang/Documents/PhD/Arrow_of_time/arrow_of_time/pictures/n04149813_4677.JPEG	87.2377712919988	
41	68.48367987500387	picture	0		96	39.0	/Users/shufanzhang/Documents/PhD/Arrow_of_time/arrow_of_time/pictures/n04606251_6163.JPEG	87.24963395899977	0.7961400409985799
41	69.26954316600313	response	0	k		39.0	/Users/shufanzhang/Documents/PhD/Arrow_of_time/arrow_of_time/pictures/n04606251_6163.JPEG	88.03549724999903	
42	69.27981991600245	picture	0		105	40.0	/Users/shufanzhang/Documents/PhD/Arrow_of_time/arrow_of_time/pictures/R_S_pexels-cottonbro-5310858.png	88.04577399999835	0.8717026250014897
42	70.13833400000294	response	0	j		40.0	/Users/shufanzhang/Documents/PhD/Arrow_of_time/arrow_of_time/pictures/R_S_pexels-cottonbro-5310858.png	88.90428808399884	
43	70.15152254100394	picture	0		120	41.0	/Users/shufanzhang/Documents/PhD/Arrow_of_time/arrow_of_time/pictures/n02749479_3074.JPEG	88.91747662499984	1.0027031669960706
43	71.14501862500038	response	0	k		41.0	/Users/shufanzhang/Documents/PhD/Arrow_of_time/arrow_of_time/pictures/n02749479_3074.JPEG	89.91097270899627	
44	71.15422570800001	picture	0		161	42.0	/Users/shufanzhang/Documents/PhD/Arrow_of_time/arrow_of_time/pictures/n03933933_11785.JPEG	89.9201797919959	1.3471010830035084
44	72.4898493330038	response	0	k		42.0	/Users/shufanzhang/Documents/PhD/Arrow_of_time/arrow_of_time/pictures/n03933933_11785.JPEG	91.2558034169997	
45	72.50132679100352	picture	0		226	43.0	/Users/shufanzhang/Documents/PhD/Arrow_of_time/arrow_of_time/pictures/R_S_comp_L007_C007_PS_v01_SDR_PS_20180925_SDR_2K_AVC.png	91.26728087499941	1.9038172090004082
45	74.39453345799848	response	0	j		43.0	/Users/shufanzhang/Documents/PhD/Arrow_of_time/arrow_of_time/pictures/R_S_comp_L007_C007_PS_v01_SDR_PS_20180925_SDR_2K_AVC.png	93.16048754199437	
46	74.40514400000393	picture	0		100	44.0	/Users/shufanzhang/Documents/PhD/Arrow_of_time/arrow_of_time/pictures/S_yt-lfDIg8kaXhA_169.png	93.17109808399982	0.8418082499993034
46	75.23622295800305	response	0	j		44.0	/Users/shufanzhang/Documents/PhD/Arrow_of_time/arrow_of_time/pictures/S_yt-lfDIg8kaXhA_169.png	94.00217704199895	
47	75.24695225000323	picture	0		108	45.0	/Users/shufanzhang/Documents/PhD/Arrow_of_time/arrow_of_time/pictures/S_yt-isJga8ec5UM_32.png	94.01290633399913	0.9072973329966771
47	76.1390162500029	response	0	j		45.0	/Users/shufanzhang/Documents/PhD/Arrow_of_time/arrow_of_time/pictures/S_yt-isJga8ec5UM_32.png	94.90497033399879	
48	76.15424958299991	picture	0		87	46.0	/Users/shufanzhang/Documents/PhD/Arrow_of_time/arrow_of_time/pictures/n09288635_24719.JPEG	94.9202036669958	0.8135311669975636
48	76.95768491600029	response	0	k		46.0	/Users/shufanzhang/Documents/PhD/Arrow_of_time/arrow_of_time/pictures/n09288635_24719.JPEG	95.72363899999618	
49	76.96778074999747	picture	0		187	47.0	/Users/shufanzhang/Documents/PhD/Arrow_of_time/arrow_of_time/pictures/S_yt-3E02UEHdoZ4_752.png	95.73373483399337	1.611443750000035
49	78.56981516600354	response	0	k		47.0	/Users/shufanzhang/Documents/PhD/Arrow_of_time/arrow_of_time/pictures/S_yt-3E02UEHdoZ4_752.png	97.33576924999943	
50	78.57922449999751	picture	0		76	48.0	/Users/shufanzhang/Documents/PhD/Arrow_of_time/arrow_of_time/pictures/R_S_ILSVRC2015_train_00165009.png	97.3451785839934	0.6422471660043811
50	79.21149370800413	response	0	j		48.0	/Users/shufanzhang/Documents/PhD/Arrow_of_time/arrow_of_time/pictures/R_S_ILSVRC2015_train_00165009.png	97.97744779200002	
51	79.22147166600189	picture	0		112	49.0	/Users/shufanzhang/Documents/PhD/Arrow_of_time/arrow_of_time/pictures/S_yt-iiGwN9FQrZo_1.png	97.98742574999778	0.9429655839994666
51	80.15412012500019	response	0	k		49.0	/Users/shufanzhang/Documents/PhD/Arrow_of_time/arrow_of_time/pictures/S_yt-iiGwN9FQrZo_1.png	98.92007420899608	
52	80.16443725000136	picture	0		84	50.0	/Users/shufanzhang/Documents/PhD/Arrow_of_time/arrow_of_time/pictures/n03759954_13181.JPEG	98.93039133399725	0.7989461659963126
52	80.95180300000357	response	0	k		50.0	/Users/shufanzhang/Documents/PhD/Arrow_of_time/arrow_of_time/pictures/n03759954_13181.JPEG	99.71775708399946	
53	80.96338341599767	picture	0		98	51.0	/Users/shufanzhang/Documents/PhD/Arrow_of_time/arrow_of_time/pictures/S_pexels-cottonbro-5310858.png	99.72933749999356	0.8157193340011872
53	81.77256512500026	response	0	j		51.0	/Users/shufanzhang/Documents/PhD/Arrow_of_time/arrow_of_time/pictures/S_pexels-cottonbro-5310858.png	100.53851920899615	
54	81.77910274999886	picture	0		111	52.0	/Users/shufanzhang/Documents/PhD/Arrow_of_time/arrow_of_time/pictures/S_yt-5zcm2aYFYHw_49.png	100.54505683399475	0.9308051660045749
54	82.6994082079982	response	0	k		52.0	/Users/shufanzhang/Documents/PhD/Arrow_of_time/arrow_of_time/pictures/S_yt-5zcm2aYFYHw_49.png	101.4653622919941	
55	82.70990791600343	picture	0		108	53.0	/Users/shufanzhang/Documents/PhD/Arrow_of_time/arrow_of_time/pictures/S_production_ID_4820331.png	101.47586199999932	0.9156558339964249
55	83.61242820799816	response	0	j		53.0	/Users/shufanzhang/Documents/PhD/Arrow_of_time/arrow_of_time/pictures/S_production_ID_4820331.png	102.37838229199406	
56	83.62556374999986	picture	0		101	54.0	/Users/shufanzhang/Documents/PhD/Arrow_of_time/arrow_of_time/pictures/S_yt-Bx2kLEUuN0E_456.png	102.39151783399575	0.8479281660038396
56	84.46119583299878	response	0	j		54.0	/Users/shufanzhang/Documents/PhD/Arrow_of_time/arrow_of_time/pictures/S_yt-Bx2kLEUuN0E_456.png	103.22714991699468	
57	84.4734919160037	picture	0		128	55.0	/Users/shufanzhang/Documents/PhD/Arrow_of_time/arrow_of_time/pictures/n02134084_2844.JPEG	103.23944599999959	1.070998041999701
57	85.53192429099727	response	0	k		55.0	/Users/shufanzhang/Documents/PhD/Arrow_of_time/arrow_of_time/pictures/n02134084_2844.JPEG	104.29787837499316	
58	85.5444899580034	picture	0		116	56.0	/Users/shufanzhang/Documents/PhD/Arrow_of_time/arrow_of_time/pictures/S_comp_DB_D002_C003_PSNK_v04_SDR_PS_20180914_SDR_2K_AVC.png	104.31044404199929	0.9793664579992765
58	86.51463416600018	response	0	j		56.0	/Users/shufanzhang/Documents/PhD/Arrow_of_time/arrow_of_time/pictures/S_comp_DB_D002_C003_PSNK_v04_SDR_PS_20180914_SDR_2K_AVC.png	105.28058824999607	
59	86.52385641600267	picture	0		96	57.0	/Users/shufanzhang/Documents/PhD/Arrow_of_time/arrow_of_time/pictures/S_yt-GjFQxAklviE_25.png	105.28981049999857	0.8007810419949237
59	87.31477866599744	response	0	j		57.0	/Users/shufanzhang/Documents/PhD/Arrow_of_time/arrow_of_time/pictures/S_yt-GjFQxAklviE_25.png	106.08073274999333	
60	87.3246374579976	picture	0		97	58.0	/Users/shufanzhang/Documents/PhD/Arrow_of_time/arrow_of_time/pictures/S_ILSVRC2015_train_00689000.png	106.09059154199349	0.813594875005947
60	88.12829924999824	response	0	j		58.0	/Users/shufanzhang/Documents/PhD/Arrow_of_time/arrow_of_time/pictures/S_ILSVRC2015_train_00689000.png	106.89425333399413	
61	88.13823233300354	picture	0		97	59.0	/Users/shufanzhang/Documents/PhD/Arrow_of_time/arrow_of_time/pictures/n01630670_5687.JPEG	106.90418641699944	0.8171196669936762
61	88.94283791600174	response	0	k		59.0	/Users/shufanzhang/Documents/PhD/Arrow_of_time/arrow_of_time/pictures/n01630670_5687.JPEG	107.70879199999763	
62	88.95535199999722	picture	0		140	60.0	/Users/shufanzhang/Documents/PhD/Arrow_of_time/arrow_of_time/pictures/S_yt-ZPRkoZyAmfg_35.png	107.72130608399311	1.1709215830051107
62	90.11573391599813	response	0	k		60.0	/Users/shufanzhang/Documents/PhD/Arrow_of_time/arrow_of_time/pictures/S_yt-ZPRkoZyAmfg_35.png	108.88168799999403	
63	90.12627358300233	picture	0		90	61.0	/Users/shufanzhang/Documents/PhD/Arrow_of_time/arrow_of_time/pictures/S_yt-n_eO-7KedAE_21.png	108.89222766699822	0.7764290420018369
63	90.89168183300353	response	0	j		61.0	/Users/shufanzhang/Documents/PhD/Arrow_of_time/arrow_of_time/pictures/S_yt-n_eO-7KedAE_21.png	109.65763591699942	
64	90.90270262500417	picture	0		88	62.0	/Users/shufanzhang/Documents/PhD/Arrow_of_time/arrow_of_time/pictures/R_S_yt-ThT8utBaywI_68.png	109.66865670900006	0.7408132909986307
64	91.6322807079996	response	0	j		62.0	/Users/shufanzhang/Documents/PhD/Arrow_of_time/arrow_of_time/pictures/R_S_yt-ThT8utBaywI_68.png	110.39823479199549	
65	91.6435159160028	picture	0		97	63.0	/Users/shufanzhang/Documents/PhD/Arrow_of_time/arrow_of_time/pictures/n02701002_23190.JPEG	110.40946999999869	0.8174398749979446
65	92.44885533300112	response	0	k		63.0	/Users/shufanzhang/Documents/PhD/Arrow_of_time/arrow_of_time/pictures/n02701002_23190.JPEG	111.21480941699701	
66	92.46095579100074	picture	0		131	64.0	/Users/shufanzhang/Documents/PhD/Arrow_of_time/arrow_of_time/pictures/R_S_yt-sTBOjPxix5c_1072.png	111.22690987499664	1.1194368340002256
66	93.56927270800225	response	0	j		64.0	/Users/shufanzhang/Documents/PhD/Arrow_of_time/arrow_of_time/pictures/R_S_yt-sTBOjPxix5c_1072.png	112.33522679199814	
67	93.58039262500097	picture	0		95	65.0	/Users/shufanzhang/Documents/PhD/Arrow_of_time/arrow_of_time/pictures/R_S_yt-RlHmMGUjT9E_130.png	112.34634670899686	0.7934576249972451
67	94.36257991599996	response	0	j		65.0	/Users/shufanzhang/Documents/PhD/Arrow_of_time/arrow_of_time/pictures/R_S_yt-RlHmMGUjT9E_130.png	113.12853399999585	
68	94.37385024999821	picture	0		79	66.0	/Users/shufanzhang/Documents/PhD/Arrow_of_time/arrow_of_time/pictures/n02808304_4255.JPEG	113.1398043339941	0.69195062500512
68	95.05606912499934	response	0	k		66.0	/Users/shufanzhang/Documents/PhD/Arrow_of_time/arrow_of_time/pictures/n02808304_4255.JPEG	113.82202320899523	
69	95.06580087500333	picture	0		83	67.0	/Users/shufanzhang/Documents/PhD/Arrow_of_time/arrow_of_time/pictures/S_Roller_Coaster.png	113.83175495899923	0.7247897909983294
69	95.77955466599815	response	0	k		67.0	/Users/shufanzhang/Documents/PhD/Arrow_of_time/arrow_of_time/pictures/S_Roller_Coaster.png	114.54550874999404	
70	95.79059066600166	picture	0		103	68.0	/Users/shufanzhang/Documents/PhD/Arrow_of_time/arrow_of_time/pictures/n09468604_17339.JPEG	114.55654474999756	0.8643183749954915
70	96.64460841599794	response	0	k		68.0	/Users/shufanzhang/Documents/PhD/Arrow_of_time/arrow_of_time/pictures/n09468604_17339.JPEG	115.41056249999383	
71	96.65490904099715	picture	0		113	69.0	/Users/shufanzhang/Documents/PhD/Arrow_of_time/arrow_of_time/pictures/S_yt-VjTiMtjdjTw_103.png	115.42086312499305	0.9499597500034724
71	97.59485816599772	response	0	j		69.0	/Users/shufanzhang/Documents/PhD/Arrow_of_time/arrow_of_time/pictures/S_yt-VjTiMtjdjTw_103.png	116.36081224999361	
72	97.60486879100063	picture	0		85	70.0	/Users/shufanzhang/Documents/PhD/Arrow_of_time/arrow_of_time/pictures/n03126707_2670.JPEG	116.37082287499652	0.7113872920017457
72	98.30590362499788	response	0	k		70.0	/Users/shufanzhang/Documents/PhD/Arrow_of_time/arrow_of_time/pictures/n03126707_2670.JPEG	117.07185770899378	
73	98.31625608300237	picture	0		101	71.0	/Users/shufanzhang/Documents/PhD/Arrow_of_time/arrow_of_time/pictures/R_S_yt-7WYXuBHeorw_188.png	117.08221016699827	0.8430818330016336
73	99.14849466599844	response	0	j		71.0	/Users/shufanzhang/Documents/PhD/Arrow_of_time/arrow_of_time/pictures/R_S_yt-7WYXuBHeorw_188.png	117.91444874999434	
74	99.159337916004	picture	0		84	72.0	/Users/shufanzhang/Documents/PhD/Arrow_of_time/arrow_of_time/pictures/n02027492_526.JPEG	117.9252919999999	0.7262334169936366
74	99.87547225000162	response	0	k		72.0	/Users/shufanzhang/Documents/PhD/Arrow_of_time/arrow_of_time/pictures/n02027492_526.JPEG	118.64142633399752	
75	99.88557133299764	picture	0		224	73.0	/Users/shufanzhang/Documents/PhD/Arrow_of_time/arrow_of_time/pictures/R_S_yt-XF0fyyFEgWo_280.png	118.65152541699354	1.9478802920057205
75	101.82433970800048	response	0	j		73.0	/Users/shufanzhang/Documents/PhD/Arrow_of_time/arrow_of_time/pictures/R_S_yt-XF0fyyFEgWo_280.png	120.59029379199637	
76	101.83345162500336	picture	0		173	74.0	/Users/shufanzhang/Documents/PhD/Arrow_of_time/arrow_of_time/pictures/n03967562_4179.JPEG	120.59940570899926	1.5685990409983788
76	103.38844695800071	response	0	k		74.0	/Users/shufanzhang/Documents/PhD/Arrow_of_time/arrow_of_time/pictures/n03967562_4179.JPEG	122.1544010419966	
77	103.40205066600174	picture	0		100	75.0	/Users/shufanzhang/Documents/PhD/Arrow_of_time/arrow_of_time/pictures/S_production_ID_4707837.png	122.16800474999764	0.8486132499965606
77	104.23985308300325	response	0	j		75.0	/Users/shufanzhang/Documents/PhD/Arrow_of_time/arrow_of_time/pictures/S_production_ID_4707837.png	123.00580716699915	
78	104.2506639159983	picture	0		112	76.0	/Users/shufanzhang/Documents/PhD/Arrow_of_time/arrow_of_time/pictures/R_S_yt-KpOAdMtPGFs_17.png	123.0166179999942	0.9420678750029765
78	105.18224941600056	response	0	j		76.0	/Users/shufanzhang/Documents/PhD/Arrow_of_time/arrow_of_time/pictures/R_S_yt-KpOAdMtPGFs_17.png	123.94820349999645	
79	105.19273179100128	picture	0		80	77.0	/Users/shufanzhang/Documents/PhD/Arrow_of_time/arrow_of_time/pictures/n03447721_6651.JPEG	123.95868587499717	0.7487686669992399
79	105.93482412499725	response	0	k		77.0	/Users/shufanzhang/Documents/PhD/Arrow_of_time/arrow_of_time/pictures/n03447721_6651.JPEG	124.70077820899314	
80	105.94150045800052	picture	0		119	78.0	/Users/shufanzhang/Documents/PhD/Arrow_of_time/arrow_of_time/pictures/S_video_inspire_texas_austin_oct2019_evening_00085.png	124.70745454199641	0.997074833001534
80	106.92572125000152	response	0	k		78.0	/Users/shufanzhang/Documents/PhD/Arrow_of_time/arrow_of_time/pictures/S_video_inspire_texas_austin_oct2019_evening_00085.png	125.69167533399741	
81	106.93857529100205	picture	0		202	79.0	/Users/shufanzhang/Documents/PhD/Arrow_of_time/arrow_of_time/pictures/R_S_yt-R-SETZtYWaA_336.png	125.70452937499795	1.699766042002011
81	108.62775641599728	response	0	k		79.0	/Users/shufanzhang/Documents/PhD/Arrow_of_time/arrow_of_time/pictures/R_S_yt-R-SETZtYWaA_336.png	127.39371049999318	
82	108.63834133300406	picture	0		97	80.0	/Users/shufanzhang/Documents/PhD/Arrow_of_time/arrow_of_time/pictures/n03733281_29174.JPEG	127.40429541699996	0.8988067499958561
82	109.52330858300411	response	0	k		80.0	/Users/shufanzhang/Documents/PhD/Arrow_of_time/arrow_of_time/pictures/n03733281_29174.JPEG	128.289262667	
83	109.53714808299992	picture	0		103	81.0	/Users/shufanzhang/Documents/PhD/Arrow_of_time/arrow_of_time/pictures/R_S_wc-jujp1kJRHrkJ_54.png	128.3031021669958	0.8688630420001573
83	110.39464466599748	response	0	j		81.0	/Users/shufanzhang/Documents/PhD/Arrow_of_time/arrow_of_time/pictures/R_S_wc-jujp1kJRHrkJ_54.png	129.16059874999337	
84	110.40601112500008	picture	0		89	82.0	/Users/shufanzhang/Documents/PhD/Arrow_of_time/arrow_of_time/pictures/R_S_yt-Fm97IY0Z2LU_110.png	129.17196520899597	0.7989917079976294
84	111.1946419579981	response	0	j		82.0	/Users/shufanzhang/Documents/PhD/Arrow_of_time/arrow_of_time/pictures/R_S_yt-Fm97IY0Z2LU_110.png	129.960596041994	
85	111.2050028329977	picture	0		119	83.0	/Users/shufanzhang/Documents/PhD/Arrow_of_time/arrow_of_time/pictures/S_pexels-mikhail-nilov-8410084.png	129.9709569169936	0.9754592500030412
85	112.16968979100056	response	0	j		83.0	/Users/shufanzhang/Documents/PhD/Arrow_of_time/arrow_of_time/pictures/S_pexels-mikhail-nilov-8410084.png	130.93564387499646	
86	112.18046208300075	picture	0		92	84.0	/Users/shufanzhang/Documents/PhD/Arrow_of_time/arrow_of_time/pictures/n01737021_18954.JPEG	130.94641616699664	0.7709014170031878
86	112.93842170800053	response	0	k		84.0	/Users/shufanzhang/Documents/PhD/Arrow_of_time/arrow_of_time/pictures/n01737021_18954.JPEG	131.70437579199643	
87	112.95136350000394	picture	0		98	85.0	/Users/shufanzhang/Documents/PhD/Arrow_of_time/arrow_of_time/pictures/n09256479_4321.JPEG	131.71731758399983	0.8500524579940247
87	113.79064133299835	response	0	k		85.0	/Users/shufanzhang/Documents/PhD/Arrow_of_time/arrow_of_time/pictures/n09256479_4321.JPEG	132.55659541699424	
88	113.80141595799796	picture	0		105	86.0	/Users/shufanzhang/Documents/PhD/Arrow_of_time/arrow_of_time/pictures/S_yt-9EnchawJ3pA_90.png	132.56737004199385	0.8797018330005812
88	114.66786249999859	response	0	j		86.0	/Users/shufanzhang/Documents/PhD/Arrow_of_time/arrow_of_time/pictures/S_yt-9EnchawJ3pA_90.png	133.43381658399448	
89	114.68111779099854	picture	0		91	87.0	/Users/shufanzhang/Documents/PhD/Arrow_of_time/arrow_of_time/pictures/S_yt-EAMpitsjbbA_153.png	133.44707187499444	0.761979542003246
89	115.43159775000095	response	0	j		87.0	/Users/shufanzhang/Documents/PhD/Arrow_of_time/arrow_of_time/pictures/S_yt-EAMpitsjbbA_153.png	134.19755183399684	
90	115.44309733300179	picture	0		98	88.0	/Users/shufanzhang/Documents/PhD/Arrow_of_time/arrow_of_time/pictures/n02101556_5243.JPEG	134.20905141699768	0.8668488749972312
90	116.29648754100344	response	0	k		88.0	/Users/shufanzhang/Documents/PhD/Arrow_of_time/arrow_of_time/pictures/n02101556_5243.JPEG	135.06244162499934	
91	116.30994620799902	picture	0		99	89.0	/Users/shufanzhang/Documents/PhD/Arrow_of_time/arrow_of_time/pictures/R_S_yt-22c5eZ1UNME_76.png	135.0759002919949	0.845264750001661
91	117.14471270800277	response	0	j		89.0	/Users/shufanzhang/Documents/PhD/Arrow_of_time/arrow_of_time/pictures/R_S_yt-22c5eZ1UNME_76.png	135.91066679199866	
92	117.15521095800068	picture	0		171	90.0	/Users/shufanzhang/Documents/PhD/Arrow_of_time/arrow_of_time/pictures/n02403003_6124.JPEG	135.92116504199657	1.4565111249976326
92	118.59864804099925	response	0	j		90.0	/Users/shufanzhang/Documents/PhD/Arrow_of_time/arrow_of_time/pictures/n02403003_6124.JPEG	137.36460212499514	
93	118.61172208299831	picture	0		174	91.0	/Users/shufanzhang/Documents/PhD/Arrow_of_time/arrow_of_time/pictures/S_ILSVRC2015_train_00425000.png	137.3776761669942	1.481300667001051
93	120.075037583003	response	0	j		91.0	/Users/shufanzhang/Documents/PhD/Arrow_of_time/arrow_of_time/pictures/S_ILSVRC2015_train_00425000.png	138.8409916669989	
94	120.09302274999936	picture	0		72	92.0	/Users/shufanzhang/Documents/PhD/Arrow_of_time/arrow_of_time/pictures/n03838899_21453.JPEG	138.85897683399526	0.6756963330044528
94	120.75716487500176	response	0	k		92.0	/Users/shufanzhang/Documents/PhD/Arrow_of_time/arrow_of_time/pictures/n03838899_21453.JPEG	139.52311895899766	
95	120.76871908300382	picture	0		108	93.0	/Users/shufanzhang/Documents/PhD/Arrow_of_time/arrow_of_time/pictures/R_S_comp_DB_D002_C003_PSNK_v04_SDR_PS_20180914_SDR_2K_AVC.png	139.5346731669997	0.9177061249938561
95	121.67432454100344	response	0	j		93.0	/Users/shufanzhang/Documents/PhD/Arrow_of_time/arrow_of_time/pictures/R_S_comp_DB_D002_C003_PSNK_v04_SDR_PS_20180914_SDR_2K_AVC.png	140.44027862499934	
96	121.68642520799767	picture	0		124	94.0	/Users/shufanzhang/Documents/PhD/Arrow_of_time/arrow_of_time/pictures/n02667093_5587.JPEG	140.45237929199357	1.0360168330007582
96	122.70932408299996	response	0	k		94.0	/Users/shufanzhang/Documents/PhD/Arrow_of_time/arrow_of_time/pictures/n02667093_5587.JPEG	141.47527816699585	
97	122.72244204099843	picture	0		240	95.0	/Users/shufanzhang/Documents/PhD/Arrow_of_time/arrow_of_time/pictures/S_yt-Oxu6w0Zx9dQ_3.png	141.48839612499432	2.0164348750040517
97	124.72786495800392	response	0	k		95.0	/Users/shufanzhang/Documents/PhD/Arrow_of_time/arrow_of_time/pictures/S_yt-Oxu6w0Zx9dQ_3.png	143.4938190419998	
98	124.73887691600248	picture	0		82	96.0	/Users/shufanzhang/Documents/PhD/Arrow_of_time/arrow_of_time/pictures/S_b3TCugtX0h0_108.png	143.50483099999838	0.7432704999955604
98	125.47056366600009	response	0	k		96.0	/Users/shufanzhang/Documents/PhD/Arrow_of_time/arrow_of_time/pictures/S_b3TCugtX0h0_108.png	144.23651774999598	
99	125.48214741599804	picture	0		101	97.0	/Users/shufanzhang/Documents/PhD/Arrow_of_time/arrow_of_time/pictures/S_SE_A016_C009_SDR_20190717_SDR_2K_AVC.png	144.24810149999394	0.844676917004108
99	126.31475679099822	response	0	j		97.0	/Users/shufanzhang/Documents/PhD/Arrow_of_time/arrow_of_time/pictures/S_SE_A016_C009_SDR_20190717_SDR_2K_AVC.png	145.0807108749941	
100	126.32682433300215	picture	0		86	98.0	/Users/shufanzhang/Documents/PhD/Arrow_of_time/arrow_of_time/pictures/n01978455_4275.JPEG	145.09277841699804	0.7406361670000479
100	127.05718470799911	response	0	k		98.0	/Users/shufanzhang/Documents/PhD/Arrow_of_time/arrow_of_time/pictures/n01978455_4275.JPEG	145.823138791995	
101	127.0674605000022	picture	0		103	99.0	/Users/shufanzhang/Documents/PhD/Arrow_of_time/arrow_of_time/pictures/n04026417_2612.JPEG	145.8334145839981	0.8682157500006724
101	127.92389033299696	response	0	k		99.0	/Users/shufanzhang/Documents/PhD/Arrow_of_time/arrow_of_time/pictures/n04026417_2612.JPEG	146.68984441699286	
102	127.93567625000287	picture	0		131	100.0	/Users/shufanzhang/Documents/PhD/Arrow_of_time/arrow_of_time/pictures/n01860187_6680.JPEG	146.70163033399876	1.1691880409998703
102	129.09320833299716	response	0	k		100.0	/Users/shufanzhang/Documents/PhD/Arrow_of_time/arrow_of_time/pictures/n01860187_6680.JPEG	147.85916241699306	
103	129.10486429100274	picture	0		79	101.0	/Users/shufanzhang/Documents/PhD/Arrow_of_time/arrow_of_time/pictures/R_S_yt-ejSzwn8tY8g_49.png	147.87081837499863	0.6993535419969703
103	129.79334741600178	response	0	j		101.0	/Users/shufanzhang/Documents/PhD/Arrow_of_time/arrow_of_time/pictures/R_S_yt-ejSzwn8tY8g_49.png	148.55930149999767	
104	129.8042178329997	picture	0		83	102.0	/Users/shufanzhang/Documents/PhD/Arrow_of_time/arrow_of_time/pictures/n03888605_32925.JPEG	148.5701719169956	0.7134410830039997
104	130.50678387500375	response	0	k		102.0	/Users/shufanzhang/Documents/PhD/Arrow_of_time/arrow_of_time/pictures/n03888605_32925.JPEG	149.27273795899964	
105	130.5176589160037	picture	0		99	103.0	/Users/shufanzhang/Documents/PhD/Arrow_of_time/arrow_of_time/pictures/n03982430_519.JPEG	149.2836129999996	0.8302712919976329
105	131.3359700830042	response	0	k		103.0	/Users/shufanzhang/Documents/PhD/Arrow_of_time/arrow_of_time/pictures/n03982430_519.JPEG	150.1019241670001	
106	131.34793020800134	picture	0		82	104.0	/Users/shufanzhang/Documents/PhD/Arrow_of_time/arrow_of_time/pictures/S_Pexels_Videos_2791797.png	150.11388429199724	0.7244179170011193
106	132.0611723749971	response	0	j		104.0	/Users/shufanzhang/Documents/PhD/Arrow_of_time/arrow_of_time/pictures/S_Pexels_Videos_2791797.png	150.827126458993	
107	132.07234812500246	picture	0		153	105.0	/Users/shufanzhang/Documents/PhD/Arrow_of_time/arrow_of_time/pictures/n04238763_6377.JPEG	150.83830220899836	1.299900540994713
107	133.35850062499958	response	0	k		105.0	/Users/shufanzhang/Documents/PhD/Arrow_of_time/arrow_of_time/pictures/n04238763_6377.JPEG	152.12445470899547	
108	133.37224866599718	picture	0		174	106.0	/Users/shufanzhang/Documents/PhD/Arrow_of_time/arrow_of_time/pictures/n02058221_3542.JPEG	152.13820274999307	1.4441206250048708
108	134.80092437499843	response	0	k		106.0	/Users/shufanzhang/Documents/PhD/Arrow_of_time/arrow_of_time/pictures/n02058221_3542.JPEG	153.56687845899432	
109	134.81636929100205	picture	0		77	107.0	/Users/shufanzhang/Documents/PhD/Arrow_of_time/arrow_of_time/pictures/n13052670_922.JPEG	153.58232337499794	0.7598639999996522
109	135.5658733750024	response	0	k		107.0	/Users/shufanzhang/Documents/PhD/Arrow_of_time/arrow_of_time/pictures/n13052670_922.JPEG	154.3318274589983	
110	135.5762332910017	picture	0		84	108.0	/Users/shufanzhang/Documents/PhD/Arrow_of_time/arrow_of_time/pictures/n04147183_33318.JPEG	154.3421873749976	0.6962171249979292
110	136.25966866600356	response	0	k		108.0	/Users/shufanzhang/Documents/PhD/Arrow_of_time/arrow_of_time/pictures/n04147183_33318.JPEG	155.02562274999946	
111	136.27245041599963	picture	0		95	109.0	/Users/shufanzhang/Documents/PhD/Arrow_of_time/arrow_of_time/pictures/S_yt-bWXohhodbjg_86.png	155.03840449999552	0.8261388750033802
111	137.07123087500077	response	0	j		109.0	/Users/shufanzhang/Documents/PhD/Arrow_of_time/arrow_of_time/pictures/S_yt-bWXohhodbjg_86.png	155.83718495899666	
112	137.098589291003	picture	0		93	110.0	/Users/shufanzhang/Documents/PhD/Arrow_of_time/arrow_of_time/pictures/n01664065_25400.JPEG	155.8645433749989	0.7814275419950718
112	137.8696719580039	response	0	k		110.0	/Users/shufanzhang/Documents/PhD/Arrow_of_time/arrow_of_time/pictures/n01664065_25400.JPEG	156.63562604199979	
113	137.88001683299808	picture	0		188	111.0	/Users/shufanzhang/Documents/PhD/Arrow_of_time/arrow_of_time/pictures/n02492035_9172.JPEG	156.64597091699397	1.5922297920042183
113	139.4608794579981	response	0	k		111.0	/Users/shufanzhang/Documents/PhD/Arrow_of_time/arrow_of_time/pictures/n02492035_9172.JPEG	158.22683354199398	
114	139.4722466250023	picture	0		111	112.0	/Users/shufanzhang/Documents/PhD/Arrow_of_time/arrow_of_time/pictures/n03272010_433.JPEG	158.2382007089982	1.0290849579978385
114	140.49021829100093	response	0	k		112.0	/Users/shufanzhang/Documents/PhD/Arrow_of_time/arrow_of_time/pictures/n03272010_433.JPEG	159.25617237499682	
115	140.50133158300014	picture	0		105	113.0	/Users/shufanzhang/Documents/PhD/Arrow_of_time/arrow_of_time/pictures/S_yt-OdTWn1U1mO4_68.png	159.26728566699603	0.8537491669994779
115	141.34503979099827	response	0	j		113.0	/Users/shufanzhang/Documents/PhD/Arrow_of_time/arrow_of_time/pictures/S_yt-OdTWn1U1mO4_68.png	160.11099387499416	
116	141.35508074999962	picture	0		101	114.0	/Users/shufanzhang/Documents/PhD/Arrow_of_time/arrow_of_time/pictures/n03891251_7465.JPEG	160.1210348339955	0.892106416002207
116	142.23662933299784	response	0	k		114.0	/Users/shufanzhang/Documents/PhD/Arrow_of_time/arrow_of_time/pictures/n03891251_7465.JPEG	161.00258341699373	
117	142.24718716600182	picture	0		89	115.0	/Users/shufanzhang/Documents/PhD/Arrow_of_time/arrow_of_time/pictures/n03196217_3605.JPEG	161.01314124999772	0.7525136249969364
117	142.98839879099978	response	0	k		115.0	/Users/shufanzhang/Documents/PhD/Arrow_of_time/arrow_of_time/pictures/n03196217_3605.JPEG	161.75435287499567	
118	142.99970079099876	picture	0		164	116.0	/Users/shufanzhang/Documents/PhD/Arrow_of_time/arrow_of_time/pictures/R_S_yt-YeT4acsbqok_210.png	161.76565487499465	1.4431420840046485
118	144.4320522909984	response	0	j		116.0	/Users/shufanzhang/Documents/PhD/Arrow_of_time/arrow_of_time/pictures/R_S_yt-YeT4acsbqok_210.png	163.1980063749943	
119	144.4428428750034	picture	0		193	117.0	/Users/shufanzhang/Documents/PhD/Arrow_of_time/arrow_of_time/pictures/S_comp_CH_C002_C005_PSNK_v05_SDR_PS_FINAL_20180709_SDR_2K_AVC.png	163.2087969589993	1.4630331249936717
119	145.8930035000012	response	0	j		117.0	/Users/shufanzhang/Documents/PhD/Arrow_of_time/arrow_of_time/pictures/S_comp_CH_C002_C005_PSNK_v05_SDR_PS_FINAL_20180709_SDR_2K_AVC.png	164.6589575839971	
120	145.90587599999708	picture	0		116	118.0	/Users/shufanzhang/Documents/PhD/Arrow_of_time/arrow_of_time/pictures/R_S_yt-BAQ3Xhm_PPE_23.png	164.67183008399297	1.0023209580031107
120	146.8954385830002	response	0	j		118.0	/Users/shufanzhang/Documents/PhD/Arrow_of_time/arrow_of_time/pictures/R_S_yt-BAQ3Xhm_PPE_23.png	165.6613926669961	
121	146.9081969580002	picture	0		88	119.0	/Users/shufanzhang/Documents/PhD/Arrow_of_time/arrow_of_time/pictures/n03673027_12357.JPEG	165.67415104199608	0.7409340419981163
121	147.63593533299718	response	0	k		119.0	/Users/shufanzhang/Documents/PhD/Arrow_of_time/arrow_of_time/pictures/n03673027_12357.JPEG	166.40188941699307	
122	147.6491309999983	picture	0		149	120.0	/Users/shufanzhang/Documents/PhD/Arrow_of_time/arrow_of_time/pictures/n02018795_6999.JPEG	166.4150850839942	1.275395832999493
122	148.91267766599776	response	0	k		120.0	/Users/shufanzhang/Documents/PhD/Arrow_of_time/arrow_of_time/pictures/n02018795_6999.JPEG	167.67863174999366	
123	148.9245268329978	picture	0		95	121.0	/Users/shufanzhang/Documents/PhD/Arrow_of_time/arrow_of_time/pictures/n02641379_39329.JPEG	167.6904809169937	0.8051182920025894
123	149.71951141599857	response	0	k		121.0	/Users/shufanzhang/Documents/PhD/Arrow_of_time/arrow_of_time/pictures/n02641379_39329.JPEG	168.48546549999446	
124	149.7296451250004	picture	0		313	122.0	/Users/shufanzhang/Documents/PhD/Arrow_of_time/arrow_of_time/pictures/S_yt-wrfAMDCg93Y_8.png	168.49559920899628	2.8540457080016495
124	152.5737065830035	response	0	j		122.0	/Users/shufanzhang/Documents/PhD/Arrow_of_time/arrow_of_time/pictures/S_yt-wrfAMDCg93Y_8.png	171.3396606669994	
125	152.58369083300204	picture	0		86	123.0	/Users/shufanzhang/Documents/PhD/Arrow_of_time/arrow_of_time/pictures/n07716358_34784.JPEG	171.34964491699793	0.7684230419981759
125	153.34167987500405	response	0	k		123.0	/Users/shufanzhang/Documents/PhD/Arrow_of_time/arrow_of_time/pictures/n07716358_34784.JPEG	172.10763395899994	
126	153.3521138750002	picture	0		97	124.0	/Users/shufanzhang/Documents/PhD/Arrow_of_time/arrow_of_time/pictures/S_ILSVRC2015_train_00584001.png	172.1180679589961	0.8277349999989383
126	154.16919770799723	response	0	j		124.0	/Users/shufanzhang/Documents/PhD/Arrow_of_time/arrow_of_time/pictures/S_ILSVRC2015_train_00584001.png	172.93515179199312	
127	154.17984887499915	picture	0		198	125.0	/Users/shufanzhang/Documents/PhD/Arrow_of_time/arrow_of_time/pictures/S_ILSVRC2015_train_00762000.png	172.94580295899505	1.696961416004342
127	155.8636142500036	response	0	j		125.0	/Users/shufanzhang/Documents/PhD/Arrow_of_time/arrow_of_time/pictures/S_ILSVRC2015_train_00762000.png	174.6295683339995	
128	155.8768102910035	picture	0		104	126.0	/Users/shufanzhang/Documents/PhD/Arrow_of_time/arrow_of_time/pictures/S_yt-F2x6e7e7cAE_70.png	174.6427643749994	0.877046416993835
128	156.73395120799978	response	0	j		126.0	/Users/shufanzhang/Documents/PhD/Arrow_of_time/arrow_of_time/pictures/S_yt-F2x6e7e7cAE_70.png	175.49990529199567	
129	156.75385670799733	picture	0		97	127.0	/Users/shufanzhang/Documents/PhD/Arrow_of_time/arrow_of_time/pictures/S_pexels-tima-miroshnichenko-8724308.png	175.51981079199322	0.8109685420058668
129	157.55120754100062	response	0	j		127.0	/Users/shufanzhang/Documents/PhD/Arrow_of_time/arrow_of_time/pictures/S_pexels-tima-miroshnichenko-8724308.png	176.31716162499652	
130	157.5648252500032	picture	0		76	128.0	/Users/shufanzhang/Documents/PhD/Arrow_of_time/arrow_of_time/pictures/R_S_yt-LUIvP_NDWAs_45.png	176.3307793339991	0.6613508329974138
130	158.21548566599813	response	0	j		128.0	/Users/shufanzhang/Documents/PhD/Arrow_of_time/arrow_of_time/pictures/R_S_yt-LUIvP_NDWAs_45.png	176.98143974999402	
131	158.2261760830006	picture	0		98	129.0	/Users/shufanzhang/Documents/PhD/Arrow_of_time/arrow_of_time/pictures/ILSVRC2012_test_00088583.JPEG	176.9921301669965	0.8252136669980246
131	159.0407392499983	response	0	k		129.0	/Users/shufanzhang/Documents/PhD/Arrow_of_time/arrow_of_time/pictures/ILSVRC2012_test_00088583.JPEG	177.8066933339942	
132	159.05138974999863	picture	0		130	130.0	/Users/shufanzhang/Documents/PhD/Arrow_of_time/arrow_of_time/pictures/n09246464_16480.JPEG	177.81734383399453	1.0822686250030529
132	160.12388241600274	response	0	k		130.0	/Users/shufanzhang/Documents/PhD/Arrow_of_time/arrow_of_time/pictures/n09246464_16480.JPEG	178.88983649999864	
133	160.1336583750017	picture	0		227	131.0	/Users/shufanzhang/Documents/PhD/Arrow_of_time/arrow_of_time/pictures/R_S_Person_Going_Through_A_Bible.png	178.89961245899758	1.9203325409980607
133	162.04400475000148	response	0	j		131.0	/Users/shufanzhang/Documents/PhD/Arrow_of_time/arrow_of_time/pictures/R_S_Person_Going_Through_A_Bible.png	180.80995883399737	
134	162.05399091599975	picture	0		80	132.0	/Users/shufanzhang/Documents/PhD/Arrow_of_time/arrow_of_time/pictures/R_S_yt-n_eO-7KedAE_21.png	180.81994499999564	0.6767527920019347
134	162.71927129100368	response	0	j		132.0	/Users/shufanzhang/Documents/PhD/Arrow_of_time/arrow_of_time/pictures/R_S_yt-n_eO-7KedAE_21.png	181.48522537499957	
135	162.73074370800168	picture	0		106	133.0	/Users/shufanzhang/Documents/PhD/Arrow_of_time/arrow_of_time/pictures/n12985857_1847.JPEG	181.49669779199758	0.8880473329991219
135	163.60711587499827	response	0	k		133.0	/Users/shufanzhang/Documents/PhD/Arrow_of_time/arrow_of_time/pictures/n12985857_1847.JPEG	182.37306995899417	
136	163.6187910410008	picture	0		123	134.0	/Users/shufanzhang/Documents/PhD/Arrow_of_time/arrow_of_time/pictures/S_yt-HPjLtkyzN3E_101.png	182.3847451249967	1.1536127090002992
136	164.76071620800212	response	0	k		134.0	/Users/shufanzhang/Documents/PhD/Arrow_of_time/arrow_of_time/pictures/S_yt-HPjLtkyzN3E_101.png	183.52667029199802	
137	164.7724037500011	picture	0		74	135.0	/Users/shufanzhang/Documents/PhD/Arrow_of_time/arrow_of_time/pictures/n04346328_7408.JPEG	183.538357833997	0.7964544999995269
137	165.55981350000366	response	0	k		135.0	/Users/shufanzhang/Documents/PhD/Arrow_of_time/arrow_of_time/pictures/n04346328_7408.JPEG	184.32576758399955	
138	165.56885825000063	picture	0		96	136.0	/Users/shufanzhang/Documents/PhD/Arrow_of_time/arrow_of_time/pictures/S_flickr-southeasternstar-3464778323_10.png	184.33481233399652	0.8190023749993998
138	166.3748805830037	response	0	j		136.0	/Users/shufanzhang/Documents/PhD/Arrow_of_time/arrow_of_time/pictures/S_flickr-southeasternstar-3464778323_10.png	185.14083466699958	
139	166.38786062500003	picture	0		190	137.0	/Users/shufanzhang/Documents/PhD/Arrow_of_time/arrow_of_time/pictures/R_S_yt-7lULOC_rSE0_747.png	185.15381470899592	1.5854053330040188
139	167.96223050000117	response	0	j		137.0	/Users/shufanzhang/Documents/PhD/Arrow_of_time/arrow_of_time/pictures/R_S_yt-7lULOC_rSE0_747.png	186.72818458399706	
140	167.97326595800405	picture	0		92	138.0	/Users/shufanzhang/Documents/PhD/Arrow_of_time/arrow_of_time/pictures/S_ILSVRC2015_train_00165009.png	186.73922004199994	0.7919342079985654
140	168.75420370799839	response	0	j		138.0	/Users/shufanzhang/Documents/PhD/Arrow_of_time/arrow_of_time/pictures/S_ILSVRC2015_train_00165009.png	187.52015779199428	
141	168.76520016600261	picture	0		102	139.0	/Users/shufanzhang/Documents/PhD/Arrow_of_time/arrow_of_time/pictures/S_yt-zh2yLr-o_8A_953.png	187.5311542499985	0.8655148749967339
141	169.61719087500387	response	0	j		139.0	/Users/shufanzhang/Documents/PhD/Arrow_of_time/arrow_of_time/pictures/S_yt-zh2yLr-o_8A_953.png	188.38314495899976	
142	169.63071504099935	picture	0		150	140.0	/Users/shufanzhang/Documents/PhD/Arrow_of_time/arrow_of_time/pictures/n03796401_8058.JPEG	188.39666912499524	1.2435643749995506
142	170.86409058300342	response	0	k		140.0	/Users/shufanzhang/Documents/PhD/Arrow_of_time/arrow_of_time/pictures/n03796401_8058.JPEG	189.6300446669993	
143	170.8742794159989	picture	0		84	141.0	/Users/shufanzhang/Documents/PhD/Arrow_of_time/arrow_of_time/pictures/ILSVRC2012_test_00033878.JPEG	189.6402334999948	0.7353187920016353
143	171.59672216600302	response	0	k		141.0	/Users/shufanzhang/Documents/PhD/Arrow_of_time/arrow_of_time/pictures/ILSVRC2012_test_00033878.JPEG	190.3626762499989	
144	171.60959820800053	picture	0		118	142.0	/Users/shufanzhang/Documents/PhD/Arrow_of_time/arrow_of_time/pictures/S_yt-7W50lcw5FCo_37.png	190.37555229199643	0.9873759170004632
144	172.5859459580024	response	0	j		142.0	/Users/shufanzhang/Documents/PhD/Arrow_of_time/arrow_of_time/pictures/S_yt-7W50lcw5FCo_37.png	191.3519000419983	
145	172.596974125001	picture	0		433	143.0	/Users/shufanzhang/Documents/PhD/Arrow_of_time/arrow_of_time/pictures/R_S_PA_A004_C003_SDR_20190719_SDR_2K_AVC.png	191.3629282089969	3.706093458000396
145	176.29149866600346	response	0	j		143.0	/Users/shufanzhang/Documents/PhD/Arrow_of_time/arrow_of_time/pictures/R_S_PA_A004_C003_SDR_20190719_SDR_2K_AVC.png	195.05745274999936	
146	176.3030675830014	picture	0		99	144.0	/Users/shufanzhang/Documents/PhD/Arrow_of_time/arrow_of_time/pictures/S_yt-uWeU2s6JYyk_10.png	195.0690216669973	0.856988542000181
146	177.14854104100232	response	0	j		144.0	/Users/shufanzhang/Documents/PhD/Arrow_of_time/arrow_of_time/pictures/S_yt-uWeU2s6JYyk_10.png	195.9144951249982	
147	177.16005612500157	picture	0		94	145.0	/Users/shufanzhang/Documents/PhD/Arrow_of_time/arrow_of_time/pictures/R_S_ILSVRC2015_train_00743006.png	195.92601020899747	0.8119519159954507
147	177.95178970800043	response	0	j		145.0	/Users/shufanzhang/Documents/PhD/Arrow_of_time/arrow_of_time/pictures/R_S_ILSVRC2015_train_00743006.png	196.71774379199633	
148	177.97200804099703	picture	0		76	146.0	/Users/shufanzhang/Documents/PhD/Arrow_of_time/arrow_of_time/pictures/n01872401_18520.JPEG	196.73796212499292	0.7247495420015184
148	178.68600941600016	response	0	k		146.0	/Users/shufanzhang/Documents/PhD/Arrow_of_time/arrow_of_time/pictures/n01872401_18520.JPEG	197.45196349999605	
149	178.69675758299854	picture	0		97	147.0	/Users/shufanzhang/Documents/PhD/Arrow_of_time/arrow_of_time/pictures/n02096437_10584.JPEG	197.46271166699444	0.8135421250044601
149	179.4983677909986	response	0	k		147.0	/Users/shufanzhang/Documents/PhD/Arrow_of_time/arrow_of_time/pictures/n02096437_10584.JPEG	198.2643218749945	
150	179.510299708003	picture	0		101	148.0	/Users/shufanzhang/Documents/PhD/Arrow_of_time/arrow_of_time/pictures/R_S_production_ID_5139371.png	198.2762537919989	0.8495663749999949
150	180.3484641660034	response	0	j		148.0	/Users/shufanzhang/Documents/PhD/Arrow_of_time/arrow_of_time/pictures/R_S_production_ID_5139371.png	199.1144182499993	
151	180.359866083003	picture	0		88	149.0	/Users/shufanzhang/Documents/PhD/Arrow_of_time/arrow_of_time/pictures/R_S_yt-xqjVM0Vj4mI_161.png	199.1258201669989	0.7935860829966259
151	181.142621125	response	0	j		149.0	/Users/shufanzhang/Documents/PhD/Arrow_of_time/arrow_of_time/pictures/R_S_yt-xqjVM0Vj4mI_161.png	199.9085752089959	
152	181.15345216599962	picture	0		120	150.0	/Users/shufanzhang/Documents/PhD/Arrow_of_time/arrow_of_time/pictures/n01734418_5604.JPEG	199.91940624999552	0.9426626249987748
152	182.08589333300188	response	0	k		150.0	/Users/shufanzhang/Documents/PhD/Arrow_of_time/arrow_of_time/pictures/n01734418_5604.JPEG	200.85184741699777	
153	182.0961147909984	picture	0		195	151.0	/Users/shufanzhang/Documents/PhD/Arrow_of_time/arrow_of_time/pictures/n03933933_16287.JPEG	200.8620688749943	1.7556197090016212
153	183.84048033299769	response	0	k		151.0	/Users/shufanzhang/Documents/PhD/Arrow_of_time/arrow_of_time/pictures/n03933933_16287.JPEG	202.60643441699358	
154	183.85173450000002	picture	0		174	152.0	/Users/shufanzhang/Documents/PhD/Arrow_of_time/arrow_of_time/pictures/n02687172_17631.JPEG	202.6176885839959	1.3730183329971624
154	185.2152843330041	response	0	k		152.0	/Users/shufanzhang/Documents/PhD/Arrow_of_time/arrow_of_time/pictures/n02687172_17631.JPEG	203.981238417	
155	185.22475283299718	picture	0		118	153.0	/Users/shufanzhang/Documents/PhD/Arrow_of_time/arrow_of_time/pictures/R_S_yt-kINZMjys3O4_112.png	203.99070691699308	0.9926260000065668
155	186.20659899999737	response	0	j		153.0	/Users/shufanzhang/Documents/PhD/Arrow_of_time/arrow_of_time/pictures/R_S_yt-kINZMjys3O4_112.png	204.97255308399326	
156	186.21737883300375	picture	0		95	154.0	/Users/shufanzhang/Documents/PhD/Arrow_of_time/arrow_of_time/pictures/R_S_yt-UzWRbs9Syf4_7.png	204.98333291699964	0.7758634999991045
156	186.98346695800137	response	0	j		154.0	/Users/shufanzhang/Documents/PhD/Arrow_of_time/arrow_of_time/pictures/R_S_yt-UzWRbs9Syf4_7.png	205.74942104199727	
157	186.99324233300285	picture	0		96	155.0	/Users/shufanzhang/Documents/PhD/Arrow_of_time/arrow_of_time/pictures/n03495258_5143.JPEG	205.75919641699875	0.8534472079991247
157	187.8356434160014	response	0	k		155.0	/Users/shufanzhang/Documents/PhD/Arrow_of_time/arrow_of_time/pictures/n03495258_5143.JPEG	206.6015974999973	
158	187.84668954100198	picture	0		74	156.0	/Users/shufanzhang/Documents/PhD/Arrow_of_time/arrow_of_time/pictures/n04037443_53706.JPEG	206.61264362499787	0.6692755420008325
158	188.50496341600228	response	0	k		156.0	/Users/shufanzhang/Documents/PhD/Arrow_of_time/arrow_of_time/pictures/n04037443_53706.JPEG	207.27091749999818	
159	188.5159650830028	picture	0		89	157.0	/Users/shufanzhang/Documents/PhD/Arrow_of_time/arrow_of_time/pictures/S_production_ID_4325591.png	207.2819191669987	0.7486362079944229
159	189.25258970799769	response	0	j		157.0	/Users/shufanzhang/Documents/PhD/Arrow_of_time/arrow_of_time/pictures/S_production_ID_4325591.png	208.01854379199358	
160	189.26460129099723	picture	0		87	158.0	/Users/shufanzhang/Documents/PhD/Arrow_of_time/arrow_of_time/pictures/S_video-7.png	208.03055537499313	0.7491557920002379
160	190.00113162500202	response	0	j		158.0	/Users/shufanzhang/Documents/PhD/Arrow_of_time/arrow_of_time/pictures/S_video-7.png	208.7670857089979	
161	190.01375708299747	picture	0		111	159.0	/Users/shufanzhang/Documents/PhD/Arrow_of_time/arrow_of_time/pictures/S_yt-GVaF4tmJBZE_253.png	208.77971116699337	0.9395235420015524
161	190.9416885410028	response	0	j		159.0	/Users/shufanzhang/Documents/PhD/Arrow_of_time/arrow_of_time/pictures/S_yt-GVaF4tmJBZE_253.png	209.7076426249987	
162	190.95328062499902	picture	0		116	160.0	/Users/shufanzhang/Documents/PhD/Arrow_of_time/arrow_of_time/pictures/n01855672_6948.JPEG	209.71923470899492	0.8731187500015949
162	191.81954083299934	response	0	k		160.0	/Users/shufanzhang/Documents/PhD/Arrow_of_time/arrow_of_time/pictures/n01855672_6948.JPEG	210.58549491699523	
163	191.82639937500062	picture	0		95	161.0	/Users/shufanzhang/Documents/PhD/Arrow_of_time/arrow_of_time/pictures/n03535780_4549.JPEG	210.5923534589965	0.8156681249965914
163	192.63171920800232	response	0	k		161.0	/Users/shufanzhang/Documents/PhD/Arrow_of_time/arrow_of_time/pictures/n03535780_4549.JPEG	211.39767329199822	
164	192.6420674999972	picture	0		91	162.0	/Users/shufanzhang/Documents/PhD/Arrow_of_time/arrow_of_time/pictures/R_S_yt-IDpUZ2NWBUY_60.png	211.4080215839931	0.7546724160056328
164	193.38352195799962	response	0	j		162.0	/Users/shufanzhang/Documents/PhD/Arrow_of_time/arrow_of_time/pictures/R_S_yt-IDpUZ2NWBUY_60.png	212.1494760419955	
165	193.39673991600284	picture	0		92	163.0	/Users/shufanzhang/Documents/PhD/Arrow_of_time/arrow_of_time/pictures/S_video.png	212.16269399999874	0.7678589999995893
165	194.15057154100214	response	0	j		163.0	/Users/shufanzhang/Documents/PhD/Arrow_of_time/arrow_of_time/pictures/S_video.png	212.91652562499803	
166	194.16459891600243	picture	0		68	164.0	/Users/shufanzhang/Documents/PhD/Arrow_of_time/arrow_of_time/pictures/S_video_inspire_california_big-sur_landscape_054.png	212.93055299999833	0.628744708999875
166	194.78178037500038	response	0	j		164.0	/Users/shufanzhang/Documents/PhD/Arrow_of_time/arrow_of_time/pictures/S_video_inspire_california_big-sur_landscape_054.png	213.54773445899627	
167	194.7933436250023	picture	0		94	165.0	/Users/shufanzhang/Documents/PhD/Arrow_of_time/arrow_of_time/pictures/n04238763_4175.JPEG	213.5592977089982	0.7903957909948076
167	195.57356308300223	response	0	k		165.0	/Users/shufanzhang/Documents/PhD/Arrow_of_time/arrow_of_time/pictures/n04238763_4175.JPEG	214.33951716699812	
168	195.58373941599712	picture	0		82	166.0	/Users/shufanzhang/Documents/PhD/Arrow_of_time/arrow_of_time/pictures/S_yt-fQgLKiz2tuM_14.png	214.349693499993	0.7170830420000129
168	196.29015454099863	response	0	j		166.0	/Users/shufanzhang/Documents/PhD/Arrow_of_time/arrow_of_time/pictures/S_yt-fQgLKiz2tuM_14.png	215.05610862499452	
169	196.30082245799713	picture	0		94	167.0	/Users/shufanzhang/Documents/PhD/Arrow_of_time/arrow_of_time/pictures/S_yt-Ub5Xx5BqIOk_74.png	215.06677654199302	0.8695346250024159
169	197.15730237500247	response	0	j		167.0	/Users/shufanzhang/Documents/PhD/Arrow_of_time/arrow_of_time/pictures/S_yt-Ub5Xx5BqIOk_74.png	215.92325645899837	
170	197.17035708299954	picture	0		88	168.0	/Users/shufanzhang/Documents/PhD/Arrow_of_time/arrow_of_time/pictures/S_yt-YWfInCviN1s_126.png	215.93631116699544	0.7473152919992572
170	197.8970505000034	response	0	j		168.0	/Users/shufanzhang/Documents/PhD/Arrow_of_time/arrow_of_time/pictures/S_yt-YWfInCviN1s_126.png	216.66300458399928	
171	197.9176723749988	picture	0		96	169.0	/Users/shufanzhang/Documents/PhD/Arrow_of_time/arrow_of_time/pictures/ILSVRC2012_val_00048488.JPEG	216.6836264589947	0.7976630410048529
171	198.70144275000348	response	0	k		169.0	/Users/shufanzhang/Documents/PhD/Arrow_of_time/arrow_of_time/pictures/ILSVRC2012_val_00048488.JPEG	217.46739683399937	
172	198.71533541600365	picture	0		127	170.0	/Users/shufanzhang/Documents/PhD/Arrow_of_time/arrow_of_time/pictures/S_yt-MToRA8FcNJ4_138.png	217.48128949999955	1.080986374996428
172	199.7857378330009	response	0	k		170.0	/Users/shufanzhang/Documents/PhD/Arrow_of_time/arrow_of_time/pictures/S_yt-MToRA8FcNJ4_138.png	218.5516919169968	
173	199.79632179100008	picture	0		134	171.0	/Users/shufanzhang/Documents/PhD/Arrow_of_time/arrow_of_time/pictures/S_yt-ZfDtalvUK5k_36.png	218.56227587499598	1.1448295000009239
173	200.9268052080006	response	0	j		171.0	/Users/shufanzhang/Documents/PhD/Arrow_of_time/arrow_of_time/pictures/S_yt-ZfDtalvUK5k_36.png	219.69275929199648	
174	200.941151291001	picture	0		158	172.0	/Users/shufanzhang/Documents/PhD/Arrow_of_time/arrow_of_time/pictures/n03877845_10747.JPEG	219.7071053749969	1.372621041999082
174	202.3023818330039	response	0	k		172.0	/Users/shufanzhang/Documents/PhD/Arrow_of_time/arrow_of_time/pictures/n03877845_10747.JPEG	221.06833591699979	
175	202.3137723330001	picture	0		134	173.0	/Users/shufanzhang/Documents/PhD/Arrow_of_time/arrow_of_time/pictures/n01986214_12921.JPEG	221.07972641699598	1.1171179169978132
175	203.41932137500407	response	0	k		173.0	/Users/shufanzhang/Documents/PhD/Arrow_of_time/arrow_of_time/pictures/n01986214_12921.JPEG	222.18527545899997	
176	203.4308902499979	picture	0		94	174.0	/Users/shufanzhang/Documents/PhD/Arrow_of_time/arrow_of_time/pictures/S_yt-WhQMF3WM0Ig_29.png	222.1968443339938	0.7915502910036594
176	204.2090864999991	response	0	j		174.0	/Users/shufanzhang/Documents/PhD/Arrow_of_time/arrow_of_time/pictures/S_yt-WhQMF3WM0Ig_29.png	222.975040583995	
177	204.22244054100156	picture	0		115	175.0	/Users/shufanzhang/Documents/PhD/Arrow_of_time/arrow_of_time/pictures/R_S_yt-cjndulbUtRc_51.png	222.98839462499745	0.7477763749993755
177	204.95377150000422	response	0	j		175.0	/Users/shufanzhang/Documents/PhD/Arrow_of_time/arrow_of_time/pictures/R_S_yt-cjndulbUtRc_51.png	223.71972558400012	
178	204.97021691600094	picture	0		83	176.0	/Users/shufanzhang/Documents/PhD/Arrow_of_time/arrow_of_time/pictures/n01664065_30633.JPEG	223.73617099999683	0.724200958997244
178	205.68033945799834	response	0	k		176.0	/Users/shufanzhang/Documents/PhD/Arrow_of_time/arrow_of_time/pictures/n01664065_30633.JPEG	224.44629354199424	
179	205.69441787499818	picture	0		117	177.0	/Users/shufanzhang/Documents/PhD/Arrow_of_time/arrow_of_time/pictures/n02655020_2268.JPEG	224.46037195899407	0.7561891250006738
179	206.43731270800345	response	0	k		177.0	/Users/shufanzhang/Documents/PhD/Arrow_of_time/arrow_of_time/pictures/n02655020_2268.JPEG	225.20326679199934	
180	206.45060699999885	picture	0		83	178.0	/Users/shufanzhang/Documents/PhD/Arrow_of_time/arrow_of_time/pictures/n04347754_23610.JPEG	225.21656108399475	0.6937938750052126
180	207.1343093329997	response	0	k		178.0	/Users/shufanzhang/Documents/PhD/Arrow_of_time/arrow_of_time/pictures/n04347754_23610.JPEG	225.90026341699559	
181	207.14440087500407	picture	0		104	179.0	/Users/shufanzhang/Documents/PhD/Arrow_of_time/arrow_of_time/pictures/R_S_ILSVRC2015_train_00473000.png	225.91035495899996	0.9674850829978823
181	208.1023057909988	response	0	j		179.0	/Users/shufanzhang/Documents/PhD/Arrow_of_time/arrow_of_time/pictures/R_S_ILSVRC2015_train_00473000.png	226.8682598749947	
182	208.11188595800195	stim	0		777			226.87784004199784	6.683823792001931
182	214.0930362500003	response	0	j				232.8589903339962	
182	214.23011691599822	response	0	j				232.99607099999412	
182	214.35728691599797	response	0	j				233.12324099999387	
182	214.47575083300035	response	0	j				233.24170491699624	
