trial_nr	onset	event_type	phase	response	nr_frames	picture_index	picture_file	onset_abs	duration
0	0.011037167001632042	stim	0		1704			18.624633251005434	16.599831500003347
0	16.594918625007267	response	0	space				35.20851470901107	
2	16.61086866700498	picture	0		351	0.0	/Users/shufanzhang/Documents/PhD/Arrow_of_time/arrow_of_time/pictures/n02018207_13538.JPEG	35.22446475100878	2.944029332997161
2	19.544889334007166	response	0	j		0.0	/Users/shufanzhang/Documents/PhD/Arrow_of_time/arrow_of_time/pictures/n02018207_13538.JPEG	38.15848541801097	
3	19.55489800000214	picture	0		153	1.0	/Users/shufanzhang/Documents/PhD/Arrow_of_time/arrow_of_time/pictures/R_S_ILSVRC2015_train_00507000.png	38.16849408400594	1.2939679590053856
3	20.83970587501244	response	0	j		1.0	/Users/shufanzhang/Documents/PhD/Arrow_of_time/arrow_of_time/pictures/R_S_ILSVRC2015_train_00507000.png	39.453301959016244	
4	20.848865959007526	picture	0		185	2.0	/Users/shufanzhang/Documents/PhD/Arrow_of_time/arrow_of_time/pictures/n02835271_1055.JPEG	39.46246204301133	1.5415071250026813
4	22.37901079200674	response	0	j		2.0	/Users/shufanzhang/Documents/PhD/Arrow_of_time/arrow_of_time/pictures/n02835271_1055.JPEG	40.99260687601054	
5	22.390373084010207	picture	0		119	3.0	/Users/shufanzhang/Documents/PhD/Arrow_of_time/arrow_of_time/pictures/R_S_yt-158C6xUMi5Y_75.png	41.00396916801401	1.0118869579891907
5	23.39378883400059	response	0	j		3.0	/Users/shufanzhang/Documents/PhD/Arrow_of_time/arrow_of_time/pictures/R_S_yt-158C6xUMi5Y_75.png	42.00738491800439	
6	23.402260041999398	picture	0		145	4.0	/Users/shufanzhang/Documents/PhD/Arrow_of_time/arrow_of_time/pictures/ILSVRC2012_test_00015382.JPEG	42.0158561260032	1.2184189170075115
6	24.610831417012378	response	0	j		4.0	/Users/shufanzhang/Documents/PhD/Arrow_of_time/arrow_of_time/pictures/ILSVRC2012_test_00015382.JPEG	43.22442750101618	
7	24.62067895900691	picture	0		74	5.0	/Users/shufanzhang/Documents/PhD/Arrow_of_time/arrow_of_time/pictures/S_production_ID_4510883.png	43.23427504301071	0.6351306249998743
7	25.24591316700389	response	0	j		5.0	/Users/shufanzhang/Documents/PhD/Arrow_of_time/arrow_of_time/pictures/S_production_ID_4510883.png	43.859509251007694	
8	25.255809584006784	picture	0		52	6.0	/Users/shufanzhang/Documents/PhD/Arrow_of_time/arrow_of_time/pictures/n02814533_65056.JPEG	43.869405668010586	0.4523618329985766
8	25.6967982089991	response	0	j		6.0	/Users/shufanzhang/Documents/PhD/Arrow_of_time/arrow_of_time/pictures/n02814533_65056.JPEG	44.3103942930029	
9	25.70817141700536	picture	0		50	7.0	/Users/shufanzhang/Documents/PhD/Arrow_of_time/arrow_of_time/pictures/R_S_ILSVRC2015_train_00463000.png	44.32176750100916	0.4215286249964265
9	26.119334875009372	response	0	j		7.0	/Users/shufanzhang/Documents/PhD/Arrow_of_time/arrow_of_time/pictures/R_S_ILSVRC2015_train_00463000.png	44.732930959013174	
10	26.129700042001787	picture	0		54	8.0	/Users/shufanzhang/Documents/PhD/Arrow_of_time/arrow_of_time/pictures/n07684084_9211.JPEG	44.74329612600559	0.45178654200572055
10	26.571929709010874	response	0	j		8.0	/Users/shufanzhang/Documents/PhD/Arrow_of_time/arrow_of_time/pictures/n07684084_9211.JPEG	45.185525793014676	
11	26.581486584007507	picture	0		58	9.0	/Users/shufanzhang/Documents/PhD/Arrow_of_time/arrow_of_time/pictures/n03788195_7789.JPEG	45.19508266801131	0.4892998750001425
11	27.061367209011223	response	0	j		9.0	/Users/shufanzhang/Documents/PhD/Arrow_of_time/arrow_of_time/pictures/n03788195_7789.JPEG	45.674963293015026	
12	27.07078645900765	picture	0		73	10.0	/Users/shufanzhang/Documents/PhD/Arrow_of_time/arrow_of_time/pictures/R_S_yt-jzDaQD-g168_103.png	45.68438254301145	0.6332390409952495
12	27.698326500001713	response	0	j		10.0	/Users/shufanzhang/Documents/PhD/Arrow_of_time/arrow_of_time/pictures/R_S_yt-jzDaQD-g168_103.png	46.311922584005515	
13	27.7040255000029	picture	0		53	11.0	/Users/shufanzhang/Documents/PhD/Arrow_of_time/arrow_of_time/pictures/R_S_yt-1RVw8p6Dw2Q_20.png	46.3176215840067	0.44599212500907015
13	28.14060579201032	response	0	j		11.0	/Users/shufanzhang/Documents/PhD/Arrow_of_time/arrow_of_time/pictures/R_S_yt-1RVw8p6Dw2Q_20.png	46.75420187601412	
14	28.15001762501197	picture	0		48	12.0	/Users/shufanzhang/Documents/PhD/Arrow_of_time/arrow_of_time/pictures/S_yt-qOPJfTB1klY_1.png	46.76361370901577	0.40857566699560266
14	28.54844141700596	response	0	j		12.0	/Users/shufanzhang/Documents/PhD/Arrow_of_time/arrow_of_time/pictures/S_yt-qOPJfTB1klY_1.png	47.16203750100976	
15	28.558593292007572	picture	0		44	13.0	/Users/shufanzhang/Documents/PhD/Arrow_of_time/arrow_of_time/pictures/S_yt-0Zze3Ff12Ys_58.png	47.172189376011374	0.37098933299421333
15	28.917221584008075	response	0	j		13.0	/Users/shufanzhang/Documents/PhD/Arrow_of_time/arrow_of_time/pictures/S_yt-0Zze3Ff12Ys_58.png	47.53081766801188	
16	28.929582625001785	picture	0		48	14.0	/Users/shufanzhang/Documents/PhD/Arrow_of_time/arrow_of_time/pictures/n02641379_2270.JPEG	47.54317870900559	0.39851016701140907
16	29.31661312500364	response	0	j		14.0	/Users/shufanzhang/Documents/PhD/Arrow_of_time/arrow_of_time/pictures/n02641379_2270.JPEG	47.930209209007444	
17	29.328092792013194	picture	0		36	15.0	/Users/shufanzhang/Documents/PhD/Arrow_of_time/arrow_of_time/pictures/S_yt-EAMpitsjbbA_153.png	47.941688876017	0.3352882919862168
17	29.65071408401127	response	0	j		15.0	/Users/shufanzhang/Documents/PhD/Arrow_of_time/arrow_of_time/pictures/S_yt-EAMpitsjbbA_153.png	48.26431016801507	
18	29.66338108399941	picture	0		29	16.0	/Users/shufanzhang/Documents/PhD/Arrow_of_time/arrow_of_time/pictures/S_production_ID_4325509.png	48.276977168003214	0.36355783299950417
18	30.016408875002526	response	0	j		16.0	/Users/shufanzhang/Documents/PhD/Arrow_of_time/arrow_of_time/pictures/S_production_ID_4325509.png	48.63000495900633	
19	30.026938916998915	picture	0		45	17.0	/Users/shufanzhang/Documents/PhD/Arrow_of_time/arrow_of_time/pictures/R_S_yt-roThCERxVCs_133.png	48.64053500100272	0.3720802920142887
19	30.387473750000936	response	0	j		17.0	/Users/shufanzhang/Documents/PhD/Arrow_of_time/arrow_of_time/pictures/R_S_yt-roThCERxVCs_133.png	49.00106983400474	
20	30.399019209013204	picture	0		48	18.0	/Users/shufanzhang/Documents/PhD/Arrow_of_time/arrow_of_time/pictures/S_yt-Y32yFYRmNVU_22.png	49.01261529301701	0.4099387499882141
20	30.799452084000222	response	0	j		18.0	/Users/shufanzhang/Documents/PhD/Arrow_of_time/arrow_of_time/pictures/S_yt-Y32yFYRmNVU_22.png	49.413048168004025	
21	30.808957959001418	picture	0		45	19.0	/Users/shufanzhang/Documents/PhD/Arrow_of_time/arrow_of_time/pictures/S_yt-cEvK2aS5ehU_8.png	49.42255404300522	0.4371358750067884
21	31.235984625003766	response	0	j		19.0	/Users/shufanzhang/Documents/PhD/Arrow_of_time/arrow_of_time/pictures/S_yt-cEvK2aS5ehU_8.png	49.84958070900757	
22	31.246093834008207	picture	0		51	20.0	/Users/shufanzhang/Documents/PhD/Arrow_of_time/arrow_of_time/pictures/n01744401_7320.JPEG	49.85968991801201	0.43351670799893327
22	31.668921792006586	response	0	j		20.0	/Users/shufanzhang/Documents/PhD/Arrow_of_time/arrow_of_time/pictures/n01744401_7320.JPEG	50.28251787601039	
23	31.67961054200714	picture	0		61	21.0	/Users/shufanzhang/Documents/PhD/Arrow_of_time/arrow_of_time/pictures/n02422699_37511.JPEG	50.29320662601094	0.5117121249932097
23	32.18165325000882	response	0	j		21.0	/Users/shufanzhang/Documents/PhD/Arrow_of_time/arrow_of_time/pictures/n02422699_37511.JPEG	50.795249334012624	
24	32.19132266700035	picture	0		54	22.0	/Users/shufanzhang/Documents/PhD/Arrow_of_time/arrow_of_time/pictures/n02641379_27089.JPEG	50.80491875100415	0.4544682920095511
24	32.637587459001224	response	0	j		22.0	/Users/shufanzhang/Documents/PhD/Arrow_of_time/arrow_of_time/pictures/n02641379_27089.JPEG	51.25118354300503	
25	32.6457909590099	picture	0		48	23.0	/Users/shufanzhang/Documents/PhD/Arrow_of_time/arrow_of_time/pictures/R_S_yt-JkKOG9Fxykc_94.png	51.2593870430137	0.41145945800235495
25	33.04687295900658	response	0	j		23.0	/Users/shufanzhang/Documents/PhD/Arrow_of_time/arrow_of_time/pictures/R_S_yt-JkKOG9Fxykc_94.png	51.66046904301038	
26	33.057250417012256	picture	0		45	24.0	/Users/shufanzhang/Documents/PhD/Arrow_of_time/arrow_of_time/pictures/S_yt-fGN7sGPy8BA_13.png	51.67084650101606	0.37591874999634456
26	33.421821292009554	response	0	j		24.0	/Users/shufanzhang/Documents/PhD/Arrow_of_time/arrow_of_time/pictures/S_yt-fGN7sGPy8BA_13.png	52.035417376013356	
27	33.4331691670086	picture	0		44	25.0	/Users/shufanzhang/Documents/PhD/Arrow_of_time/arrow_of_time/pictures/R_S_production_ID_5020953.png	52.0467652510124	0.37105383299058303
27	33.7946049170132	response	0	j		25.0	/Users/shufanzhang/Documents/PhD/Arrow_of_time/arrow_of_time/pictures/R_S_production_ID_5020953.png	52.408201001017005	
28	33.80422299999918	picture	0		41	26.0	/Users/shufanzhang/Documents/PhD/Arrow_of_time/arrow_of_time/pictures/S_comp_H004_C009_PS_v01_SDR_PS_20180925_SDR_2K_AVC.png	52.417819084002986	0.3521852090052562
28	34.14584450000257	response	0	j		26.0	/Users/shufanzhang/Documents/PhD/Arrow_of_time/arrow_of_time/pictures/S_comp_H004_C009_PS_v01_SDR_PS_20180925_SDR_2K_AVC.png	52.75944058400637	
29	34.15640820900444	picture	0		31	27.0	/Users/shufanzhang/Documents/PhD/Arrow_of_time/arrow_of_time/pictures/R_S_m-aeoYPMqfg_185.png	52.77000429300824	0.35197866600356065
29	34.498621334001655	response	0	j		27.0	/Users/shufanzhang/Documents/PhD/Arrow_of_time/arrow_of_time/pictures/R_S_m-aeoYPMqfg_185.png	53.11221741800546	
30	34.508386875008	picture	0		40	28.0	/Users/shufanzhang/Documents/PhD/Arrow_of_time/arrow_of_time/pictures/n03095699_13211.JPEG	53.1219829590118	0.336928959004581
30	34.8355279170064	response	0	j		28.0	/Users/shufanzhang/Documents/PhD/Arrow_of_time/arrow_of_time/pictures/n03095699_13211.JPEG	53.449124001010205	
31	34.84531583401258	picture	0		43	29.0	/Users/shufanzhang/Documents/PhD/Arrow_of_time/arrow_of_time/pictures/R_S_yt-0xzYSBvVfYM_197.png	53.45891191801638	0.3630655409942847
31	35.198621458999696	response	0	j		29.0	/Users/shufanzhang/Documents/PhD/Arrow_of_time/arrow_of_time/pictures/R_S_yt-0xzYSBvVfYM_197.png	53.8122175430035	
32	35.208381375006866	picture	0		37	30.0	/Users/shufanzhang/Documents/PhD/Arrow_of_time/arrow_of_time/pictures/S_comp_A108_C001_v09_SDR_FINAL_22062018_SDR_2K_AVC.png	53.82197745901067	0.3171299999958137
32	35.51488891700865	response	0	j		30.0	/Users/shufanzhang/Documents/PhD/Arrow_of_time/arrow_of_time/pictures/S_comp_A108_C001_v09_SDR_FINAL_22062018_SDR_2K_AVC.png	54.12848500101245	
33	35.52551137500268	picture	0		33	31.0	/Users/shufanzhang/Documents/PhD/Arrow_of_time/arrow_of_time/pictures/n04258138_914.JPEG	54.13910745900648	0.3204079170100158
33	35.83591408400389	response	0	j		31.0	/Users/shufanzhang/Documents/PhD/Arrow_of_time/arrow_of_time/pictures/n04258138_914.JPEG	54.44951016800769	
34	35.845919292012695	picture	0		41	32.0	/Users/shufanzhang/Documents/PhD/Arrow_of_time/arrow_of_time/pictures/n02116738_10613.JPEG	54.4595153760165	0.3503942919924157
34	36.1860468750092	response	0	j		32.0	/Users/shufanzhang/Documents/PhD/Arrow_of_time/arrow_of_time/pictures/n02116738_10613.JPEG	54.799642959013	
35	36.19631358400511	picture	0		39	33.0	/Users/shufanzhang/Documents/PhD/Arrow_of_time/arrow_of_time/pictures/R_S_yt-Bx2kLEUuN0E_456.png	54.80990966800891	0.3291503750078846
35	36.51503529200272	response	0	j		33.0	/Users/shufanzhang/Documents/PhD/Arrow_of_time/arrow_of_time/pictures/R_S_yt-Bx2kLEUuN0E_456.png	55.128631376006524	
36	36.525463959012995	picture	0		42	34.0	/Users/shufanzhang/Documents/PhD/Arrow_of_time/arrow_of_time/pictures/S_yt-djFogwgoaEk_94.png	55.1390600430168	0.35066987499885727
36	36.8660105420131	response	0	j		34.0	/Users/shufanzhang/Documents/PhD/Arrow_of_time/arrow_of_time/pictures/S_yt-djFogwgoaEk_94.png	55.4796066260169	
37	36.87613383401185	picture	0		42	35.0	/Users/shufanzhang/Documents/PhD/Arrow_of_time/arrow_of_time/pictures/n02099267_5073.JPEG	55.489729918015655	0.3545210829906864
37	37.220277542000986	response	0	j		35.0	/Users/shufanzhang/Documents/PhD/Arrow_of_time/arrow_of_time/pictures/n02099267_5073.JPEG	55.83387362600479	
38	37.23065491700254	picture	0		36	36.0	/Users/shufanzhang/Documents/PhD/Arrow_of_time/arrow_of_time/pictures/R_S_yt-r7brAHgxZSU_248.png	55.84425100100634	0.30232116700790357
38	37.521776875000796	response	0	j		36.0	/Users/shufanzhang/Documents/PhD/Arrow_of_time/arrow_of_time/pictures/R_S_yt-r7brAHgxZSU_248.png	56.1353729590046	
39	37.53297608401044	picture	0		46	37.0	/Users/shufanzhang/Documents/PhD/Arrow_of_time/arrow_of_time/pictures/n03249569_54697.JPEG	56.146572168014245	0.38980704099230934
39	37.91269004200876	response	0	j		37.0	/Users/shufanzhang/Documents/PhD/Arrow_of_time/arrow_of_time/pictures/n03249569_54697.JPEG	56.526286126012565	
40	37.92278312500275	picture	0		36	38.0	/Users/shufanzhang/Documents/PhD/Arrow_of_time/arrow_of_time/pictures/n02125311_38939.JPEG	56.536379209006554	0.36412008400657214
40	38.27707987499889	response	0	j		38.0	/Users/shufanzhang/Documents/PhD/Arrow_of_time/arrow_of_time/pictures/n02125311_38939.JPEG	56.89067595900269	
41	38.286903209009324	picture	0		57	39.0	/Users/shufanzhang/Documents/PhD/Arrow_of_time/arrow_of_time/pictures/S_flickr-lamujuri-10653517683_4.png	56.90049929301313	0.4714524159935536
41	38.746177042005	response	0	j		39.0	/Users/shufanzhang/Documents/PhD/Arrow_of_time/arrow_of_time/pictures/S_flickr-lamujuri-10653517683_4.png	57.359773126008804	
42	38.75835562500288	picture	0		58	40.0	/Users/shufanzhang/Documents/PhD/Arrow_of_time/arrow_of_time/pictures/R_S_8amznWxLS04_212.png	57.37195170900668	0.48708849999820814
42	39.23583575000521	response	0	j		40.0	/Users/shufanzhang/Documents/PhD/Arrow_of_time/arrow_of_time/pictures/R_S_8amznWxLS04_212.png	57.84943183400901	
43	39.245444125001086	picture	0		47	41.0	/Users/shufanzhang/Documents/PhD/Arrow_of_time/arrow_of_time/pictures/R_S_yt-0bovQBIUZho_15.png	57.85904020900489	0.397467750008218
43	39.6327047090017	response	0	j		41.0	/Users/shufanzhang/Documents/PhD/Arrow_of_time/arrow_of_time/pictures/R_S_yt-0bovQBIUZho_15.png	58.2463007930055	
44	39.642911875009304	picture	0		37	42.0	/Users/shufanzhang/Documents/PhD/Arrow_of_time/arrow_of_time/pictures/S_pexels-cottonbro-6789234.png	58.256507959013106	0.3171664589899592
44	39.950079625006765	response	0	j		42.0	/Users/shufanzhang/Documents/PhD/Arrow_of_time/arrow_of_time/pictures/S_pexels-cottonbro-6789234.png	58.56367570901057	
45	39.96007833399926	picture	0		31	43.0	/Users/shufanzhang/Documents/PhD/Arrow_of_time/arrow_of_time/pictures/n01773797_9344.JPEG	58.573674418003066	0.37674708300619386
45	40.318043125007534	response	0	j		43.0	/Users/shufanzhang/Documents/PhD/Arrow_of_time/arrow_of_time/pictures/n01773797_9344.JPEG	58.93163920901134	
46	40.33682541700546	picture	0		36	44.0	/Users/shufanzhang/Documents/PhD/Arrow_of_time/arrow_of_time/pictures/S_G5lrDxJJzfI_2.png	58.95042150100926	0.34541366700432263
46	40.669490459011286	response	0	j		44.0	/Users/shufanzhang/Documents/PhD/Arrow_of_time/arrow_of_time/pictures/S_G5lrDxJJzfI_2.png	59.28308654301509	
47	40.68223908400978	picture	0		37	45.0	/Users/shufanzhang/Documents/PhD/Arrow_of_time/arrow_of_time/pictures/n02106382_2644.JPEG	59.29583516801358	0.3148583750007674
47	40.98623766700621	response	0	j		45.0	/Users/shufanzhang/Documents/PhD/Arrow_of_time/arrow_of_time/pictures/n02106382_2644.JPEG	59.59983375101001	
48	40.99709745901055	picture	0		49	46.0	/Users/shufanzhang/Documents/PhD/Arrow_of_time/arrow_of_time/pictures/n02504013_13427.JPEG	59.61069354301435	0.4159185409953352
48	41.40241470900946	response	0	j		46.0	/Users/shufanzhang/Documents/PhD/Arrow_of_time/arrow_of_time/pictures/n02504013_13427.JPEG	60.016010793013265	
49	41.41301600000588	picture	0		48	47.0	/Users/shufanzhang/Documents/PhD/Arrow_of_time/arrow_of_time/pictures/R_S_ILSVRC2015_train_00447000.png	60.026612084009685	0.40515933399728965
49	41.8051910840004	response	0	j		47.0	/Users/shufanzhang/Documents/PhD/Arrow_of_time/arrow_of_time/pictures/R_S_ILSVRC2015_train_00447000.png	60.4187871680042	
50	41.81817533400317	picture	0		48	48.0	/Users/shufanzhang/Documents/PhD/Arrow_of_time/arrow_of_time/pictures/n04238763_1250.JPEG	60.431771418006974	0.42829295800765976
50	42.23589675000403	response	0	j		48.0	/Users/shufanzhang/Documents/PhD/Arrow_of_time/arrow_of_time/pictures/n04238763_1250.JPEG	60.84949283400783	
51	42.24646829201083	picture	0		46	49.0	/Users/shufanzhang/Documents/PhD/Arrow_of_time/arrow_of_time/pictures/S_ILSVRC2015_train_00682009.png	60.860064376014634	0.38718583299487364
51	42.62292704200081	response	0	j		49.0	/Users/shufanzhang/Documents/PhD/Arrow_of_time/arrow_of_time/pictures/S_ILSVRC2015_train_00682009.png	61.23652312600461	
52	42.633654125005705	picture	0		48	50.0	/Users/shufanzhang/Documents/PhD/Arrow_of_time/arrow_of_time/pictures/S_yt-BeF1BUrjY_8_117.png	61.24725020900951	0.40640637499745935
52	43.02926266701252	response	0	j		50.0	/Users/shufanzhang/Documents/PhD/Arrow_of_time/arrow_of_time/pictures/S_yt-BeF1BUrjY_8_117.png	61.64285875101632	
53	43.040060500003165	picture	0		47	51.0	/Users/shufanzhang/Documents/PhD/Arrow_of_time/arrow_of_time/pictures/R_S_ILSVRC2015_train_00418001.png	61.65365658400697	0.3979840840038378
53	43.42835329200898	response	0	j		51.0	/Users/shufanzhang/Documents/PhD/Arrow_of_time/arrow_of_time/pictures/R_S_ILSVRC2015_train_00418001.png	62.04194937601278	
54	43.438044584007	picture	0		38	52.0	/Users/shufanzhang/Documents/PhD/Arrow_of_time/arrow_of_time/pictures/S_yt-roThCERxVCs_133.png	62.051640668010805	0.32951958299963735
54	43.752865583999665	response	0	j		52.0	/Users/shufanzhang/Documents/PhD/Arrow_of_time/arrow_of_time/pictures/S_yt-roThCERxVCs_133.png	62.36646166800347	
55	43.76756416700664	picture	0		35	53.0	/Users/shufanzhang/Documents/PhD/Arrow_of_time/arrow_of_time/pictures/S_pexels-roman-odintsov-8233166.png	62.38116025101044	0.336941667002975
55	44.09199900001113	response	0	j		53.0	/Users/shufanzhang/Documents/PhD/Arrow_of_time/arrow_of_time/pictures/S_pexels-roman-odintsov-8233166.png	62.70559508401493	
56	44.104505834009615	picture	0		115	54.0	/Users/shufanzhang/Documents/PhD/Arrow_of_time/arrow_of_time/pictures/R_S_gX_VbZnZO0k_13.png	62.71810191801342	0.9579618330026278
56	45.05032733400003	response	0	j		54.0	/Users/shufanzhang/Documents/PhD/Arrow_of_time/arrow_of_time/pictures/R_S_gX_VbZnZO0k_13.png	63.66392341800383	
57	45.06246766701224	picture	0		115	55.0	/Users/shufanzhang/Documents/PhD/Arrow_of_time/arrow_of_time/pictures/n03982430_2636.JPEG	63.676063751016045	0.9584644579881569
57	46.00776516699989	response	0	j		55.0	/Users/shufanzhang/Documents/PhD/Arrow_of_time/arrow_of_time/pictures/n03982430_2636.JPEG	64.62136125100369	
58	46.0209321250004	picture	0		71	56.0	/Users/shufanzhang/Documents/PhD/Arrow_of_time/arrow_of_time/pictures/n04487081_5046.JPEG	64.6345282090042	0.5968502500036266
58	46.60546637501102	response	0	j		56.0	/Users/shufanzhang/Documents/PhD/Arrow_of_time/arrow_of_time/pictures/n04487081_5046.JPEG	65.21906245901482	
59	46.617782375004026	picture	0		56	57.0	/Users/shufanzhang/Documents/PhD/Arrow_of_time/arrow_of_time/pictures/S_yt-Dwgpjoikt84_122.png	65.23137845900783	0.4645395840052515
59	47.072741750002024	response	0	j		57.0	/Users/shufanzhang/Documents/PhD/Arrow_of_time/arrow_of_time/pictures/S_yt-Dwgpjoikt84_122.png	65.68633783400583	
60	47.08232195900928	picture	0		73	58.0	/Users/shufanzhang/Documents/PhD/Arrow_of_time/arrow_of_time/pictures/n02120079_9615.JPEG	65.69591804301308	0.6089362079947023
60	47.684636667007	response	0	j		58.0	/Users/shufanzhang/Documents/PhD/Arrow_of_time/arrow_of_time/pictures/n02120079_9615.JPEG	66.2982327510108	
61	47.69125816700398	picture	0		62	59.0	/Users/shufanzhang/Documents/PhD/Arrow_of_time/arrow_of_time/pictures/n04606251_6163.JPEG	66.30485425100778	0.5161593750090105
61	48.19774841700564	response	0	j		59.0	/Users/shufanzhang/Documents/PhD/Arrow_of_time/arrow_of_time/pictures/n04606251_6163.JPEG	66.81134450100944	
62	48.20741754201299	picture	0		54	60.0	/Users/shufanzhang/Documents/PhD/Arrow_of_time/arrow_of_time/pictures/n02492035_1105.JPEG	66.82101362601679	0.4509959169954527
62	48.64659412500623	response	0	j		60.0	/Users/shufanzhang/Documents/PhD/Arrow_of_time/arrow_of_time/pictures/n02492035_1105.JPEG	67.26019020901003	
63	48.65841345900844	picture	0		66	61.0	/Users/shufanzhang/Documents/PhD/Arrow_of_time/arrow_of_time/pictures/S_yt-452RKqKIeRU_16.png	67.27200954301225	0.5542177500028629
63	49.2029503340018	response	0	j		61.0	/Users/shufanzhang/Documents/PhD/Arrow_of_time/arrow_of_time/pictures/S_yt-452RKqKIeRU_16.png	67.8165464180056	
64	49.212631209011306	picture	0		53	62.0	/Users/shufanzhang/Documents/PhD/Arrow_of_time/arrow_of_time/pictures/n13052670_2855.JPEG	67.82622729301511	0.4401216249971185
64	49.642243375012185	response	0	j		62.0	/Users/shufanzhang/Documents/PhD/Arrow_of_time/arrow_of_time/pictures/n13052670_2855.JPEG	68.25583945901599	
65	49.652752834008425	picture	0		48	63.0	/Users/shufanzhang/Documents/PhD/Arrow_of_time/arrow_of_time/pictures/S_ILSVRC2015_train_00418001.png	68.26634891801223	0.41135433300223667
65	50.054074459010735	response	0	j		63.0	/Users/shufanzhang/Documents/PhD/Arrow_of_time/arrow_of_time/pictures/S_ILSVRC2015_train_00418001.png	68.66767054301454	
66	50.06410716701066	picture	0		42	64.0	/Users/shufanzhang/Documents/PhD/Arrow_of_time/arrow_of_time/pictures/S_yt-1RVw8p6Dw2Q_20.png	68.67770325101446	0.38598591698973905
66	50.4397142920061	response	0	j		64.0	/Users/shufanzhang/Documents/PhD/Arrow_of_time/arrow_of_time/pictures/S_yt-1RVw8p6Dw2Q_20.png	69.0533103760099	
67	50.4500930840004	picture	0		43	65.0	/Users/shufanzhang/Documents/PhD/Arrow_of_time/arrow_of_time/pictures/n03220513_18016.JPEG	69.0636891680042	0.3621517080027843
67	50.79967979200592	response	0	j		65.0	/Users/shufanzhang/Documents/PhD/Arrow_of_time/arrow_of_time/pictures/n03220513_18016.JPEG	69.41327587600972	
68	50.812244792003185	picture	0		40	66.0	/Users/shufanzhang/Documents/PhD/Arrow_of_time/arrow_of_time/pictures/n01704323_7103.JPEG	69.42584087600699	0.33238662499934435
68	51.13503120900714	response	0	j		66.0	/Users/shufanzhang/Documents/PhD/Arrow_of_time/arrow_of_time/pictures/n01704323_7103.JPEG	69.74862729301094	
69	51.14463141700253	picture	0		38	67.0	/Users/shufanzhang/Documents/PhD/Arrow_of_time/arrow_of_time/pictures/R_S_production_ID_4584682.png	69.75822750100633	0.3225735000014538
69	51.45688633401005	response	0	j		67.0	/Users/shufanzhang/Documents/PhD/Arrow_of_time/arrow_of_time/pictures/R_S_production_ID_4584682.png	70.07048241801385	
70	51.46720491700398	picture	0		40	68.0	/Users/shufanzhang/Documents/PhD/Arrow_of_time/arrow_of_time/pictures/R_S_yt-QJ2k6vA8aco_12.png	70.08080100100779	0.3413967079977738
70	51.79871225000534	response	0	j		68.0	/Users/shufanzhang/Documents/PhD/Arrow_of_time/arrow_of_time/pictures/R_S_yt-QJ2k6vA8aco_12.png	70.41230833400914	
71	51.80860162500176	picture	0		39	69.0	/Users/shufanzhang/Documents/PhD/Arrow_of_time/arrow_of_time/pictures/S_yt-EZCX42e_bkc_78.png	70.42219770900556	0.33378041700052563
71	52.13170087500475	response	0	j		69.0	/Users/shufanzhang/Documents/PhD/Arrow_of_time/arrow_of_time/pictures/S_yt-EZCX42e_bkc_78.png	70.74529695900856	
72	52.14238204200228	picture	0		40	70.0	/Users/shufanzhang/Documents/PhD/Arrow_of_time/arrow_of_time/pictures/n04264628_27969.JPEG	70.75597812600608	0.3318373329966562
72	52.46153108400176	response	0	j		70.0	/Users/shufanzhang/Documents/PhD/Arrow_of_time/arrow_of_time/pictures/n04264628_27969.JPEG	71.07512716800557	
73	52.47421937499894	picture	0		93	71.0	/Users/shufanzhang/Documents/PhD/Arrow_of_time/arrow_of_time/pictures/n03777568_2439.JPEG	71.08781545900274	0.7802312090061605
73	53.244357834002585	response	0	j		71.0	/Users/shufanzhang/Documents/PhD/Arrow_of_time/arrow_of_time/pictures/n03777568_2439.JPEG	71.85795391800639	
74	53.2544505840051	picture	0		53	72.0	/Users/shufanzhang/Documents/PhD/Arrow_of_time/arrow_of_time/pictures/S_yt-ibDaDIEazxg_3.png	71.8680466680089	0.44710925000254065
74	53.69141979201231	response	0	j		72.0	/Users/shufanzhang/Documents/PhD/Arrow_of_time/arrow_of_time/pictures/S_yt-ibDaDIEazxg_3.png	72.30501587601611	
75	53.70155983400764	picture	0		55	73.0	/Users/shufanzhang/Documents/PhD/Arrow_of_time/arrow_of_time/pictures/R_S_yt-452RKqKIeRU_16.png	72.31515591801144	0.5948080410016701
75	54.28609970900288	response	0	j		73.0	/Users/shufanzhang/Documents/PhD/Arrow_of_time/arrow_of_time/pictures/R_S_yt-452RKqKIeRU_16.png	72.89969579300669	
76	54.29636787500931	picture	0		57	74.0	/Users/shufanzhang/Documents/PhD/Arrow_of_time/arrow_of_time/pictures/n09288635_3488.JPEG	72.90996395901311	0.48383800000010524
76	54.76984937500674	response	0	j		74.0	/Users/shufanzhang/Documents/PhD/Arrow_of_time/arrow_of_time/pictures/n09288635_3488.JPEG	73.38344545901055	
77	54.780205875009415	picture	0		64	75.0	/Users/shufanzhang/Documents/PhD/Arrow_of_time/arrow_of_time/pictures/n01734418_6597.JPEG	73.39380195901322	0.5403544169967063
77	55.310609500011196	response	0	j		75.0	/Users/shufanzhang/Documents/PhD/Arrow_of_time/arrow_of_time/pictures/n01734418_6597.JPEG	73.924205584015	
78	55.32056029200612	picture	0		67	76.0	/Users/shufanzhang/Documents/PhD/Arrow_of_time/arrow_of_time/pictures/R_S_yt-CNq5mTA8oXY_176.png	73.93415637600992	0.5611101669928757
78	55.872123749999446	response	0	j		76.0	/Users/shufanzhang/Documents/PhD/Arrow_of_time/arrow_of_time/pictures/R_S_yt-CNq5mTA8oXY_176.png	74.48571983400325	
79	55.881670458999	picture	0		58	77.0	/Users/shufanzhang/Documents/PhD/Arrow_of_time/arrow_of_time/pictures/n04141327_3581.JPEG	74.4952665430028	0.4899249160080217
79	56.361068875005	response	0	j		77.0	/Users/shufanzhang/Documents/PhD/Arrow_of_time/arrow_of_time/pictures/n04141327_3581.JPEG	74.9746649590088	
80	56.37159537500702	picture	0		59	78.0	/Users/shufanzhang/Documents/PhD/Arrow_of_time/arrow_of_time/pictures/S_wc-__wCAtivIDG3_93.png	74.98519145901082	0.49897849999251775
80	56.86111033400812	response	0	j		78.0	/Users/shufanzhang/Documents/PhD/Arrow_of_time/arrow_of_time/pictures/S_wc-__wCAtivIDG3_93.png	75.47470641801192	
81	56.870573874999536	picture	0		47	79.0	/Users/shufanzhang/Documents/PhD/Arrow_of_time/arrow_of_time/pictures/R_S_ILSVRC2015_train_00524001.png	75.48416995900334	0.4009765420050826
81	57.261271084003965	response	0	j		79.0	/Users/shufanzhang/Documents/PhD/Arrow_of_time/arrow_of_time/pictures/R_S_ILSVRC2015_train_00524001.png	75.87486716800777	
82	57.27155041700462	picture	0		44	80.0	/Users/shufanzhang/Documents/PhD/Arrow_of_time/arrow_of_time/pictures/n03871628_12731.JPEG	75.88514650100842	0.3698544170038076
82	57.6292934170051	response	0	j		80.0	/Users/shufanzhang/Documents/PhD/Arrow_of_time/arrow_of_time/pictures/n03871628_12731.JPEG	76.2428895010089	
83	57.641404834008426	picture	0		54	81.0	/Users/shufanzhang/Documents/PhD/Arrow_of_time/arrow_of_time/pictures/S_yt--jzScB82vKI_212.png	76.25500091801223	0.4551832500001183
83	58.0866912920028	response	0	j		81.0	/Users/shufanzhang/Documents/PhD/Arrow_of_time/arrow_of_time/pictures/S_yt--jzScB82vKI_212.png	76.7002873760066	
84	58.096588084008545	picture	0		51	82.0	/Users/shufanzhang/Documents/PhD/Arrow_of_time/arrow_of_time/pictures/n09246464_86.JPEG	76.71018416801235	0.4293645830039168
84	58.513406750003924	response	0	j		82.0	/Users/shufanzhang/Documents/PhD/Arrow_of_time/arrow_of_time/pictures/n09246464_86.JPEG	77.12700283400773	
85	58.52595266701246	picture	0		37	83.0	/Users/shufanzhang/Documents/PhD/Arrow_of_time/arrow_of_time/pictures/n04404412_31257.JPEG	77.13954875101626	0.36672324998653494
85	58.87993862500298	response	0	j		83.0	/Users/shufanzhang/Documents/PhD/Arrow_of_time/arrow_of_time/pictures/n04404412_31257.JPEG	77.49353470900678	
86	58.892675916998996	picture	0		46	84.0	/Users/shufanzhang/Documents/PhD/Arrow_of_time/arrow_of_time/pictures/n01774384_13906.JPEG	77.5062720010028	0.3812675830122316
86	59.26426779200847	response	0	j		84.0	/Users/shufanzhang/Documents/PhD/Arrow_of_time/arrow_of_time/pictures/n01774384_13906.JPEG	77.87786387601227	
87	59.27394350001123	picture	0		105	85.0	/Users/shufanzhang/Documents/PhD/Arrow_of_time/arrow_of_time/pictures/n02077923_9403.JPEG	77.88753958401503	0.8808657089975895
87	60.14496204200259	response	0	j		85.0	/Users/shufanzhang/Documents/PhD/Arrow_of_time/arrow_of_time/pictures/n02077923_9403.JPEG	78.75855812600639	
88	60.15480920900882	picture	0		158	86.0	/Users/shufanzhang/Documents/PhD/Arrow_of_time/arrow_of_time/pictures/S_yt-158C6xUMi5Y_75.png	78.76840529301262	1.3248360830039019
88	61.4694908750098	response	0	j		86.0	/Users/shufanzhang/Documents/PhD/Arrow_of_time/arrow_of_time/pictures/S_yt-158C6xUMi5Y_75.png	80.0830869590136	
89	61.47964529201272	picture	0		72	87.0	/Users/shufanzhang/Documents/PhD/Arrow_of_time/arrow_of_time/pictures/S_comp_A351_C001_v06_SDR_PS_20180725_SDR_2K_AVC.png	80.09324137601652	0.6095284999901196
89	62.078877917010686	response	0	j		87.0	/Users/shufanzhang/Documents/PhD/Arrow_of_time/arrow_of_time/pictures/S_comp_A351_C001_v06_SDR_PS_20180725_SDR_2K_AVC.png	80.69247400101449	
90	62.08917379200284	picture	0		39	88.0	/Users/shufanzhang/Documents/PhD/Arrow_of_time/arrow_of_time/pictures/S_production_ID_4325516.png	80.70276987600664	0.4793283750041155
90	62.55133866700635	response	0	j		88.0	/Users/shufanzhang/Documents/PhD/Arrow_of_time/arrow_of_time/pictures/S_production_ID_4325516.png	81.16493475101015	
91	62.568502167006955	picture	0		66	89.0	/Users/shufanzhang/Documents/PhD/Arrow_of_time/arrow_of_time/pictures/R_S_yt-MhW2fU45JK8_544.png	81.18209825101076	0.5439424170035636
91	63.102374834008515	response	0	j		89.0	/Users/shufanzhang/Documents/PhD/Arrow_of_time/arrow_of_time/pictures/R_S_yt-MhW2fU45JK8_544.png	81.71597091801232	
92	63.11244458401052	picture	0		47	90.0	/Users/shufanzhang/Documents/PhD/Arrow_of_time/arrow_of_time/pictures/R_S_flickr-lamujuri-10653517683_4.png	81.72604066801432	0.3974590829893714
92	63.49972150000394	response	0	j		90.0	/Users/shufanzhang/Documents/PhD/Arrow_of_time/arrow_of_time/pictures/R_S_flickr-lamujuri-10653517683_4.png	82.11331758400775	
93	63.50990366699989	picture	0		39	91.0	/Users/shufanzhang/Documents/PhD/Arrow_of_time/arrow_of_time/pictures/R_S_ILSVRC2015_train_00578001.png	82.12349975100369	0.37743420799961314
93	63.87821858401003	response	0	j		91.0	/Users/shufanzhang/Documents/PhD/Arrow_of_time/arrow_of_time/pictures/R_S_ILSVRC2015_train_00578001.png	82.49181466801383	
94	63.8873378749995	picture	0		38	92.0	/Users/shufanzhang/Documents/PhD/Arrow_of_time/arrow_of_time/pictures/n04118776_27750.JPEG	82.5009339590033	0.36235387501074
94	64.23766245901061	response	0	j		92.0	/Users/shufanzhang/Documents/PhD/Arrow_of_time/arrow_of_time/pictures/n04118776_27750.JPEG	82.85125854301441	
95	64.24969175001024	picture	0		46	93.0	/Users/shufanzhang/Documents/PhD/Arrow_of_time/arrow_of_time/pictures/n02009229_2146.JPEG	82.86328783401405	0.3774259589990834
95	64.61553712500609	response	0	j		93.0	/Users/shufanzhang/Documents/PhD/Arrow_of_time/arrow_of_time/pictures/n02009229_2146.JPEG	83.22913320900989	
96	64.62711770900933	picture	0		40	94.0	/Users/shufanzhang/Documents/PhD/Arrow_of_time/arrow_of_time/pictures/R_S_8lrGQK4UBj8_38.png	83.24071379301313	0.34079737499996554
96	64.9565970840049	response	0	j		94.0	/Users/shufanzhang/Documents/PhD/Arrow_of_time/arrow_of_time/pictures/R_S_8lrGQK4UBj8_38.png	83.5701931680087	
97	64.96791508400929	picture	0		44	95.0	/Users/shufanzhang/Documents/PhD/Arrow_of_time/arrow_of_time/pictures/n07693725_12956.JPEG	83.5815111680131	0.3624031249928521
97	65.32104249999975	response	0	j		95.0	/Users/shufanzhang/Documents/PhD/Arrow_of_time/arrow_of_time/pictures/n07693725_12956.JPEG	83.93463858400355	
98	65.33031820900214	picture	0		39	96.0	/Users/shufanzhang/Documents/PhD/Arrow_of_time/arrow_of_time/pictures/n02105505_4764.JPEG	83.94391429300595	0.3274702909984626
98	65.64574895901023	response	0	j		96.0	/Users/shufanzhang/Documents/PhD/Arrow_of_time/arrow_of_time/pictures/n02105505_4764.JPEG	84.25934504301404	
99	65.6577885000006	picture	0		38	97.0	/Users/shufanzhang/Documents/PhD/Arrow_of_time/arrow_of_time/pictures/R_S_ILSVRC2015_train_00318000.png	84.27138458400441	0.3224433750001481
99	65.97015695901064	response	0	j		97.0	/Users/shufanzhang/Documents/PhD/Arrow_of_time/arrow_of_time/pictures/R_S_ILSVRC2015_train_00318000.png	84.58375304301444	
100	65.98023187500075	picture	0		31	98.0	/Users/shufanzhang/Documents/PhD/Arrow_of_time/arrow_of_time/pictures/S_yt-FhnT_42bV7M_11.png	84.59382795900456	0.3168544590007514
100	66.28597366700706	response	0	j		98.0	/Users/shufanzhang/Documents/PhD/Arrow_of_time/arrow_of_time/pictures/S_yt-FhnT_42bV7M_11.png	84.89956975101086	
101	66.2970863340015	picture	0		34	99.0	/Users/shufanzhang/Documents/PhD/Arrow_of_time/arrow_of_time/pictures/n03095699_24998.JPEG	84.91068241800531	0.29074562501045875
101	66.5783529170003	response	0	j		99.0	/Users/shufanzhang/Documents/PhD/Arrow_of_time/arrow_of_time/pictures/n03095699_24998.JPEG	85.1919490010041	
102	66.58783195901196	picture	0		40	100.0	/Users/shufanzhang/Documents/PhD/Arrow_of_time/arrow_of_time/pictures/R_S_yt-XHYYkaHcEtM_72.png	85.20142804301577	0.34215487499022856
102	66.91952462500194	response	0	j		100.0	/Users/shufanzhang/Documents/PhD/Arrow_of_time/arrow_of_time/pictures/R_S_yt-XHYYkaHcEtM_72.png	85.53312070900574	
103	66.9299868340022	picture	0		37	101.0	/Users/shufanzhang/Documents/PhD/Arrow_of_time/arrow_of_time/pictures/R_S_dnLAfffA-kU_53.png	85.543582918006	0.3137189999979455
103	67.23027833401284	response	0	j		101.0	/Users/shufanzhang/Documents/PhD/Arrow_of_time/arrow_of_time/pictures/R_S_dnLAfffA-kU_53.png	85.84387441801664	
104	67.24370583400014	picture	0		39	102.0	/Users/shufanzhang/Documents/PhD/Arrow_of_time/arrow_of_time/pictures/S_m-aeoYPMqfg_185.png	85.85730191800394	0.3352827910130145
104	67.56952708400786	response	0	j		102.0	/Users/shufanzhang/Documents/PhD/Arrow_of_time/arrow_of_time/pictures/S_m-aeoYPMqfg_185.png	86.18312316801166	
105	67.57898862501315	picture	0		34	103.0	/Users/shufanzhang/Documents/PhD/Arrow_of_time/arrow_of_time/pictures/S_yt-cWBQB8CxsVY_69.png	86.19258470901696	0.29181708399846684
105	67.86063233400637	response	0	j		103.0	/Users/shufanzhang/Documents/PhD/Arrow_of_time/arrow_of_time/pictures/S_yt-cWBQB8CxsVY_69.png	86.47422841801017	
106	67.87080570901162	picture	0		38	104.0	/Users/shufanzhang/Documents/PhD/Arrow_of_time/arrow_of_time/pictures/S_pexels-cottonbro-10639398.png	86.48440179301542	0.32527745798870455
106	68.18569287500577	response	0	j		104.0	/Users/shufanzhang/Documents/PhD/Arrow_of_time/arrow_of_time/pictures/S_pexels-cottonbro-10639398.png	86.79928895900957	
107	68.19608316700032	picture	0		40	105.0	/Users/shufanzhang/Documents/PhD/Arrow_of_time/arrow_of_time/pictures/S_yt-jcuaf9iSEkI_169.png	86.80967925100413	0.3384392080042744
107	68.52391116700892	response	0	j		105.0	/Users/shufanzhang/Documents/PhD/Arrow_of_time/arrow_of_time/pictures/S_yt-jcuaf9iSEkI_169.png	87.13750725101272	
108	68.5345223750046	picture	0		38	106.0	/Users/shufanzhang/Documents/PhD/Arrow_of_time/arrow_of_time/pictures/S_yt-QJ2k6vA8aco_12.png	87.1481184590084	0.3202507090027211
108	68.84417691700219	response	0	j		106.0	/Users/shufanzhang/Documents/PhD/Arrow_of_time/arrow_of_time/pictures/S_yt-QJ2k6vA8aco_12.png	87.45777300100599	
109	68.85477308400732	picture	0		41	107.0	/Users/shufanzhang/Documents/PhD/Arrow_of_time/arrow_of_time/pictures/n01744401_7142.JPEG	87.46836916801112	0.3455042499990668
109	69.18809341700398	response	0	j		107.0	/Users/shufanzhang/Documents/PhD/Arrow_of_time/arrow_of_time/pictures/n01744401_7142.JPEG	87.80168950100779	
110	69.20027733400639	picture	0		39	108.0	/Users/shufanzhang/Documents/PhD/Arrow_of_time/arrow_of_time/pictures/n03208938_19657.JPEG	87.81387341801019	0.36616433299786877
110	69.55638645900763	response	0	j		108.0	/Users/shufanzhang/Documents/PhD/Arrow_of_time/arrow_of_time/pictures/n03208938_19657.JPEG	88.16998254301143	
111	69.56644166700426	picture	0		40	109.0	/Users/shufanzhang/Documents/PhD/Arrow_of_time/arrow_of_time/pictures/n01685808_2019.JPEG	88.18003775100806	0.3330331670003943
111	69.88623970901244	response	0	j		109.0	/Users/shufanzhang/Documents/PhD/Arrow_of_time/arrow_of_time/pictures/n01685808_2019.JPEG	88.49983579301625	
112	69.89947483400465	picture	0		40	110.0	/Users/shufanzhang/Documents/PhD/Arrow_of_time/arrow_of_time/pictures/n02109525_6130.JPEG	88.51307091800845	0.3391516249976121
112	70.22756133400253	response	0	j		110.0	/Users/shufanzhang/Documents/PhD/Arrow_of_time/arrow_of_time/pictures/n02109525_6130.JPEG	88.84115741800633	
113	70.23862645900226	picture	0		40	111.0	/Users/shufanzhang/Documents/PhD/Arrow_of_time/arrow_of_time/pictures/S_yt-feTWuKPZA_k_34.png	88.85222254300606	0.33802950000972487
113	70.56407649999892	response	0	j		111.0	/Users/shufanzhang/Documents/PhD/Arrow_of_time/arrow_of_time/pictures/S_yt-feTWuKPZA_k_34.png	89.17767258400272	
114	70.57665595901199	picture	0		43	112.0	/Users/shufanzhang/Documents/PhD/Arrow_of_time/arrow_of_time/pictures/S_ILSVRC2015_train_00384000.png	89.19025204301579	0.361250582995126
114	70.92786983400583	response	0	j		112.0	/Users/shufanzhang/Documents/PhD/Arrow_of_time/arrow_of_time/pictures/S_ILSVRC2015_train_00384000.png	89.54146591800964	
115	70.93790654200711	picture	0		42	113.0	/Users/shufanzhang/Documents/PhD/Arrow_of_time/arrow_of_time/pictures/S_yt_R-JarqKC4X8nM_4.png	89.55150262601092	0.3583967080048751
115	71.28584537500865	response	0	j		113.0	/Users/shufanzhang/Documents/PhD/Arrow_of_time/arrow_of_time/pictures/S_yt_R-JarqKC4X8nM_4.png	89.89944145901245	
116	71.29630325001199	picture	0		48	114.0	/Users/shufanzhang/Documents/PhD/Arrow_of_time/arrow_of_time/pictures/n04389033_58437.JPEG	89.90989933401579	0.39957612499711104
116	71.68310508401191	response	0	j		114.0	/Users/shufanzhang/Documents/PhD/Arrow_of_time/arrow_of_time/pictures/n04389033_58437.JPEG	90.29670116801572	
117	71.6958793750091	picture	0		45	115.0	/Users/shufanzhang/Documents/PhD/Arrow_of_time/arrow_of_time/pictures/n03977966_31931.JPEG	90.3094754590129	0.38408845900266897
117	72.06913095900381	response	0	j		115.0	/Users/shufanzhang/Documents/PhD/Arrow_of_time/arrow_of_time/pictures/n03977966_31931.JPEG	90.68272704300762	
118	72.07996783401177	picture	0		41	116.0	/Users/shufanzhang/Documents/PhD/Arrow_of_time/arrow_of_time/pictures/S_gX_VbZnZO0k_13.png	90.69356391801557	0.35076454099908005
118	72.42066366701329	response	0	j		116.0	/Users/shufanzhang/Documents/PhD/Arrow_of_time/arrow_of_time/pictures/S_gX_VbZnZO0k_13.png	91.03425975101709	
119	72.43073237501085	picture	0		55	117.0	/Users/shufanzhang/Documents/PhD/Arrow_of_time/arrow_of_time/pictures/R_S_yt-7e6Z9QQieAk_183.png	91.04432845901465	0.46867854199081194
119	72.8873518340115	response	0	j		117.0	/Users/shufanzhang/Documents/PhD/Arrow_of_time/arrow_of_time/pictures/R_S_yt-7e6Z9QQieAk_183.png	91.5009479180153	
120	72.89941091700166	picture	0		147	118.0	/Users/shufanzhang/Documents/PhD/Arrow_of_time/arrow_of_time/pictures/n01530575_7135.JPEG	91.51300700100546	1.228825833008159
120	74.11860887501098	response	0	j		118.0	/Users/shufanzhang/Documents/PhD/Arrow_of_time/arrow_of_time/pictures/n01530575_7135.JPEG	92.73220495901478	
121	74.12823675000982	picture	0		120	119.0	/Users/shufanzhang/Documents/PhD/Arrow_of_time/arrow_of_time/pictures/n03759954_11657.JPEG	92.74183283401362	1.0026925419952022
121	75.11727149999933	response	0	j		119.0	/Users/shufanzhang/Documents/PhD/Arrow_of_time/arrow_of_time/pictures/n03759954_11657.JPEG	93.73086758400314	
122	75.13092929200502	picture	0		72	120.0	/Users/shufanzhang/Documents/PhD/Arrow_of_time/arrow_of_time/pictures/n02256656_1174.JPEG	93.74452537600882	0.5980954580008984
122	75.71880629200314	response	0	j		120.0	/Users/shufanzhang/Documents/PhD/Arrow_of_time/arrow_of_time/pictures/n02256656_1174.JPEG	94.33240237600694	
123	75.72902475000592	picture	0		59	121.0	/Users/shufanzhang/Documents/PhD/Arrow_of_time/arrow_of_time/pictures/n03673027_33261.JPEG	94.34262083400972	0.49669720900419634
123	76.2148727090098	response	0	j		121.0	/Users/shufanzhang/Documents/PhD/Arrow_of_time/arrow_of_time/pictures/n03673027_33261.JPEG	94.8284687930136	
124	76.22572195901012	picture	0		46	122.0	/Users/shufanzhang/Documents/PhD/Arrow_of_time/arrow_of_time/pictures/n02910353_15057.JPEG	94.83931804301392	0.40457458299351856
124	76.62032912501309	response	0	j		122.0	/Users/shufanzhang/Documents/PhD/Arrow_of_time/arrow_of_time/pictures/n02910353_15057.JPEG	95.23392520901689	
125	76.63029654200363	picture	0		38	123.0	/Users/shufanzhang/Documents/PhD/Arrow_of_time/arrow_of_time/pictures/R_S_yt-fQGoTMausn8_88.png	95.24389262600744	0.4615368750091875
125	77.07612112500647	response	0	j		123.0	/Users/shufanzhang/Documents/PhD/Arrow_of_time/arrow_of_time/pictures/R_S_yt-fQGoTMausn8_88.png	95.68971720901027	
126	77.09183341701282	picture	0		57	124.0	/Users/shufanzhang/Documents/PhD/Arrow_of_time/arrow_of_time/pictures/S_yt-AuQ_WxaNy4Y_255.png	95.70542950101662	0.4857865419908194
126	77.56681020901306	response	0	j		124.0	/Users/shufanzhang/Documents/PhD/Arrow_of_time/arrow_of_time/pictures/S_yt-AuQ_WxaNy4Y_255.png	96.18040629301686	
127	77.57761995900364	picture	0		58	125.0	/Users/shufanzhang/Documents/PhD/Arrow_of_time/arrow_of_time/pictures/S_ILSVRC2015_train_00415003.png	96.19121604300744	0.48374758299905807
127	78.05008887501026	response	0	j		125.0	/Users/shufanzhang/Documents/PhD/Arrow_of_time/arrow_of_time/pictures/S_ILSVRC2015_train_00415003.png	96.66368495901406	
128	78.0613675420027	picture	0		53	126.0	/Users/shufanzhang/Documents/PhD/Arrow_of_time/arrow_of_time/pictures/n02123045_8581.JPEG	96.6749636260065	0.44737083300424274
128	78.49828995901044	response	0	j		126.0	/Users/shufanzhang/Documents/PhD/Arrow_of_time/arrow_of_time/pictures/n02123045_8581.JPEG	97.11188604301424	
129	78.50873837500694	picture	0		53	127.0	/Users/shufanzhang/Documents/PhD/Arrow_of_time/arrow_of_time/pictures/S_yt-LdHRVIb4nIE_6.png	97.12233445901074	0.44990083400625736
129	78.9491958340077	response	0	j		127.0	/Users/shufanzhang/Documents/PhD/Arrow_of_time/arrow_of_time/pictures/S_yt-LdHRVIb4nIE_6.png	97.5627919180115	
130	78.9586392090132	picture	0		37	128.0	/Users/shufanzhang/Documents/PhD/Arrow_of_time/arrow_of_time/pictures/S_ILSVRC2015_train_00318000.png	97.572235293017	0.41278199999942444
130	79.36167487500643	response	0	j		128.0	/Users/shufanzhang/Documents/PhD/Arrow_of_time/arrow_of_time/pictures/S_ILSVRC2015_train_00318000.png	97.97527095901023	
131	79.37142120901262	picture	0		48	129.0	/Users/shufanzhang/Documents/PhD/Arrow_of_time/arrow_of_time/pictures/n03461385_17082.JPEG	97.98501729301643	0.4081149999983609
131	79.76917287500692	response	0	j		129.0	/Users/shufanzhang/Documents/PhD/Arrow_of_time/arrow_of_time/pictures/n03461385_17082.JPEG	98.38276895901072	
132	79.77953620901098	picture	0		50	130.0	/Users/shufanzhang/Documents/PhD/Arrow_of_time/arrow_of_time/pictures/R_S_yt-nQu-PAXBv2g_5.png	98.39313229301479	0.4270906250021653
132	80.19575758400606	response	0	j		130.0	/Users/shufanzhang/Documents/PhD/Arrow_of_time/arrow_of_time/pictures/R_S_yt-nQu-PAXBv2g_5.png	98.80935366800986	
133	80.20662683401315	picture	0		42	131.0	/Users/shufanzhang/Documents/PhD/Arrow_of_time/arrow_of_time/pictures/S_DL_B002_C011_SDR_20191122_SDR_2K_AVC.png	98.82022291801695	0.36778233299264684
133	80.56498925000778	response	0	j		131.0	/Users/shufanzhang/Documents/PhD/Arrow_of_time/arrow_of_time/pictures/S_DL_B002_C011_SDR_20191122_SDR_2K_AVC.png	99.17858533401159	
134	80.5744091670058	picture	0		44	132.0	/Users/shufanzhang/Documents/PhD/Arrow_of_time/arrow_of_time/pictures/S_yt-MUfa26F8dfE_97.png	99.1880052510096	0.3759724169940455
134	80.94051783400937	response	0	j		132.0	/Users/shufanzhang/Documents/PhD/Arrow_of_time/arrow_of_time/pictures/S_yt-MUfa26F8dfE_97.png	99.55411391801317	
135	80.95038158399984	picture	0		49	133.0	/Users/shufanzhang/Documents/PhD/Arrow_of_time/arrow_of_time/pictures/n02096437_10584.JPEG	99.56397766800364	0.41187145801086444
135	81.3498093340022	response	0	j		133.0	/Users/shufanzhang/Documents/PhD/Arrow_of_time/arrow_of_time/pictures/n02096437_10584.JPEG	99.963405418006	
136	81.3622530420107	picture	0		82	134.0	/Users/shufanzhang/Documents/PhD/Arrow_of_time/arrow_of_time/pictures/S_comp_LA_A005_C009_PSNK_ALT_v09_SDR_PS_201809134_SDR_2K_AVC.png	99.97584912601451	0.6877146670012735
136	82.04016420900007	response	0	j		134.0	/Users/shufanzhang/Documents/PhD/Arrow_of_time/arrow_of_time/pictures/S_comp_LA_A005_C009_PSNK_ALT_v09_SDR_PS_201809134_SDR_2K_AVC.png	100.65376029300387	
137	82.04996770901198	picture	0		75	135.0	/Users/shufanzhang/Documents/PhD/Arrow_of_time/arrow_of_time/pictures/S_production_ID_4468823.png	100.66356379301578	0.627425457991194
137	82.66859962500166	response	0	j		135.0	/Users/shufanzhang/Documents/PhD/Arrow_of_time/arrow_of_time/pictures/S_production_ID_4468823.png	101.28219570900546	
138	82.67739316700317	picture	0		62	136.0	/Users/shufanzhang/Documents/PhD/Arrow_of_time/arrow_of_time/pictures/n04428191_10621.JPEG	101.29098925100698	0.5233887920039706
138	83.19023008400109	response	0	j		136.0	/Users/shufanzhang/Documents/PhD/Arrow_of_time/arrow_of_time/pictures/n04428191_10621.JPEG	101.80382616800489	
139	83.20078195900714	picture	0		56	137.0	/Users/shufanzhang/Documents/PhD/Arrow_of_time/arrow_of_time/pictures/n04467665_23695.JPEG	101.81437804301095	0.47600574999523815
139	83.66670962500211	response	0	j		137.0	/Users/shufanzhang/Documents/PhD/Arrow_of_time/arrow_of_time/pictures/n04467665_23695.JPEG	102.28030570900592	
140	83.67678770900238	picture	0		56	138.0	/Users/shufanzhang/Documents/PhD/Arrow_of_time/arrow_of_time/pictures/R_S_yt-he_RSdeVinA_68.png	102.29038379300619	0.5105045000091195
140	84.17755962500814	response	0	j		138.0	/Users/shufanzhang/Documents/PhD/Arrow_of_time/arrow_of_time/pictures/R_S_yt-he_RSdeVinA_68.png	102.79115570901195	
141	84.1872922090115	picture	0		63	139.0	/Users/shufanzhang/Documents/PhD/Arrow_of_time/arrow_of_time/pictures/S_yt--K_uevUt2V8_4.png	102.8008882930153	0.520215874988935
141	84.69474683400767	response	0	j		139.0	/Users/shufanzhang/Documents/PhD/Arrow_of_time/arrow_of_time/pictures/S_yt--K_uevUt2V8_4.png	103.30834291801148	
142	84.70750808400044	picture	0		75	140.0	/Users/shufanzhang/Documents/PhD/Arrow_of_time/arrow_of_time/pictures/R_S_yt-g_CLzrCYHoc_7.png	103.32110416800424	0.6302709160081577
142	85.32574329200725	response	0	j		140.0	/Users/shufanzhang/Documents/PhD/Arrow_of_time/arrow_of_time/pictures/R_S_yt-g_CLzrCYHoc_7.png	103.93933937601105	
143	85.3377790000086	picture	0		69	141.0	/Users/shufanzhang/Documents/PhD/Arrow_of_time/arrow_of_time/pictures/R_S_dwi2oPzQ1Wo_48.png	103.9513750840124	0.5795187089970568
143	85.90671616701002	response	0	j		141.0	/Users/shufanzhang/Documents/PhD/Arrow_of_time/arrow_of_time/pictures/R_S_dwi2oPzQ1Wo_48.png	104.52031225101382	
144	85.91729770900565	picture	0		125	142.0	/Users/shufanzhang/Documents/PhD/Arrow_of_time/arrow_of_time/pictures/n01514668_202.JPEG	104.53089379300945	1.0450676250038669
144	86.9523724590108	response	0	j		142.0	/Users/shufanzhang/Documents/PhD/Arrow_of_time/arrow_of_time/pictures/n01514668_202.JPEG	105.5659685430146	
145	86.96236533400952	picture	0		74	143.0	/Users/shufanzhang/Documents/PhD/Arrow_of_time/arrow_of_time/pictures/S_yt-LB9LoYfH_EA_15.png	105.57596141801332	0.6174599579971982
145	87.56945112500398	response	0	j		143.0	/Users/shufanzhang/Documents/PhD/Arrow_of_time/arrow_of_time/pictures/S_yt-LB9LoYfH_EA_15.png	106.18304720900778	
146	87.57982529200672	picture	0		3790	144.0	/Users/shufanzhang/Documents/PhD/Arrow_of_time/arrow_of_time/pictures/S_yt-g_CLzrCYHoc_7.png	106.19342137601052	31.616885166993598
146	119.18634108400147	response	0	j		144.0	/Users/shufanzhang/Documents/PhD/Arrow_of_time/arrow_of_time/pictures/S_yt-g_CLzrCYHoc_7.png	137.79993716800527	
147	119.19671045900031	picture	0		153	145.0	/Users/shufanzhang/Documents/PhD/Arrow_of_time/arrow_of_time/pictures/S_yt-wLylWnZs3z0_27.png	137.81030654300412	1.2781806249986403
147	120.46299600000202	response	0	j		145.0	/Users/shufanzhang/Documents/PhD/Arrow_of_time/arrow_of_time/pictures/S_yt-wLylWnZs3z0_27.png	139.07659208400582	
148	120.47489108399895	picture	0		107	146.0	/Users/shufanzhang/Documents/PhD/Arrow_of_time/arrow_of_time/pictures/R_S_yt-Fm97IY0Z2LU_79.png	139.08848716800276	0.9334934580110712
148	121.3977927500091	response	0	j		146.0	/Users/shufanzhang/Documents/PhD/Arrow_of_time/arrow_of_time/pictures/R_S_yt-Fm97IY0Z2LU_79.png	140.0113888340129	
149	121.40838454201003	picture	0		64	147.0	/Users/shufanzhang/Documents/PhD/Arrow_of_time/arrow_of_time/pictures/S_comp_GMT329_117NC_401C_1037_IRELAND_TO_ASIA_v48_SDR_PS_FINAL_20180725_F0F6300_SDR_2K_AVC.png	140.02198062601383	0.5500134579924634
149	121.94915500000934	response	0	j		147.0	/Users/shufanzhang/Documents/PhD/Arrow_of_time/arrow_of_time/pictures/S_comp_GMT329_117NC_401C_1037_IRELAND_TO_ASIA_v48_SDR_PS_FINAL_20180725_F0F6300_SDR_2K_AVC.png	140.56275108401314	
150	121.95839800000249	picture	0		54	148.0	/Users/shufanzhang/Documents/PhD/Arrow_of_time/arrow_of_time/pictures/R_S_yt-I2n2eo2zoZs_94.png	140.5719940840063	0.45514649999677204
150	122.40232887500315	response	0	j		148.0	/Users/shufanzhang/Documents/PhD/Arrow_of_time/arrow_of_time/pictures/R_S_yt-I2n2eo2zoZs_94.png	141.01592495900695	
151	122.41354449999926	picture	0		50	149.0	/Users/shufanzhang/Documents/PhD/Arrow_of_time/arrow_of_time/pictures/S_pexels-roman-odintsov-8232443.png	141.02714058400306	0.42202512500807643
151	122.82476779200078	response	0	j		149.0	/Users/shufanzhang/Documents/PhD/Arrow_of_time/arrow_of_time/pictures/S_pexels-roman-odintsov-8232443.png	141.4383638760046	
152	122.83556962500734	picture	0		45	150.0	/Users/shufanzhang/Documents/PhD/Arrow_of_time/arrow_of_time/pictures/S_PA_A002_C009_SDR_20190730_ALT01_SDR_2K_AVC.png	141.44916570901114	0.48549950000597164
152	123.31075191700074	response	0	j		150.0	/Users/shufanzhang/Documents/PhD/Arrow_of_time/arrow_of_time/pictures/S_PA_A002_C009_SDR_20190730_ALT01_SDR_2K_AVC.png	141.92434800100455	
153	123.32106912501331	picture	0		55	151.0	/Users/shufanzhang/Documents/PhD/Arrow_of_time/arrow_of_time/pictures/n02128925_73157.JPEG	141.9346652090171	0.4613539169949945
153	123.77267829200719	response	0	j		151.0	/Users/shufanzhang/Documents/PhD/Arrow_of_time/arrow_of_time/pictures/n02128925_73157.JPEG	142.386274376011	
154	123.7824230420083	picture	0		35	152.0	/Users/shufanzhang/Documents/PhD/Arrow_of_time/arrow_of_time/pictures/S_yt-P99dLq0DrK0_277.png	142.3960191260121	0.2976373749988852
154	124.07009741700313	response	0	j		152.0	/Users/shufanzhang/Documents/PhD/Arrow_of_time/arrow_of_time/pictures/S_yt-P99dLq0DrK0_277.png	142.68369350100693	
155	124.08006041700719	picture	0		20	153.0	/Users/shufanzhang/Documents/PhD/Arrow_of_time/arrow_of_time/pictures/n12985857_2405.JPEG	142.693656501011	0.2411109579988988
155	124.3109355839988	response	0	j		153.0	/Users/shufanzhang/Documents/PhD/Arrow_of_time/arrow_of_time/pictures/n12985857_2405.JPEG	142.9245316680026	
156	124.32117137500609	picture	0		16	154.0	/Users/shufanzhang/Documents/PhD/Arrow_of_time/arrow_of_time/pictures/n01644900_8905.JPEG	142.9347674590099	0.19951079199381638
156	124.51024775000405	response	0	j		154.0	/Users/shufanzhang/Documents/PhD/Arrow_of_time/arrow_of_time/pictures/n01644900_8905.JPEG	143.12384383400786	
157	124.5206821669999	picture	0		16	155.0	/Users/shufanzhang/Documents/PhD/Arrow_of_time/arrow_of_time/pictures/S_yt-yhHs1BmQp2Y_54.png	143.1342782510037	0.21772225000313483
157	124.72798195900396	response	0	j		155.0	/Users/shufanzhang/Documents/PhD/Arrow_of_time/arrow_of_time/pictures/S_yt-yhHs1BmQp2Y_54.png	143.34157804300776	
158	124.73840441700304	picture	0		23	156.0	/Users/shufanzhang/Documents/PhD/Arrow_of_time/arrow_of_time/pictures/R_S_pexels-cottonbro-10640532.png	143.35200050100684	0.19913162500597537
158	124.92720979200385	response	0	j		156.0	/Users/shufanzhang/Documents/PhD/Arrow_of_time/arrow_of_time/pictures/R_S_pexels-cottonbro-10640532.png	143.54080587600765	
159	124.93753604200901	picture	0		24	157.0	/Users/shufanzhang/Documents/PhD/Arrow_of_time/arrow_of_time/pictures/R_S_yt-kQpE9L-fsNE_55.png	143.55113212601282	0.20281345800322015
159	125.12877424999897	response	0	j		157.0	/Users/shufanzhang/Documents/PhD/Arrow_of_time/arrow_of_time/pictures/R_S_yt-kQpE9L-fsNE_55.png	143.74237033400277	
160	125.14034950001223	picture	0		22	158.0	/Users/shufanzhang/Documents/PhD/Arrow_of_time/arrow_of_time/pictures/R_S_yt-JmmyeMOFpII_29.png	143.75394558401604	0.18413974999566562
160	125.31778925000981	response	0	j		158.0	/Users/shufanzhang/Documents/PhD/Arrow_of_time/arrow_of_time/pictures/R_S_yt-JmmyeMOFpII_29.png	143.9313853340136	
161	125.3244892500079	picture	0		22	159.0	/Users/shufanzhang/Documents/PhD/Arrow_of_time/arrow_of_time/pictures/n03126707_1819.JPEG	143.9380853340117	0.18562429200392216
161	125.49601437500678	response	0	j		159.0	/Users/shufanzhang/Documents/PhD/Arrow_of_time/arrow_of_time/pictures/n03126707_1819.JPEG	144.10961045901058	
162	125.51011354201182	picture	0		22	160.0	/Users/shufanzhang/Documents/PhD/Arrow_of_time/arrow_of_time/pictures/n03930630_23262.JPEG	144.12370962601562	0.17754020799475256
162	125.67707145900931	response	0	j		160.0	/Users/shufanzhang/Documents/PhD/Arrow_of_time/arrow_of_time/pictures/n03930630_23262.JPEG	144.29066754301311	
163	125.68765375000658	picture	0		22	161.0	/Users/shufanzhang/Documents/PhD/Arrow_of_time/arrow_of_time/pictures/n04389033_34247.JPEG	144.30124983401038	0.18760975000623148
163	125.86275033401034	response	0	j		161.0	/Users/shufanzhang/Documents/PhD/Arrow_of_time/arrow_of_time/pictures/n04389033_34247.JPEG	144.47634641801415	
164	125.8752635000128	picture	0		16	162.0	/Users/shufanzhang/Documents/PhD/Arrow_of_time/arrow_of_time/pictures/R_S_yt-Jo6PxivsTOg_247.png	144.4888595840166	0.18464858399238437
164	126.04928987500898	response	0	j		162.0	/Users/shufanzhang/Documents/PhD/Arrow_of_time/arrow_of_time/pictures/R_S_yt-Jo6PxivsTOg_247.png	144.66288595901278	
165	126.05991208400519	picture	0		21	163.0	/Users/shufanzhang/Documents/PhD/Arrow_of_time/arrow_of_time/pictures/R_S_yt-0Zze3Ff12Ys_58.png	144.673508168009	0.17236062500160187
165	126.21986429201206	response	0	j		163.0	/Users/shufanzhang/Documents/PhD/Arrow_of_time/arrow_of_time/pictures/R_S_yt-0Zze3Ff12Ys_58.png	144.83346037601586	
166	126.23227270900679	picture	0		19	164.0	/Users/shufanzhang/Documents/PhD/Arrow_of_time/arrow_of_time/pictures/n01843065_141.JPEG	144.8458687930106	0.1621655409981031
166	126.38507737500186	response	0	j		164.0	/Users/shufanzhang/Documents/PhD/Arrow_of_time/arrow_of_time/pictures/n01843065_141.JPEG	144.99867345900566	
167	126.3944382500049	picture	0		19	165.0	/Users/shufanzhang/Documents/PhD/Arrow_of_time/arrow_of_time/pictures/S_yt-RvdcgC9LFy8_16.png	145.0080343340087	0.16384545899927616
167	126.5483018750092	response	0	j		165.0	/Users/shufanzhang/Documents/PhD/Arrow_of_time/arrow_of_time/pictures/S_yt-RvdcgC9LFy8_16.png	145.161897959013	
168	126.55828370900417	picture	0		20	166.0	/Users/shufanzhang/Documents/PhD/Arrow_of_time/arrow_of_time/pictures/R_S_ga8dBJH_qK8_765.png	145.17187979300797	0.17565787500643637
168	126.72315679200983	response	0	j		166.0	/Users/shufanzhang/Documents/PhD/Arrow_of_time/arrow_of_time/pictures/R_S_ga8dBJH_qK8_765.png	145.33675287601363	
169	126.73394158401061	picture	0		21	167.0	/Users/shufanzhang/Documents/PhD/Arrow_of_time/arrow_of_time/pictures/n01914609_711.JPEG	145.3475376680144	0.1828551249927841
169	126.90658095901017	response	0	j		167.0	/Users/shufanzhang/Documents/PhD/Arrow_of_time/arrow_of_time/pictures/n01914609_711.JPEG	145.52017704301397	
170	126.91679670900339	picture	0		22	168.0	/Users/shufanzhang/Documents/PhD/Arrow_of_time/arrow_of_time/pictures/S_yt-Dwgpjoikt84_71.png	145.5303927930072	0.1915549160039518
170	127.09834350000892	response	0	j		168.0	/Users/shufanzhang/Documents/PhD/Arrow_of_time/arrow_of_time/pictures/S_yt-Dwgpjoikt84_71.png	145.71193958401273	
171	127.10835162500734	picture	0		23	169.0	/Users/shufanzhang/Documents/PhD/Arrow_of_time/arrow_of_time/pictures/R_S_pexels-mart-production-8435081.png	145.72194770901115	0.1998154169996269
171	127.29847550000704	response	0	j		169.0	/Users/shufanzhang/Documents/PhD/Arrow_of_time/arrow_of_time/pictures/R_S_pexels-mart-production-8435081.png	145.91207158401085	
172	127.30816704200697	picture	0		21	170.0	/Users/shufanzhang/Documents/PhD/Arrow_of_time/arrow_of_time/pictures/R_S_production_ID_4269182.png	145.92176312601077	0.18418212499818765
172	127.48141066700919	response	0	j		170.0	/Users/shufanzhang/Documents/PhD/Arrow_of_time/arrow_of_time/pictures/R_S_production_ID_4269182.png	146.095006751013	
173	127.49234916700516	picture	0		22	171.0	/Users/shufanzhang/Documents/PhD/Arrow_of_time/arrow_of_time/pictures/S_comp_GL_G010_C006_PSNK_NOSUN_v12_SDR_PS_FINAL_20180709_SDR_2K_AVC.png	146.10594525100896	0.19156737500452437
173	127.67425712500699	response	0	j		171.0	/Users/shufanzhang/Documents/PhD/Arrow_of_time/arrow_of_time/pictures/S_comp_GL_G010_C006_PSNK_NOSUN_v12_SDR_PS_FINAL_20180709_SDR_2K_AVC.png	146.2878532090108	
174	127.68391654200968	picture	0		23	172.0	/Users/shufanzhang/Documents/PhD/Arrow_of_time/arrow_of_time/pictures/R_S_yt-qycUhA3Isjg_76.png	146.29751262601349	0.21174625000276137
174	127.88347520900425	response	0	j		172.0	/Users/shufanzhang/Documents/PhD/Arrow_of_time/arrow_of_time/pictures/R_S_yt-qycUhA3Isjg_76.png	146.49707129300805	
175	127.89566279201244	picture	0		27	173.0	/Users/shufanzhang/Documents/PhD/Arrow_of_time/arrow_of_time/pictures/S_comp_A105_C003_0212CT_FLARE_v10_SDR_PS_FINAL_20180711_SDR_2K_AVC.png	146.50925887601625	0.2337164169875905
175	128.11883079200925	response	0	j		173.0	/Users/shufanzhang/Documents/PhD/Arrow_of_time/arrow_of_time/pictures/S_comp_A105_C003_0212CT_FLARE_v10_SDR_PS_FINAL_20180711_SDR_2K_AVC.png	146.73242687601305	
176	128.12937920900004	picture	0		30	174.0	/Users/shufanzhang/Documents/PhD/Arrow_of_time/arrow_of_time/pictures/S_yt-Ud9uqaeHtY4_302.png	146.74297529300384	0.25435866600309964
176	128.37115629200707	response	0	j		174.0	/Users/shufanzhang/Documents/PhD/Arrow_of_time/arrow_of_time/pictures/S_yt-Ud9uqaeHtY4_302.png	146.98475237601087	
177	128.38373787500313	picture	0		27	175.0	/Users/shufanzhang/Documents/PhD/Arrow_of_time/arrow_of_time/pictures/S_8amznWxLS04_212.png	146.99733395900694	0.2568931249988964
177	128.62897433400212	response	0	j		175.0	/Users/shufanzhang/Documents/PhD/Arrow_of_time/arrow_of_time/pictures/S_8amznWxLS04_212.png	147.24257041800593	
178	128.64063100000203	picture	0		33	176.0	/Users/shufanzhang/Documents/PhD/Arrow_of_time/arrow_of_time/pictures/S_yt-J1dw4AznwmQ_7.png	147.25422708400583	0.2818135420093313
178	128.9119892919989	response	0	j		176.0	/Users/shufanzhang/Documents/PhD/Arrow_of_time/arrow_of_time/pictures/S_yt-J1dw4AznwmQ_7.png	147.5255853760027	
179	128.92244454201136	picture	0		26	177.0	/Users/shufanzhang/Documents/PhD/Arrow_of_time/arrow_of_time/pictures/n03467068_27029.JPEG	147.53604062601516	0.28663099999539554
179	129.1989836670109	response	0	j		177.0	/Users/shufanzhang/Documents/PhD/Arrow_of_time/arrow_of_time/pictures/n03467068_27029.JPEG	147.8125797510147	
180	129.20907554200676	picture	0		37	178.0	/Users/shufanzhang/Documents/PhD/Arrow_of_time/arrow_of_time/pictures/R_S_yt-ujdFTAUE8rc_34.png	147.82267162601056	0.31280579199665226
180	129.5092582500074	response	0	j		178.0	/Users/shufanzhang/Documents/PhD/Arrow_of_time/arrow_of_time/pictures/R_S_yt-ujdFTAUE8rc_34.png	148.1228543340112	
181	129.5218813340034	picture	0		35	179.0	/Users/shufanzhang/Documents/PhD/Arrow_of_time/arrow_of_time/pictures/n02281406_387.JPEG	148.1354774180072	0.34087025000189897
181	129.85209733400552	response	0	j		179.0	/Users/shufanzhang/Documents/PhD/Arrow_of_time/arrow_of_time/pictures/n02281406_387.JPEG	148.46569341800932	
182	129.8627515840053	stim	0		306			148.4763476680091	2.8763886249944335
182	130.17077583400533	response	0	j				148.78437191800913	
182	130.56419925000228	response	0	j				149.17779533400608	
182	131.1016437500075	response	0	j				149.7152398340113	
