trial_nr	onset	event_type	phase	response	nr_frames	picture_index	picture_file	onset_abs	duration
0	0.0163881778717041	stim	0		137.0			27.40326714515686	1.1420888900756836
0	1.146874189376831	response	0	space				28.533753156661987	
2	1.1584770679473877	picture	0		230.0	0.0	/home/egter/Projects/stimuli/pictures/R_S_ILSVRC2015_train_00595000.png	28.545356035232544	1.9214820861816406
2	3.0634360313415527	response	0	j		0.0	/home/egter/Projects/stimuli/pictures/R_S_ILSVRC2015_train_00595000.png	30.45031499862671	
3	3.0799591541290283	picture	0		123.0	1.0	/home/egter/Projects/stimuli/pictures/n02092002_2626.JPEG	30.466838121414185	1.0299699306488037
3	4.09675407409668	response	0	k		1.0	/home/egter/Projects/stimuli/pictures/n02092002_2626.JPEG	31.483633041381836	
4	4.109929084777832	picture	0		95.0	2.0	/home/egter/Projects/stimuli/pictures/n13052670_10406.JPEG	31.49680805206299	0.7985250949859619
4	4.896730184555054	response	0	k		2.0	/home/egter/Projects/stimuli/pictures/n13052670_10406.JPEG	32.28360915184021	
5	4.908454179763794	picture	0		82.0	3.0	/home/egter/Projects/stimuli/pictures/R_S_yt-Rqwi-Fk9IJQ_114.png	32.29533314704895	0.6805679798126221
5	5.573240041732788	response	0	j		3.0	/home/egter/Projects/stimuli/pictures/R_S_yt-Rqwi-Fk9IJQ_114.png	32.960119009017944	
6	5.589022159576416	picture	0		79.0	4.0	/home/egter/Projects/stimuli/pictures/R_S_yt-j3Sk8ZnAiEA_32.png	32.97590112686157	0.6597089767456055
6	6.238425970077515	response	0	j		4.0	/home/egter/Projects/stimuli/pictures/R_S_yt-j3Sk8ZnAiEA_32.png	33.62530493736267	
7	6.2487311363220215	picture	0		76.0	5.0	/home/egter/Projects/stimuli/pictures/n03838899_56138.JPEG	33.63561010360718	0.6319608688354492
7	6.871690034866333	response	0	k		5.0	/home/egter/Projects/stimuli/pictures/n03838899_56138.JPEG	34.25856900215149	
8	6.880692005157471	picture	0		91.0	6.0	/home/egter/Projects/stimuli/pictures/S_yt-KpOAdMtPGFs_17.png	34.26757097244263	0.7638430595397949
8	7.63082218170166	response	0	j		6.0	/home/egter/Projects/stimuli/pictures/S_yt-KpOAdMtPGFs_17.png	35.017701148986816	
9	7.644535064697266	picture	0		88.0	7.0	/home/egter/Projects/stimuli/pictures/S_video-11.png	35.03141403198242	0.7361071109771729
9	8.364915132522583	response	0	j		7.0	/home/egter/Projects/stimuli/pictures/S_video-11.png	35.75179409980774	
10	8.380642175674438	picture	0		76.0	8.0	/home/egter/Projects/stimuli/pictures/S_yt-Ul81y6R9YbE_12.png	35.767521142959595	0.6327149868011475
10	9.00505518913269	response	0	j		8.0	/home/egter/Projects/stimuli/pictures/S_yt-Ul81y6R9YbE_12.png	36.39193415641785	
11	9.013357162475586	picture	0		91.0	9.0	/home/egter/Projects/stimuli/pictures/S_yt-caS_SY5WmeE_5.png	36.40023612976074	0.7630898952484131
11	9.757270097732544	response	0	k		9.0	/home/egter/Projects/stimuli/pictures/S_yt-caS_SY5WmeE_5.png	37.1441490650177	
12	9.776447057723999	picture	0		77.0	10.0	/home/egter/Projects/stimuli/pictures/R_S_yt-SyePE8wOlxs_321.png	37.163326025009155	0.6459000110626221
12	10.405186176300049	response	0	j		10.0	/home/egter/Projects/stimuli/pictures/R_S_yt-SyePE8wOlxs_321.png	37.792065143585205	
13	10.422347068786621	picture	0		77.0	11.0	/home/egter/Projects/stimuli/pictures/n02486261_20527.JPEG	37.80922603607178	0.6457669734954834
13	11.05507206916809	response	0	k		11.0	/home/egter/Projects/stimuli/pictures/n02486261_20527.JPEG	38.44195103645325	
14	11.068114042282104	picture	0		87.0	12.0	/home/egter/Projects/stimuli/pictures/n04141327_9161.JPEG	38.45499300956726	0.7222621440887451
14	11.773229122161865	response	0	k		12.0	/home/egter/Projects/stimuli/pictures/n04141327_9161.JPEG	39.16010808944702	
15	11.79037618637085	picture	0		91.0	13.0	/home/egter/Projects/stimuli/pictures/S_comp_GMT110_112NC_364D_1054_AURORA_ANTARTICA__COMP_FINAL_v34_PS_SDR_20181107_SDR_2K_AVC.png	39.177255153656006	0.7569007873535156
15	12.538414001464844	response	0	j		13.0	/home/egter/Projects/stimuli/pictures/S_comp_GMT110_112NC_364D_1054_AURORA_ANTARTICA__COMP_FINAL_v34_PS_SDR_20181107_SDR_2K_AVC.png	39.92529296875	
16	12.547276973724365	picture	0		97.0	14.0	/home/egter/Projects/stimuli/pictures/n03998194_2143.JPEG	39.93415594100952	0.8124752044677734
16	13.340689182281494	response	0	k		14.0	/home/egter/Projects/stimuli/pictures/n03998194_2143.JPEG	40.72756814956665	
17	13.359752178192139	picture	0		88.0	15.0	/home/egter/Projects/stimuli/pictures/R_S_yt-PyO8-WsbaLU_43.png	40.746631145477295	0.7291769981384277
17	14.080104112625122	response	0	j		15.0	/home/egter/Projects/stimuli/pictures/R_S_yt-PyO8-WsbaLU_43.png	41.46698307991028	
18	14.088929176330566	picture	0		83.0	16.0	/home/egter/Projects/stimuli/pictures/S_yt-xKteiAi5h7Q_36.png	41.47580814361572	0.694403886795044
18	14.764955997467041	response	0	j		16.0	/home/egter/Projects/stimuli/pictures/S_yt-xKteiAi5h7Q_36.png	42.1518349647522	
19	14.78333306312561	picture	0		77.0	17.0	/home/egter/Projects/stimuli/pictures/n02346627_989.JPEG	42.17021203041077	0.6389620304107666
19	15.413341999053955	response	0	k		17.0	/home/egter/Projects/stimuli/pictures/n02346627_989.JPEG	42.80022096633911	
20	15.422295093536377	picture	0		87.0	18.0	/home/egter/Projects/stimuli/pictures/R_S_ILSVRC2015_train_00074011.png	42.80917406082153	0.7290959358215332
20	16.138328075408936	response	0	j		18.0	/home/egter/Projects/stimuli/pictures/R_S_ILSVRC2015_train_00074011.png	43.52520704269409	
21	16.15139102935791	picture	0		82.0	19.0	/home/egter/Projects/stimuli/pictures/S_yt-Ja7d2a6e5xE_279.png	43.538269996643066	0.680596113204956
21	16.821730136871338	response	0	j		19.0	/home/egter/Projects/stimuli/pictures/S_yt-Ja7d2a6e5xE_279.png	44.208609104156494	
22	16.831987142562866	picture	0		197.0	20.0	/home/egter/Projects/stimuli/pictures/n03535780_4549.JPEG	44.21886610984802	1.6457788944244385
22	18.4639949798584	response	0	k		20.0	/home/egter/Projects/stimuli/pictures/n03535780_4549.JPEG	45.850873947143555	
23	18.477766036987305	picture	0		105.0	21.0	/home/egter/Projects/stimuli/pictures/S_production_ID_5144823.png	45.86464500427246	0.8819379806518555
23	19.340548992156982	response	0	j		21.0	/home/egter/Projects/stimuli/pictures/S_production_ID_5144823.png	46.72742795944214	
24	19.35970401763916	picture	0		99.0	22.0	/home/egter/Projects/stimuli/pictures/S_ILSVRC2015_train_00594001.png	46.746582984924316	0.8264100551605225
24	20.1649751663208	response	0	j		22.0	/home/egter/Projects/stimuli/pictures/S_ILSVRC2015_train_00594001.png	47.55185413360596	
25	20.186114072799683	picture	0		89.0	23.0	/home/egter/Projects/stimuli/pictures/R_S_ILSVRC2015_train_00369000.png	47.57299304008484	0.7499959468841553
25	20.922367095947266	response	0	j		23.0	/home/egter/Projects/stimuli/pictures/R_S_ILSVRC2015_train_00369000.png	48.30924606323242	
26	20.936110019683838	picture	0		89.0	24.0	/home/egter/Projects/stimuli/pictures/S_yt-lazG9z4VQAw_99.png	48.322988986968994	0.749993085861206
26	21.672319173812866	response	0	j		24.0	/home/egter/Projects/stimuli/pictures/S_yt-lazG9z4VQAw_99.png	49.05919814109802	
27	21.686103105545044	picture	0		85.0	25.0	/home/egter/Projects/stimuli/pictures/n04476259_12267.JPEG	49.0729820728302	0.7152509689331055
27	22.38835310935974	response	0	k		25.0	/home/egter/Projects/stimuli/pictures/n04476259_12267.JPEG	49.7752320766449	
28	22.40135407447815	picture	0		92.0	26.0	/home/egter/Projects/stimuli/pictures/S_pexels-c-technical-5771610.png	49.788233041763306	0.763948917388916
28	23.155050039291382	response	0	j		26.0	/home/egter/Projects/stimuli/pictures/S_pexels-c-technical-5771610.png	50.54192900657654	
29	23.165302991867065	picture	0		87.0	27.0	/home/egter/Projects/stimuli/pictures/R_S_ILSVRC2015_train_00610000.png	50.55218195915222	0.7290620803833008
29	23.880625009536743	response	0	k		27.0	/home/egter/Projects/stimuli/pictures/R_S_ILSVRC2015_train_00610000.png	51.2675039768219	
30	23.894365072250366	picture	0		382.0	28.0	/home/egter/Projects/stimuli/pictures/ILSVRC2012_test_00033878.JPEG	51.28124403953552	3.1875150203704834
30	27.071725130081177	response	0	k		28.0	/home/egter/Projects/stimuli/pictures/ILSVRC2012_test_00033878.JPEG	54.45860409736633	
31	27.08188009262085	picture	0		199.0	29.0	/home/egter/Projects/stimuli/pictures/n07715103_185.JPEG	54.468759059906006	1.6597139835357666
31	28.729966163635254	response	0	k		29.0	/home/egter/Projects/stimuli/pictures/n07715103_185.JPEG	56.11684513092041	
32	28.741594076156616	picture	0		159.0	30.0	/home/egter/Projects/stimuli/pictures/n03874293_7077.JPEG	56.12847304344177	1.3263499736785889
32	30.05498218536377	response	0	k		30.0	/home/egter/Projects/stimuli/pictures/n03874293_7077.JPEG	57.441861152648926	
33	30.067944049835205	picture	0		137.0	31.0	/home/egter/Projects/stimuli/pictures/n02168699_8992.JPEG	57.45482301712036	1.1388940811157227
33	31.19662308692932	response	0	k		31.0	/home/egter/Projects/stimuli/pictures/n02168699_8992.JPEG	58.58350205421448	
34	31.206838130950928	picture	0		122.0	32.0	/home/egter/Projects/stimuli/pictures/R_S_comp_L007_C007_PS_v01_SDR_PS_20180925_SDR_2K_AVC.png	58.593717098236084	1.0208568572998047
34	32.21389102935791	response	0	j		32.0	/home/egter/Projects/stimuli/pictures/R_S_comp_L007_C007_PS_v01_SDR_PS_20180925_SDR_2K_AVC.png	59.600769996643066	
35	32.22769498825073	picture	0		103.0	33.0	/home/egter/Projects/stimuli/pictures/n04069434_2909.JPEG	59.61457395553589	0.861077070236206
35	33.079967975616455	response	0	k		33.0	/home/egter/Projects/stimuli/pictures/n04069434_2909.JPEG	60.46684694290161	
36	33.08877205848694	picture	0		172.0	34.0	/home/egter/Projects/stimuli/pictures/S_yt-SGIqAi-zDpM_19.png	60.475651025772095	1.4374470710754395
36	34.51324915885925	response	0	k		34.0	/home/egter/Projects/stimuli/pictures/S_yt-SGIqAi-zDpM_19.png	61.90012812614441	
37	34.52621912956238	picture	0		124.0	35.0	/home/egter/Projects/stimuli/pictures/n09332890_44309.JPEG	61.913098096847534	1.0347068309783936
37	35.54721212387085	response	0	k		35.0	/home/egter/Projects/stimuli/pictures/n09332890_44309.JPEG	62.934091091156006	
38	35.56092596054077	picture	0		124.0	36.0	/home/egter/Projects/stimuli/pictures/ILSVRC2012_test_00081119.JPEG	62.94780492782593	1.0439021587371826
38	36.58886504173279	response	0	k		36.0	/home/egter/Projects/stimuli/pictures/ILSVRC2012_test_00081119.JPEG	63.975744009017944	
39	36.604828119277954	picture	0		329.0	37.0	/home/egter/Projects/stimuli/pictures/R_S_yt-0Ut9QANGX20_35.png	63.99170708656311	2.747767925262451
39	39.338842153549194	response	0	j		37.0	/home/egter/Projects/stimuli/pictures/R_S_yt-0Ut9QANGX20_35.png	66.72572112083435	
40	39.352596044540405	picture	0		120.0	38.0	/home/egter/Projects/stimuli/pictures/S_video_inspire_california_vineyard_sierra-mar_sunrise_110.png	66.73947501182556	1.0068910121917725
40	40.346583127975464	response	0	j		38.0	/home/egter/Projects/stimuli/pictures/S_video_inspire_california_vineyard_sierra-mar_sunrise_110.png	67.73346209526062	
41	40.35948705673218	picture	0		131.0	39.0	/home/egter/Projects/stimuli/pictures/n13133613_30670.JPEG	67.74636602401733	1.0903210639953613
41	41.43826508522034	response	0	k		39.0	/home/egter/Projects/stimuli/pictures/n13133613_30670.JPEG	68.8251440525055	
42	41.44980812072754	picture	0		145.0	40.0	/home/egter/Projects/stimuli/pictures/n01688243_3101.JPEG	68.8366870880127	1.208319902420044
42	42.64656710624695	response	0	k		40.0	/home/egter/Projects/stimuli/pictures/n01688243_3101.JPEG	70.0334460735321	
43	42.65812802314758	picture	0		131.0	41.0	/home/egter/Projects/stimuli/pictures/R_S_pexels-c-technical-6344801.png	70.04500699043274	1.0902161598205566
43	43.73824715614319	response	0	j		41.0	/home/egter/Projects/stimuli/pictures/R_S_pexels-c-technical-6344801.png	71.12512612342834	
44	43.74834418296814	picture	0		124.0	42.0	/home/egter/Projects/stimuli/pictures/n04141327_4278.JPEG	71.1352231502533	1.0347528457641602
44	44.7647271156311	response	0	k		42.0	/home/egter/Projects/stimuli/pictures/n04141327_4278.JPEG	72.15160608291626	
45	44.7830970287323	picture	0		109.0	43.0	/home/egter/Projects/stimuli/pictures/ILSVRC2012_val_00039360.JPEG	72.16997599601746	0.9097390174865723
45	45.6799111366272	response	0	k		43.0	/home/egter/Projects/stimuli/pictures/ILSVRC2012_val_00039360.JPEG	73.06679010391235	
46	45.69283604621887	picture	0		123.0	44.0	/home/egter/Projects/stimuli/pictures/n01755581_11008.JPEG	73.07971501350403	1.0208139419555664
46	46.704912185668945	response	0	k		44.0	/home/egter/Projects/stimuli/pictures/n01755581_11008.JPEG	74.0917911529541	
47	46.71364998817444	picture	0		125.0	45.0	/home/egter/Projects/stimuli/pictures/R_S_yt-FhnT_42bV7M_11.png	74.1005289554596	1.0415871143341064
47	47.746572971343994	response	0	j		45.0	/home/egter/Projects/stimuli/pictures/R_S_yt-FhnT_42bV7M_11.png	75.13345193862915	
48	47.755237102508545	picture	0		115.0	46.0	/home/egter/Projects/stimuli/pictures/S_yt-qiPhBL4lBr0_44.png	75.1421160697937	0.9583790302276611
48	48.704888105392456	response	0	j		46.0	/home/egter/Projects/stimuli/pictures/S_yt-qiPhBL4lBr0_44.png	76.09176707267761	
49	48.713616132736206	picture	0		106.0	47.0	/home/egter/Projects/stimuli/pictures/n02099849_3786.JPEG	76.10049510002136	0.8888399600982666
49	49.581387996673584	response	0	k		47.0	/home/egter/Projects/stimuli/pictures/n02099849_3786.JPEG	76.96826696395874	
50	49.60245609283447	picture	0		109.0	48.0	/home/egter/Projects/stimuli/pictures/S_yt-xTxDfoAAFZc_6.png	76.98933506011963	0.9167098999023438
50	50.50539016723633	response	0	k		48.0	/home/egter/Projects/stimuli/pictures/S_yt-xTxDfoAAFZc_6.png	77.89226913452148	
51	50.519165992736816	picture	0		114.0	49.0	/home/egter/Projects/stimuli/pictures/n02988304_1974.JPEG	77.90604496002197	0.9582760334014893
51	51.46370601654053	response	0	k		49.0	/home/egter/Projects/stimuli/pictures/n02988304_1974.JPEG	78.85058498382568	
52	51.477442026138306	picture	0		111.0	50.0	/home/egter/Projects/stimuli/pictures/S_yt-4NjyKFnwHBo_13.png	78.86432099342346	0.9305911064147949
52	52.38974905014038	response	0	j		50.0	/home/egter/Projects/stimuli/pictures/S_yt-4NjyKFnwHBo_13.png	79.77662801742554	
53	52.4080331325531	picture	0		136.0	51.0	/home/egter/Projects/stimuli/pictures/n01697457_2811.JPEG	79.79491209983826	1.1319499015808105
53	53.52988910675049	response	0	k		51.0	/home/egter/Projects/stimuli/pictures/n01697457_2811.JPEG	80.91676807403564	
54	53.53998303413391	picture	0		105.0	52.0	/home/egter/Projects/stimuli/pictures/S_production_ID_4510883.png	80.92686200141907	0.8749680519104004
54	54.398061990737915	response	0	j		52.0	/home/egter/Projects/stimuli/pictures/S_production_ID_4510883.png	81.78494095802307	
55	54.41495108604431	picture	0		88.0	53.0	/home/egter/Projects/stimuli/pictures/n02701002_1341.JPEG	81.80183005332947	0.7361190319061279
55	55.13823103904724	response	0	k		53.0	/home/egter/Projects/stimuli/pictures/n02701002_1341.JPEG	82.5251100063324	
56	55.15107011795044	picture	0		111.0	54.0	/home/egter/Projects/stimuli/pictures/R_S_yt-CLX1rmSf2Rs_194.png	82.5379490852356	0.9235868453979492
56	56.06320309638977	response	0	j		54.0	/home/egter/Projects/stimuli/pictures/R_S_yt-CLX1rmSf2Rs_194.png	83.45008206367493	
57	56.07465696334839	picture	0		90.0	55.0	/home/egter/Projects/stimuli/pictures/R_S_yt-2l6VKd94eAI_151.png	83.46153593063354	0.7499711513519287
57	56.81321716308594	response	0	j		55.0	/home/egter/Projects/stimuli/pictures/R_S_yt-2l6VKd94eAI_151.png	84.2000961303711	
58	56.82462811470032	picture	0		104.0	56.0	/home/egter/Projects/stimuli/pictures/S_yt-pZRvYLT6SmU_40.png	84.21150708198547	0.8680570125579834
58	57.6798300743103	response	0	k		56.0	/home/egter/Projects/stimuli/pictures/S_yt-pZRvYLT6SmU_40.png	85.06670904159546	
59	57.6926851272583	picture	0		103.0	57.0	/home/egter/Projects/stimuli/pictures/S_yt-H3EadcgKySM_58.png	85.07956409454346	0.8541698455810547
59	58.53818917274475	response	0	j		57.0	/home/egter/Projects/stimuli/pictures/S_yt-H3EadcgKySM_58.png	85.92506814002991	
60	58.546854972839355	picture	0		102.0	58.0	/home/egter/Projects/stimuli/pictures/n03673027_12357.JPEG	85.93373394012451	0.8541500568389893
60	59.38180708885193	response	0	k		58.0	/home/egter/Projects/stimuli/pictures/n03673027_12357.JPEG	86.76868605613708	
61	59.401005029678345	picture	0		113.0	59.0	/home/egter/Projects/stimuli/pictures/n01955084_2525.JPEG	86.7878839969635	0.9374549388885498
61	60.329827070236206	response	0	k		59.0	/home/egter/Projects/stimuli/pictures/n01955084_2525.JPEG	87.71670603752136	
62	60.338459968566895	picture	0		95.0	60.0	/home/egter/Projects/stimuli/pictures/R_S_video-11.png	87.72533893585205	0.7995951175689697
62	61.121504068374634	response	0	j		60.0	/home/egter/Projects/stimuli/pictures/R_S_video-11.png	88.50838303565979	
63	61.138055086135864	picture	0		98.0	61.0	/home/egter/Projects/stimuli/pictures/n04037443_14442.JPEG	88.52493405342102	0.8249890804290771
63	61.94645714759827	response	0	k		61.0	/home/egter/Projects/stimuli/pictures/n04037443_14442.JPEG	89.33333611488342	
64	61.96304416656494	picture	0		88.0	62.0	/home/egter/Projects/stimuli/pictures/n02492035_9172.JPEG	89.3499231338501	0.7365608215332031
64	62.68815302848816	response	0	k		62.0	/home/egter/Projects/stimuli/pictures/n02492035_9172.JPEG	90.07503199577332	
65	62.699604988098145	picture	0		71.0	63.0	/home/egter/Projects/stimuli/pictures/n02279972_3612.JPEG	90.0864839553833	0.5902659893035889
65	63.27985405921936	response	0	k		63.0	/home/egter/Projects/stimuli/pictures/n02279972_3612.JPEG	90.66673302650452	
66	63.28987097740173	picture	0		91.0	64.0	/home/egter/Projects/stimuli/pictures/S_yt-R0gFQo85cAE_5.png	90.67674994468689	0.7570950984954834
66	64.03819012641907	response	0	j		64.0	/home/egter/Projects/stimuli/pictures/S_yt-R0gFQo85cAE_5.png	91.42506909370422	
67	64.04696607589722	picture	0		84.0	65.0	/home/egter/Projects/stimuli/pictures/n01873310_24983.JPEG	91.43384504318237	0.7012419700622559
67	64.7381751537323	response	0	k		65.0	/home/egter/Projects/stimuli/pictures/n01873310_24983.JPEG	92.12505412101746	
68	64.74820804595947	picture	0		128.0	66.0	/home/egter/Projects/stimuli/pictures/R_S_pexels-roman-odintsov-8231493.png	92.13508701324463	1.0694670677185059
68	65.80487203598022	response	0	j		66.0	/home/egter/Projects/stimuli/pictures/R_S_pexels-roman-odintsov-8231493.png	93.19175100326538	
69	65.81767511367798	picture	0		100.0	67.0	/home/egter/Projects/stimuli/pictures/n03495258_5143.JPEG	93.20455408096313	0.8332798480987549
69	66.63818717002869	response	0	k		67.0	/home/egter/Projects/stimuli/pictures/n03495258_5143.JPEG	94.02506613731384	
70	66.65095496177673	picture	0		104.0	68.0	/home/egter/Projects/stimuli/pictures/n03457902_38056.JPEG	94.03783392906189	0.8750250339508057
70	67.51312017440796	response	0	k		68.0	/home/egter/Projects/stimuli/pictures/n03457902_38056.JPEG	94.89999914169312	
71	67.52597999572754	picture	0		117.0	69.0	/home/egter/Projects/stimuli/pictures/S_yt-EcOYbXulEpI_139.png	94.9128589630127	0.9790899753570557
71	68.49647498130798	response	0	k		69.0	/home/egter/Projects/stimuli/pictures/S_yt-EcOYbXulEpI_139.png	95.88335394859314	
72	68.5050699710846	picture	0		82.0	70.0	/home/egter/Projects/stimuli/pictures/n04523525_12402.JPEG	95.89194893836975	0.687542200088501
72	69.17346000671387	response	0	k		70.0	/home/egter/Projects/stimuli/pictures/n04523525_12402.JPEG	96.56033897399902	
73	69.1926121711731	picture	0		108.0	71.0	/home/egter/Projects/stimuli/pictures/S_comp_GMT060_117NC_363D_1034_AUSTRALIA_v35_SDR_PS_FINAL_20180731_SDR_2K_AVC.png	96.57949113845825	0.9098758697509766
73	70.0885260105133	response	0	j		71.0	/home/egter/Projects/stimuli/pictures/S_comp_GMT060_117NC_363D_1034_AUSTRALIA_v35_SDR_PS_FINAL_20180731_SDR_2K_AVC.png	97.47540497779846	
74	70.10248804092407	picture	0		122.0	72.0	/home/egter/Projects/stimuli/pictures/R_S_yt--OkafQ5VFHs_51.png	97.48936700820923	1.0206289291381836
74	71.11329507827759	response	0	j		72.0	/home/egter/Projects/stimuli/pictures/R_S_yt--OkafQ5VFHs_51.png	98.50017404556274	
75	71.12311697006226	picture	0		78.0	73.0	/home/egter/Projects/stimuli/pictures/S_ILSVRC2015_train_00743002.png	98.50999593734741	0.6566221714019775
75	71.75751614570618	response	0	j		73.0	/home/egter/Projects/stimuli/pictures/S_ILSVRC2015_train_00743002.png	99.14439511299133	
76	71.77973914146423	picture	0		91.0	74.0	/home/egter/Projects/stimuli/pictures/S_ILSVRC2015_train_00572001.png	99.16661810874939	0.7600259780883789
76	72.52976107597351	response	0	j		74.0	/home/egter/Projects/stimuli/pictures/S_ILSVRC2015_train_00572001.png	99.91664004325867	
77	72.53976511955261	picture	0		118.0	75.0	/home/egter/Projects/stimuli/pictures/n09468604_13850.JPEG	99.92664408683777	0.9861359596252441
77	73.51311707496643	response	0	k		75.0	/home/egter/Projects/stimuli/pictures/n09468604_13850.JPEG	100.89999604225159	
78	73.52590107917786	picture	0		83.0	76.0	/home/egter/Projects/stimuli/pictures/S_comp_LW_L001_C006_PSNK_DENOISE_v02_SDR_PS_FINAL_20180709_SDR_2K_AVC.png	100.91278004646301	0.7013800144195557
78	74.20627498626709	response	0	j		76.0	/home/egter/Projects/stimuli/pictures/S_comp_LW_L001_C006_PSNK_DENOISE_v02_SDR_PS_FINAL_20180709_SDR_2K_AVC.png	101.59315395355225	
79	74.22728109359741	picture	0		88.0	77.0	/home/egter/Projects/stimuli/pictures/R_S_yt-5AI_SyK5sg8_112.png	101.61416006088257	0.736051082611084
79	74.95478296279907	response	0	j		77.0	/home/egter/Projects/stimuli/pictures/R_S_yt-5AI_SyK5sg8_112.png	102.34166193008423	
80	74.9633321762085	picture	0		118.0	78.0	/home/egter/Projects/stimuli/pictures/S_yt-D99Pp5JlUQI_47.png	102.35021114349365	0.9861328601837158
80	75.93812608718872	response	0	k		78.0	/home/egter/Projects/stimuli/pictures/S_yt-D99Pp5JlUQI_47.png	103.32500505447388	
81	75.94946503639221	picture	0		82.0	79.0	/home/egter/Projects/stimuli/pictures/n01768244_1234.JPEG	103.33634400367737	0.6805460453033447
81	76.62141108512878	response	0	k		79.0	/home/egter/Projects/stimuli/pictures/n01768244_1234.JPEG	104.00829005241394	
82	76.63001108169556	picture	0		91.0	80.0	/home/egter/Projects/stimuli/pictures/S_ILSVRC2015_train_00756000.png	104.01689004898071	0.7638850212097168
82	77.38018703460693	response	0	j		80.0	/home/egter/Projects/stimuli/pictures/S_ILSVRC2015_train_00756000.png	104.76706600189209	
83	77.39389610290527	picture	0		132.0	81.0	/home/egter/Projects/stimuli/pictures/n01558993_4985.JPEG	104.78077507019043	1.1041910648345947
83	78.48811912536621	response	0	k		81.0	/home/egter/Projects/stimuli/pictures/n01558993_4985.JPEG	105.87499809265137	
84	78.49808716773987	picture	0		111.0	82.0	/home/egter/Projects/stimuli/pictures/R_S_yt-KNdCiW8m1uY_168.png	105.88496613502502	0.9235858917236328
84	79.40631103515625	response	0	j		82.0	/home/egter/Projects/stimuli/pictures/R_S_yt-KNdCiW8m1uY_168.png	106.7931900024414	
85	79.4216730594635	picture	0		103.0	83.0	/home/egter/Projects/stimuli/pictures/R_S_yt-8QCcmqaEMPI_16.png	106.80855202674866	0.8610570430755615
85	80.27146697044373	response	0	j		83.0	/home/egter/Projects/stimuli/pictures/R_S_yt-8QCcmqaEMPI_16.png	107.65834593772888	
86	80.28273010253906	picture	0		96.0	84.0	/home/egter/Projects/stimuli/pictures/ILSVRC2012_val_00009327.JPEG	107.66960906982422	0.798598051071167
86	81.07143998146057	response	0	k		84.0	/home/egter/Projects/stimuli/pictures/ILSVRC2012_val_00009327.JPEG	108.45831894874573	
87	81.08132815361023	picture	0		103.0	85.0	/home/egter/Projects/stimuli/pictures/n02727426_14171.JPEG	108.46820712089539	0.8611328601837158
87	81.92977213859558	response	0	k		85.0	/home/egter/Projects/stimuli/pictures/n02727426_14171.JPEG	109.31665110588074	
88	81.94246101379395	picture	0		92.0	86.0	/home/egter/Projects/stimuli/pictures/ILSVRC2012_test_00049096.JPEG	109.3293399810791	0.7638859748840332
88	82.69642305374146	response	0	k		86.0	/home/egter/Projects/stimuli/pictures/ILSVRC2012_test_00049096.JPEG	110.08330202102661	
89	82.70634698867798	picture	0		94.0	87.0	/home/egter/Projects/stimuli/pictures/S_yt-qX2KH8RLnKs_50.png	110.09322595596313	0.7847280502319336
89	83.4797031879425	response	0	k		87.0	/home/egter/Projects/stimuli/pictures/S_yt-qX2KH8RLnKs_50.png	110.86658215522766	
90	83.49107503890991	picture	0		88.0	88.0	/home/egter/Projects/stimuli/pictures/n11879895_5760.JPEG	110.87795400619507	0.7361021041870117
90	84.20627498626709	response	0	k		88.0	/home/egter/Projects/stimuli/pictures/n11879895_5760.JPEG	111.59315395355225	
91	84.22717714309692	picture	0		96.0	89.0	/home/egter/Projects/stimuli/pictures/R_S_yt-4NjyKFnwHBo_13.png	111.61405611038208	0.8055558204650879
91	85.01456809043884	response	0	j		89.0	/home/egter/Projects/stimuli/pictures/R_S_yt-4NjyKFnwHBo_13.png	112.401447057724	
92	85.03273296356201	picture	0		91.0	90.0	/home/egter/Projects/stimuli/pictures/R_S_yt-MSdNCUWOp4o_4.png	112.41961193084717	0.756890058517456
92	85.77972412109375	response	0	j		90.0	/home/egter/Projects/stimuli/pictures/R_S_yt-MSdNCUWOp4o_4.png	113.1666030883789	
93	85.78962302207947	picture	0		354.0	91.0	/home/egter/Projects/stimuli/pictures/R_S_P006_C002_UHD_SDR_2K_AVC.png	113.17650198936462	2.951425075531006
93	88.72975516319275	response	0	k		91.0	/home/egter/Projects/stimuli/pictures/R_S_P006_C002_UHD_SDR_2K_AVC.png	116.1166341304779	
94	88.74104809761047	picture	0		109.0	92.0	/home/egter/Projects/stimuli/pictures/S_yt-yQrDeFlFmfM_138.png	116.12792706489563	0.9096829891204834
94	89.63804316520691	response	0	j		92.0	/home/egter/Projects/stimuli/pictures/S_yt-yQrDeFlFmfM_138.png	117.02492213249207	
95	89.65073108673096	picture	0		95.0	93.0	/home/egter/Projects/stimuli/pictures/n01641577_6777.JPEG	117.03761005401611	0.7917320728302002
95	90.42968702316284	response	0	k		93.0	/home/egter/Projects/stimuli/pictures/n01641577_6777.JPEG	117.816565990448	
96	90.44246315956116	picture	0		147.0	94.0	/home/egter/Projects/stimuli/pictures/n01494475_433.JPEG	117.82934212684631	1.222160816192627
96	91.65474510192871	response	0	k		94.0	/home/egter/Projects/stimuli/pictures/n01494475_433.JPEG	119.04162406921387	
97	91.66462397575378	picture	0		88.0	95.0	/home/egter/Projects/stimuli/pictures/n09193705_52381.JPEG	119.05150294303894	0.7360560894012451
97	92.38144302368164	response	0	k		95.0	/home/egter/Projects/stimuli/pictures/n09193705_52381.JPEG	119.7683219909668	
98	92.40068006515503	picture	0		70.0	96.0	/home/egter/Projects/stimuli/pictures/n09288635_4175.JPEG	119.78755903244019	0.5833570957183838
98	92.97138214111328	response	0	k		96.0	/home/egter/Projects/stimuli/pictures/n09288635_4175.JPEG	120.35826110839844	
99	92.98403716087341	picture	0		103.0	97.0	/home/egter/Projects/stimuli/pictures/R_S_yt-NqyG4Ar2JWo_10.png	120.37091612815857	0.8541278839111328
99	93.8296890258789	response	0	j		97.0	/home/egter/Projects/stimuli/pictures/R_S_yt-NqyG4Ar2JWo_10.png	121.21656799316406	
100	93.83816504478455	picture	0		169.0	98.0	/home/egter/Projects/stimuli/pictures/n02091635_12275.JPEG	121.2250440120697	1.4097480773925781
100	95.2380039691925	response	0	k		98.0	/home/egter/Projects/stimuli/pictures/n02091635_12275.JPEG	122.62488293647766	
101	95.24791312217712	picture	0		194.0	99.0	/home/egter/Projects/stimuli/pictures/n09399592_27608.JPEG	122.63479208946228	1.618001937866211
101	96.85476112365723	response	0	k		99.0	/home/egter/Projects/stimuli/pictures/n09399592_27608.JPEG	124.24164009094238	
102	96.86591506004333	picture	0		81.0	100.0	/home/egter/Projects/stimuli/pictures/n15075141_27571.JPEG	124.25279402732849	0.6736109256744385
102	97.52963995933533	response	0	k		100.0	/home/egter/Projects/stimuli/pictures/n15075141_27571.JPEG	124.91651892662048	
103	97.53952598571777	picture	0		160.0	101.0	/home/egter/Projects/stimuli/pictures/S_yt-bhiGMKSAz2g_370.png	124.92640495300293	1.3333470821380615
103	98.86301898956299	response	0	j		101.0	/home/egter/Projects/stimuli/pictures/S_yt-bhiGMKSAz2g_370.png	126.24989795684814	
104	98.87287306785583	picture	0		101.0	102.0	/home/egter/Projects/stimuli/pictures/n03866082_6191.JPEG	126.25975203514099	0.8402230739593506
104	99.70467615127563	response	0	k		102.0	/home/egter/Projects/stimuli/pictures/n03866082_6191.JPEG	127.09155511856079	
105	99.71309614181519	picture	0		98.0	103.0	/home/egter/Projects/stimuli/pictures/R_S_yt-lazG9z4VQAw_99.png	127.09997510910034	0.819525957107544
105	100.52134704589844	response	0	j		103.0	/home/egter/Projects/stimuli/pictures/R_S_yt-lazG9z4VQAw_99.png	127.9082260131836	
106	100.53262209892273	picture	0		93.0	104.0	/home/egter/Projects/stimuli/pictures/n02125311_38939.JPEG	127.91950106620789	0.7776980400085449
106	101.2965350151062	response	0	k		104.0	/home/egter/Projects/stimuli/pictures/n02125311_38939.JPEG	128.68341398239136	
107	101.31032013893127	picture	0		87.0	105.0	/home/egter/Projects/stimuli/pictures/n04264628_27969.JPEG	128.69719910621643	0.7291908264160156
107	102.02963995933533	response	0	k		105.0	/home/egter/Projects/stimuli/pictures/n04264628_27969.JPEG	129.41651892662048	
108	102.03951096534729	picture	0		160.0	106.0	/home/egter/Projects/stimuli/pictures/R_S_ILSVRC2015_train_00563000.png	129.42638993263245	1.3333032131195068
108	103.36303615570068	response	0	j		106.0	/home/egter/Projects/stimuli/pictures/R_S_ILSVRC2015_train_00563000.png	130.74991512298584	
109	103.3728141784668	picture	0		108.0	107.0	/home/egter/Projects/stimuli/pictures/R_S_pexels-mart-production-7277934.png	130.75969314575195	0.9028818607330322
109	104.26298999786377	response	0	j		107.0	/home/egter/Projects/stimuli/pictures/R_S_pexels-mart-production-7277934.png	131.64986896514893	
110	104.27569603919983	picture	0		89.0	108.0	/home/egter/Projects/stimuli/pictures/S_yt-3ohvpS42xug_184.png	131.66257500648499	0.7429800033569336
110	104.99783611297607	response	0	j		108.0	/home/egter/Projects/stimuli/pictures/S_yt-3ohvpS42xug_184.png	132.38471508026123	
111	105.01867604255676	picture	0		75.0	109.0	/home/egter/Projects/stimuli/pictures/R_S_yt-qiPhBL4lBr0_44.png	132.40555500984192	0.6318860054016113
111	105.6379861831665	response	0	j		109.0	/home/egter/Projects/stimuli/pictures/R_S_yt-qiPhBL4lBr0_44.png	133.02486515045166	
112	105.65056204795837	picture	0		82.0	110.0	/home/egter/Projects/stimuli/pictures/S_comp_DB_D008_C010_PSNK_v21_SDR_PS_20180914_F0F16157_SDR_2K_AVC.png	133.03744101524353	0.6805660724639893
112	106.32134699821472	response	0	j		110.0	/home/egter/Projects/stimuli/pictures/S_comp_DB_D008_C010_PSNK_v21_SDR_PS_20180914_F0F16157_SDR_2K_AVC.png	133.70822596549988	
113	106.33112812042236	picture	0		93.0	111.0	/home/egter/Projects/stimuli/pictures/n07871810_4559.JPEG	133.71800708770752	0.7777700424194336
113	107.09632515907288	response	0	k		111.0	/home/egter/Projects/stimuli/pictures/n07871810_4559.JPEG	134.48320412635803	
114	107.1088981628418	picture	0		88.0	112.0	/home/egter/Projects/stimuli/pictures/R_S_g201_WH_D004_L014_SDR_20191031_SDR_2K_AVC.png	134.49577713012695	0.7290868759155273
114	107.82284498214722	response	0	j		112.0	/home/egter/Projects/stimuli/pictures/R_S_g201_WH_D004_L014_SDR_20191031_SDR_2K_AVC.png	135.20972394943237	
115	107.83798503875732	picture	0		96.0	113.0	/home/egter/Projects/stimuli/pictures/n03126707_6906.JPEG	135.22486400604248	0.805657148361206
115	108.62981700897217	response	0	k		113.0	/home/egter/Projects/stimuli/pictures/n03126707_6906.JPEG	136.01669597625732	
116	108.64364218711853	picture	0		97.0	114.0	/home/egter/Projects/stimuli/pictures/S_yt-YCjbGOPBQHw_131.png	136.0305211544037	0.8124349117279053
116	109.44636106491089	response	0	j		114.0	/home/egter/Projects/stimuli/pictures/S_yt-YCjbGOPBQHw_131.png	136.83324003219604	
117	109.45607709884644	picture	0		94.0	115.0	/home/egter/Projects/stimuli/pictures/n04536866_12208.JPEG	136.8429560661316	0.7847249507904053
117	110.22967910766602	response	0	k		115.0	/home/egter/Projects/stimuli/pictures/n04536866_12208.JPEG	137.61655807495117	
118	110.24080204963684	picture	0		109.0	116.0	/home/egter/Projects/stimuli/pictures/S_nTA7B2uHaCQ_1.png	137.627681016922	0.9097340106964111
118	111.1379771232605	response	0	j		116.0	/home/egter/Projects/stimuli/pictures/S_nTA7B2uHaCQ_1.png	138.52485609054565	
119	111.15053606033325	picture	0		82.0	117.0	/home/egter/Projects/stimuli/pictures/n01806567_2140.JPEG	138.5374150276184	0.6805839538574219
119	111.81451916694641	response	0	k		117.0	/home/egter/Projects/stimuli/pictures/n01806567_2140.JPEG	139.20139813423157	
120	111.83112001419067	picture	0		317.0	118.0	/home/egter/Projects/stimuli/pictures/S_wc-4cMsVgeKgq_t_1.png	139.21799898147583	2.6457901000976562
120	114.46312713623047	response	0	k		118.0	/home/egter/Projects/stimuli/pictures/S_wc-4cMsVgeKgq_t_1.png	141.85000610351562	
121	114.47691011428833	picture	0		125.0	119.0	/home/egter/Projects/stimuli/pictures/R_S_8amznWxLS04_212.png	141.8637890815735	1.0485498905181885
121	115.5129280090332	response	0	j		119.0	/home/egter/Projects/stimuli/pictures/R_S_8amznWxLS04_212.png	142.89980697631836	
122	115.52546000480652	picture	0		88.0	120.0	/home/egter/Projects/stimuli/pictures/n02966687_6328.JPEG	142.91233897209167	0.7291691303253174
122	116.24628496170044	response	0	k		120.0	/home/egter/Projects/stimuli/pictures/n02966687_6328.JPEG	143.6331639289856	
123	116.25462913513184	picture	0		124.0	121.0	/home/egter/Projects/stimuli/pictures/R_S_comp_GL_G004_C010_PSNK_v04_SDR_PS_FINAL_20180709_SDR_2K_AVC.png	143.641508102417	1.0347280502319336
123	117.27959513664246	response	0	k		121.0	/home/egter/Projects/stimuli/pictures/R_S_comp_GL_G004_C010_PSNK_v04_SDR_PS_FINAL_20180709_SDR_2K_AVC.png	144.6664741039276	
124	117.28935718536377	picture	0		104.0	122.0	/home/egter/Projects/stimuli/pictures/n04296562_20170.JPEG	144.67623615264893	0.8680469989776611
124	118.14629316329956	response	0	k		122.0	/home/egter/Projects/stimuli/pictures/n04296562_20170.JPEG	145.53317213058472	
125	118.15740418434143	picture	0		93.0	123.0	/home/egter/Projects/stimuli/pictures/S_yt-QQPv17nfR_E_2.png	145.5442831516266	0.7777450084686279
125	118.92134714126587	response	0	j		123.0	/home/egter/Projects/stimuli/pictures/S_yt-QQPv17nfR_E_2.png	146.30822610855103	
126	118.93514919281006	picture	0		84.0	124.0	/home/egter/Projects/stimuli/pictures/n02808304_2539.JPEG	146.32202816009521	0.7084689140319824
126	119.62273216247559	response	0	k		124.0	/home/egter/Projects/stimuli/pictures/n02808304_2539.JPEG	147.00961112976074	
127	119.64361810684204	picture	0		119.0	125.0	/home/egter/Projects/stimuli/pictures/n04252225_30744.JPEG	147.0304970741272	0.9998800754547119
127	120.62277317047119	response	0	k		125.0	/home/egter/Projects/stimuli/pictures/n04252225_30744.JPEG	148.00965213775635	
128	120.64349818229675	picture	0		100.0	126.0	/home/egter/Projects/stimuli/pictures/R_S_yt-XbigWWtnGL4_75.png	148.0303771495819	0.8472487926483154
128	121.47961902618408	response	0	j		126.0	/home/egter/Projects/stimuli/pictures/R_S_yt-XbigWWtnGL4_75.png	148.86649799346924	
129	121.49074697494507	picture	0		79.0	127.0	/home/egter/Projects/stimuli/pictures/n01685808_3011.JPEG	148.87762594223022	0.6637141704559326
129	122.13793206214905	response	0	k		127.0	/home/egter/Projects/stimuli/pictures/n01685808_3011.JPEG	149.5248110294342	
130	122.154461145401	picture	0		83.0	128.0	/home/egter/Projects/stimuli/pictures/n02974003_106.JPEG	149.54134011268616	0.6973419189453125
130	122.83111810684204	response	0	k		128.0	/home/egter/Projects/stimuli/pictures/n02974003_106.JPEG	150.2179970741272	
131	122.85180306434631	picture	0		86.0	129.0	/home/egter/Projects/stimuli/pictures/n01798484_6755.JPEG	150.23868203163147	0.7276349067687988
131	123.56290197372437	response	0	k		129.0	/home/egter/Projects/stimuli/pictures/n01798484_6755.JPEG	150.94978094100952	
132	123.57943797111511	picture	0		127.0	130.0	/home/egter/Projects/stimuli/pictures/R_S_yt-eLQydFSMGCU_75.png	150.96631693840027	1.0639979839324951
132	124.62273597717285	response	0	j		130.0	/home/egter/Projects/stimuli/pictures/R_S_yt-eLQydFSMGCU_75.png	152.009614944458	
133	124.64343595504761	picture	0		97.0	131.0	/home/egter/Projects/stimuli/pictures/S_g201_TH_804_A001_8_SDR_20191031_SDR_2K_AVC.png	152.03031492233276	0.8125431537628174
133	125.44625115394592	response	0	j		131.0	/home/egter/Projects/stimuli/pictures/S_g201_TH_804_A001_8_SDR_20191031_SDR_2K_AVC.png	152.83313012123108	
134	125.45597910881042	picture	0		92.0	132.0	/home/egter/Projects/stimuli/pictures/R_S_comp_GMT110_112NC_364D_1054_AURORA_ANTARTICA__COMP_FINAL_v34_PS_SDR_20181107_SDR_2K_AVC.png	152.84285807609558	0.7708039283752441
134	126.20609903335571	response	0	j		132.0	/home/egter/Projects/stimuli/pictures/R_S_comp_GMT110_112NC_364D_1054_AURORA_ANTARTICA__COMP_FINAL_v34_PS_SDR_20181107_SDR_2K_AVC.png	153.59297800064087	
135	126.22678303718567	picture	0		97.0	133.0	/home/egter/Projects/stimuli/pictures/ILSVRC2012_test_00062032.JPEG	153.61366200447083	0.8124690055847168
135	127.0228681564331	response	0	k		133.0	/home/egter/Projects/stimuli/pictures/ILSVRC2012_test_00062032.JPEG	154.40974712371826	
136	127.03925204277039	picture	0		100.0	134.0	/home/egter/Projects/stimuli/pictures/n04162706_47898.JPEG	154.42613101005554	0.8333511352539062
136	127.86290907859802	response	0	k		134.0	/home/egter/Projects/stimuli/pictures/n04162706_47898.JPEG	155.24978804588318	
137	127.87260317802429	picture	0		84.0	135.0	/home/egter/Projects/stimuli/pictures/S_yt-Pd3_4Z2tbFU_47.png	155.25948214530945	0.7013819217681885
137	128.56294798851013	response	0	k		135.0	/home/egter/Projects/stimuli/pictures/S_yt-Pd3_4Z2tbFU_47.png	155.9498269557953	
138	128.57398509979248	picture	0		101.0	136.0	/home/egter/Projects/stimuli/pictures/S_yt-xnEuj-JKmqQ_134.png	155.96086406707764	0.8402330875396729
138	129.39772510528564	response	0	k		136.0	/home/egter/Projects/stimuli/pictures/S_yt-xnEuj-JKmqQ_134.png	156.7846040725708	
139	129.41421818733215	picture	0		123.0	137.0	/home/egter/Projects/stimuli/pictures/R_S_yt-ebzrQh5ErI4_3.png	156.8010971546173	1.027768850326538
139	130.42280101776123	response	0	j		137.0	/home/egter/Projects/stimuli/pictures/R_S_yt-ebzrQh5ErI4_3.png	157.8096799850464	
140	130.4419870376587	picture	0		74.0	138.0	/home/egter/Projects/stimuli/pictures/n01978455_12022.JPEG	157.82886600494385	0.6180870532989502
140	131.0462830066681	response	0	k		138.0	/home/egter/Projects/stimuli/pictures/n01978455_12022.JPEG	158.43316197395325	
141	131.06007409095764	picture	0		93.0	139.0	/home/egter/Projects/stimuli/pictures/S_yt-uY5xsUKn8zU_17.png	158.4469530582428	0.7777330875396729
141	131.82278513908386	response	0	j		139.0	/home/egter/Projects/stimuli/pictures/S_yt-uY5xsUKn8zU_17.png	159.20966410636902	
142	131.83780717849731	picture	0		121.0	140.0	/home/egter/Projects/stimuli/pictures/S_yt-4oT-2eGhmUo_102.png	159.22468614578247	1.0139329433441162
142	132.83788800239563	response	0	j		140.0	/home/egter/Projects/stimuli/pictures/S_yt-4oT-2eGhmUo_102.png	160.2247669696808	
143	132.85174012184143	picture	0		104.0	141.0	/home/egter/Projects/stimuli/pictures/S_yt-RKo978aBdzw_173.png	160.2386190891266	0.8749618530273438
143	133.71298217773438	response	0	j		141.0	/home/egter/Projects/stimuli/pictures/S_yt-RKo978aBdzw_173.png	161.09986114501953	
144	133.72670197486877	picture	0		86.0	142.0	/home/egter/Projects/stimuli/pictures/S_yt-tqxZlasEvZA_15.png	161.11358094215393	0.722243070602417
144	134.4378890991211	response	0	k		142.0	/home/egter/Projects/stimuli/pictures/S_yt-tqxZlasEvZA_15.png	161.82476806640625	
145	134.4489450454712	picture	0		98.0	143.0	/home/egter/Projects/stimuli/pictures/R_S_nvbAwZOKBS8_23.png	161.83582401275635	0.8194069862365723
145	135.25455617904663	response	0	j		143.0	/home/egter/Projects/stimuli/pictures/R_S_nvbAwZOKBS8_23.png	162.6414351463318	
146	135.26835203170776	picture	0		92.0	144.0	/home/egter/Projects/stimuli/pictures/S_yt-EBuE7GbFw7U_180.png	162.65523099899292	0.7708399295806885
146	136.02265310287476	response	0	j		144.0	/home/egter/Projects/stimuli/pictures/S_yt-EBuE7GbFw7U_180.png	163.4095320701599	
147	136.03919196128845	picture	0		115.0	145.0	/home/egter/Projects/stimuli/pictures/R_S_yt-xNKgc8sFYvU_35.png	163.4260709285736	0.9583280086517334
147	136.98786211013794	response	0	j		145.0	/home/egter/Projects/stimuli/pictures/R_S_yt-xNKgc8sFYvU_35.png	164.3747410774231	
148	136.99751996994019	picture	0		102.0	146.0	/home/egter/Projects/stimuli/pictures/R_S_pexels-c-technical-5771610.png	164.38439893722534	0.8541791439056396
148	137.83790516853333	response	0	j		146.0	/home/egter/Projects/stimuli/pictures/R_S_pexels-c-technical-5771610.png	165.22478413581848	
149	137.85169911384583	picture	0		358.0	147.0	/home/egter/Projects/stimuli/pictures/S_yt-mWL9DHq4eRI_501.png	165.23857808113098	2.9860799312591553
149	140.8227071762085	response	0	k		147.0	/home/egter/Projects/stimuli/pictures/S_yt-mWL9DHq4eRI_501.png	168.20958614349365	
150	140.83777904510498	picture	0		78.0	148.0	/home/egter/Projects/stimuli/pictures/n01990800_8997.JPEG	168.22465801239014	0.6527500152587891
150	141.4794671535492	response	0	j		148.0	/home/egter/Projects/stimuli/pictures/n01990800_8997.JPEG	168.86634612083435	
151	141.49052906036377	picture	0		99.0	149.0	/home/egter/Projects/stimuli/pictures/S_yt-dQRqGgpS9mE_288.png	168.87740802764893	0.8263599872589111
151	142.30452799797058	response	0	j		149.0	/home/egter/Projects/stimuli/pictures/S_yt-dQRqGgpS9mE_288.png	169.69140696525574	
152	142.31688904762268	picture	0		87.0	150.0	/home/egter/Projects/stimuli/pictures/S_yt-RO4mhuXBVrY_67.png	169.70376801490784	0.7222340106964111
152	143.02281212806702	response	0	j		150.0	/home/egter/Projects/stimuli/pictures/S_yt-RO4mhuXBVrY_67.png	170.40969109535217	
153	143.0391230583191	picture	0		85.0	151.0	/home/egter/Projects/stimuli/pictures/S_yt-Ilr77XzakaY_95.png	170.42600202560425	0.7083461284637451
153	143.73781609535217	response	0	j		151.0	/home/egter/Projects/stimuli/pictures/S_yt-Ilr77XzakaY_95.png	171.12469506263733	
154	143.74746918678284	picture	0		106.0	152.0	/home/egter/Projects/stimuli/pictures/S_yt-0xzYSBvVfYM_197.png	171.134348154068	0.8819248676300049
154	144.61436104774475	response	0	j		152.0	/home/egter/Projects/stimuli/pictures/S_yt-0xzYSBvVfYM_197.png	172.0012400150299	
155	144.62939405441284	picture	0		172.0	153.0	/home/egter/Projects/stimuli/pictures/S_bing-vimeo_com_218382006_69.png	172.016273021698	1.437446117401123
155	146.054514169693	response	0	k		153.0	/home/egter/Projects/stimuli/pictures/S_bing-vimeo_com_218382006_69.png	173.44139313697815	
156	146.06684017181396	picture	0		113.0	154.0	/home/egter/Projects/stimuli/pictures/S_yt-2CWrK9nbhTk_211.png	173.45371913909912	0.9375109672546387
156	146.9962191581726	response	0	j		154.0	/home/egter/Projects/stimuli/pictures/S_yt-2CWrK9nbhTk_211.png	174.38309812545776	
157	147.0043511390686	picture	0		102.0	155.0	/home/egter/Projects/stimuli/pictures/n02132136_21557.JPEG	174.39123010635376	0.8541929721832275
157	147.84610605239868	response	0	k		155.0	/home/egter/Projects/stimuli/pictures/n02132136_21557.JPEG	175.23298501968384	
158	147.85854411125183	picture	0		91.0	156.0	/home/egter/Projects/stimuli/pictures/R_S_yt-c5_SFS4aaJI_1102.png	175.245423078537	0.7569499015808105
158	148.60443902015686	response	0	j		156.0	/home/egter/Projects/stimuli/pictures/R_S_yt-c5_SFS4aaJI_1102.png	175.99131798744202	
159	148.61549401283264	picture	0		87.0	157.0	/home/egter/Projects/stimuli/pictures/S_ILSVRC2015_train_00384000.png	176.0023729801178	0.7222089767456055
159	149.32944011688232	response	0	j		157.0	/home/egter/Projects/stimuli/pictures/S_ILSVRC2015_train_00384000.png	176.71631908416748	
160	149.33770298957825	picture	0		110.0	158.0	/home/egter/Projects/stimuli/pictures/R_S_video_inspire_oregon_lone-ranch-beach_00021.png	176.7245819568634	0.9166409969329834
160	150.23927211761475	response	0	j		158.0	/home/egter/Projects/stimuli/pictures/R_S_video_inspire_oregon_lone-ranch-beach_00021.png	177.6261510848999	
161	150.25434398651123	picture	0		144.0	159.0	/home/egter/Projects/stimuli/pictures/S_CHWw361oMSQ_195.png	177.6412229537964	1.201404094696045
161	151.44617700576782	response	0	j		159.0	/home/egter/Projects/stimuli/pictures/S_CHWw361oMSQ_195.png	178.83305597305298	
162	151.45574808120728	picture	0		114.0	160.0	/home/egter/Projects/stimuli/pictures/S_yt-sXy_bKQE-8U_7.png	178.84262704849243	0.9513599872589111
162	152.39612007141113	response	0	j		160.0	/home/egter/Projects/stimuli/pictures/S_yt-sXy_bKQE-8U_7.png	179.7829990386963	
163	152.4071080684662	picture	0		83.0	161.0	/home/egter/Projects/stimuli/pictures/R_S_yt-YCjbGOPBQHw_131.png	179.79398703575134	0.6944448947906494
163	153.08778715133667	response	0	j		161.0	/home/egter/Projects/stimuli/pictures/R_S_yt-YCjbGOPBQHw_131.png	180.47466611862183	
164	153.10155296325684	picture	0		87.0	162.0	/home/egter/Projects/stimuli/pictures/n02013706_1820.JPEG	180.488431930542	0.7291350364685059
164	153.81430411338806	response	0	k		162.0	/home/egter/Projects/stimuli/pictures/n02013706_1820.JPEG	181.20118308067322	
165	153.83068799972534	picture	0		80.0	163.0	/home/egter/Projects/stimuli/pictures/S_yt-MSdNCUWOp4o_4.png	181.2175669670105	0.6666691303253174
165	154.48782110214233	response	0	j		163.0	/home/egter/Projects/stimuli/pictures/S_yt-MSdNCUWOp4o_4.png	181.8747000694275	
166	154.49735713005066	picture	0		95.0	164.0	/home/egter/Projects/stimuli/pictures/S_pexels-koolshooters-7327401_1.png	181.88423609733582	0.791658878326416
166	155.27940201759338	response	0	j		164.0	/home/egter/Projects/stimuli/pictures/S_pexels-koolshooters-7327401_1.png	182.66628098487854	
167	155.28901600837708	picture	0		92.0	165.0	/home/egter/Projects/stimuli/pictures/S_video_inspire_oregon_lone-ranch-beach_00021.png	182.67589497566223	0.7708151340484619
167	156.04616403579712	response	0	j		165.0	/home/egter/Projects/stimuli/pictures/S_video_inspire_oregon_lone-ranch-beach_00021.png	183.43304300308228	
168	156.05983114242554	picture	0		84.0	166.0	/home/egter/Projects/stimuli/pictures/S_nvbAwZOKBS8_23.png	183.4467101097107	0.7083020210266113
168	156.75444507598877	response	0	j		166.0	/home/egter/Projects/stimuli/pictures/S_nvbAwZOKBS8_23.png	184.14132404327393	
169	156.76813316345215	picture	0		91.0	167.0	/home/egter/Projects/stimuli/pictures/n04252225_2912.JPEG	184.1550121307373	0.7639408111572266
169	157.52114701271057	response	0	k		167.0	/home/egter/Projects/stimuli/pictures/n04252225_2912.JPEG	184.90802597999573	
170	157.53207397460938	picture	0		87.0	168.0	/home/egter/Projects/stimuli/pictures/n04344873_13568.JPEG	184.91895294189453	0.7222700119018555
170	158.23932600021362	response	0	k		168.0	/home/egter/Projects/stimuli/pictures/n04344873_13568.JPEG	185.62620496749878	
171	158.25434398651123	picture	0		82.0	169.0	/home/egter/Projects/stimuli/pictures/S_yt-kKRGgUhVRzc_74.png	185.6412229537964	0.6874589920043945
171	158.92945504188538	response	0	j		169.0	/home/egter/Projects/stimuli/pictures/S_yt-kKRGgUhVRzc_74.png	186.31633400917053	
172	158.94180297851562	picture	0		89.0	170.0	/home/egter/Projects/stimuli/pictures/n01981276_16172.JPEG	186.32868194580078	0.7430140972137451
172	159.671147108078	response	0	k		170.0	/home/egter/Projects/stimuli/pictures/n01981276_16172.JPEG	187.05802607536316	
173	159.68481707572937	picture	0		89.0	171.0	/home/egter/Projects/stimuli/pictures/S_yt-IyxCMODHSSE_29.png	187.07169604301453	0.750006914138794
173	160.4142711162567	response	0	j		171.0	/home/egter/Projects/stimuli/pictures/S_yt-IyxCMODHSSE_29.png	187.80115008354187	
174	160.43482398986816	picture	0		85.0	172.0	/home/egter/Projects/stimuli/pictures/n01984695_26933.JPEG	187.82170295715332	0.7152740955352783
174	161.13780117034912	response	0	k		172.0	/home/egter/Projects/stimuli/pictures/n01984695_26933.JPEG	188.52468013763428	
175	161.15009808540344	picture	0		80.0	173.0	/home/egter/Projects/stimuli/pictures/n02484975_10704.JPEG	188.5369770526886	0.66668701171875
175	161.80444312095642	response	0	k		173.0	/home/egter/Projects/stimuli/pictures/n02484975_10704.JPEG	189.19132208824158	
176	161.8167850971222	picture	0		78.0	174.0	/home/egter/Projects/stimuli/pictures/S_yt-3R23XwTXpKs_238.png	189.20366406440735	0.6597139835357666
176	162.46276998519897	response	0	j		174.0	/home/egter/Projects/stimuli/pictures/S_yt-3R23XwTXpKs_238.png	189.84964895248413	
177	162.47649908065796	picture	0		87.0	175.0	/home/egter/Projects/stimuli/pictures/n02105056_4582.JPEG	189.86337804794312	0.7290999889373779
177	163.1961030960083	response	0	k		175.0	/home/egter/Projects/stimuli/pictures/n02105056_4582.JPEG	190.58298206329346	
178	163.20559906959534	picture	0		86.0	176.0	/home/egter/Projects/stimuli/pictures/R_S_yt-GyMWMiWvuiA_237.png	190.5924780368805	0.7154419422149658
178	163.9127640724182	response	0	j		176.0	/home/egter/Projects/stimuli/pictures/R_S_yt-GyMWMiWvuiA_237.png	191.29964303970337	
179	163.9210410118103	picture	0		88.0	177.0	/home/egter/Projects/stimuli/pictures/n01990800_8499.JPEG	191.30791997909546	0.7359471321105957
179	164.6460931301117	response	0	k		177.0	/home/egter/Projects/stimuli/pictures/n01990800_8499.JPEG	192.03297209739685	
180	164.6569881439209	picture	0		87.0	178.0	/home/egter/Projects/stimuli/pictures/R_S_ILSVRC2015_train_00469000.png	192.04386711120605	0.7223448753356934
180	165.3710379600525	response	0	j		178.0	/home/egter/Projects/stimuli/pictures/R_S_ILSVRC2015_train_00469000.png	192.75791692733765	
181	165.3793330192566	picture	0		82.0	179.0	/home/egter/Projects/stimuli/pictures/n02823750_3762.JPEG	192.76621198654175	0.6873800754547119
181	166.0476951599121	response	0	k		179.0	/home/egter/Projects/stimuli/pictures/n02823750_3762.JPEG	193.43457412719727	
182	166.0667130947113	stim	0		240.0			193.45359206199646	2.000190019607544
182	168.0543999671936	response	0	space				195.44127893447876	
