trial_nr	onset	event_type	phase	response	nr_frames	picture_index	picture_file	onset_abs	duration
0	0.011085033416748047	stim	0		1144.0			30.817702054977417	9.539974927902222
0	5.197947025299072	response	0	2				36.00456404685974	
0	9.531259059906006	response	0	space				40.337876081466675	
2	9.55105996131897	picture	0		205.0	0.0	/home/egter/Projects/stimuli/pictures/S_ILSVRC2015_train_00569006.png	40.35767698287964	1.7088298797607422
2	11.250720024108887	response	0	j		0.0	/home/egter/Projects/stimuli/pictures/S_ILSVRC2015_train_00569006.png	42.057337045669556	
3	11.259889841079712	picture	0		128.0	1.0	/home/egter/Projects/stimuli/pictures/n04131690_16603.JPEG	42.06650686264038	1.068932056427002
3	12.310689926147461	response	0	k		1.0	/home/egter/Projects/stimuli/pictures/n04131690_16603.JPEG	43.11730694770813	
4	12.328821897506714	picture	0		169.0	2.0	/home/egter/Projects/stimuli/pictures/S_production_ID_4325503.png	43.13543891906738	1.4166109561920166
4	13.734035968780518	response	0	k		2.0	/home/egter/Projects/stimuli/pictures/S_production_ID_4325503.png	44.54065299034119	
5	13.74543285369873	picture	0		329.0	3.0	/home/egter/Projects/stimuli/pictures/S_yt-4slVHFGPwEs_744.png	44.5520498752594	2.743061065673828
5	16.475581884384155	response	0	j		3.0	/home/egter/Projects/stimuli/pictures/S_yt-4slVHFGPwEs_744.png	47.282198905944824	
6	16.48849391937256	picture	0		135.0	4.0	/home/egter/Projects/stimuli/pictures/n02504013_13427.JPEG	47.29511094093323	1.1286780834197998
6	17.60065484046936	response	0	j		4.0	/home/egter/Projects/stimuli/pictures/n02504013_13427.JPEG	48.40727186203003	
7	17.61717200279236	picture	0		82.0	5.0	/home/egter/Projects/stimuli/pictures/S_yt-y6zr69M0yHI_76.png	48.42378902435303	0.6916730403900146
7	18.292311906814575	response	0	j		5.0	/home/egter/Projects/stimuli/pictures/S_yt-y6zr69M0yHI_76.png	49.098928928375244	
8	18.308845043182373	picture	0		87.0	6.0	/home/egter/Projects/stimuli/pictures/R_S_yt-rPYBHkUEwwc_10.png	49.11546206474304	0.7281827926635742
8	19.025617837905884	response	0	j		6.0	/home/egter/Projects/stimuli/pictures/R_S_yt-rPYBHkUEwwc_10.png	49.83223485946655	
9	19.037027835845947	picture	0		85.0	7.0	/home/egter/Projects/stimuli/pictures/R_S_yt-cokedWwwYYs_136.png	49.843644857406616	0.7083590030670166
9	19.72716188430786	response	0	j		7.0	/home/egter/Projects/stimuli/pictures/R_S_yt-cokedWwwYYs_136.png	50.53377890586853	
10	19.745386838912964	picture	0		167.0	8.0	/home/egter/Projects/stimuli/pictures/n02493509_9319.JPEG	50.55200386047363	1.3889110088348389
10	21.118919849395752	response	0	k		8.0	/home/egter/Projects/stimuli/pictures/n02493509_9319.JPEG	51.92553687095642	
11	21.134297847747803	picture	0		182.0	9.0	/home/egter/Projects/stimuli/pictures/S_yt-KVB49z48sZU_55.png	51.94091486930847	1.5208032131195068
11	22.642282009124756	response	0	j		9.0	/home/egter/Projects/stimuli/pictures/S_yt-KVB49z48sZU_55.png	53.448899030685425	
12	22.65510106086731	picture	0		86.0	10.0	/home/egter/Projects/stimuli/pictures/n04238763_2633.JPEG	53.46171808242798	0.7204017639160156
12	23.358940839767456	response	0	k		10.0	/home/egter/Projects/stimuli/pictures/n04238763_2633.JPEG	54.165557861328125	
13	23.375502824783325	picture	0		77.0	11.0	/home/egter/Projects/stimuli/pictures/S_yt-Ub5Xx5BqIOk_74.png	54.182119846343994	0.6476302146911621
13	24.00936198234558	response	0	j		11.0	/home/egter/Projects/stimuli/pictures/S_yt-Ub5Xx5BqIOk_74.png	54.81597900390625	
14	24.023133039474487	picture	0		130.0	12.0	/home/egter/Projects/stimuli/pictures/R_S_yt-STL3ejY9u_Q_73.png	54.829750061035156	1.0902550220489502
14	25.094228982925415	response	0	j		12.0	/home/egter/Projects/stimuli/pictures/R_S_yt-STL3ejY9u_Q_73.png	55.900846004486084	
15	25.113388061523438	picture	0		182.0	13.0	/home/egter/Projects/stimuli/pictures/S_yt-Ev39pXXfr1Y_152.png	55.920005083084106	1.5138797760009766
15	26.61729097366333	response	0	j		13.0	/home/egter/Projects/stimuli/pictures/S_yt-Ev39pXXfr1Y_152.png	57.423907995224	
16	26.627267837524414	picture	0		166.0	14.0	/home/egter/Projects/stimuli/pictures/n02117135_6585.JPEG	57.43388485908508	1.3819210529327393
16	28.000577926635742	response	0	k		14.0	/home/egter/Projects/stimuli/pictures/n02117135_6585.JPEG	58.80719494819641	
17	28.009188890457153	picture	0		323.0	15.0	/home/egter/Projects/stimuli/pictures/S_yt-Uih643A1YtA_110.png	58.81580591201782	2.694427013397217
17	30.69219183921814	response	0	k		15.0	/home/egter/Projects/stimuli/pictures/S_yt-Uih643A1YtA_110.png	61.49880886077881	
18	30.70361590385437	picture	0		74.0	16.0	/home/egter/Projects/stimuli/pictures/S_comp_A105_C003_0212CT_FLARE_v10_SDR_PS_FINAL_20180711_SDR_2K_AVC.png	61.51023292541504	0.6180860996246338
18	31.30253505706787	response	0	j		16.0	/home/egter/Projects/stimuli/pictures/S_comp_A105_C003_0212CT_FLARE_v10_SDR_PS_FINAL_20180711_SDR_2K_AVC.png	62.10915207862854	
19	31.321702003479004	picture	0		143.0	17.0	/home/egter/Projects/stimuli/pictures/n02814533_4087.JPEG	62.12831902503967	1.1874589920043945
19	32.500547885894775	response	0	k		17.0	/home/egter/Projects/stimuli/pictures/n02814533_4087.JPEG	63.307164907455444	
20	32.5091609954834	picture	0		150.0	18.0	/home/egter/Projects/stimuli/pictures/n12985857_1847.JPEG	63.31577801704407	1.2579820156097412
20	33.75051784515381	response	0	k		18.0	/home/egter/Projects/stimuli/pictures/n12985857_1847.JPEG	64.55713486671448	
21	33.76714301109314	picture	0		151.0	19.0	/home/egter/Projects/stimuli/pictures/R_S_Pexels_Videos_2795736.png	64.57376003265381	1.2627878189086914
21	35.01723289489746	response	0	j		19.0	/home/egter/Projects/stimuli/pictures/R_S_Pexels_Videos_2795736.png	65.82384991645813	
22	35.02993083000183	picture	0		111.0	20.0	/home/egter/Projects/stimuli/pictures/S_ILSVRC2015_train_00568000.png	65.8365478515625	0.9288270473480225
22	35.9421968460083	response	0	j		20.0	/home/egter/Projects/stimuli/pictures/S_ILSVRC2015_train_00568000.png	66.74881386756897	
23	35.95875787734985	picture	0		113.0	21.0	/home/egter/Projects/stimuli/pictures/n03777568_10386.JPEG	66.76537489891052	0.9500081539154053
23	36.8921959400177	response	0	k		21.0	/home/egter/Projects/stimuli/pictures/n03777568_10386.JPEG	67.69881296157837	
24	36.90876603126526	picture	0		73.0	22.0	/home/egter/Projects/stimuli/pictures/S_yt-Z0nfPTEEOLo_85.png	67.71538305282593	0.6166369915008545
24	37.50202488899231	response	0	j		22.0	/home/egter/Projects/stimuli/pictures/S_yt-Z0nfPTEEOLo_85.png	68.30864191055298	
25	37.52540302276611	picture	0		83.0	23.0	/home/egter/Projects/stimuli/pictures/S_yt-x6tYi0lRGqU_114.png	68.33202004432678	0.7000269889831543
25	38.20891189575195	response	0	j		23.0	/home/egter/Projects/stimuli/pictures/S_yt-x6tYi0lRGqU_114.png	69.01552891731262	
26	38.22543001174927	picture	0		173.0	24.0	/home/egter/Projects/stimuli/pictures/S_yt-j3aQHA2TVq4_38.png	69.03204703330994	1.4433789253234863
26	39.65887403488159	response	0	k		24.0	/home/egter/Projects/stimuli/pictures/S_yt-j3aQHA2TVq4_38.png	70.46549105644226	
27	39.668808937072754	picture	0		78.0	25.0	/home/egter/Projects/stimuli/pictures/S_yt-AOP7QYQntPI_28.png	70.47542595863342	0.6528069972991943
27	40.302440881729126	response	0	j		25.0	/home/egter/Projects/stimuli/pictures/S_yt-AOP7QYQntPI_28.png	71.1090579032898	
28	40.32161593437195	picture	0		110.0	26.0	/home/egter/Projects/stimuli/pictures/n03496892_7861.JPEG	71.12823295593262	0.9166419506072998
28	41.22550296783447	response	0	j		26.0	/home/egter/Projects/stimuli/pictures/n03496892_7861.JPEG	72.03211998939514	
29	41.23825788497925	picture	0		129.0	27.0	/home/egter/Projects/stimuli/pictures/n02441942_1656.JPEG	72.04487490653992	1.078909158706665
29	42.30086898803711	response	0	k		27.0	/home/egter/Projects/stimuli/pictures/n02441942_1656.JPEG	73.10748600959778	
30	42.31716704368591	picture	0		87.0	28.0	/home/egter/Projects/stimuli/pictures/S_ILSVRC2015_train_00303005.png	73.12378406524658	0.7265629768371582
30	43.03385901451111	response	0	j		28.0	/home/egter/Projects/stimuli/pictures/S_ILSVRC2015_train_00303005.png	73.84047603607178	
31	43.04373002052307	picture	0		123.0	29.0	/home/egter/Projects/stimuli/pictures/S_yt-lkpfs_4qAGE_50.png	73.85034704208374	1.0278258323669434
31	44.05885696411133	response	0	j		29.0	/home/egter/Projects/stimuli/pictures/S_yt-lkpfs_4qAGE_50.png	74.865473985672	
32	44.071555852890015	picture	0		154.0	30.0	/home/egter/Projects/stimuli/pictures/S_yt-ZE8Af60eNsI_15.png	74.87817287445068	1.2871739864349365
32	45.33535099029541	response	0	j		30.0	/home/egter/Projects/stimuli/pictures/S_yt-ZE8Af60eNsI_15.png	76.14196801185608	
33	45.35872983932495	picture	0		79.0	31.0	/home/egter/Projects/stimuli/pictures/S_ILSVRC2015_train_00278004.png	76.16534686088562	0.6666820049285889
33	46.00922894477844	response	0	j		31.0	/home/egter/Projects/stimuli/pictures/S_ILSVRC2015_train_00278004.png	76.81584596633911	
34	46.02541184425354	picture	0		91.0	32.0	/home/egter/Projects/stimuli/pictures/n01773797_2883.JPEG	76.83202886581421	0.7613890171051025
34	46.77546286582947	response	0	k		32.0	/home/egter/Projects/stimuli/pictures/n01773797_2883.JPEG	77.58207988739014	
35	46.78680086135864	picture	0		85.0	33.0	/home/egter/Projects/stimuli/pictures/S_ILSVRC2015_train_00536000.png	77.59341788291931	0.708294153213501
35	47.483839988708496	response	0	j		33.0	/home/egter/Projects/stimuli/pictures/S_ILSVRC2015_train_00536000.png	78.29045701026917	
36	47.495095014572144	picture	0		109.0	34.0	/home/egter/Projects/stimuli/pictures/n07714571_16752.JPEG	78.30171203613281	0.9097659587860107
36	48.3921639919281	response	0	k		34.0	/home/egter/Projects/stimuli/pictures/n07714571_16752.JPEG	79.19878101348877	
37	48.404860973358154	picture	0		113.0	35.0	/home/egter/Projects/stimuli/pictures/n04336792_7448.JPEG	79.21147799491882	0.9375090599060059
37	49.32699990272522	response	0	k		35.0	/home/egter/Projects/stimuli/pictures/n04336792_7448.JPEG	80.13361692428589	
38	49.34237003326416	picture	0		121.0	36.0	/home/egter/Projects/stimuli/pictures/n03126707_4952.JPEG	80.14898705482483	1.0138609409332275
38	50.33534789085388	response	0	k		36.0	/home/egter/Projects/stimuli/pictures/n03126707_4952.JPEG	81.14196491241455	
39	50.35623097419739	picture	0		147.0	37.0	/home/egter/Projects/stimuli/pictures/ILSVRC2012_test_00080382.JPEG	81.16284799575806	1.2291259765625
39	51.57549285888672	response	0	k		37.0	/home/egter/Projects/stimuli/pictures/ILSVRC2012_test_00080382.JPEG	82.38210988044739	
40	51.58535695075989	picture	0		115.0	38.0	/home/egter/Projects/stimuli/pictures/n03670208_7944.JPEG	82.39197397232056	0.9583749771118164
40	52.52697205543518	response	0	k		38.0	/home/egter/Projects/stimuli/pictures/n03670208_7944.JPEG	83.33358907699585	
41	52.543731927871704	picture	0		72.0	39.0	/home/egter/Projects/stimuli/pictures/S_g201_AK_A003_C014_SDR_20191113_SDR_2K_AVC.png	83.35034894943237	0.6066040992736816
41	53.127017974853516	response	0	j		39.0	/home/egter/Projects/stimuli/pictures/S_g201_AK_A003_C014_SDR_20191113_SDR_2K_AVC.png	83.93363499641418	
42	53.150336027145386	picture	0		215.0	40.0	/home/egter/Projects/stimuli/pictures/n02749479_3074.JPEG	83.95695304870605	1.7962439060211182
42	54.92722797393799	response	0	k		40.0	/home/egter/Projects/stimuli/pictures/n02749479_3074.JPEG	85.73384499549866	
43	54.946579933166504	picture	0		96.0	41.0	/home/egter/Projects/stimuli/pictures/S_yt-WRBmpC-RxIc_678.png	85.75319695472717	0.7984490394592285
43	55.727022886276245	response	0	j		41.0	/home/egter/Projects/stimuli/pictures/S_yt-WRBmpC-RxIc_678.png	86.53363990783691	
44	55.74502897262573	picture	0		111.0	42.0	/home/egter/Projects/stimuli/pictures/n02133161_6861.JPEG	86.5516459941864	0.9303419589996338
44	56.65880084037781	response	0	k		42.0	/home/egter/Projects/stimuli/pictures/n02133161_6861.JPEG	87.46541786193848	
45	56.675370931625366	picture	0		121.0	43.0	/home/egter/Projects/stimuli/pictures/n01518878_6758.JPEG	87.48198795318604	1.0140979290008545
45	57.67568397521973	response	0	k		43.0	/home/egter/Projects/stimuli/pictures/n01518878_6758.JPEG	88.4823009967804	
46	57.68946886062622	picture	0		107.0	44.0	/home/egter/Projects/stimuli/pictures/R_S_ux8Mvi8P16k_168.png	88.49608588218689	0.9027249813079834
46	58.57545495033264	response	0	j		44.0	/home/egter/Projects/stimuli/pictures/R_S_ux8Mvi8P16k_168.png	89.38207197189331	
47	58.592193841934204	picture	0		126.0	45.0	/home/egter/Projects/stimuli/pictures/n04482393_28133.JPEG	89.39881086349487	1.0664641857147217
47	59.633946895599365	response	0	k		45.0	/home/egter/Projects/stimuli/pictures/n04482393_28133.JPEG	90.44056391716003	
48	59.658658027648926	picture	0		164.0	46.0	/home/egter/Projects/stimuli/pictures/n01694178_8064.JPEG	90.4652750492096	1.3710370063781738
48	61.017075061798096	response	0	k		46.0	/home/egter/Projects/stimuli/pictures/n01694178_8064.JPEG	91.82369208335876	
49	61.0296950340271	picture	0		130.0	47.0	/home/egter/Projects/stimuli/pictures/S_dnLAfffA-kU_53.png	91.83631205558777	1.0833189487457275
49	62.10045790672302	response	0	j		47.0	/home/egter/Projects/stimuli/pictures/S_dnLAfffA-kU_53.png	92.90707492828369	
50	62.11301398277283	picture	0		96.0	48.0	/home/egter/Projects/stimuli/pictures/n03379051_795.JPEG	92.9196310043335	0.7986850738525391
50	62.90044903755188	response	0	k		48.0	/home/egter/Projects/stimuli/pictures/n03379051_795.JPEG	93.70706605911255	
51	62.911699056625366	picture	0		298.0	49.0	/home/egter/Projects/stimuli/pictures/n02701002_1341.JPEG	93.71831607818604	2.4886209964752197
51	65.38398790359497	response	0	j		49.0	/home/egter/Projects/stimuli/pictures/n02701002_1341.JPEG	96.19060492515564	
52	65.40032005310059	picture	0		127.0	50.0	/home/egter/Projects/stimuli/pictures/R_S_ILSVRC2015_train_00601000.png	96.20693707466125	1.0666358470916748
52	66.45048093795776	response	0	j		50.0	/home/egter/Projects/stimuli/pictures/R_S_ILSVRC2015_train_00601000.png	97.25709795951843	
53	66.46695590019226	picture	0		85.0	51.0	/home/egter/Projects/stimuli/pictures/R_S_yt-i4kSCZ8rNC0_11.png	97.27357292175293	0.7166399955749512
53	67.1670880317688	response	0	j		51.0	/home/egter/Projects/stimuli/pictures/R_S_yt-i4kSCZ8rNC0_11.png	97.97370505332947	
54	67.18359589576721	picture	0		93.0	52.0	/home/egter/Projects/stimuli/pictures/R_S_yt-KVB49z48sZU_55.png	97.99021291732788	0.783332109451294
54	67.94354701042175	response	0	j		52.0	/home/egter/Projects/stimuli/pictures/R_S_yt-KVB49z48sZU_55.png	98.75016403198242	
55	67.9669280052185	picture	0		101.0	53.0	/home/egter/Projects/stimuli/pictures/S_pexels-laker-5793000.png	98.77354502677917	0.850024938583374
55	68.80060505867004	response	0	j		53.0	/home/egter/Projects/stimuli/pictures/S_pexels-laker-5793000.png	99.60722208023071	
56	68.81695294380188	picture	0		115.0	54.0	/home/egter/Projects/stimuli/pictures/ILSVRC2012_val_00037655.JPEG	99.62356996536255	0.9626948833465576
56	69.76701402664185	response	0	k		54.0	/home/egter/Projects/stimuli/pictures/ILSVRC2012_val_00037655.JPEG	100.57363104820251	
57	69.77964782714844	picture	0		91.0	55.0	/home/egter/Projects/stimuli/pictures/n04238763_1046.JPEG	100.5862648487091	0.763883113861084
57	70.51851987838745	response	0	k		55.0	/home/egter/Projects/stimuli/pictures/n04238763_1046.JPEG	101.32513689994812	
58	70.54353094100952	picture	0		83.0	56.0	/home/egter/Projects/stimuli/pictures/S_pexels-c-technical-6763571.png	101.35014796257019	0.6984169483184814
58	71.22542405128479	response	0	j		56.0	/home/egter/Projects/stimuli/pictures/S_pexels-c-technical-6763571.png	102.03204107284546	
59	71.241947889328	picture	0		151.0	57.0	/home/egter/Projects/stimuli/pictures/n02504013_1702.JPEG	102.04856491088867	1.2598421573638916
59	72.49206495285034	response	0	k		57.0	/home/egter/Projects/stimuli/pictures/n02504013_1702.JPEG	103.29868197441101	
60	72.5017900466919	picture	0		203.0	58.0	/home/egter/Projects/stimuli/pictures/S_yt-JizcV7kYuqM_132.png	103.30840706825256	1.6944358348846436
60	74.18372392654419	response	0	j		58.0	/home/egter/Projects/stimuli/pictures/S_yt-JizcV7kYuqM_132.png	104.99034094810486	
61	74.19622588157654	picture	0		100.0	59.0	/home/egter/Projects/stimuli/pictures/R_S_yt-bmGWhOCsvJo_128.png	105.0028429031372	0.833402156829834
61	75.0170509815216	response	0	j		59.0	/home/egter/Projects/stimuli/pictures/R_S_yt-bmGWhOCsvJo_128.png	105.82366800308228	
62	75.02962803840637	picture	0		144.0	60.0	/home/egter/Projects/stimuli/pictures/n02094258_5674.JPEG	105.83624505996704	1.2039380073547363
62	76.21719789505005	response	0	k		60.0	/home/egter/Projects/stimuli/pictures/n02094258_5674.JPEG	107.02381491661072	
63	76.23356604576111	picture	0		76.0	61.0	/home/egter/Projects/stimuli/pictures/S_yt-OLDm2slgfA4_3.png	107.04018306732178	0.6416878700256348
63	76.85871601104736	response	0	j		61.0	/home/egter/Projects/stimuli/pictures/S_yt-OLDm2slgfA4_3.png	107.66533303260803	
64	76.87525391578674	picture	0		88.0	62.0	/home/egter/Projects/stimuli/pictures/n07693725_2077.JPEG	107.68187093734741	0.7416520118713379
64	77.60049104690552	response	0	k		62.0	/home/egter/Projects/stimuli/pictures/n07693725_2077.JPEG	108.40710806846619	
65	77.61690592765808	picture	0		80.0	63.0	/home/egter/Projects/stimuli/pictures/R_S_ILSVRC2015_train_00303005.png	108.42352294921875	0.6695859432220459
65	78.27535891532898	response	0	j		63.0	/home/egter/Projects/stimuli/pictures/R_S_ILSVRC2015_train_00303005.png	109.08197593688965	
66	78.28649187088013	picture	0		142.0	64.0	/home/egter/Projects/stimuli/pictures/S_pexels-c-technical-6491262.png	109.0931088924408	1.180509090423584
66	79.458664894104	response	0	j		64.0	/home/egter/Projects/stimuli/pictures/S_pexels-c-technical-6491262.png	110.26528191566467	
67	79.46700096130371	picture	0		225.0	65.0	/home/egter/Projects/stimuli/pictures/n02025239_2049.JPEG	110.27361798286438	1.8750040531158447
67	81.32693290710449	response	0	j		65.0	/home/egter/Projects/stimuli/pictures/n02025239_2049.JPEG	112.13354992866516	
68	81.34200501441956	picture	0		81.0	66.0	/home/egter/Projects/stimuli/pictures/R_S_yt-BKkZUSowoxg_59.png	112.14862203598022	0.6832139492034912
68	82.00879001617432	response	0	j		66.0	/home/egter/Projects/stimuli/pictures/R_S_yt-BKkZUSowoxg_59.png	112.81540703773499	
69	82.02521896362305	picture	0		85.0	67.0	/home/egter/Projects/stimuli/pictures/ILSVRC2012_val_00013084.JPEG	112.83183598518372	0.712609052658081
69	82.71858286857605	response	0	k		67.0	/home/egter/Projects/stimuli/pictures/ILSVRC2012_val_00013084.JPEG	113.52519989013672	
70	82.73782801628113	picture	0		81.0	68.0	/home/egter/Projects/stimuli/pictures/n01694178_873.JPEG	113.5444450378418	0.6790308952331543
70	83.4003279209137	response	0	k		68.0	/home/egter/Projects/stimuli/pictures/n01694178_873.JPEG	114.20694494247437	
71	83.41685891151428	picture	0		72.0	69.0	/home/egter/Projects/stimuli/pictures/R_S_yt-gDZnJCR2uXI_18.png	114.22347593307495	0.6056640148162842
71	84.00875186920166	response	0	j		69.0	/home/egter/Projects/stimuli/pictures/R_S_yt-gDZnJCR2uXI_18.png	114.81536889076233	
72	84.02252292633057	picture	0		93.0	70.0	/home/egter/Projects/stimuli/pictures/S_yt-xUPucH7kNAs_178.png	114.82913994789124	0.7777590751647949
72	84.79194188117981	response	0	k		70.0	/home/egter/Projects/stimuli/pictures/S_yt-xUPucH7kNAs_178.png	115.59855890274048	
73	84.80028200149536	picture	0		297.0	71.0	/home/egter/Projects/stimuli/pictures/n04404412_31257.JPEG	115.60689902305603	2.4791760444641113
73	87.26692700386047	response	0	k		71.0	/home/egter/Projects/stimuli/pictures/n04404412_31257.JPEG	118.07354402542114	
74	87.27945804595947	picture	0		106.0	72.0	/home/egter/Projects/stimuli/pictures/R_S_pexels-anthony-shkraba-production-8135459.png	118.08607506752014	0.881950855255127
74	88.14361500740051	response	0	j		72.0	/home/egter/Projects/stimuli/pictures/R_S_pexels-anthony-shkraba-production-8135459.png	118.95023202896118	
75	88.1614089012146	picture	0		88.0	73.0	/home/egter/Projects/stimuli/pictures/R_S_pexels-cottonbro-9499408.png	118.96802592277527	0.7387809753417969
75	88.8837480545044	response	0	j		73.0	/home/egter/Projects/stimuli/pictures/R_S_pexels-cottonbro-9499408.png	119.69036507606506	
76	88.9001898765564	picture	0		80.0	74.0	/home/egter/Projects/stimuli/pictures/R_S_pexels-koolshooters-7327405.png	119.70680689811707	0.6708910465240479
76	89.55863285064697	response	0	j		74.0	/home/egter/Projects/stimuli/pictures/R_S_pexels-koolshooters-7327405.png	120.36524987220764	
77	89.57108092308044	picture	0		99.0	75.0	/home/egter/Projects/stimuli/pictures/n04458633_5045.JPEG	120.37769794464111	0.8264040946960449
77	90.38367295265198	response	0	k		75.0	/home/egter/Projects/stimuli/pictures/n04458633_5045.JPEG	121.19028997421265	
78	90.39748501777649	picture	0		153.0	76.0	/home/egter/Projects/stimuli/pictures/S_yt-omUwZYZrWy0_375.png	121.20410203933716	1.286017894744873
78	91.66697382926941	response	0	j		76.0	/home/egter/Projects/stimuli/pictures/S_yt-omUwZYZrWy0_375.png	122.47359085083008	
79	91.68350291252136	picture	0		100.0	77.0	/home/egter/Projects/stimuli/pictures/n03791053_10671.JPEG	122.49011993408203	0.8598380088806152
79	92.5086829662323	response	0	k		77.0	/home/egter/Projects/stimuli/pictures/n03791053_10671.JPEG	123.31529998779297	
80	92.54334092140198	picture	0		141.0	78.0	/home/egter/Projects/stimuli/pictures/R_S_yt-TBY8F6UMnJQ_51.png	123.34995794296265	1.1818320751190186
80	93.70862197875977	response	0	j		78.0	/home/egter/Projects/stimuli/pictures/R_S_yt-TBY8F6UMnJQ_51.png	124.51523900032043	
81	93.725172996521	picture	0		180.0	79.0	/home/egter/Projects/stimuli/pictures/S_production_ID_4802710.png	124.53179001808167	1.508316993713379
81	95.21701788902283	response	0	j		79.0	/home/egter/Projects/stimuli/pictures/S_production_ID_4802710.png	126.0236349105835	
82	95.23348999023438	picture	0		113.0	80.0	/home/egter/Projects/stimuli/pictures/S_yt-VTNBCfQxnsk_59.png	126.04010701179504	0.9500010013580322
82	96.16689991950989	response	0	j		80.0	/home/egter/Projects/stimuli/pictures/S_yt-VTNBCfQxnsk_59.png	126.97351694107056	
83	96.18349099159241	picture	0		79.0	81.0	/home/egter/Projects/stimuli/pictures/R_S_pexels-c-technical-6491262.png	126.99010801315308	0.6666519641876221
83	96.83361005783081	response	0	j		81.0	/home/egter/Projects/stimuli/pictures/R_S_pexels-c-technical-6491262.png	127.64022707939148	
84	96.85014295578003	picture	0		92.0	82.0	/home/egter/Projects/stimuli/pictures/S_cST9H3zu3zQ_126.png	127.6567599773407	0.7750148773193359
84	97.60861802101135	response	0	j		82.0	/home/egter/Projects/stimuli/pictures/S_cST9H3zu3zQ_126.png	128.41523504257202	
85	97.62515783309937	picture	0		75.0	83.0	/home/egter/Projects/stimuli/pictures/S_ILSVRC2015_train_00165009.png	128.43177485466003	0.6333391666412354
85	98.24188089370728	response	0	j		83.0	/home/egter/Projects/stimuli/pictures/S_ILSVRC2015_train_00165009.png	129.04849791526794	
86	98.2584969997406	picture	0		82.0	84.0	/home/egter/Projects/stimuli/pictures/n04599235_8085.JPEG	129.06511402130127	0.6916420459747314
86	98.92681694030762	response	0	k		84.0	/home/egter/Projects/stimuli/pictures/n04599235_8085.JPEG	129.7334339618683	
87	98.95013904571533	picture	0		285.0	85.0	/home/egter/Projects/stimuli/pictures/n02264363_448.JPEG	129.756756067276	2.3833529949188232
87	101.31691789627075	response	0	k		85.0	/home/egter/Projects/stimuli/pictures/n02264363_448.JPEG	132.12353491783142	
88	101.33349204063416	picture	0		74.0	86.0	/home/egter/Projects/stimuli/pictures/n04118776_8799.JPEG	132.14010906219482	0.6194930076599121
88	101.93513798713684	response	0	k		86.0	/home/egter/Projects/stimuli/pictures/n04118776_8799.JPEG	132.7417550086975	
89	101.95298504829407	picture	0		98.0	87.0	/home/egter/Projects/stimuli/pictures/S_yt-Xs-YKSogfak_24.png	132.75960206985474	0.8194358348846436
89	102.75179290771484	response	0	j		87.0	/home/egter/Projects/stimuli/pictures/S_yt-Xs-YKSogfak_24.png	133.5584099292755	
90	102.77242088317871	picture	0		86.0	88.0	/home/egter/Projects/stimuli/pictures/S_Xq0a2BWE3zA_53.png	133.57903790473938	0.7277390956878662
90	103.48353791236877	response	0	j		88.0	/home/egter/Projects/stimuli/pictures/S_Xq0a2BWE3zA_53.png	134.29015493392944	
91	103.50015997886658	picture	0		359.0	89.0	/home/egter/Projects/stimuli/pictures/n01872401_20618.JPEG	134.30677700042725	2.9999539852142334
91	106.48357605934143	response	0	k		89.0	/home/egter/Projects/stimuli/pictures/n01872401_20618.JPEG	137.2901930809021	
92	106.50011396408081	picture	0		120.0	90.0	/home/egter/Projects/stimuli/pictures/n03529860_10326.JPEG	137.30673098564148	1.001417875289917
92	107.49189305305481	response	0	k		90.0	/home/egter/Projects/stimuli/pictures/n03529860_10326.JPEG	138.29851007461548	
93	107.50153183937073	picture	0		148.0	91.0	/home/egter/Projects/stimuli/pictures/S_yt-oPeZEUtqKNM_27.png	138.3081488609314	1.2360961437225342
93	108.72517704963684	response	0	k		91.0	/home/egter/Projects/stimuli/pictures/S_yt-oPeZEUtqKNM_27.png	139.5317940711975	
94	108.73762798309326	picture	0		92.0	92.0	/home/egter/Projects/stimuli/pictures/n03384352_6994.JPEG	139.54424500465393	0.7638440132141113
94	109.49182605743408	response	0	k		92.0	/home/egter/Projects/stimuli/pictures/n03384352_6994.JPEG	140.29844307899475	
95	109.50147199630737	picture	0		95.0	93.0	/home/egter/Projects/stimuli/pictures/n02687172_14814.JPEG	140.30808901786804	0.791679859161377
95	110.28353595733643	response	0	k		93.0	/home/egter/Projects/stimuli/pictures/n02687172_14814.JPEG	141.0901529788971	
96	110.29315185546875	picture	0		367.0	94.0	/home/egter/Projects/stimuli/pictures/n01692333_9591.JPEG	141.09976887702942	3.0624501705169678
96	113.33510494232178	response	0	k		94.0	/home/egter/Projects/stimuli/pictures/n01692333_9591.JPEG	144.14172196388245	
97	113.35560202598572	picture	0		86.0	95.0	/home/egter/Projects/stimuli/pictures/S_ILSVRC2015_train_00079001.png	144.1622190475464	0.7222428321838379
97	114.06688690185547	response	0	j		95.0	/home/egter/Projects/stimuli/pictures/S_ILSVRC2015_train_00079001.png	144.87350392341614	
98	114.07784485816956	picture	0		93.0	96.0	/home/egter/Projects/stimuli/pictures/S_X-D3lUv-atE_376.png	144.88446187973022	0.7777731418609619
98	114.84186291694641	response	0	j		96.0	/home/egter/Projects/stimuli/pictures/S_X-D3lUv-atE_376.png	145.64847993850708	
99	114.85561800003052	picture	0		131.0	97.0	/home/egter/Projects/stimuli/pictures/n02087046_6361.JPEG	145.6622350215912	1.0971708297729492
99	115.93513703346252	response	0	k		97.0	/home/egter/Projects/stimuli/pictures/n02087046_6361.JPEG	146.7417540550232	
100	115.95278882980347	picture	0		102.0	98.0	/home/egter/Projects/stimuli/pictures/R_S_pexels-cottonbro-6789231.png	146.75940585136414	0.8473072052001953
100	116.79187989234924	response	0	j		98.0	/home/egter/Projects/stimuli/pictures/R_S_pexels-cottonbro-6789231.png	147.5984969139099	
101	116.80009603500366	picture	0		79.0	99.0	/home/egter/Projects/stimuli/pictures/n04493381_16795.JPEG	147.60671305656433	0.6596570014953613
101	117.4501850605011	response	0	k		99.0	/home/egter/Projects/stimuli/pictures/n04493381_16795.JPEG	148.25680208206177	
102	117.45975303649902	picture	0		80.0	100.0	/home/egter/Projects/stimuli/pictures/n04004767_6042.JPEG	148.2663700580597	0.6736187934875488
102	118.11686682701111	response	0	k		100.0	/home/egter/Projects/stimuli/pictures/n04004767_6042.JPEG	148.92348384857178	
103	118.13337182998657	picture	0		95.0	101.0	/home/egter/Projects/stimuli/pictures/S_yt-hvuC_2YXsTQ_159.png	148.93998885154724	0.8000030517578125
103	118.9168438911438	response	0	j		101.0	/home/egter/Projects/stimuli/pictures/S_yt-hvuC_2YXsTQ_159.png	149.72346091270447	
104	118.93337488174438	picture	0		102.0	102.0	/home/egter/Projects/stimuli/pictures/R_S_yt-q9kT_c9QjbQ_34.png	149.73999190330505	0.8583590984344482
104	119.77510094642639	response	0	j		102.0	/home/egter/Projects/stimuli/pictures/R_S_yt-q9kT_c9QjbQ_34.png	150.58171796798706	
105	119.79173398017883	picture	0		84.0	103.0	/home/egter/Projects/stimuli/pictures/R_S_Xq0a2BWE3zA_53.png	150.5983510017395	0.7083468437194824
105	120.48351001739502	response	0	j		103.0	/home/egter/Projects/stimuli/pictures/R_S_Xq0a2BWE3zA_53.png	151.2901270389557	
106	120.50008082389832	picture	0		101.0	104.0	/home/egter/Projects/stimuli/pictures/R_S_production_ID_4101244.png	151.30669784545898	0.8499391078948975
106	121.33346199989319	response	0	j		104.0	/home/egter/Projects/stimuli/pictures/R_S_production_ID_4101244.png	152.14007902145386	
107	121.35001993179321	picture	0		83.0	105.0	/home/egter/Projects/stimuli/pictures/S_yt-ayx4rU9bJrU_179.png	152.15663695335388	0.7000370025634766
107	122.03360795974731	response	0	j		105.0	/home/egter/Projects/stimuli/pictures/S_yt-ayx4rU9bJrU_179.png	152.84022498130798	
108	122.05005693435669	picture	0		287.0	106.0	/home/egter/Projects/stimuli/pictures/n01914609_785.JPEG	152.85667395591736	2.3956921100616455
108	124.43348097801208	response	0	j		106.0	/home/egter/Projects/stimuli/pictures/n01914609_785.JPEG	155.24009799957275	
109	124.44574904441833	picture	0		72.0	107.0	/home/egter/Projects/stimuli/pictures/n04389033_19081.JPEG	155.252366065979	0.5972788333892822
109	125.03345704078674	response	0	k		107.0	/home/egter/Projects/stimuli/pictures/n04389033_19081.JPEG	155.8400740623474	
110	125.04302787780762	picture	0		95.0	108.0	/home/egter/Projects/stimuli/pictures/R_S_ILSVRC2015_train_00469000.png	155.8496448993683	0.7916300296783447
110	125.82515096664429	response	0	j		108.0	/home/egter/Projects/stimuli/pictures/R_S_ILSVRC2015_train_00469000.png	156.63176798820496	
111	125.83465790748596	picture	0		109.0	109.0	/home/egter/Projects/stimuli/pictures/R_S_Y003_C009_SDR_2K_AVC.png	156.64127492904663	0.9153690338134766
111	126.73348593711853	response	0	k		109.0	/home/egter/Projects/stimuli/pictures/R_S_Y003_C009_SDR_2K_AVC.png	157.5401029586792	
112	126.75002694129944	picture	0		81.0	110.0	/home/egter/Projects/stimuli/pictures/S_yt-PRqnM7xDsus_24.png	157.5566439628601	0.6818199157714844
112	127.41676187515259	response	0	j		110.0	/home/egter/Projects/stimuli/pictures/S_yt-PRqnM7xDsus_24.png	158.22337889671326	
113	127.43184685707092	picture	0		140.0	111.0	/home/egter/Projects/stimuli/pictures/R_S_59eT4XDXNno_25.png	158.2384638786316	1.1764781475067139
113	128.59180402755737	response	0	j		111.0	/home/egter/Projects/stimuli/pictures/R_S_59eT4XDXNno_25.png	159.39842104911804	
114	128.60832500457764	picture	0		186.0	112.0	/home/egter/Projects/stimuli/pictures/R_S_wc-hmW1OnCPF_xn_37.png	159.4149420261383	1.558337926864624
114	130.1434109210968	response	0	j		112.0	/home/egter/Projects/stimuli/pictures/R_S_wc-hmW1OnCPF_xn_37.png	160.95002794265747	
115	130.16666293144226	picture	0		178.0	113.0	/home/egter/Projects/stimuli/pictures/R_S_yt-fLNDhX22diw_98.png	160.97327995300293	1.4943079948425293
115	131.6418080329895	response	0	j		113.0	/home/egter/Projects/stimuli/pictures/R_S_yt-fLNDhX22diw_98.png	162.44842505455017	
116	131.6609709262848	picture	0		158.0	114.0	/home/egter/Projects/stimuli/pictures/n02087394_6350.JPEG	162.46758794784546	1.3194379806518555
116	132.95996689796448	response	0	k		114.0	/home/egter/Projects/stimuli/pictures/n02087394_6350.JPEG	163.76658391952515	
117	132.98040890693665	picture	0		81.0	115.0	/home/egter/Projects/stimuli/pictures/n03838899_21453.JPEG	163.78702592849731	0.6862659454345703
117	133.65013885498047	response	0	k		115.0	/home/egter/Projects/stimuli/pictures/n03838899_21453.JPEG	164.45675587654114	
118	133.66667485237122	picture	0		75.0	116.0	/home/egter/Projects/stimuli/pictures/S_production_ID_3927047.png	164.47329187393188	0.6332809925079346
118	134.28347492218018	response	0	k		116.0	/home/egter/Projects/stimuli/pictures/S_production_ID_3927047.png	165.09009194374084	
119	134.29995584487915	picture	0		489.0	117.0	/home/egter/Projects/stimuli/pictures/R_S_yt-4oT-2eGhmUo_102.png	165.10657286643982	4.076243162155151
119	138.35999584197998	response	0	j		117.0	/home/egter/Projects/stimuli/pictures/R_S_yt-4oT-2eGhmUo_102.png	169.16661286354065	
120	138.3761990070343	picture	0		95.0	118.0	/home/egter/Projects/stimuli/pictures/S_yt-78k6vUHDWAI_206.png	169.18281602859497	0.7987680435180664
120	139.15166902542114	response	0	j		118.0	/home/egter/Projects/stimuli/pictures/S_yt-78k6vUHDWAI_206.png	169.9582860469818	
121	139.17496705055237	picture	0		97.0	119.0	/home/egter/Projects/stimuli/pictures/S_wc-NzEeGIXLxvwp_19.png	169.98158407211304	0.8166389465332031
121	139.96830701828003	response	0	j		119.0	/home/egter/Projects/stimuli/pictures/S_wc-NzEeGIXLxvwp_19.png	170.7749240398407	
122	139.99160599708557	picture	0		205.0	120.0	/home/egter/Projects/stimuli/pictures/n03355925_24884.JPEG	170.79822301864624	1.716691017150879
122	141.69177198410034	response	0	k		120.0	/home/egter/Projects/stimuli/pictures/n03355925_24884.JPEG	172.498389005661	
123	141.70829701423645	picture	0		87.0	121.0	/home/egter/Projects/stimuli/pictures/n03633091_8817.JPEG	172.51491403579712	0.7303969860076904
123	142.4251148700714	response	0	k		121.0	/home/egter/Projects/stimuli/pictures/n03633091_8817.JPEG	173.23173189163208	
124	142.43869400024414	picture	0		106.0	122.0	/home/egter/Projects/stimuli/pictures/R_S_yt--DXkjCUzThU_413.png	173.2453110218048	0.8888828754425049
124	143.31673288345337	response	0	j		122.0	/home/egter/Projects/stimuli/pictures/R_S_yt--DXkjCUzThU_413.png	174.12334990501404	
125	143.32757687568665	picture	0		150.0	123.0	/home/egter/Projects/stimuli/pictures/n01675722_5351.JPEG	174.13419389724731	1.2557411193847656
125	144.55998992919922	response	0	k		123.0	/home/egter/Projects/stimuli/pictures/n01675722_5351.JPEG	175.3666069507599	
126	144.5833179950714	picture	0		131.0	124.0	/home/egter/Projects/stimuli/pictures/n01990800_8997.JPEG	175.38993501663208	1.098412036895752
126	145.66676497459412	response	0	k		124.0	/home/egter/Projects/stimuli/pictures/n01990800_8997.JPEG	176.47338199615479	
127	145.68173003196716	picture	0		125.0	125.0	/home/egter/Projects/stimuli/pictures/S_yt-QJHe-CoK4iI_170.png	176.48834705352783	1.048534870147705
127	146.71674585342407	response	0	j		125.0	/home/egter/Projects/stimuli/pictures/S_yt-QJHe-CoK4iI_170.png	177.52336287498474	
128	146.73026490211487	picture	0		511.0	126.0	/home/egter/Projects/stimuli/pictures/n02125311_11693.JPEG	177.53688192367554	4.2639031410217285
128	150.97655296325684	response	0	k		126.0	/home/egter/Projects/stimuli/pictures/n02125311_11693.JPEG	181.7831699848175	
129	150.9941680431366	picture	0		79.0	127.0	/home/egter/Projects/stimuli/pictures/R_S_yt-JmmyeMOFpII_29.png	181.80078506469727	0.6597278118133545
129	151.64177799224854	response	0	j		127.0	/home/egter/Projects/stimuli/pictures/R_S_yt-JmmyeMOFpII_29.png	182.4483950138092	
130	151.65389585494995	picture	0		114.0	128.0	/home/egter/Projects/stimuli/pictures/S_yt-dkBlyE3igk0_44.png	182.46051287651062	0.9513370990753174
130	152.5848388671875	response	0	j		128.0	/home/egter/Projects/stimuli/pictures/S_yt-dkBlyE3igk0_44.png	183.39145588874817	
131	152.60523295402527	picture	0		107.0	129.0	/home/egter/Projects/stimuli/pictures/n01630670_8283.JPEG	183.41184997558594	0.9030470848083496
131	153.49176001548767	response	0	k		129.0	/home/egter/Projects/stimuli/pictures/n01630670_8283.JPEG	184.29837703704834	
132	153.50828003883362	picture	0		114.0	130.0	/home/egter/Projects/stimuli/pictures/S_yt-Id-f63kUHsE_20.png	184.3148970603943	0.9511198997497559
132	154.4501039981842	response	0	j		130.0	/home/egter/Projects/stimuli/pictures/S_yt-Id-f63kUHsE_20.png	185.25672101974487	
133	154.45939993858337	picture	0		313.0	131.0	/home/egter/Projects/stimuli/pictures/R_S_yt--vHa85DHvLU_31.png	185.26601696014404	2.6111459732055664
133	157.05838894844055	response	0	j		131.0	/home/egter/Projects/stimuli/pictures/R_S_yt--vHa85DHvLU_31.png	187.86500597000122	
134	157.07054591178894	picture	0		116.0	132.0	/home/egter/Projects/stimuli/pictures/n02106382_1537.JPEG	187.8771629333496	0.9710540771484375
134	158.0251269340515	response	0	k		132.0	/home/egter/Projects/stimuli/pictures/n02106382_1537.JPEG	188.83174395561218	
135	158.04159998893738	picture	0		96.0	133.0	/home/egter/Projects/stimuli/pictures/R_S_yt-7W50lcw5FCo_37.png	188.84821701049805	0.8083159923553467
135	158.83337998390198	response	0	j		133.0	/home/egter/Projects/stimuli/pictures/R_S_yt-7W50lcw5FCo_37.png	189.63999700546265	
136	158.84991598129272	picture	0		1374.0	134.0	/home/egter/Projects/stimuli/pictures/S_yt-2kPrGwVmRfE_169.png	189.6565330028534	11.456588983535767
136	170.29162693023682	response	0	j		134.0	/home/egter/Projects/stimuli/pictures/S_yt-2kPrGwVmRfE_169.png	201.09824395179749	
137	170.3065049648285	picture	0		217.0	135.0	/home/egter/Projects/stimuli/pictures/n01685808_3011.JPEG	201.11312198638916	1.8124539852142334
137	172.10831689834595	response	0	k		135.0	/home/egter/Projects/stimuli/pictures/n01685808_3011.JPEG	202.91493391990662	
138	172.11895895004272	picture	0		108.0	136.0	/home/egter/Projects/stimuli/pictures/S_wc-yoyQRWvHhC_x_3.png	202.9255759716034	0.9058730602264404
138	173.00827383995056	response	0	k		136.0	/home/egter/Projects/stimuli/pictures/S_wc-yoyQRWvHhC_x_3.png	203.81489086151123	
139	173.02483201026917	picture	0		92.0	137.0	/home/egter/Projects/stimuli/pictures/R_S_ILSVRC2015_train_00495000.png	203.83144903182983	0.7677090167999268
139	173.7765200138092	response	0	j		137.0	/home/egter/Projects/stimuli/pictures/R_S_ILSVRC2015_train_00495000.png	204.58313703536987	
140	173.7925410270691	picture	0		112.0	138.0	/home/egter/Projects/stimuli/pictures/R_S_production_ID_5020953.png	204.59915804862976	0.9406538009643555
140	174.71665787696838	response	0	j		138.0	/home/egter/Projects/stimuli/pictures/R_S_production_ID_5020953.png	205.52327489852905	
141	174.73319482803345	picture	0		196.0	139.0	/home/egter/Projects/stimuli/pictures/R_S_ILSVRC2015_train_00661001.png	205.53981184959412	1.6416761875152588
141	176.358314037323	response	0	j		139.0	/home/egter/Projects/stimuli/pictures/R_S_ILSVRC2015_train_00661001.png	207.16493105888367	
142	176.3748710155487	picture	0		91.0	140.0	/home/egter/Projects/stimuli/pictures/S_yt--xKSTYy9mcA_54.png	207.18148803710938	0.7665660381317139
142	177.12484502792358	response	0	j		140.0	/home/egter/Projects/stimuli/pictures/S_yt--xKSTYy9mcA_54.png	207.93146204948425	
143	177.14143705368042	picture	0		169.0	141.0	/home/egter/Projects/stimuli/pictures/n02077923_15442.JPEG	207.9480540752411	1.4167218208312988
143	178.541650056839	response	0	k		141.0	/home/egter/Projects/stimuli/pictures/n02077923_15442.JPEG	209.34826707839966	
144	178.55815887451172	picture	0		99.0	142.0	/home/egter/Projects/stimuli/pictures/S_yt-316ecr1BT84_44.png	209.3647758960724	0.8333380222320557
144	179.36815285682678	response	0	j		142.0	/home/egter/Projects/stimuli/pictures/S_yt-316ecr1BT84_44.png	210.17476987838745	
145	179.39149689674377	picture	0		146.0	143.0	/home/egter/Projects/stimuli/pictures/n01685808_184.JPEG	210.19811391830444	1.2206051349639893
145	180.59997391700745	response	0	k		143.0	/home/egter/Projects/stimuli/pictures/n01685808_184.JPEG	211.40659093856812	
146	180.61210203170776	picture	0		79.0	144.0	/home/egter/Projects/stimuli/pictures/n04238763_5156.JPEG	211.41871905326843	0.6710498332977295
146	181.26658987998962	response	0	k		144.0	/home/egter/Projects/stimuli/pictures/n04238763_5156.JPEG	212.0732069015503	
147	181.2831518650055	picture	0		161.0	145.0	/home/egter/Projects/stimuli/pictures/S_yt-7tLvK2IEwRM_4.png	212.08976888656616	1.342637062072754
147	182.61660289764404	response	0	k		145.0	/home/egter/Projects/stimuli/pictures/S_yt-7tLvK2IEwRM_4.png	213.4232199192047	
148	182.62578892707825	picture	0		347.0	146.0	/home/egter/Projects/stimuli/pictures/n01735189_13393.JPEG	213.43240594863892	2.899017095565796
148	185.50823187828064	response	0	k		146.0	/home/egter/Projects/stimuli/pictures/n01735189_13393.JPEG	216.3148488998413	
149	185.52480602264404	picture	0		488.0	147.0	/home/egter/Projects/stimuli/pictures/n03482405_6169.JPEG	216.3314230442047	4.07499098777771
149	189.57650685310364	response	0	k		147.0	/home/egter/Projects/stimuli/pictures/n03482405_6169.JPEG	220.3831238746643	
150	189.59979701042175	picture	0		78.0	148.0	/home/egter/Projects/stimuli/pictures/n03733281_8344.JPEG	220.40641403198242	0.6583209037780762
150	190.24160385131836	response	0	k		148.0	/home/egter/Projects/stimuli/pictures/n03733281_8344.JPEG	221.04822087287903	
151	190.25811791419983	picture	0		90.0	149.0	/home/egter/Projects/stimuli/pictures/S_pexels-anthony-shkraba-production-8135459.png	221.0647349357605	0.7583270072937012
151	190.99319982528687	response	0	j		149.0	/home/egter/Projects/stimuli/pictures/S_pexels-anthony-shkraba-production-8135459.png	221.79981684684753	
152	191.01644492149353	picture	0		477.0	150.0	/home/egter/Projects/stimuli/pictures/ILSVRC2012_test_00085201.JPEG	221.8230619430542	3.984250068664551
152	194.97637486457825	response	0	j		150.0	/home/egter/Projects/stimuli/pictures/ILSVRC2012_test_00085201.JPEG	225.78299188613892	
153	195.00069499015808	picture	0		96.0	151.0	/home/egter/Projects/stimuli/pictures/n02865351_5992.JPEG	225.80731201171875	0.8074660301208496
153	195.78485584259033	response	0	k		151.0	/home/egter/Projects/stimuli/pictures/n02865351_5992.JPEG	226.591472864151	
154	195.80816102027893	picture	0		83.0	152.0	/home/egter/Projects/stimuli/pictures/R_S_yt-Pinnv3-3GFU_452.png	226.6147780418396	0.6999669075012207
154	196.49150395393372	response	0	j		152.0	/home/egter/Projects/stimuli/pictures/R_S_yt-Pinnv3-3GFU_452.png	227.29812097549438	
155	196.50812792778015	picture	0		138.0	153.0	/home/egter/Projects/stimuli/pictures/S_yt-LGjuqDnv9s8_5.png	227.31474494934082	1.152209997177124
155	197.6498508453369	response	0	k		153.0	/home/egter/Projects/stimuli/pictures/S_yt-LGjuqDnv9s8_5.png	228.45646786689758	
156	197.66033792495728	picture	0		120.0	154.0	/home/egter/Projects/stimuli/pictures/R_S_yt-ZzC953ahaxs_195.png	228.46695494651794	1.0060710906982422
156	198.64993405342102	response	0	j		154.0	/home/egter/Projects/stimuli/pictures/R_S_yt-ZzC953ahaxs_195.png	229.4565510749817	
157	198.66640901565552	picture	0		97.0	155.0	/home/egter/Projects/stimuli/pictures/R_S_yt-2kPrGwVmRfE_169.png	229.4730260372162	0.8166639804840088
157	199.46653604507446	response	0	j		155.0	/home/egter/Projects/stimuli/pictures/R_S_yt-2kPrGwVmRfE_169.png	230.27315306663513	
158	199.48307299613953	picture	0		104.0	156.0	/home/egter/Projects/stimuli/pictures/S_yt-26009GpQuUg_3.png	230.2896900177002	0.8786900043487549
158	200.34150385856628	response	0	j		156.0	/home/egter/Projects/stimuli/pictures/S_yt-26009GpQuUg_3.png	231.14812088012695	
159	200.36176300048828	picture	0		85.0	157.0	/home/egter/Projects/stimuli/pictures/n02641379_39329.JPEG	231.16838002204895	0.7129778861999512
159	201.058207988739	response	0	k		157.0	/home/egter/Projects/stimuli/pictures/n02641379_39329.JPEG	231.86482501029968	
160	201.07474088668823	picture	0		117.0	158.0	/home/egter/Projects/stimuli/pictures/n07716906_10696.JPEG	231.8813579082489	0.9883911609649658
160	202.0415198802948	response	0	k		158.0	/home/egter/Projects/stimuli/pictures/n07716906_10696.JPEG	232.84813690185547	
161	202.0631320476532	picture	0		114.0	159.0	/home/egter/Projects/stimuli/pictures/n02447366_15660.JPEG	232.86974906921387	0.96160888671875
161	203.00830793380737	response	0	k		159.0	/home/egter/Projects/stimuli/pictures/n02447366_15660.JPEG	233.81492495536804	
162	203.02474093437195	picture	0		88.0	160.0	/home/egter/Projects/stimuli/pictures/n03785016_18313.JPEG	233.83135795593262	0.741584062576294
162	203.74981093406677	response	0	k		160.0	/home/egter/Projects/stimuli/pictures/n03785016_18313.JPEG	234.55642795562744	
163	203.76632499694824	picture	0		201.0	161.0	/home/egter/Projects/stimuli/pictures/n03895866_38388.JPEG	234.5729420185089	1.6834089756011963
163	205.43317198753357	response	0	k		161.0	/home/egter/Projects/stimuli/pictures/n03895866_38388.JPEG	236.23978900909424	
164	205.44973397254944	picture	0		130.0	162.0	/home/egter/Projects/stimuli/pictures/R_S_yt-VTNBCfQxnsk_59.png	236.2563509941101	1.0916500091552734
164	206.52507495880127	response	0	j		162.0	/home/egter/Projects/stimuli/pictures/R_S_yt-VTNBCfQxnsk_59.png	237.33169198036194	
165	206.5413839817047	picture	0		103.0	163.0	/home/egter/Projects/stimuli/pictures/n07717556_11398.JPEG	237.34800100326538	0.8666708469390869
165	207.38474798202515	response	0	k		163.0	/home/egter/Projects/stimuli/pictures/n07717556_11398.JPEG	238.19136500358582	
166	207.4080548286438	picture	0		121.0	164.0	/home/egter/Projects/stimuli/pictures/R_S_comp_HK_H004_C013_t9_6M_HB_tag0.png	238.21467185020447	1.0165860652923584
166	208.40806984901428	response	0	j		164.0	/home/egter/Projects/stimuli/pictures/R_S_comp_HK_H004_C013_t9_6M_HB_tag0.png	239.21468687057495	
167	208.42464089393616	picture	0		110.0	165.0	/home/egter/Projects/stimuli/pictures/S_yt-XHYYkaHcEtM_72.png	239.23125791549683	0.9250781536102295
167	209.33312106132507	response	0	j		165.0	/home/egter/Projects/stimuli/pictures/S_yt-XHYYkaHcEtM_72.png	240.13973808288574	
168	209.3497190475464	picture	0		138.0	166.0	/home/egter/Projects/stimuli/pictures/R_S_yt-SyePE8wOlxs_321.png	240.15633606910706	1.158315896987915
168	210.4914939403534	response	0	j		166.0	/home/egter/Projects/stimuli/pictures/R_S_yt-SyePE8wOlxs_321.png	241.29811096191406	
169	210.5080349445343	picture	0		98.0	167.0	/home/egter/Projects/stimuli/pictures/n01882714_3551.JPEG	241.31465196609497	0.8249719142913818
169	211.31651782989502	response	0	k		167.0	/home/egter/Projects/stimuli/pictures/n01882714_3551.JPEG	242.1231348514557	
170	211.33300685882568	picture	0		91.0	168.0	/home/egter/Projects/stimuli/pictures/R_S_yt-PRqnM7xDsus_24.png	242.13962388038635	0.7666380405426025
170	212.0831069946289	response	0	j		168.0	/home/egter/Projects/stimuli/pictures/R_S_yt-PRqnM7xDsus_24.png	242.88972401618958	
171	212.0996448993683	picture	0		195.0	169.0	/home/egter/Projects/stimuli/pictures/S_yt-HsiWrFBbUuU_10.png	242.90626192092896	1.630021095275879
171	213.71645188331604	response	0	k		169.0	/home/egter/Projects/stimuli/pictures/S_yt-HsiWrFBbUuU_10.png	244.5230689048767	
172	213.72966599464417	picture	0		98.0	170.0	/home/egter/Projects/stimuli/pictures/n09246464_16480.JPEG	244.53628301620483	0.8283238410949707
172	214.54145288467407	response	0	k		170.0	/home/egter/Projects/stimuli/pictures/n09246464_16480.JPEG	245.34806990623474	
173	214.55798983573914	picture	0		96.0	171.0	/home/egter/Projects/stimuli/pictures/R_S_yt-Ub5Xx5BqIOk_74.png	245.3646068572998	0.8083360195159912
173	215.34978103637695	response	0	j		171.0	/home/egter/Projects/stimuli/pictures/R_S_yt-Ub5Xx5BqIOk_74.png	246.15639805793762	
174	215.36632585525513	picture	0		368.0	172.0	/home/egter/Projects/stimuli/pictures/S_yt-hyZEDFkh49w_196.png	246.1729428768158	3.0749361515045166
174	218.42472386360168	response	0	j		172.0	/home/egter/Projects/stimuli/pictures/S_yt-hyZEDFkh49w_196.png	249.23134088516235	
175	218.44126200675964	picture	0		173.0	173.0	/home/egter/Projects/stimuli/pictures/S_production_ID_4428752.png	249.2478790283203	1.450028896331787
175	219.8747580051422	response	0	k		173.0	/home/egter/Projects/stimuli/pictures/S_production_ID_4428752.png	250.68137502670288	
176	219.89129090309143	picture	0		330.0	174.0	/home/egter/Projects/stimuli/pictures/n02859443_32287.JPEG	250.6979079246521	2.7583250999450684
176	222.63302183151245	response	0	k		174.0	/home/egter/Projects/stimuli/pictures/n02859443_32287.JPEG	253.43963885307312	
177	222.6496160030365	picture	0		109.0	175.0	/home/egter/Projects/stimuli/pictures/S_yt-UBqUhu-GEVg_6.png	253.45623302459717	0.916640043258667
177	223.54971194267273	response	0	j		175.0	/home/egter/Projects/stimuli/pictures/S_yt-UBqUhu-GEVg_6.png	254.3563289642334	
178	223.56625604629517	picture	0		156.0	176.0	/home/egter/Projects/stimuli/pictures/n02790996_8201.JPEG	254.37287306785583	1.3083789348602295
178	224.8580470085144	response	0	k		176.0	/home/egter/Projects/stimuli/pictures/n02790996_8201.JPEG	255.66466403007507	
179	224.8746349811554	picture	0		114.0	177.0	/home/egter/Projects/stimuli/pictures/R_S_yt-Xs-YKSogfak_24.png	255.68125200271606	0.9521300792694092
179	225.8095338344574	response	0	j		177.0	/home/egter/Projects/stimuli/pictures/R_S_yt-Xs-YKSogfak_24.png	256.61615085601807	
180	225.8267650604248	picture	0		112.0	178.0	/home/egter/Projects/stimuli/pictures/S_w-Nhc-DgaYI_1.png	256.6333820819855	0.9396088123321533
180	226.7497160434723	response	0	k		178.0	/home/egter/Projects/stimuli/pictures/S_w-Nhc-DgaYI_1.png	257.55633306503296	
181	226.76637387275696	picture	0		180.0	179.0	/home/egter/Projects/stimuli/pictures/n02123045_15494.JPEG	257.5729908943176	1.5048480033874512
181	228.25795483589172	response	0	j		179.0	/home/egter/Projects/stimuli/pictures/n02123045_15494.JPEG	259.0645718574524	
182	228.2712218761444	stim	0		224.0			259.0778388977051	1.8616480827331543
182	230.12466502189636	response	0	space				260.93128204345703	
