trial_nr	onset	event_type	phase	response	nr_frames	picture_index	picture_file	onset_abs	duration
0	0.009552001953125	stim	0		7683.0			35.454500913619995	64.03112506866455
0	64.02374601364136	response	0	space				99.46869492530823	
2	64.04067707061768	picture	0		179.0	0.0	/home/egter/Projects/stimuli/pictures/S_pexels-ron-lach-8071987.png	99.48562598228455	1.493116855621338
2	65.51690888404846	response	0	j		0.0	/home/egter/Projects/stimuli/pictures/S_pexels-ron-lach-8071987.png	100.96185779571533	
3	65.53379392623901	picture	0		191.0	1.0	/home/egter/Projects/stimuli/pictures/S_yt-vOC7cBvdSw8_11.png	100.97874283790588	1.5901310443878174
3	67.11529493331909	response	0	k		1.0	/home/egter/Projects/stimuli/pictures/S_yt-vOC7cBvdSw8_11.png	102.56024384498596	
4	67.12392497062683	picture	0		117.0	2.0	/home/egter/Projects/stimuli/pictures/R_S_yt-hvuC_2YXsTQ_159.png	102.5688738822937	0.9791998863220215
4	68.09024405479431	response	0	j		2.0	/home/egter/Projects/stimuli/pictures/R_S_yt-hvuC_2YXsTQ_159.png	103.53519296646118	
5	68.10312485694885	picture	0		98.0	3.0	/home/egter/Projects/stimuli/pictures/R_S_wc-dwTccI0TNwps_15.png	103.54807376861572	0.8263750076293945
5	68.91572499275208	response	0	j		3.0	/home/egter/Projects/stimuli/pictures/R_S_wc-dwTccI0TNwps_15.png	104.36067390441895	
6	68.92949986457825	picture	0		120.0	4.0	/home/egter/Projects/stimuli/pictures/n03888257_17004.JPEG	104.37444877624512	1.0069491863250732
6	69.91728091239929	response	0	k		4.0	/home/egter/Projects/stimuli/pictures/n03888257_17004.JPEG	105.36222982406616	
7	69.93644905090332	picture	0		116.0	5.0	/home/egter/Projects/stimuli/pictures/n01944390_3807.JPEG	105.38139796257019	0.9721918106079102
7	70.89853501319885	response	0	k		5.0	/home/egter/Projects/stimuli/pictures/n01944390_3807.JPEG	106.34348392486572	
8	70.90864086151123	picture	0		76.0	6.0	/home/egter/Projects/stimuli/pictures/R_S_yt-xrPrnzvWUkY_7.png	106.3535897731781	0.6318981647491455
8	71.52505993843079	response	0	j		6.0	/home/egter/Projects/stimuli/pictures/R_S_yt-xrPrnzvWUkY_7.png	106.97000885009766	
9	71.54053902626038	picture	0		88.0	7.0	/home/egter/Projects/stimuli/pictures/n01855032_8027.JPEG	106.98548793792725	0.7361228466033936
9	72.2651629447937	response	0	k		7.0	/home/egter/Projects/stimuli/pictures/n01855032_8027.JPEG	107.71011185646057	
10	72.27666187286377	picture	0		96.0	8.0	/home/egter/Projects/stimuli/pictures/n02116738_10613.JPEG	107.72161078453064	0.7985920906066895
10	73.065181016922	response	0	k		8.0	/home/egter/Projects/stimuli/pictures/n02116738_10613.JPEG	108.51012992858887	
11	73.07525396347046	picture	0		90.0	9.0	/home/egter/Projects/stimuli/pictures/R_S_pexels-rodnae-productions-5544703.png	108.52020287513733	0.7500419616699219
11	73.81518387794495	response	0	j		9.0	/home/egter/Projects/stimuli/pictures/R_S_pexels-rodnae-productions-5544703.png	109.26013278961182	
12	73.82529592514038	picture	0		118.0	10.0	/home/egter/Projects/stimuli/pictures/S_yt-pPIHiIYSjW8_653.png	109.27024483680725	0.9861030578613281
12	74.79844999313354	response	0	j		10.0	/home/egter/Projects/stimuli/pictures/S_yt-pPIHiIYSjW8_653.png	110.24339890480042	
13	74.81139898300171	picture	0		98.0	11.0	/home/egter/Projects/stimuli/pictures/n02395406_3109.JPEG	110.25634789466858	0.8263809680938721
13	75.62395286560059	response	0	k		11.0	/home/egter/Projects/stimuli/pictures/n02395406_3109.JPEG	111.06890177726746	
14	75.63777995109558	picture	0		93.0	12.0	/home/egter/Projects/stimuli/pictures/n03598930_3498.JPEG	111.08272886276245	0.7777290344238281
14	76.40684294700623	response	0	k		12.0	/home/egter/Projects/stimuli/pictures/n03598930_3498.JPEG	111.8517918586731	
15	76.41550898551941	picture	0		121.0	13.0	/home/egter/Projects/stimuli/pictures/R_S_yt-uE9XoCLZlFo_1.png	111.86045789718628	1.0140080451965332
15	77.41561388969421	response	0	j		13.0	/home/egter/Projects/stimuli/pictures/R_S_yt-uE9XoCLZlFo_1.png	112.86056280136108	
16	77.42951703071594	picture	0		161.0	14.0	/home/egter/Projects/stimuli/pictures/S_video_inspire_nevada_lasvegas_northstrip_021.png	112.87446594238281	1.3470430374145508
16	78.76510787010193	response	0	k		14.0	/home/egter/Projects/stimuli/pictures/S_video_inspire_nevada_lasvegas_northstrip_021.png	114.2100567817688	
17	78.7765600681305	picture	0		76.0	15.0	/home/egter/Projects/stimuli/pictures/R_S_yt-LdHRVIb4nIE_6.png	114.22150897979736	0.6319379806518555
17	79.39847993850708	response	0	j		15.0	/home/egter/Projects/stimuli/pictures/R_S_yt-LdHRVIb4nIE_6.png	114.84342885017395	
18	79.40849804878235	picture	0		80.0	16.0	/home/egter/Projects/stimuli/pictures/R_S_yt-J2PiBa1MXI0_210.png	114.85344696044922	0.6666998863220215
18	80.06512784957886	response	0	j		16.0	/home/egter/Projects/stimuli/pictures/R_S_yt-J2PiBa1MXI0_210.png	115.51007676124573	
19	80.07519793510437	picture	0		86.0	17.0	/home/egter/Projects/stimuli/pictures/R_S_yt-2jVJb1PR2XA_16.png	115.52014684677124	0.7152669429779053
19	80.78181791305542	response	0	j		17.0	/home/egter/Projects/stimuli/pictures/R_S_yt-2jVJb1PR2XA_16.png	116.22676682472229	
20	80.79046487808228	picture	0		82.0	18.0	/home/egter/Projects/stimuli/pictures/S_yt--vHa85DHvLU_31.png	116.23541378974915	0.6875250339508057
20	81.46512985229492	response	0	j		18.0	/home/egter/Projects/stimuli/pictures/S_yt--vHa85DHvLU_31.png	116.91007876396179	
21	81.47798991203308	picture	0		115.0	19.0	/home/egter/Projects/stimuli/pictures/n03529860_9960.JPEG	116.92293882369995	0.9651980400085449
21	82.43181800842285	response	0	k		19.0	/home/egter/Projects/stimuli/pictures/n03529860_9960.JPEG	117.87676692008972	
22	82.44318795204163	picture	0		94.0	20.0	/home/egter/Projects/stimuli/pictures/S_pexels-rodnae-productions-5993654.png	117.8881368637085	0.7848191261291504
22	83.21513199806213	response	0	j		20.0	/home/egter/Projects/stimuli/pictures/S_pexels-rodnae-productions-5993654.png	118.660080909729	
23	83.22800707817078	picture	0		138.0	21.0	/home/egter/Projects/stimuli/pictures/S_ILSVRC2015_train_00414000.png	118.67295598983765	1.1457879543304443
23	84.36513304710388	response	0	j		21.0	/home/egter/Projects/stimuli/pictures/S_ILSVRC2015_train_00414000.png	119.81008195877075	
24	84.37379503250122	picture	0		81.0	22.0	/home/egter/Projects/stimuli/pictures/R_S_yt-VJ65ukWmdxQ_193.png	119.81874394416809	0.6806290149688721
24	85.04060888290405	response	0	j		22.0	/home/egter/Projects/stimuli/pictures/R_S_yt-VJ65ukWmdxQ_193.png	120.48555779457092	
25	85.05442404747009	picture	0		129.0	23.0	/home/egter/Projects/stimuli/pictures/n02802426_20713.JPEG	120.49937295913696	1.0832908153533936
25	86.11661505699158	response	0	k		23.0	/home/egter/Projects/stimuli/pictures/n02802426_20713.JPEG	121.56156396865845	
26	86.13771486282349	picture	0		165.0	24.0	/home/egter/Projects/stimuli/pictures/S_yt-e9ttJw0BUuU_40.png	121.58266377449036	1.3819341659545898
26	87.50678086280823	response	0	k		24.0	/home/egter/Projects/stimuli/pictures/S_yt-e9ttJw0BUuU_40.png	122.9517297744751	
27	87.51964902877808	picture	0		101.0	25.0	/home/egter/Projects/stimuli/pictures/n01728920_2783.JPEG	122.96459794044495	0.8402049541473389
27	88.34165000915527	response	0	k		25.0	/home/egter/Projects/stimuli/pictures/n01728920_2783.JPEG	123.78659892082214	
28	88.35985398292542	picture	0		117.0	26.0	/home/egter/Projects/stimuli/pictures/S_yt-XbpTfwsSXc8_124.png	123.80480289459229	0.972214937210083
28	89.323410987854	response	0	k		26.0	/home/egter/Projects/stimuli/pictures/S_yt-XbpTfwsSXc8_124.png	124.76835989952087	
29	89.3320689201355	picture	0		103.0	27.0	/home/egter/Projects/stimuli/pictures/R_S_yt-SS7pSyb0_d0_32.png	124.77701783180237	0.8610730171203613
29	90.18176507949829	response	0	j		27.0	/home/egter/Projects/stimuli/pictures/R_S_yt-SS7pSyb0_d0_32.png	125.62671399116516	
30	90.19314193725586	picture	0		79.0	28.0	/home/egter/Projects/stimuli/pictures/R_S_Pexels_Videos_2786546.png	125.63809084892273	0.6597080230712891
30	90.84007692337036	response	0	j		28.0	/home/egter/Projects/stimuli/pictures/R_S_Pexels_Videos_2786546.png	126.28502583503723	
31	90.85284996032715	picture	0		109.0	29.0	/home/egter/Projects/stimuli/pictures/R_S_yt-FoO02U39gy4_398.png	126.29779887199402	0.9097790718078613
31	91.74880290031433	response	0	j		29.0	/home/egter/Projects/stimuli/pictures/R_S_yt-FoO02U39gy4_398.png	127.1937518119812	
32	91.76262903213501	picture	0		134.0	30.0	/home/egter/Projects/stimuli/pictures/n01728920_19876.JPEG	127.20757794380188	1.1250250339508057
32	92.87377285957336	response	0	k		30.0	/home/egter/Projects/stimuli/pictures/n01728920_19876.JPEG	128.31872177124023	
33	92.88765406608582	picture	0		115.0	31.0	/home/egter/Projects/stimuli/pictures/n04392985_8781.JPEG	128.33260297775269	0.9654200077056885
33	93.8401129245758	response	0	k		31.0	/home/egter/Projects/stimuli/pictures/n04392985_8781.JPEG	129.28506183624268	
34	93.8530740737915	picture	0		100.0	32.0	/home/egter/Projects/stimuli/pictures/S_yt-yB7mPODPTVw_74.png	129.29802298545837	0.8400218486785889
34	94.68172907829285	response	0	j		32.0	/home/egter/Projects/stimuli/pictures/S_yt-yB7mPODPTVw_74.png	130.12667798995972	
35	94.69309592247009	picture	0		139.0	33.0	/home/egter/Projects/stimuli/pictures/R_S_ILSVRC2015_train_00587000.png	130.13804483413696	1.15972900390625
35	95.8401038646698	response	0	j		33.0	/home/egter/Projects/stimuli/pictures/R_S_ILSVRC2015_train_00587000.png	131.28505277633667	
36	95.85282492637634	picture	0		89.0	34.0	/home/egter/Projects/stimuli/pictures/R_S_yt-w_e3sxIzepA_27.png	131.2977738380432	0.7500269412994385
36	96.59006094932556	response	0	j		34.0	/home/egter/Projects/stimuli/pictures/R_S_yt-w_e3sxIzepA_27.png	132.03500986099243	
37	96.60285186767578	picture	0		96.0	35.0	/home/egter/Projects/stimuli/pictures/n02190166_1544.JPEG	132.04780077934265	0.7985432147979736
37	97.39017295837402	response	0	k		35.0	/home/egter/Projects/stimuli/pictures/n02190166_1544.JPEG	132.8351218700409	
38	97.40139508247375	picture	0		75.0	36.0	/home/egter/Projects/stimuli/pictures/n02268853_2699.JPEG	132.84634399414062	0.6250147819519043
38	98.01507496833801	response	0	k		36.0	/home/egter/Projects/stimuli/pictures/n02268853_2699.JPEG	133.46002388000488	
39	98.02640986442566	picture	0		86.0	37.0	/home/egter/Projects/stimuli/pictures/n04273569_12368.JPEG	133.47135877609253	0.7152650356292725
39	98.72487592697144	response	0	k		37.0	/home/egter/Projects/stimuli/pictures/n04273569_12368.JPEG	134.1698248386383	
40	98.74167490005493	picture	0		94.0	38.0	/home/egter/Projects/stimuli/pictures/n04389033_58437.JPEG	134.1866238117218	0.7847471237182617
40	99.5150740146637	response	0	k		38.0	/home/egter/Projects/stimuli/pictures/n04389033_58437.JPEG	134.96002292633057	
41	99.5264220237732	picture	0		124.0	39.0	/home/egter/Projects/stimuli/pictures/S_yt-aD-EAuBdpUo_163.png	134.97137093544006	1.0347528457641602
41	100.54208493232727	response	0	j		39.0	/home/egter/Projects/stimuli/pictures/S_yt-aD-EAuBdpUo_163.png	135.98703384399414	
42	100.56117486953735	picture	0		216.0	40.0	/home/egter/Projects/stimuli/pictures/S_yt-HPjLtkyzN3E_101.png	136.00612378120422	1.7985410690307617
42	102.34158086776733	response	0	k		40.0	/home/egter/Projects/stimuli/pictures/S_yt-HPjLtkyzN3E_101.png	137.7865297794342	
43	102.35971593856812	picture	0		115.0	41.0	/home/egter/Projects/stimuli/pictures/n02701002_23190.JPEG	137.80466485023499	0.9583430290222168
43	103.30669093132019	response	0	k		41.0	/home/egter/Projects/stimuli/pictures/n02701002_23190.JPEG	138.75163984298706	
44	103.31805896759033	picture	0		82.0	42.0	/home/egter/Projects/stimuli/pictures/S_yt-GWO7FHN1Jb4_142.png	138.7630078792572	0.6805629730224609
44	103.98997902870178	response	0	j		42.0	/home/egter/Projects/stimuli/pictures/S_yt-GWO7FHN1Jb4_142.png	139.43492794036865	
45	103.9986219406128	picture	0		85.0	43.0	/home/egter/Projects/stimuli/pictures/n03590841_10648.JPEG	139.44357085227966	0.7082109451293945
45	104.69835996627808	response	0	k		43.0	/home/egter/Projects/stimuli/pictures/n03590841_10648.JPEG	140.14330887794495	
46	104.70683288574219	picture	0		108.0	44.0	/home/egter/Projects/stimuli/pictures/n02168699_7216.JPEG	140.15178179740906	0.9028291702270508
46	105.5983989238739	response	0	k		44.0	/home/egter/Projects/stimuli/pictures/n02168699_7216.JPEG	141.04334783554077	
47	105.60966205596924	picture	0		82.0	45.0	/home/egter/Projects/stimuli/pictures/S_yt-xSGPe0KemD4_384.png	141.0546109676361	0.6806190013885498
47	106.28166389465332	response	0	j		45.0	/home/egter/Projects/stimuli/pictures/S_yt-xSGPe0KemD4_384.png	141.7266128063202	
48	106.29028105735779	picture	0		114.0	46.0	/home/egter/Projects/stimuli/pictures/R_S_yt-4wYTkhggZNM_90.png	141.73522996902466	0.9513258934020996
48	107.23171496391296	response	0	k		46.0	/home/egter/Projects/stimuli/pictures/R_S_yt-4wYTkhggZNM_90.png	142.67666387557983	
49	107.24160695075989	picture	0		90.0	47.0	/home/egter/Projects/stimuli/pictures/n07716358_6428.JPEG	142.68655586242676	0.7500019073486328
49	107.98168706893921	response	0	k		47.0	/home/egter/Projects/stimuli/pictures/n07716358_6428.JPEG	143.42663598060608	
50	107.99160885810852	picture	0		88.0	48.0	/home/egter/Projects/stimuli/pictures/n02879718_393.JPEG	143.4365577697754	0.736253023147583
50	108.71504187583923	response	0	k		48.0	/home/egter/Projects/stimuli/pictures/n02879718_393.JPEG	144.1599907875061	
51	108.7278618812561	picture	0		77.0	49.0	/home/egter/Projects/stimuli/pictures/n02398521_7480.JPEG	144.17281079292297	0.638801097869873
51	109.349858045578	response	0	k		49.0	/home/egter/Projects/stimuli/pictures/n02398521_7480.JPEG	144.79480695724487	
52	109.36666297912598	picture	0		168.0	50.0	/home/egter/Projects/stimuli/pictures/S_flickr-thelastdon-8662706978_3.png	144.81161189079285	1.4027960300445557
52	110.75024199485779	response	0	k		50.0	/home/egter/Projects/stimuli/pictures/S_flickr-thelastdon-8662706978_3.png	146.19519090652466	
53	110.76945900917053	picture	0		85.0	51.0	/home/egter/Projects/stimuli/pictures/n03792782_1030.JPEG	146.2144079208374	0.7083468437194824
53	111.4650309085846	response	0	k		51.0	/home/egter/Projects/stimuli/pictures/n03792782_1030.JPEG	146.90997982025146	
54	111.47780585289001	picture	0		88.0	52.0	/home/egter/Projects/stimuli/pictures/n02692877_10880.JPEG	146.92275476455688	0.729121208190918
54	112.19833087921143	response	0	k		52.0	/home/egter/Projects/stimuli/pictures/n02692877_10880.JPEG	147.6432797908783	
55	112.20692706108093	picture	0		84.0	53.0	/home/egter/Projects/stimuli/pictures/R_S_ILSVRC2015_train_00756000.png	147.6518759727478	0.7013108730316162
55	112.89834904670715	response	0	j		53.0	/home/egter/Projects/stimuli/pictures/R_S_ILSVRC2015_train_00756000.png	148.34329795837402	
56	112.90823793411255	picture	0		81.0	54.0	/home/egter/Projects/stimuli/pictures/n03590841_2817.JPEG	148.35318684577942	0.6735520362854004
56	113.57330894470215	response	0	k		54.0	/home/egter/Projects/stimuli/pictures/n03590841_2817.JPEG	149.01825785636902	
57	113.58178997039795	picture	0		83.0	55.0	/home/egter/Projects/stimuli/pictures/R_S_yt-jcuaf9iSEkI_169.png	149.02673888206482	0.6944530010223389
57	114.2650089263916	response	0	j		55.0	/home/egter/Projects/stimuli/pictures/R_S_yt-jcuaf9iSEkI_169.png	149.70995783805847	
58	114.27624297142029	picture	0		74.0	56.0	/home/egter/Projects/stimuli/pictures/n04266014_6986.JPEG	149.72119188308716	0.6180670261383057
58	114.88166785240173	response	0	k		56.0	/home/egter/Projects/stimuli/pictures/n04266014_6986.JPEG	150.3266167640686	
59	114.8943099975586	picture	0		86.0	57.0	/home/egter/Projects/stimuli/pictures/R_S_yt-ol2u_-gd0-o_13.png	150.33925890922546	0.7152509689331055
59	115.59833693504333	response	0	j		57.0	/home/egter/Projects/stimuli/pictures/R_S_yt-ol2u_-gd0-o_13.png	151.0432858467102	
60	115.6095609664917	picture	0		92.0	58.0	/home/egter/Projects/stimuli/pictures/R_S_yt-JtR6WZXT2kU_8.png	151.05450987815857	0.7640368938446045
60	116.36503291130066	response	0	j		58.0	/home/egter/Projects/stimuli/pictures/R_S_yt-JtR6WZXT2kU_8.png	151.80998182296753	
61	116.3735978603363	picture	0		112.0	59.0	/home/egter/Projects/stimuli/pictures/n02099849_1496.JPEG	151.81854677200317	0.9373462200164795
61	117.29829692840576	response	0	k		59.0	/home/egter/Projects/stimuli/pictures/n02099849_1496.JPEG	152.74324584007263	
62	117.31094408035278	picture	0		125.0	60.0	/home/egter/Projects/stimuli/pictures/S_ILSVRC2015_train_00743005.png	152.75589299201965	1.041731834411621
62	118.3334710597992	response	0	j		60.0	/home/egter/Projects/stimuli/pictures/S_ILSVRC2015_train_00743005.png	153.77841997146606	
63	118.3526759147644	picture	0		84.0	61.0	/home/egter/Projects/stimuli/pictures/n02454379_701.JPEG	153.79762482643127	0.7014081478118896
63	119.04020500183105	response	0	k		61.0	/home/egter/Projects/stimuli/pictures/n02454379_701.JPEG	154.48515391349792	
64	119.0540840625763	picture	0		93.0	62.0	/home/egter/Projects/stimuli/pictures/n02361337_10879.JPEG	154.49903297424316	0.7776539325714111
64	119.82331895828247	response	0	k		62.0	/home/egter/Projects/stimuli/pictures/n02361337_10879.JPEG	155.26826786994934	
65	119.8317379951477	picture	0		87.0	63.0	/home/egter/Projects/stimuli/pictures/R_S_yt-YMI27rk5qUQ_117.png	155.27668690681458	0.7293388843536377
65	120.54174590110779	response	0	j		63.0	/home/egter/Projects/stimuli/pictures/R_S_yt-YMI27rk5qUQ_117.png	155.98669481277466	
66	120.56107687950134	picture	0		99.0	64.0	/home/egter/Projects/stimuli/pictures/R_S_video_inspire_texas_pecos_foggy-landscape_00018.png	156.0060257911682	0.8266170024871826
66	121.36652207374573	response	0	k		64.0	/home/egter/Projects/stimuli/pictures/R_S_video_inspire_texas_pecos_foggy-landscape_00018.png	156.8114709854126	
67	121.38769388198853	picture	0		155.0	65.0	/home/egter/Projects/stimuli/pictures/R_S_pexels-rodnae-productions-5993654.png	156.8326427936554	1.2982661724090576
67	122.67331290245056	response	0	j		65.0	/home/egter/Projects/stimuli/pictures/R_S_pexels-rodnae-productions-5993654.png	158.11826181411743	
68	122.68596005439758	picture	0		92.0	66.0	/home/egter/Projects/stimuli/pictures/R_S_yt-xCh0LI9VKeI_28.png	158.13090896606445	0.7638299465179443
68	123.43999195098877	response	0	j		66.0	/home/egter/Projects/stimuli/pictures/R_S_yt-xCh0LI9VKeI_28.png	158.88494086265564	
69	123.44979000091553	picture	0		83.0	67.0	/home/egter/Projects/stimuli/pictures/R_S_ILSVRC2015_train_00405000.png	158.8947389125824	0.6944539546966553
69	124.13159704208374	response	0	k		67.0	/home/egter/Projects/stimuli/pictures/R_S_ILSVRC2015_train_00405000.png	159.5765459537506	
70	124.14424395561218	picture	0		191.0	68.0	/home/egter/Projects/stimuli/pictures/S_yt-lfDIg8kaXhA_169.png	159.58919286727905	1.5956249237060547
70	125.72332286834717	response	0	j		68.0	/home/egter/Projects/stimuli/pictures/S_yt-lfDIg8kaXhA_169.png	161.16827178001404	
71	125.73986887931824	picture	0		90.0	69.0	/home/egter/Projects/stimuli/pictures/n04252077_15211.JPEG	161.1848177909851	0.7515950202941895
71	126.48163485527039	response	0	k		69.0	/home/egter/Projects/stimuli/pictures/n04252077_15211.JPEG	161.92658376693726	
72	126.49146389961243	picture	0		87.0	70.0	/home/egter/Projects/stimuli/pictures/R_S_yt-BrepyEWKrPQ_20.png	161.9364128112793	0.7296099662780762
72	127.20682096481323	response	0	j		70.0	/home/egter/Projects/stimuli/pictures/R_S_yt-BrepyEWKrPQ_20.png	162.6517698764801	
73	127.2210738658905	picture	0		82.0	71.0	/home/egter/Projects/stimuli/pictures/n01882714_3551.JPEG	162.66602277755737	0.6869761943817139
73	127.8982789516449	response	0	k		71.0	/home/egter/Projects/stimuli/pictures/n01882714_3551.JPEG	163.34322786331177	
74	127.90805006027222	picture	0		87.0	72.0	/home/egter/Projects/stimuli/pictures/R_S_yt-mQESmS4uqRU_208.png	163.3529989719391	0.7292358875274658
74	128.62348103523254	response	0	j		72.0	/home/egter/Projects/stimuli/pictures/R_S_yt-mQESmS4uqRU_208.png	164.0684299468994	
75	128.63728594779968	picture	0		131.0	73.0	/home/egter/Projects/stimuli/pictures/n02493509_9319.JPEG	164.08223485946655	1.0971720218658447
75	129.72329306602478	response	0	k		73.0	/home/egter/Projects/stimuli/pictures/n02493509_9319.JPEG	165.16824197769165	
76	129.73445796966553	picture	0		121.0	74.0	/home/egter/Projects/stimuli/pictures/n07760859_6649.JPEG	165.1794068813324	1.006925106048584
76	130.73162698745728	response	0	k		74.0	/home/egter/Projects/stimuli/pictures/n07760859_6649.JPEG	166.17657589912415	
77	130.7413830757141	picture	0		91.0	75.0	/home/egter/Projects/stimuli/pictures/S_bing-www_break_com_video_like-a-cat-catching-a-fly-3131008_12.png	166.18633198738098	0.7568919658660889
77	131.4899549484253	response	0	j		75.0	/home/egter/Projects/stimuli/pictures/S_bing-www_break_com_video_like-a-cat-catching-a-fly-3131008_12.png	166.93490386009216	
78	131.4982750415802	picture	0		110.0	76.0	/home/egter/Projects/stimuli/pictures/R_S_yt-zSSnQYeO_DE_338.png	166.94322395324707	0.9166438579559326
78	132.40658497810364	response	0	j		76.0	/home/egter/Projects/stimuli/pictures/R_S_yt-zSSnQYeO_DE_338.png	167.8515338897705	
79	132.41491889953613	picture	0		107.0	77.0	/home/egter/Projects/stimuli/pictures/R_S_yt-JH6qCYAnX-I_70.png	167.859867811203	0.8959140777587891
79	133.29827499389648	response	0	j		77.0	/home/egter/Projects/stimuli/pictures/R_S_yt-JH6qCYAnX-I_70.png	168.74322390556335	
80	133.31083297729492	picture	0		144.0	78.0	/home/egter/Projects/stimuli/pictures/R_S_ILSVRC2015_train_00556000.png	168.7557818889618	1.2083070278167725
80	134.5066180229187	response	0	j		78.0	/home/egter/Projects/stimuli/pictures/R_S_ILSVRC2015_train_00556000.png	169.95156693458557	
81	134.5191400051117	picture	0		128.0	79.0	/home/egter/Projects/stimuli/pictures/R_S_yt-8gCfc-o3pyk_85.png	169.96408891677856	1.0624558925628662
81	135.5732719898224	response	0	j		79.0	/home/egter/Projects/stimuli/pictures/R_S_yt-8gCfc-o3pyk_85.png	171.01822090148926	
82	135.58159589767456	picture	0		96.0	80.0	/home/egter/Projects/stimuli/pictures/n02777292_14153.JPEG	171.02654480934143	0.8057019710540771
82	136.37334489822388	response	0	k		80.0	/home/egter/Projects/stimuli/pictures/n02777292_14153.JPEG	171.81829380989075	
83	136.38729786872864	picture	0		80.0	81.0	/home/egter/Projects/stimuli/pictures/n02910353_15304.JPEG	171.8322467803955	0.6735100746154785
83	137.0482759475708	response	0	k		81.0	/home/egter/Projects/stimuli/pictures/n02910353_15304.JPEG	172.49322485923767	
84	137.06080794334412	picture	0		71.0	82.0	/home/egter/Projects/stimuli/pictures/n03930630_7392.JPEG	172.505756855011	0.5956439971923828
84	137.6400010585785	response	0	k		82.0	/home/egter/Projects/stimuli/pictures/n03930630_7392.JPEG	173.08494997024536	
85	137.6564519405365	picture	0		184.0	83.0	/home/egter/Projects/stimuli/pictures/n01756291_7571.JPEG	173.10140085220337	1.536236047744751
85	139.17476201057434	response	0	k		83.0	/home/egter/Projects/stimuli/pictures/n01756291_7571.JPEG	174.6197109222412	
86	139.19268798828125	picture	0		117.0	84.0	/home/egter/Projects/stimuli/pictures/R_S_yt-EKPrSw5xF7k_112.png	174.63763689994812	0.972153902053833
86	140.14983201026917	response	0	j		84.0	/home/egter/Projects/stimuli/pictures/R_S_yt-EKPrSw5xF7k_112.png	175.59478092193604	
87	140.16484189033508	picture	0		227.0	85.0	/home/egter/Projects/stimuli/pictures/n07716906_8909.JPEG	175.60979080200195	1.8959519863128662
87	142.0482349395752	response	0	k		85.0	/home/egter/Projects/stimuli/pictures/n07716906_8909.JPEG	177.49318385124207	
88	142.06079387664795	picture	0		112.0	86.0	/home/egter/Projects/stimuli/pictures/n04467665_47673.JPEG	177.50574278831482	0.9374091625213623
88	142.98986291885376	response	0	k		86.0	/home/egter/Projects/stimuli/pictures/n04467665_47673.JPEG	178.43481183052063	
89	142.9982030391693	picture	0		86.0	87.0	/home/egter/Projects/stimuli/pictures/n01694178_873.JPEG	178.44315195083618	0.7223398685455322
89	143.7066788673401	response	0	k		87.0	/home/egter/Projects/stimuli/pictures/n01694178_873.JPEG	179.15162777900696	
90	143.72054290771484	picture	0		117.0	88.0	/home/egter/Projects/stimuli/pictures/n03796401_8058.JPEG	179.1654918193817	0.9790511131286621
90	144.68990302085876	response	0	k		88.0	/home/egter/Projects/stimuli/pictures/n03796401_8058.JPEG	180.13485193252563	
91	144.6995940208435	picture	0		141.0	89.0	/home/egter/Projects/stimuli/pictures/S_yt-9Ow95khYa_M_91.png	180.14454293251038	1.1735949516296387
91	145.8648760318756	response	0	j		89.0	/home/egter/Projects/stimuli/pictures/S_yt-9Ow95khYa_M_91.png	181.30982494354248	
92	145.87318897247314	picture	0		70.0	90.0	/home/egter/Projects/stimuli/pictures/R_S_yt-MEfljVFL0xw_375.png	181.31813788414001	0.5832929611206055
92	146.4482500553131	response	0	j		90.0	/home/egter/Projects/stimuli/pictures/R_S_yt-MEfljVFL0xw_375.png	181.89319896697998	
93	146.45648193359375	picture	0		88.0	91.0	/home/egter/Projects/stimuli/pictures/n03633091_10423.JPEG	181.90143084526062	0.7361130714416504
93	147.17473888397217	response	0	k		91.0	/home/egter/Projects/stimuli/pictures/n03633091_10423.JPEG	182.61968779563904	
94	147.1925950050354	picture	0		86.0	92.0	/home/egter/Projects/stimuli/pictures/R_S_yt-yB7mPODPTVw_74.png	182.63754391670227	0.7153170108795166
94	147.8982310295105	response	0	j		92.0	/home/egter/Projects/stimuli/pictures/R_S_yt-yB7mPODPTVw_74.png	183.34317994117737	
95	147.90791201591492	picture	0		132.0	93.0	/home/egter/Projects/stimuli/pictures/S_yt-7bSTxOajpjc_58.png	183.3528609275818	1.1042139530181885
95	148.99827599525452	response	0	j		93.0	/home/egter/Projects/stimuli/pictures/S_yt-7bSTxOajpjc_58.png	184.4432249069214	
96	149.0121259689331	picture	0		117.0	94.0	/home/egter/Projects/stimuli/pictures/n04476259_12267.JPEG	184.45707488059998	0.9792120456695557
96	149.9815330505371	response	0	k		94.0	/home/egter/Projects/stimuli/pictures/n04476259_12267.JPEG	185.42648196220398	
97	149.99133801460266	picture	0		122.0	95.0	/home/egter/Projects/stimuli/pictures/S_yt-S6N5FyjSFZE_4.png	185.43628692626953	1.0207319259643555
97	150.9982349872589	response	0	k		95.0	/home/egter/Projects/stimuli/pictures/S_yt-S6N5FyjSFZE_4.png	186.44318389892578	
98	151.01206994056702	picture	0		103.0	96.0	/home/egter/Projects/stimuli/pictures/S_yt-WASlRH1zA8c_175.png	186.4570188522339	0.8610539436340332
98	151.86486792564392	response	0	j		96.0	/home/egter/Projects/stimuli/pictures/S_yt-WASlRH1zA8c_175.png	187.3098168373108	
99	151.87312388420105	picture	0		93.0	97.0	/home/egter/Projects/stimuli/pictures/S_Xq0a2BWE3zA_53.png	187.31807279586792	0.7777819633483887
99	152.63985300064087	response	0	j		97.0	/home/egter/Projects/stimuli/pictures/S_Xq0a2BWE3zA_53.png	188.08480191230774	
100	152.65090584754944	picture	0		106.0	98.0	/home/egter/Projects/stimuli/pictures/n02749479_3616.JPEG	188.0958547592163	0.881951093673706
100	153.52313685417175	response	0	k		98.0	/home/egter/Projects/stimuli/pictures/n02749479_3616.JPEG	188.96808576583862	
101	153.53285694122314	picture	0		136.0	99.0	/home/egter/Projects/stimuli/pictures/R_S_comp_N008_C003_PS_v01_SDR_PS_20180925_SDR_2K_AVC.png	188.97780585289001	1.1318929195404053
101	154.6565408706665	response	0	j		99.0	/home/egter/Projects/stimuli/pictures/R_S_comp_N008_C003_PS_v01_SDR_PS_20180925_SDR_2K_AVC.png	190.10148978233337	
102	154.66474986076355	picture	0		90.0	100.0	/home/egter/Projects/stimuli/pictures/n03417042_4218.JPEG	190.10969877243042	0.7500231266021729
102	155.40652704238892	response	0	k		100.0	/home/egter/Projects/stimuli/pictures/n03417042_4218.JPEG	190.8514759540558	
103	155.41477298736572	picture	0		162.0	101.0	/home/egter/Projects/stimuli/pictures/n02640242_5913.JPEG	190.8597218990326	1.3542568683624268
103	156.7496519088745	response	0	k		101.0	/home/egter/Projects/stimuli/pictures/n02640242_5913.JPEG	192.19460082054138	
104	156.76902985572815	picture	0		300.0	102.0	/home/egter/Projects/stimuli/pictures/R_S_wc-_W9iefBXz8bi_23.png	192.21397876739502	2.499913215637207
104	159.25654697418213	response	0	k		102.0	/home/egter/Projects/stimuli/pictures/R_S_wc-_W9iefBXz8bi_23.png	194.701495885849	
105	159.26894307136536	picture	0		80.0	103.0	/home/egter/Projects/stimuli/pictures/S_yt-2jVJb1PR2XA_16.png	194.71389198303223	0.6667039394378662
105	159.92319202423096	response	0	j		103.0	/home/egter/Projects/stimuli/pictures/S_yt-2jVJb1PR2XA_16.png	195.36814093589783	
106	159.93564701080322	picture	0		80.0	104.0	/home/egter/Projects/stimuli/pictures/n04067472_19477.JPEG	195.3805959224701	0.6667718887329102
106	160.58978605270386	response	0	k		104.0	/home/egter/Projects/stimuli/pictures/n04067472_19477.JPEG	196.03473496437073	
107	160.60241889953613	picture	0		114.0	105.0	/home/egter/Projects/stimuli/pictures/n04037443_1901.JPEG	196.047367811203	0.9513020515441895
107	161.53983402252197	response	0	k		105.0	/home/egter/Projects/stimuli/pictures/n04037443_1901.JPEG	196.98478293418884	
108	161.55372095108032	picture	0		88.0	106.0	/home/egter/Projects/stimuli/pictures/S_yt-7Ya-rGPO8cM_159.png	196.9986698627472	0.7359840869903564
108	162.2815010547638	response	0	j		106.0	/home/egter/Projects/stimuli/pictures/S_yt-7Ya-rGPO8cM_159.png	197.72644996643066	
109	162.28970503807068	picture	0		141.0	107.0	/home/egter/Projects/stimuli/pictures/S_yt-LsCCAQ8BRO8_7.png	197.73465394973755	1.1806209087371826
109	163.45646905899048	response	0	j		107.0	/home/egter/Projects/stimuli/pictures/S_yt-LsCCAQ8BRO8_7.png	198.90141797065735	
110	163.47032594680786	picture	0		103.0	108.0	/home/egter/Projects/stimuli/pictures/n03424325_482.JPEG	198.91527485847473	0.8610050678253174
110	164.32314586639404	response	0	k		108.0	/home/egter/Projects/stimuli/pictures/n03424325_482.JPEG	199.7680947780609	
111	164.33133101463318	picture	0		88.0	109.0	/home/egter/Projects/stimuli/pictures/n01685808_6782.JPEG	199.77627992630005	0.7417168617248535
111	165.05648684501648	response	0	j		109.0	/home/egter/Projects/stimuli/pictures/n01685808_6782.JPEG	200.50143575668335	
112	165.07304787635803	picture	0		135.0	110.0	/home/egter/Projects/stimuli/pictures/S_yt-JVhfcpV7OaY_71.png	200.5179967880249	1.1263630390167236
112	166.18981289863586	response	0	j		110.0	/home/egter/Projects/stimuli/pictures/S_yt-JVhfcpV7OaY_71.png	201.63476181030273	
113	166.19941091537476	picture	0		99.0	111.0	/home/egter/Projects/stimuli/pictures/R_S_yt-ZBhTpmrAlUY_70.png	201.64435982704163	0.8319590091705322
113	167.01481699943542	response	0	j		111.0	/home/egter/Projects/stimuli/pictures/R_S_yt-ZBhTpmrAlUY_70.png	202.4597659111023	
114	167.0313699245453	picture	0		124.0	112.0	/home/egter/Projects/stimuli/pictures/n04461696_16226.JPEG	202.47631883621216	1.0360560417175293
114	168.05644607543945	response	0	k		112.0	/home/egter/Projects/stimuli/pictures/n04461696_16226.JPEG	203.50139498710632	
115	168.06742596626282	picture	0		89.0	113.0	/home/egter/Projects/stimuli/pictures/R_S_WCwb-DeQOSg_85.png	203.5123748779297	0.7430500984191895
115	168.79810690879822	response	0	j		113.0	/home/egter/Projects/stimuli/pictures/R_S_WCwb-DeQOSg_85.png	204.2430558204651	
116	168.810476064682	picture	0		162.0	114.0	/home/egter/Projects/stimuli/pictures/n09428293_20041.JPEG	204.25542497634888	1.3472340106964111
116	170.1480770111084	response	0	k		114.0	/home/egter/Projects/stimuli/pictures/n09428293_20041.JPEG	205.59302592277527	
117	170.15771007537842	picture	0		95.0	115.0	/home/egter/Projects/stimuli/pictures/n02815834_9667.JPEG	205.6026589870453	0.7918038368225098
117	170.9397690296173	response	0	k		115.0	/home/egter/Projects/stimuli/pictures/n02815834_9667.JPEG	206.38471794128418	
118	170.94951391220093	picture	0		100.0	116.0	/home/egter/Projects/stimuli/pictures/n03930313_14180.JPEG	206.3944628238678	0.8331799507141113
118	171.7664349079132	response	0	k		116.0	/home/egter/Projects/stimuli/pictures/n03930313_14180.JPEG	207.21138381958008	
119	171.78269386291504	picture	0		111.0	117.0	/home/egter/Projects/stimuli/pictures/n04347754_14708.JPEG	207.2276427745819	0.9236171245574951
119	172.69808197021484	response	0	k		117.0	/home/egter/Projects/stimuli/pictures/n04347754_14708.JPEG	208.1430308818817	
120	172.70631098747253	picture	0		84.0	118.0	/home/egter/Projects/stimuli/pictures/S_wc-DcFDe419cL3d_17.png	208.1512598991394	0.70135498046875
120	173.39808797836304	response	0	j		118.0	/home/egter/Projects/stimuli/pictures/S_wc-DcFDe419cL3d_17.png	208.8430368900299	
121	173.40766596794128	picture	0		91.0	119.0	/home/egter/Projects/stimuli/pictures/n02641379_2270.JPEG	208.85261487960815	0.7569899559020996
121	174.15643787384033	response	0	k		119.0	/home/egter/Projects/stimuli/pictures/n02641379_2270.JPEG	209.6013867855072	
122	174.16465592384338	picture	0		130.0	120.0	/home/egter/Projects/stimuli/pictures/n02704792_3609.JPEG	209.60960483551025	1.0833020210266113
122	175.23974800109863	response	0	k		120.0	/home/egter/Projects/stimuli/pictures/n02704792_3609.JPEG	210.6846969127655	
123	175.24795794487	picture	0		89.0	121.0	/home/egter/Projects/stimuli/pictures/R_S_yt-aD-EAuBdpUo_163.png	210.69290685653687	0.7430241107940674
123	175.9745409488678	response	0	j		121.0	/home/egter/Projects/stimuli/pictures/R_S_yt-aD-EAuBdpUo_163.png	211.41948986053467	
124	175.99098205566406	picture	0		166.0	122.0	/home/egter/Projects/stimuli/pictures/S_ILSVRC2015_train_00479002.png	211.43593096733093	1.3820009231567383
124	177.35794401168823	response	0	k		122.0	/home/egter/Projects/stimuli/pictures/S_ILSVRC2015_train_00479002.png	212.8028929233551	
125	177.3729829788208	picture	0		84.0	123.0	/home/egter/Projects/stimuli/pictures/S_ILSVRC2015_train_00556000.png	212.81793189048767	0.7013149261474609
125	178.0647749900818	response	0	j		123.0	/home/egter/Projects/stimuli/pictures/S_ILSVRC2015_train_00556000.png	213.50972390174866	
126	178.07429790496826	picture	0		202.0	124.0	/home/egter/Projects/stimuli/pictures/S_yt-58F4cMRhSw8_69.png	213.51924681663513	1.6875650882720947
126	179.7480390071869	response	0	j		124.0	/home/egter/Projects/stimuli/pictures/S_yt-58F4cMRhSw8_69.png	215.19298791885376	
127	179.76186299324036	picture	0		75.0	125.0	/home/egter/Projects/stimuli/pictures/R_S_yt-GWO7FHN1Jb4_142.png	215.20681190490723	0.6318619251251221
127	180.37462091445923	response	0	j		125.0	/home/egter/Projects/stimuli/pictures/R_S_yt-GWO7FHN1Jb4_142.png	215.8195698261261	
128	180.39372491836548	picture	0		89.0	126.0	/home/egter/Projects/stimuli/pictures/S_yt-BrepyEWKrPQ_20.png	215.83867383003235	0.7431299686431885
128	181.12304997444153	response	0	j		126.0	/home/egter/Projects/stimuli/pictures/S_yt-BrepyEWKrPQ_20.png	216.5679988861084	
129	181.13685488700867	picture	0		138.0	127.0	/home/egter/Projects/stimuli/pictures/R_S_yt-LsCCAQ8BRO8_7.png	216.58180379867554	1.152791976928711
129	182.2814359664917	response	0	j		127.0	/home/egter/Projects/stimuli/pictures/R_S_yt-LsCCAQ8BRO8_7.png	217.72638487815857	
130	182.28964686393738	picture	0		118.0	128.0	/home/egter/Projects/stimuli/pictures/R_S_yt-a0axt7n0GuQ_19.png	217.73459577560425	0.9859871864318848
130	183.26476097106934	response	0	j		128.0	/home/egter/Projects/stimuli/pictures/R_S_yt-a0axt7n0GuQ_19.png	218.7097098827362	
131	183.27563405036926	picture	0		95.0	129.0	/home/egter/Projects/stimuli/pictures/S_Pexels_Videos_2786546.png	218.72058296203613	0.7916610240936279
131	184.05633902549744	response	0	j		129.0	/home/egter/Projects/stimuli/pictures/S_Pexels_Videos_2786546.png	219.5012879371643	
132	184.0672950744629	picture	0		365.0	130.0	/home/egter/Projects/stimuli/pictures/S_comp_A009_C001_010181A_v09_SDR_PS_FINAL_20180725_SDR_2K_AVC.png	219.51224398612976	3.047322988510132
132	187.09799194335938	response	0	j		130.0	/home/egter/Projects/stimuli/pictures/S_comp_A009_C001_010181A_v09_SDR_PS_FINAL_20180725_SDR_2K_AVC.png	222.54294085502625	
133	187.11461806297302	picture	0		106.0	131.0	/home/egter/Projects/stimuli/pictures/n07693725_5781.JPEG	222.5595669746399	0.8832697868347168
133	187.98291993141174	response	0	k		131.0	/home/egter/Projects/stimuli/pictures/n07693725_5781.JPEG	223.4278688430786	
134	187.99788784980774	picture	0		90.0	132.0	/home/egter/Projects/stimuli/pictures/n02423022_11240.JPEG	223.4428367614746	0.7500371932983398
134	188.7396879196167	response	0	k		132.0	/home/egter/Projects/stimuli/pictures/n02423022_11240.JPEG	224.18463683128357	
135	188.74792504310608	picture	0		80.0	133.0	/home/egter/Projects/stimuli/pictures/n12985857_1847.JPEG	224.19287395477295	0.6666369438171387
135	189.4064018726349	response	0	k		133.0	/home/egter/Projects/stimuli/pictures/n12985857_1847.JPEG	224.85135078430176	
136	189.41456198692322	picture	0		97.0	134.0	/home/egter/Projects/stimuli/pictures/R_S_ILSVRC2015_train_00450001.png	224.8595108985901	0.8124339580535889
136	190.2147240638733	response	0	k		134.0	/home/egter/Projects/stimuli/pictures/R_S_ILSVRC2015_train_00450001.png	225.65967297554016	
137	190.2269959449768	picture	0		222.0	135.0	/home/egter/Projects/stimuli/pictures/R_S_ILSVRC2015_train_00601000.png	225.67194485664368	1.84716796875
137	192.06470799446106	response	0	j		135.0	/home/egter/Projects/stimuli/pictures/R_S_ILSVRC2015_train_00601000.png	227.50965690612793	
138	192.0741639137268	picture	0		83.0	136.0	/home/egter/Projects/stimuli/pictures/R_S_ILSVRC2015_train_00704000.png	227.51911282539368	0.6944561004638672
138	192.75639390945435	response	0	j		136.0	/home/egter/Projects/stimuli/pictures/R_S_ILSVRC2015_train_00704000.png	228.20134282112122	
139	192.76862001419067	picture	0		106.0	137.0	/home/egter/Projects/stimuli/pictures/R_S_G009_C003_UHD_SDR_2K_AVC.png	228.21356892585754	0.8819389343261719
139	193.63971090316772	response	0	j		137.0	/home/egter/Projects/stimuli/pictures/R_S_G009_C003_UHD_SDR_2K_AVC.png	229.0846598148346	
140	193.65055894851685	picture	0		206.0	138.0	/home/egter/Projects/stimuli/pictures/S_yt-kINZMjys3O4_112.png	229.09550786018372	1.715230941772461
140	195.35636687278748	response	0	j		138.0	/home/egter/Projects/stimuli/pictures/S_yt-kINZMjys3O4_112.png	230.80131578445435	
141	195.3657898902893	picture	0		93.0	139.0	/home/egter/Projects/stimuli/pictures/S_pexels-diva-plavalaguna-6985395.png	230.81073880195618	0.7777810096740723
141	196.13136506080627	response	0	j		139.0	/home/egter/Projects/stimuli/pictures/S_pexels-diva-plavalaguna-6985395.png	231.57631397247314	
142	196.14357089996338	picture	0		100.0	140.0	/home/egter/Projects/stimuli/pictures/n03777754_6455.JPEG	231.58851981163025	0.8333630561828613
142	196.96463584899902	response	0	k		140.0	/home/egter/Projects/stimuli/pictures/n03777754_6455.JPEG	232.4095847606659	
143	196.97693395614624	picture	0		75.0	141.0	/home/egter/Projects/stimuli/pictures/S_yt-JtR6WZXT2kU_8.png	232.4218828678131	0.6250948905944824
143	197.582937002182	response	0	j		141.0	/home/egter/Projects/stimuli/pictures/S_yt-JtR6WZXT2kU_8.png	233.02788591384888	
144	197.60202884674072	picture	0		104.0	142.0	/home/egter/Projects/stimuli/pictures/n01871265_2136.JPEG	233.0469777584076	0.8680040836334229
144	198.456524848938	response	0	k		142.0	/home/egter/Projects/stimuli/pictures/n01871265_2136.JPEG	233.90147376060486	
145	198.47003293037415	picture	0		162.0	143.0	/home/egter/Projects/stimuli/pictures/R_S_comp_LW_L001_C006_PSNK_DENOISE_v02_SDR_PS_FINAL_20180709_SDR_2K_AVC.png	233.91498184204102	1.3540940284729004
145	199.81462502479553	response	0	j		143.0	/home/egter/Projects/stimuli/pictures/R_S_comp_LW_L001_C006_PSNK_DENOISE_v02_SDR_PS_FINAL_20180709_SDR_2K_AVC.png	235.2595739364624	
146	199.82412695884705	picture	0		91.0	144.0	/home/egter/Projects/stimuli/pictures/n01742172_7834.JPEG	235.26907587051392	0.7570819854736328
146	200.56617784500122	response	0	k		144.0	/home/egter/Projects/stimuli/pictures/n01742172_7834.JPEG	236.0111267566681	
147	200.58120894432068	picture	0		122.0	145.0	/home/egter/Projects/stimuli/pictures/n02667093_5587.JPEG	236.02615785598755	1.0206499099731445
147	201.58288407325745	response	0	k		145.0	/home/egter/Projects/stimuli/pictures/n02667093_5587.JPEG	237.02783298492432	
148	201.60185885429382	picture	0		142.0	146.0	/home/egter/Projects/stimuli/pictures/n09468604_13850.JPEG	237.0468077659607	1.1805710792541504
148	202.76618599891663	response	0	k		146.0	/home/egter/Projects/stimuli/pictures/n09468604_13850.JPEG	238.2111349105835	
149	202.78242993354797	picture	0		80.0	147.0	/home/egter/Projects/stimuli/pictures/S_ILSVRC2015_train_00042003.png	238.22737884521484	0.6666059494018555
149	203.43967700004578	response	0	k		147.0	/home/egter/Projects/stimuli/pictures/S_ILSVRC2015_train_00042003.png	238.88462591171265	
150	203.44903588294983	picture	0		152.0	148.0	/home/egter/Projects/stimuli/pictures/S_bing-vimeo_com_218382006_69.png	238.8939847946167	1.2709221839904785
150	204.70632696151733	response	0	k		148.0	/home/egter/Projects/stimuli/pictures/S_bing-vimeo_com_218382006_69.png	240.1512758731842	
151	204.7199580669403	picture	0		131.0	149.0	/home/egter/Projects/stimuli/pictures/R_S_yt-O4wUEZwHLyI_114.png	240.16490697860718	1.0971298217773438
151	205.79949307441711	response	0	j		149.0	/home/egter/Projects/stimuli/pictures/R_S_yt-O4wUEZwHLyI_114.png	241.24444198608398	
152	205.81708788871765	picture	0		116.0	150.0	/home/egter/Projects/stimuli/pictures/R_S_yt-tHBOlYmaBuk_96.png	241.26203680038452	0.965299129486084
152	206.7661578655243	response	0	j		150.0	/home/egter/Projects/stimuli/pictures/R_S_yt-tHBOlYmaBuk_96.png	242.21110677719116	
153	206.78238701820374	picture	0		85.0	151.0	/home/egter/Projects/stimuli/pictures/n02457408_9376.JPEG	242.2273359298706	0.7083189487457275
153	207.4812788963318	response	0	k		151.0	/home/egter/Projects/stimuli/pictures/n02457408_9376.JPEG	242.92622780799866	
154	207.49070596694946	picture	0		115.0	152.0	/home/egter/Projects/stimuli/pictures/S_yt-7Z6Kmp0n7L8_145.png	242.93565487861633	0.9583189487457275
154	208.43964099884033	response	0	j		152.0	/home/egter/Projects/stimuli/pictures/S_yt-7Z6Kmp0n7L8_145.png	243.8845899105072	
155	208.4490249156952	picture	0		120.0	153.0	/home/egter/Projects/stimuli/pictures/n02415577_28320.JPEG	243.89397382736206	0.9999949932098389
155	209.43967390060425	response	0	k		153.0	/home/egter/Projects/stimuli/pictures/n02415577_28320.JPEG	244.88462281227112	
156	209.44901990890503	picture	0		106.0	154.0	/home/egter/Projects/stimuli/pictures/n01729322_16009.JPEG	244.8939688205719	0.8821501731872559
156	210.32293796539307	response	0	k		154.0	/home/egter/Projects/stimuli/pictures/n01729322_16009.JPEG	245.76788687705994	
157	210.33117008209229	picture	0		117.0	155.0	/home/egter/Projects/stimuli/pictures/n06794110_6844.JPEG	245.77611899375916	0.9789268970489502
157	211.2979769706726	response	0	k		155.0	/home/egter/Projects/stimuli/pictures/n06794110_6844.JPEG	246.74292588233948	
158	211.31009697914124	picture	0		127.0	156.0	/home/egter/Projects/stimuli/pictures/S_yt-YLcmfyfIokU_64.png	246.7550458908081	1.0555620193481445
158	212.3562729358673	response	0	j		156.0	/home/egter/Projects/stimuli/pictures/S_yt-YLcmfyfIokU_64.png	247.80122184753418	
159	212.36565899848938	picture	0		85.0	157.0	/home/egter/Projects/stimuli/pictures/n01855032_5287.JPEG	247.81060791015625	0.7082879543304443
159	213.06462693214417	response	0	k		157.0	/home/egter/Projects/stimuli/pictures/n01855032_5287.JPEG	248.50957584381104	
160	213.07394695281982	picture	0		137.0	158.0	/home/egter/Projects/stimuli/pictures/n02117135_18682.JPEG	248.5188958644867	1.1459290981292725
160	214.20627784729004	response	0	k		158.0	/home/egter/Projects/stimuli/pictures/n02117135_18682.JPEG	249.6512267589569	
161	214.2198760509491	picture	0		147.0	159.0	/home/egter/Projects/stimuli/pictures/S_yt-xWCPbUQc-vg_7.png	249.66482496261597	1.2290868759155273
161	215.4395890235901	response	0	j		159.0	/home/egter/Projects/stimuli/pictures/S_yt-xWCPbUQc-vg_7.png	250.88453793525696	
162	215.44896292686462	picture	0		125.0	160.0	/home/egter/Projects/stimuli/pictures/n04264628_27969.JPEG	250.8939118385315	1.0416841506958008
162	216.481262922287	response	0	k		160.0	/home/egter/Projects/stimuli/pictures/n04264628_27969.JPEG	251.92621183395386	
163	216.49064707756042	picture	0		164.0	161.0	/home/egter/Projects/stimuli/pictures/S_pexels-cottonbro-6789228.png	251.9355959892273	1.3740768432617188
163	217.84793305397034	response	0	j		161.0	/home/egter/Projects/stimuli/pictures/S_pexels-cottonbro-6789228.png	253.2928819656372	
164	217.86472392082214	picture	0		73.0	162.0	/home/egter/Projects/stimuli/pictures/n04487081_4838.JPEG	253.309672832489	0.6119680404663086
164	218.46459197998047	response	0	k		162.0	/home/egter/Projects/stimuli/pictures/n04487081_4838.JPEG	253.90954089164734	
165	218.47669196128845	picture	0		100.0	163.0	/home/egter/Projects/stimuli/pictures/n01983481_8852.JPEG	253.92164087295532	0.833388090133667
165	219.297954082489	response	0	k		163.0	/home/egter/Projects/stimuli/pictures/n01983481_8852.JPEG	254.74290299415588	
166	219.31008005142212	picture	0		89.0	164.0	/home/egter/Projects/stimuli/pictures/S_BO_A014_C008_SDR_20190719_SDR_2K_AVC.png	254.755028963089	0.7430849075317383
166	220.03960490226746	response	0	j		164.0	/home/egter/Projects/stimuli/pictures/S_BO_A014_C008_SDR_20190719_SDR_2K_AVC.png	255.48455381393433	
167	220.05316495895386	picture	0		83.0	165.0	/home/egter/Projects/stimuli/pictures/n07742313_413.JPEG	255.49811387062073	0.6946310997009277
167	220.73958587646484	response	0	k		165.0	/home/egter/Projects/stimuli/pictures/n07742313_413.JPEG	256.1845347881317	
168	220.74779605865479	picture	0		116.0	166.0	/home/egter/Projects/stimuli/pictures/R_S_yt-8LO59eN9om4_16.png	256.19274497032166	0.9720108509063721
168	221.7062668800354	response	0	j		166.0	/home/egter/Projects/stimuli/pictures/R_S_yt-8LO59eN9om4_16.png	257.15121579170227	
169	221.71980690956116	picture	0		88.0	167.0	/home/egter/Projects/stimuli/pictures/R_S_yt-thmqgEV-sYY_91.png	257.164755821228	0.7362761497497559
169	222.44794487953186	response	0	j		167.0	/home/egter/Projects/stimuli/pictures/R_S_yt-thmqgEV-sYY_91.png	257.89289379119873	
170	222.4560830593109	picture	0		149.0	168.0	/home/egter/Projects/stimuli/pictures/S_yt-Fdv-V--QlR0_117.png	257.9010319709778	1.242790937423706
170	223.68957996368408	response	0	j		168.0	/home/egter/Projects/stimuli/pictures/S_yt-Fdv-V--QlR0_117.png	259.13452887535095	
171	223.69887399673462	picture	0		156.0	169.0	/home/egter/Projects/stimuli/pictures/S_yt-o96A55Szxkc_982.png	259.1438229084015	1.2988948822021484
171	224.98276901245117	response	0	k		169.0	/home/egter/Projects/stimuli/pictures/S_yt-o96A55Szxkc_982.png	260.42771792411804	
172	224.99776887893677	picture	0		107.0	170.0	/home/egter/Projects/stimuli/pictures/S_yt-zrCOCNRc2cY_254.png	260.44271779060364	0.8955299854278564
172	225.8812210559845	response	0	k		170.0	/home/egter/Projects/stimuli/pictures/S_yt-zrCOCNRc2cY_254.png	261.32616996765137	
173	225.89329886436462	picture	0		124.0	171.0	/home/egter/Projects/stimuli/pictures/R_S_production_ID_4101244.png	261.3382477760315	1.0347239971160889
173	226.91458797454834	response	0	j		171.0	/home/egter/Projects/stimuli/pictures/R_S_production_ID_4101244.png	262.3595368862152	
174	226.9280228614807	picture	0		83.0	172.0	/home/egter/Projects/stimuli/pictures/n02493509_10681.JPEG	262.3729717731476	0.6947011947631836
174	227.60776495933533	response	0	k		172.0	/home/egter/Projects/stimuli/pictures/n02493509_10681.JPEG	263.0527138710022	
175	227.6227240562439	picture	0		374.0	173.0	/home/egter/Projects/stimuli/pictures/n04141327_14626.JPEG	263.06767296791077	3.117743968963623
175	230.73118901252747	response	0	k		173.0	/home/egter/Projects/stimuli/pictures/n04141327_14626.JPEG	266.17613792419434	
176	230.74046802520752	picture	0		154.0	174.0	/home/egter/Projects/stimuli/pictures/S_yt-SvCjZ59S9wk_211.png	266.1854169368744	1.2908580303192139
176	232.01455307006836	response	0	j		174.0	/home/egter/Projects/stimuli/pictures/S_yt-SvCjZ59S9wk_211.png	267.45950198173523	
177	232.03132605552673	picture	0		451.0	175.0	/home/egter/Projects/stimuli/pictures/R_S_comp_DB_D002_C003_PSNK_v04_SDR_PS_20180914_SDR_2K_AVC.png	267.4762749671936	3.7651009559631348
177	235.78117203712463	response	0	j		175.0	/home/egter/Projects/stimuli/pictures/R_S_comp_DB_D002_C003_PSNK_v04_SDR_PS_20180914_SDR_2K_AVC.png	271.2261209487915	
178	235.79642701148987	picture	0		728.0	176.0	/home/egter/Projects/stimuli/pictures/S_wc-4cMsVgeKgq_t_1.png	271.24137592315674	6.06896185874939
178	241.85620403289795	response	0	k		176.0	/home/egter/Projects/stimuli/pictures/S_wc-4cMsVgeKgq_t_1.png	277.3011529445648	
179	241.86538887023926	picture	0		107.0	177.0	/home/egter/Projects/stimuli/pictures/R_S_yt-9t5-3Qe_t9A_591.png	277.3103377819061	0.8958580493927002
179	242.74784207344055	response	0	j		177.0	/home/egter/Projects/stimuli/pictures/R_S_yt-9t5-3Qe_t9A_591.png	278.1927909851074	
180	242.76124691963196	picture	0		88.0	178.0	/home/egter/Projects/stimuli/pictures/n04443257_5128.JPEG	278.2061958312988	0.7364659309387207
180	243.48948907852173	response	0	k		178.0	/home/egter/Projects/stimuli/pictures/n04443257_5128.JPEG	278.9344379901886	
181	243.49771285057068	picture	0		304.0	179.0	/home/egter/Projects/stimuli/pictures/n01873310_24983.JPEG	278.94266176223755	2.5343379974365234
181	246.0160870552063	response	0	k		179.0	/home/egter/Projects/stimuli/pictures/n01873310_24983.JPEG	281.46103596687317	
182	246.0320508480072	stim	0		1717.0			281.4769997596741	14.312397003173828
