trial_nr	onset	event_type	phase	response	nr_frames	picture_index	picture_file	onset_abs	duration
0	0.013840913772583008	stim	0		2256.0			34.342889070510864	19.357306957244873
0	0.005071878433227539	response	0	k				34.33412003517151	
0	18.808868885040283	response	0	space				53.137917041778564	
2	19.371147871017456	picture	0		139.0	0.0	/home/egter/Projects/stimuli/pictures/n04476259_714.JPEG	53.70019602775574	1.1541831493377686
2	20.510416984558105	response	0	k		0.0	/home/egter/Projects/stimuli/pictures/n04476259_714.JPEG	54.83946514129639	
3	20.525331020355225	picture	0		274.0	1.0	/home/egter/Projects/stimuli/pictures/S_yt-Ynol6-DKndM_497.png	54.854379177093506	2.2833218574523926
3	22.80048394203186	response	0	k		1.0	/home/egter/Projects/stimuli/pictures/S_yt-Ynol6-DKndM_497.png	57.12953209877014	
4	22.808652877807617	picture	0		135.0	2.0	/home/egter/Projects/stimuli/pictures/R_S_yt-hRAqAwRhmwE_58.png	57.1377010345459	1.125075101852417
4	23.918694972991943	response	0	j		2.0	/home/egter/Projects/stimuli/pictures/R_S_yt-hRAqAwRhmwE_58.png	58.247743129730225	
5	23.933727979660034	picture	0		93.0	3.0	/home/egter/Projects/stimuli/pictures/n04065272_3972.JPEG	58.262776136398315	0.7776949405670166
5	24.70045304298401	response	0	k		3.0	/home/egter/Projects/stimuli/pictures/n04065272_3972.JPEG	59.02950119972229	
6	24.71142292022705	picture	0		86.0	4.0	/home/egter/Projects/stimuli/pictures/n01697457_2423.JPEG	59.04047107696533	0.7152750492095947
6	25.417152881622314	response	0	k		4.0	/home/egter/Projects/stimuli/pictures/n01697457_2423.JPEG	59.746201038360596	
7	25.426697969436646	picture	0		87.0	5.0	/home/egter/Projects/stimuli/pictures/n02114855_37153.JPEG	59.75574612617493	0.7291650772094727
7	26.14221501350403	response	0	k		5.0	/home/egter/Projects/stimuli/pictures/n02114855_37153.JPEG	60.47126317024231	
8	26.155863046646118	picture	0		101.0	6.0	/home/egter/Projects/stimuli/pictures/S_yt-ObT9gF8E_tU_250.png	60.4849112033844	0.847214937210083
8	26.992097854614258	response	0	j		6.0	/home/egter/Projects/stimuli/pictures/S_yt-ObT9gF8E_tU_250.png	61.32114601135254	
9	27.0030779838562	picture	0		82.0	7.0	/home/egter/Projects/stimuli/pictures/S_yt-zpoIiHGRm5k_296.png	61.33212614059448	0.6805970668792725
9	27.675518035888672	response	0	j		7.0	/home/egter/Projects/stimuli/pictures/S_yt-zpoIiHGRm5k_296.png	62.00456619262695	
10	27.683675050735474	picture	0		91.0	8.0	/home/egter/Projects/stimuli/pictures/S_yt-gaXgXGEanCk_140.png	62.012723207473755	0.7582998275756836
10	28.433732986450195	response	0	j		8.0	/home/egter/Projects/stimuli/pictures/S_yt-gaXgXGEanCk_140.png	62.76278114318848	
11	28.441974878311157	picture	0		89.0	9.0	/home/egter/Projects/stimuli/pictures/n01930112_4870.JPEG	62.77102303504944	0.7416951656341553
11	29.17540192604065	response	0	k		9.0	/home/egter/Projects/stimuli/pictures/n01930112_4870.JPEG	63.50445008277893	
12	29.183670043945312	picture	0		189.0	10.0	/home/egter/Projects/stimuli/pictures/S_yt-wLylWnZs3z0_27.png	63.512718200683594	1.5763108730316162
12	30.750391006469727	response	0	k		10.0	/home/egter/Projects/stimuli/pictures/S_yt-wLylWnZs3z0_27.png	65.07943916320801	
13	30.75998091697693	picture	0		172.0	11.0	/home/egter/Projects/stimuli/pictures/R_S_yt-GaJaxp546lc_22.png	65.08902907371521	1.4375150203704834
13	32.18373703956604	response	0	k		11.0	/home/egter/Projects/stimuli/pictures/R_S_yt-GaJaxp546lc_22.png	66.51278519630432	
14	32.19749593734741	picture	0		88.0	12.0	/home/egter/Projects/stimuli/pictures/S_ILSVRC2015_train_00599000.png	66.5265440940857	0.7360889911651611
14	32.91854286193848	response	0	j		12.0	/home/egter/Projects/stimuli/pictures/S_ILSVRC2015_train_00599000.png	67.24759101867676	
15	32.93358492851257	picture	0		112.0	13.0	/home/egter/Projects/stimuli/pictures/n01756291_2795.JPEG	67.26263308525085	0.9375219345092773
15	33.85884690284729	response	0	k		13.0	/home/egter/Projects/stimuli/pictures/n01756291_2795.JPEG	68.18789505958557	
16	33.87110686302185	picture	0		101.0	14.0	/home/egter/Projects/stimuli/pictures/R_S_yt-sWJc_Do8EaI_32.png	68.20015501976013	0.8402330875396729
16	34.700358867645264	response	0	k		14.0	/home/egter/Projects/stimuli/pictures/R_S_yt-sWJc_Do8EaI_32.png	69.02940702438354	
17	34.71133995056152	picture	0		110.0	15.0	/home/egter/Projects/stimuli/pictures/R_S_video-7.png	69.0403881072998	0.9166948795318604
17	35.617055892944336	response	0	j		15.0	/home/egter/Projects/stimuli/pictures/R_S_video-7.png	69.94610404968262	
18	35.628034830093384	picture	0		87.0	16.0	/home/egter/Projects/stimuli/pictures/n01689811_1897.JPEG	69.95708298683167	0.7222511768341064
18	36.341979026794434	response	0	k		16.0	/home/egter/Projects/stimuli/pictures/n01689811_1897.JPEG	70.67102718353271	
19	36.35028600692749	picture	0		111.0	17.0	/home/egter/Projects/stimuli/pictures/ILSVRC2012_val_00006661.JPEG	70.67933416366577	0.9304728507995605
19	37.26701498031616	response	0	k		17.0	/home/egter/Projects/stimuli/pictures/ILSVRC2012_val_00006661.JPEG	71.59606313705444	
20	37.28075885772705	picture	0		95.0	18.0	/home/egter/Projects/stimuli/pictures/R_S_yt-uXDyvrm0Tw0_17.png	71.60980701446533	0.798612117767334
20	38.06707692146301	response	0	j		18.0	/home/egter/Projects/stimuli/pictures/R_S_yt-uXDyvrm0Tw0_17.png	72.3961250782013	
21	38.079370975494385	picture	0		99.0	19.0	/home/egter/Projects/stimuli/pictures/R_S_ILSVRC2015_train_00369004.png	72.40841913223267	0.8263728618621826
21	38.89207983016968	response	0	j		19.0	/home/egter/Projects/stimuli/pictures/R_S_ILSVRC2015_train_00369004.png	73.22112798690796	
22	38.90574383735657	picture	0		99.0	20.0	/home/egter/Projects/stimuli/pictures/R_S_yt-BLmwmX-mni8_56.png	73.23479199409485	0.8333251476287842
22	39.71855401992798	response	0	j		20.0	/home/egter/Projects/stimuli/pictures/R_S_yt-BLmwmX-mni8_56.png	74.04760217666626	
23	39.73906898498535	picture	0		93.0	21.0	/home/egter/Projects/stimuli/pictures/n03131574_4227.JPEG	74.06811714172363	0.7778520584106445
23	40.50183606147766	response	0	k		21.0	/home/egter/Projects/stimuli/pictures/n03131574_4227.JPEG	74.83088421821594	
24	40.516921043395996	picture	0		122.0	22.0	/home/egter/Projects/stimuli/pictures/n03492542_36157.JPEG	74.84596920013428	1.020751953125
24	41.51857304573059	response	0	k		22.0	/home/egter/Projects/stimuli/pictures/n03492542_36157.JPEG	75.84762120246887	
25	41.537672996520996	picture	0		96.0	23.0	/home/egter/Projects/stimuli/pictures/ILSVRC2012_test_00011550.JPEG	75.86672115325928	0.7985439300537109
25	42.31850290298462	response	0	k		23.0	/home/egter/Projects/stimuli/pictures/ILSVRC2012_test_00011550.JPEG	76.6475510597229	
26	42.33621692657471	picture	0		89.0	24.0	/home/egter/Projects/stimuli/pictures/R_S_yt-z68VLDDCFdw_93.png	76.66526508331299	0.7430651187896729
26	43.067025899887085	response	0	j		24.0	/home/egter/Projects/stimuli/pictures/R_S_yt-z68VLDDCFdw_93.png	77.39607405662537	
27	43.07928204536438	picture	0		86.0	25.0	/home/egter/Projects/stimuli/pictures/n03014705_32336.JPEG	77.40833020210266	0.715256929397583
27	43.7836639881134	response	0	k		25.0	/home/egter/Projects/stimuli/pictures/n03014705_32336.JPEG	78.11271214485168	
28	43.79453897476196	picture	0		108.0	26.0	/home/egter/Projects/stimuli/pictures/n02704792_6350.JPEG	78.12358713150024	0.902803897857666
28	44.683642864227295	response	0	k		26.0	/home/egter/Projects/stimuli/pictures/n02704792_6350.JPEG	79.01269102096558	
29	44.69734287261963	picture	0		118.0	27.0	/home/egter/Projects/stimuli/pictures/R_S_ILSVRC2015_train_00697001.png	79.02639102935791	0.9861810207366943
29	45.675320863723755	response	0	j		27.0	/home/egter/Projects/stimuli/pictures/R_S_ILSVRC2015_train_00697001.png	80.00436902046204	
30	45.68352389335632	picture	0		87.0	28.0	/home/egter/Projects/stimuli/pictures/n01669191_5844.JPEG	80.0125720500946	0.7290639877319336
30	46.40031385421753	response	0	k		28.0	/home/egter/Projects/stimuli/pictures/n01669191_5844.JPEG	80.72936201095581	
31	46.41258788108826	picture	0		96.0	29.0	/home/egter/Projects/stimuli/pictures/S_yt-W00vtWnXgIk_73.png	80.74163603782654	0.7985990047454834
31	47.200310945510864	response	0	j		29.0	/home/egter/Projects/stimuli/pictures/S_yt-W00vtWnXgIk_73.png	81.52935910224915	
32	47.21118688583374	picture	0		86.0	30.0	/home/egter/Projects/stimuli/pictures/S_video-7.png	81.54023504257202	0.7152590751647949
32	47.91015887260437	response	0	j		30.0	/home/egter/Projects/stimuli/pictures/S_video-7.png	82.23920702934265	
33	47.926445960998535	picture	0		107.0	31.0	/home/egter/Projects/stimuli/pictures/S_diEJGTjLdOs_72.png	82.25549411773682	0.8958160877227783
33	48.808608055114746	response	0	k		31.0	/home/egter/Projects/stimuli/pictures/S_diEJGTjLdOs_72.png	83.13765621185303	
34	48.82226204872131	picture	0		92.0	32.0	/home/egter/Projects/stimuli/pictures/S_ILSVRC2015_train_00165011.png	83.1513102054596	0.7708518505096436
34	49.5836238861084	response	0	j		32.0	/home/egter/Projects/stimuli/pictures/S_ILSVRC2015_train_00165011.png	83.91267204284668	
35	49.59311389923096	picture	0		86.0	33.0	/home/egter/Projects/stimuli/pictures/n02814533_2754.JPEG	83.92216205596924	0.7154090404510498
35	50.300297021865845	response	0	k		33.0	/home/egter/Projects/stimuli/pictures/n02814533_2754.JPEG	84.62934517860413	
36	50.30852293968201	picture	0		102.0	34.0	/home/egter/Projects/stimuli/pictures/n07718747_408.JPEG	84.63757109642029	0.8540430068969727
36	51.15035796165466	response	0	k		34.0	/home/egter/Projects/stimuli/pictures/n07718747_408.JPEG	85.47940611839294	
37	51.16256594657898	picture	0		84.0	35.0	/home/egter/Projects/stimuli/pictures/n04037443_21912.JPEG	85.49161410331726	0.7014338970184326
37	51.850334882736206	response	0	k		35.0	/home/egter/Projects/stimuli/pictures/n04037443_21912.JPEG	86.17938303947449	
38	51.86399984359741	picture	0		99.0	36.0	/home/egter/Projects/stimuli/pictures/S_yt-O6FS0xnF0CU_106.png	86.1930480003357	0.8278830051422119
38	52.6836838722229	response	0	k		36.0	/home/egter/Projects/stimuli/pictures/S_yt-O6FS0xnF0CU_106.png	87.01273202896118	
39	52.691882848739624	picture	0		89.0	37.0	/home/egter/Projects/stimuli/pictures/R_S_yt--jzScB82vKI_212.png	87.0209310054779	0.7416059970855713
39	53.4253249168396	response	0	j		37.0	/home/egter/Projects/stimuli/pictures/R_S_yt--jzScB82vKI_212.png	87.75437307357788	
40	53.433488845825195	picture	0		69.0	38.0	/home/egter/Projects/stimuli/pictures/n04131690_6113.JPEG	87.76253700256348	0.5762710571289062
40	54.000311851501465	response	0	k		38.0	/home/egter/Projects/stimuli/pictures/n04131690_6113.JPEG	88.32936000823975	
41	54.0097599029541	picture	0		109.0	39.0	/home/egter/Projects/stimuli/pictures/S_yt-65cexqxy5lU_35.png	88.33880805969238	0.9096939563751221
41	54.908681869506836	response	0	k		39.0	/home/egter/Projects/stimuli/pictures/S_yt-65cexqxy5lU_35.png	89.23773002624512	
42	54.919453859329224	picture	0		80.0	40.0	/home/egter/Projects/stimuli/pictures/n01751748_9158.JPEG	89.2485020160675	0.6666710376739502
42	55.57529902458191	response	0	k		40.0	/home/egter/Projects/stimuli/pictures/n01751748_9158.JPEG	89.90434718132019	
43	55.586124897003174	picture	0		88.0	41.0	/home/egter/Projects/stimuli/pictures/n02027492_4942.JPEG	89.91517305374146	0.7361021041870117
43	56.30863690376282	response	0	k		41.0	/home/egter/Projects/stimuli/pictures/n02027492_4942.JPEG	90.6376850605011	
44	56.322227001190186	picture	0		107.0	42.0	/home/egter/Projects/stimuli/pictures/S_yt-BlWfK4MkjWA_469.png	90.65127515792847	0.8958230018615723
44	57.20861887931824	response	0	j		42.0	/home/egter/Projects/stimuli/pictures/S_yt-BlWfK4MkjWA_469.png	91.53766703605652	
45	57.21805000305176	picture	0		97.0	43.0	/home/egter/Projects/stimuli/pictures/R_S_yt-gmiyqQDGN78_7.png	91.54709815979004	0.8124768733978271
45	58.01692795753479	response	0	j		43.0	/home/egter/Projects/stimuli/pictures/R_S_yt-gmiyqQDGN78_7.png	92.34597611427307	
46	58.030526876449585	picture	0		87.0	44.0	/home/egter/Projects/stimuli/pictures/S_yt-N1ZrWT4xyzc_85.png	92.35957503318787	0.729201078414917
46	58.75022101402283	response	0	j		44.0	/home/egter/Projects/stimuli/pictures/S_yt-N1ZrWT4xyzc_85.png	93.07926917076111	
47	58.7597279548645	picture	0		93.0	45.0	/home/egter/Projects/stimuli/pictures/n01729322_10908.JPEG	93.08877611160278	0.7777919769287109
47	59.5184268951416	response	0	k		45.0	/home/egter/Projects/stimuli/pictures/n01729322_10908.JPEG	93.84747505187988	
48	59.53751993179321	picture	0		109.0	46.0	/home/egter/Projects/stimuli/pictures/n03977966_2901.JPEG	93.8665680885315	0.9096879959106445
48	60.433637857437134	response	0	k		46.0	/home/egter/Projects/stimuli/pictures/n03977966_2901.JPEG	94.76268601417542	
49	60.44720792770386	picture	0		94.0	47.0	/home/egter/Projects/stimuli/pictures/S_yt-7NjoFHBdP7c_102.png	94.77625608444214	0.7916450500488281
49	61.22530388832092	response	0	j		47.0	/home/egter/Projects/stimuli/pictures/S_yt-7NjoFHBdP7c_102.png	95.5543520450592	
50	61.238852977752686	picture	0		105.0	48.0	/home/egter/Projects/stimuli/pictures/R_S_yt-jYSri2JVUqo_1036.png	95.56790113449097	0.8819608688354492
50	62.10865092277527	response	0	j		48.0	/home/egter/Projects/stimuli/pictures/R_S_yt-jYSri2JVUqo_1036.png	96.43769907951355	
51	62.120813846588135	picture	0		94.0	49.0	/home/egter/Projects/stimuli/pictures/S_yt-wPXrAuiiRZg_1062.png	96.44986200332642	0.7846920490264893
51	62.89194083213806	response	0	j		49.0	/home/egter/Projects/stimuli/pictures/S_yt-wPXrAuiiRZg_1062.png	97.22098898887634	
52	62.905505895614624	picture	0		116.0	50.0	/home/egter/Projects/stimuli/pictures/R_S_ILSVRC2015_train_00708000.png	97.2345540523529	0.97222900390625
52	63.866952896118164	response	0	k		50.0	/home/egter/Projects/stimuli/pictures/R_S_ILSVRC2015_train_00708000.png	98.19600105285645	
53	63.877734899520874	picture	0		80.0	51.0	/home/egter/Projects/stimuli/pictures/ILSVRC2012_test_00080382.JPEG	98.20678305625916	0.6666491031646729
53	64.52677297592163	response	0	k		51.0	/home/egter/Projects/stimuli/pictures/ILSVRC2012_test_00080382.JPEG	98.85582113265991	
54	64.54438400268555	picture	0		106.0	52.0	/home/egter/Projects/stimuli/pictures/n03721384_6710.JPEG	98.87343215942383	0.8819370269775391
54	65.41695594787598	response	0	k		52.0	/home/egter/Projects/stimuli/pictures/n03721384_6710.JPEG	99.74600410461426	
55	65.42632102966309	picture	0		109.0	53.0	/home/egter/Projects/stimuli/pictures/S_yt-Ja7d2a6e5xE_279.png	99.75536918640137	0.9097108840942383
55	66.31845092773438	response	0	j		53.0	/home/egter/Projects/stimuli/pictures/S_yt-Ja7d2a6e5xE_279.png	100.64749908447266	
56	66.33603191375732	picture	0		137.0	54.0	/home/egter/Projects/stimuli/pictures/S_yt-q5Wp_yDLujU_108.png	100.6650800704956	1.1391310691833496
56	67.46692299842834	response	0	j		54.0	/home/egter/Projects/stimuli/pictures/S_yt-q5Wp_yDLujU_108.png	101.79597115516663	
57	67.47516298294067	picture	0		142.0	55.0	/home/egter/Projects/stimuli/pictures/S_yt-y6JsUW0eSW8_32.png	101.80421113967896	1.1872198581695557
57	68.65022993087769	response	0	j		55.0	/home/egter/Projects/stimuli/pictures/S_yt-y6JsUW0eSW8_32.png	102.97927808761597	
58	68.66238284111023	picture	0		148.0	56.0	/home/egter/Projects/stimuli/pictures/S_yt-5qJf4U6lgv0_77.png	102.99143099784851	1.229403018951416
58	69.88358783721924	response	0	k		56.0	/home/egter/Projects/stimuli/pictures/S_yt-5qJf4U6lgv0_77.png	104.21263599395752	
59	69.89178586006165	picture	0		72.0	57.0	/home/egter/Projects/stimuli/pictures/n13052670_8525.JPEG	104.22083401679993	0.6039271354675293
59	70.4835798740387	response	0	k		57.0	/home/egter/Projects/stimuli/pictures/n13052670_8525.JPEG	104.81262803077698	
60	70.49571299552917	picture	0		110.0	58.0	/home/egter/Projects/stimuli/pictures/n02814533_4087.JPEG	104.82476115226746	0.9166688919067383
60	71.40018892288208	response	0	k		58.0	/home/egter/Projects/stimuli/pictures/n02814533_4087.JPEG	105.72923707962036	
61	71.41238188743591	picture	0		71.0	59.0	/home/egter/Projects/stimuli/pictures/ILSVRC2012_test_00065177.JPEG	105.7414300441742	0.5902690887451172
61	71.99188804626465	response	0	k		59.0	/home/egter/Projects/stimuli/pictures/ILSVRC2012_test_00065177.JPEG	106.32093620300293	
62	72.00265097618103	picture	0		100.0	60.0	/home/egter/Projects/stimuli/pictures/S_yt-NqZHX-eOVUA_35.png	106.33169913291931	0.8402199745178223
62	72.82522201538086	response	0	k		60.0	/home/egter/Projects/stimuli/pictures/S_yt-NqZHX-eOVUA_35.png	107.15427017211914	
63	72.84287095069885	picture	0		92.0	61.0	/home/egter/Projects/stimuli/pictures/n01641577_6980.JPEG	107.17191910743713	0.770880937576294
63	73.60021185874939	response	0	k		61.0	/home/egter/Projects/stimuli/pictures/n01641577_6980.JPEG	107.92926001548767	
64	73.61375188827515	picture	0		99.0	62.0	/home/egter/Projects/stimuli/pictures/S_ILSVRC2015_train_00369004.png	107.94280004501343	0.8333091735839844
64	74.43348598480225	response	0	j		62.0	/home/egter/Projects/stimuli/pictures/S_ILSVRC2015_train_00369004.png	108.76253414154053	
65	74.44706106185913	picture	0		128.0	63.0	/home/egter/Projects/stimuli/pictures/n02704792_27167.JPEG	108.77610921859741	1.0696909427642822
65	75.50855803489685	response	0	k		63.0	/home/egter/Projects/stimuli/pictures/n02704792_27167.JPEG	109.83760619163513	
66	75.51675200462341	picture	0		114.0	64.0	/home/egter/Projects/stimuli/pictures/n04149813_791.JPEG	109.8458001613617	0.9511198997497559
66	76.45854687690735	response	0	k		64.0	/home/egter/Projects/stimuli/pictures/n04149813_791.JPEG	110.78759503364563	
67	76.46787190437317	picture	0		89.0	65.0	/home/egter/Projects/stimuli/pictures/R_S_yt-SgiTZNjCPCo_19.png	110.79692006111145	0.7430410385131836
67	77.20011901855469	response	0	j		65.0	/home/egter/Projects/stimuli/pictures/R_S_yt-SgiTZNjCPCo_19.png	111.52916717529297	
68	77.21091294288635	picture	0		91.0	66.0	/home/egter/Projects/stimuli/pictures/n01632458_3672.JPEG	111.53996109962463	0.7569549083709717
68	77.95163583755493	response	0	k		66.0	/home/egter/Projects/stimuli/pictures/n01632458_3672.JPEG	112.28068399429321	
69	77.96786785125732	picture	0		172.0	67.0	/home/egter/Projects/stimuli/pictures/n02389026_2712.JPEG	112.2969160079956	1.4374921321868896
69	79.39185786247253	response	0	k		67.0	/home/egter/Projects/stimuli/pictures/n02389026_2712.JPEG	113.72090601921082	
70	79.40535998344421	picture	0		142.0	68.0	/home/egter/Projects/stimuli/pictures/S_yt-83nimFMNhrM_131.png	113.7344081401825	1.1946780681610107
70	80.58352494239807	response	0	j		68.0	/home/egter/Projects/stimuli/pictures/S_yt-83nimFMNhrM_131.png	114.91257309913635	
71	80.60003805160522	picture	0		83.0	69.0	/home/egter/Projects/stimuli/pictures/n02105056_4582.JPEG	114.9290862083435	0.6941478252410889
71	81.28354787826538	response	0	k		69.0	/home/egter/Projects/stimuli/pictures/n02105056_4582.JPEG	115.61259603500366	
72	81.29418587684631	picture	0		116.0	70.0	/home/egter/Projects/stimuli/pictures/S_yt-qHUewJuLW4o_19.png	115.6232340335846	0.9652440547943115
72	82.25018787384033	response	0	k		70.0	/home/egter/Projects/stimuli/pictures/S_yt-qHUewJuLW4o_19.png	116.57923603057861	
73	82.25942993164062	picture	0		93.0	71.0	/home/egter/Projects/stimuli/pictures/n01737021_11056.JPEG	116.5884780883789	0.777817964553833
73	83.02509903907776	response	0	k		71.0	/home/egter/Projects/stimuli/pictures/n01737021_11056.JPEG	117.35414719581604	
74	83.03724789619446	picture	0		108.0	72.0	/home/egter/Projects/stimuli/pictures/n01833805_1496.JPEG	117.36629605293274	0.8961329460144043
74	83.92516684532166	response	0	k		72.0	/home/egter/Projects/stimuli/pictures/n01833805_1496.JPEG	118.25421500205994	
75	83.93338084220886	picture	0		103.0	73.0	/home/egter/Projects/stimuli/pictures/n13044778_7984.JPEG	118.26242899894714	0.8607821464538574
75	84.78349900245667	response	0	k		73.0	/home/egter/Projects/stimuli/pictures/n13044778_7984.JPEG	119.11254715919495	
76	84.79416298866272	picture	0		209.0	74.0	/home/egter/Projects/stimuli/pictures/S_ILSVRC2015_train_00661004.png	119.123211145401	1.7430739402770996
76	86.52526497840881	response	0	k		74.0	/home/egter/Projects/stimuli/pictures/S_ILSVRC2015_train_00661004.png	120.8543131351471	
77	86.53723692893982	picture	0		96.0	75.0	/home/egter/Projects/stimuli/pictures/R_S_yt-GVaF4tmJBZE_253.png	120.8662850856781	0.798630952835083
77	87.32515501976013	response	0	j		75.0	/home/egter/Projects/stimuli/pictures/R_S_yt-GVaF4tmJBZE_253.png	121.65420317649841	
78	87.3358678817749	picture	0		124.0	76.0	/home/egter/Projects/stimuli/pictures/n02134084_20875.JPEG	121.66491603851318	1.0346519947052002
78	88.35174989700317	response	0	k		76.0	/home/egter/Projects/stimuli/pictures/n02134084_20875.JPEG	122.68079805374146	
79	88.3705198764801	picture	0		89.0	77.0	/home/egter/Projects/stimuli/pictures/n01955084_12323.JPEG	122.69956803321838	0.7430610656738281
79	89.10016202926636	response	0	k		77.0	/home/egter/Projects/stimuli/pictures/n01955084_12323.JPEG	123.42921018600464	
80	89.11358094215393	picture	0		141.0	78.0	/home/egter/Projects/stimuli/pictures/R_S_yt-JVhfcpV7OaY_71.png	123.44262909889221	1.1805050373077393
80	90.28349685668945	response	0	k		78.0	/home/egter/Projects/stimuli/pictures/R_S_yt-JVhfcpV7OaY_71.png	124.61254501342773	
81	90.29408597946167	picture	0		115.0	79.0	/home/egter/Projects/stimuli/pictures/S_pexels-mikhail-nilov-8410088.png	124.62313413619995	0.9583618640899658
81	91.2417688369751	response	0	j		79.0	/home/egter/Projects/stimuli/pictures/S_pexels-mikhail-nilov-8410088.png	125.57081699371338	
82	91.25244784355164	picture	0		174.0	80.0	/home/egter/Projects/stimuli/pictures/R_S_G008_C015_UHD_SDR_2K_AVC.png	125.58149600028992	1.4513781070709229
82	92.6917998790741	response	0	j		80.0	/home/egter/Projects/stimuli/pictures/R_S_G008_C015_UHD_SDR_2K_AVC.png	127.02084803581238	
83	92.70382595062256	picture	0		83.0	81.0	/home/egter/Projects/stimuli/pictures/n07871810_4559.JPEG	127.03287410736084	0.6878819465637207
83	93.38347792625427	response	0	k		81.0	/home/egter/Projects/stimuli/pictures/n07871810_4559.JPEG	127.71252608299255	
84	93.39170789718628	picture	0		115.0	82.0	/home/egter/Projects/stimuli/pictures/R_S_ILSVRC2015_train_00569002.png	127.72075605392456	0.9648849964141846
84	94.3350419998169	response	0	j		82.0	/home/egter/Projects/stimuli/pictures/R_S_ILSVRC2015_train_00569002.png	128.66409015655518	
85	94.35659289360046	picture	0		98.0	83.0	/home/egter/Projects/stimuli/pictures/S_comp_GMT026_363A_103NC_E1027_KOREA_JAPAN_NIGHT_v18_SDR_PS_20180907_SDR_2K_AVC.png	128.68564105033875	0.8267061710357666
85	95.17513990402222	response	0	j		83.0	/home/egter/Projects/stimuli/pictures/S_comp_GMT026_363A_103NC_E1027_KOREA_JAPAN_NIGHT_v18_SDR_PS_20180907_SDR_2K_AVC.png	129.5041880607605	
86	95.18329906463623	picture	0		97.0	84.0	/home/egter/Projects/stimuli/pictures/R_S_pexels-rodnae-productions-7467585.png	129.5123472213745	0.8121547698974609
86	95.983482837677	response	0	j		84.0	/home/egter/Projects/stimuli/pictures/R_S_pexels-rodnae-productions-7467585.png	130.31253099441528	
87	95.99545383453369	picture	0		115.0	85.0	/home/egter/Projects/stimuli/pictures/R_S_ILSVRC2015_train_00408000.png	130.32450199127197	0.9583241939544678
87	96.93496203422546	response	0	k		85.0	/home/egter/Projects/stimuli/pictures/R_S_ILSVRC2015_train_00408000.png	131.26401019096375	
88	96.95377802848816	picture	0		105.0	86.0	/home/egter/Projects/stimuli/pictures/S_yt-cBCeq1NQgj0_1129.png	131.28282618522644	0.8750338554382324
88	97.81692099571228	response	0	j		86.0	/home/egter/Projects/stimuli/pictures/S_yt-cBCeq1NQgj0_1129.png	132.14596915245056	
89	97.82881188392639	picture	0		106.0	87.0	/home/egter/Projects/stimuli/pictures/S_yt-H2y1th4WaWU_51.png	132.15786004066467	0.8819069862365723
89	98.7000789642334	response	0	k		87.0	/home/egter/Projects/stimuli/pictures/S_yt-H2y1th4WaWU_51.png	133.02912712097168	
90	98.71071887016296	picture	0		91.0	88.0	/home/egter/Projects/stimuli/pictures/R_S_yt-N1EsjM9gD5Q_21.png	133.03976702690125	0.7570610046386719
90	99.45842599868774	response	0	j		88.0	/home/egter/Projects/stimuli/pictures/R_S_yt-N1EsjM9gD5Q_21.png	133.78747415542603	
91	99.46777987480164	picture	0		101.0	89.0	/home/egter/Projects/stimuli/pictures/S_ILSVRC2015_train_00318000.png	133.79682803153992	0.8405120372772217
91	100.30007791519165	response	0	j		89.0	/home/egter/Projects/stimuli/pictures/S_ILSVRC2015_train_00318000.png	134.62912607192993	
92	100.30829191207886	picture	0		98.0	90.0	/home/egter/Projects/stimuli/pictures/S_yt-H3EadcgKySM_58.png	134.63734006881714	0.819066047668457
92	101.11678385734558	response	0	j		90.0	/home/egter/Projects/stimuli/pictures/S_yt-H3EadcgKySM_58.png	135.44583201408386	
93	101.12735795974731	picture	0		126.0	91.0	/home/egter/Projects/stimuli/pictures/S_flickr-51283549@N02-23064904264_16.png	135.4564061164856	1.048583984375
93	102.15994691848755	response	0	j		91.0	/home/egter/Projects/stimuli/pictures/S_flickr-51283549@N02-23064904264_16.png	136.48899507522583	
94	102.17594194412231	picture	0		202.0	92.0	/home/egter/Projects/stimuli/pictures/S_yt-6kzW30NcCOY_49.png	136.5049901008606	1.6875009536743164
94	103.85006284713745	response	0	k		92.0	/home/egter/Projects/stimuli/pictures/S_yt-6kzW30NcCOY_49.png	138.17911100387573	
95	103.86344289779663	picture	0		103.0	93.0	/home/egter/Projects/stimuli/pictures/S_yt-fP2JRJAFGZ4_25.png	138.1924910545349	0.8615081310272217
95	104.71677899360657	response	0	j		93.0	/home/egter/Projects/stimuli/pictures/S_yt-fP2JRJAFGZ4_25.png	139.04582715034485	
96	104.72495102882385	picture	0		111.0	94.0	/home/egter/Projects/stimuli/pictures/n02859443_32287.JPEG	139.05399918556213	0.9301629066467285
96	105.64175796508789	response	0	k		94.0	/home/egter/Projects/stimuli/pictures/n02859443_32287.JPEG	139.97080612182617	
97	105.65511393547058	picture	0		100.0	95.0	/home/egter/Projects/stimuli/pictures/n02687172_17741.JPEG	139.98416209220886	0.8402669429779053
97	106.4834258556366	response	0	k		95.0	/home/egter/Projects/stimuli/pictures/n02687172_17741.JPEG	140.81247401237488	
98	106.49538087844849	picture	0		105.0	96.0	/home/egter/Projects/stimuli/pictures/n04462240_2980.JPEG	140.82442903518677	0.8750650882720947
98	107.35170102119446	response	0	k		96.0	/home/egter/Projects/stimuli/pictures/n04462240_2980.JPEG	141.68074917793274	
99	107.37044596672058	picture	0		122.0	97.0	/home/egter/Projects/stimuli/pictures/S_comp_LA_A006_C008_PSNK_ALL_LOGOS_v10_SDR_PS_FINAL_20180801_SDR_2K_AVC.png	141.69949412345886	1.0211799144744873
99	108.38340187072754	response	0	j		97.0	/home/egter/Projects/stimuli/pictures/S_comp_LA_A006_C008_PSNK_ALL_LOGOS_v10_SDR_PS_FINAL_20180801_SDR_2K_AVC.png	142.71245002746582	
100	108.39162588119507	picture	0		98.0	98.0	/home/egter/Projects/stimuli/pictures/n02835271_10202.JPEG	142.72067403793335	0.8189990520477295
100	109.19998288154602	response	0	k		98.0	/home/egter/Projects/stimuli/pictures/n02835271_10202.JPEG	143.5290310382843	
101	109.2106249332428	picture	0		101.0	99.0	/home/egter/Projects/stimuli/pictures/n04418357_402.JPEG	143.53967308998108	0.8402469158172607
101	110.04174900054932	response	0	k		99.0	/home/egter/Projects/stimuli/pictures/n04418357_402.JPEG	144.3707971572876	
102	110.05087184906006	picture	0		116.0	100.0	/home/egter/Projects/stimuli/pictures/n09399592_16402.JPEG	144.37992000579834	0.9656991958618164
102	111.00846099853516	response	0	k		100.0	/home/egter/Projects/stimuli/pictures/n09399592_16402.JPEG	145.33750915527344	
103	111.01657104492188	picture	0		99.0	101.0	/home/egter/Projects/stimuli/pictures/R_S_yt-v66td-1WO7w_44.png	145.34561920166016	0.8259289264678955
103	111.83339285850525	response	0	j		101.0	/home/egter/Projects/stimuli/pictures/R_S_yt-v66td-1WO7w_44.png	146.16244101524353	
104	111.84249997138977	picture	0		97.0	102.0	/home/egter/Projects/stimuli/pictures/S_yt-dj0XQUJos38_14.png	146.17154812812805	0.8125078678131104
104	112.64180994033813	response	0	j		102.0	/home/egter/Projects/stimuli/pictures/S_yt-dj0XQUJos38_14.png	146.97085809707642	
105	112.65500783920288	picture	0		124.0	103.0	/home/egter/Projects/stimuli/pictures/n03447447_7930.JPEG	146.98405599594116	1.0418071746826172
105	113.68341493606567	response	0	k		103.0	/home/egter/Projects/stimuli/pictures/n03447447_7930.JPEG	148.01246309280396	
106	113.6968150138855	picture	0		106.0	104.0	/home/egter/Projects/stimuli/pictures/n02687172_14814.JPEG	148.02586317062378	0.8887720108032227
106	114.57504796981812	response	0	k		104.0	/home/egter/Projects/stimuli/pictures/n02687172_14814.JPEG	148.9040961265564	
107	114.58558702468872	picture	0		74.0	105.0	/home/egter/Projects/stimuli/pictures/n01644373_7812.JPEG	148.914635181427	0.6180038452148438
107	115.19171500205994	response	0	k		105.0	/home/egter/Projects/stimuli/pictures/n01644373_7812.JPEG	149.52076315879822	
108	115.20359086990356	picture	0		140.0	106.0	/home/egter/Projects/stimuli/pictures/ILSVRC2012_test_00091481.JPEG	149.53263902664185	1.166750192642212
108	116.35151290893555	response	0	k		106.0	/home/egter/Projects/stimuli/pictures/ILSVRC2012_test_00091481.JPEG	150.68056106567383	
109	116.37034106254578	picture	0		97.0	107.0	/home/egter/Projects/stimuli/pictures/R_S_yt-H45g6700wbc_159.png	150.69938921928406	0.8129258155822754
109	117.16825485229492	response	0	j		107.0	/home/egter/Projects/stimuli/pictures/R_S_yt-H45g6700wbc_159.png	151.4973030090332	
110	117.18326687812805	picture	0		118.0	108.0	/home/egter/Projects/stimuli/pictures/R_S_flickr-slruok-8006772217_6.png	151.51231503486633	0.985630989074707
110	118.15159201622009	response	0	j		108.0	/home/egter/Projects/stimuli/pictures/R_S_flickr-slruok-8006772217_6.png	152.48064017295837	
111	118.16889786720276	picture	0		84.0	109.0	/home/egter/Projects/stimuli/pictures/n03791053_10671.JPEG	152.49794602394104	0.7013771533966064
111	118.85836791992188	response	0	k		109.0	/home/egter/Projects/stimuli/pictures/n03791053_10671.JPEG	153.18741607666016	
112	118.87027502059937	picture	0		111.0	110.0	/home/egter/Projects/stimuli/pictures/n03868863_3429.JPEG	153.19932317733765	0.9235959053039551
112	119.78338193893433	response	0	k		110.0	/home/egter/Projects/stimuli/pictures/n03868863_3429.JPEG	154.1124300956726	
113	119.79387092590332	picture	0		122.0	111.0	/home/egter/Projects/stimuli/pictures/n02087394_15829.JPEG	154.1229190826416	1.0143461227416992
113	120.79997396469116	response	0	k		111.0	/home/egter/Projects/stimuli/pictures/n02087394_15829.JPEG	155.12902212142944	
114	120.80821704864502	picture	0		138.0	112.0	/home/egter/Projects/stimuli/pictures/S_yt-RO4mhuXBVrY_67.png	155.1372652053833	1.1522819995880127
114	121.94328498840332	response	0	k		112.0	/home/egter/Projects/stimuli/pictures/S_yt-RO4mhuXBVrY_67.png	156.2723331451416	
115	121.96049904823303	picture	0		202.0	113.0	/home/egter/Projects/stimuli/pictures/S_yt-oPq1uvbw-lQ_62.png	156.2895472049713	1.6810150146484375
115	123.63334798812866	response	0	j		113.0	/home/egter/Projects/stimuli/pictures/S_yt-oPq1uvbw-lQ_62.png	157.96239614486694	
116	123.64151406288147	picture	0		82.0	114.0	/home/egter/Projects/stimuli/pictures/R_S_ILSVRC2015_train_00318000.png	157.97056221961975	0.6870019435882568
116	124.31667399406433	response	0	j		114.0	/home/egter/Projects/stimuli/pictures/R_S_ILSVRC2015_train_00318000.png	158.6457221508026	
117	124.32851600646973	picture	0		111.0	115.0	/home/egter/Projects/stimuli/pictures/R_S_yt-oVS_k_9upmo_205.png	158.657564163208	0.9236059188842773
117	125.24167394638062	response	0	j		115.0	/home/egter/Projects/stimuli/pictures/R_S_yt-oVS_k_9upmo_205.png	159.5707221031189	
118	125.252121925354	picture	0		119.0	116.0	/home/egter/Projects/stimuli/pictures/n01443537_2563.JPEG	159.58117008209229	0.9931080341339111
118	126.23335289955139	response	0	k		116.0	/home/egter/Projects/stimuli/pictures/n01443537_2563.JPEG	160.56240105628967	
119	126.24522995948792	picture	0		246.0	117.0	/home/egter/Projects/stimuli/pictures/n04141327_3581.JPEG	160.5742781162262	2.0485188961029053
119	128.28330087661743	response	0	k		117.0	/home/egter/Projects/stimuli/pictures/n04141327_3581.JPEG	162.6123490333557	
120	128.29374885559082	picture	0		93.0	118.0	/home/egter/Projects/stimuli/pictures/S_yt-8gCfc-o3pyk_85.png	162.6227970123291	0.7778041362762451
120	129.05830001831055	response	0	j		118.0	/home/egter/Projects/stimuli/pictures/S_yt-8gCfc-o3pyk_85.png	163.38734817504883	
121	129.07155299186707	picture	0		115.0	119.0	/home/egter/Projects/stimuli/pictures/S_yt-NJP0Hg8Wj5k_1.png	163.40060114860535	0.9583618640899658
121	130.01677298545837	response	0	k		119.0	/home/egter/Projects/stimuli/pictures/S_yt-NJP0Hg8Wj5k_1.png	164.34582114219666	
122	130.02991485595703	picture	0		115.0	120.0	/home/egter/Projects/stimuli/pictures/S_yt-LYnwnfi1JJ4_120.png	164.3589630126953	0.9652280807495117
122	130.98332405090332	response	0	j		120.0	/home/egter/Projects/stimuli/pictures/S_yt-LYnwnfi1JJ4_120.png	165.3123722076416	
123	130.99514293670654	picture	0		86.0	121.0	/home/egter/Projects/stimuli/pictures/R_S_production_ID_3943334.png	165.32419109344482	0.71527099609375
123	131.6999659538269	response	0	j		121.0	/home/egter/Projects/stimuli/pictures/R_S_production_ID_3943334.png	166.02901411056519	
124	131.7104139328003	picture	0		89.0	122.0	/home/egter/Projects/stimuli/pictures/S_yt--wYgjXsc1XQ_106.png	166.03946208953857	0.7431130409240723
124	132.4416069984436	response	0	j		122.0	/home/egter/Projects/stimuli/pictures/S_yt--wYgjXsc1XQ_106.png	166.77065515518188	
125	132.45352697372437	picture	0		88.0	123.0	/home/egter/Projects/stimuli/pictures/R_S_yt-BlWfK4MkjWA_469.png	166.78257513046265	0.7429530620574951
125	133.17650389671326	response	0	j		123.0	/home/egter/Projects/stimuli/pictures/R_S_yt-BlWfK4MkjWA_469.png	167.50555205345154	
126	133.19648003578186	picture	0		110.0	124.0	/home/egter/Projects/stimuli/pictures/S_yt-Q5wYs9vSzlA_30.png	167.52552819252014	0.9236409664154053
126	134.10824584960938	response	0	j		124.0	/home/egter/Projects/stimuli/pictures/S_yt-Q5wYs9vSzlA_30.png	168.43729400634766	
127	134.12012100219727	picture	0		164.0	125.0	/home/egter/Projects/stimuli/pictures/S_yt-hmtcRLNoYZc_17.png	168.44916915893555	1.3680250644683838
127	135.47497487068176	response	0	k		125.0	/home/egter/Projects/stimuli/pictures/S_yt-hmtcRLNoYZc_17.png	169.80402302742004	
128	135.48814606666565	picture	0		129.0	126.0	/home/egter/Projects/stimuli/pictures/R_S_yt-26obL-Z5obg_131.png	169.81719422340393	1.0763919353485107
128	136.54314303398132	response	0	k		126.0	/home/egter/Projects/stimuli/pictures/R_S_yt-26obL-Z5obg_131.png	170.8721911907196	
129	136.56453800201416	picture	0		99.0	127.0	/home/egter/Projects/stimuli/pictures/n12144580_1538.JPEG	170.89358615875244	0.8333389759063721
129	137.3764669895172	response	0	k		127.0	/home/egter/Projects/stimuli/pictures/n12144580_1538.JPEG	171.7055151462555	
130	137.39787697792053	picture	0		230.0	128.0	/home/egter/Projects/stimuli/pictures/S_video_inspire_california_vineyard_sierra-mar_sunrise_110.png	171.7269251346588	1.9235689640045166
130	139.3083999156952	response	0	j		128.0	/home/egter/Projects/stimuli/pictures/S_video_inspire_california_vineyard_sierra-mar_sunrise_110.png	173.63744807243347	
131	139.32144594192505	picture	0		74.0	129.0	/home/egter/Projects/stimuli/pictures/R_S_yt-wPXrAuiiRZg_1062.png	173.65049409866333	0.6249821186065674
131	139.93329000473022	response	0	j		129.0	/home/egter/Projects/stimuli/pictures/R_S_yt-wPXrAuiiRZg_1062.png	174.2623381614685	
132	139.94642806053162	picture	0		102.0	130.0	/home/egter/Projects/stimuli/pictures/S_yt-gPhlnZG-pRY_4.png	174.2754762172699	0.8533868789672852
132	140.78327083587646	response	0	k		130.0	/home/egter/Projects/stimuli/pictures/S_yt-gPhlnZG-pRY_4.png	175.11231899261475	
133	140.7998149394989	picture	0		90.0	131.0	/home/egter/Projects/stimuli/pictures/R_S_yt-y6JsUW0eSW8_32.png	175.12886309623718	0.750770092010498
133	141.54159498214722	response	0	j		131.0	/home/egter/Projects/stimuli/pictures/R_S_yt-y6JsUW0eSW8_32.png	175.8706431388855	
134	141.5505850315094	picture	0		97.0	132.0	/home/egter/Projects/stimuli/pictures/n03788195_42393.JPEG	175.87963318824768	0.8125729560852051
134	142.34403085708618	response	0	k		132.0	/home/egter/Projects/stimuli/pictures/n03788195_42393.JPEG	176.67307901382446	
135	142.3631579875946	picture	0		151.0	133.0	/home/egter/Projects/stimuli/pictures/R_S_yt-P001x88adE4_427.png	176.69220614433289	1.2638099193572998
135	143.61658692359924	response	0	j		133.0	/home/egter/Projects/stimuli/pictures/R_S_yt-P001x88adE4_427.png	177.94563508033752	
136	143.6269679069519	picture	0		78.0	134.0	/home/egter/Projects/stimuli/pictures/n04404412_8578.JPEG	177.95601606369019	0.6527359485626221
136	144.2666049003601	response	0	k		134.0	/home/egter/Projects/stimuli/pictures/n04404412_8578.JPEG	178.5956530570984	
137	144.27970385551453	picture	0		178.0	135.0	/home/egter/Projects/stimuli/pictures/S_yt-z8fEOmzDlD4_21.png	178.6087520122528	1.4791979789733887
137	145.7432198524475	response	0	k		135.0	/home/egter/Projects/stimuli/pictures/S_yt-z8fEOmzDlD4_21.png	180.0722680091858	
138	145.75890183448792	picture	0		150.0	136.0	/home/egter/Projects/stimuli/pictures/R_S_yt-mdxs8FCKLFc_232.png	180.0879499912262	1.2499921321868896
138	146.9999339580536	response	0	j		136.0	/home/egter/Projects/stimuli/pictures/R_S_yt-mdxs8FCKLFc_232.png	181.32898211479187	
139	147.0088939666748	picture	0		91.0	137.0	/home/egter/Projects/stimuli/pictures/n11879895_2478.JPEG	181.3379421234131	0.7638769149780273
139	147.75153303146362	response	0	k		137.0	/home/egter/Projects/stimuli/pictures/n11879895_2478.JPEG	182.0805811882019	
140	147.77277088165283	picture	0		75.0	138.0	/home/egter/Projects/stimuli/pictures/n01748264_9809.JPEG	182.1018190383911	0.6319141387939453
140	148.3916039466858	response	0	k		138.0	/home/egter/Projects/stimuli/pictures/n01748264_9809.JPEG	182.72065210342407	
141	148.40468502044678	picture	0		76.0	139.0	/home/egter/Projects/stimuli/pictures/n12144580_17301.JPEG	182.73373317718506	0.6319539546966553
141	149.02490496635437	response	0	k		139.0	/home/egter/Projects/stimuli/pictures/n12144580_17301.JPEG	183.35395312309265	
142	149.03663897514343	picture	0		106.0	140.0	/home/egter/Projects/stimuli/pictures/n01855672_4399.JPEG	183.3656871318817	0.8819210529327393
142	149.90817999839783	response	0	k		140.0	/home/egter/Projects/stimuli/pictures/n01855672_4399.JPEG	184.2372281551361	
143	149.91856002807617	picture	0		101.0	141.0	/home/egter/Projects/stimuli/pictures/R_S_Nh81j72Utbs_5.png	184.24760818481445	0.84031081199646
143	150.74988794326782	response	0	j		141.0	/home/egter/Projects/stimuli/pictures/R_S_Nh81j72Utbs_5.png	185.0789361000061	
144	150.75887084007263	picture	0		77.0	142.0	/home/egter/Projects/stimuli/pictures/ILSVRC2012_val_00035696.JPEG	185.0879189968109	0.6458051204681396
144	151.39151883125305	response	0	k		142.0	/home/egter/Projects/stimuli/pictures/ILSVRC2012_val_00035696.JPEG	185.72056698799133	
145	151.40467596054077	picture	0		98.0	143.0	/home/egter/Projects/stimuli/pictures/R_S_yt-cBCeq1NQgj0_1129.png	185.73372411727905	0.8263928890228271
145	152.21724486351013	response	0	j		143.0	/home/egter/Projects/stimuli/pictures/R_S_yt-cBCeq1NQgj0_1129.png	186.5462930202484	
146	152.2310688495636	picture	0		98.0	144.0	/home/egter/Projects/stimuli/pictures/n04311174_342.JPEG	186.56011700630188	0.8194191455841064
146	153.04152488708496	response	0	k		144.0	/home/egter/Projects/stimuli/pictures/n04311174_342.JPEG	187.37057304382324	
147	153.0504879951477	picture	0		89.0	145.0	/home/egter/Projects/stimuli/pictures/n03857828_10829.JPEG	187.379536151886	0.743048906326294
147	153.77646589279175	response	0	k		145.0	/home/egter/Projects/stimuli/pictures/n03857828_10829.JPEG	188.10551404953003	
148	153.793536901474	picture	0		92.0	146.0	/home/egter/Projects/stimuli/pictures/S_yt-gmiyqQDGN78_7.png	188.12258505821228	0.7708139419555664
148	154.5505850315094	response	0	j		146.0	/home/egter/Projects/stimuli/pictures/S_yt-gmiyqQDGN78_7.png	188.87963318824768	
149	154.56435084342957	picture	0		128.0	147.0	/home/egter/Projects/stimuli/pictures/R_S_I005_C008_CROP_SDR_2K_AVC.png	188.89339900016785	1.0695149898529053
149	155.62488985061646	response	0	k		147.0	/home/egter/Projects/stimuli/pictures/R_S_I005_C008_CROP_SDR_2K_AVC.png	189.95393800735474	
150	155.63386583328247	picture	0		119.0	148.0	/home/egter/Projects/stimuli/pictures/R_S_production_ID_4325591.png	189.96291399002075	0.992948055267334
150	156.6165099143982	response	0	j		148.0	/home/egter/Projects/stimuli/pictures/R_S_production_ID_4325591.png	190.94555807113647	
151	156.6268138885498	picture	0		113.0	149.0	/home/egter/Projects/stimuli/pictures/n04141327_9161.JPEG	190.9558620452881	0.9444329738616943
151	157.5520579814911	response	0	k		149.0	/home/egter/Projects/stimuli/pictures/n04141327_9161.JPEG	191.88110613822937	
152	157.5712468624115	picture	0		93.0	150.0	/home/egter/Projects/stimuli/pictures/n02643566_5338.JPEG	191.90029501914978	0.7708652019500732
152	158.33320689201355	response	0	k		150.0	/home/egter/Projects/stimuli/pictures/n02643566_5338.JPEG	192.66225504875183	
153	158.34211206436157	picture	0		145.0	151.0	/home/egter/Projects/stimuli/pictures/S_AwPBuHsoXV0_25.png	192.67116022109985	1.2083017826080322
153	159.5415439605713	response	0	k		151.0	/home/egter/Projects/stimuli/pictures/S_AwPBuHsoXV0_25.png	193.87059211730957	
154	159.5504138469696	picture	0		150.0	152.0	/home/egter/Projects/stimuli/pictures/R_S_Y011_C008_SDR_2K_AVC.png	193.87946200370789	1.2500481605529785
154	160.79155898094177	response	0	k		152.0	/home/egter/Projects/stimuli/pictures/R_S_Y011_C008_SDR_2K_AVC.png	195.12060713768005	
155	160.80046200752258	picture	0		112.0	153.0	/home/egter/Projects/stimuli/pictures/n03344393_6139.JPEG	195.12951016426086	0.9374539852142334
155	161.724839925766	response	0	k		153.0	/home/egter/Projects/stimuli/pictures/n03344393_6139.JPEG	196.05388808250427	
156	161.73791599273682	picture	0		106.0	154.0	/home/egter/Projects/stimuli/pictures/R_S_g201_TH_803_A001_8_SDR_20191031_SDR_2K_AVC.png	196.0669641494751	0.8818919658660889
156	162.60816192626953	response	0	j		154.0	/home/egter/Projects/stimuli/pictures/R_S_g201_TH_803_A001_8_SDR_20191031_SDR_2K_AVC.png	196.9372100830078	
157	162.6198079586029	picture	0		107.0	155.0	/home/egter/Projects/stimuli/pictures/R_S_yt-xnqqB-leeaQ_128.png	196.9488561153412	0.8888909816741943
157	163.4999589920044	response	0	j		155.0	/home/egter/Projects/stimuli/pictures/R_S_yt-xnqqB-leeaQ_128.png	197.82900714874268	
158	163.5086989402771	picture	0		140.0	156.0	/home/egter/Projects/stimuli/pictures/R_S_video_inspire_florida_miami_brickell_sunset_00036.png	197.83774709701538	1.1667709350585938
158	164.66652584075928	response	0	k		156.0	/home/egter/Projects/stimuli/pictures/R_S_video_inspire_florida_miami_brickell_sunset_00036.png	198.99557399749756	
159	164.6754698753357	picture	0		99.0	157.0	/home/egter/Projects/stimuli/pictures/n03777568_2439.JPEG	199.00451803207397	0.8262929916381836
159	165.49150705337524	response	0	k		157.0	/home/egter/Projects/stimuli/pictures/n03777568_2439.JPEG	199.82055521011353	
160	165.50176286697388	picture	0		120.0	158.0	/home/egter/Projects/stimuli/pictures/n04523525_17616.JPEG	199.83081102371216	0.9999721050262451
160	166.49151802062988	response	0	k		158.0	/home/egter/Projects/stimuli/pictures/n04523525_17616.JPEG	200.82056617736816	
161	166.50173497200012	picture	0		152.0	159.0	/home/egter/Projects/stimuli/pictures/S_comp_GMT329_117NC_401C_1037_IRELAND_TO_ASIA_v48_SDR_PS_FINAL_20180725_F0F6300_SDR_2K_AVC.png	200.8307831287384	1.2729840278625488
161	167.75883197784424	response	0	j		159.0	/home/egter/Projects/stimuli/pictures/S_comp_GMT329_117NC_401C_1037_IRELAND_TO_ASIA_v48_SDR_PS_FINAL_20180725_F0F6300_SDR_2K_AVC.png	202.08788013458252	
162	167.77471899986267	picture	0		92.0	160.0	/home/egter/Projects/stimuli/pictures/S_wc-TAGpcap1KdAS_212.png	202.10376715660095	0.7688779830932617
162	168.53318905830383	response	0	k		160.0	/home/egter/Projects/stimuli/pictures/S_wc-TAGpcap1KdAS_212.png	202.86223721504211	
163	168.54359698295593	picture	0		129.0	161.0	/home/egter/Projects/stimuli/pictures/S_yt-GaJaxp546lc_22.png	202.8726451396942	1.076197862625122
163	169.60813188552856	response	0	j		161.0	/home/egter/Projects/stimuli/pictures/S_yt-GaJaxp546lc_22.png	203.93718004226685	
164	169.61979484558105	picture	0		106.0	162.0	/home/egter/Projects/stimuli/pictures/R_S_ILSVRC2015_train_00165011.png	203.94884300231934	0.8819150924682617
164	170.49149203300476	response	0	j		162.0	/home/egter/Projects/stimuli/pictures/R_S_ILSVRC2015_train_00165011.png	204.82054018974304	
165	170.50170993804932	picture	0		89.0	163.0	/home/egter/Projects/stimuli/pictures/R_S_yt-fqbi4rGc9dk_65.png	204.8307580947876	0.7431120872497559
165	171.23319005966187	response	0	j		163.0	/home/egter/Projects/stimuli/pictures/R_S_yt-fqbi4rGc9dk_65.png	205.56223821640015	
166	171.24482202529907	picture	0		119.0	164.0	/home/egter/Projects/stimuli/pictures/S_yt-dESxu60Cl10_24.png	205.57387018203735	0.9930639266967773
166	172.22488284111023	response	0	j		164.0	/home/egter/Projects/stimuli/pictures/S_yt-dESxu60Cl10_24.png	206.5539309978485	
167	172.23788595199585	picture	0		102.0	165.0	/home/egter/Projects/stimuli/pictures/n04344873_13568.JPEG	206.56693410873413	0.8471739292144775
167	173.07488203048706	response	0	k		165.0	/home/egter/Projects/stimuli/pictures/n04344873_13568.JPEG	207.40393018722534	
168	173.08505988121033	picture	0		81.0	166.0	/home/egter/Projects/stimuli/pictures/n01630670_7524.JPEG	207.4141080379486	0.6735949516296387
168	173.74984788894653	response	0	k		166.0	/home/egter/Projects/stimuli/pictures/n01630670_7524.JPEG	208.07889604568481	
169	173.75865483283997	picture	0		116.0	167.0	/home/egter/Projects/stimuli/pictures/n02641379_9166.JPEG	208.08770298957825	0.9721591472625732
169	174.717139005661	response	0	k		167.0	/home/egter/Projects/stimuli/pictures/n02641379_9166.JPEG	209.0461871623993	
170	174.73081398010254	picture	0		153.0	168.0	/home/egter/Projects/stimuli/pictures/S_yt-5AI_SyK5sg8_112.png	209.05986213684082	1.2777810096740723
170	175.99976897239685	response	0	j		168.0	/home/egter/Projects/stimuli/pictures/S_yt-5AI_SyK5sg8_112.png	210.32881712913513	
171	176.0085949897766	picture	0		238.0	169.0	/home/egter/Projects/stimuli/pictures/R_S_yt-RO4mhuXBVrY_67.png	210.3376431465149	1.986109972000122
171	177.97632384300232	response	0	j		169.0	/home/egter/Projects/stimuli/pictures/R_S_yt-RO4mhuXBVrY_67.png	212.3053719997406	
172	177.99470496177673	picture	0		88.0	170.0	/home/egter/Projects/stimuli/pictures/R_S_production_ID_5139371.png	212.32375311851501	0.7383379936218262
172	178.717031955719	response	0	j		170.0	/home/egter/Projects/stimuli/pictures/R_S_production_ID_5139371.png	213.04608011245728	
173	178.73304295539856	picture	0		112.0	171.0	/home/egter/Projects/stimuli/pictures/R_S_yt-BW6jWEVbxxk_4.png	213.06209111213684	0.935244083404541
173	179.6581609249115	response	0	j		171.0	/home/egter/Projects/stimuli/pictures/R_S_yt-BW6jWEVbxxk_4.png	213.98720908164978	
174	179.6682870388031	picture	0		92.0	172.0	/home/egter/Projects/stimuli/pictures/n03759954_11657.JPEG	213.99733519554138	0.7708709239959717
174	180.42541599273682	response	0	k		172.0	/home/egter/Projects/stimuli/pictures/n03759954_11657.JPEG	214.7544641494751	
175	180.43915796279907	picture	0		83.0	173.0	/home/egter/Projects/stimuli/pictures/n03345487_16018.JPEG	214.76820611953735	0.6943759918212891
175	181.12480688095093	response	0	k		173.0	/home/egter/Projects/stimuli/pictures/n03345487_16018.JPEG	215.4538550376892	
176	181.13353395462036	picture	0		116.0	174.0	/home/egter/Projects/stimuli/pictures/n04347754_7880.JPEG	215.46258211135864	0.9744811058044434
176	182.09206104278564	response	0	k		174.0	/home/egter/Projects/stimuli/pictures/n04347754_7880.JPEG	216.42110919952393	
177	182.1080150604248	picture	0		118.0	175.0	/home/egter/Projects/stimuli/pictures/R_S_yt-uT4MXm0UBJM_64.png	216.4370632171631	0.983834981918335
177	183.08314085006714	response	0	j		175.0	/home/egter/Projects/stimuli/pictures/R_S_yt-uT4MXm0UBJM_64.png	217.41218900680542	
178	183.09185004234314	picture	0		100.0	176.0	/home/egter/Projects/stimuli/pictures/n02102973_3999.JPEG	217.42089819908142	0.8333728313446045
178	183.91642785072327	response	0	k		176.0	/home/egter/Projects/stimuli/pictures/n02102973_3999.JPEG	218.24547600746155	
179	183.92522287368774	picture	0		166.0	177.0	/home/egter/Projects/stimuli/pictures/R_S_yt-NuJbedGLcQY_112.png	218.25427103042603	1.391098976135254
179	185.30031895637512	response	0	k		177.0	/home/egter/Projects/stimuli/pictures/R_S_yt-NuJbedGLcQY_112.png	219.6293671131134	
180	185.316321849823	picture	0		81.0	178.0	/home/egter/Projects/stimuli/pictures/S_ILSVRC2015_train_00697001.png	219.64537000656128	0.6783370971679688
180	185.97634100914001	response	0	j		178.0	/home/egter/Projects/stimuli/pictures/S_ILSVRC2015_train_00697001.png	220.3053891658783	
181	185.99465894699097	picture	0		76.0	179.0	/home/egter/Projects/stimuli/pictures/n04238763_5409.JPEG	220.32370710372925	0.6320400238037109
181	186.61647200584412	response	0	k		179.0	/home/egter/Projects/stimuli/pictures/n04238763_5409.JPEG	220.9455201625824	
182	186.62669897079468	stim	0		478.0			220.95574712753296	3.981208086013794
182	190.59234499931335	response	0	space				224.92139315605164	
