trial_nr	onset	event_type	phase	response	nr_frames	picture_index	picture_file	onset_abs	duration
0	0.014605045318603516	stim	0		1695.0			33.22230815887451	14.13416314125061
0	14.128284215927124	response	0	space				47.33598732948303	
2	14.148768186569214	picture	0		164.0	0.0	/home/egter/Projects/stimuli/pictures/S_production_ID_4802716.png	47.35647130012512	1.3680419921875
2	15.496223211288452	response	0	j		0.0	/home/egter/Projects/stimuli/pictures/S_production_ID_4802716.png	48.70392632484436	
3	15.516810178756714	picture	0		94.0	1.0	/home/egter/Projects/stimuli/pictures/n02105162_237.JPEG	48.72451329231262	0.7916710376739502
3	16.287742137908936	response	0	k		1.0	/home/egter/Projects/stimuli/pictures/n02105162_237.JPEG	49.495445251464844	
4	16.308481216430664	picture	0		118.0	2.0	/home/egter/Projects/stimuli/pictures/S_yt-8vm83GUgYxI_1.png	49.51618432998657	0.9860868453979492
4	17.279393196105957	response	0	j		2.0	/home/egter/Projects/stimuli/pictures/S_yt-8vm83GUgYxI_1.png	50.487096309661865	
5	17.294568061828613	picture	0		86.0	3.0	/home/egter/Projects/stimuli/pictures/n01734418_7857.JPEG	50.50227117538452	0.7222189903259277
5	18.002979040145874	response	0	k		3.0	/home/egter/Projects/stimuli/pictures/n01734418_7857.JPEG	51.21068215370178	
6	18.01678705215454	picture	0		94.0	4.0	/home/egter/Projects/stimuli/pictures/n01978455_2309.JPEG	51.22449016571045	0.7916550636291504
6	18.79463219642639	response	0	k		4.0	/home/egter/Projects/stimuli/pictures/n01978455_2309.JPEG	52.0023353099823	
7	18.80844211578369	picture	0		85.0	5.0	/home/egter/Projects/stimuli/pictures/R_S_yt-vQ-rd-1gwH4_238.png	52.0161452293396	0.7153010368347168
7	19.504456043243408	response	0	j		5.0	/home/egter/Projects/stimuli/pictures/R_S_yt-vQ-rd-1gwH4_238.png	52.712159156799316	
8	19.523743152618408	picture	0		101.0	6.0	/home/egter/Projects/stimuli/pictures/R_S_ILSVRC2015_train_00079001.png	52.731446266174316	0.8402490615844727
8	20.35290002822876	response	0	j		6.0	/home/egter/Projects/stimuli/pictures/R_S_ILSVRC2015_train_00079001.png	53.56060314178467	
9	20.36399221420288	picture	0		90.0	7.0	/home/egter/Projects/stimuli/pictures/n01843065_141.JPEG	53.57169532775879	0.7500147819519043
9	21.09611201286316	response	0	k		7.0	/home/egter/Projects/stimuli/pictures/n01843065_141.JPEG	54.30381512641907	
10	21.114006996154785	picture	0		72.0	8.0	/home/egter/Projects/stimuli/pictures/R_S_yt-UKrWbJEs7pw_74.png	54.32171010971069	0.5971641540527344
10	21.696107149124146	response	0	j		8.0	/home/egter/Projects/stimuli/pictures/R_S_yt-UKrWbJEs7pw_74.png	54.903810262680054	
11	21.71117115020752	picture	0		114.0	9.0	/home/egter/Projects/stimuli/pictures/S_yt-H-2Vvouw9VI_85.png	54.91887426376343	0.9514298439025879
11	22.652939081192017	response	0	j		9.0	/home/egter/Projects/stimuli/pictures/S_yt-H-2Vvouw9VI_85.png	55.860642194747925	
12	22.662600994110107	picture	0		117.0	10.0	/home/egter/Projects/stimuli/pictures/S_yt-b0IfGcoHfD0_83.png	55.870304107666016	0.9791600704193115
12	23.62793803215027	response	0	j		10.0	/home/egter/Projects/stimuli/pictures/S_yt-b0IfGcoHfD0_83.png	56.83564114570618	
13	23.64176106452942	picture	0		83.0	11.0	/home/egter/Projects/stimuli/pictures/n04515003_10785.JPEG	56.84946417808533	0.694390058517456
13	24.327872037887573	response	0	k		11.0	/home/egter/Projects/stimuli/pictures/n04515003_10785.JPEG	57.53557515144348	
14	24.336151123046875	picture	0		138.0	12.0	/home/egter/Projects/stimuli/pictures/n04487081_13086.JPEG	57.54385423660278	1.1597020626068115
14	25.477928161621094	response	0	k		12.0	/home/egter/Projects/stimuli/pictures/n04487081_13086.JPEG	58.685631275177	
15	25.495853185653687	picture	0		98.0	13.0	/home/egter/Projects/stimuli/pictures/R_S_JApTAOdfunE_1251.png	58.703556299209595	0.823606014251709
15	26.296069145202637	response	0	j		13.0	/home/egter/Projects/stimuli/pictures/R_S_JApTAOdfunE_1251.png	59.503772258758545	
16	26.319459199905396	picture	0		89.0	14.0	/home/egter/Projects/stimuli/pictures/n02105056_4582.JPEG	59.527162313461304	0.7458798885345459
16	27.052887201309204	response	0	k		14.0	/home/egter/Projects/stimuli/pictures/n02105056_4582.JPEG	60.26059031486511	
17	27.06533908843994	picture	0		92.0	15.0	/home/egter/Projects/stimuli/pictures/n01737021_211.JPEG	60.27304220199585	0.7790930271148682
17	27.82788610458374	response	0	k		15.0	/home/egter/Projects/stimuli/pictures/n01737021_211.JPEG	61.03558921813965	
18	27.84443211555481	picture	0		83.0	16.0	/home/egter/Projects/stimuli/pictures/R_S_yt-eVAlSjH8E8k_127.png	61.05213522911072	0.7000119686126709
18	28.52785301208496	response	0	j		16.0	/home/egter/Projects/stimuli/pictures/R_S_yt-eVAlSjH8E8k_127.png	61.73555612564087	
19	28.54444408416748	picture	0		93.0	17.0	/home/egter/Projects/stimuli/pictures/n01694178_873.JPEG	61.75214719772339	0.7847211360931396
19	29.30449104309082	response	0	k		17.0	/home/egter/Projects/stimuli/pictures/n01694178_873.JPEG	62.51219415664673	
20	29.32916522026062	picture	0		81.0	18.0	/home/egter/Projects/stimuli/pictures/S_yt-TbdZrcl_Jso_5.png	62.53686833381653	0.6819407939910889
20	29.99454116821289	response	0	j		18.0	/home/egter/Projects/stimuli/pictures/S_yt-TbdZrcl_Jso_5.png	63.2022442817688	
21	30.01110601425171	picture	0		75.0	19.0	/home/egter/Projects/stimuli/pictures/n01728572_15156.JPEG	63.21880912780762	0.6305890083312988
21	30.62784218788147	response	0	k		19.0	/home/egter/Projects/stimuli/pictures/n01728572_15156.JPEG	63.83554530143738	
22	30.641695022583008	picture	0		80.0	20.0	/home/egter/Projects/stimuli/pictures/n02114712_22469.JPEG	63.849398136138916	0.6777360439300537
22	31.29606604576111	response	0	k		20.0	/home/egter/Projects/stimuli/pictures/n02114712_22469.JPEG	64.50376915931702	
23	31.31943106651306	picture	0		70.0	21.0	/home/egter/Projects/stimuli/pictures/n02018795_2073.JPEG	64.52713418006897	0.5860960483551025
23	31.887715101242065	response	0	k		21.0	/home/egter/Projects/stimuli/pictures/n02018795_2073.JPEG	65.09541821479797	
24	31.905527114868164	picture	0		73.0	22.0	/home/egter/Projects/stimuli/pictures/n04467665_24190.JPEG	65.11323022842407	0.6111350059509277
24	32.496031045913696	response	0	k		22.0	/home/egter/Projects/stimuli/pictures/n04467665_24190.JPEG	65.7037341594696	
25	32.51666212081909	picture	0		90.0	23.0	/home/egter/Projects/stimuli/pictures/S_xq822dX6DDM_1.png	65.724365234375	0.7611129283905029
25	33.26120901107788	response	0	j		23.0	/home/egter/Projects/stimuli/pictures/S_xq822dX6DDM_1.png	66.46891212463379	
26	33.277775049209595	picture	0		81.0	24.0	/home/egter/Projects/stimuli/pictures/R_S_yt-WTxvvlP8xnw_113.png	66.4854781627655	0.6763629913330078
26	33.944523096084595	response	0	j		24.0	/home/egter/Projects/stimuli/pictures/R_S_yt-WTxvvlP8xnw_113.png	67.1522262096405	
27	33.9541380405426	picture	0		86.0	25.0	/home/egter/Projects/stimuli/pictures/n03467068_3982.JPEG	67.16184115409851	0.7152841091156006
27	34.6611762046814	response	0	k		25.0	/home/egter/Projects/stimuli/pictures/n03467068_3982.JPEG	67.8688793182373	
28	34.6694221496582	picture	0		85.0	26.0	/home/egter/Projects/stimuli/pictures/S_ILSVRC2015_train_00568002.png	67.87712526321411	0.7083010673522949
28	35.369569063186646	response	0	j		26.0	/home/egter/Projects/stimuli/pictures/S_ILSVRC2015_train_00568002.png	68.57727217674255	
29	35.3777232170105	picture	0		101.0	27.0	/home/egter/Projects/stimuli/pictures/S_yt-7SsfOM7v3ns_56.png	68.5854263305664	0.8500199317932129
29	36.21120309829712	response	0	k		27.0	/home/egter/Projects/stimuli/pictures/S_yt-7SsfOM7v3ns_56.png	69.41890621185303	
30	36.22774314880371	picture	0		75.0	28.0	/home/egter/Projects/stimuli/pictures/n01798484_12395.JPEG	69.43544626235962	0.629173994064331
30	36.84452199935913	response	0	k		28.0	/home/egter/Projects/stimuli/pictures/n01798484_12395.JPEG	70.05222511291504	
31	36.85691714286804	picture	0		78.0	29.0	/home/egter/Projects/stimuli/pictures/n03930630_4621.JPEG	70.06462025642395	0.6458539962768555
31	37.487715005874634	response	0	k		29.0	/home/egter/Projects/stimuli/pictures/n03930630_4621.JPEG	70.69541811943054	
32	37.5027711391449	picture	0		170.0	30.0	/home/egter/Projects/stimuli/pictures/n01843065_2930.JPEG	70.7104742527008	1.416646957397461
32	38.90452313423157	response	0	k		30.0	/home/egter/Projects/stimuli/pictures/n01843065_2930.JPEG	72.11222624778748	
33	38.91941809654236	picture	0		149.0	31.0	/home/egter/Projects/stimuli/pictures/R_S_ILSVRC2015_train_00219003.png	72.12712121009827	1.242969036102295
33	40.152836084365845	response	0	j		31.0	/home/egter/Projects/stimuli/pictures/R_S_ILSVRC2015_train_00219003.png	73.36053919792175	
34	40.16238713264465	picture	0		80.0	32.0	/home/egter/Projects/stimuli/pictures/n02441942_15661.JPEG	73.37009024620056	0.6737148761749268
34	40.819563150405884	response	0	k		32.0	/home/egter/Projects/stimuli/pictures/n02441942_15661.JPEG	74.02726626396179	
35	40.83610200881958	picture	0		86.0	33.0	/home/egter/Projects/stimuli/pictures/n01729322_9519.JPEG	74.04380512237549	0.7221720218658447
35	41.54453921318054	response	0	k		33.0	/home/egter/Projects/stimuli/pictures/n01729322_9519.JPEG	74.75224232673645	
36	41.558274030685425	picture	0		87.0	34.0	/home/egter/Projects/stimuli/pictures/R_S_ILSVRC2015_train_00155004.png	74.76597714424133	0.7361600399017334
36	42.27785611152649	response	0	j		34.0	/home/egter/Projects/stimuli/pictures/R_S_ILSVRC2015_train_00155004.png	75.4855592250824	
37	42.29443407058716	picture	0		75.0	35.0	/home/egter/Projects/stimuli/pictures/S_ILSVRC2015_train_00569003.png	75.50213718414307	0.6333279609680176
37	42.90435218811035	response	0	j		35.0	/home/egter/Projects/stimuli/pictures/S_ILSVRC2015_train_00569003.png	76.11205530166626	
38	42.927762031555176	picture	0		92.0	36.0	/home/egter/Projects/stimuli/pictures/R_S_production_ID_4101244.png	76.13546514511108	0.7749700546264648
38	43.686180114746094	response	0	j		36.0	/home/egter/Projects/stimuli/pictures/R_S_production_ID_4101244.png	76.893883228302	
39	43.70273208618164	picture	0		85.0	37.0	/home/egter/Projects/stimuli/pictures/n13054560_1076.JPEG	76.91043519973755	0.7166709899902344
39	44.40286421775818	response	0	k		37.0	/home/egter/Projects/stimuli/pictures/n13054560_1076.JPEG	77.61056733131409	
40	44.419403076171875	picture	0		182.0	38.0	/home/egter/Projects/stimuli/pictures/S_yt-g_RCws799LQ_52.png	77.62710618972778	1.5207860469818115
40	45.92099213600159	response	0	k		38.0	/home/egter/Projects/stimuli/pictures/S_yt-g_RCws799LQ_52.png	79.1286952495575	
41	45.94018912315369	picture	0		88.0	39.0	/home/egter/Projects/stimuli/pictures/R_S_yt-5doJmCcFL7s_3.png	79.1478922367096	0.7291700839996338
41	46.66106414794922	response	0	j		39.0	/home/egter/Projects/stimuli/pictures/R_S_yt-5doJmCcFL7s_3.png	79.86876726150513	
42	46.66935920715332	picture	0		111.0	40.0	/home/egter/Projects/stimuli/pictures/S_yt--UhwpukdyBg_51.png	79.87706232070923	0.933344841003418
42	47.586188077926636	response	0	j		40.0	/home/egter/Projects/stimuli/pictures/S_yt--UhwpukdyBg_51.png	80.79389119148254	
43	47.60270404815674	picture	0		99.0	41.0	/home/egter/Projects/stimuli/pictures/R_S_pexels-roman-odintsov-8232443.png	80.81040716171265	0.8333470821380615
43	48.4194130897522	response	0	j		41.0	/home/egter/Projects/stimuli/pictures/R_S_pexels-roman-odintsov-8232443.png	81.6271162033081	
44	48.4360511302948	picture	0		76.0	42.0	/home/egter/Projects/stimuli/pictures/n02835271_9551.JPEG	81.64375424385071	0.6416549682617188
44	49.06111121177673	response	0	k		42.0	/home/egter/Projects/stimuli/pictures/n02835271_9551.JPEG	82.26881432533264	
45	49.07770609855652	picture	0		103.0	43.0	/home/egter/Projects/stimuli/pictures/R_S_yt-14tjqjjjAEI_15.png	82.28540921211243	0.8624029159545898
45	49.927815198898315	response	0	j		43.0	/home/egter/Projects/stimuli/pictures/R_S_yt-14tjqjjjAEI_15.png	83.13551831245422	
46	49.94010901451111	picture	0		78.0	44.0	/home/egter/Projects/stimuli/pictures/R_S_yt-H-2Vvouw9VI_85.png	83.14781212806702	0.6542739868164062
46	50.57786202430725	response	0	j		44.0	/home/egter/Projects/stimuli/pictures/R_S_yt-H-2Vvouw9VI_85.png	83.78556513786316	
47	50.594383001327515	picture	0		221.0	45.0	/home/egter/Projects/stimuli/pictures/S_yt-mH-yEUYOzYY_7.png	83.80208611488342	1.8456931114196777
47	52.427810192108154	response	0	j		45.0	/home/egter/Projects/stimuli/pictures/S_yt-mH-yEUYOzYY_7.png	85.63551330566406	
48	52.44007611274719	picture	0		76.0	46.0	/home/egter/Projects/stimuli/pictures/n04344873_14536.JPEG	85.6477792263031	0.637598991394043
48	53.06123113632202	response	0	k		46.0	/home/egter/Projects/stimuli/pictures/n04344873_14536.JPEG	86.26893424987793	
49	53.077675104141235	picture	0		68.0	47.0	/home/egter/Projects/stimuli/pictures/n04273569_8007.JPEG	86.28537821769714	0.5707550048828125
49	53.63609600067139	response	0	k		47.0	/home/egter/Projects/stimuli/pictures/n04273569_8007.JPEG	86.8437991142273	
50	53.64843010902405	picture	0		87.0	48.0	/home/egter/Projects/stimuli/pictures/n02105505_4764.JPEG	86.85613322257996	0.7292289733886719
50	54.36945915222168	response	0	k		48.0	/home/egter/Projects/stimuli/pictures/n02105505_4764.JPEG	87.57716226577759	
51	54.37765908241272	picture	0		68.0	49.0	/home/egter/Projects/stimuli/pictures/n01737021_11018.JPEG	87.58536219596863	0.5693099498748779
51	54.93608617782593	response	0	k		49.0	/home/egter/Projects/stimuli/pictures/n01737021_11018.JPEG	88.14378929138184	
52	54.9469690322876	picture	0		142.0	50.0	/home/egter/Projects/stimuli/pictures/R_S_comp_H012_C009_PS_v01_SDR_PS_20180925_SDR_2K_AVC.png	88.1546721458435	1.1806981563568115
52	56.1128351688385	response	0	j		50.0	/home/egter/Projects/stimuli/pictures/R_S_comp_H012_C009_PS_v01_SDR_PS_20180925_SDR_2K_AVC.png	89.32053828239441	
53	56.12766718864441	picture	0		86.0	51.0	/home/egter/Projects/stimuli/pictures/S_yt-oVS_k_9upmo_205.png	89.33537030220032	0.7250218391418457
53	56.83609414100647	response	0	j		51.0	/home/egter/Projects/stimuli/pictures/S_yt-oVS_k_9upmo_205.png	90.04379725456238	
54	56.852689027786255	picture	0		91.0	52.0	/home/egter/Projects/stimuli/pictures/n04417672_14733.JPEG	90.06039214134216	0.7610020637512207
54	57.602784156799316	response	0	k		52.0	/home/egter/Projects/stimuli/pictures/n04417672_14733.JPEG	90.81048727035522	
55	57.613691091537476	picture	0		82.0	53.0	/home/egter/Projects/stimuli/pictures/S_yt-O_4DgW-XKvA_35.png	90.82139420509338	0.6806540489196777
55	58.28608012199402	response	0	j		53.0	/home/egter/Projects/stimuli/pictures/S_yt-O_4DgW-XKvA_35.png	91.49378323554993	
56	58.29434514045715	picture	0		68.0	54.0	/home/egter/Projects/stimuli/pictures/R_S_video.png	91.50204825401306	0.5692799091339111
56	58.85277819633484	response	0	j		54.0	/home/egter/Projects/stimuli/pictures/R_S_video.png	92.06048130989075	
57	58.863625049591064	picture	0		89.0	55.0	/home/egter/Projects/stimuli/pictures/R_S_production_ID_5119260.png	92.07132816314697	0.7430710792541504
57	59.594449043273926	response	0	j		55.0	/home/egter/Projects/stimuli/pictures/R_S_production_ID_5119260.png	92.80215215682983	
58	59.606696128845215	picture	0		75.0	56.0	/home/egter/Projects/stimuli/pictures/S_wc-rs31_SV1Opy__6.png	92.81439924240112	0.6249608993530273
58	60.21943521499634	response	0	j		56.0	/home/egter/Projects/stimuli/pictures/S_wc-rs31_SV1Opy__6.png	93.42713832855225	
59	60.23165702819824	picture	0		159.0	57.0	/home/egter/Projects/stimuli/pictures/n01494475_6932.JPEG	93.43936014175415	1.3263440132141113
59	61.544408082962036	response	0	k		57.0	/home/egter/Projects/stimuli/pictures/n01494475_6932.JPEG	94.75211119651794	
60	61.55800104141235	picture	0		73.0	58.0	/home/egter/Projects/stimuli/pictures/R_S_yt-kQpE9L-fsNE_55.png	94.76570415496826	0.6196701526641846
60	62.1610791683197	response	0	j		58.0	/home/egter/Projects/stimuli/pictures/R_S_yt-kQpE9L-fsNE_55.png	95.36878228187561	
61	62.17767119407654	picture	0		88.0	59.0	/home/egter/Projects/stimuli/pictures/n01984695_35188.JPEG	95.38537430763245	0.7345619201660156
61	62.90283012390137	response	0	k		59.0	/home/egter/Projects/stimuli/pictures/n01984695_35188.JPEG	96.11053323745728	
62	62.912233114242554	picture	0		76.0	60.0	/home/egter/Projects/stimuli/pictures/S_wc-hmW1OnCPF_xn_37.png	96.11993622779846	0.6404280662536621
62	63.536089181900024	response	0	j		60.0	/home/egter/Projects/stimuli/pictures/S_wc-hmW1OnCPF_xn_37.png	96.74379229545593	
63	63.552661180496216	picture	0		88.0	61.0	/home/egter/Projects/stimuli/pictures/n04465501_1420.JPEG	96.76036429405212	0.76668381690979
63	64.27779412269592	response	0	k		61.0	/home/egter/Projects/stimuli/pictures/n04465501_1420.JPEG	97.48549723625183	
64	64.319344997406	picture	0		89.0	62.0	/home/egter/Projects/stimuli/pictures/R_S_yt-o_Hakzj8PRg_2864.png	97.52704811096191	1.134559154510498
64	65.05276608467102	response	0	j		62.0	/home/egter/Projects/stimuli/pictures/R_S_yt-o_Hakzj8PRg_2864.png	98.26046919822693	
65	65.4539041519165	picture	0		83.0	63.0	/home/egter/Projects/stimuli/pictures/n01806567_8377.JPEG	98.66160726547241	0.699091911315918
65	66.13611221313477	response	0	k		63.0	/home/egter/Projects/stimuli/pictures/n01806567_8377.JPEG	99.34381532669067	
66	66.15299606323242	picture	0		75.0	64.0	/home/egter/Projects/stimuli/pictures/S_yt-D6fhzH21T_E_26.png	99.36069917678833	0.6329829692840576
66	66.76942920684814	response	0	j		64.0	/home/egter/Projects/stimuli/pictures/S_yt-D6fhzH21T_E_26.png	99.97713232040405	
67	66.78597903251648	picture	0		82.0	65.0	/home/egter/Projects/stimuli/pictures/S_zAKvYNtmhuc_772.png	99.99368214607239	0.6916720867156982
67	67.46107912063599	response	0	j		65.0	/home/egter/Projects/stimuli/pictures/S_zAKvYNtmhuc_772.png	100.6687822341919	
68	67.47765111923218	picture	0		82.0	66.0	/home/egter/Projects/stimuli/pictures/S_ILSVRC2015_train_00364000.png	100.68535423278809	0.6916749477386475
68	68.15274500846863	response	0	j		66.0	/home/egter/Projects/stimuli/pictures/S_ILSVRC2015_train_00364000.png	101.36044812202454	
69	68.16932606697083	picture	0		87.0	67.0	/home/egter/Projects/stimuli/pictures/S_yt-xNKgc8sFYvU_35.png	101.37702918052673	0.7289559841156006
69	68.88603401184082	response	0	j		67.0	/home/egter/Projects/stimuli/pictures/S_yt-xNKgc8sFYvU_35.png	102.09373712539673	
70	68.89828205108643	picture	0		79.0	68.0	/home/egter/Projects/stimuli/pictures/n02124075_1818.JPEG	102.10598516464233	0.6597321033477783
70	69.54439902305603	response	0	k		68.0	/home/egter/Projects/stimuli/pictures/n02124075_1818.JPEG	102.75210213661194	
71	69.5580141544342	picture	0		85.0	69.0	/home/egter/Projects/stimuli/pictures/n01855032_1080.JPEG	102.76571726799011	0.719635009765625
71	70.261066198349	response	0	k		69.0	/home/egter/Projects/stimuli/pictures/n01855032_1080.JPEG	103.46876931190491	
72	70.27764916419983	picture	0		118.0	70.0	/home/egter/Projects/stimuli/pictures/n01968897_17016.JPEG	103.48535227775574	0.9915740489959717
72	71.25269818305969	response	0	k		70.0	/home/egter/Projects/stimuli/pictures/n01968897_17016.JPEG	104.4604012966156	
73	71.2692232131958	picture	0		82.0	71.0	/home/egter/Projects/stimuli/pictures/ILSVRC2012_test_00042631.JPEG	104.47692632675171	0.684593915939331
73	71.94440817832947	response	0	k		71.0	/home/egter/Projects/stimuli/pictures/ILSVRC2012_test_00042631.JPEG	105.15211129188538	
74	71.95381712913513	picture	0		113.0	72.0	/home/egter/Projects/stimuli/pictures/S_yt-sZBe-xmTySc_8.png	105.16152024269104	0.9488480091094971
74	72.88609004020691	response	0	k		72.0	/home/egter/Projects/stimuli/pictures/S_yt-sZBe-xmTySc_8.png	106.09379315376282	
75	72.90266513824463	picture	0		74.0	73.0	/home/egter/Projects/stimuli/pictures/n03201208_10496.JPEG	106.11036825180054	0.6205980777740479
75	73.50417399406433	response	0	k		73.0	/home/egter/Projects/stimuli/pictures/n03201208_10496.JPEG	106.71187710762024	
76	73.52326321601868	picture	0		117.0	74.0	/home/egter/Projects/stimuli/pictures/R_S_ILSVRC2015_train_00042003.png	106.73096632957458	0.9792988300323486
76	74.48598718643188	response	0	j		74.0	/home/egter/Projects/stimuli/pictures/R_S_ILSVRC2015_train_00042003.png	107.6936902999878	
77	74.50256204605103	picture	0		74.0	75.0	/home/egter/Projects/stimuli/pictures/R_S_yt-CR86bVrRwfo_13.png	107.71026515960693	0.6250391006469727
77	75.10417103767395	response	0	j		75.0	/home/egter/Projects/stimuli/pictures/R_S_yt-CR86bVrRwfo_13.png	108.31187415122986	
78	75.127601146698	picture	0		97.0	76.0	/home/egter/Projects/stimuli/pictures/n03344393_6139.JPEG	108.3353042602539	0.8166790008544922
78	75.9208722114563	response	0	k		76.0	/home/egter/Projects/stimuli/pictures/n03344393_6139.JPEG	109.1285753250122	
79	75.94428014755249	picture	0		227.0	77.0	/home/egter/Projects/stimuli/pictures/R_S_ILSVRC2015_train_00613000.png	109.1519832611084	1.9000110626220703
79	77.82770705223083	response	0	j		77.0	/home/egter/Projects/stimuli/pictures/R_S_ILSVRC2015_train_00613000.png	111.03541016578674	
80	77.84429121017456	picture	0		124.0	78.0	/home/egter/Projects/stimuli/pictures/S_wc-PX_MIe5L43_3_16.png	111.05199432373047	1.0417609214782715
80	78.86939907073975	response	0	j		78.0	/home/egter/Projects/stimuli/pictures/S_wc-PX_MIe5L43_3_16.png	112.07710218429565	
81	78.88605213165283	picture	0		79.0	79.0	/home/egter/Projects/stimuli/pictures/S_yt-OrTpetjDNKs_31.png	112.09375524520874	0.6665370464324951
81	79.52924799919128	response	0	j		79.0	/home/egter/Projects/stimuli/pictures/S_yt-OrTpetjDNKs_31.png	112.73695111274719	
82	79.55258917808533	picture	0		83.0	80.0	/home/egter/Projects/stimuli/pictures/n02102973_3999.JPEG	112.76029229164124	0.7000269889831543
82	80.23605012893677	response	0	k		80.0	/home/egter/Projects/stimuli/pictures/n02102973_3999.JPEG	113.44375324249268	
83	80.25261616706848	picture	0		84.0	81.0	/home/egter/Projects/stimuli/pictures/R_S_ILSVRC2015_train_00364000.png	113.46031928062439	0.7082748413085938
83	80.94433212280273	response	0	j		81.0	/home/egter/Projects/stimuli/pictures/R_S_ILSVRC2015_train_00364000.png	114.15203523635864	
84	80.96089100837708	picture	0		94.0	82.0	/home/egter/Projects/stimuli/pictures/S_yt-tOOaOzYvtKE_79.png	114.16859412193298	0.7916660308837891
84	81.7291510105133	response	0	j		82.0	/home/egter/Projects/stimuli/pictures/S_yt-tOOaOzYvtKE_79.png	114.93685412406921	
85	81.75255703926086	picture	0		74.0	83.0	/home/egter/Projects/stimuli/pictures/n07697537_2918.JPEG	114.96026015281677	0.6178550720214844
85	82.36100316047668	response	0	j		83.0	/home/egter/Projects/stimuli/pictures/n07697537_2918.JPEG	115.56870627403259	
86	82.37041211128235	picture	0		306.0	84.0	/home/egter/Projects/stimuli/pictures/n03089624_41889.JPEG	115.57811522483826	2.548753023147583
86	84.910973072052	response	0	k		84.0	/home/egter/Projects/stimuli/pictures/n03089624_41889.JPEG	118.11867618560791	
87	84.91916513442993	picture	0		126.0	85.0	/home/egter/Projects/stimuli/pictures/S_yt-qlR-TG7veA4_17.png	118.12686824798584	1.0583829879760742
87	85.96096801757812	response	0	k		85.0	/home/egter/Projects/stimuli/pictures/S_yt-qlR-TG7veA4_17.png	119.16867113113403	
88	85.977548122406	picture	0		78.0	86.0	/home/egter/Projects/stimuli/pictures/n02808304_2539.JPEG	119.18525123596191	0.6583600044250488
88	86.61932015419006	response	0	k		86.0	/home/egter/Projects/stimuli/pictures/n02808304_2539.JPEG	119.82702326774597	
89	86.63590812683105	picture	0		75.0	87.0	/home/egter/Projects/stimuli/pictures/n07697537_3054.JPEG	119.84361124038696	0.6332910060882568
89	87.25262808799744	response	0	k		87.0	/home/egter/Projects/stimuli/pictures/n07697537_3054.JPEG	120.46033120155334	
90	87.26919913291931	picture	0		82.0	88.0	/home/egter/Projects/stimuli/pictures/R_S_yt-OrTpetjDNKs_31.png	120.47690224647522	0.6844000816345215
90	87.94430303573608	response	0	j		88.0	/home/egter/Projects/stimuli/pictures/R_S_yt-OrTpetjDNKs_31.png	121.15200614929199	
91	87.95359921455383	picture	0		116.0	89.0	/home/egter/Projects/stimuli/pictures/R_S_pexels-kampus-production-5991896.png	121.16130232810974	0.9739348888397217
91	88.91095614433289	response	0	j		89.0	/home/egter/Projects/stimuli/pictures/R_S_pexels-kampus-production-5991896.png	122.1186592578888	
92	88.92753410339355	picture	0		75.0	90.0	/home/egter/Projects/stimuli/pictures/n03868242_971.JPEG	122.13523721694946	0.6333329677581787
92	89.54429221153259	response	0	k		90.0	/home/egter/Projects/stimuli/pictures/n03868242_971.JPEG	122.7519953250885	
93	89.56086707115173	picture	0		76.0	91.0	/home/egter/Projects/stimuli/pictures/ILSVRC2012_val_00021857.JPEG	122.76857018470764	0.6416511535644531
93	90.1859450340271	response	0	k		91.0	/home/egter/Projects/stimuli/pictures/ILSVRC2012_val_00021857.JPEG	123.39364814758301	
94	90.20251822471619	picture	0		106.0	92.0	/home/egter/Projects/stimuli/pictures/S_comp_A001_C004_1207W5_v23_SDR_FINAL_20180706_SDR_2K_AVC.png	123.4102213382721	0.8916769027709961
94	91.07762718200684	response	0	j		92.0	/home/egter/Projects/stimuli/pictures/S_comp_A001_C004_1207W5_v23_SDR_FINAL_20180706_SDR_2K_AVC.png	124.28533029556274	
95	91.09419512748718	picture	0		96.0	93.0	/home/egter/Projects/stimuli/pictures/S_yt-hQ5pge893b4_6.png	124.30189824104309	0.8038780689239502
95	91.88594007492065	response	0	j		93.0	/home/egter/Projects/stimuli/pictures/S_yt-hQ5pge893b4_6.png	125.09364318847656	
96	91.89807319641113	picture	0		73.0	94.0	/home/egter/Projects/stimuli/pictures/R_S_8amznWxLS04_212.png	125.10577630996704	0.6211190223693848
96	92.50252509117126	response	0	j		94.0	/home/egter/Projects/stimuli/pictures/R_S_8amznWxLS04_212.png	125.71022820472717	
97	92.51919221878052	picture	0		79.0	95.0	/home/egter/Projects/stimuli/pictures/n01697457_2423.JPEG	125.72689533233643	0.666693925857544
97	93.16933012008667	response	0	k		95.0	/home/egter/Projects/stimuli/pictures/n01697457_2423.JPEG	126.37703323364258	
98	93.18588614463806	picture	0		134.0	96.0	/home/egter/Projects/stimuli/pictures/S_yt-o_Hakzj8PRg_2864.png	126.39358925819397	1.1249799728393555
98	94.29430913925171	response	0	j		96.0	/home/egter/Projects/stimuli/pictures/S_yt-o_Hakzj8PRg_2864.png	127.50201225280762	
99	94.31086611747742	picture	0		82.0	97.0	/home/egter/Projects/stimuli/pictures/n04146614_5867.JPEG	127.51856923103333	0.6916689872741699
99	94.98599815368652	response	0	k		97.0	/home/egter/Projects/stimuli/pictures/n04146614_5867.JPEG	128.19370126724243	
100	95.00253510475159	picture	0		105.0	98.0	/home/egter/Projects/stimuli/pictures/n13037406_5057.JPEG	128.2102382183075	0.8833250999450684
100	95.86931920051575	response	0	k		98.0	/home/egter/Projects/stimuli/pictures/n13037406_5057.JPEG	129.07702231407166	
101	95.88586020469666	picture	0		152.0	99.0	/home/egter/Projects/stimuli/pictures/S_yt-qazCIJqjxUU_3.png	129.09356331825256	1.276045799255371
101	97.1374900341034	response	0	j		99.0	/home/egter/Projects/stimuli/pictures/S_yt-qazCIJqjxUU_3.png	130.3451931476593	
102	97.16190600395203	picture	0		136.0	100.0	/home/egter/Projects/stimuli/pictures/S_yt-bQRBtP9zkms_111.png	130.36960911750793	1.138902187347412
102	98.28599905967712	response	0	j		100.0	/home/egter/Projects/stimuli/pictures/S_yt-bQRBtP9zkms_111.png	131.49370217323303	
103	98.30080819129944	picture	0		171.0	101.0	/home/egter/Projects/stimuli/pictures/R_S_production_ID_4802716.png	131.50851130485535	1.4350409507751465
103	99.71240615844727	response	0	j		101.0	/home/egter/Projects/stimuli/pictures/R_S_production_ID_4802716.png	132.92010927200317	
104	99.73584914207458	picture	0		88.0	102.0	/home/egter/Projects/stimuli/pictures/R_S_yt-BCFGCganiuE_8.png	132.9435522556305	0.7417418956756592
104	100.46101117134094	response	0	j		102.0	/home/egter/Projects/stimuli/pictures/R_S_yt-BCFGCganiuE_8.png	133.66871428489685	
105	100.47759103775024	picture	0		75.0	103.0	/home/egter/Projects/stimuli/pictures/n02804610_30273.JPEG	133.68529415130615	0.633263111114502
105	101.09429407119751	response	0	k		103.0	/home/egter/Projects/stimuli/pictures/n02804610_30273.JPEG	134.30199718475342	
106	101.11085414886475	picture	0		160.0	104.0	/home/egter/Projects/stimuli/pictures/S_comp_GMT329_113NC_396B_1105_ITALY_v03_SDR_FINAL_20180706_SDR_2K_AVC.png	134.31855726242065	1.3416759967803955
106	102.4359130859375	response	0	j		104.0	/home/egter/Projects/stimuli/pictures/S_comp_GMT329_113NC_396B_1105_ITALY_v03_SDR_FINAL_20180706_SDR_2K_AVC.png	135.6436161994934	
107	102.45253014564514	picture	0		400.0	105.0	/home/egter/Projects/stimuli/pictures/n09332890_10045.JPEG	135.66023325920105	3.341610908508301
107	105.77759099006653	response	0	k		105.0	/home/egter/Projects/stimuli/pictures/n09332890_10045.JPEG	138.98529410362244	
108	105.79414105415344	picture	0		120.0	106.0	/home/egter/Projects/stimuli/pictures/R_S_yt-wUqpCtBOFBA_89.png	139.00184416770935	1.0083489418029785
108	106.78591704368591	response	0	j		106.0	/home/egter/Projects/stimuli/pictures/R_S_yt-wUqpCtBOFBA_89.png	139.99362015724182	
109	106.80248999595642	picture	0		139.0	107.0	/home/egter/Projects/stimuli/pictures/S_yt-Bx2kLEUuN0E_456.png	140.01019310951233	1.1666581630706787
109	107.9525420665741	response	0	j		107.0	/home/egter/Projects/stimuli/pictures/S_yt-Bx2kLEUuN0E_456.png	141.16024518013	
110	107.9691481590271	picture	0		147.0	108.0	/home/egter/Projects/stimuli/pictures/R_S_yt-MSdNCUWOp4o_4.png	141.176851272583	1.2333378791809082
110	109.18592619895935	response	0	j		108.0	/home/egter/Projects/stimuli/pictures/R_S_yt-MSdNCUWOp4o_4.png	142.39362931251526	
111	109.20248603820801	picture	0		83.0	109.0	/home/egter/Projects/stimuli/pictures/S_yt-vQ-rd-1gwH4_238.png	142.41018915176392	0.6999940872192383
111	109.88593816757202	response	0	j		109.0	/home/egter/Projects/stimuli/pictures/S_yt-vQ-rd-1gwH4_238.png	143.09364128112793	
112	109.90248012542725	picture	0		118.0	110.0	/home/egter/Projects/stimuli/pictures/S_yt-Op12PQ4bqTw_11.png	143.11018323898315	0.9917058944702148
112	110.87764000892639	response	0	k		110.0	/home/egter/Projects/stimuli/pictures/S_yt-Op12PQ4bqTw_11.png	144.0853431224823	
113	110.89418601989746	picture	0		82.0	111.0	/home/egter/Projects/stimuli/pictures/S_yt-0qfEA1ZFWjA_123.png	144.10188913345337	0.6916031837463379
113	111.56924104690552	response	0	j		111.0	/home/egter/Projects/stimuli/pictures/S_yt-0qfEA1ZFWjA_123.png	144.77694416046143	
114	111.5857892036438	picture	0		123.0	112.0	/home/egter/Projects/stimuli/pictures/n02074367_2348.JPEG	144.7934923171997	1.0333669185638428
114	112.60252213478088	response	0	k		112.0	/home/egter/Projects/stimuli/pictures/n02074367_2348.JPEG	145.8102252483368	
115	112.61915612220764	picture	0		133.0	113.0	/home/egter/Projects/stimuli/pictures/n02640242_3786.JPEG	145.82685923576355	1.1166760921478271
115	113.71919012069702	response	0	k		113.0	/home/egter/Projects/stimuli/pictures/n02640242_3786.JPEG	146.92689323425293	
116	113.73583221435547	picture	0		88.0	114.0	/home/egter/Projects/stimuli/pictures/ILSVRC2012_test_00026793.JPEG	146.94353532791138	0.7416648864746094
116	114.46085500717163	response	0	k		114.0	/home/egter/Projects/stimuli/pictures/ILSVRC2012_test_00026793.JPEG	147.66855812072754	
117	114.47749710083008	picture	0		118.0	115.0	/home/egter/Projects/stimuli/pictures/S_yt-CR86bVrRwfo_13.png	147.685200214386	0.991624116897583
117	115.45256805419922	response	0	j		115.0	/home/egter/Projects/stimuli/pictures/S_yt-CR86bVrRwfo_13.png	148.66027116775513	
118	115.46912121772766	picture	0		69.0	116.0	/home/egter/Projects/stimuli/pictures/n02106382_2808.JPEG	148.67682433128357	0.5833239555358887
118	116.03585815429688	response	0	k		116.0	/home/egter/Projects/stimuli/pictures/n02106382_2808.JPEG	149.24356126785278	
119	116.05244517326355	picture	0		84.0	117.0	/home/egter/Projects/stimuli/pictures/R_S_yt-a5TGHnldsKg_102.png	149.26014828681946	0.7082688808441162
119	116.73740100860596	response	0	j		117.0	/home/egter/Projects/stimuli/pictures/R_S_yt-a5TGHnldsKg_102.png	149.94510412216187	
120	116.76071405410767	picture	0		72.0	118.0	/home/egter/Projects/stimuli/pictures/ILSVRC2012_val_00019941.JPEG	149.96841716766357	0.6083841323852539
120	117.34567022323608	response	0	k		118.0	/home/egter/Projects/stimuli/pictures/ILSVRC2012_val_00019941.JPEG	150.553373336792	
121	117.36909818649292	picture	0		91.0	119.0	/home/egter/Projects/stimuli/pictures/R_S_yt-hQ5pge893b4_6.png	150.57680130004883	0.7666490077972412
121	118.11922311782837	response	0	j		119.0	/home/egter/Projects/stimuli/pictures/R_S_yt-hQ5pge893b4_6.png	151.32692623138428	
122	118.13574719429016	picture	0		101.0	120.0	/home/egter/Projects/stimuli/pictures/R_S_yt-NOnR6C2sjpI_97.png	151.34345030784607	0.8499469757080078
122	118.96912407875061	response	0	j		120.0	/home/egter/Projects/stimuli/pictures/R_S_yt-NOnR6C2sjpI_97.png	152.17682719230652	
123	118.98569416999817	picture	0		74.0	121.0	/home/egter/Projects/stimuli/pictures/n04154565_4496.JPEG	152.19339728355408	0.6250569820404053
123	119.59417200088501	response	0	k		121.0	/home/egter/Projects/stimuli/pictures/n04154565_4496.JPEG	152.80187511444092	
124	119.61075115203857	picture	0		98.0	122.0	/home/egter/Projects/stimuli/pictures/n01984695_30354.JPEG	152.81845426559448	0.8250598907470703
124	120.41919112205505	response	0	k		122.0	/home/egter/Projects/stimuli/pictures/n01984695_30354.JPEG	153.62689423561096	
125	120.43581104278564	picture	0		136.0	123.0	/home/egter/Projects/stimuli/pictures/S_yt-2pRKCSgdXXU_30.png	153.64351415634155	1.1415951251983643
125	121.55405020713806	response	0	j		123.0	/home/egter/Projects/stimuli/pictures/S_yt-2pRKCSgdXXU_30.png	154.76175332069397	
126	121.57740616798401	picture	0		171.0	124.0	/home/egter/Projects/stimuli/pictures/S_yt-oVrkSsEpuvk_118.png	154.78510928153992	1.4333229064941406
126	122.99417400360107	response	0	j		124.0	/home/egter/Projects/stimuli/pictures/S_yt-oVrkSsEpuvk_118.png	156.20187711715698	
127	123.01072907447815	picture	0		77.0	125.0	/home/egter/Projects/stimuli/pictures/n01729322_5682.JPEG	156.21843218803406	0.6439659595489502
127	123.64416909217834	response	0	k		125.0	/home/egter/Projects/stimuli/pictures/n01729322_5682.JPEG	156.85187220573425	
128	123.6546950340271	picture	0		93.0	126.0	/home/egter/Projects/stimuli/pictures/n02444819_23160.JPEG	156.862398147583	0.780987024307251
128	124.41913318634033	response	0	k		126.0	/home/egter/Projects/stimuli/pictures/n02444819_23160.JPEG	157.62683629989624	
129	124.43568205833435	picture	0		134.0	127.0	/home/egter/Projects/stimuli/pictures/n04252225_10323.JPEG	157.64338517189026	1.1250591278076172
129	125.53736805915833	response	0	k		127.0	/home/egter/Projects/stimuli/pictures/n04252225_10323.JPEG	158.74507117271423	
130	125.56074118614197	picture	0		82.0	128.0	/home/egter/Projects/stimuli/pictures/n02815834_676.JPEG	158.76844429969788	0.6916749477386475
130	126.23582816123962	response	0	k		128.0	/home/egter/Projects/stimuli/pictures/n02815834_676.JPEG	159.44353127479553	
131	126.25241613388062	picture	0		96.0	129.0	/home/egter/Projects/stimuli/pictures/n01737021_9424.JPEG	159.46011924743652	0.8083090782165527
131	127.04415321350098	response	0	k		129.0	/home/egter/Projects/stimuli/pictures/n01737021_9424.JPEG	160.25185632705688	
132	127.06072521209717	picture	0		110.0	130.0	/home/egter/Projects/stimuli/pictures/R_S_FK_U009_C004_SDR_20191220_SDR_2K_AVC.png	160.26842832565308	0.9202849864959717
132	127.96903610229492	response	0	j		130.0	/home/egter/Projects/stimuli/pictures/R_S_FK_U009_C004_SDR_20191220_SDR_2K_AVC.png	161.17673921585083	
133	127.98101019859314	picture	0		78.0	131.0	/home/egter/Projects/stimuli/pictures/n03733131_9420.JPEG	161.18871331214905	0.6547269821166992
133	128.61915802955627	response	0	k		131.0	/home/egter/Projects/stimuli/pictures/n03733131_9420.JPEG	161.82686114311218	
134	128.63573718070984	picture	0		96.0	132.0	/home/egter/Projects/stimuli/pictures/S_ILSVRC2015_train_00379000.png	161.84344029426575	0.8035988807678223
134	129.42746210098267	response	0	j		132.0	/home/egter/Projects/stimuli/pictures/S_ILSVRC2015_train_00379000.png	162.63516521453857	
135	129.43933606147766	picture	0		96.0	133.0	/home/egter/Projects/stimuli/pictures/S_yt-SGTgMItFkxY_172.png	162.64703917503357	0.8046779632568359
135	130.22752118110657	response	0	j		133.0	/home/egter/Projects/stimuli/pictures/S_yt-SGTgMItFkxY_172.png	163.43522429466248	
136	130.2440140247345	picture	0		110.0	134.0	/home/egter/Projects/stimuli/pictures/R_S_yt-uT4MXm0UBJM_64.png	163.4517171382904	0.9250001907348633
136	131.14556908607483	response	0	j		134.0	/home/egter/Projects/stimuli/pictures/R_S_yt-uT4MXm0UBJM_64.png	164.35327219963074	
137	131.16901421546936	picture	0		86.0	135.0	/home/egter/Projects/stimuli/pictures/R_S_video-8.png	164.37671732902527	0.7250299453735352
137	131.877503156662	response	0	j		135.0	/home/egter/Projects/stimuli/pictures/R_S_video-8.png	165.0852062702179	
138	131.8940441608429	picture	0		98.0	136.0	/home/egter/Projects/stimuli/pictures/n02120079_3881.JPEG	165.1017472743988	0.8250010013580322
138	132.7025260925293	response	0	k		136.0	/home/egter/Projects/stimuli/pictures/n02120079_3881.JPEG	165.9102292060852	
139	132.71904516220093	picture	0		93.0	137.0	/home/egter/Projects/stimuli/pictures/S_yt-vHS71x_O6sY_90.png	165.92674827575684	0.783350944519043
139	133.48582005500793	response	0	k		137.0	/home/egter/Projects/stimuli/pictures/S_yt-vHS71x_O6sY_90.png	166.69352316856384	
140	133.50239610671997	picture	0		111.0	138.0	/home/egter/Projects/stimuli/pictures/S_yt-lNevNqA8sIs_54.png	166.71009922027588	0.933250904083252
140	134.4191131591797	response	0	k		138.0	/home/egter/Projects/stimuli/pictures/S_yt-lNevNqA8sIs_54.png	167.6268162727356	
141	134.43564701080322	picture	0		94.0	139.0	/home/egter/Projects/stimuli/pictures/n03498962_440.JPEG	167.64335012435913	0.7917160987854004
141	135.21081018447876	response	0	k		139.0	/home/egter/Projects/stimuli/pictures/n03498962_440.JPEG	168.41851329803467	
142	135.22736310958862	picture	0		81.0	140.0	/home/egter/Projects/stimuli/pictures/R_S_ILSVRC2015_train_00323000.png	168.43506622314453	0.6772000789642334
142	135.89410400390625	response	0	j		140.0	/home/egter/Projects/stimuli/pictures/R_S_ILSVRC2015_train_00323000.png	169.10180711746216	
143	135.90456318855286	picture	0		89.0	141.0	/home/egter/Projects/stimuli/pictures/R_S_yt-iHmshS63rBc_329.png	169.11226630210876	0.7430679798126221
143	136.63576102256775	response	0	j		141.0	/home/egter/Projects/stimuli/pictures/R_S_yt-iHmshS63rBc_329.png	169.84346413612366	
144	136.64763116836548	picture	0		97.0	142.0	/home/egter/Projects/stimuli/pictures/n01644900_6783.JPEG	169.8553342819214	0.813014030456543
144	137.44409108161926	response	0	k		142.0	/home/egter/Projects/stimuli/pictures/n01644900_6783.JPEG	170.65179419517517	
145	137.46064519882202	picture	0		206.0	143.0	/home/egter/Projects/stimuli/pictures/R_S_production_ID_4720614.png	170.66834831237793	1.7250149250030518
145	139.1690640449524	response	0	j		143.0	/home/egter/Projects/stimuli/pictures/R_S_production_ID_4720614.png	172.3767671585083	
146	139.18566012382507	picture	0		190.0	144.0	/home/egter/Projects/stimuli/pictures/n03345487_15321.JPEG	172.39336323738098	1.5868980884552002
146	140.75389218330383	response	0	k		144.0	/home/egter/Projects/stimuli/pictures/n03345487_15321.JPEG	173.96159529685974	
147	140.77255821228027	picture	0		97.0	145.0	/home/egter/Projects/stimuli/pictures/S_g201_TH_804_A001_8_SDR_20191031_SDR_2K_AVC.png	173.98026132583618	0.8056049346923828
147	141.56218600273132	response	0	j		145.0	/home/egter/Projects/stimuli/pictures/S_g201_TH_804_A001_8_SDR_20191031_SDR_2K_AVC.png	174.76988911628723	
148	141.57816314697266	picture	0		107.0	146.0	/home/egter/Projects/stimuli/pictures/S_yt-eVAlSjH8E8k_127.png	174.78586626052856	0.8992569446563721
148	142.46073007583618	response	0	j		146.0	/home/egter/Projects/stimuli/pictures/S_yt-eVAlSjH8E8k_127.png	175.6684331893921	
149	142.47742009162903	picture	0		84.0	147.0	/home/egter/Projects/stimuli/pictures/n01753488_9363.JPEG	175.68512320518494	0.7082579135894775
149	143.1621401309967	response	0	k		147.0	/home/egter/Projects/stimuli/pictures/n01753488_9363.JPEG	176.3698432445526	
150	143.1856780052185	picture	0		89.0	148.0	/home/egter/Projects/stimuli/pictures/n07693725_3581.JPEG	176.3933811187744	0.7499301433563232
150	143.91905808448792	response	0	k		148.0	/home/egter/Projects/stimuli/pictures/n07693725_3581.JPEG	177.12676119804382	
151	143.93560814857483	picture	0		79.0	149.0	/home/egter/Projects/stimuli/pictures/n03345487_785.JPEG	177.14331126213074	0.6667399406433105
151	144.58575105667114	response	0	k		149.0	/home/egter/Projects/stimuli/pictures/n03345487_785.JPEG	177.79345417022705	
152	144.60234808921814	picture	0		110.0	150.0	/home/egter/Projects/stimuli/pictures/S_yt-jbvXEFk2Gyw_12.png	177.81005120277405	0.9201719760894775
152	145.51074504852295	response	0	j		150.0	/home/egter/Projects/stimuli/pictures/S_yt-jbvXEFk2Gyw_12.png	178.71844816207886	
153	145.52252006530762	picture	0		77.0	151.0	/home/egter/Projects/stimuli/pictures/n03733281_32047.JPEG	178.73022317886353	0.6388781070709229
153	146.14551305770874	response	0	k		151.0	/home/egter/Projects/stimuli/pictures/n03733281_32047.JPEG	179.35321617126465	
154	146.16139817237854	picture	0		92.0	152.0	/home/egter/Projects/stimuli/pictures/R_S_yt-s2tZ2NIQrxg_175.png	179.36910128593445	0.7742118835449219
154	146.9190170764923	response	0	j		152.0	/home/egter/Projects/stimuli/pictures/R_S_yt-s2tZ2NIQrxg_175.png	180.12672019004822	
155	146.93561005592346	picture	0		126.0	153.0	/home/egter/Projects/stimuli/pictures/n04118776_62273.JPEG	180.14331316947937	1.0583369731903076
155	147.9773931503296	response	0	k		153.0	/home/egter/Projects/stimuli/pictures/n04118776_62273.JPEG	181.1850962638855	
156	147.99394702911377	picture	0		72.0	154.0	/home/egter/Projects/stimuli/pictures/n02128925_57428.JPEG	181.20165014266968	0.6083381175994873
156	148.5856750011444	response	0	k		154.0	/home/egter/Projects/stimuli/pictures/n02128925_57428.JPEG	181.79337811470032	
157	148.60228514671326	picture	0		68.0	155.0	/home/egter/Projects/stimuli/pictures/S_yt-uT4MXm0UBJM_64.png	181.80998826026917	0.5750200748443604
157	149.1537961959839	response	0	j		155.0	/home/egter/Projects/stimuli/pictures/S_yt-uT4MXm0UBJM_64.png	182.3614993095398	
158	149.17730522155762	picture	0		80.0	156.0	/home/egter/Projects/stimuli/pictures/R_S_production_ID_4510883.png	182.38500833511353	0.6715929508209229
158	149.8357322216034	response	0	j		156.0	/home/egter/Projects/stimuli/pictures/R_S_production_ID_4510883.png	183.0434353351593	
159	149.84889817237854	picture	0		91.0	157.0	/home/egter/Projects/stimuli/pictures/n02033041_6321.JPEG	183.05660128593445	0.7617080211639404
159	150.5940911769867	response	0	k		157.0	/home/egter/Projects/stimuli/pictures/n02033041_6321.JPEG	183.8017942905426	
160	150.61060619354248	picture	0		82.0	158.0	/home/egter/Projects/stimuli/pictures/n03196217_3605.JPEG	183.8183093070984	0.6916718482971191
160	151.28579211235046	response	0	k		158.0	/home/egter/Projects/stimuli/pictures/n03196217_3605.JPEG	184.49349522590637	
161	151.3022780418396	picture	0		136.0	159.0	/home/egter/Projects/stimuli/pictures/R_S_ILSVRC2015_train_00369004.png	184.5099811553955	1.1416611671447754
161	152.4273760318756	response	0	j		159.0	/home/egter/Projects/stimuli/pictures/R_S_ILSVRC2015_train_00369004.png	185.63507914543152	
162	152.44393920898438	picture	0		102.0	160.0	/home/egter/Projects/stimuli/pictures/S_yt-alGXD2Drh_g_19.png	185.65164232254028	0.8583338260650635
162	153.28571009635925	response	0	j		160.0	/home/egter/Projects/stimuli/pictures/S_yt-alGXD2Drh_g_19.png	186.49341320991516	
163	153.30227303504944	picture	0		105.0	161.0	/home/egter/Projects/stimuli/pictures/R_S_yt-XYULt48onn4_6.png	186.50997614860535	0.8833181858062744
163	154.1621332168579	response	0	j		161.0	/home/egter/Projects/stimuli/pictures/R_S_yt-XYULt48onn4_6.png	187.36983633041382	
164	154.1855912208557	picture	0		110.0	162.0	/home/egter/Projects/stimuli/pictures/S_ILSVRC2015_train_00369004.png	187.39329433441162	0.9249978065490723
164	155.09402704238892	response	0	j		162.0	/home/egter/Projects/stimuli/pictures/S_ILSVRC2015_train_00369004.png	188.30173015594482	
165	155.11058902740479	picture	0		116.0	163.0	/home/egter/Projects/stimuli/pictures/n04371774_5138.JPEG	188.3182921409607	0.9673941135406494
165	156.06901621818542	response	0	k		163.0	/home/egter/Projects/stimuli/pictures/n04371774_5138.JPEG	189.27671933174133	
166	156.07798314094543	picture	0		109.0	164.0	/home/egter/Projects/stimuli/pictures/R_S_production_ID_5020960.png	189.28568625450134	0.9159500598907471
166	156.9772801399231	response	0	j		164.0	/home/egter/Projects/stimuli/pictures/R_S_production_ID_5020960.png	190.184983253479	
167	156.99393320083618	picture	0		71.0	165.0	/home/egter/Projects/stimuli/pictures/n02727426_10506.JPEG	190.2016363143921	0.6000289916992188
167	157.5773811340332	response	0	k		165.0	/home/egter/Projects/stimuli/pictures/n02727426_10506.JPEG	190.7850842475891	
168	157.5939621925354	picture	0		85.0	166.0	/home/egter/Projects/stimuli/pictures/n09468604_17171.JPEG	190.8016653060913	0.716562032699585
168	158.29398608207703	response	0	k		166.0	/home/egter/Projects/stimuli/pictures/n09468604_17171.JPEG	191.50168919563293	
169	158.31052422523499	picture	0		77.0	167.0	/home/egter/Projects/stimuli/pictures/R_S_yt-SGTgMItFkxY_172.png	191.5182273387909	0.650000810623169
169	158.94399619102478	response	0	j		167.0	/home/egter/Projects/stimuli/pictures/R_S_yt-SGTgMItFkxY_172.png	192.1516993045807	
170	158.96052503585815	picture	0		61.0	168.0	/home/egter/Projects/stimuli/pictures/n12985857_1291.JPEG	192.16822814941406	0.5168900489807129
170	159.46066904067993	response	0	k		168.0	/home/egter/Projects/stimuli/pictures/n12985857_1291.JPEG	192.66837215423584	
171	159.47741508483887	picture	0		71.0	169.0	/home/egter/Projects/stimuli/pictures/n01729322_16251.JPEG	192.68511819839478	0.5997989177703857
171	160.06064414978027	response	0	k		169.0	/home/egter/Projects/stimuli/pictures/n01729322_16251.JPEG	193.26834726333618	
172	160.07721400260925	picture	0		84.0	170.0	/home/egter/Projects/stimuli/pictures/n02395406_3109.JPEG	193.28491711616516	0.7083010673522949
172	160.76222109794617	response	0	k		170.0	/home/egter/Projects/stimuli/pictures/n02395406_3109.JPEG	193.96992421150208	
173	160.78551506996155	picture	0		74.0	171.0	/home/egter/Projects/stimuli/pictures/S_comp_DB_D011_C010_PSNK_DENOISE_v19_SDR_PS_20180914_SDR_2K_AVC.png	193.99321818351746	0.6250150203704834
173	161.39402413368225	response	0	j		171.0	/home/egter/Projects/stimuli/pictures/S_comp_DB_D011_C010_PSNK_DENOISE_v19_SDR_PS_20180914_SDR_2K_AVC.png	194.60172724723816	
174	161.41053009033203	picture	0		63.0	172.0	/home/egter/Projects/stimuli/pictures/n02268853_3947.JPEG	194.61823320388794	0.5333631038665771
174	161.92732000350952	response	0	k		172.0	/home/egter/Projects/stimuli/pictures/n02268853_3947.JPEG	195.13502311706543	
175	161.9438931941986	picture	0		89.0	173.0	/home/egter/Projects/stimuli/pictures/S_yt-TvU-aYjNa2c_21.png	195.15159630775452	0.7500109672546387
175	162.6773362159729	response	0	j		173.0	/home/egter/Projects/stimuli/pictures/S_yt-TvU-aYjNa2c_21.png	195.8850393295288	
176	162.69390416145325	picture	0		100.0	174.0	/home/egter/Projects/stimuli/pictures/S_yt-s2tZ2NIQrxg_175.png	195.90160727500916	0.8416168689727783
176	163.51900100708008	response	0	j		174.0	/home/egter/Projects/stimuli/pictures/S_yt-s2tZ2NIQrxg_175.png	196.726704120636	
177	163.53552103042603	picture	0		84.0	175.0	/home/egter/Projects/stimuli/pictures/n04004767_5804.JPEG	196.74322414398193	0.7083451747894287
177	164.22725820541382	response	0	k		175.0	/home/egter/Projects/stimuli/pictures/n04004767_5804.JPEG	197.43496131896973	
178	164.24386620521545	picture	0		118.0	176.0	/home/egter/Projects/stimuli/pictures/n03891251_574.JPEG	197.45156931877136	0.9916598796844482
178	165.21894001960754	response	0	k		176.0	/home/egter/Projects/stimuli/pictures/n03891251_574.JPEG	198.42664313316345	
179	165.2355260848999	picture	0		89.0	177.0	/home/egter/Projects/stimuli/pictures/S_wc-_W9iefBXz8bi_23.png	198.4432291984558	0.7499971389770508
179	165.96212816238403	response	0	j		177.0	/home/egter/Projects/stimuli/pictures/S_wc-_W9iefBXz8bi_23.png	199.16983127593994	
180	165.98552322387695	picture	0		89.0	178.0	/home/egter/Projects/stimuli/pictures/S_yt-kxWtOXNIsRA_329.png	199.19322633743286	0.749985933303833
180	166.71896314620972	response	0	j		178.0	/home/egter/Projects/stimuli/pictures/S_yt-kxWtOXNIsRA_329.png	199.92666625976562	
181	166.7355091571808	picture	0		105.0	179.0	/home/egter/Projects/stimuli/pictures/R_S_ILSVRC2015_train_00469000.png	199.9432122707367	0.8771429061889648
181	167.60230422019958	response	0	j		179.0	/home/egter/Projects/stimuli/pictures/R_S_ILSVRC2015_train_00469000.png	200.8100073337555	
182	167.61265206336975	stim	0		608.0			200.82035517692566	5.069407939910889
182	169.8189241886139	response	0	j				203.0266273021698	
182	172.6689510345459	response	0	space				205.8766541481018	
