trial_nr	onset	event_type	phase	response	nr_frames	picture_index	picture_file	onset_abs	duration
0	0.018211841583251953	stim	0		1300.0			33.26033091545105	10.845598936080933
0	3.2724437713623047	response	0	j				36.5145628452301	
0	10.847258806228638	response	0	space				44.089377880096436	
2	10.863810777664185	picture	0		324.0	0.0	/home/egter/Projects/stimuli/pictures/n12985857_4626.JPEG	44.10592985153198	2.7083330154418945
2	13.555621862411499	response	0	k		0.0	/home/egter/Projects/stimuli/pictures/n12985857_4626.JPEG	46.7977409362793	
3	13.572143793106079	picture	0		87.0	1.0	/home/egter/Projects/stimuli/pictures/n02607072_2187.JPEG	46.81426286697388	0.7333481311798096
3	14.289381980895996	response	0	k		1.0	/home/egter/Projects/stimuli/pictures/n02607072_2187.JPEG	47.531501054763794	
4	14.305491924285889	picture	0		130.0	2.0	/home/egter/Projects/stimuli/pictures/S_yt-q8mfIumbHuo_84.png	47.54761099815369	1.0878410339355469
4	15.38058876991272	response	0	k		2.0	/home/egter/Projects/stimuli/pictures/S_yt-q8mfIumbHuo_84.png	48.62270784378052	
5	15.393332958221436	picture	0		102.0	3.0	/home/egter/Projects/stimuli/pictures/R_S_yt-gikcYT6ZLzA_7.png	48.63545203208923	0.8538179397583008
5	16.23057794570923	response	0	j		3.0	/home/egter/Projects/stimuli/pictures/R_S_yt-gikcYT6ZLzA_7.png	49.472697019577026	
6	16.247150897979736	picture	0		149.0	4.0	/home/egter/Projects/stimuli/pictures/n01665541_21853.JPEG	49.489269971847534	1.2499260902404785
6	17.480552911758423	response	0	k		4.0	/home/egter/Projects/stimuli/pictures/n01665541_21853.JPEG	50.72267198562622	
7	17.497076988220215	picture	0		121.0	5.0	/home/egter/Projects/stimuli/pictures/ILSVRC2012_test_00053134.JPEG	50.73919606208801	1.0166850090026855
7	18.497545957565308	response	0	k		5.0	/home/egter/Projects/stimuli/pictures/ILSVRC2012_test_00053134.JPEG	51.739665031433105	
8	18.5137619972229	picture	0		117.0	6.0	/home/egter/Projects/stimuli/pictures/S_yt-MXCxHM_Ms8A_15.png	51.7558810710907	0.9767379760742188
8	19.48062777519226	response	0	k		6.0	/home/egter/Projects/stimuli/pictures/S_yt-MXCxHM_Ms8A_15.png	52.72274684906006	
9	19.49049997329712	picture	0		147.0	7.0	/home/egter/Projects/stimuli/pictures/R_S_pexels-c-technical-6754008.png	52.73261904716492	1.2315809726715088
9	20.70588779449463	response	0	j		7.0	/home/egter/Projects/stimuli/pictures/R_S_pexels-c-technical-6754008.png	53.94800686836243	
10	20.722080945968628	picture	0		153.0	8.0	/home/egter/Projects/stimuli/pictures/S_yt-Co4dzHwupRM_18.png	53.964200019836426	1.283383846282959
10	21.98890495300293	response	0	j		8.0	/home/egter/Projects/stimuli/pictures/S_yt-Co4dzHwupRM_18.png	55.23102402687073	
11	22.005464792251587	picture	0		124.0	9.0	/home/egter/Projects/stimuli/pictures/S_G5lrDxJJzfI_2.png	55.247583866119385	1.0336921215057373
11	23.03057289123535	response	0	k		9.0	/home/egter/Projects/stimuli/pictures/S_G5lrDxJJzfI_2.png	56.27269196510315	
12	23.039156913757324	picture	0		110.0	10.0	/home/egter/Projects/stimuli/pictures/R_S_ILSVRC2015_train_00322000.png	56.28127598762512	0.9166228771209717
12	23.94721794128418	response	0	j		10.0	/home/egter/Projects/stimuli/pictures/R_S_ILSVRC2015_train_00322000.png	57.18933701515198	
13	23.955779790878296	picture	0		107.0	11.0	/home/egter/Projects/stimuli/pictures/R_S_yt-wjBwgccZM5k_150.png	57.197898864746094	0.8957850933074951
13	24.832376956939697	response	0	j		11.0	/home/egter/Projects/stimuli/pictures/R_S_yt-wjBwgccZM5k_150.png	58.074496030807495	
14	24.85156488418579	picture	0		133.0	12.0	/home/egter/Projects/stimuli/pictures/n04037443_34549.JPEG	58.09368395805359	1.1041250228881836
14	25.947207927703857	response	0	k		12.0	/home/egter/Projects/stimuli/pictures/n04037443_34549.JPEG	59.189327001571655	
15	25.955689907073975	picture	0		143.0	13.0	/home/egter/Projects/stimuli/pictures/S_ILSVRC2015_train_00446000.png	59.19780898094177	1.1945018768310547
15	27.138890981674194	response	0	j		13.0	/home/egter/Projects/stimuli/pictures/S_ILSVRC2015_train_00446000.png	60.38101005554199	
16	27.15019178390503	picture	0		133.0	14.0	/home/egter/Projects/stimuli/pictures/S_yt-EAMpitsjbbA_153.png	60.39231085777283	1.1110970973968506
16	28.24031090736389	response	0	j		14.0	/home/egter/Projects/stimuli/pictures/S_yt-EAMpitsjbbA_153.png	61.48242998123169	
17	28.26128888130188	picture	0		130.0	15.0	/home/egter/Projects/stimuli/pictures/R_S_yt-2ftSsLqRQnA_84.png	61.50340795516968	1.094109058380127
17	29.338884830474854	response	0	j		15.0	/home/egter/Projects/stimuli/pictures/R_S_yt-2ftSsLqRQnA_84.png	62.58100390434265	
18	29.355397939682007	picture	0		120.0	16.0	/home/egter/Projects/stimuli/pictures/R_S_video-5.png	62.597517013549805	1.0083260536193848
18	30.347205877304077	response	0	j		16.0	/home/egter/Projects/stimuli/pictures/R_S_video-5.png	63.589324951171875	
19	30.36372399330139	picture	0		201.0	17.0	/home/egter/Projects/stimuli/pictures/n03777568_5257.JPEG	63.60584306716919	1.6752679347991943
19	32.030542850494385	response	0	k		17.0	/home/egter/Projects/stimuli/pictures/n03777568_5257.JPEG	65.27266192436218	
20	32.038991928100586	picture	0		122.0	18.0	/home/egter/Projects/stimuli/pictures/S_yt-yJmHtBFyhH4_15.png	65.28111100196838	1.0208680629730225
20	33.04067277908325	response	0	j		18.0	/home/egter/Projects/stimuli/pictures/S_yt-yJmHtBFyhH4_15.png	66.28279185295105	
21	33.05985999107361	picture	0		172.0	19.0	/home/egter/Projects/stimuli/pictures/n02027492_526.JPEG	66.3019790649414	1.437431812286377
21	34.4888699054718	response	0	k		19.0	/home/egter/Projects/stimuli/pictures/n02027492_526.JPEG	67.7309889793396	
22	34.497291803359985	picture	0		108.0	20.0	/home/egter/Projects/stimuli/pictures/n02279972_1491.JPEG	67.73941087722778	0.9080991744995117
22	35.38887882232666	response	0	k		20.0	/home/egter/Projects/stimuli/pictures/n02279972_1491.JPEG	68.63099789619446	
23	35.4053909778595	picture	0		91.0	21.0	/home/egter/Projects/stimuli/pictures/S_yt-gaCbT4RR9Tw_191.png	68.6475100517273	0.766638994216919
23	36.15551686286926	response	0	j		21.0	/home/egter/Projects/stimuli/pictures/S_yt-gaCbT4RR9Tw_191.png	69.39763593673706	
24	36.172029972076416	picture	0		143.0	22.0	/home/egter/Projects/stimuli/pictures/n04311174_342.JPEG	69.41414904594421	1.1999588012695312
24	37.35546588897705	response	0	k		22.0	/home/egter/Projects/stimuli/pictures/n04311174_342.JPEG	70.59758496284485	
25	37.37198877334595	picture	0		109.0	23.0	/home/egter/Projects/stimuli/pictures/S_nvbAwZOKBS8_23.png	70.61410784721375	0.9167351722717285
25	38.265387773513794	response	0	j		23.0	/home/egter/Projects/stimuli/pictures/S_nvbAwZOKBS8_23.png	71.50750684738159	
26	38.288723945617676	picture	0		127.0	24.0	/home/egter/Projects/stimuli/pictures/R_S_yt-2pRKCSgdXXU_30.png	71.53084301948547	1.0627338886260986
26	39.3388237953186	response	0	j		24.0	/home/egter/Projects/stimuli/pictures/R_S_yt-2pRKCSgdXXU_30.png	72.5809428691864	
27	39.351457834243774	picture	0		122.0	25.0	/home/egter/Projects/stimuli/pictures/S_yt-Lbv4qHp0RO0_14.png	72.59357690811157	1.0138931274414062
27	40.35551881790161	response	0	k		25.0	/home/egter/Projects/stimuli/pictures/S_yt-Lbv4qHp0RO0_14.png	73.59763789176941	
28	40.36535096168518	picture	0		126.0	26.0	/home/egter/Projects/stimuli/pictures/S_yt-dO0OuozAgt0_225.png	73.60747003555298	1.0485219955444336
28	41.405478954315186	response	0	j		26.0	/home/egter/Projects/stimuli/pictures/S_yt-dO0OuozAgt0_225.png	74.64759802818298	
29	41.413872957229614	picture	0		100.0	27.0	/home/egter/Projects/stimuli/pictures/R_S_yt-hQ5pge893b4_6.png	74.65599203109741	0.8414859771728516
29	42.23882699012756	response	0	j		27.0	/home/egter/Projects/stimuli/pictures/R_S_yt-hQ5pge893b4_6.png	75.48094606399536	
30	42.255358934402466	picture	0		139.0	28.0	/home/egter/Projects/stimuli/pictures/S_yt-NJP0Hg8Wj5k_1.png	75.49747800827026	1.1585190296173096
30	43.40548396110535	response	0	k		28.0	/home/egter/Projects/stimuli/pictures/S_yt-NJP0Hg8Wj5k_1.png	76.64760303497314	
31	43.413877964019775	picture	0		106.0	29.0	/home/egter/Projects/stimuli/pictures/S_yt-4RKOPaRF42o_124.png	76.65599703788757	0.8914659023284912
31	44.28900098800659	response	0	j		29.0	/home/egter/Projects/stimuli/pictures/S_yt-4RKOPaRF42o_124.png	77.53112006187439	
32	44.30534386634827	picture	0		107.0	30.0	/home/egter/Projects/stimuli/pictures/S_yt-28ODBE9bVh0_44.png	77.54746294021606	0.9000039100646973
32	45.188782930374146	response	0	j		30.0	/home/egter/Projects/stimuli/pictures/S_yt-28ODBE9bVh0_44.png	78.43090200424194	
33	45.205347776412964	picture	0		103.0	31.0	/home/egter/Projects/stimuli/pictures/R_S_yt-fCjjH_4i8Fg_115.png	78.44746685028076	0.8613622188568115
33	46.048606872558594	response	0	j		31.0	/home/egter/Projects/stimuli/pictures/R_S_yt-fCjjH_4i8Fg_115.png	79.29072594642639	
34	46.066709995269775	picture	0		112.0	32.0	/home/egter/Projects/stimuli/pictures/R_S_yt-3JApfnMu5cU_378.png	79.30882906913757	0.9304800033569336
34	46.98882985115051	response	0	j		32.0	/home/egter/Projects/stimuli/pictures/R_S_yt-3JApfnMu5cU_378.png	80.23094892501831	
35	46.99718999862671	picture	0		105.0	33.0	/home/egter/Projects/stimuli/pictures/R_S_yt-IDpUZ2NWBUY_60.png	80.2393090724945	0.8831517696380615
35	47.85694479942322	response	0	j		33.0	/home/egter/Projects/stimuli/pictures/R_S_yt-IDpUZ2NWBUY_60.png	81.09906387329102	
36	47.88034176826477	picture	0		117.0	34.0	/home/egter/Projects/stimuli/pictures/n02974003_100.JPEG	81.12246084213257	0.9833440780639648
36	48.847097873687744	response	0	k		34.0	/home/egter/Projects/stimuli/pictures/n02974003_100.JPEG	82.08921694755554	
37	48.863685846328735	picture	0		106.0	35.0	/home/egter/Projects/stimuli/pictures/S_yt-JH6qCYAnX-I_70.png	82.10580492019653	0.8916599750518799
37	49.73880887031555	response	0	j		35.0	/home/egter/Projects/stimuli/pictures/S_yt-JH6qCYAnX-I_70.png	82.98092794418335	
38	49.755345821380615	picture	0		115.0	36.0	/home/egter/Projects/stimuli/pictures/ILSVRC2012_test_00099286.JPEG	82.99746489524841	0.9666459560394287
38	50.70563197135925	response	0	k		36.0	/home/egter/Projects/stimuli/pictures/ILSVRC2012_test_00099286.JPEG	83.94775104522705	
39	50.721991777420044	picture	0		121.0	37.0	/home/egter/Projects/stimuli/pictures/R_S_yt-Jro_TRE8NUQ_234.png	83.96411085128784	1.0166831016540527
39	51.72208881378174	response	0	j		37.0	/home/egter/Projects/stimuli/pictures/R_S_yt-Jro_TRE8NUQ_234.png	84.96420788764954	
40	51.7386748790741	picture	0		109.0	38.0	/home/egter/Projects/stimuli/pictures/S_yt-dj0XQUJos38_14.png	84.9807939529419	0.9166529178619385
40	52.63877582550049	response	0	j		38.0	/home/egter/Projects/stimuli/pictures/S_yt-dj0XQUJos38_14.png	85.88089489936829	
41	52.655327796936035	picture	0		141.0	39.0	/home/egter/Projects/stimuli/pictures/R_S_yt-xrWo3lnbshw_80.png	85.89744687080383	1.1833322048187256
41	53.82210898399353	response	0	j		39.0	/home/egter/Projects/stimuli/pictures/R_S_yt-xrWo3lnbshw_80.png	87.06422805786133	
42	53.83866000175476	picture	0		131.0	40.0	/home/egter/Projects/stimuli/pictures/n01729977_9653.JPEG	87.08077907562256	1.0999999046325684
42	54.92213797569275	response	0	k		40.0	/home/egter/Projects/stimuli/pictures/n01729977_9653.JPEG	88.16425704956055	
43	54.93865990638733	picture	0		103.0	41.0	/home/egter/Projects/stimuli/pictures/S_yt-GfPep7IhZIU_47.png	88.18077898025513	0.8640520572662354
43	55.78897190093994	response	0	j		41.0	/home/egter/Projects/stimuli/pictures/S_yt-GfPep7IhZIU_47.png	89.03109097480774	
44	55.802711963653564	picture	0		135.0	42.0	/home/egter/Projects/stimuli/pictures/n04238763_1250.JPEG	89.04483103752136	1.1319599151611328
44	56.9221248626709	response	0	k		42.0	/home/egter/Projects/stimuli/pictures/n04238763_1250.JPEG	90.1642439365387	
45	56.9346718788147	picture	0		100.0	43.0	/home/egter/Projects/stimuli/pictures/S_ILSVRC2015_train_00322000.png	90.1767909526825	0.833327054977417
45	57.75545883178711	response	0	j		43.0	/home/egter/Projects/stimuli/pictures/S_ILSVRC2015_train_00322000.png	90.99757790565491	
46	57.767998933792114	picture	0		135.0	44.0	/home/egter/Projects/stimuli/pictures/n01641577_6980.JPEG	91.01011800765991	1.1249499320983887
46	58.873724937438965	response	0	k		44.0	/home/egter/Projects/stimuli/pictures/n01641577_6980.JPEG	92.11584401130676	
47	58.8929488658905	picture	0		167.0	45.0	/home/egter/Projects/stimuli/pictures/n03394916_61934.JPEG	92.1350679397583	1.3888499736785889
47	60.265320777893066	response	0	k		45.0	/home/egter/Projects/stimuli/pictures/n03394916_61934.JPEG	93.50743985176086	
48	60.28179883956909	picture	0		114.0	46.0	/home/egter/Projects/stimuli/pictures/R_S_yt-nqRBIR8dFYc_328.png	93.52391791343689	0.9568591117858887
48	61.2221097946167	response	0	j		46.0	/home/egter/Projects/stimuli/pictures/R_S_yt-nqRBIR8dFYc_328.png	94.4642288684845	
49	61.23865795135498	picture	0		137.0	47.0	/home/egter/Projects/stimuli/pictures/n03599486_34446.JPEG	94.48077702522278	1.1499669551849365
49	62.3722288608551	response	0	k		47.0	/home/egter/Projects/stimuli/pictures/n03599486_34446.JPEG	95.6143479347229	
50	62.38862490653992	picture	0		146.0	48.0	/home/egter/Projects/stimuli/pictures/R_S_BsNCrwV7d8Q_9.png	95.63074398040771	1.2249929904937744
50	63.59706783294678	response	0	j		48.0	/home/egter/Projects/stimuli/pictures/R_S_BsNCrwV7d8Q_9.png	96.83918690681458	
51	63.61361789703369	picture	0		115.0	49.0	/home/egter/Projects/stimuli/pictures/R_S_ILSVRC2015_train_00165011.png	96.85573697090149	0.9598300457000732
51	64.56370782852173	response	0	j		49.0	/home/egter/Projects/stimuli/pictures/R_S_ILSVRC2015_train_00165011.png	97.80582690238953	
52	64.57344794273376	picture	0		109.0	50.0	/home/egter/Projects/stimuli/pictures/S_production_ID_5119260.png	97.81556701660156	0.9097330570220947
52	65.4651927947998	response	0	j		50.0	/home/egter/Projects/stimuli/pictures/S_production_ID_5119260.png	98.7073118686676	
53	65.48318099975586	picture	0		104.0	51.0	/home/egter/Projects/stimuli/pictures/S_pexels-mikhail-nilov-8410063_1.png	98.72530007362366	0.8750038146972656
53	66.33874678611755	response	0	j		51.0	/home/egter/Projects/stimuli/pictures/S_pexels-mikhail-nilov-8410063_1.png	99.58086585998535	
54	66.35818481445312	picture	0		100.0	52.0	/home/egter/Projects/stimuli/pictures/R_S_JApTAOdfunE_1251.png	99.60030388832092	0.8387620449066162
54	67.18039083480835	response	0	j		52.0	/home/egter/Projects/stimuli/pictures/R_S_JApTAOdfunE_1251.png	100.42250990867615	
55	67.19694685935974	picture	0		112.0	53.0	/home/egter/Projects/stimuli/pictures/n03670208_42576.JPEG	100.43906593322754	0.9416699409484863
55	68.12217998504639	response	0	k		53.0	/home/egter/Projects/stimuli/pictures/n03670208_42576.JPEG	101.36429905891418	
56	68.13861680030823	picture	0		118.0	54.0	/home/egter/Projects/stimuli/pictures/S_flickr-quinn3411-4569727219_1.png	101.38073587417603	0.9916679859161377
56	69.1136999130249	response	0	k		54.0	/home/egter/Projects/stimuli/pictures/S_flickr-quinn3411-4569727219_1.png	102.3558189868927	
57	69.13028478622437	picture	0		164.0	55.0	/home/egter/Projects/stimuli/pictures/n02013706_5328.JPEG	102.37240386009216	1.3667540550231934
57	70.48871397972107	response	0	k		55.0	/home/egter/Projects/stimuli/pictures/n02013706_5328.JPEG	103.73083305358887	
58	70.49703884124756	picture	0		101.0	56.0	/home/egter/Projects/stimuli/pictures/S_yt-2ftSsLqRQnA_84.png	103.73915791511536	0.8498971462249756
58	71.33044791221619	response	0	j		56.0	/home/egter/Projects/stimuli/pictures/S_yt-2ftSsLqRQnA_84.png	104.57256698608398	
59	71.34693598747253	picture	0		108.0	57.0	/home/egter/Projects/stimuli/pictures/n01917289_1184.JPEG	104.58905506134033	0.900040864944458
59	72.23877191543579	response	0	k		57.0	/home/egter/Projects/stimuli/pictures/n01917289_1184.JPEG	105.48089098930359	
60	72.24697685241699	picture	0		102.0	58.0	/home/egter/Projects/stimuli/pictures/S_yt-qE70lj3-A78_228.png	105.48909592628479	0.8542070388793945
60	73.08196783065796	response	0	j		58.0	/home/egter/Projects/stimuli/pictures/S_yt-qE70lj3-A78_228.png	106.32408690452576	
61	73.10118389129639	picture	0		99.0	59.0	/home/egter/Projects/stimuli/pictures/S_yt-Xegmd8whqBs_230.png	106.34330296516418	0.8290688991546631
61	73.91378378868103	response	0	j		59.0	/home/egter/Projects/stimuli/pictures/S_yt-Xegmd8whqBs_230.png	107.15590286254883	
62	73.93025279045105	picture	0		139.0	60.0	/home/egter/Projects/stimuli/pictures/S_yt-ORE2V_VvOpg_67.png	107.17237186431885	1.163940191268921
62	75.07354092597961	response	0	k		60.0	/home/egter/Projects/stimuli/pictures/S_yt-ORE2V_VvOpg_67.png	108.31565999984741	
63	75.09419298171997	picture	0		109.0	61.0	/home/egter/Projects/stimuli/pictures/R_S_yt-EBuE7GbFw7U_180.png	108.33631205558777	0.9166619777679443
63	75.99708795547485	response	0	j		61.0	/home/egter/Projects/stimuli/pictures/R_S_yt-EBuE7GbFw7U_180.png	109.23920702934265	
64	76.01085495948792	picture	0		179.0	62.0	/home/egter/Projects/stimuli/pictures/n02815834_676.JPEG	109.25297403335571	1.5027048587799072
64	77.49020481109619	response	0	k		62.0	/home/egter/Projects/stimuli/pictures/n02815834_676.JPEG	110.73232388496399	
65	77.51355981826782	picture	0		115.0	63.0	/home/egter/Projects/stimuli/pictures/n04252225_5024.JPEG	110.75567889213562	0.962562084197998
65	78.4568338394165	response	0	k		63.0	/home/egter/Projects/stimuli/pictures/n04252225_5024.JPEG	111.6989529132843	
66	78.47612190246582	picture	0		110.0	64.0	/home/egter/Projects/stimuli/pictures/R_S_production_ID_4765899.png	111.71824097633362	0.9207680225372314
66	79.38033986091614	response	0	j		64.0	/home/egter/Projects/stimuli/pictures/R_S_production_ID_4765899.png	112.62245893478394	
67	79.39688992500305	picture	0		107.0	65.0	/home/egter/Projects/stimuli/pictures/S_yt-YlA-FPDylDE_100.png	112.63900899887085	0.8999829292297363
67	80.27347779273987	response	0	j		65.0	/home/egter/Projects/stimuli/pictures/S_yt-YlA-FPDylDE_100.png	113.51559686660767	
68	80.29687285423279	picture	0		115.0	66.0	/home/egter/Projects/stimuli/pictures/n02138441_7328.JPEG	113.53899192810059	0.9639339447021484
68	81.247065782547	response	0	k		66.0	/home/egter/Projects/stimuli/pictures/n02138441_7328.JPEG	114.4891848564148	
69	81.26080679893494	picture	0		286.0	67.0	/home/egter/Projects/stimuli/pictures/S_yt-9pUeQix6EW8_7.png	114.50292587280273	2.3943841457366943
69	83.6386468410492	response	0	j		67.0	/home/egter/Projects/stimuli/pictures/S_yt-9pUeQix6EW8_7.png	116.88076591491699	
70	83.65519094467163	picture	0		136.0	68.0	/home/egter/Projects/stimuli/pictures/R_S_yt-tneuR3EtSZE_72.png	116.89731001853943	1.1416599750518799
70	84.78027582168579	response	0	j		68.0	/home/egter/Projects/stimuli/pictures/R_S_yt-tneuR3EtSZE_72.png	118.02239489555359	
71	84.79685091972351	picture	0		104.0	69.0	/home/egter/Projects/stimuli/pictures/S_pexels-tima-miroshnichenko-5717005.png	118.03896999359131	0.8666610717773438
71	85.65521788597107	response	0	j		69.0	/home/egter/Projects/stimuli/pictures/S_pexels-tima-miroshnichenko-5717005.png	118.89733695983887	
72	85.66351199150085	picture	0		103.0	70.0	/home/egter/Projects/stimuli/pictures/R_S_yt-2IN85w8ptmM_51.png	118.90563106536865	0.8610877990722656
72	86.51362085342407	response	0	j		70.0	/home/egter/Projects/stimuli/pictures/R_S_yt-2IN85w8ptmM_51.png	119.75573992729187	
73	86.52459979057312	picture	0		117.0	71.0	/home/egter/Projects/stimuli/pictures/n01855672_5132.JPEG	119.76671886444092	0.9805281162261963
73	87.48175191879272	response	0	k		71.0	/home/egter/Projects/stimuli/pictures/n01855672_5132.JPEG	120.72387099266052	
74	87.50512790679932	picture	0		134.0	72.0	/home/egter/Projects/stimuli/pictures/n01798484_6755.JPEG	120.74724698066711	1.1250429153442383
74	88.61361598968506	response	0	k		72.0	/home/egter/Projects/stimuli/pictures/n01798484_6755.JPEG	121.85573506355286	
75	88.63017082214355	picture	0		116.0	73.0	/home/egter/Projects/stimuli/pictures/S_I004_C014_SDR_2K_AVC.png	121.87228989601135	0.9708020687103271
75	89.5886218547821	response	0	j		73.0	/home/egter/Projects/stimuli/pictures/S_I004_C014_SDR_2K_AVC.png	122.8307409286499	
76	89.60097289085388	picture	0		111.0	74.0	/home/egter/Projects/stimuli/pictures/S_yt-wjBwgccZM5k_150.png	122.84309196472168	0.9236009120941162
76	90.51356887817383	response	0	j		74.0	/home/egter/Projects/stimuli/pictures/S_yt-wjBwgccZM5k_150.png	123.75568795204163	
77	90.524573802948	picture	0		114.0	75.0	/home/egter/Projects/stimuli/pictures/S_yt-yyIimWrvRyI_246.png	123.7666928768158	0.9513790607452393
77	91.4636127948761	response	0	j		75.0	/home/egter/Projects/stimuli/pictures/S_yt-yyIimWrvRyI_246.png	124.7057318687439	
78	91.47595286369324	picture	0		111.0	76.0	/home/egter/Projects/stimuli/pictures/R_S_yt-c6kLumgTX54_7.png	124.71807193756104	0.9235999584197998
78	92.38862085342407	response	0	j		76.0	/home/egter/Projects/stimuli/pictures/R_S_yt-c6kLumgTX54_7.png	125.63073992729187	
79	92.39955282211304	picture	0		100.0	77.0	/home/egter/Projects/stimuli/pictures/S_yt-JTBXPfbkjsA_11.png	125.64167189598083	0.8389790058135986
79	93.22195482254028	response	0	j		77.0	/home/egter/Projects/stimuli/pictures/S_yt-JTBXPfbkjsA_11.png	126.46407389640808	
80	93.23853182792664	picture	0		108.0	78.0	/home/egter/Projects/stimuli/pictures/n02106662_50778.JPEG	126.48065090179443	0.9041240215301514
80	94.13031578063965	response	0	k		78.0	/home/egter/Projects/stimuli/pictures/n02106662_50778.JPEG	127.37243485450745	
81	94.14265584945679	picture	0		108.0	79.0	/home/egter/Projects/stimuli/pictures/R_S_yt-Uv0dt_-fWJU_40.png	127.38477492332458	0.8958251476287842
81	95.03027391433716	response	0	j		79.0	/home/egter/Projects/stimuli/pictures/R_S_yt-Uv0dt_-fWJU_40.png	128.27239298820496	
82	95.03848099708557	picture	0		111.0	80.0	/home/egter/Projects/stimuli/pictures/n02115913_2800.JPEG	128.28060007095337	0.930534839630127
82	95.95525479316711	response	0	k		80.0	/home/egter/Projects/stimuli/pictures/n02115913_2800.JPEG	129.1973738670349	
83	95.9690158367157	picture	0		117.0	81.0	/home/egter/Projects/stimuli/pictures/n03481172_1457.JPEG	129.2111349105835	0.9861330986022949
83	96.93860387802124	response	0	k		81.0	/home/egter/Projects/stimuli/pictures/n03481172_1457.JPEG	130.18072295188904	
84	96.955148935318	picture	0		109.0	82.0	/home/egter/Projects/stimuli/pictures/n04285008_6214.JPEG	130.1972680091858	0.9166629314422607
84	97.85529088973999	response	0	k		82.0	/home/egter/Projects/stimuli/pictures/n04285008_6214.JPEG	131.0974099636078	
85	97.87181186676025	picture	0		116.0	83.0	/home/egter/Projects/stimuli/pictures/S_yt-bl9EuWKeVmY_6.png	131.11393094062805	1.0333609580993652
85	98.83029580116272	response	0	k		83.0	/home/egter/Projects/stimuli/pictures/S_yt-bl9EuWKeVmY_6.png	132.07241487503052	
86	98.90517282485962	picture	0		97.0	84.0	/home/egter/Projects/stimuli/pictures/R_S_yt-9pUeQix6EW8_7.png	132.14729189872742	0.8166429996490479
86	99.70525979995728	response	0	j		84.0	/home/egter/Projects/stimuli/pictures/R_S_yt-9pUeQix6EW8_7.png	132.94737887382507	
87	99.72181582450867	picture	0		94.0	85.0	/home/egter/Projects/stimuli/pictures/S_yt-5hgLXyLw82w_23.png	132.96393489837646	0.7916829586029053
87	100.49012279510498	response	0	j		85.0	/home/egter/Projects/stimuli/pictures/S_yt-5hgLXyLw82w_23.png	133.73224186897278	
88	100.51349878311157	picture	0		96.0	86.0	/home/egter/Projects/stimuli/pictures/n03661043_4640.JPEG	133.75561785697937	0.8083040714263916
88	101.2985029220581	response	0	k		86.0	/home/egter/Projects/stimuli/pictures/n03661043_4640.JPEG	134.5406219959259	
89	101.32180285453796	picture	0		102.0	87.0	/home/egter/Projects/stimuli/pictures/n04487081_38338.JPEG	134.56392192840576	0.858428955078125
89	102.16359186172485	response	0	k		87.0	/home/egter/Projects/stimuli/pictures/n04487081_38338.JPEG	135.40571093559265	
90	102.18023180961609	picture	0		88.0	88.0	/home/egter/Projects/stimuli/pictures/S_pexels-anastasia-shuraeva-601407_2.png	135.4223508834839	0.7415871620178223
90	102.90525484085083	response	0	j		88.0	/home/egter/Projects/stimuli/pictures/S_pexels-anastasia-shuraeva-601407_2.png	136.14737391471863	
91	102.92181897163391	picture	0		78.0	89.0	/home/egter/Projects/stimuli/pictures/R_S_yt-MUfa26F8dfE_97.png	136.1639380455017	0.6512629985809326
91	103.56356382369995	response	0	j		89.0	/home/egter/Projects/stimuli/pictures/R_S_yt-MUfa26F8dfE_97.png	136.80568289756775	
92	103.57308197021484	picture	0		86.0	90.0	/home/egter/Projects/stimuli/pictures/R_S_yt-khmJAQuCRRE_119.png	136.81520104408264	0.7153818607330322
92	104.27340483665466	response	0	j		90.0	/home/egter/Projects/stimuli/pictures/R_S_yt-khmJAQuCRRE_119.png	137.51552391052246	
93	104.28846383094788	picture	0		72.0	91.0	/home/egter/Projects/stimuli/pictures/S_yt-IDpUZ2NWBUY_60.png	137.53058290481567	0.604058027267456
93	104.87444591522217	response	0	j		91.0	/home/egter/Projects/stimuli/pictures/S_yt-IDpUZ2NWBUY_60.png	138.11656498908997	
94	104.89252185821533	picture	0		104.0	92.0	/home/egter/Projects/stimuli/pictures/n03992509_14076.JPEG	138.13464093208313	0.870927095413208
94	105.74696493148804	response	0	k		92.0	/home/egter/Projects/stimuli/pictures/n03992509_14076.JPEG	138.98908400535583	
95	105.76344895362854	picture	0		106.0	93.0	/home/egter/Projects/stimuli/pictures/S_yt-pGtq_Y0PUAw_28.png	139.00556802749634	0.8859448432922363
95	106.63854479789734	response	0	k		93.0	/home/egter/Projects/stimuli/pictures/S_yt-pGtq_Y0PUAw_28.png	139.88066387176514	
96	106.64939379692078	picture	0		128.0	94.0	/home/egter/Projects/stimuli/pictures/n01740131_2939.JPEG	139.89151287078857	1.072329044342041
96	107.7051568031311	response	0	k		94.0	/home/egter/Projects/stimuli/pictures/n01740131_2939.JPEG	140.9472758769989	
97	107.72172284126282	picture	0		83.0	95.0	/home/egter/Projects/stimuli/pictures/n03180011_5684.JPEG	140.96384191513062	0.700031042098999
97	108.40517997741699	response	0	k		95.0	/home/egter/Projects/stimuli/pictures/n03180011_5684.JPEG	141.6472990512848	
98	108.42175388336182	picture	0		91.0	96.0	/home/egter/Projects/stimuli/pictures/n04335435_21811.JPEG	141.66387295722961	0.7666780948638916
98	109.1718578338623	response	0	k		96.0	/home/egter/Projects/stimuli/pictures/n04335435_21811.JPEG	142.4139769077301	
99	109.18843197822571	picture	0		103.0	97.0	/home/egter/Projects/stimuli/pictures/R_S_yt-2IxVZeiSv3g_28.png	142.4305510520935	0.8666789531707764
99	110.03852391242981	response	0	j		97.0	/home/egter/Projects/stimuli/pictures/R_S_yt-2IxVZeiSv3g_28.png	143.2806429862976	
100	110.05511093139648	picture	0		161.0	98.0	/home/egter/Projects/stimuli/pictures/n02133161_6861.JPEG	143.29723000526428	1.3443169593811035
100	111.38853979110718	response	0	k		98.0	/home/egter/Projects/stimuli/pictures/n02133161_6861.JPEG	144.63065886497498	
101	111.39942789077759	picture	0		129.0	99.0	/home/egter/Projects/stimuli/pictures/n02871525_7061.JPEG	144.64154696464539	1.0764009952545166
101	112.46357488632202	response	0	k		99.0	/home/egter/Projects/stimuli/pictures/n02871525_7061.JPEG	145.70569396018982	
102	112.4758288860321	picture	0		95.0	100.0	/home/egter/Projects/stimuli/pictures/ILSVRC2012_test_00095343.JPEG	145.7179479598999	0.7985320091247559
102	113.25513577461243	response	0	k		100.0	/home/egter/Projects/stimuli/pictures/ILSVRC2012_test_00095343.JPEG	146.49725484848022	
103	113.27436089515686	picture	0		94.0	101.0	/home/egter/Projects/stimuli/pictures/R_S_yt-aSEKRE_FNaI_62.png	146.51647996902466	0.7890019416809082
103	114.04687595367432	response	0	j		101.0	/home/egter/Projects/stimuli/pictures/R_S_yt-aSEKRE_FNaI_62.png	147.28899502754211	
104	114.06336283683777	picture	0		105.0	102.0	/home/egter/Projects/stimuli/pictures/n03930630_19425.JPEG	147.30548191070557	0.8833520412445068
104	114.93016290664673	response	0	k		102.0	/home/egter/Projects/stimuli/pictures/n03930630_19425.JPEG	148.17228198051453	
105	114.94671487808228	picture	0		115.0	103.0	/home/egter/Projects/stimuli/pictures/n03372029_7977.JPEG	148.18883395195007	0.9595789909362793
105	115.8899998664856	response	0	k		103.0	/home/egter/Projects/stimuli/pictures/n03372029_7977.JPEG	149.1321189403534	
106	115.90629386901855	picture	0		96.0	104.0	/home/egter/Projects/stimuli/pictures/R_S_yt-xgqx7tH92-c_6.png	149.14841294288635	0.7987029552459717
106	116.69005393981934	response	0	j		104.0	/home/egter/Projects/stimuli/pictures/R_S_yt-xgqx7tH92-c_6.png	149.93217301368713	
107	116.70499682426453	picture	0		104.0	105.0	/home/egter/Projects/stimuli/pictures/n01630670_4369.JPEG	149.94711589813232	0.8750410079956055
107	117.56344795227051	response	0	k		105.0	/home/egter/Projects/stimuli/pictures/n01630670_4369.JPEG	150.8055670261383	
108	117.58003783226013	picture	0		111.0	106.0	/home/egter/Projects/stimuli/pictures/R_S_yt-gzjV6YoK6X0_3.png	150.82215690612793	0.9333181381225586
108	118.48994088172913	response	0	j		106.0	/home/egter/Projects/stimuli/pictures/R_S_yt-gzjV6YoK6X0_3.png	151.73205995559692	
109	118.51335597038269	picture	0		103.0	107.0	/home/egter/Projects/stimuli/pictures/n01687978_8543.JPEG	151.7554750442505	0.866635799407959
109	119.36343097686768	response	0	k		107.0	/home/egter/Projects/stimuli/pictures/n01687978_8543.JPEG	152.60555005073547	
110	119.37999176979065	picture	0		111.0	108.0	/home/egter/Projects/stimuli/pictures/S_yt-ZwnliF0525U_95.png	152.62211084365845	0.9290440082550049
110	120.28992795944214	response	0	j		108.0	/home/egter/Projects/stimuli/pictures/S_yt-ZwnliF0525U_95.png	153.53204703330994	
111	120.30903577804565	picture	0		97.0	109.0	/home/egter/Projects/stimuli/pictures/S_yt-mQESmS4uqRU_208.png	153.55115485191345	0.8055570125579834
111	121.09829378128052	response	0	j		109.0	/home/egter/Projects/stimuli/pictures/S_yt-mQESmS4uqRU_208.png	154.34041285514832	
112	121.11459279060364	picture	0		94.0	110.0	/home/egter/Projects/stimuli/pictures/n01860187_1011.JPEG	154.35671186447144	0.7847380638122559
112	121.88161277770996	response	0	k		110.0	/home/egter/Projects/stimuli/pictures/n01860187_1011.JPEG	155.12373185157776	
113	121.8993308544159	picture	0		108.0	111.0	/home/egter/Projects/stimuli/pictures/n04493381_840.JPEG	155.1414499282837	0.9056761264801025
113	122.78847885131836	response	0	k		111.0	/home/egter/Projects/stimuli/pictures/n04493381_840.JPEG	156.03059792518616	
114	122.805006980896	picture	0		224.0	112.0	/home/egter/Projects/stimuli/pictures/R_S_Y004_C015_SDR_2K_AVC.png	156.0471260547638	1.8749828338623047
114	124.6634669303894	response	0	k		112.0	/home/egter/Projects/stimuli/pictures/R_S_Y004_C015_SDR_2K_AVC.png	157.9055860042572	
115	124.6799898147583	picture	0		105.0	113.0	/home/egter/Projects/stimuli/pictures/S_Nh81j72Utbs_5.png	157.9221088886261	0.8833341598510742
115	125.54677987098694	response	0	j		113.0	/home/egter/Projects/stimuli/pictures/S_Nh81j72Utbs_5.png	158.78889894485474	
116	125.56332397460938	picture	0		104.0	114.0	/home/egter/Projects/stimuli/pictures/R_S_yt-qazCIJqjxUU_3.png	158.80544304847717	0.8749959468841553
116	126.42177891731262	response	0	j		114.0	/home/egter/Projects/stimuli/pictures/R_S_yt-qazCIJqjxUU_3.png	159.66389799118042	
117	126.43831992149353	picture	0		186.0	115.0	/home/egter/Projects/stimuli/pictures/S_ILSVRC2015_train_00418007.png	159.68043899536133	1.5583529472351074
117	127.9801299571991	response	0	k		115.0	/home/egter/Projects/stimuli/pictures/S_ILSVRC2015_train_00418007.png	161.2222490310669	
118	127.99667286872864	picture	0		92.0	116.0	/home/egter/Projects/stimuli/pictures/n03670208_3414.JPEG	161.23879194259644	0.770625114440918
118	128.75505995750427	response	0	k		116.0	/home/egter/Projects/stimuli/pictures/n03670208_3414.JPEG	161.99717903137207	
119	128.76729798316956	picture	0		110.0	117.0	/home/egter/Projects/stimuli/pictures/n04252225_10323.JPEG	162.00941705703735	0.9210388660430908
119	129.6717028617859	response	0	k		117.0	/home/egter/Projects/stimuli/pictures/n04252225_10323.JPEG	162.9138219356537	
120	129.68833684921265	picture	0		103.0	118.0	/home/egter/Projects/stimuli/pictures/n07760859_12563.JPEG	162.93045592308044	0.86661696434021
120	130.53844594955444	response	0	k		118.0	/home/egter/Projects/stimuli/pictures/n07760859_12563.JPEG	163.78056502342224	
121	130.55495381355286	picture	0		114.0	119.0	/home/egter/Projects/stimuli/pictures/n13133613_15992.JPEG	163.79707288742065	0.9553520679473877
121	131.4899230003357	response	0	k		119.0	/home/egter/Projects/stimuli/pictures/n13133613_15992.JPEG	164.7320420742035	
122	131.51030588150024	picture	0		204.0	120.0	/home/egter/Projects/stimuli/pictures/R_S_yt-RHPOCG1mII0_138.png	164.75242495536804	1.7113409042358398
122	133.2051239013672	response	0	j		120.0	/home/egter/Projects/stimuli/pictures/R_S_yt-RHPOCG1mII0_138.png	166.44724297523499	
123	133.22164678573608	picture	0		170.0	121.0	/home/egter/Projects/stimuli/pictures/n04192698_11944.JPEG	166.46376585960388	1.4249861240386963
123	134.6301589012146	response	0	k		121.0	/home/egter/Projects/stimuli/pictures/n04192698_11944.JPEG	167.8722779750824	
124	134.64663290977478	picture	0		107.0	122.0	/home/egter/Projects/stimuli/pictures/S_yt-OdTWn1U1mO4_68.png	167.88875198364258	0.8983578681945801
124	135.53009486198425	response	0	j		122.0	/home/egter/Projects/stimuli/pictures/S_yt-OdTWn1U1mO4_68.png	168.77221393585205	
125	135.54499077796936	picture	0		123.0	123.0	/home/egter/Projects/stimuli/pictures/n03425413_88.JPEG	168.78710985183716	1.0349910259246826
125	136.5634059906006	response	0	k		123.0	/home/egter/Projects/stimuli/pictures/n03425413_88.JPEG	169.80552506446838	
126	136.57998180389404	picture	0		99.0	124.0	/home/egter/Projects/stimuli/pictures/n02013706_2213.JPEG	169.82210087776184	0.8333120346069336
126	137.39684295654297	response	0	k		124.0	/home/egter/Projects/stimuli/pictures/n02013706_2213.JPEG	170.63896203041077	
127	137.41329383850098	picture	0		100.0	125.0	/home/egter/Projects/stimuli/pictures/n02963159_1038.JPEG	170.65541291236877	0.8416309356689453
127	138.23841381072998	response	0	k		125.0	/home/egter/Projects/stimuli/pictures/n02963159_1038.JPEG	171.48053288459778	
128	138.25492477416992	picture	0		89.0	126.0	/home/egter/Projects/stimuli/pictures/n07875152_931.JPEG	171.49704384803772	0.7583770751953125
128	138.9967439174652	response	0	k		126.0	/home/egter/Projects/stimuli/pictures/n07875152_931.JPEG	172.238862991333	
129	139.01330184936523	picture	0		101.0	127.0	/home/egter/Projects/stimuli/pictures/n03873416_19603.JPEG	172.25542092323303	0.84415602684021
129	139.84673881530762	response	0	k		127.0	/home/egter/Projects/stimuli/pictures/n03873416_19603.JPEG	173.08885788917542	
130	139.85745787620544	picture	0		95.0	128.0	/home/egter/Projects/stimuli/pictures/n03188531_23390.JPEG	173.09957695007324	0.7974638938903809
130	140.6383979320526	response	0	k		128.0	/home/egter/Projects/stimuli/pictures/n03188531_23390.JPEG	173.8805170059204	
131	140.65492177009583	picture	0		93.0	129.0	/home/egter/Projects/stimuli/pictures/S_Y009_C015_SDR_2K_AVC.png	173.89704084396362	0.783372163772583
131	141.42172598838806	response	0	j		129.0	/home/egter/Projects/stimuli/pictures/S_Y009_C015_SDR_2K_AVC.png	174.66384506225586	
132	141.4382939338684	picture	0		100.0	130.0	/home/egter/Projects/stimuli/pictures/R_S_yt-_WFwhcmbXXY_51.png	174.6804130077362	0.8416779041290283
132	142.2634038925171	response	0	j		130.0	/home/egter/Projects/stimuli/pictures/R_S_yt-_WFwhcmbXXY_51.png	175.5055229663849	
133	142.27997183799744	picture	0		126.0	131.0	/home/egter/Projects/stimuli/pictures/S_pexels-anthony-shkraba-7569650.png	175.52209091186523	1.0566511154174805
133	143.31482791900635	response	0	j		131.0	/home/egter/Projects/stimuli/pictures/S_pexels-anthony-shkraba-7569650.png	176.55694699287415	
134	143.33662295341492	picture	0		95.0	132.0	/home/egter/Projects/stimuli/pictures/S_yt-xrWo3lnbshw_80.png	176.57874202728271	0.8016648292541504
134	144.1148829460144	response	0	j		132.0	/home/egter/Projects/stimuli/pictures/S_yt-xrWo3lnbshw_80.png	177.3570020198822	
135	144.13828778266907	picture	0		132.0	133.0	/home/egter/Projects/stimuli/pictures/n03250847_2573.JPEG	177.38040685653687	1.1010911464691162
135	145.2300717830658	response	0	k		133.0	/home/egter/Projects/stimuli/pictures/n03250847_2573.JPEG	178.4721908569336	
136	145.23937892913818	picture	0		157.0	134.0	/home/egter/Projects/stimuli/pictures/S_wc-q23aBNJMZbnZ_27.png	178.48149800300598	1.3124780654907227
136	146.53160977363586	response	0	j		134.0	/home/egter/Projects/stimuli/pictures/S_wc-q23aBNJMZbnZ_27.png	179.77372884750366	
137	146.5518569946289	picture	0		105.0	135.0	/home/egter/Projects/stimuli/pictures/ILSVRC2012_test_00031052.JPEG	179.7939760684967	0.8864259719848633
137	147.42166781425476	response	0	k		135.0	/home/egter/Projects/stimuli/pictures/ILSVRC2012_test_00031052.JPEG	180.66378688812256	
138	147.43828296661377	picture	0		271.0	136.0	/home/egter/Projects/stimuli/pictures/S_Y004_C015_SDR_2K_AVC.png	180.68040204048157	2.26665997505188
138	149.68840885162354	response	0	k		136.0	/home/egter/Projects/stimuli/pictures/S_Y004_C015_SDR_2K_AVC.png	182.93052792549133	
139	149.70494294166565	picture	0		89.0	137.0	/home/egter/Projects/stimuli/pictures/n03095699_3846.JPEG	182.94706201553345	0.7499978542327881
139	150.43838381767273	response	0	k		137.0	/home/egter/Projects/stimuli/pictures/n03095699_3846.JPEG	183.68050289154053	
140	150.45494079589844	picture	0		96.0	138.0	/home/egter/Projects/stimuli/pictures/R_S_pexels-c-technical-6763571.png	183.69705986976624	0.8084290027618408
140	151.24669790267944	response	0	j		138.0	/home/egter/Projects/stimuli/pictures/R_S_pexels-c-technical-6763571.png	184.48881697654724	
141	151.26336979866028	picture	0		162.0	139.0	/home/egter/Projects/stimuli/pictures/S_yt-zKnjBBYWe90_369.png	184.50548887252808	1.3582160472869873
141	152.6050238609314	response	0	j		139.0	/home/egter/Projects/stimuli/pictures/S_yt-zKnjBBYWe90_369.png	185.8471429347992	
142	152.62158584594727	picture	0		89.0	140.0	/home/egter/Projects/stimuli/pictures/n02981792_21687.JPEG	185.86370491981506	0.7500150203704834
142	153.35501098632812	response	0	k		140.0	/home/egter/Projects/stimuli/pictures/n02981792_21687.JPEG	186.59713006019592	
143	153.37160086631775	picture	0		94.0	141.0	/home/egter/Projects/stimuli/pictures/n03290653_11575.JPEG	186.61371994018555	0.7916700839996338
143	154.14668679237366	response	0	k		141.0	/home/egter/Projects/stimuli/pictures/n03290653_11575.JPEG	187.38880586624146	
144	154.16327095031738	picture	0		112.0	142.0	/home/egter/Projects/stimuli/pictures/n04243546_7928.JPEG	187.40539002418518	0.9415929317474365
144	155.0883059501648	response	0	k		142.0	/home/egter/Projects/stimuli/pictures/n04243546_7928.JPEG	188.3304250240326	
145	155.10486388206482	picture	0		92.0	143.0	/home/egter/Projects/stimuli/pictures/S_ILSVRC2015_train_00595000.png	188.34698295593262	0.7749810218811035
145	155.86332297325134	response	0	j		143.0	/home/egter/Projects/stimuli/pictures/S_ILSVRC2015_train_00595000.png	189.10544204711914	
146	155.87984490394592	picture	0		96.0	144.0	/home/egter/Projects/stimuli/pictures/R_S_yt-7bSTxOajpjc_58.png	189.12196397781372	0.8083748817443848
146	156.6716148853302	response	0	j		144.0	/home/egter/Projects/stimuli/pictures/R_S_yt-7bSTxOajpjc_58.png	189.913733959198	
147	156.6882197856903	picture	0		102.0	145.0	/home/egter/Projects/stimuli/pictures/n01514859_12644.JPEG	189.9303388595581	0.8584001064300537
147	157.53002882003784	response	0	k		145.0	/home/egter/Projects/stimuli/pictures/n01514859_12644.JPEG	190.77214789390564	
148	157.54661989212036	picture	0		115.0	146.0	/home/egter/Projects/stimuli/pictures/n02687172_14814.JPEG	190.78873896598816	0.9665460586547852
148	158.48984599113464	response	0	k		146.0	/home/egter/Projects/stimuli/pictures/n02687172_14814.JPEG	191.73196506500244	
149	158.51316595077515	picture	0		105.0	147.0	/home/egter/Projects/stimuli/pictures/R_S_yt-gaXgXGEanCk_140.png	191.75528502464294	0.8833458423614502
149	159.37999081611633	response	0	j		147.0	/home/egter/Projects/stimuli/pictures/R_S_yt-gaXgXGEanCk_140.png	192.62210988998413	
150	159.3965117931366	picture	0		100.0	148.0	/home/egter/Projects/stimuli/pictures/S_ILSVRC2015_train_00469000.png	192.6386308670044	0.8500461578369141
150	160.2216558456421	response	0	j		148.0	/home/egter/Projects/stimuli/pictures/S_ILSVRC2015_train_00469000.png	193.4637749195099	
151	160.2465579509735	picture	0		88.0	149.0	/home/egter/Projects/stimuli/pictures/n03781244_819.JPEG	193.4886770248413	0.7417960166931152
151	160.97172689437866	response	0	k		149.0	/home/egter/Projects/stimuli/pictures/n03781244_819.JPEG	194.21384596824646	
152	160.98835396766663	picture	0		117.0	150.0	/home/egter/Projects/stimuli/pictures/R_S_ILSVRC2015_train_00762000.png	194.23047304153442	0.9832010269165039
152	161.95502877235413	response	0	j		150.0	/home/egter/Projects/stimuli/pictures/R_S_ILSVRC2015_train_00762000.png	195.19714784622192	
153	161.97155499458313	picture	0		116.0	151.0	/home/egter/Projects/stimuli/pictures/n02009229_2146.JPEG	195.21367406845093	0.9749939441680908
153	162.92314982414246	response	0	k		151.0	/home/egter/Projects/stimuli/pictures/n02009229_2146.JPEG	196.16526889801025	
154	162.94654893875122	picture	0		336.0	152.0	/home/egter/Projects/stimuli/pictures/R_S_S005_C015_SDR_2K_AVC.png	196.18866801261902	2.806541919708252
154	165.73829579353333	response	0	j		152.0	/home/egter/Projects/stimuli/pictures/R_S_S005_C015_SDR_2K_AVC.png	198.98041486740112	
155	165.75309085845947	picture	0		118.0	153.0	/home/egter/Projects/stimuli/pictures/n02487347_1261.JPEG	198.99520993232727	0.9934310913085938
155	166.72316694259644	response	0	k		153.0	/home/egter/Projects/stimuli/pictures/n02487347_1261.JPEG	199.96528601646423	
156	166.74652194976807	picture	0		95.0	154.0	/home/egter/Projects/stimuli/pictures/n01629819_111.JPEG	199.98864102363586	0.8000168800354004
156	167.52312994003296	response	0	k		154.0	/home/egter/Projects/stimuli/pictures/n01629819_111.JPEG	200.76524901390076	
157	167.54653882980347	picture	0		130.0	155.0	/home/egter/Projects/stimuli/pictures/R_S_yt-Q5wYs9vSzlA_30.png	200.78865790367126	1.0916509628295898
157	168.62165188789368	response	0	j		155.0	/home/egter/Projects/stimuli/pictures/R_S_yt-Q5wYs9vSzlA_30.png	201.86377096176147	
158	168.63818979263306	picture	0		103.0	156.0	/home/egter/Projects/stimuli/pictures/n01737021_15317.JPEG	201.88030886650085	0.8666660785675049
158	169.4883008003235	response	0	k		156.0	/home/egter/Projects/stimuli/pictures/n01737021_15317.JPEG	202.73041987419128	
159	169.50485587120056	picture	0		92.0	157.0	/home/egter/Projects/stimuli/pictures/S_yt-cokedWwwYYs_136.png	202.74697494506836	0.7749879360198975
159	170.26327896118164	response	0	j		157.0	/home/egter/Projects/stimuli/pictures/S_yt-cokedWwwYYs_136.png	203.50539803504944	
160	170.27984380722046	picture	0		108.0	158.0	/home/egter/Projects/stimuli/pictures/n04081281_22953.JPEG	203.52196288108826	0.9083290100097656
160	171.17163395881653	response	0	k		158.0	/home/egter/Projects/stimuli/pictures/n04081281_22953.JPEG	204.41375303268433	
161	171.18817281723022	picture	0		117.0	159.0	/home/egter/Projects/stimuli/pictures/n02514041_6107.JPEG	204.43029189109802	0.9833500385284424
161	172.15500283241272	response	0	k		159.0	/home/egter/Projects/stimuli/pictures/n02514041_6107.JPEG	205.39712190628052	
162	172.17152285575867	picture	0		100.0	160.0	/home/egter/Projects/stimuli/pictures/n03393912_2503.JPEG	205.41364192962646	0.8416719436645508
162	172.99664282798767	response	0	k		160.0	/home/egter/Projects/stimuli/pictures/n03393912_2503.JPEG	206.23876190185547	
163	173.01319479942322	picture	0		96.0	161.0	/home/egter/Projects/stimuli/pictures/n02123159_3996.JPEG	206.25531387329102	0.8082940578460693
163	173.8049488067627	response	0	k		161.0	/home/egter/Projects/stimuli/pictures/n02123159_3996.JPEG	207.0470678806305	
164	173.8214888572693	picture	0		157.0	162.0	/home/egter/Projects/stimuli/pictures/n01692333_6133.JPEG	207.06360793113708	1.3166899681091309
164	175.11479377746582	response	0	k		162.0	/home/egter/Projects/stimuli/pictures/n01692333_6133.JPEG	208.35691285133362	
165	175.13817882537842	picture	0		88.0	163.0	/home/egter/Projects/stimuli/pictures/R_S_yt-qBPDvSQD0XY_5.png	208.38029789924622	0.7416391372680664
165	175.8633108139038	response	0	j		163.0	/home/egter/Projects/stimuli/pictures/R_S_yt-qBPDvSQD0XY_5.png	209.1054298877716	
166	175.87981796264648	picture	0		103.0	164.0	/home/egter/Projects/stimuli/pictures/n02116738_14071.JPEG	209.12193703651428	0.8666749000549316
166	176.723326921463	response	0	k		164.0	/home/egter/Projects/stimuli/pictures/n02116738_14071.JPEG	209.9654459953308	
167	176.74649286270142	picture	0		127.0	165.0	/home/egter/Projects/stimuli/pictures/R_S_ILSVRC2015_train_00469000.png	209.9886119365692	1.0666661262512207
167	177.79660177230835	response	0	j		165.0	/home/egter/Projects/stimuli/pictures/R_S_ILSVRC2015_train_00469000.png	211.03872084617615	
168	177.81315898895264	picture	0		129.0	166.0	/home/egter/Projects/stimuli/pictures/S_yt-1ruRqcfBMw0_21.png	211.05527806282043	1.083326816558838
168	178.8799409866333	response	0	j		166.0	/home/egter/Projects/stimuli/pictures/S_yt-1ruRqcfBMw0_21.png	212.1220600605011	
169	178.89648580551147	picture	0		97.0	167.0	/home/egter/Projects/stimuli/pictures/R_S_comp_C004_C003_PS_v01_SDR_PS_20180925_SDR_2K_AVC.png	212.13860487937927	0.8148031234741211
169	179.6966187953949	response	0	j		167.0	/home/egter/Projects/stimuli/pictures/R_S_comp_C004_C003_PS_v01_SDR_PS_20180925_SDR_2K_AVC.png	212.9387378692627	
170	179.7112889289856	picture	0		336.0	168.0	/home/egter/Projects/stimuli/pictures/n09193705_1244.JPEG	212.9534080028534	2.810152053833008
170	182.50492477416992	response	0	k		168.0	/home/egter/Projects/stimuli/pictures/n09193705_1244.JPEG	215.74704384803772	
171	182.5214409828186	picture	0		135.0	169.0	/home/egter/Projects/stimuli/pictures/n01978455_12022.JPEG	215.7635600566864	1.1333630084991455
171	183.63827300071716	response	0	k		169.0	/home/egter/Projects/stimuli/pictures/n01978455_12022.JPEG	216.88039207458496	
172	183.65480399131775	picture	0		132.0	170.0	/home/egter/Projects/stimuli/pictures/n02091134_6007.JPEG	216.89692306518555	1.1050519943237305
172	184.74658298492432	response	0	k		170.0	/home/egter/Projects/stimuli/pictures/n02091134_6007.JPEG	217.98870205879211	
173	184.75985598564148	picture	0		305.0	171.0	/home/egter/Projects/stimuli/pictures/S_yt-5rIpe3xc5rQ_18.png	218.00197505950928	2.5532538890838623
173	187.2965488433838	response	0	j		171.0	/home/egter/Projects/stimuli/pictures/S_yt-5rIpe3xc5rQ_18.png	220.5386679172516	
174	187.31310987472534	picture	0		262.0	172.0	/home/egter/Projects/stimuli/pictures/R_S_yt-FzMLLmcD1mE_19.png	220.55522894859314	2.1916909217834473
174	189.48823285102844	response	0	j		172.0	/home/egter/Projects/stimuli/pictures/R_S_yt-FzMLLmcD1mE_19.png	222.73035192489624	
175	189.5048007965088	picture	0		241.0	173.0	/home/egter/Projects/stimuli/pictures/n01630670_121.JPEG	222.7469198703766	2.0166170597076416
175	191.50493097305298	response	0	k		173.0	/home/egter/Projects/stimuli/pictures/n01630670_121.JPEG	224.74705004692078	
176	191.52141785621643	picture	0		107.0	174.0	/home/egter/Projects/stimuli/pictures/n01692333_9591.JPEG	224.76353693008423	0.9000339508056641
176	192.40491795539856	response	0	k		174.0	/home/egter/Projects/stimuli/pictures/n01692333_9591.JPEG	225.64703702926636	
177	192.4214518070221	picture	0		66.0	175.0	/home/egter/Projects/stimuli/pictures/n01491361_6127.JPEG	225.6635708808899	0.5583460330963135
177	192.9632008075714	response	0	k		175.0	/home/egter/Projects/stimuli/pictures/n01491361_6127.JPEG	226.2053198814392	
178	192.9797978401184	picture	0		92.0	176.0	/home/egter/Projects/stimuli/pictures/n01632777_8799.JPEG	226.2219169139862	0.7749810218811035
178	193.73905086517334	response	0	k		176.0	/home/egter/Projects/stimuli/pictures/n01632777_8799.JPEG	226.98116993904114	
179	193.7547788619995	picture	0		162.0	177.0	/home/egter/Projects/stimuli/pictures/R_S_yt-qE70lj3-A78_228.png	226.9968979358673	1.3583400249481201
179	195.0965588092804	response	0	j		177.0	/home/egter/Projects/stimuli/pictures/R_S_yt-qE70lj3-A78_228.png	228.3386778831482	
180	195.11311888694763	picture	0		90.0	178.0	/home/egter/Projects/stimuli/pictures/R_S_yt-yJmHtBFyhH4_15.png	228.35523796081543	0.7583999633789062
180	195.85495686531067	response	0	j		178.0	/home/egter/Projects/stimuli/pictures/R_S_yt-yJmHtBFyhH4_15.png	229.09707593917847	
181	195.87151885032654	picture	0		116.0	179.0	/home/egter/Projects/stimuli/pictures/S_yt-Gokv9ZtV6zo_70.png	229.11363792419434	0.9716010093688965
181	196.82985186576843	response	0	j		179.0	/home/egter/Projects/stimuli/pictures/S_yt-Gokv9ZtV6zo_70.png	230.07197093963623	
182	196.84311985969543	stim	0		298.0			230.08523893356323	2.4866111278533936
182	199.32150387763977	response	0	space				232.56362295150757	
