trial_nr	onset	event_type	phase	response	nr_frames	picture_index	picture_file	onset_abs	duration
0	0.016716957092285156	stim	0		1299.0			32.322699785232544	10.84012222290039
0	10.83913516998291	response	0	space				43.14511799812317	
2	10.856839179992676	picture	0		600.0	0.0	/home/egter/Projects/stimuli/pictures/n02441942_13273.JPEG	43.162822008132935	5.006992816925049
2	15.840497016906738	response	0	k		0.0	/home/egter/Projects/stimuli/pictures/n02441942_13273.JPEG	48.146479845047	
3	15.863831996917725	picture	0		131.0	1.0	/home/egter/Projects/stimuli/pictures/n02791124_2614.JPEG	48.16981482505798	1.097114086151123
3	16.94734811782837	response	0	k		1.0	/home/egter/Projects/stimuli/pictures/n02791124_2614.JPEG	49.25333094596863	
4	16.960946083068848	picture	0		83.0	2.0	/home/egter/Projects/stimuli/pictures/S_pexels-anastasia-shuraeva-601407_2.png	49.266928911209106	0.6945998668670654
4	17.64046001434326	response	0	j		2.0	/home/egter/Projects/stimuli/pictures/S_pexels-anastasia-shuraeva-601407_2.png	49.94644284248352	
5	17.655545949935913	picture	0		93.0	3.0	/home/egter/Projects/stimuli/pictures/n04141327_4278.JPEG	49.96152877807617	0.7775712013244629
5	18.422335147857666	response	0	k		3.0	/home/egter/Projects/stimuli/pictures/n04141327_4278.JPEG	50.728317975997925	
6	18.433117151260376	picture	0		151.0	4.0	/home/egter/Projects/stimuli/pictures/S_ILSVRC2015_train_00001012.png	50.739099979400635	1.2569689750671387
6	19.68067717552185	response	0	k		4.0	/home/egter/Projects/stimuli/pictures/S_ILSVRC2015_train_00001012.png	51.98666000366211	
7	19.690086126327515	picture	0		111.0	5.0	/home/egter/Projects/stimuli/pictures/n02090721_2952.JPEG	51.99606895446777	0.9237699508666992
7	20.60568118095398	response	0	k		5.0	/home/egter/Projects/stimuli/pictures/n02090721_2952.JPEG	52.91166400909424	
8	20.613856077194214	picture	0		143.0	6.0	/home/egter/Projects/stimuli/pictures/R_S_yt-mdLT282PVbE_6.png	52.91983890533447	1.194230079650879
8	21.797335147857666	response	0	j		6.0	/home/egter/Projects/stimuli/pictures/R_S_yt-mdLT282PVbE_6.png	54.103317975997925	
9	21.808086156845093	picture	0		116.0	7.0	/home/egter/Projects/stimuli/pictures/S_yt-J4Ci5b3z4fo_4.png	54.11406898498535	0.9653279781341553
9	22.76398801803589	response	0	k		7.0	/home/egter/Projects/stimuli/pictures/S_yt-J4Ci5b3z4fo_4.png	55.06997084617615	
10	22.773414134979248	picture	0		106.0	8.0	/home/egter/Projects/stimuli/pictures/n02484975_6984.JPEG	55.07939696311951	0.8820910453796387
10	23.64040994644165	response	0	k		8.0	/home/egter/Projects/stimuli/pictures/n02484975_6984.JPEG	55.94639277458191	
11	23.655505180358887	picture	0		128.0	9.0	/home/egter/Projects/stimuli/pictures/S_yt-35i8UeYXjGw_47.png	55.961488008499146	1.0692429542541504
11	24.71398901939392	response	0	j		9.0	/home/egter/Projects/stimuli/pictures/S_yt-35i8UeYXjGw_47.png	57.01997184753418	
12	24.724748134613037	picture	0		141.0	10.0	/home/egter/Projects/stimuli/pictures/S_pexels-cottonbro-5780808.png	57.030730962753296	1.1736109256744385
12	25.888952016830444	response	0	j		10.0	/home/egter/Projects/stimuli/pictures/S_pexels-cottonbro-5780808.png	58.1949348449707	
13	25.898359060287476	picture	0		140.0	11.0	/home/egter/Projects/stimuli/pictures/n02701002_5977.JPEG	58.204341888427734	1.166701078414917
13	27.048760175704956	response	0	k		11.0	/home/egter/Projects/stimuli/pictures/n02701002_5977.JPEG	59.354743003845215	
14	27.065060138702393	picture	0		172.0	12.0	/home/egter/Projects/stimuli/pictures/S_yt-Wmh9ezFQwPg_3.png	59.37104296684265	1.4375059604644775
14	28.488967180252075	response	0	k		12.0	/home/egter/Projects/stimuli/pictures/S_yt-Wmh9ezFQwPg_3.png	60.794950008392334	
15	28.50256609916687	picture	0		94.0	13.0	/home/egter/Projects/stimuli/pictures/n02114855_37153.JPEG	60.80854892730713	0.7915959358215332
15	29.280620098114014	response	0	k		13.0	/home/egter/Projects/stimuli/pictures/n02114855_37153.JPEG	61.58660292625427	
16	29.294162034988403	picture	0		181.0	14.0	/home/egter/Projects/stimuli/pictures/S_yt-WRBmpC-RxIc_678.png	61.60014486312866	1.513909101486206
16	30.79726004600525	response	0	j		14.0	/home/egter/Projects/stimuli/pictures/S_yt-WRBmpC-RxIc_678.png	63.10324287414551	
17	30.80807113647461	picture	0		143.0	15.0	/home/egter/Projects/stimuli/pictures/n03788195_9019.JPEG	63.11405396461487	1.194450855255127
17	31.988975048065186	response	0	k		15.0	/home/egter/Projects/stimuli/pictures/n03788195_9019.JPEG	64.29495787620544	
18	32.002521991729736	picture	0		221.0	16.0	/home/egter/Projects/stimuli/pictures/S_ILSVRC2015_train_00524006.png	64.30850481987	1.8471381664276123
18	33.83893609046936	response	0	j		16.0	/home/egter/Projects/stimuli/pictures/S_ILSVRC2015_train_00524006.png	66.14491891860962	
19	33.84966015815735	picture	0		125.0	17.0	/home/egter/Projects/stimuli/pictures/R_S_yt-wVMhACNFF-M_154.png	66.15564298629761	1.0416920185089111
19	34.880638122558594	response	0	j		17.0	/home/egter/Projects/stimuli/pictures/R_S_yt-wVMhACNFF-M_154.png	67.18662095069885	
20	34.89135217666626	picture	0		99.0	18.0	/home/egter/Projects/stimuli/pictures/n01914609_3143.JPEG	67.19733500480652	0.82639479637146
20	35.70559096336365	response	0	k		18.0	/home/egter/Projects/stimuli/pictures/n01914609_3143.JPEG	68.0115737915039	
21	35.71774697303772	picture	0		93.0	19.0	/home/egter/Projects/stimuli/pictures/R_S_wc-__wCAtivIDG3_93.png	68.02372980117798	0.7710051536560059
21	36.48061203956604	response	0	j		19.0	/home/egter/Projects/stimuli/pictures/R_S_wc-__wCAtivIDG3_93.png	68.7865948677063	
22	36.488752126693726	picture	0		99.0	20.0	/home/egter/Projects/stimuli/pictures/n02786058_2296.JPEG	68.79473495483398	0.8261399269104004
22	37.305598974227905	response	0	k		20.0	/home/egter/Projects/stimuli/pictures/n02786058_2296.JPEG	69.61158180236816	
23	37.314892053604126	picture	0		115.0	21.0	/home/egter/Projects/stimuli/pictures/n04536866_9945.JPEG	69.62087488174438	0.9583489894866943
23	38.257084131240845	response	0	k		21.0	/home/egter/Projects/stimuli/pictures/n04536866_9945.JPEG	70.5630669593811	
24	38.27324104309082	picture	0		98.0	22.0	/home/egter/Projects/stimuli/pictures/S_pexels-vlada-karpovich-8044792.png	70.57922387123108	0.8195819854736328
24	39.08059000968933	response	0	j		22.0	/home/egter/Projects/stimuli/pictures/S_pexels-vlada-karpovich-8044792.png	71.38657283782959	
25	39.09282302856445	picture	0		112.0	23.0	/home/egter/Projects/stimuli/pictures/R_S_yt-4W224-RSCnM_15.png	71.39880585670471	0.9304089546203613
25	40.01392698287964	response	0	j		23.0	/home/egter/Projects/stimuli/pictures/R_S_yt-4W224-RSCnM_15.png	72.3199098110199	
26	40.023231983184814	picture	0		101.0	24.0	/home/egter/Projects/stimuli/pictures/R_S_yt-BiBS8EO5GPc_4.png	72.32921481132507	0.8405361175537109
26	40.84868407249451	response	0	j		24.0	/home/egter/Projects/stimuli/pictures/R_S_yt-BiBS8EO5GPc_4.png	73.15466690063477	
27	40.863768100738525	picture	0		165.0	25.0	/home/egter/Projects/stimuli/pictures/S_yt-qycUhA3Isjg_55.png	73.16975092887878	1.3750019073486328
27	42.23053598403931	response	0	k		25.0	/home/egter/Projects/stimuli/pictures/S_yt-qycUhA3Isjg_55.png	74.53651881217957	
28	42.23877000808716	picture	0		78.0	26.0	/home/egter/Projects/stimuli/pictures/R_S_video_inspire_oregon_portland_00064.png	74.54475283622742	0.6525111198425293
28	42.88052010536194	response	0	j		26.0	/home/egter/Projects/stimuli/pictures/R_S_video_inspire_oregon_portland_00064.png	75.1865029335022	
29	42.89128112792969	picture	0		176.0	27.0	/home/egter/Projects/stimuli/pictures/n01737021_3571.JPEG	75.19726395606995	1.4652528762817383
29	44.347167015075684	response	0	k		27.0	/home/egter/Projects/stimuli/pictures/n01737021_3571.JPEG	76.65314984321594	
30	44.356534004211426	picture	0		147.0	28.0	/home/egter/Projects/stimuli/pictures/S_yt-isJga8ec5UM_32.png	76.66251683235168	1.2291460037231445
30	45.57223415374756	response	0	j		28.0	/home/egter/Projects/stimuli/pictures/S_yt-isJga8ec5UM_32.png	77.87821698188782	
31	45.58568000793457	picture	0		440.0	29.0	/home/egter/Projects/stimuli/pictures/n09468604_14107.JPEG	77.89166283607483	3.6735570430755615
31	49.247169971466064	response	0	k		29.0	/home/egter/Projects/stimuli/pictures/n09468604_14107.JPEG	81.55315279960632	
32	49.25923705101013	picture	0		234.0	30.0	/home/egter/Projects/stimuli/pictures/ILSVRC2012_test_00080599.JPEG	81.56521987915039	1.9513649940490723
32	51.197198152542114	response	0	k		30.0	/home/egter/Projects/stimuli/pictures/ILSVRC2012_test_00080599.JPEG	83.50318098068237	
33	51.210602045059204	picture	0		101.0	31.0	/home/egter/Projects/stimuli/pictures/n02442845_23618.JPEG	83.51658487319946	0.8472371101379395
33	52.047192096710205	response	0	k		31.0	/home/egter/Projects/stimuli/pictures/n02442845_23618.JPEG	84.35317492485046	
34	52.057839155197144	picture	0		173.0	32.0	/home/egter/Projects/stimuli/pictures/R_S_yt-ujdFTAUE8rc_34.png	84.3638219833374	1.4444208145141602
34	53.482046127319336	response	0	j		32.0	/home/egter/Projects/stimuli/pictures/R_S_yt-ujdFTAUE8rc_34.png	85.7880289554596	
35	53.502259969711304	picture	0		131.0	33.0	/home/egter/Projects/stimuli/pictures/n03770679_10833.JPEG	85.80824279785156	1.0972161293029785
35	54.58883595466614	response	0	k		33.0	/home/egter/Projects/stimuli/pictures/n03770679_10833.JPEG	86.8948187828064	
36	54.59947609901428	picture	0		126.0	34.0	/home/egter/Projects/stimuli/pictures/n03527444_4185.JPEG	86.90545892715454	1.048598051071167
36	55.63888096809387	response	0	k		34.0	/home/egter/Projects/stimuli/pictures/n03527444_4185.JPEG	87.94486379623413	
37	55.64807415008545	picture	0		108.0	35.0	/home/egter/Projects/stimuli/pictures/S_yt-jy96-k8drRE_1.png	87.95405697822571	0.9027609825134277
37	56.53886294364929	response	0	j		35.0	/home/egter/Projects/stimuli/pictures/S_yt-jy96-k8drRE_1.png	88.84484577178955	
38	56.55083513259888	picture	0		104.0	36.0	/home/egter/Projects/stimuli/pictures/R_S_yt-WRBmpC-RxIc_678.png	88.85681796073914	0.8680310249328613
38	57.40550518035889	response	0	j		36.0	/home/egter/Projects/stimuli/pictures/R_S_yt-WRBmpC-RxIc_678.png	89.71148800849915	
39	57.41886615753174	picture	0		113.0	37.0	/home/egter/Projects/stimuli/pictures/S_yt-fGN7sGPy8BA_13.png	89.724848985672	0.944835901260376
39	58.35550308227539	response	0	j		37.0	/home/egter/Projects/stimuli/pictures/S_yt-fGN7sGPy8BA_13.png	90.66148591041565	
40	58.363702058792114	picture	0		248.0	38.0	/home/egter/Projects/stimuli/pictures/n02536864_21237.JPEG	90.66968488693237	2.069031000137329
40	60.42215394973755	response	0	k		38.0	/home/egter/Projects/stimuli/pictures/n02536864_21237.JPEG	92.72813677787781	
41	60.43273305892944	picture	0		193.0	39.0	/home/egter/Projects/stimuli/pictures/R_S_ILSVRC2015_train_00323000.png	92.7387158870697	1.6111440658569336
41	62.03050208091736	response	0	k		39.0	/home/egter/Projects/stimuli/pictures/R_S_ILSVRC2015_train_00323000.png	94.33648490905762	
42	62.04387712478638	picture	0		128.0	40.0	/home/egter/Projects/stimuli/pictures/S_pexels-tima-miroshnichenko-6077718.png	94.34985995292664	1.06974196434021
42	63.105499029159546	response	0	j		40.0	/home/egter/Projects/stimuli/pictures/S_pexels-tima-miroshnichenko-6077718.png	95.4114818572998	
43	63.11361908912659	picture	0		94.0	41.0	/home/egter/Projects/stimuli/pictures/n03788195_3188.JPEG	95.41960191726685	0.7843749523162842
43	63.88200497627258	response	0	k		41.0	/home/egter/Projects/stimuli/pictures/n03788195_3188.JPEG	96.18798780441284	
44	63.89799404144287	picture	0		164.0	42.0	/home/egter/Projects/stimuli/pictures/S_ILSVRC2015_train_00479001.png	96.20397686958313	1.368067979812622
44	65.25547695159912	response	0	j		42.0	/home/egter/Projects/stimuli/pictures/S_ILSVRC2015_train_00479001.png	97.56145977973938	
45	65.2660620212555	picture	0		143.0	43.0	/home/egter/Projects/stimuli/pictures/R_S_yt-7VVzNnp36DM_62.png	97.57204484939575	1.1944520473480225
45	66.44713115692139	response	0	j		43.0	/home/egter/Projects/stimuli/pictures/R_S_yt-7VVzNnp36DM_62.png	98.75311398506165	
46	66.46051406860352	picture	0		103.0	44.0	/home/egter/Projects/stimuli/pictures/R_S_pexels-anastasia-shuraeva-601407_2.png	98.76649689674377	0.8614730834960938
46	67.3138370513916	response	0	j		44.0	/home/egter/Projects/stimuli/pictures/R_S_pexels-anastasia-shuraeva-601407_2.png	99.61981987953186	
47	67.32198715209961	picture	0		129.0	45.0	/home/egter/Projects/stimuli/pictures/n02138441_9212.JPEG	99.62796998023987	1.075989007949829
47	68.38880801200867	response	0	k		45.0	/home/egter/Projects/stimuli/pictures/n02138441_9212.JPEG	100.69479084014893	
48	68.39797616004944	picture	0		123.0	46.0	/home/egter/Projects/stimuli/pictures/R_S_P006_C002_UHD_SDR_2K_AVC.png	100.7039589881897	1.0277698040008545
48	69.41382718086243	response	0	j		46.0	/home/egter/Projects/stimuli/pictures/R_S_P006_C002_UHD_SDR_2K_AVC.png	101.71981000900269	
49	69.4257459640503	picture	0		162.0	47.0	/home/egter/Projects/stimuli/pictures/S_zAKvYNtmhuc_772.png	101.73172879219055	1.3471760749816895
49	70.76382303237915	response	0	j		47.0	/home/egter/Projects/stimuli/pictures/S_zAKvYNtmhuc_772.png	103.06980586051941	
50	70.77292203903198	picture	0		85.0	48.0	/home/egter/Projects/stimuli/pictures/R_S_yt-kKRGgUhVRzc_74.png	103.07890486717224	0.7157211303710938
50	71.46531105041504	response	0	j		48.0	/home/egter/Projects/stimuli/pictures/R_S_yt-kKRGgUhVRzc_74.png	103.7712938785553	
51	71.48864316940308	picture	0		84.0	49.0	/home/egter/Projects/stimuli/pictures/R_S_yt-bD1U6bo-6bE_465.png	103.79462599754333	0.7009518146514893
51	72.18045401573181	response	0	j		49.0	/home/egter/Projects/stimuli/pictures/R_S_yt-bD1U6bo-6bE_465.png	104.48643684387207	
52	72.18959498405457	picture	0		88.0	50.0	/home/egter/Projects/stimuli/pictures/R_S_wc-DcFDe419cL3d_17.png	104.49557781219482	0.7360730171203613
52	72.91376996040344	response	0	j		50.0	/home/egter/Projects/stimuli/pictures/R_S_wc-DcFDe419cL3d_17.png	105.2197527885437	
53	72.92566800117493	picture	0		85.0	51.0	/home/egter/Projects/stimuli/pictures/n07684084_5965.JPEG	105.23165082931519	0.7083630561828613
53	73.62210702896118	response	0	k		51.0	/home/egter/Projects/stimuli/pictures/n07684084_5965.JPEG	105.92808985710144	
54	73.63403105735779	picture	0		275.0	52.0	/home/egter/Projects/stimuli/pictures/S_ILSVRC2015_train_00515000.png	105.94001388549805	2.304697036743164
54	75.92211699485779	response	0	j		52.0	/home/egter/Projects/stimuli/pictures/S_ILSVRC2015_train_00515000.png	108.22809982299805	
55	75.93872809410095	picture	0		89.0	53.0	/home/egter/Projects/stimuli/pictures/S_yt--OkafQ5VFHs_51.png	108.24471092224121	0.7438619136810303
55	76.66529607772827	response	0	j		53.0	/home/egter/Projects/stimuli/pictures/S_yt--OkafQ5VFHs_51.png	108.97127890586853	
56	76.68259000778198	picture	0		98.0	54.0	/home/egter/Projects/stimuli/pictures/S_ioSkDvwpEaU_35.png	108.98857283592224	0.8194701671600342
56	77.4820351600647	response	0	j		54.0	/home/egter/Projects/stimuli/pictures/S_ioSkDvwpEaU_35.png	109.78801798820496	
57	77.50206017494202	picture	0		107.0	55.0	/home/egter/Projects/stimuli/pictures/R_S_ioSkDvwpEaU_35.png	109.80804300308228	0.895866870880127
57	78.38876104354858	response	0	j		55.0	/home/egter/Projects/stimuli/pictures/R_S_ioSkDvwpEaU_35.png	110.69474387168884	
58	78.39792704582214	picture	0		118.0	56.0	/home/egter/Projects/stimuli/pictures/S_yt-2cwARrUMj40_67.png	110.7039098739624	0.986037015914917
58	79.37208914756775	response	0	j		56.0	/home/egter/Projects/stimuli/pictures/S_yt-2cwARrUMj40_67.png	111.67807197570801	
59	79.38396406173706	picture	0		121.0	57.0	/home/egter/Projects/stimuli/pictures/n02109047_17100.JPEG	111.68994688987732	1.0069351196289062
59	80.3804099559784	response	0	k		57.0	/home/egter/Projects/stimuli/pictures/n02109047_17100.JPEG	112.68639278411865	
60	80.39089918136597	picture	0		114.0	58.0	/home/egter/Projects/stimuli/pictures/S_FZ0hLmjCR0s_26.png	112.69688200950623	0.9513919353485107
60	81.33038711547852	response	0	j		58.0	/home/egter/Projects/stimuli/pictures/S_FZ0hLmjCR0s_26.png	113.63636994361877	
61	81.34229111671448	picture	0		107.0	59.0	/home/egter/Projects/stimuli/pictures/R_S_Nh81j72Utbs_5.png	113.64827394485474	0.8888628482818604
61	82.22206115722656	response	0	j		59.0	/home/egter/Projects/stimuli/pictures/R_S_Nh81j72Utbs_5.png	114.52804398536682	
62	82.23115396499634	picture	0		105.0	60.0	/home/egter/Projects/stimuli/pictures/S_yt-Ub5Xx5BqIOk_74.png	114.5371367931366	0.8750121593475342
62	83.09024810791016	response	0	j		60.0	/home/egter/Projects/stimuli/pictures/S_yt-Ub5Xx5BqIOk_74.png	115.39623093605042	
63	83.10616612434387	picture	0		92.0	61.0	/home/egter/Projects/stimuli/pictures/R_S_yt-Ub5Xx5BqIOk_74.png	115.41214895248413	0.7708508968353271
63	83.86374115943909	response	0	j		61.0	/home/egter/Projects/stimuli/pictures/R_S_yt-Ub5Xx5BqIOk_74.png	116.16972398757935	
64	83.8770170211792	picture	0		149.0	62.0	/home/egter/Projects/stimuli/pictures/n04238763_3478.JPEG	116.18299984931946	1.2499690055847168
64	85.1137261390686	response	0	k		62.0	/home/egter/Projects/stimuli/pictures/n04238763_3478.JPEG	117.41970896720886	
65	85.12698602676392	picture	0		129.0	63.0	/home/egter/Projects/stimuli/pictures/S_Nh81j72Utbs_5.png	117.43296885490417	1.083423137664795
65	86.19706010818481	response	0	j		63.0	/home/egter/Projects/stimuli/pictures/S_Nh81j72Utbs_5.png	118.50304293632507	
66	86.21040916442871	picture	0		107.0	64.0	/home/egter/Projects/stimuli/pictures/S_P006_C002_UHD_SDR_2K_AVC.png	118.51639199256897	0.8956959247589111
66	87.09031701087952	response	0	j		64.0	/home/egter/Projects/stimuli/pictures/S_P006_C002_UHD_SDR_2K_AVC.png	119.39629983901978	
67	87.10610508918762	picture	0		94.0	65.0	/home/egter/Projects/stimuli/pictures/n01514859_12644.JPEG	119.41208791732788	0.7847130298614502
67	87.87352299690247	response	0	k		65.0	/home/egter/Projects/stimuli/pictures/n01514859_12644.JPEG	120.17950582504272	
68	87.89081811904907	picture	0		108.0	66.0	/home/egter/Projects/stimuli/pictures/R_S_3WAnGcPubBY_179.png	120.19680094718933	0.9028060436248779
68	88.78037810325623	response	0	j		66.0	/home/egter/Projects/stimuli/pictures/R_S_3WAnGcPubBY_179.png	121.08636093139648	
69	88.79362416267395	picture	0		91.0	67.0	/home/egter/Projects/stimuli/pictures/R_S_yt-2dRSJcaJIXw_32.png	121.09960699081421	0.7638828754425049
69	89.54705810546875	response	0	j		67.0	/home/egter/Projects/stimuli/pictures/R_S_yt-2dRSJcaJIXw_32.png	121.85304093360901	
70	89.55750703811646	picture	0		126.0	68.0	/home/egter/Projects/stimuli/pictures/n03345487_785.JPEG	121.86348986625671	1.0485670566558838
70	90.59702205657959	response	0	k		68.0	/home/egter/Projects/stimuli/pictures/n03345487_785.JPEG	122.90300488471985	
71	90.60607409477234	picture	0		158.0	69.0	/home/egter/Projects/stimuli/pictures/n01694178_8803.JPEG	122.9120569229126	1.319525957107544
71	91.91374897956848	response	0	k		69.0	/home/egter/Projects/stimuli/pictures/n01694178_8803.JPEG	124.21973180770874	
72	91.92560005187988	picture	0		95.0	70.0	/home/egter/Projects/stimuli/pictures/S_ILSVRC2015_train_00584001.png	124.23158288002014	0.79156494140625
72	92.69851016998291	response	0	j		70.0	/home/egter/Projects/stimuli/pictures/S_ILSVRC2015_train_00584001.png	125.00449299812317	
73	92.71716499328613	picture	0		89.0	71.0	/home/egter/Projects/stimuli/pictures/n04332243_8953.JPEG	125.02314782142639	0.7430691719055176
73	93.44703602790833	response	0	k		71.0	/home/egter/Projects/stimuli/pictures/n04332243_8953.JPEG	125.75301885604858	
74	93.46023416519165	picture	0		269.0	72.0	/home/egter/Projects/stimuli/pictures/S_yt-TlNzKjxCIK4_970.png	125.76621699333191	2.253309965133667
74	95.6901581287384	response	0	j		72.0	/home/egter/Projects/stimuli/pictures/S_yt-TlNzKjxCIK4_970.png	127.99614095687866	
75	95.71354413032532	picture	0		135.0	73.0	/home/egter/Projects/stimuli/pictures/S_yt-w5lh_rKyKtE_21.png	128.01952695846558	1.1286089420318604
75	96.83030200004578	response	0	j		73.0	/home/egter/Projects/stimuli/pictures/S_yt-w5lh_rKyKtE_21.png	129.13628482818604	
76	96.84215307235718	picture	0		103.0	74.0	/home/egter/Projects/stimuli/pictures/R_S_yt-w5lh_rKyKtE_21.png	129.14813590049744	0.8680360317230225
76	97.69015312194824	response	0	j		74.0	/home/egter/Projects/stimuli/pictures/R_S_yt-w5lh_rKyKtE_21.png	129.9961359500885	
77	97.7101891040802	picture	0		370.0	75.0	/home/egter/Projects/stimuli/pictures/n04037443_53706.JPEG	130.01617193222046	3.0866780281066895
77	100.78035497665405	response	0	k		75.0	/home/egter/Projects/stimuli/pictures/n04037443_53706.JPEG	133.0863378047943	
78	100.79686713218689	picture	0		109.0	76.0	/home/egter/Projects/stimuli/pictures/R_S_Xq0a2BWE3zA_53.png	133.10284996032715	0.9132728576660156
78	101.69011497497559	response	0	j		76.0	/home/egter/Projects/stimuli/pictures/R_S_Xq0a2BWE3zA_53.png	133.99609780311584	
79	101.7101399898529	picture	0		85.0	77.0	/home/egter/Projects/stimuli/pictures/R_S_ILSVRC2015_train_00584001.png	134.01612281799316	0.7083790302276611
79	102.40534496307373	response	0	j		77.0	/home/egter/Projects/stimuli/pictures/R_S_ILSVRC2015_train_00584001.png	134.711327791214	
80	102.41851902008057	picture	0		113.0	78.0	/home/egter/Projects/stimuli/pictures/S_yt-9t5-3Qe_t9A_591.png	134.72450184822083	0.9449870586395264
80	103.35530209541321	response	0	j		78.0	/home/egter/Projects/stimuli/pictures/S_yt-9t5-3Qe_t9A_591.png	135.66128492355347	
81	103.36350607872009	picture	0		142.0	79.0	/home/egter/Projects/stimuli/pictures/n04258138_7132.JPEG	135.66948890686035	1.186953067779541
81	104.53865504264832	response	0	k		79.0	/home/egter/Projects/stimuli/pictures/n04258138_7132.JPEG	136.84463787078857	
82	104.55045914649963	picture	0		218.0	80.0	/home/egter/Projects/stimuli/pictures/S_yt-ZtS7ZrJ_rtk_525.png	136.8564419746399	1.8214058876037598
82	106.35608100891113	response	0	j		80.0	/home/egter/Projects/stimuli/pictures/S_yt-ZtS7ZrJ_rtk_525.png	138.6620638370514	
83	106.3718650341034	picture	0		94.0	81.0	/home/egter/Projects/stimuli/pictures/n03661043_10366.JPEG	138.67784786224365	0.7916560173034668
83	107.1477620601654	response	0	k		81.0	/home/egter/Projects/stimuli/pictures/n03661043_10366.JPEG	139.45374488830566	
84	107.16352105140686	picture	0		125.0	82.0	/home/egter/Projects/stimuli/pictures/R_S_yt-Kwfwhd07dVo_2.png	139.46950387954712	1.0465619564056396
84	108.19693303108215	response	0	j		82.0	/home/egter/Projects/stimuli/pictures/R_S_yt-Kwfwhd07dVo_2.png	140.5029158592224	
85	108.2100830078125	picture	0		134.0	83.0	/home/egter/Projects/stimuli/pictures/R_S_production_ID_4325516.png	140.51606583595276	1.1180729866027832
85	109.30688095092773	response	0	j		83.0	/home/egter/Projects/stimuli/pictures/R_S_production_ID_4325516.png	141.612863779068	
86	109.32815599441528	picture	0		177.0	84.0	/home/egter/Projects/stimuli/pictures/S_yt-9Z9-RT-ysEE_85.png	141.63413882255554	1.4791419506072998
86	110.7969241142273	response	0	j		84.0	/home/egter/Projects/stimuli/pictures/S_yt-9Z9-RT-ysEE_85.png	143.10290694236755	
87	110.80729794502258	picture	0		87.0	85.0	/home/egter/Projects/stimuli/pictures/n02672831_16367.JPEG	143.11328077316284	0.7361490726470947
87	111.53030109405518	response	0	k		85.0	/home/egter/Projects/stimuli/pictures/n02672831_16367.JPEG	143.83628392219543	
88	111.54344701766968	picture	0		159.0	86.0	/home/egter/Projects/stimuli/pictures/n02790996_8201.JPEG	143.84942984580994	1.333301067352295
88	112.8575291633606	response	0	k		86.0	/home/egter/Projects/stimuli/pictures/n02790996_8201.JPEG	145.16351199150085	
89	112.87674808502197	picture	0		135.0	87.0	/home/egter/Projects/stimuli/pictures/n11879895_2208.JPEG	145.18273091316223	1.1249899864196777
89	113.98867917060852	response	0	k		87.0	/home/egter/Projects/stimuli/pictures/n11879895_2208.JPEG	146.29466199874878	
90	114.00173807144165	picture	0		145.0	88.0	/home/egter/Projects/stimuli/pictures/n03126707_1819.JPEG	146.3077208995819	1.2082960605621338
90	115.19695401191711	response	0	k		88.0	/home/egter/Projects/stimuli/pictures/n03126707_1819.JPEG	147.50293684005737	
91	115.21003413200378	picture	0		100.0	89.0	/home/egter/Projects/stimuli/pictures/n01632458_3672.JPEG	147.51601696014404	0.8333539962768555
91	116.03029298782349	response	0	k		89.0	/home/egter/Projects/stimuli/pictures/n01632458_3672.JPEG	148.33627581596375	
92	116.04338812828064	picture	0		124.0	90.0	/home/egter/Projects/stimuli/pictures/n04462240_2980.JPEG	148.3493709564209	1.0416319370269775
92	117.06584596633911	response	0	k		90.0	/home/egter/Projects/stimuli/pictures/n04462240_2980.JPEG	149.37182879447937	
93	117.08502006530762	picture	0		101.0	91.0	/home/egter/Projects/stimuli/pictures/S_yt-2dRSJcaJIXw_32.png	149.39100289344788	0.84027099609375
93	117.90675115585327	response	0	j		91.0	/home/egter/Projects/stimuli/pictures/S_yt-2dRSJcaJIXw_32.png	150.21273398399353	
94	117.92529106140137	picture	0		105.0	92.0	/home/egter/Projects/stimuli/pictures/R_S_production_ID_4101242.png	150.23127388954163	0.8750030994415283
94	118.78864216804504	response	0	j		92.0	/home/egter/Projects/stimuli/pictures/R_S_production_ID_4101242.png	151.0946249961853	
95	118.8002941608429	picture	0		98.0	93.0	/home/egter/Projects/stimuli/pictures/R_S_yt-14tjqjjjAEI_15.png	151.10627698898315	0.8194630146026611
95	119.60604500770569	response	0	j		93.0	/home/egter/Projects/stimuli/pictures/R_S_yt-14tjqjjjAEI_15.png	151.91202783584595	
96	119.61975717544556	picture	0		88.0	94.0	/home/egter/Projects/stimuli/pictures/n03250847_11586.JPEG	151.92574000358582	0.7360689640045166
96	120.34695315361023	response	0	k		94.0	/home/egter/Projects/stimuli/pictures/n03250847_11586.JPEG	152.6529359817505	
97	120.35582613945007	picture	0		97.0	95.0	/home/egter/Projects/stimuli/pictures/n02066245_5298.JPEG	152.66180896759033	0.8125059604644775
97	121.15526914596558	response	0	k		95.0	/home/egter/Projects/stimuli/pictures/n02066245_5298.JPEG	153.46125197410583	
98	121.16833209991455	picture	0		231.0	96.0	/home/egter/Projects/stimuli/pictures/n03259280_4760.JPEG	153.4743149280548	1.9305689334869385
98	123.08027410507202	response	0	k		96.0	/home/egter/Projects/stimuli/pictures/n03259280_4760.JPEG	155.38625693321228	
99	123.09890103340149	picture	0		90.0	97.0	/home/egter/Projects/stimuli/pictures/n01677366_23706.JPEG	155.40488386154175	0.7499489784240723
99	123.83856701850891	response	0	k		97.0	/home/egter/Projects/stimuli/pictures/n01677366_23706.JPEG	156.14454984664917	
100	123.84885001182556	picture	0		299.0	98.0	/home/egter/Projects/stimuli/pictures/n03868242_2756.JPEG	156.15483283996582	2.493025064468384
100	126.33022117614746	response	0	k		98.0	/home/egter/Projects/stimuli/pictures/n03868242_2756.JPEG	158.63620400428772	
101	126.34187507629395	picture	0		123.0	99.0	/home/egter/Projects/stimuli/pictures/S_yt-7K5X1G7Cpls_965.png	158.6478579044342	1.0277950763702393
101	127.35588717460632	response	0	j		99.0	/home/egter/Projects/stimuli/pictures/S_yt-7K5X1G7Cpls_965.png	159.66187000274658	
102	127.36967015266418	picture	0		154.0	100.0	/home/egter/Projects/stimuli/pictures/R_S_yt-Ek1jcvett9E_33.png	159.67565298080444	1.2916510105133057
102	128.64754796028137	response	0	j		100.0	/home/egter/Projects/stimuli/pictures/R_S_yt-Ek1jcvett9E_33.png	160.95353078842163	
103	128.6613211631775	picture	0		126.0	101.0	/home/egter/Projects/stimuli/pictures/S_yt-yPl8LcgSMjo_32.png	160.96730399131775	1.0555379390716553
103	129.6984190940857	response	0	j		101.0	/home/egter/Projects/stimuli/pictures/S_yt-yPl8LcgSMjo_32.png	162.00440192222595	
104	129.71685910224915	picture	0		87.0	102.0	/home/egter/Projects/stimuli/pictures/n02988304_832.JPEG	162.0228419303894	0.7221980094909668
104	130.43031215667725	response	0	k		102.0	/home/egter/Projects/stimuli/pictures/n02988304_832.JPEG	162.7362949848175	
105	130.4390571117401	picture	0		124.0	103.0	/home/egter/Projects/stimuli/pictures/R_S_production_ID_4707837.png	162.74503993988037	1.03472900390625
105	131.46359300613403	response	0	j		103.0	/home/egter/Projects/stimuli/pictures/R_S_production_ID_4707837.png	163.7695758342743	
106	131.47378611564636	picture	0		125.0	104.0	/home/egter/Projects/stimuli/pictures/S_yt-Y32yFYRmNVU_22.png	163.77976894378662	1.0416560173034668
106	132.49846196174622	response	0	k		104.0	/home/egter/Projects/stimuli/pictures/S_yt-Y32yFYRmNVU_22.png	164.80444478988647	
107	132.51544213294983	picture	0		114.0	105.0	/home/egter/Projects/stimuli/pictures/S_ILSVRC2015_train_00415003.png	164.8214249610901	0.9513919353485107
107	133.45519995689392	response	0	j		105.0	/home/egter/Projects/stimuli/pictures/S_ILSVRC2015_train_00415003.png	165.76118278503418	
108	133.46683406829834	picture	0		293.0	106.0	/home/egter/Projects/stimuli/pictures/S_yt-cAFx29wS_xo_130.png	165.7728168964386	2.446582078933716
108	135.89004707336426	response	0	k		106.0	/home/egter/Projects/stimuli/pictures/S_yt-cAFx29wS_xo_130.png	168.19602990150452	
109	135.91341614723206	picture	0		184.0	107.0	/home/egter/Projects/stimuli/pictures/n01806567_8377.JPEG	168.21939897537231	1.5394890308380127
109	137.4391360282898	response	0	k		107.0	/home/egter/Projects/stimuli/pictures/n01806567_8377.JPEG	169.74511885643005	
110	137.45290517807007	picture	0		276.0	108.0	/home/egter/Projects/stimuli/pictures/n12768682_38432.JPEG	169.75888800621033	2.3104898929595947
110	139.74689102172852	response	0	k		108.0	/home/egter/Projects/stimuli/pictures/n12768682_38432.JPEG	172.05287384986877	
111	139.76339507102966	picture	0		100.0	109.0	/home/egter/Projects/stimuli/pictures/n12985857_77.JPEG	172.06937789916992	0.8353269100189209
111	140.58853697776794	response	0	k		109.0	/home/egter/Projects/stimuli/pictures/n12985857_77.JPEG	172.8945198059082	
112	140.59872198104858	picture	0		113.0	110.0	/home/egter/Projects/stimuli/pictures/S_PA_A010_C007_SDR_20190717_SDR_2K_AVC.png	172.90470480918884	0.944411039352417
112	141.53018307685852	response	0	j		110.0	/home/egter/Projects/stimuli/pictures/S_PA_A010_C007_SDR_20190717_SDR_2K_AVC.png	173.83616590499878	
113	141.543133020401	picture	0		89.0	111.0	/home/egter/Projects/stimuli/pictures/n02840245_12096.JPEG	173.84911584854126	0.7430310249328613
113	142.27243304252625	response	0	k		111.0	/home/egter/Projects/stimuli/pictures/n02840245_12096.JPEG	174.5784158706665	
114	142.28616404533386	picture	0		177.0	112.0	/home/egter/Projects/stimuli/pictures/n01644900_8905.JPEG	174.59214687347412	1.4791450500488281
114	143.7551281452179	response	0	k		112.0	/home/egter/Projects/stimuli/pictures/n01644900_8905.JPEG	176.06111097335815	
115	143.7653090953827	picture	0		685.0	113.0	/home/egter/Projects/stimuli/pictures/n03843555_13908.JPEG	176.07129192352295	5.715224981307983
115	149.46344017982483	response	0	k		113.0	/home/egter/Projects/stimuli/pictures/n03843555_13908.JPEG	181.7694230079651	
116	149.48053407669067	picture	0		98.0	114.0	/home/egter/Projects/stimuli/pictures/n02481823_3598.JPEG	181.78651690483093	0.8194160461425781
116	150.28844714164734	response	0	k		114.0	/home/egter/Projects/stimuli/pictures/n02481823_3598.JPEG	182.5944299697876	
117	150.29995012283325	picture	0		92.0	115.0	/home/egter/Projects/stimuli/pictures/n03445777_485.JPEG	182.6059329509735	0.7638628482818604
117	151.05520915985107	response	0	k		115.0	/home/egter/Projects/stimuli/pictures/n03445777_485.JPEG	183.36119198799133	
118	151.0638129711151	picture	0		102.0	116.0	/home/egter/Projects/stimuli/pictures/n03759954_11657.JPEG	183.36979579925537	0.8542091846466064
118	151.89914512634277	response	0	k		116.0	/home/egter/Projects/stimuli/pictures/n03759954_11657.JPEG	184.20512795448303	
119	151.91802215576172	picture	0		291.0	117.0	/home/egter/Projects/stimuli/pictures/n04311004_1182.JPEG	184.22400498390198	2.423553943634033
119	154.3232979774475	response	0	k		117.0	/home/egter/Projects/stimuli/pictures/n04311004_1182.JPEG	186.62928080558777	
120	154.34157609939575	picture	0		132.0	118.0	/home/egter/Projects/stimuli/pictures/S_yt-16eN45838LU_255.png	186.647558927536	1.0971870422363281
120	155.4300820827484	response	0	k		118.0	/home/egter/Projects/stimuli/pictures/S_yt-16eN45838LU_255.png	187.73606491088867	
121	155.43876314163208	picture	0		111.0	119.0	/home/egter/Projects/stimuli/pictures/S_yt-auGMEMsCRJI_470.png	187.74474596977234	0.9306108951568604
121	156.3556010723114	response	0	k		119.0	/home/egter/Projects/stimuli/pictures/S_yt-auGMEMsCRJI_470.png	188.66158390045166	
122	156.36937403678894	picture	0		78.0	120.0	/home/egter/Projects/stimuli/pictures/n01692333_12510.JPEG	188.6753568649292	0.6527450084686279
122	157.0133671760559	response	0	k		120.0	/home/egter/Projects/stimuli/pictures/n01692333_12510.JPEG	189.31935000419617	
123	157.02211904525757	picture	0		146.0	121.0	/home/egter/Projects/stimuli/pictures/n02687172_773.JPEG	189.32810187339783	1.222235918045044
123	158.23059701919556	response	0	k		121.0	/home/egter/Projects/stimuli/pictures/n02687172_773.JPEG	190.53657984733582	
124	158.2443549633026	picture	0		87.0	122.0	/home/egter/Projects/stimuli/pictures/n02138441_10759.JPEG	190.55033779144287	0.7291321754455566
124	158.96339797973633	response	0	k		122.0	/home/egter/Projects/stimuli/pictures/n02138441_10759.JPEG	191.2693808078766	
125	158.97348713874817	picture	0		97.0	123.0	/home/egter/Projects/stimuli/pictures/R_S_yt-VjTiMtjdjTw_103.png	191.27946996688843	0.8125159740447998
125	159.7723240852356	response	0	j		123.0	/home/egter/Projects/stimuli/pictures/R_S_yt-VjTiMtjdjTw_103.png	192.07830691337585	
126	159.78600311279297	picture	0		110.0	124.0	/home/egter/Projects/stimuli/pictures/R_S_yt-2IN85w8ptmM_51.png	192.09198594093323	0.9235680103302002
126	160.69042110443115	response	0	k		124.0	/home/egter/Projects/stimuli/pictures/R_S_yt-2IN85w8ptmM_51.png	192.9964039325714	
127	160.70957112312317	picture	0		87.0	125.0	/home/egter/Projects/stimuli/pictures/S_yt-MsSEF0krKE4_149.png	193.01555395126343	0.7222130298614502
127	161.42173099517822	response	0	j		125.0	/home/egter/Projects/stimuli/pictures/S_yt-MsSEF0krKE4_149.png	193.72771382331848	
128	161.43178415298462	picture	0		135.0	126.0	/home/egter/Projects/stimuli/pictures/S_yt-fT8CS1nszUE_355.png	193.73776698112488	1.1249728202819824
128	162.54667210578918	response	0	j		126.0	/home/egter/Projects/stimuli/pictures/S_yt-fT8CS1nszUE_355.png	194.85265493392944	
129	162.5567569732666	picture	0		114.0	127.0	/home/egter/Projects/stimuli/pictures/R_S_yt-sIXdPhfS67U_203.png	194.86273980140686	0.9514000415802002
129	163.49670505523682	response	0	j		127.0	/home/egter/Projects/stimuli/pictures/R_S_yt-sIXdPhfS67U_203.png	195.80268788337708	
130	163.5081570148468	picture	0		127.0	128.0	/home/egter/Projects/stimuli/pictures/S_yt-7Fyu2vr7zbA_31.png	195.81413984298706	1.0555789470672607
130	164.55514812469482	response	0	j		128.0	/home/egter/Projects/stimuli/pictures/S_yt-7Fyu2vr7zbA_31.png	196.86113095283508	
131	164.56373596191406	picture	0		99.0	129.0	/home/egter/Projects/stimuli/pictures/S_yt-c5KPuyzO-50_4.png	196.86971879005432	0.8263940811157227
131	165.38013410568237	response	0	j		129.0	/home/egter/Projects/stimuli/pictures/S_yt-c5KPuyzO-50_4.png	197.68611693382263	
132	165.39013004302979	picture	0		135.0	130.0	/home/egter/Projects/stimuli/pictures/R_S_production_ID_4997166.png	197.69611287117004	1.1249630451202393
132	166.49824213981628	response	0	j		130.0	/home/egter/Projects/stimuli/pictures/R_S_production_ID_4997166.png	198.80422496795654	
133	166.51509308815002	picture	0		238.0	131.0	/home/egter/Projects/stimuli/pictures/S_gHYomsO1dSU_5.png	198.82107591629028	1.9861040115356445
133	168.4883770942688	response	0	j		131.0	/home/egter/Projects/stimuli/pictures/S_gHYomsO1dSU_5.png	200.79435992240906	
134	168.50119709968567	picture	0		128.0	132.0	/home/egter/Projects/stimuli/pictures/S_yt-wjBwgccZM5k_150.png	200.80717992782593	1.0624160766601562
134	169.55507397651672	response	0	j		132.0	/home/egter/Projects/stimuli/pictures/S_yt-wjBwgccZM5k_150.png	201.86105680465698	
135	169.56361317634583	picture	0		106.0	133.0	/home/egter/Projects/stimuli/pictures/n04465501_6154.JPEG	201.86959600448608	0.8913319110870361
135	170.4388120174408	response	0	k		133.0	/home/egter/Projects/stimuli/pictures/n04465501_6154.JPEG	202.74479484558105	
136	170.45494508743286	picture	0		157.0	134.0	/home/egter/Projects/stimuli/pictures/n03992509_14076.JPEG	202.76092791557312	1.3100910186767578
136	171.75504612922668	response	0	k		134.0	/home/egter/Projects/stimuli/pictures/n03992509_14076.JPEG	204.06102895736694	
137	171.76503610610962	picture	0		103.0	135.0	/home/egter/Projects/stimuli/pictures/n02966193_3531.JPEG	204.07101893424988	0.8612060546875
137	172.61336612701416	response	0	k		135.0	/home/egter/Projects/stimuli/pictures/n02966193_3531.JPEG	204.91934895515442	
138	172.62624216079712	picture	0		105.0	136.0	/home/egter/Projects/stimuli/pictures/S_yt-2WPmM2vIuBE_41.png	204.93222498893738	0.8749029636383057
138	173.4883589744568	response	0	j		136.0	/home/egter/Projects/stimuli/pictures/S_yt-2WPmM2vIuBE_41.png	205.79434180259705	
139	173.50114512443542	picture	0		82.0	137.0	/home/egter/Projects/stimuli/pictures/S_yt-VrEuTDQxtD0_226.png	205.80712795257568	0.6805679798126221
139	174.17170596122742	response	0	j		137.0	/home/egter/Projects/stimuli/pictures/S_yt-VrEuTDQxtD0_226.png	206.47768878936768	
140	174.18171310424805	picture	0		106.0	138.0	/home/egter/Projects/stimuli/pictures/n01632458_798.JPEG	206.4876959323883	0.8818950653076172
140	175.05497407913208	response	0	k		138.0	/home/egter/Projects/stimuli/pictures/n01632458_798.JPEG	207.36095690727234	
141	175.06360816955566	picture	0		134.0	139.0	/home/egter/Projects/stimuli/pictures/S_ILSVRC2015_train_00001009.png	207.36959099769592	1.1180648803710938
141	176.17165803909302	response	0	k		139.0	/home/egter/Projects/stimuli/pictures/S_ILSVRC2015_train_00001009.png	208.47764086723328	
142	176.18167304992676	picture	0		109.0	140.0	/home/egter/Projects/stimuli/pictures/R_S_yt-i4kSCZ8rNC0_11.png	208.48765587806702	0.9096970558166504
142	177.07998609542847	response	0	k		140.0	/home/egter/Projects/stimuli/pictures/R_S_yt-i4kSCZ8rNC0_11.png	209.38596892356873	
143	177.0913701057434	picture	0		141.0	141.0	/home/egter/Projects/stimuli/pictures/ILSVRC2012_test_00089164.JPEG	209.39735293388367	1.1736178398132324
143	178.25506114959717	response	0	k		141.0	/home/egter/Projects/stimuli/pictures/ILSVRC2012_test_00089164.JPEG	210.56104397773743	
144	178.26498794555664	picture	0		104.0	142.0	/home/egter/Projects/stimuli/pictures/n02489166_9203.JPEG	210.5709707736969	0.8680651187896729
144	179.1148920059204	response	0	k		142.0	/home/egter/Projects/stimuli/pictures/n02489166_9203.JPEG	211.42087483406067	
145	179.1330530643463	picture	0		78.0	143.0	/home/egter/Projects/stimuli/pictures/R_S_yt-VrEuTDQxtD0_226.png	211.43903589248657	0.6527459621429443
145	179.77206897735596	response	0	j		143.0	/home/egter/Projects/stimuli/pictures/R_S_yt-VrEuTDQxtD0_226.png	212.07805180549622	
146	179.78579902648926	picture	0		93.0	144.0	/home/egter/Projects/stimuli/pictures/n02268853_2389.JPEG	212.09178185462952	0.7777750492095947
146	180.5549509525299	response	0	k		144.0	/home/egter/Projects/stimuli/pictures/n02268853_2389.JPEG	212.86093378067017	
147	180.56357407569885	picture	0		95.0	145.0	/home/egter/Projects/stimuli/pictures/S_yt-CR86bVrRwfo_13.png	212.8695569038391	0.7916219234466553
147	181.34663605690002	response	0	j		145.0	/home/egter/Projects/stimuli/pictures/S_yt-CR86bVrRwfo_13.png	213.65261888504028	
148	181.3551959991455	picture	0		83.0	146.0	/home/egter/Projects/stimuli/pictures/S_yt-ujdFTAUE8rc_34.png	213.66117882728577	0.6944489479064941
148	182.03831601142883	response	0	j		146.0	/home/egter/Projects/stimuli/pictures/S_yt-ujdFTAUE8rc_34.png	214.3442988395691	
149	182.049644947052	picture	0		85.0	147.0	/home/egter/Projects/stimuli/pictures/R_S_zAKvYNtmhuc_772.png	214.35562777519226	0.7083311080932617
149	182.74664998054504	response	0	j		147.0	/home/egter/Projects/stimuli/pictures/R_S_zAKvYNtmhuc_772.png	215.0526328086853	
150	182.75797605514526	picture	0		97.0	148.0	/home/egter/Projects/stimuli/pictures/S_ILSVRC2015_train_00416000.png	215.06395888328552	0.8055760860443115
150	183.55489802360535	response	0	k		148.0	/home/egter/Projects/stimuli/pictures/S_ILSVRC2015_train_00416000.png	215.8608808517456	
151	183.56355214118958	picture	0		123.0	149.0	/home/egter/Projects/stimuli/pictures/S_yt-qOPJfTB1klY_1.png	215.86953496932983	1.0277459621429443
151	184.57993507385254	response	0	k		149.0	/home/egter/Projects/stimuli/pictures/S_yt-qOPJfTB1klY_1.png	216.8859179019928	
152	184.59129810333252	picture	0		78.0	150.0	/home/egter/Projects/stimuli/pictures/n07613480_7102.JPEG	216.89728093147278	0.6597259044647217
152	185.23827195167542	response	0	k		150.0	/home/egter/Projects/stimuli/pictures/n07613480_7102.JPEG	217.54425477981567	
153	185.25102400779724	picture	0		107.0	151.0	/home/egter/Projects/stimuli/pictures/R_S_ILSVRC2015_train_00682009.png	217.5570068359375	0.8888809680938721
153	186.12323212623596	response	0	j		151.0	/home/egter/Projects/stimuli/pictures/R_S_ILSVRC2015_train_00682009.png	218.42921495437622	
154	186.1399049758911	picture	0		83.0	152.0	/home/egter/Projects/stimuli/pictures/n01755581_5019.JPEG	218.44588780403137	0.6944551467895508
154	186.82163000106812	response	0	k		152.0	/home/egter/Projects/stimuli/pictures/n01755581_5019.JPEG	219.12761282920837	
155	186.83436012268066	picture	0		305.0	153.0	/home/egter/Projects/stimuli/pictures/S_Y003_C009_SDR_2K_AVC.png	219.14034295082092	2.553809881210327
155	189.37163996696472	response	0	j		153.0	/home/egter/Projects/stimuli/pictures/S_Y003_C009_SDR_2K_AVC.png	221.67762279510498	
156	189.388170003891	picture	0		91.0	154.0	/home/egter/Projects/stimuli/pictures/S_yt-bD1U6bo-6bE_465.png	221.69415283203125	0.7586989402770996
156	190.1315679550171	response	0	k		154.0	/home/egter/Projects/stimuli/pictures/S_yt-bD1U6bo-6bE_465.png	222.43755078315735	
157	190.1468689441681	picture	0		120.0	155.0	/home/egter/Projects/stimuli/pictures/R_S_yt-FMIevUic_XY_50.png	222.45285177230835	0.9999790191650391
157	191.13151001930237	response	0	j		155.0	/home/egter/Projects/stimuli/pictures/R_S_yt-FMIevUic_XY_50.png	223.43749284744263	
158	191.14684796333313	picture	0		132.0	156.0	/home/egter/Projects/stimuli/pictures/n04037443_29666.JPEG	223.4528307914734	1.10797119140625
158	192.2383110523224	response	0	k		156.0	/home/egter/Projects/stimuli/pictures/n04037443_29666.JPEG	224.54429388046265	
159	192.25481915473938	picture	0		85.0	157.0	/home/egter/Projects/stimuli/pictures/S_yt-2LCHVTVwJ5E_235.png	224.56080198287964	0.7113938331604004
159	192.95495009422302	response	0	j		157.0	/home/egter/Projects/stimuli/pictures/S_yt-2LCHVTVwJ5E_235.png	225.26093292236328	
160	192.96621298789978	picture	0		98.0	158.0	/home/egter/Projects/stimuli/pictures/R_S_yt-M8wvzt_BMXM_173.png	225.27219581604004	0.8219220638275146
160	193.771959066391	response	0	j		158.0	/home/egter/Projects/stimuli/pictures/R_S_yt-M8wvzt_BMXM_173.png	226.07794189453125	
161	193.7881350517273	picture	0		106.0	159.0	/home/egter/Projects/stimuli/pictures/n13040303_4620.JPEG	226.09411787986755	0.8864109516143799
161	194.6632649898529	response	0	k		159.0	/home/egter/Projects/stimuli/pictures/n13040303_4620.JPEG	226.96924781799316	
162	194.67454600334167	picture	0		117.0	160.0	/home/egter/Projects/stimuli/pictures/R_S_yt-ebzrQh5ErI4_3.png	226.98052883148193	0.972283124923706
162	195.63827896118164	response	0	j		160.0	/home/egter/Projects/stimuli/pictures/R_S_yt-ebzrQh5ErI4_3.png	227.9442617893219	
163	195.64682912826538	picture	0		101.0	161.0	/home/egter/Projects/stimuli/pictures/R_S_pexels-koolshooters-7691440.png	227.95281195640564	0.8471488952636719
163	196.48019194602966	response	0	j		161.0	/home/egter/Projects/stimuli/pictures/R_S_pexels-koolshooters-7691440.png	228.78617477416992	
164	196.49397802352905	picture	0		97.0	162.0	/home/egter/Projects/stimuli/pictures/n02033041_3733.JPEG	228.7999608516693	0.8125109672546387
164	197.29660296440125	response	0	k		162.0	/home/egter/Projects/stimuli/pictures/n02033041_3733.JPEG	229.6025857925415	
165	197.3064889907837	picture	0		125.0	163.0	/home/egter/Projects/stimuli/pictures/S_yt-7VVzNnp36DM_62.png	229.61247181892395	1.041646957397461
165	198.3315110206604	response	0	j		163.0	/home/egter/Projects/stimuli/pictures/S_yt-7VVzNnp36DM_62.png	230.63749384880066	
166	198.34813594818115	picture	0		158.0	164.0	/home/egter/Projects/stimuli/pictures/R_S_yt-35i8UeYXjGw_47.png	230.6541187763214	1.3194570541381836
166	199.6548810005188	response	0	j		164.0	/home/egter/Projects/stimuli/pictures/R_S_yt-35i8UeYXjGw_47.png	231.96086382865906	
167	199.66759300231934	picture	0		121.0	165.0	/home/egter/Projects/stimuli/pictures/S_yt-jNfXfyipaMc_155.png	231.9735758304596	1.0069241523742676
167	200.6633050441742	response	0	k		165.0	/home/egter/Projects/stimuli/pictures/S_yt-jNfXfyipaMc_155.png	232.96928787231445	
168	200.6745171546936	picture	0		151.0	166.0	/home/egter/Projects/stimuli/pictures/n03857828_8075.JPEG	232.98049998283386	1.2635939121246338
168	201.91478610038757	response	0	k		166.0	/home/egter/Projects/stimuli/pictures/n03857828_8075.JPEG	234.22076892852783	
169	201.93811106681824	picture	0		113.0	167.0	/home/egter/Projects/stimuli/pictures/n01632777_16992.JPEG	234.2440938949585	0.9499919414520264
169	202.87159395217896	response	0	k		167.0	/home/egter/Projects/stimuli/pictures/n01632777_16992.JPEG	235.1775767803192	
170	202.88810300827026	picture	0		134.0	168.0	/home/egter/Projects/stimuli/pictures/n01968897_17016.JPEG	235.19408583641052	1.1197161674499512
170	203.9965341091156	response	0	k		168.0	/home/egter/Projects/stimuli/pictures/n01968897_17016.JPEG	236.30251693725586	
171	204.00781917572021	picture	0		98.0	169.0	/home/egter/Projects/stimuli/pictures/ILSVRC2012_test_00095343.JPEG	236.31380200386047	0.8219618797302246
171	204.81347107887268	response	0	k		169.0	/home/egter/Projects/stimuli/pictures/ILSVRC2012_test_00095343.JPEG	237.11945390701294	
172	204.82978105545044	picture	0		135.0	170.0	/home/egter/Projects/stimuli/pictures/n04336792_11653.JPEG	237.1357638835907	1.1333510875701904
172	205.94654607772827	response	0	k		170.0	/home/egter/Projects/stimuli/pictures/n04336792_11653.JPEG	238.25252890586853	
173	205.96313214302063	picture	0		92.0	171.0	/home/egter/Projects/stimuli/pictures/S_production_ID_4325516.png	238.2691149711609	0.7668449878692627
173	206.71471405029297	response	0	j		171.0	/home/egter/Projects/stimuli/pictures/S_production_ID_4325516.png	239.02069687843323	
174	206.7299771308899	picture	0		138.0	172.0	/home/egter/Projects/stimuli/pictures/n04467665_77937.JPEG	239.03595995903015	1.152843952178955
174	207.87157201766968	response	0	k		172.0	/home/egter/Projects/stimuli/pictures/n04467665_77937.JPEG	240.17755484580994	
175	207.88282108306885	picture	0		429.0	173.0	/home/egter/Projects/stimuli/pictures/n01704323_5613.JPEG	240.1888039112091	3.5802359580993652
175	211.44651699066162	response	0	k		173.0	/home/egter/Projects/stimuli/pictures/n01704323_5613.JPEG	243.75249981880188	
176	211.4630570411682	picture	0		73.0	174.0	/home/egter/Projects/stimuli/pictures/n04259630_16135.JPEG	243.76903986930847	0.6141400337219238
176	212.06341195106506	response	0	k		174.0	/home/egter/Projects/stimuli/pictures/n04259630_16135.JPEG	244.36939477920532	
177	212.07719707489014	picture	0		441.0	175.0	/home/egter/Projects/stimuli/pictures/S_yt-aiwDdJm1ek8_90.png	244.3831799030304	3.6858201026916504
177	215.73977518081665	response	0	j		175.0	/home/egter/Projects/stimuli/pictures/S_yt-aiwDdJm1ek8_90.png	248.0457580089569	
178	215.7630171775818	picture	0		100.0	176.0	/home/egter/Projects/stimuli/pictures/n03733281_12070.JPEG	248.06900000572205	0.8349108695983887
178	216.5881860256195	response	0	k		176.0	/home/egter/Projects/stimuli/pictures/n03733281_12070.JPEG	248.89416885375977	
179	216.59792804718018	picture	0		239.0	177.0	/home/egter/Projects/stimuli/pictures/S_yt-R0gFQo85cAE_5.png	248.90391087532043	1.9930620193481445
179	218.5798580646515	response	0	j		177.0	/home/egter/Projects/stimuli/pictures/S_yt-R0gFQo85cAE_5.png	250.88584089279175	
180	218.59099006652832	picture	0		111.0	178.0	/home/egter/Projects/stimuli/pictures/n04404412_31257.JPEG	250.89697289466858	0.92364501953125
180	219.50484204292297	response	0	k		178.0	/home/egter/Projects/stimuli/pictures/n04404412_31257.JPEG	251.81082487106323	
181	219.51463508605957	picture	0		128.0	179.0	/home/egter/Projects/stimuli/pictures/R_S_ILSVRC2015_train_00568000.png	251.82061791419983	1.0694429874420166
181	220.57145309448242	response	0	j		179.0	/home/egter/Projects/stimuli/pictures/R_S_ILSVRC2015_train_00568000.png	252.87743592262268	
182	220.5840780735016	stim	0		1003.0			252.89006090164185	8.354053974151611
182	228.9296751022339	response	0	space				261.23565793037415	
