trial_nr	onset	event_type	phase	response	nr_frames	picture_index	picture_file	onset_abs	duration
0	0.012569189071655273	stim	0		1390.0			29.531234979629517	11.595452785491943
0	11.591737031936646	response	0	space				41.11040282249451	
2	11.608021974563599	picture	0		239.0	0.0	/home/egter/Projects/stimuli/pictures/R_S_yt-GyMWMiWvuiA_237.png	41.12668776512146	1.9917311668395996
2	13.591572046279907	response	0	j		0.0	/home/egter/Projects/stimuli/pictures/R_S_yt-GyMWMiWvuiA_237.png	43.11023783683777	
3	13.599753141403198	picture	0		90.0	1.0	/home/egter/Projects/stimuli/pictures/S_pexels-mart-production-7698911.png	43.11841893196106	0.7499399185180664
3	14.341531991958618	response	0	j		1.0	/home/egter/Projects/stimuli/pictures/S_pexels-mart-production-7698911.png	43.86019778251648	
4	14.349693059921265	picture	0		202.0	2.0	/home/egter/Projects/stimuli/pictures/S_yt-gbDSSDcRlg4_31.png	43.868358850479126	1.687263011932373
4	16.018076181411743	response	0	k		2.0	/home/egter/Projects/stimuli/pictures/S_yt-gbDSSDcRlg4_31.png	45.536741971969604	
5	16.036956071853638	picture	0		92.0	3.0	/home/egter/Projects/stimuli/pictures/R_S_yt-QJHe-CoK4iI_170.png	45.5556218624115	0.7638630867004395
5	16.791531085968018	response	0	j		3.0	/home/egter/Projects/stimuli/pictures/R_S_yt-QJHe-CoK4iI_170.png	46.31019687652588	
6	16.800819158554077	picture	0		157.0	4.0	/home/egter/Projects/stimuli/pictures/R_S_comp_A351_C001_v06_SDR_PS_20180725_SDR_2K_AVC.png	46.31948494911194	1.3125300407409668
6	18.099882125854492	response	0	j		4.0	/home/egter/Projects/stimuli/pictures/R_S_comp_A351_C001_v06_SDR_PS_20180725_SDR_2K_AVC.png	47.61854791641235	
7	18.113349199295044	picture	0		98.0	5.0	/home/egter/Projects/stimuli/pictures/R_S_yt-HFiRYTnMZxE_338.png	47.632014989852905	0.8196718692779541
7	18.92484712600708	response	0	j		5.0	/home/egter/Projects/stimuli/pictures/R_S_yt-HFiRYTnMZxE_338.png	48.44351291656494	
8	18.933021068572998	picture	0		111.0	6.0	/home/egter/Projects/stimuli/pictures/n03388183_882.JPEG	48.45168685913086	0.9302670955657959
8	19.84984016418457	response	0	k		6.0	/home/egter/Projects/stimuli/pictures/n03388183_882.JPEG	49.36850595474243	
9	19.863288164138794	picture	0		202.0	7.0	/home/egter/Projects/stimuli/pictures/R_S_comp_GMT329_113NC_396B_1105_ITALY_v03_SDR_FINAL_20180706_SDR_2K_AVC.png	49.381953954696655	1.6875128746032715
9	21.54149603843689	response	0	j		7.0	/home/egter/Projects/stimuli/pictures/R_S_comp_GMT329_113NC_396B_1105_ITALY_v03_SDR_FINAL_20180706_SDR_2K_AVC.png	51.06016182899475	
10	21.550801038742065	picture	0		632.0	8.0	/home/egter/Projects/stimuli/pictures/n09332890_51000.JPEG	51.06946682929993	5.270732164382935
10	26.80810308456421	response	0	k		8.0	/home/egter/Projects/stimuli/pictures/n09332890_51000.JPEG	56.32676887512207	
11	26.821533203125	picture	0		169.0	9.0	/home/egter/Projects/stimuli/pictures/n02013706_7042.JPEG	56.34019899368286	1.416672945022583
11	28.21799612045288	response	0	k		9.0	/home/egter/Projects/stimuli/pictures/n02013706_7042.JPEG	57.73666191101074	
12	28.238206148147583	picture	0		114.0	10.0	/home/egter/Projects/stimuli/pictures/S_ILSVRC2015_train_00574000.png	57.756871938705444	0.9583339691162109
12	29.183144092559814	response	0	j		10.0	/home/egter/Projects/stimuli/pictures/S_ILSVRC2015_train_00574000.png	58.701809883117676	
13	29.196540117263794	picture	0		180.0	11.0	/home/egter/Projects/stimuli/pictures/n02951358_13450.JPEG	58.715205907821655	1.5069329738616943
13	30.691487073898315	response	0	k		11.0	/home/egter/Projects/stimuli/pictures/n02951358_13450.JPEG	60.21015286445618	
14	30.70347309112549	picture	0		125.0	12.0	/home/egter/Projects/stimuli/pictures/n01768244_6160.JPEG	60.22213888168335	1.0416851043701172
14	31.733190059661865	response	0	k		12.0	/home/egter/Projects/stimuli/pictures/n01768244_6160.JPEG	61.25185585021973	
15	31.745158195495605	picture	0		332.0	13.0	/home/egter/Projects/stimuli/pictures/n01855032_1954.JPEG	61.26382398605347	2.7638049125671387
15	34.49972414970398	response	0	k		13.0	/home/egter/Projects/stimuli/pictures/n01855032_1954.JPEG	64.01838994026184	
16	34.508963108062744	picture	0		125.0	14.0	/home/egter/Projects/stimuli/pictures/S_yt-ujdFTAUE8rc_34.png	64.0276288986206	1.0416889190673828
16	35.54144811630249	response	0	j		14.0	/home/egter/Projects/stimuli/pictures/S_yt-ujdFTAUE8rc_34.png	65.06011390686035	
17	35.55065202713013	picture	0		90.0	15.0	/home/egter/Projects/stimuli/pictures/S_yt-kiEFK7bDssE_14.png	65.06931781768799	0.7499880790710449
17	36.29142999649048	response	0	j		15.0	/home/egter/Projects/stimuli/pictures/S_yt-kiEFK7bDssE_14.png	65.81009578704834	
18	36.30064010620117	picture	0		123.0	16.0	/home/egter/Projects/stimuli/pictures/n01667114_3317.JPEG	65.81930589675903	1.0277628898620605
18	37.31648397445679	response	0	k		16.0	/home/egter/Projects/stimuli/pictures/n01667114_3317.JPEG	66.83514976501465	
19	37.32840299606323	picture	0		92.0	17.0	/home/egter/Projects/stimuli/pictures/n04141327_6475.JPEG	66.8470687866211	0.7639541625976562
19	38.08311104774475	response	0	k		17.0	/home/egter/Projects/stimuli/pictures/n04141327_6475.JPEG	67.60177683830261	
20	38.09235715866089	picture	0		86.0	18.0	/home/egter/Projects/stimuli/pictures/S_ILSVRC2015_train_00408000.png	67.61102294921875	0.715580940246582
20	38.7997350692749	response	0	k		18.0	/home/egter/Projects/stimuli/pictures/S_ILSVRC2015_train_00408000.png	68.31840085983276	
21	38.80793809890747	picture	0		110.0	19.0	/home/egter/Projects/stimuli/pictures/n01728572_16119.JPEG	68.32660388946533	0.9166300296783447
21	39.71642017364502	response	0	k		19.0	/home/egter/Projects/stimuli/pictures/n01728572_16119.JPEG	69.23508596420288	
22	39.724568128585815	picture	0		88.0	20.0	/home/egter/Projects/stimuli/pictures/n02879718_393.JPEG	69.24323391914368	0.7357418537139893
22	40.44970202445984	response	0	k		20.0	/home/egter/Projects/stimuli/pictures/n02879718_393.JPEG	69.9683678150177	
23	40.460309982299805	picture	0		129.0	21.0	/home/egter/Projects/stimuli/pictures/S_yt-7Ya-rGPO8cM_159.png	69.97897577285767	1.0764482021331787
23	41.52473306655884	response	0	j		21.0	/home/egter/Projects/stimuli/pictures/S_yt-7Ya-rGPO8cM_159.png	71.0433988571167	
24	41.53675818443298	picture	0		101.0	22.0	/home/egter/Projects/stimuli/pictures/n03721384_6710.JPEG	71.05542397499084	0.8471698760986328
24	42.37479209899902	response	0	k		22.0	/home/egter/Projects/stimuli/pictures/n03721384_6710.JPEG	71.89345788955688	
25	42.383928060531616	picture	0		86.0	23.0	/home/egter/Projects/stimuli/pictures/n04141327_1185.JPEG	71.90259385108948	0.7157061100006104
25	43.09144115447998	response	0	k		23.0	/home/egter/Projects/stimuli/pictures/n04141327_1185.JPEG	72.61010694503784	
26	43.09963417053223	picture	0		104.0	24.0	/home/egter/Projects/stimuli/pictures/n04149813_791.JPEG	72.61829996109009	0.8750019073486328
26	43.958083152770996	response	0	k		24.0	/home/egter/Projects/stimuli/pictures/n04149813_791.JPEG	73.47674894332886	
27	43.97463607788086	picture	0		81.0	25.0	/home/egter/Projects/stimuli/pictures/n04141327_2397.JPEG	73.49330186843872	0.6800661087036133
27	44.634523153305054	response	0	k		25.0	/home/egter/Projects/stimuli/pictures/n04141327_2397.JPEG	74.15318894386292	
28	44.65470218658447	picture	0		96.0	26.0	/home/egter/Projects/stimuli/pictures/S_yt--UhwpukdyBg_51.png	74.17336797714233	0.805595874786377
28	45.442875146865845	response	0	j		26.0	/home/egter/Projects/stimuli/pictures/S_yt--UhwpukdyBg_51.png	74.9615409374237	
29	45.46029806137085	picture	0		625.0	27.0	/home/egter/Projects/stimuli/pictures/S_yt-o0YqkYEeszM_7.png	74.97896385192871	5.208316087722778
29	50.65809607505798	response	0	k		27.0	/home/egter/Projects/stimuli/pictures/S_yt-o0YqkYEeszM_7.png	80.17676186561584	
30	50.66861414909363	picture	0		121.0	28.0	/home/egter/Projects/stimuli/pictures/S_wc-AJxbR6daLxMM_5.png	80.18727993965149	1.0068578720092773
30	51.66635012626648	response	0	j		28.0	/home/egter/Projects/stimuli/pictures/S_wc-AJxbR6daLxMM_5.png	81.18501591682434	
31	51.675472021102905	picture	0		159.0	29.0	/home/egter/Projects/stimuli/pictures/R_S_yt-Xs7TCzdnUJQ_79.png	81.19413781166077	1.3263680934906006
31	52.99133610725403	response	0	j		29.0	/home/egter/Projects/stimuli/pictures/R_S_yt-Xs7TCzdnUJQ_79.png	82.51000189781189	
32	53.001840114593506	picture	0		84.0	30.0	/home/egter/Projects/stimuli/pictures/n02606052_2701.JPEG	82.52050590515137	0.7014570236206055
32	53.69140315055847	response	0	k		30.0	/home/egter/Projects/stimuli/pictures/n02606052_2701.JPEG	83.21006894111633	
33	53.70329713821411	picture	0		292.0	31.0	/home/egter/Projects/stimuli/pictures/n02108000_1272.JPEG	83.22196292877197	2.4305238723754883
33	56.124715089797974	response	0	k		31.0	/home/egter/Projects/stimuli/pictures/n02108000_1272.JPEG	85.64338088035583	
34	56.1338210105896	picture	0		329.0	32.0	/home/egter/Projects/stimuli/pictures/R_S_yt-Ndwek2tpIOA_169.png	85.65248680114746	2.7430500984191895
34	58.86630702018738	response	0	j		32.0	/home/egter/Projects/stimuli/pictures/R_S_yt-Ndwek2tpIOA_169.png	88.38497281074524	
35	58.87687110900879	picture	0		135.0	33.0	/home/egter/Projects/stimuli/pictures/S_yt-zpoIiHGRm5k_296.png	88.39553689956665	1.1250300407409668
35	59.99137806892395	response	0	j		33.0	/home/egter/Projects/stimuli/pictures/S_yt-zpoIiHGRm5k_296.png	89.51004385948181	
36	60.001901149749756	picture	0		114.0	34.0	/home/egter/Projects/stimuli/pictures/n01692333_9310.JPEG	89.52056694030762	0.9513068199157715
36	60.941378116607666	response	0	k		34.0	/home/egter/Projects/stimuli/pictures/n01692333_9310.JPEG	90.46004390716553	
37	60.95320796966553	picture	0		353.0	35.0	/home/egter/Projects/stimuli/pictures/R_S_yt-4wYTkhggZNM_90.png	90.47187376022339	2.938009023666382
37	63.8830361366272	response	0	k		35.0	/home/egter/Projects/stimuli/pictures/R_S_yt-4wYTkhggZNM_90.png	93.40170192718506	
38	63.89121699333191	picture	0		117.0	36.0	/home/egter/Projects/stimuli/pictures/R_S_yt-fA0nOetbOJY_580.png	93.40988278388977	0.9786241054534912
38	64.85121512413025	response	0	k		36.0	/home/egter/Projects/stimuli/pictures/R_S_yt-fA0nOetbOJY_580.png	94.36988091468811	
39	64.8698410987854	picture	0		217.0	37.0	/home/egter/Projects/stimuli/pictures/S_yt-MIDWkOZcQUs_72.png	94.38850688934326	1.8130440711975098
39	66.66633915901184	response	0	k		37.0	/home/egter/Projects/stimuli/pictures/S_yt-MIDWkOZcQUs_72.png	96.1850049495697	
40	66.68288516998291	picture	0		74.0	38.0	/home/egter/Projects/stimuli/pictures/n07590611_21544.JPEG	96.20155096054077	0.6250059604644775
40	67.2913281917572	response	0	k		38.0	/home/egter/Projects/stimuli/pictures/n07590611_21544.JPEG	96.80999398231506	
41	67.30789113044739	picture	0		124.0	39.0	/home/egter/Projects/stimuli/pictures/S_comp_GL_G004_C010_PSNK_v04_SDR_PS_FINAL_20180709_SDR_2K_AVC.png	96.82655692100525	1.0341429710388184
41	68.33301997184753	response	0	k		39.0	/home/egter/Projects/stimuli/pictures/S_comp_GL_G004_C010_PSNK_v04_SDR_PS_FINAL_20180709_SDR_2K_AVC.png	97.8516857624054	
42	68.3420341014862	picture	0		117.0	40.0	/home/egter/Projects/stimuli/pictures/n03877845_10747.JPEG	97.86069989204407	0.9791610240936279
42	69.30797600746155	response	0	k		40.0	/home/egter/Projects/stimuli/pictures/n03877845_10747.JPEG	98.82664179801941	
43	69.32119512557983	picture	0		396.0	41.0	/home/egter/Projects/stimuli/pictures/n02321529_4221.JPEG	98.8398609161377	3.3116300106048584
43	72.61628818511963	response	0	k		41.0	/home/egter/Projects/stimuli/pictures/n02321529_4221.JPEG	102.13495397567749	
44	72.63282513618469	picture	0		87.0	42.0	/home/egter/Projects/stimuli/pictures/S_yt-F2x6e7e7cAE_70.png	102.15149092674255	0.7300159931182861
44	73.34964799880981	response	0	j		42.0	/home/egter/Projects/stimuli/pictures/S_yt-F2x6e7e7cAE_70.png	102.86831378936768	
45	73.36284112930298	picture	0		68.0	43.0	/home/egter/Projects/stimuli/pictures/R_S_yt-F2x6e7e7cAE_70.png	102.88150691986084	0.5700340270996094
45	73.92457318305969	response	0	j		43.0	/home/egter/Projects/stimuli/pictures/R_S_yt-F2x6e7e7cAE_70.png	103.44323897361755	
46	73.93287515640259	picture	0		96.0	44.0	/home/egter/Projects/stimuli/pictures/R_S_yt-tOOaOzYvtKE_79.png	103.45154094696045	0.8049008846282959
46	74.72459506988525	response	0	j		44.0	/home/egter/Projects/stimuli/pictures/R_S_yt-tOOaOzYvtKE_79.png	104.24326086044312	
47	74.73777604103088	picture	0		87.0	45.0	/home/egter/Projects/stimuli/pictures/n02092339_211.JPEG	104.25644183158875	0.7450640201568604
47	75.45795607566833	response	0	k		45.0	/home/egter/Projects/stimuli/pictures/n02092339_211.JPEG	104.9766218662262	
48	75.48284006118774	picture	0		121.0	46.0	/home/egter/Projects/stimuli/pictures/S_yt-hdZEAsVBEEM_19.png	105.0015058517456	1.0118379592895508
48	76.48292899131775	response	0	j		46.0	/home/egter/Projects/stimuli/pictures/S_yt-hdZEAsVBEEM_19.png	106.00159478187561	
49	76.4946780204773	picture	0		237.0	47.0	/home/egter/Projects/stimuli/pictures/S_yt-YZO4_2yJLWE_1447.png	106.01334381103516	1.9861390590667725
49	78.459557056427	response	0	k		47.0	/home/egter/Projects/stimuli/pictures/S_yt-YZO4_2yJLWE_1447.png	107.97822284698486	
50	78.48081707954407	picture	0		451.0	48.0	/home/egter/Projects/stimuli/pictures/n03857828_6371.JPEG	107.99948287010193	3.7638680934906006
50	82.22596597671509	response	0	k		48.0	/home/egter/Projects/stimuli/pictures/n03857828_6371.JPEG	111.74463176727295	
51	82.24468517303467	picture	0		112.0	49.0	/home/egter/Projects/stimuli/pictures/S_flickr-thelastdon-8662706978_3.png	111.76335096359253	0.9305448532104492
51	83.1661901473999	response	0	k		49.0	/home/egter/Projects/stimuli/pictures/S_flickr-thelastdon-8662706978_3.png	112.68485593795776	
52	83.17523002624512	picture	0		99.0	50.0	/home/egter/Projects/stimuli/pictures/R_S_yt-Mjm5smrurQI_125.png	112.69389581680298	0.8263521194458008
52	83.99127507209778	response	0	j		50.0	/home/egter/Projects/stimuli/pictures/R_S_yt-Mjm5smrurQI_125.png	113.50994086265564	
53	84.00158214569092	picture	0		100.0	51.0	/home/egter/Projects/stimuli/pictures/R_S_ILSVRC2015_train_00165008.png	113.52024793624878	0.8402719497680664
53	84.82454800605774	response	0	j		51.0	/home/egter/Projects/stimuli/pictures/R_S_ILSVRC2015_train_00165008.png	114.3432137966156	
54	84.84185409545898	picture	0		92.0	52.0	/home/egter/Projects/stimuli/pictures/R_S_yt-7Ya-rGPO8cM_159.png	114.36051988601685	0.7708330154418945
54	85.59949803352356	response	0	j		52.0	/home/egter/Projects/stimuli/pictures/R_S_yt-7Ya-rGPO8cM_159.png	115.11816382408142	
55	85.61268711090088	picture	0		81.0	53.0	/home/egter/Projects/stimuli/pictures/n02672831_16367.JPEG	115.13135290145874	0.6736109256744385
55	86.27461099624634	response	0	k		53.0	/home/egter/Projects/stimuli/pictures/n02672831_16367.JPEG	115.7932767868042	
56	86.28629803657532	picture	0		95.0	54.0	/home/egter/Projects/stimuli/pictures/S_yt-mj82m2mHYG4_6.png	115.80496382713318	0.7916431427001953
56	87.06625199317932	response	0	k		54.0	/home/egter/Projects/stimuli/pictures/S_yt-mj82m2mHYG4_6.png	116.58491778373718	
57	87.07794117927551	picture	0		123.0	55.0	/home/egter/Projects/stimuli/pictures/n01665541_18105.JPEG	116.59660696983337	1.029822826385498
57	88.09198498725891	response	0	k		55.0	/home/egter/Projects/stimuli/pictures/n01665541_18105.JPEG	117.61065077781677	
58	88.10776400566101	picture	0		80.0	56.0	/home/egter/Projects/stimuli/pictures/S_comp_GMT306_139NC_139J_3066_CALI_TO_VEGAS_v08_SDR_PS_20180824_SDR_2K_AVC.png	117.62642979621887	0.6715900897979736
58	88.76621103286743	response	0	k		56.0	/home/egter/Projects/stimuli/pictures/S_comp_GMT306_139NC_139J_3066_CALI_TO_VEGAS_v08_SDR_PS_20180824_SDR_2K_AVC.png	118.2848768234253	
59	88.77935409545898	picture	0		111.0	57.0	/home/egter/Projects/stimuli/pictures/S_yt-hRAqAwRhmwE_58.png	118.29801988601685	0.9235239028930664
59	89.69122314453125	response	0	j		57.0	/home/egter/Projects/stimuli/pictures/S_yt-hRAqAwRhmwE_58.png	119.20988893508911	
60	89.70287799835205	picture	0		564.0	58.0	/home/egter/Projects/stimuli/pictures/n03208938_21585.JPEG	119.22154378890991	4.701372146606445
60	94.39115309715271	response	0	k		58.0	/home/egter/Projects/stimuli/pictures/n03208938_21585.JPEG	123.90981888771057	
61	94.4042501449585	picture	0		542.0	59.0	/home/egter/Projects/stimuli/pictures/S_yt-i4kSCZ8rNC0_11.png	123.92291593551636	4.513857841491699
61	98.9077820777893	response	0	j		59.0	/home/egter/Projects/stimuli/pictures/S_yt-i4kSCZ8rNC0_11.png	128.42644786834717	
62	98.9181079864502	picture	0		97.0	60.0	/home/egter/Projects/stimuli/pictures/n01728572_15156.JPEG	128.43677377700806	0.8125190734863281
62	99.71681308746338	response	0	k		60.0	/home/egter/Projects/stimuli/pictures/n01728572_15156.JPEG	129.23547887802124	
63	99.73062705993652	picture	0		113.0	61.0	/home/egter/Projects/stimuli/pictures/n04162706_47898.JPEG	129.24929285049438	0.9443960189819336
63	100.65934610366821	response	0	k		61.0	/home/egter/Projects/stimuli/pictures/n04162706_47898.JPEG	130.17801189422607	
64	100.67502307891846	picture	0		94.0	62.0	/home/egter/Projects/stimuli/pictures/S_wc-7ugQ0V4lxYkJ_131.png	130.19368886947632	0.7847249507904053
64	101.44269013404846	response	0	j		62.0	/home/egter/Projects/stimuli/pictures/S_wc-7ugQ0V4lxYkJ_131.png	130.96135592460632	
65	101.45974802970886	picture	0		86.0	63.0	/home/egter/Projects/stimuli/pictures/S_ILSVRC2015_train_00556000.png	130.97841382026672	0.7152950763702393
65	102.16616415977478	response	0	j		63.0	/home/egter/Projects/stimuli/pictures/S_ILSVRC2015_train_00556000.png	131.68482995033264	
66	102.1750431060791	picture	0		82.0	64.0	/home/egter/Projects/stimuli/pictures/R_S_pexels-mikhail-nilov-8410063_1.png	131.69370889663696	0.6874969005584717
66	102.84360599517822	response	0	j		64.0	/home/egter/Projects/stimuli/pictures/R_S_pexels-mikhail-nilov-8410063_1.png	132.36227178573608	
67	102.86254000663757	picture	0		162.0	65.0	/home/egter/Projects/stimuli/pictures/S_yt-Kabm8kuBnFo_27.png	132.38120579719543	1.3472661972045898
67	104.19945406913757	response	0	k		65.0	/home/egter/Projects/stimuli/pictures/S_yt-Kabm8kuBnFo_27.png	133.71811985969543	
68	104.20980620384216	picture	0		80.0	66.0	/home/egter/Projects/stimuli/pictures/n01665541_21853.JPEG	133.72847199440002	0.6665899753570557
68	104.85934519767761	response	0	k		66.0	/home/egter/Projects/stimuli/pictures/n01665541_21853.JPEG	134.37801098823547	
69	104.87639617919922	picture	0		138.0	67.0	/home/egter/Projects/stimuli/pictures/R_S_yt-lkpfs_4qAGE_50.png	134.39506196975708	1.152817964553833
69	106.0161349773407	response	0	k		67.0	/home/egter/Projects/stimuli/pictures/R_S_yt-lkpfs_4qAGE_50.png	135.53480076789856	
70	106.02921414375305	picture	0		495.0	68.0	/home/egter/Projects/stimuli/pictures/ILSVRC2012_test_00060820.JPEG	135.5478799343109	4.124894857406616
70	110.14109396934509	response	0	k		68.0	/home/egter/Projects/stimuli/pictures/ILSVRC2012_test_00060820.JPEG	139.65975975990295	
71	110.15410900115967	picture	0		64.0	69.0	/home/egter/Projects/stimuli/pictures/n03095699_3680.JPEG	139.67277479171753	0.5347151756286621
71	110.66763401031494	response	0	k		69.0	/home/egter/Projects/stimuli/pictures/n03095699_3680.JPEG	140.1862998008728	
72	110.68882417678833	picture	0		189.0	70.0	/home/egter/Projects/stimuli/pictures/S_yt-7bSTxOajpjc_58.png	140.2074899673462	1.5833148956298828
72	112.2584331035614	response	0	j		70.0	/home/egter/Projects/stimuli/pictures/S_yt-7bSTxOajpjc_58.png	141.77709889411926	
73	112.27213907241821	picture	0		154.0	71.0	/home/egter/Projects/stimuli/pictures/n03417042_4218.JPEG	141.79080486297607	1.291822910308838
73	113.5500590801239	response	0	k		71.0	/home/egter/Projects/stimuli/pictures/n03417042_4218.JPEG	143.06872487068176	
74	113.56396198272705	picture	0		183.0	72.0	/home/egter/Projects/stimuli/pictures/S_ILSVRC2015_train_00165008.png	143.0826277732849	1.5276601314544678
74	115.0827431678772	response	0	j		72.0	/home/egter/Projects/stimuli/pictures/S_ILSVRC2015_train_00165008.png	144.60140895843506	
75	115.09162211418152	picture	0		95.0	73.0	/home/egter/Projects/stimuli/pictures/n03594945_38746.JPEG	144.61028790473938	0.7915818691253662
75	115.86778616905212	response	0	k		73.0	/home/egter/Projects/stimuli/pictures/n03594945_38746.JPEG	145.38645195960999	
76	115.88320398330688	picture	0		103.0	74.0	/home/egter/Projects/stimuli/pictures/R_S_yt-hQ5pge893b4_6.png	145.40186977386475	0.8611621856689453
76	116.73276019096375	response	0	j		74.0	/home/egter/Projects/stimuli/pictures/R_S_yt-hQ5pge893b4_6.png	146.2514259815216	
77	116.74436616897583	picture	0		134.0	75.0	/home/egter/Projects/stimuli/pictures/S_yt-z46eFYG950M_222.png	146.2630319595337	1.1180078983306885
77	117.84332299232483	response	0	k		75.0	/home/egter/Projects/stimuli/pictures/S_yt-z46eFYG950M_222.png	147.3619887828827	
78	117.86237406730652	picture	0		150.0	76.0	/home/egter/Projects/stimuli/pictures/n01797886_18830.JPEG	147.38103985786438	1.2500479221343994
78	119.09942698478699	response	0	k		76.0	/home/egter/Projects/stimuli/pictures/n01797886_18830.JPEG	148.61809277534485	
79	119.11242198944092	picture	0		68.0	77.0	/home/egter/Projects/stimuli/pictures/n04037443_32129.JPEG	148.63108777999878	0.5624091625213623
79	119.65924310684204	response	0	k		77.0	/home/egter/Projects/stimuli/pictures/n04037443_32129.JPEG	149.1779088973999	
80	119.67483115196228	picture	0		74.0	78.0	/home/egter/Projects/stimuli/pictures/n04118776_27750.JPEG	149.19349694252014	0.6181049346923828
80	120.27606201171875	response	0	k		78.0	/home/egter/Projects/stimuli/pictures/n04118776_27750.JPEG	149.7947278022766	
81	120.29293608665466	picture	0		184.0	79.0	/home/egter/Projects/stimuli/pictures/R_S_ILSVRC2015_train_00479003.png	149.81160187721252	1.534670114517212
81	121.81607818603516	response	0	j		79.0	/home/egter/Projects/stimuli/pictures/R_S_ILSVRC2015_train_00479003.png	151.33474397659302	
82	121.82760620117188	picture	0		85.0	80.0	/home/egter/Projects/stimuli/pictures/S_yt-Y7-umyL036c_507.png	151.34627199172974	0.7083568572998047
82	122.5243911743164	response	0	j		80.0	/home/egter/Projects/stimuli/pictures/S_yt-Y7-umyL036c_507.png	152.04305696487427	
83	122.53596305847168	picture	0		82.0	81.0	/home/egter/Projects/stimuli/pictures/n07718747_408.JPEG	152.05462884902954	0.6805450916290283
83	123.20776700973511	response	0	k		81.0	/home/egter/Projects/stimuli/pictures/n07718747_408.JPEG	152.72643280029297	
84	123.21650815010071	picture	0		84.0	82.0	/home/egter/Projects/stimuli/pictures/n03372029_7977.JPEG	152.73517394065857	0.7013709545135498
84	123.90770196914673	response	0	k		82.0	/home/egter/Projects/stimuli/pictures/n03372029_7977.JPEG	153.4263677597046	
85	123.91787910461426	picture	0		102.0	83.0	/home/egter/Projects/stimuli/pictures/R_S_yt-i4kSCZ8rNC0_11.png	153.43654489517212	0.8541419506072998
85	124.75831198692322	response	0	j		83.0	/home/egter/Projects/stimuli/pictures/R_S_yt-i4kSCZ8rNC0_11.png	154.27697777748108	
86	124.77202105522156	picture	0		155.0	84.0	/home/egter/Projects/stimuli/pictures/S_yt-82O1uT8dmv8_12.png	154.29068684577942	1.2986071109771729
86	126.05146718025208	response	0	k		84.0	/home/egter/Projects/stimuli/pictures/S_yt-82O1uT8dmv8_12.png	155.57013297080994	
87	126.07062816619873	picture	0		71.0	85.0	/home/egter/Projects/stimuli/pictures/n01756291_8423.JPEG	155.5892939567566	0.5902960300445557
87	126.64260411262512	response	0	k		85.0	/home/egter/Projects/stimuli/pictures/n01756291_8423.JPEG	156.16126990318298	
88	126.66092419624329	picture	0		87.0	86.0	/home/egter/Projects/stimuli/pictures/S_yt-TvU-aYjNa2c_21.png	156.17958998680115	0.7221620082855225
88	127.37439799308777	response	0	j		86.0	/home/egter/Projects/stimuli/pictures/S_yt-TvU-aYjNa2c_21.png	156.89306378364563	
89	127.38308620452881	picture	0		99.0	87.0	/home/egter/Projects/stimuli/pictures/R_S_wc-8bTJmWfuVyJ4_8.png	156.90175199508667	0.8264429569244385
89	128.1993851661682	response	0	j		87.0	/home/egter/Projects/stimuli/pictures/R_S_wc-8bTJmWfuVyJ4_8.png	157.71805095672607	
90	128.20952916145325	picture	0		116.0	88.0	/home/egter/Projects/stimuli/pictures/n03110669_7800.JPEG	157.7281949520111	0.9652528762817383
90	129.16604614257812	response	0	k		88.0	/home/egter/Projects/stimuli/pictures/n03110669_7800.JPEG	158.684711933136	
91	129.17478203773499	picture	0		115.0	89.0	/home/egter/Projects/stimuli/pictures/n07747607_14017.JPEG	158.69344782829285	0.9583339691162109
91	130.1243929862976	response	0	k		89.0	/home/egter/Projects/stimuli/pictures/n07747607_14017.JPEG	159.64305877685547	
92	130.1331160068512	picture	0		119.0	90.0	/home/egter/Projects/stimuli/pictures/S_yt-BQixB0mumIk_169.png	159.65178179740906	0.9930310249328613
92	131.11605405807495	response	0	j		90.0	/home/egter/Projects/stimuli/pictures/S_yt-BQixB0mumIk_169.png	160.6347198486328	
93	131.12614703178406	picture	0		152.0	91.0	/home/egter/Projects/stimuli/pictures/R_S_S005_C015_SDR_2K_AVC.png	160.64481282234192	1.273087978363037
93	132.38322615623474	response	0	k		91.0	/home/egter/Projects/stimuli/pictures/R_S_S005_C015_SDR_2K_AVC.png	161.9018919467926	
94	132.3992350101471	picture	0		94.0	92.0	/home/egter/Projects/stimuli/pictures/R_S_yt-etQaTgGOhR4_69.png	161.91790080070496	0.7894699573516846
94	133.1748809814453	response	0	j		92.0	/home/egter/Projects/stimuli/pictures/R_S_yt-etQaTgGOhR4_69.png	162.69354677200317	
95	133.18870496749878	picture	0		145.0	93.0	/home/egter/Projects/stimuli/pictures/R_S_yt-8y7Xhp2_2e0_168.png	162.70737075805664	1.2151751518249512
95	134.39104199409485	response	0	j		93.0	/home/egter/Projects/stimuli/pictures/R_S_yt-8y7Xhp2_2e0_168.png	163.9097077846527	
96	134.40388011932373	picture	0		116.0	94.0	/home/egter/Projects/stimuli/pictures/S_yt-T4GFfVaHxFY_16.png	163.9225459098816	0.9652519226074219
96	135.35766506195068	response	0	k		94.0	/home/egter/Projects/stimuli/pictures/S_yt-T4GFfVaHxFY_16.png	164.87633085250854	
97	135.36913204193115	picture	0		93.0	95.0	/home/egter/Projects/stimuli/pictures/n04456115_10477.JPEG	164.887797832489	0.7778100967407227
97	136.13315796852112	response	0	k		95.0	/home/egter/Projects/stimuli/pictures/n04456115_10477.JPEG	165.65182375907898	
98	136.14694213867188	picture	0		86.0	96.0	/home/egter/Projects/stimuli/pictures/n04228054_10211.JPEG	165.66560792922974	0.7221848964691162
98	136.85087513923645	response	0	k		96.0	/home/egter/Projects/stimuli/pictures/n04228054_10211.JPEG	166.3695409297943	
99	136.869127035141	picture	0		108.0	97.0	/home/egter/Projects/stimuli/pictures/S_comp_A012_C014_1223PT_v53_SDR_PS_FINAL_20180709_F0F8700_SDR_2K_AVC.png	166.38779282569885	0.9027760028839111
99	137.7581660747528	response	0	k		97.0	/home/egter/Projects/stimuli/pictures/S_comp_A012_C014_1223PT_v53_SDR_PS_FINAL_20180709_F0F8700_SDR_2K_AVC.png	167.27683186531067	
100	137.7719030380249	picture	0		107.0	98.0	/home/egter/Projects/stimuli/pictures/S_bing-www_msn_com_en-us_video_news_tommy-lasorda-salutes-national-league-champs_vp-AAtLThQ_4.png	167.29056882858276	0.8958330154418945
100	138.65092706680298	response	0	j		98.0	/home/egter/Projects/stimuli/pictures/S_bing-www_msn_com_en-us_video_news_tommy-lasorda-salutes-national-league-champs_vp-AAtLThQ_4.png	168.16959285736084	
101	138.6677360534668	picture	0		79.0	99.0	/home/egter/Projects/stimuli/pictures/R_S_pexels-kelly-lacy-6756531.png	168.18640184402466	0.6596889495849609
101	139.31602215766907	response	0	j		99.0	/home/egter/Projects/stimuli/pictures/R_S_pexels-kelly-lacy-6756531.png	168.83468794822693	
102	139.32742500305176	picture	0		86.0	100.0	/home/egter/Projects/stimuli/pictures/S_8d08M6iP-vU_44.png	168.84609079360962	0.7152731418609619
102	140.03263306617737	response	0	k		100.0	/home/egter/Projects/stimuli/pictures/S_8d08M6iP-vU_44.png	169.55129885673523	
103	140.04269814491272	picture	0		94.0	101.0	/home/egter/Projects/stimuli/pictures/n03673027_33261.JPEG	169.56136393547058	0.7847030162811279
103	140.8160150051117	response	0	k		101.0	/home/egter/Projects/stimuli/pictures/n03673027_33261.JPEG	170.33468079566956	
104	140.82740116119385	picture	0		137.0	102.0	/home/egter/Projects/stimuli/pictures/n02268853_852.JPEG	170.3460669517517	1.1389188766479492
104	141.95767402648926	response	0	k		102.0	/home/egter/Projects/stimuli/pictures/n02268853_852.JPEG	171.47633981704712	
105	141.9663200378418	picture	0		61.0	103.0	/home/egter/Projects/stimuli/pictures/ILSVRC2012_test_00087953.JPEG	171.48498582839966	0.5138790607452393
105	142.45921897888184	response	0	k		103.0	/home/egter/Projects/stimuli/pictures/ILSVRC2012_test_00087953.JPEG	171.9778847694397	
106	142.48019909858704	picture	0		84.0	104.0	/home/egter/Projects/stimuli/pictures/R_S_yt-YyKEeu2gLrI_158.png	171.9988648891449	0.7083339691162109
106	143.17482113838196	response	0	j		104.0	/home/egter/Projects/stimuli/pictures/R_S_yt-YyKEeu2gLrI_158.png	172.69348692893982	
107	143.18853306770325	picture	0		93.0	105.0	/home/egter/Projects/stimuli/pictures/R_S_yt-NuZy8Rjk4d0_156.png	172.7071988582611	0.7777481079101562
107	143.9576551914215	response	0	j		105.0	/home/egter/Projects/stimuli/pictures/R_S_yt-NuZy8Rjk4d0_156.png	173.47632098197937	
108	143.9662811756134	picture	0		117.0	106.0	/home/egter/Projects/stimuli/pictures/S_yt-r4st6Mt4EE8_85.png	173.48494696617126	0.9791719913482666
108	144.9326000213623	response	0	k		106.0	/home/egter/Projects/stimuli/pictures/S_yt-r4st6Mt4EE8_85.png	174.45126581192017	
109	144.94545316696167	picture	0		105.0	107.0	/home/egter/Projects/stimuli/pictures/n09399592_87608.JPEG	174.46411895751953	0.875018835067749
109	145.80780696868896	response	0	k		107.0	/home/egter/Projects/stimuli/pictures/n09399592_87608.JPEG	175.32647275924683	
110	145.82047200202942	picture	0		130.0	108.0	/home/egter/Projects/stimuli/pictures/n03496892_5663.JPEG	175.33913779258728	1.0832891464233398
110	146.89098715782166	response	0	k		108.0	/home/egter/Projects/stimuli/pictures/n03496892_5663.JPEG	176.40965294837952	
111	146.90376114845276	picture	0		74.0	109.0	/home/egter/Projects/stimuli/pictures/n02128925_73157.JPEG	176.42242693901062	0.6180539131164551
111	147.50810313224792	response	0	k		109.0	/home/egter/Projects/stimuli/pictures/n02128925_73157.JPEG	177.0267689228058	
112	147.5218150615692	picture	0		64.0	110.0	/home/egter/Projects/stimuli/pictures/n01945685_1342.JPEG	177.04048085212708	0.5416679382324219
112	148.04967498779297	response	0	k		110.0	/home/egter/Projects/stimuli/pictures/n01945685_1342.JPEG	177.56834077835083	
113	148.06348299980164	picture	0		87.0	111.0	/home/egter/Projects/stimuli/pictures/R_S_yt-7NjoFHBdP7c_102.png	177.5821487903595	0.7291550636291504
113	148.78262901306152	response	0	j		111.0	/home/egter/Projects/stimuli/pictures/R_S_yt-7NjoFHBdP7c_102.png	178.30129480361938	
114	148.7926380634308	picture	0		99.0	112.0	/home/egter/Projects/stimuli/pictures/R_S_yt-26009GpQuUg_3.png	178.31130385398865	0.8263750076293945
114	149.60764503479004	response	0	j		112.0	/home/egter/Projects/stimuli/pictures/R_S_yt-26009GpQuUg_3.png	179.1263108253479	
115	149.61901307106018	picture	0		82.0	113.0	/home/egter/Projects/stimuli/pictures/n01530575_7135.JPEG	179.13767886161804	0.6805140972137451
115	150.28410005569458	response	0	k		113.0	/home/egter/Projects/stimuli/pictures/n01530575_7135.JPEG	179.80276584625244	
116	150.29952716827393	picture	0		86.0	114.0	/home/egter/Projects/stimuli/pictures/n01667114_15503.JPEG	179.8181929588318	0.7222528457641602
116	151.00814819335938	response	0	k		114.0	/home/egter/Projects/stimuli/pictures/n01667114_15503.JPEG	180.52681398391724	
117	151.0217800140381	picture	0		46.0	115.0	/home/egter/Projects/stimuli/pictures/n02281406_387.JPEG	180.54044580459595	0.38888001441955566
117	151.3992040157318	response	0	k		115.0	/home/egter/Projects/stimuli/pictures/n02281406_387.JPEG	180.91786980628967	
118	151.41066002845764	picture	0		81.0	116.0	/home/egter/Projects/stimuli/pictures/n04243546_27828.JPEG	180.9293258190155	0.6736841201782227
118	152.0674421787262	response	0	k		116.0	/home/egter/Projects/stimuli/pictures/n04243546_27828.JPEG	181.58610796928406	
119	152.08434414863586	picture	0		80.0	117.0	/home/egter/Projects/stimuli/pictures/n03417042_20123.JPEG	181.60300993919373	0.6665899753570557
119	152.74094915390015	response	0	k		117.0	/home/egter/Projects/stimuli/pictures/n03417042_20123.JPEG	182.259614944458	
120	152.75093412399292	picture	0		94.0	118.0	/home/egter/Projects/stimuli/pictures/n04532670_3310.JPEG	182.26959991455078	0.7847080230712891
120	153.5242350101471	response	0	k		118.0	/home/egter/Projects/stimuli/pictures/n04532670_3310.JPEG	183.04290080070496	
121	153.5356421470642	picture	0		108.0	119.0	/home/egter/Projects/stimuli/pictures/S_yt-cjndulbUtRc_51.png	183.05430793762207	0.9027869701385498
121	154.42467308044434	response	0	k		119.0	/home/egter/Projects/stimuli/pictures/S_yt-cjndulbUtRc_51.png	183.9433388710022	
122	154.43842911720276	picture	0		98.0	120.0	/home/egter/Projects/stimuli/pictures/n02085782_12325.JPEG	183.95709490776062	0.8194248676300049
122	155.24926710128784	response	0	k		120.0	/home/egter/Projects/stimuli/pictures/n02085782_12325.JPEG	184.7679328918457	
123	155.25785398483276	picture	0		105.0	121.0	/home/egter/Projects/stimuli/pictures/S_yt-vacON8rxZaI_168.png	184.77651977539062	0.8750131130218506
123	156.12424516677856	response	0	j		121.0	/home/egter/Projects/stimuli/pictures/S_yt-vacON8rxZaI_168.png	185.64291095733643	
124	156.13286709785461	picture	0		98.0	122.0	/home/egter/Projects/stimuli/pictures/R_S_yt-O6W6CZPXvlA_15.png	185.65153288841248	0.8194789886474609
124	156.94102311134338	response	0	j		122.0	/home/egter/Projects/stimuli/pictures/R_S_yt-O6W6CZPXvlA_15.png	186.45968890190125	
125	156.95234608650208	picture	0		247.0	123.0	/home/egter/Projects/stimuli/pictures/S_yt-mWL9DHq4eRI_501.png	186.47101187705994	2.055504083633423
125	158.99925112724304	response	0	j		123.0	/home/egter/Projects/stimuli/pictures/S_yt-mWL9DHq4eRI_501.png	188.5179169178009	
126	159.0078501701355	picture	0		148.0	124.0	/home/egter/Projects/stimuli/pictures/S_yt-_68FWLGgPYE_25.png	188.52651596069336	1.2362170219421387
126	160.23255920410156	response	0	j		124.0	/home/egter/Projects/stimuli/pictures/S_yt-_68FWLGgPYE_25.png	189.75122499465942	
127	160.24406719207764	picture	0		99.0	125.0	/home/egter/Projects/stimuli/pictures/n01945685_2865.JPEG	189.7627329826355	0.8262839317321777
127	161.05108499526978	response	0	k		125.0	/home/egter/Projects/stimuli/pictures/n01945685_2865.JPEG	190.56975078582764	
128	161.07035112380981	picture	0		103.0	126.0	/home/egter/Projects/stimuli/pictures/n07716906_9330.JPEG	190.58901691436768	0.8541100025177002
128	161.91589498519897	response	0	k		126.0	/home/egter/Projects/stimuli/pictures/n07716906_9330.JPEG	191.43456077575684	
129	161.92446112632751	picture	0		70.0	127.0	/home/egter/Projects/stimuli/pictures/n02988304_11706.JPEG	191.44312691688538	0.5833349227905273
129	162.499183177948	response	0	k		127.0	/home/egter/Projects/stimuli/pictures/n02988304_11706.JPEG	192.01784896850586	
130	162.50779604911804	picture	0		83.0	128.0	/home/egter/Projects/stimuli/pictures/R_S_pexels-anthony-shkraba-7569650.png	192.0264618396759	0.6944410800933838
130	163.1908781528473	response	0	j		128.0	/home/egter/Projects/stimuli/pictures/R_S_pexels-anthony-shkraba-7569650.png	192.70954394340515	
131	163.20223712921143	picture	0		122.0	129.0	/home/egter/Projects/stimuli/pictures/S_yt-Zn0YwrsCFOQ_44.png	192.7209029197693	1.0138049125671387
131	164.20758318901062	response	0	j		129.0	/home/egter/Projects/stimuli/pictures/S_yt-Zn0YwrsCFOQ_44.png	193.72624897956848	
132	164.21604204177856	picture	0		203.0	130.0	/home/egter/Projects/stimuli/pictures/R_S_MEX_A006_C008_SDR_20190923_SDR_2K_AVC.png	193.73470783233643	1.6944849491119385
132	165.8992030620575	response	0	j		130.0	/home/egter/Projects/stimuli/pictures/R_S_MEX_A006_C008_SDR_20190923_SDR_2K_AVC.png	195.41786885261536	
133	165.9105269908905	picture	0		112.0	131.0	/home/egter/Projects/stimuli/pictures/n02487347_1261.JPEG	195.42919278144836	0.9305381774902344
133	166.83254098892212	response	0	k		131.0	/home/egter/Projects/stimuli/pictures/n02487347_1261.JPEG	196.35120677947998	
134	166.84106516838074	picture	0		94.0	132.0	/home/egter/Projects/stimuli/pictures/S_yt-v9WGfC67DPk_50.png	196.3597309589386	0.7847549915313721
134	167.61587500572205	response	0	j		132.0	/home/egter/Projects/stimuli/pictures/S_yt-v9WGfC67DPk_50.png	197.1345407962799	
135	167.6258201599121	picture	0		103.0	133.0	/home/egter/Projects/stimuli/pictures/R_S_pexels-cottonbro-10640532.png	197.14448595046997	0.8610658645629883
135	168.46782803535461	response	0	j		133.0	/home/egter/Projects/stimuli/pictures/R_S_pexels-cottonbro-10640532.png	197.98649382591248	
136	168.4868860244751	picture	0		96.0	134.0	/home/egter/Projects/stimuli/pictures/n04238763_25909.JPEG	198.00555181503296	0.7986071109771729
136	169.26745319366455	response	0	k		134.0	/home/egter/Projects/stimuli/pictures/n04238763_25909.JPEG	198.7861189842224	
137	169.28549313545227	picture	0		96.0	135.0	/home/egter/Projects/stimuli/pictures/S_yt-a5TGHnldsKg_102.png	198.80415892601013	0.7986400127410889
137	170.06737518310547	response	0	j		135.0	/home/egter/Projects/stimuli/pictures/S_yt-a5TGHnldsKg_102.png	199.58604097366333	
138	170.08413314819336	picture	0		130.0	136.0	/home/egter/Projects/stimuli/pictures/S_Pexels_Videos_2791797.png	199.60279893875122	1.083298921585083
138	171.15753412246704	response	0	j		136.0	/home/egter/Projects/stimuli/pictures/S_Pexels_Videos_2791797.png	200.6761999130249	
139	171.16743206977844	picture	0		188.0	137.0	/home/egter/Projects/stimuli/pictures/n03868863_5924.JPEG	200.6860978603363	1.5694489479064941
139	172.72421312332153	response	0	k		137.0	/home/egter/Projects/stimuli/pictures/n03868863_5924.JPEG	202.2428789138794	
140	172.73688101768494	picture	0		93.0	138.0	/home/egter/Projects/stimuli/pictures/S_pexels-mikhail-nilov-8410063_1.png	202.2555468082428	0.7708511352539062
140	173.4992229938507	response	0	j		138.0	/home/egter/Projects/stimuli/pictures/S_pexels-mikhail-nilov-8410063_1.png	203.01788878440857	
141	173.50773215293884	picture	0		94.0	139.0	/home/egter/Projects/stimuli/pictures/n03372029_76011.JPEG	203.0263979434967	0.78466796875
141	174.27569103240967	response	0	k		139.0	/home/egter/Projects/stimuli/pictures/n03372029_76011.JPEG	203.79435682296753	
142	174.29240012168884	picture	0		114.0	140.0	/home/egter/Projects/stimuli/pictures/R_S_yt-i1h9ZiYZ86U_28.png	203.8110659122467	0.9513769149780273
142	175.23252201080322	response	0	k		140.0	/home/egter/Projects/stimuli/pictures/R_S_yt-i1h9ZiYZ86U_28.png	204.75118780136108	
143	175.24377703666687	picture	0		97.0	141.0	/home/egter/Projects/stimuli/pictures/n01729322_5682.JPEG	204.76244282722473	0.8055379390716553
143	176.04084706306458	response	0	k		141.0	/home/egter/Projects/stimuli/pictures/n01729322_5682.JPEG	205.55951285362244	
144	176.04931497573853	picture	0		87.0	142.0	/home/egter/Projects/stimuli/pictures/R_S_yt-1sn8u-rQRas_7.png	205.5679807662964	0.729154109954834
144	176.7657971382141	response	0	j		142.0	/home/egter/Projects/stimuli/pictures/R_S_yt-1sn8u-rQRas_7.png	206.28446292877197	
145	176.77846908569336	picture	0		109.0	143.0	/home/egter/Projects/stimuli/pictures/S_ILSVRC2015_train_00415001.png	206.29713487625122	0.912247896194458
145	177.66744112968445	response	0	k		143.0	/home/egter/Projects/stimuli/pictures/S_ILSVRC2015_train_00415001.png	207.1861069202423	
146	177.69071698188782	picture	0		219.0	144.0	/home/egter/Projects/stimuli/pictures/S_ILnEDG_aP1A_35.png	207.20938277244568	1.8307712078094482
146	179.5077509880066	response	0	k		144.0	/home/egter/Projects/stimuli/pictures/S_ILnEDG_aP1A_35.png	209.02641677856445	
147	179.52148818969727	picture	0		90.0	145.0	/home/egter/Projects/stimuli/pictures/R_S_yt-0d5TkclKWVA_146.png	209.04015398025513	0.7569789886474609
147	180.25923705101013	response	0	j		145.0	/home/egter/Projects/stimuli/pictures/R_S_yt-0d5TkclKWVA_146.png	209.777902841568	
148	180.27846717834473	picture	0		101.0	146.0	/home/egter/Projects/stimuli/pictures/R_S_yt--WPE_4bqQXc_26.png	209.7971329689026	0.8402359485626221
148	181.10749912261963	response	0	k		146.0	/home/egter/Projects/stimuli/pictures/R_S_yt--WPE_4bqQXc_26.png	210.6261649131775	
149	181.11870312690735	picture	0		104.0	147.0	/home/egter/Projects/stimuli/pictures/R_S_ILSVRC2015_train_00471000.png	210.6373689174652	0.868074893951416
149	181.97422814369202	response	0	j		147.0	/home/egter/Projects/stimuli/pictures/R_S_ILSVRC2015_train_00471000.png	211.49289393424988	
150	181.98677802085876	picture	0		100.0	148.0	/home/egter/Projects/stimuli/pictures/S_yt-UzWRbs9Syf4_7.png	211.50544381141663	0.8333401679992676
150	182.80746006965637	response	0	j		148.0	/home/egter/Projects/stimuli/pictures/S_yt-UzWRbs9Syf4_7.png	212.32612586021423	
151	182.82011818885803	picture	0		202.0	149.0	/home/egter/Projects/stimuli/pictures/S_comp_GMT329_113NC_396B_1105_ITALY_v03_SDR_FINAL_20180706_SDR_2K_AVC.png	212.3387839794159	1.6874418258666992
151	184.4923791885376	response	0	j		149.0	/home/egter/Projects/stimuli/pictures/S_comp_GMT329_113NC_396B_1105_ITALY_v03_SDR_FINAL_20180706_SDR_2K_AVC.png	214.01104497909546	
152	184.50756001472473	picture	0		71.0	150.0	/home/egter/Projects/stimuli/pictures/n04515003_5632.JPEG	214.0262258052826	0.6081349849700928
152	185.09357500076294	response	0	k		150.0	/home/egter/Projects/stimuli/pictures/n04515003_5632.JPEG	214.6122407913208	
153	185.11569499969482	picture	0		92.0	151.0	/home/egter/Projects/stimuli/pictures/S_pexels-cottonbro-10639398.png	214.63436079025269	0.7668471336364746
153	185.86735200881958	response	0	j		151.0	/home/egter/Projects/stimuli/pictures/S_pexels-cottonbro-10639398.png	215.38601779937744	
154	185.8825421333313	picture	0		82.0	152.0	/home/egter/Projects/stimuli/pictures/n13037406_3364.JPEG	215.40120792388916	0.6876859664916992
154	186.55749702453613	response	0	k		152.0	/home/egter/Projects/stimuli/pictures/n13037406_3364.JPEG	216.076162815094	
155	186.570228099823	picture	0		91.0	153.0	/home/egter/Projects/stimuli/pictures/n04259630_16135.JPEG	216.08889389038086	0.7567698955535889
155	187.31575512886047	response	0	k		153.0	/home/egter/Projects/stimuli/pictures/n04259630_16135.JPEG	216.83442091941833	
156	187.3269979953766	picture	0		76.0	154.0	/home/egter/Projects/stimuli/pictures/n02097047_726.JPEG	216.84566378593445	0.6320030689239502
156	187.9491310119629	response	0	k		154.0	/home/egter/Projects/stimuli/pictures/n02097047_726.JPEG	217.46779680252075	
157	187.95900106430054	picture	0		116.0	155.0	/home/egter/Projects/stimuli/pictures/S_yt-aVKIgTiQp9A_29.png	217.4776668548584	0.9651889801025391
157	188.91575503349304	response	0	k		155.0	/home/egter/Projects/stimuli/pictures/S_yt-aVKIgTiQp9A_29.png	218.4344208240509	
158	188.92419004440308	picture	0		114.0	156.0	/home/egter/Projects/stimuli/pictures/R_S_ILSVRC2015_train_00682009.png	218.44285583496094	0.9514069557189941
158	189.86580300331116	response	0	j		156.0	/home/egter/Projects/stimuli/pictures/R_S_ILSVRC2015_train_00682009.png	219.38446879386902	
159	189.87559700012207	picture	0		129.0	157.0	/home/egter/Projects/stimuli/pictures/S_production_ID_4820868.png	219.39426279067993	1.0763580799102783
159	190.94079518318176	response	0	j		157.0	/home/egter/Projects/stimuli/pictures/S_production_ID_4820868.png	220.45946097373962	
160	190.95195508003235	picture	0		86.0	158.0	/home/egter/Projects/stimuli/pictures/ILSVRC2012_val_00039360.JPEG	220.4706208705902	0.7153089046478271
160	191.65741801261902	response	0	k		158.0	/home/egter/Projects/stimuli/pictures/ILSVRC2012_val_00039360.JPEG	221.17608380317688	
161	191.66726398468018	picture	0		79.0	159.0	/home/egter/Projects/stimuli/pictures/n02268853_582.JPEG	221.18592977523804	0.6596841812133789
161	192.31570506095886	response	0	k		159.0	/home/egter/Projects/stimuli/pictures/n02268853_582.JPEG	221.83437085151672	
162	192.32694816589355	picture	0		109.0	160.0	/home/egter/Projects/stimuli/pictures/S_ILSVRC2015_train_00479004.png	221.84561395645142	0.9136898517608643
162	193.2241461277008	response	0	k		160.0	/home/egter/Projects/stimuli/pictures/S_ILSVRC2015_train_00479004.png	222.74281191825867	
163	193.24063801765442	picture	0		113.0	161.0	/home/egter/Projects/stimuli/pictures/S_yt-22c5eZ1UNME_76.png	222.75930380821228	0.9473881721496582
163	194.17428016662598	response	0	k		161.0	/home/egter/Projects/stimuli/pictures/S_yt-22c5eZ1UNME_76.png	223.69294595718384	
164	194.18802618980408	picture	0		171.0	162.0	/home/egter/Projects/stimuli/pictures/S_yt-YOLaQ53ooks_195.png	223.70669198036194	1.430567979812622
164	195.6074721813202	response	0	k		162.0	/home/egter/Projects/stimuli/pictures/S_yt-YOLaQ53ooks_195.png	225.12613797187805	
165	195.6185941696167	picture	0		105.0	163.0	/home/egter/Projects/stimuli/pictures/R_S_yt-qjg6kRxNXK8_217.png	225.13725996017456	0.8749809265136719
165	196.47552609443665	response	0	j		163.0	/home/egter/Projects/stimuli/pictures/R_S_yt-qjg6kRxNXK8_217.png	225.9941918849945	
166	196.49357509613037	picture	0		99.0	164.0	/home/egter/Projects/stimuli/pictures/S_yt-NuZy8Rjk4d0_156.png	226.01224088668823	0.830427885055542
166	197.30742001533508	response	0	k		164.0	/home/egter/Projects/stimuli/pictures/S_yt-NuZy8Rjk4d0_156.png	226.82608580589294	
167	197.3240029811859	picture	0		115.0	165.0	/home/egter/Projects/stimuli/pictures/S_3y6RUJrI0j8_35.png	226.84266877174377	0.9612460136413574
167	198.27411818504333	response	0	k		165.0	/home/egter/Projects/stimuli/pictures/S_3y6RUJrI0j8_35.png	227.7927839756012	
168	198.28524899482727	picture	0		176.0	166.0	/home/egter/Projects/stimuli/pictures/S_yt-Xs-YKSogfak_24.png	227.80391478538513	1.4652431011199951
168	199.74075508117676	response	0	j		166.0	/home/egter/Projects/stimuli/pictures/S_yt-Xs-YKSogfak_24.png	229.25942087173462	
169	199.75049209594727	picture	0		75.0	167.0	/home/egter/Projects/stimuli/pictures/n02486261_14150.JPEG	229.26915788650513	0.6250379085540771
169	200.36574506759644	response	0	k		167.0	/home/egter/Projects/stimuli/pictures/n02486261_14150.JPEG	229.8844108581543	
170	200.37553000450134	picture	0		85.0	168.0	/home/egter/Projects/stimuli/pictures/R_S_pexels-roman-odintsov-8233166.png	229.8941957950592	0.7083051204681396
170	201.07406902313232	response	0	j		168.0	/home/egter/Projects/stimuli/pictures/R_S_pexels-roman-odintsov-8233166.png	230.59273481369019	
171	201.08383512496948	picture	0		83.0	169.0	/home/egter/Projects/stimuli/pictures/n03110669_12806.JPEG	230.60250091552734	0.6944270133972168
171	201.7658290863037	response	0	k		169.0	/home/egter/Projects/stimuli/pictures/n03110669_12806.JPEG	231.28449487686157	
172	201.7782621383667	picture	0		89.0	170.0	/home/egter/Projects/stimuli/pictures/R_S_yt-BJsMGxfjrZk_59.png	231.29692792892456	0.7569479942321777
172	202.52409100532532	response	0	j		170.0	/home/egter/Projects/stimuli/pictures/R_S_yt-BJsMGxfjrZk_59.png	232.04275679588318	
173	202.53521013259888	picture	0		123.0	171.0	/home/egter/Projects/stimuli/pictures/S_G5lrDxJJzfI_2.png	232.05387592315674	1.027742862701416
173	203.54921412467957	response	0	k		171.0	/home/egter/Projects/stimuli/pictures/S_G5lrDxJJzfI_2.png	233.06787991523743	
174	203.5629529953003	picture	0		156.0	172.0	/home/egter/Projects/stimuli/pictures/S_yt-dWF89kq2JIA_13.png	233.08161878585815	1.3055760860443115
174	204.85748505592346	response	0	j		172.0	/home/egter/Projects/stimuli/pictures/S_yt-dWF89kq2JIA_13.png	234.37615084648132	
175	204.8685290813446	picture	0		80.0	173.0	/home/egter/Projects/stimuli/pictures/n02108915_1331.JPEG	234.38719487190247	0.6666378974914551
175	205.52400708198547	response	0	k		173.0	/home/egter/Projects/stimuli/pictures/n02108915_1331.JPEG	235.04267287254333	
176	205.53516697883606	picture	0		96.0	174.0	/home/egter/Projects/stimuli/pictures/R_S_production_ID_4122384.png	235.05383276939392	0.7986111640930176
176	206.324077129364	response	0	j		174.0	/home/egter/Projects/stimuli/pictures/R_S_production_ID_4122384.png	235.84274291992188	
177	206.33377814292908	picture	0		97.0	175.0	/home/egter/Projects/stimuli/pictures/R_S_82eJpVKGnC0_188.png	235.85244393348694	0.8125360012054443
177	207.13247919082642	response	0	j		175.0	/home/egter/Projects/stimuli/pictures/R_S_82eJpVKGnC0_188.png	236.65114498138428	
178	207.14631414413452	picture	0		98.0	176.0	/home/egter/Projects/stimuli/pictures/n02279972_1491.JPEG	236.66497993469238	0.8193559646606445
178	207.95729517936707	response	0	k		176.0	/home/egter/Projects/stimuli/pictures/n02279972_1491.JPEG	237.47596096992493	
179	207.96567010879517	picture	0		151.0	177.0	/home/egter/Projects/stimuli/pictures/S_yt-WFiEvQuOqqg_18.png	237.48433589935303	1.2639150619506836
179	209.21578812599182	response	0	k		177.0	/home/egter/Projects/stimuli/pictures/S_yt-WFiEvQuOqqg_18.png	238.73445391654968	
180	209.22958517074585	picture	0		92.0	178.0	/home/egter/Projects/stimuli/pictures/R_S_pexels-cottonbro-10639398.png	238.7482509613037	0.7708449363708496
180	209.99071407318115	response	0	j		178.0	/home/egter/Projects/stimuli/pictures/R_S_pexels-cottonbro-10639398.png	239.509379863739	
181	210.0004301071167	picture	0		167.0	179.0	/home/egter/Projects/stimuli/pictures/n01692333_6133.JPEG	239.51909589767456	1.3901729583740234
181	211.38239908218384	response	0	k		179.0	/home/egter/Projects/stimuli/pictures/n01692333_6133.JPEG	240.9010648727417	
182	211.39060306549072	stim	0		556.0			240.90926885604858	4.633265018463135
182	216.01561403274536	response	0	space				245.53427982330322	
