trial_nr	onset	event_type	phase	response	nr_frames	picture_index	picture_file	onset_abs	duration
0	0.01345205307006836	stim	0		1556.0			38.74472403526306	12.977370977401733
0	12.974446058273315	response	0	space				51.70571804046631	
2	12.990823030471802	picture	0		121.0	0.0	/home/egter/Projects/stimuli/pictures/R_S_production_ID_4720614.png	51.722095012664795	1.0132009983062744
2	13.985517024993896	response	0	j		0.0	/home/egter/Projects/stimuli/pictures/R_S_production_ID_4720614.png	52.71678900718689	
3	14.004024028778076	picture	0		93.0	1.0	/home/egter/Projects/stimuli/pictures/S_yt-D6fhzH21T_E_26.png	52.73529601097107	0.7846808433532715
3	14.774892091751099	response	0	j		1.0	/home/egter/Projects/stimuli/pictures/S_yt-D6fhzH21T_E_26.png	53.50616407394409	
4	14.788704872131348	picture	0		78.0	2.0	/home/egter/Projects/stimuli/pictures/n03877845_20453.JPEG	53.51997685432434	0.652738094329834
4	15.425719976425171	response	0	k		2.0	/home/egter/Projects/stimuli/pictures/n03877845_20453.JPEG	54.156991958618164	
5	15.441442966461182	picture	0		78.0	3.0	/home/egter/Projects/stimuli/pictures/n04258138_7816.JPEG	54.172714948654175	0.6527879238128662
5	16.08255386352539	response	0	k		3.0	/home/egter/Projects/stimuli/pictures/n04258138_7816.JPEG	54.813825845718384	
6	16.094230890274048	picture	0		74.0	4.0	/home/egter/Projects/stimuli/pictures/n04037443_16803.JPEG	54.82550287246704	0.625007152557373
6	16.707536935806274	response	0	k		4.0	/home/egter/Projects/stimuli/pictures/n04037443_16803.JPEG	55.43880891799927	
7	16.71923804283142	picture	0		87.0	5.0	/home/egter/Projects/stimuli/pictures/R_S_wc-WgOBK5IL7vex_4.png	55.450510025024414	0.7382030487060547
7	17.434072971343994	response	0	j		5.0	/home/egter/Projects/stimuli/pictures/R_S_wc-WgOBK5IL7vex_4.png	56.16534495353699	
8	17.457441091537476	picture	0		68.0	6.0	/home/egter/Projects/stimuli/pictures/R_S_yt-roThCERxVCs_133.png	56.18871307373047	0.5673348903656006
8	18.01599907875061	response	0	k		6.0	/home/egter/Projects/stimuli/pictures/R_S_yt-roThCERxVCs_133.png	56.7472710609436	
9	18.024775981903076	picture	0		126.0	7.0	/home/egter/Projects/stimuli/pictures/n03841143_108.JPEG	56.75604796409607	1.0555438995361328
9	19.066547870635986	response	0	k		7.0	/home/egter/Projects/stimuli/pictures/n03841143_108.JPEG	57.79781985282898	
10	19.08031988143921	picture	0		76.0	8.0	/home/egter/Projects/stimuli/pictures/n04418357_25661.JPEG	57.8115918636322	0.6388471126556396
10	19.707515954971313	response	0	k		8.0	/home/egter/Projects/stimuli/pictures/n04418357_25661.JPEG	58.43878793716431	
11	19.71916699409485	picture	0		78.0	9.0	/home/egter/Projects/stimuli/pictures/R_S_yt-aqrdb6BiFx4_12.png	58.45043897628784	0.6528139114379883
11	20.358186960220337	response	0	j		9.0	/home/egter/Projects/stimuli/pictures/R_S_yt-aqrdb6BiFx4_12.png	59.08945894241333	
12	20.371980905532837	picture	0		77.0	10.0	/home/egter/Projects/stimuli/pictures/n03633091_3713.JPEG	59.10325288772583	0.6458041667938232
12	21.007490873336792	response	0	k		10.0	/home/egter/Projects/stimuli/pictures/n03633091_3713.JPEG	59.738762855529785	
13	21.01778507232666	picture	0		84.0	11.0	/home/egter/Projects/stimuli/pictures/S_ILSVRC2015_train_00495000.png	59.74905705451965	0.7013490200042725
13	21.707525968551636	response	0	j		11.0	/home/egter/Projects/stimuli/pictures/S_ILSVRC2015_train_00495000.png	60.43879795074463	
14	21.719134092330933	picture	0		82.0	12.0	/home/egter/Projects/stimuli/pictures/n04467665_33783.JPEG	60.450406074523926	0.6805758476257324
14	22.390856981277466	response	0	k		12.0	/home/egter/Projects/stimuli/pictures/n04467665_33783.JPEG	61.12212896347046	
15	22.399709939956665	picture	0		149.0	13.0	/home/egter/Projects/stimuli/pictures/S_yt-VdS-PZIDSlM_149.png	61.13098192214966	1.2430789470672607
15	23.625705003738403	response	0	k		13.0	/home/egter/Projects/stimuli/pictures/S_yt-VdS-PZIDSlM_149.png	62.3569769859314	
16	23.642788887023926	picture	0		107.0	14.0	/home/egter/Projects/stimuli/pictures/S_yt-U38nodRpSOA_54.png	62.37406086921692	0.8895959854125977
16	24.52484393119812	response	0	k		14.0	/home/egter/Projects/stimuli/pictures/S_yt-U38nodRpSOA_54.png	63.25611591339111	
17	24.532384872436523	picture	0		107.0	15.0	/home/egter/Projects/stimuli/pictures/S_I005_C008_CROP_SDR_2K_AVC.png	63.26365685462952	0.8951811790466309
17	25.415859937667847	response	0	k		15.0	/home/egter/Projects/stimuli/pictures/S_I005_C008_CROP_SDR_2K_AVC.png	64.14713191986084	
18	25.427566051483154	picture	0		94.0	16.0	/home/egter/Projects/stimuli/pictures/R_S_yt-FbCVXEJicis_5.png	64.15883803367615	0.7846028804779053
18	26.199159860610962	response	0	j		16.0	/home/egter/Projects/stimuli/pictures/R_S_yt-FbCVXEJicis_5.png	64.93043184280396	
19	26.21216893196106	picture	0		89.0	17.0	/home/egter/Projects/stimuli/pictures/n03777568_17175.JPEG	64.94344091415405	0.7500951290130615
19	26.94915509223938	response	0	k		17.0	/home/egter/Projects/stimuli/pictures/n03777568_17175.JPEG	65.68042707443237	
20	26.96226406097412	picture	0		92.0	18.0	/home/egter/Projects/stimuli/pictures/R_S_video_inspire_oregon_lone-ranch-beach_00001.png	65.69353604316711	0.7707209587097168
20	27.724194049835205	response	0	j		18.0	/home/egter/Projects/stimuli/pictures/R_S_video_inspire_oregon_lone-ranch-beach_00001.png	66.4554660320282	
21	27.732985019683838	picture	0		79.0	19.0	/home/egter/Projects/stimuli/pictures/n03733281_29174.JPEG	66.46425700187683	0.6597719192504883
21	28.382473945617676	response	0	k		19.0	/home/egter/Projects/stimuli/pictures/n03733281_29174.JPEG	67.11374592781067	
22	28.392756938934326	picture	0		417.0	20.0	/home/egter/Projects/stimuli/pictures/S_ILSVRC2015_train_00532000.png	67.12402892112732	3.472913980484009
22	31.850712060928345	response	0	j		20.0	/home/egter/Projects/stimuli/pictures/S_ILSVRC2015_train_00532000.png	70.58198404312134	
23	31.865670919418335	picture	0		81.0	21.0	/home/egter/Projects/stimuli/pictures/n03662601_1589.JPEG	70.59694290161133	0.679793119430542
23	32.53247594833374	response	0	k		21.0	/home/egter/Projects/stimuli/pictures/n03662601_1589.JPEG	71.26374793052673	
24	32.54546403884888	picture	0		99.0	22.0	/home/egter/Projects/stimuli/pictures/S_yt-o_CT2MjZ9fA_216.png	71.27673602104187	0.8333239555358887
24	33.365843057632446	response	0	j		22.0	/home/egter/Projects/stimuli/pictures/S_yt-o_CT2MjZ9fA_216.png	72.09711503982544	
25	33.378787994384766	picture	0		134.0	23.0	/home/egter/Projects/stimuli/pictures/R_S_flickr-reginahart-31964450591_23.png	72.11005997657776	1.1181120872497559
25	34.483097076416016	response	0	j		23.0	/home/egter/Projects/stimuli/pictures/R_S_flickr-reginahart-31964450591_23.png	73.21436905860901	
26	34.49690008163452	picture	0		108.0	24.0	/home/egter/Projects/stimuli/pictures/S_yt-sGckFFOLO30_164.png	73.22817206382751	0.902695894241333
26	35.390727043151855	response	0	j		24.0	/home/egter/Projects/stimuli/pictures/S_yt-sGckFFOLO30_164.png	74.12199902534485	
27	35.399595975875854	picture	0		78.0	25.0	/home/egter/Projects/stimuli/pictures/R_S_yt-4W224-RSCnM_15.png	74.13086795806885	0.6527841091156006
27	36.033940076828	response	0	j		25.0	/home/egter/Projects/stimuli/pictures/R_S_yt-4W224-RSCnM_15.png	74.765212059021	
28	36.052380084991455	picture	0		76.0	26.0	/home/egter/Projects/stimuli/pictures/S_yt-C0iWlRWU21o_5.png	74.78365206718445	0.6320137977600098
28	36.674110889434814	response	0	j		26.0	/home/egter/Projects/stimuli/pictures/S_yt-C0iWlRWU21o_5.png	75.40538287162781	
29	36.684393882751465	picture	0		79.0	27.0	/home/egter/Projects/stimuli/pictures/S_yt-n1snPiGfg0A_45.png	75.41566586494446	0.659602165222168
29	37.332441091537476	response	0	j		27.0	/home/egter/Projects/stimuli/pictures/S_yt-n1snPiGfg0A_45.png	76.06371307373047	
30	37.34399604797363	picture	0		116.0	28.0	/home/egter/Projects/stimuli/pictures/R_S_yt-AuQ_WxaNy4Y_255.png	76.07526803016663	0.9652688503265381
30	38.29921507835388	response	0	j		28.0	/home/egter/Projects/stimuli/pictures/R_S_yt-AuQ_WxaNy4Y_255.png	77.03048706054688	
31	38.30926489830017	picture	0		280.0	29.0	/home/egter/Projects/stimuli/pictures/S_yt-D9uD7yM6bxQ_269.png	77.04053688049316	2.33332896232605
31	40.6324360370636	response	0	j		29.0	/home/egter/Projects/stimuli/pictures/S_yt-D9uD7yM6bxQ_269.png	79.36370801925659	
32	40.64259386062622	picture	0		76.0	30.0	/home/egter/Projects/stimuli/pictures/n02490219_12145.JPEG	79.37386584281921	0.6319711208343506
32	41.26576805114746	response	0	k		30.0	/home/egter/Projects/stimuli/pictures/n02490219_12145.JPEG	79.99704003334045	
33	41.27456498146057	picture	0		74.0	31.0	/home/egter/Projects/stimuli/pictures/n02814533_67571.JPEG	80.00583696365356	0.6179940700531006
33	41.882421016693115	response	0	k		31.0	/home/egter/Projects/stimuli/pictures/n02814533_67571.JPEG	80.61369299888611	
34	41.89255905151367	picture	0		85.0	32.0	/home/egter/Projects/stimuli/pictures/R_S_yt-D6fhzH21T_E_26.png	80.62383103370667	0.7083399295806885
34	42.590744972229004	response	0	j		32.0	/home/egter/Projects/stimuli/pictures/R_S_yt-D6fhzH21T_E_26.png	81.322016954422	
35	42.60089898109436	picture	0		81.0	33.0	/home/egter/Projects/stimuli/pictures/n03447447_2895.JPEG	81.33217096328735	0.6736190319061279
35	43.258995056152344	response	0	k		33.0	/home/egter/Projects/stimuli/pictures/n03447447_2895.JPEG	81.99026703834534	
36	43.27451801300049	picture	0		104.0	34.0	/home/egter/Projects/stimuli/pictures/S_video_inspire_oregon_lone-ranch-beach_00001.png	82.00578999519348	0.8680419921875
36	44.1324520111084	response	0	j		34.0	/home/egter/Projects/stimuli/pictures/S_video_inspire_oregon_lone-ranch-beach_00001.png	82.86372399330139	
37	44.14256000518799	picture	0		87.0	35.0	/home/egter/Projects/stimuli/pictures/S_comp_H007_C003_PS_v01_SDR_PS_20180925_SDR_2K_AVC.png	82.87383198738098	0.729233980178833
37	44.8506600856781	response	0	j		35.0	/home/egter/Projects/stimuli/pictures/S_comp_H007_C003_PS_v01_SDR_PS_20180925_SDR_2K_AVC.png	83.5819320678711	
38	44.87179398536682	picture	0		90.0	36.0	/home/egter/Projects/stimuli/pictures/n02484975_6799.JPEG	83.60306596755981	0.7568669319152832
38	45.61573386192322	response	0	k		36.0	/home/egter/Projects/stimuli/pictures/n02484975_6799.JPEG	84.34700584411621	
39	45.628660917282104	picture	0		76.0	37.0	/home/egter/Projects/stimuli/pictures/n02017213_4782.JPEG	84.3599328994751	0.6319329738616943
39	46.242311000823975	response	0	k		37.0	/home/egter/Projects/stimuli/pictures/n02017213_4782.JPEG	84.97358298301697	
40	46.2605938911438	picture	0		79.0	38.0	/home/egter/Projects/stimuli/pictures/n03223299_2243.JPEG	84.99186587333679	0.6597421169281006
40	46.907373905181885	response	0	k		38.0	/home/egter/Projects/stimuli/pictures/n03223299_2243.JPEG	85.63864588737488	
41	46.9203360080719	picture	0		92.0	39.0	/home/egter/Projects/stimuli/pictures/S_yt-gMqeZkpA_1Q_61.png	85.65160799026489	0.7638740539550781
41	47.6740779876709	response	0	j		39.0	/home/egter/Projects/stimuli/pictures/S_yt-gMqeZkpA_1Q_61.png	86.40534996986389	
42	47.68421006202698	picture	0		84.0	40.0	/home/egter/Projects/stimuli/pictures/n03670208_42576.JPEG	86.41548204421997	0.7013468742370605
42	48.37403893470764	response	0	k		40.0	/home/egter/Projects/stimuli/pictures/n03670208_42576.JPEG	87.10531091690063	
43	48.38555693626404	picture	0		90.0	41.0	/home/egter/Projects/stimuli/pictures/R_S_yt-W4Shvmb1JYs_258.png	87.11682891845703	0.7500100135803223
43	49.12407088279724	response	0	j		41.0	/home/egter/Projects/stimuli/pictures/R_S_yt-W4Shvmb1JYs_258.png	87.85534286499023	
44	49.13556694984436	picture	0		81.0	42.0	/home/egter/Projects/stimuli/pictures/n04604644_8422.JPEG	87.86683893203735	0.673612117767334
44	49.79901885986328	response	0	k		42.0	/home/egter/Projects/stimuli/pictures/n04604644_8422.JPEG	88.53029084205627	
45	49.809179067611694	picture	0		80.0	43.0	/home/egter/Projects/stimuli/pictures/n01981276_1306.JPEG	88.54045104980469	0.6666879653930664
45	50.46575093269348	response	0	k		43.0	/home/egter/Projects/stimuli/pictures/n01981276_1306.JPEG	89.19702291488647	
46	50.47586703300476	picture	0		70.0	44.0	/home/egter/Projects/stimuli/pictures/n02974003_100.JPEG	89.20713901519775	0.5833208560943604
46	51.042316913604736	response	0	k		44.0	/home/egter/Projects/stimuli/pictures/n02974003_100.JPEG	89.77358889579773	
47	51.05918788909912	picture	0		65.0	45.0	/home/egter/Projects/stimuli/pictures/n01914609_165.JPEG	89.79045987129211	0.5416500568389893
47	51.59076404571533	response	0	k		45.0	/home/egter/Projects/stimuli/pictures/n01914609_165.JPEG	90.32203602790833	
48	51.60083794593811	picture	0		89.0	46.0	/home/egter/Projects/stimuli/pictures/n02504013_1702.JPEG	90.3321099281311	0.7430379390716553
48	52.332396030426025	response	0	k		46.0	/home/egter/Projects/stimuli/pictures/n02504013_1702.JPEG	91.06366801261902	
49	52.343875885009766	picture	0		62.0	47.0	/home/egter/Projects/stimuli/pictures/n01729322_12764.JPEG	91.07514786720276	0.5139131546020508
49	52.84223985671997	response	0	k		47.0	/home/egter/Projects/stimuli/pictures/n01729322_12764.JPEG	91.57351183891296	
50	52.857789039611816	picture	0		101.0	48.0	/home/egter/Projects/stimuli/pictures/S_yt-cJ7-H1Dckpk_33.png	91.58906102180481	0.8471789360046387
50	53.69119191169739	response	0	k		48.0	/home/egter/Projects/stimuli/pictures/S_yt-cJ7-H1Dckpk_33.png	92.42246389389038	
51	53.704967975616455	picture	0		316.0	49.0	/home/egter/Projects/stimuli/pictures/R_S_yt-YMI27rk5qUQ_117.png	92.43623995780945	2.6388349533081055
51	56.33238387107849	response	0	k		49.0	/home/egter/Projects/stimuli/pictures/R_S_yt-YMI27rk5qUQ_117.png	95.06365585327148	
52	56.34380292892456	picture	0		68.0	50.0	/home/egter/Projects/stimuli/pictures/n07693725_5486.JPEG	95.07507491111755	0.5695221424102783
52	56.8995099067688	response	0	k		50.0	/home/egter/Projects/stimuli/pictures/n07693725_5486.JPEG	95.63078188896179	
53	56.91332507133484	picture	0		80.0	51.0	/home/egter/Projects/stimuli/pictures/R_S_yt-fCjjH_4i8Fg_115.png	95.64459705352783	0.6736137866973877
53	57.574015855789185	response	0	j		51.0	/home/egter/Projects/stimuli/pictures/R_S_yt-fCjjH_4i8Fg_115.png	96.30528783798218	
54	57.58693885803223	picture	0		82.0	52.0	/home/egter/Projects/stimuli/pictures/R_S_yt-MUfa26F8dfE_97.png	96.31821084022522	0.6804900169372559
54	58.25055694580078	response	0	j		52.0	/home/egter/Projects/stimuli/pictures/R_S_yt-MUfa26F8dfE_97.png	96.98182892799377	
55	58.26742887496948	picture	0		74.0	53.0	/home/egter/Projects/stimuli/pictures/n07695742_10824.JPEG	96.99870085716248	0.6180880069732666
55	58.867249965667725	response	0	k		53.0	/home/egter/Projects/stimuli/pictures/n07695742_10824.JPEG	97.59852194786072	
56	58.88551688194275	picture	0		81.0	54.0	/home/egter/Projects/stimuli/pictures/S_yt-Dwgpjoikt84_71.png	97.61678886413574	0.6735811233520508
56	59.54901099205017	response	0	j		54.0	/home/egter/Projects/stimuli/pictures/S_yt-Dwgpjoikt84_71.png	98.28028297424316	
57	59.5590980052948	picture	0		74.0	55.0	/home/egter/Projects/stimuli/pictures/n01688243_3064.JPEG	98.2903699874878	0.6180059909820557
57	60.1656858921051	response	0	k		55.0	/home/egter/Projects/stimuli/pictures/n01688243_3064.JPEG	98.8969578742981	
58	60.177103996276855	picture	0		90.0	56.0	/home/egter/Projects/stimuli/pictures/R_S_yt-_BvMLZo0MG0_1226.png	98.90837597846985	0.7500169277191162
58	60.91563296318054	response	0	j		56.0	/home/egter/Projects/stimuli/pictures/R_S_yt-_BvMLZo0MG0_1226.png	99.64690494537354	
59	60.92712092399597	picture	0		89.0	57.0	/home/egter/Projects/stimuli/pictures/S_CR_A009_C007_SDR_20191113_SDR_2K_AVC.png	99.65839290618896	0.7430810928344727
59	61.651050090789795	response	0	j		57.0	/home/egter/Projects/stimuli/pictures/S_CR_A009_C007_SDR_20191113_SDR_2K_AVC.png	100.38232207298279	
60	61.670202016830444	picture	0		83.0	58.0	/home/egter/Projects/stimuli/pictures/n01685808_8425.JPEG	100.40147399902344	0.7036919593811035
60	62.357779026031494	response	0	k		58.0	/home/egter/Projects/stimuli/pictures/n01685808_8425.JPEG	101.08905100822449	
61	62.37389397621155	picture	0		141.0	59.0	/home/egter/Projects/stimuli/pictures/S_yt-H5LQq4MPIao_660.png	101.10516595840454	1.1782419681549072
61	63.5406699180603	response	0	j		59.0	/home/egter/Projects/stimuli/pictures/S_yt-H5LQq4MPIao_660.png	102.2719419002533	
62	63.552135944366455	picture	0		81.0	60.0	/home/egter/Projects/stimuli/pictures/n04037443_28373.JPEG	102.28340792655945	0.6808199882507324
62	64.21565008163452	response	0	k		60.0	/home/egter/Projects/stimuli/pictures/n04037443_28373.JPEG	102.94692206382751	
63	64.23295593261719	picture	0		94.0	61.0	/home/egter/Projects/stimuli/pictures/n01924916_385.JPEG	102.96422791481018	0.7843930721282959
63	65.00735402107239	response	0	k		61.0	/home/egter/Projects/stimuli/pictures/n01924916_385.JPEG	103.73862600326538	
64	65.01734900474548	picture	0		81.0	62.0	/home/egter/Projects/stimuli/pictures/n02128385_16959.JPEG	103.74862098693848	0.6736469268798828
64	65.68230891227722	response	0	k		62.0	/home/egter/Projects/stimuli/pictures/n02128385_16959.JPEG	104.41358089447021	
65	65.69099593162537	picture	0		143.0	63.0	/home/egter/Projects/stimuli/pictures/S_yt-VxTTEZNJWjs_110.png	104.42226791381836	1.1944069862365723
65	66.87400603294373	response	0	k		63.0	/home/egter/Projects/stimuli/pictures/S_yt-VxTTEZNJWjs_110.png	105.60527801513672	
66	66.88540291786194	picture	0		86.0	64.0	/home/egter/Projects/stimuli/pictures/n01740131_2939.JPEG	105.61667490005493	0.7152891159057617
66	67.59065103530884	response	0	k		64.0	/home/egter/Projects/stimuli/pictures/n01740131_2939.JPEG	106.32192301750183	
67	67.6006920337677	picture	0		99.0	65.0	/home/egter/Projects/stimuli/pictures/S_production_ID_3735542.png	106.3319640159607	0.8263719081878662
67	68.41564607620239	response	0	j		65.0	/home/egter/Projects/stimuli/pictures/S_production_ID_3735542.png	107.14691805839539	
68	68.42706394195557	picture	0		67.0	66.0	/home/egter/Projects/stimuli/pictures/n02119022_31789.JPEG	107.15833592414856	0.555535078048706
68	68.97399592399597	response	0	k		66.0	/home/egter/Projects/stimuli/pictures/n02119022_31789.JPEG	107.70526790618896	
69	68.98259902000427	picture	0		98.0	67.0	/home/egter/Projects/stimuli/pictures/R_S_I004_C014_SDR_2K_AVC.png	107.71387100219727	0.8194530010223389
69	69.79061698913574	response	0	j		67.0	/home/egter/Projects/stimuli/pictures/R_S_I004_C014_SDR_2K_AVC.png	108.52188897132874	
70	69.80205202102661	picture	0		69.0	68.0	/home/egter/Projects/stimuli/pictures/n01695060_5630.JPEG	108.5333240032196	0.5764200687408447
70	70.36559200286865	response	0	k		68.0	/home/egter/Projects/stimuli/pictures/n01695060_5630.JPEG	109.09686398506165	
71	70.37847208976746	picture	0		87.0	69.0	/home/egter/Projects/stimuli/pictures/S_yt-Xq6uX1jfFRk_21.png	109.10974407196045	0.7221767902374268
71	71.09060597419739	response	0	j		69.0	/home/egter/Projects/stimuli/pictures/S_yt-Xq6uX1jfFRk_21.png	109.82187795639038	
72	71.10064888000488	picture	0		75.0	70.0	/home/egter/Projects/stimuli/pictures/R_S_yt-452RKqKIeRU_16.png	109.83192086219788	0.6250300407409668
72	71.71570301055908	response	0	k		70.0	/home/egter/Projects/stimuli/pictures/R_S_yt-452RKqKIeRU_16.png	110.44697499275208	
73	71.72567892074585	picture	0		186.0	71.0	/home/egter/Projects/stimuli/pictures/S_video_inspire_california_big-sur_2020_00001.png	110.45695090293884	1.5485899448394775
73	73.25886392593384	response	0	k		71.0	/home/egter/Projects/stimuli/pictures/S_video_inspire_california_big-sur_2020_00001.png	111.99013590812683	
74	73.27426886558533	picture	0		79.0	72.0	/home/egter/Projects/stimuli/pictures/S_yt-lNevNqA8sIs_54.png	112.00554084777832	0.6597080230712891
74	73.92396593093872	response	0	k		72.0	/home/egter/Projects/stimuli/pictures/S_yt-lNevNqA8sIs_54.png	112.65523791313171	
75	73.93397688865662	picture	0		90.0	73.0	/home/egter/Projects/stimuli/pictures/S_ILSVRC2015_train_00404004.png	112.66524887084961	0.7499711513519287
75	74.66718792915344	response	0	j		73.0	/home/egter/Projects/stimuli/pictures/S_ILSVRC2015_train_00404004.png	113.39845991134644	
76	74.68394804000854	picture	0		66.0	74.0	/home/egter/Projects/stimuli/pictures/n03759954_13181.JPEG	113.41522002220154	0.5486090183258057
76	75.22401309013367	response	0	k		74.0	/home/egter/Projects/stimuli/pictures/n03759954_13181.JPEG	113.95528507232666	
77	75.23255705833435	picture	0		140.0	75.0	/home/egter/Projects/stimuli/pictures/S_cST9H3zu3zQ_126.png	113.96382904052734	1.1746928691864014
77	76.39065289497375	response	0	j		75.0	/home/egter/Projects/stimuli/pictures/S_cST9H3zu3zQ_126.png	115.12192487716675	
78	76.40724992752075	picture	0		67.0	76.0	/home/egter/Projects/stimuli/pictures/n04141327_3623.JPEG	115.13852190971375	0.5614290237426758
78	76.95732092857361	response	0	k		76.0	/home/egter/Projects/stimuli/pictures/n04141327_3623.JPEG	115.6885929107666	
79	76.96867895126343	picture	0		74.0	77.0	/home/egter/Projects/stimuli/pictures/S_yt-mDil5vGZb14_4049.png	115.69995093345642	0.618056058883667
79	77.57395005226135	response	0	j		77.0	/home/egter/Projects/stimuli/pictures/S_yt-mDil5vGZb14_4049.png	116.30522203445435	
80	77.5867350101471	picture	0		90.0	78.0	/home/egter/Projects/stimuli/pictures/S_yt-nYi_FfCjepk_74.png	116.31800699234009	0.7499780654907227
80	78.32399392127991	response	0	j		78.0	/home/egter/Projects/stimuli/pictures/S_yt-nYi_FfCjepk_74.png	117.0552659034729	
81	78.33671307563782	picture	0		78.0	79.0	/home/egter/Projects/stimuli/pictures/n02233338_32737.JPEG	117.06798505783081	0.6458139419555664
81	78.973965883255	response	0	k		79.0	/home/egter/Projects/stimuli/pictures/n02233338_32737.JPEG	117.705237865448	
82	78.98252701759338	picture	0		81.0	80.0	/home/egter/Projects/stimuli/pictures/S_flickr-53807584@N00-5566422012_16.png	117.71379899978638	0.6807229518890381
82	79.6493399143219	response	0	j		80.0	/home/egter/Projects/stimuli/pictures/S_flickr-53807584@N00-5566422012_16.png	118.38061189651489	
83	79.66324996948242	picture	0		70.0	81.0	/home/egter/Projects/stimuli/pictures/n03786901_1295.JPEG	118.39452195167542	0.5902309417724609
83	80.24062705039978	response	0	k		81.0	/home/egter/Projects/stimuli/pictures/n03786901_1295.JPEG	118.97189903259277	
84	80.25348091125488	picture	0		109.0	82.0	/home/egter/Projects/stimuli/pictures/R_S_production_ID_4325591.png	118.98475289344788	0.9095621109008789
84	81.14929604530334	response	0	j		82.0	/home/egter/Projects/stimuli/pictures/R_S_production_ID_4325591.png	119.88056802749634	
85	81.16304302215576	picture	0		79.0	83.0	/home/egter/Projects/stimuli/pictures/ILSVRC2012_test_00041531.JPEG	119.89431500434875	0.6666970252990723
85	81.81589388847351	response	0	k		83.0	/home/egter/Projects/stimuli/pictures/ILSVRC2012_test_00041531.JPEG	120.5471658706665	
86	81.82974004745483	picture	0		70.0	84.0	/home/egter/Projects/stimuli/pictures/S_yt-AKRjrTvvxFc_1804.png	120.56101202964783	0.59027099609375
86	82.40724992752075	response	0	k		84.0	/home/egter/Projects/stimuli/pictures/S_yt-AKRjrTvvxFc_1804.png	121.13852190971375	
87	82.42001104354858	picture	0		154.0	85.0	/home/egter/Projects/stimuli/pictures/S_yt-316ecr1BT84_44.png	121.15128302574158	1.284708023071289
87	83.69098401069641	response	0	j		85.0	/home/egter/Projects/stimuli/pictures/S_yt-316ecr1BT84_44.png	122.4222559928894	
88	83.70471906661987	picture	0		99.0	86.0	/home/egter/Projects/stimuli/pictures/S_ILSVRC2015_train_00278004.png	122.43599104881287	0.8333568572998047
88	84.52421188354492	response	0	j		86.0	/home/egter/Projects/stimuli/pictures/S_ILSVRC2015_train_00278004.png	123.25548386573792	
89	84.53807592391968	picture	0		82.0	87.0	/home/egter/Projects/stimuli/pictures/n02793495_14509.JPEG	123.26934790611267	0.6873760223388672
89	85.2155659198761	response	0	k		87.0	/home/egter/Projects/stimuli/pictures/n02793495_14509.JPEG	123.94683790206909	
90	85.22545194625854	picture	0		76.0	88.0	/home/egter/Projects/stimuli/pictures/n03196217_3605.JPEG	123.95672392845154	0.6320309638977051
90	85.84889006614685	response	0	k		88.0	/home/egter/Projects/stimuli/pictures/n03196217_3605.JPEG	124.58016204833984	
91	85.85748291015625	picture	0		80.0	89.0	/home/egter/Projects/stimuli/pictures/S_production_ID_4325591.png	124.58875489234924	0.6666290760040283
91	86.51559090614319	response	0	j		89.0	/home/egter/Projects/stimuli/pictures/S_production_ID_4325591.png	125.24686288833618	
92	86.52411198616028	picture	0		76.0	90.0	/home/egter/Projects/stimuli/pictures/R_S_pexels-koolshooters-7327412_1.png	125.25538396835327	0.6389110088348389
92	87.1492989063263	response	0	j		90.0	/home/egter/Projects/stimuli/pictures/R_S_pexels-koolshooters-7327412_1.png	125.88057088851929	
93	87.16302299499512	picture	0		68.0	91.0	/home/egter/Projects/stimuli/pictures/n02701002_7345.JPEG	125.89429497718811	0.5693960189819336
93	87.7238290309906	response	0	k		91.0	/home/egter/Projects/stimuli/pictures/n02701002_7345.JPEG	126.4551010131836	
94	87.73241901397705	picture	0		77.0	92.0	/home/egter/Projects/stimuli/pictures/n04347754_14708.JPEG	126.46369099617004	0.645859956741333
94	88.36554408073425	response	0	k		92.0	/home/egter/Projects/stimuli/pictures/n04347754_14708.JPEG	127.09681606292725	
95	88.37827897071838	picture	0		68.0	93.0	/home/egter/Projects/stimuli/pictures/R_S_DL_B002_C011_SDR_20191122_SDR_2K_AVC.png	127.10955095291138	0.5624899864196777
95	88.93219494819641	response	0	j		93.0	/home/egter/Projects/stimuli/pictures/R_S_DL_B002_C011_SDR_20191122_SDR_2K_AVC.png	127.6634669303894	
96	88.94076895713806	picture	0		71.0	94.0	/home/egter/Projects/stimuli/pictures/ILSVRC2012_val_00046975.JPEG	127.67204093933105	0.59722900390625
96	89.52417588233948	response	0	k		94.0	/home/egter/Projects/stimuli/pictures/ILSVRC2012_val_00046975.JPEG	128.25544786453247	
97	89.53799796104431	picture	0		83.0	95.0	/home/egter/Projects/stimuli/pictures/S_yt-ayx4rU9bJrU_179.png	128.2692699432373	0.6944310665130615
97	90.22389698028564	response	0	j		95.0	/home/egter/Projects/stimuli/pictures/S_yt-ayx4rU9bJrU_179.png	128.95516896247864	
98	90.23242902755737	picture	0		74.0	96.0	/home/egter/Projects/stimuli/pictures/n01978455_2309.JPEG	128.96370100975037	0.6180260181427002
98	90.84052205085754	response	0	k		96.0	/home/egter/Projects/stimuli/pictures/n01978455_2309.JPEG	129.57179403305054	
99	90.85045504570007	picture	0		85.0	97.0	/home/egter/Projects/stimuli/pictures/n02058221_7560.JPEG	129.58172702789307	0.7083330154418945
99	91.5488510131836	response	0	k		97.0	/home/egter/Projects/stimuli/pictures/n02058221_7560.JPEG	130.2801229953766	
100	91.55878806114197	picture	0		73.0	98.0	/home/egter/Projects/stimuli/pictures/n13044778_1117.JPEG	130.29006004333496	0.6111359596252441
100	92.15719103813171	response	0	k		98.0	/home/egter/Projects/stimuli/pictures/n13044778_1117.JPEG	130.8884630203247	
101	92.16992402076721	picture	0		129.0	99.0	/home/egter/Projects/stimuli/pictures/R_S_ILSVRC2015_train_00425000.png	130.9011960029602	1.0763540267944336
101	93.23249006271362	response	0	j		99.0	/home/egter/Projects/stimuli/pictures/R_S_ILSVRC2015_train_00425000.png	131.96376204490662	
102	93.24627804756165	picture	0		88.0	100.0	/home/egter/Projects/stimuli/pictures/n02106382_2644.JPEG	131.97755002975464	0.7360730171203613
102	93.97385501861572	response	0	k		100.0	/home/egter/Projects/stimuli/pictures/n02106382_2644.JPEG	132.70512700080872	
103	93.982351064682	picture	0		70.0	101.0	/home/egter/Projects/stimuli/pictures/n04252225_9518.JPEG	132.713623046875	0.5833079814910889
103	94.5571858882904	response	0	k		101.0	/home/egter/Projects/stimuli/pictures/n04252225_9518.JPEG	133.2884578704834	
104	94.5656590461731	picture	0		68.0	102.0	/home/egter/Projects/stimuli/pictures/n01824575_2029.JPEG	133.2969310283661	0.5694758892059326
104	95.12381386756897	response	0	k		102.0	/home/egter/Projects/stimuli/pictures/n01824575_2029.JPEG	133.85508584976196	
105	95.13513493537903	picture	0		84.0	103.0	/home/egter/Projects/stimuli/pictures/n03843555_13908.JPEG	133.86640691757202	0.7013731002807617
105	95.82383298873901	response	0	k		103.0	/home/egter/Projects/stimuli/pictures/n03843555_13908.JPEG	134.555104970932	
106	95.83650803565979	picture	0		77.0	104.0	/home/egter/Projects/stimuli/pictures/S_yt-tneuR3EtSZE_72.png	134.56778001785278	0.6388888359069824
106	96.45880103111267	response	0	j		104.0	/home/egter/Projects/stimuli/pictures/S_yt-tneuR3EtSZE_72.png	135.19007301330566	
107	96.47539687156677	picture	0		77.0	105.0	/home/egter/Projects/stimuli/pictures/S_yt-patyDyMQU8M_4.png	135.20666885375977	0.6458420753479004
107	97.1074059009552	response	0	k		105.0	/home/egter/Projects/stimuli/pictures/S_yt-patyDyMQU8M_4.png	135.8386778831482	
108	97.12123894691467	picture	0		100.0	106.0	/home/egter/Projects/stimuli/pictures/S_yt-giRwl4yChlw_9.png	135.85251092910767	0.8402731418609619
108	97.94883990287781	response	0	j		106.0	/home/egter/Projects/stimuli/pictures/S_yt-giRwl4yChlw_9.png	136.6801118850708	
109	97.96151208877563	picture	0		113.0	107.0	/home/egter/Projects/stimuli/pictures/R_S_production_ID_3735542.png	136.69278407096863	0.9374699592590332
109	98.89052605628967	response	0	j		107.0	/home/egter/Projects/stimuli/pictures/R_S_production_ID_3735542.png	137.62179803848267	
110	98.89898204803467	picture	0		77.0	108.0	/home/egter/Projects/stimuli/pictures/S_production_ID_5049072.png	137.63025403022766	0.6458230018615723
110	99.53218507766724	response	0	j		108.0	/home/egter/Projects/stimuli/pictures/S_production_ID_5049072.png	138.26345705986023	
111	99.54480504989624	picture	0		86.0	109.0	/home/egter/Projects/stimuli/pictures/R_S_yt-YykKZWKmLnQ_386.png	138.27607703208923	0.7152798175811768
111	100.24885296821594	response	0	j		109.0	/home/egter/Projects/stimuli/pictures/R_S_yt-YykKZWKmLnQ_386.png	138.98012495040894	
112	100.26008486747742	picture	0		84.0	110.0	/home/egter/Projects/stimuli/pictures/R_S_bing-www_nbcnews_com_storyline_isis-terror_fall-isis-stronghold-raqqa-will-change-war-extremists-not-end-n808621_86.png	138.9913568496704	0.7015511989593506
112	100.9488480091095	response	0	j		110.0	/home/egter/Projects/stimuli/pictures/R_S_bing-www_nbcnews_com_storyline_isis-terror_fall-isis-stronghold-raqqa-will-change-war-extremists-not-end-n808621_86.png	139.6801199913025	
113	100.96163606643677	picture	0		74.0	111.0	/home/egter/Projects/stimuli/pictures/n01630670_5687.JPEG	139.69290804862976	0.6178989410400391
113	101.56570100784302	response	0	k		111.0	/home/egter/Projects/stimuli/pictures/n01630670_5687.JPEG	140.296972990036	
114	101.5795350074768	picture	0		106.0	112.0	/home/egter/Projects/stimuli/pictures/R_S_yt-kYMffy4hTMo_107.png	140.3108069896698	0.8888459205627441
114	102.45715403556824	response	0	j		112.0	/home/egter/Projects/stimuli/pictures/R_S_yt-kYMffy4hTMo_107.png	141.18842601776123	
115	102.46838092803955	picture	0		100.0	113.0	/home/egter/Projects/stimuli/pictures/S_b5-3.png	141.19965291023254	0.8333420753479004
115	103.29050207138062	response	0	j		113.0	/home/egter/Projects/stimuli/pictures/S_b5-3.png	142.0217740535736	
116	103.30172300338745	picture	0		76.0	114.0	/home/egter/Projects/stimuli/pictures/n02099429_5840.JPEG	142.03299498558044	0.6319630146026611
116	103.92382907867432	response	0	k		114.0	/home/egter/Projects/stimuli/pictures/n02099429_5840.JPEG	142.6551010608673	
117	103.93368601799011	picture	0		92.0	115.0	/home/egter/Projects/stimuli/pictures/S_yt-SHTeTAnZgho_43.png	142.6649580001831	0.7707860469818115
117	104.69067192077637	response	0	j		115.0	/home/egter/Projects/stimuli/pictures/S_yt-SHTeTAnZgho_43.png	143.42194390296936	
118	104.70447206497192	picture	0		82.0	116.0	/home/egter/Projects/stimuli/pictures/R_S_pexels-marcus-aurelius-6785014.png	143.43574404716492	0.6875209808349609
118	105.3821439743042	response	0	j		116.0	/home/egter/Projects/stimuli/pictures/R_S_pexels-marcus-aurelius-6785014.png	144.1134159564972	
119	105.39199304580688	picture	0		93.0	117.0	/home/egter/Projects/stimuli/pictures/R_S_yt-SyePE8wOlxs_321.png	144.12326502799988	0.7777798175811768
119	106.15716695785522	response	0	j		117.0	/home/egter/Projects/stimuli/pictures/R_S_yt-SyePE8wOlxs_321.png	144.88843894004822	
120	106.16977286338806	picture	0		85.0	118.0	/home/egter/Projects/stimuli/pictures/n02095889_16322.JPEG	144.90104484558105	0.7083041667938232
120	106.85885405540466	response	0	k		118.0	/home/egter/Projects/stimuli/pictures/n02095889_16322.JPEG	145.59012603759766	
121	106.87807703018188	picture	0		202.0	119.0	/home/egter/Projects/stimuli/pictures/R_S_yt-T_qmGKyeKNU_32.png	145.60934901237488	1.6805379390716553
121	108.54883003234863	response	0	j		119.0	/home/egter/Projects/stimuli/pictures/R_S_yt-T_qmGKyeKNU_32.png	147.28010201454163	
122	108.55861496925354	picture	0		99.0	120.0	/home/egter/Projects/stimuli/pictures/R_S_yt-bH4nJibL4Jo_164.png	147.28988695144653	0.8263649940490723
122	109.37383389472961	response	0	j		120.0	/home/egter/Projects/stimuli/pictures/R_S_yt-bH4nJibL4Jo_164.png	148.1051058769226	
123	109.38497996330261	picture	0		83.0	121.0	/home/egter/Projects/stimuli/pictures/n02701002_4286.JPEG	148.1162519454956	0.694533109664917
123	110.05870509147644	response	0	k		121.0	/home/egter/Projects/stimuli/pictures/n02701002_4286.JPEG	148.78997707366943	
124	110.07951307296753	picture	0		175.0	122.0	/home/egter/Projects/stimuli/pictures/S_yt-pB-AcJ71tzA_20.png	148.81078505516052	1.4651799201965332
124	111.53213095664978	response	0	k		122.0	/home/egter/Projects/stimuli/pictures/S_yt-pB-AcJ71tzA_20.png	150.26340293884277	
125	111.54469299316406	picture	0		68.0	123.0	/home/egter/Projects/stimuli/pictures/n04275548_2334.JPEG	150.27596497535706	0.5625100135803223
125	112.09195804595947	response	0	k		123.0	/home/egter/Projects/stimuli/pictures/n04275548_2334.JPEG	150.82323002815247	
126	112.10720300674438	picture	0		112.0	124.0	/home/egter/Projects/stimuli/pictures/R_S_yt-J8E_BpSJMpk_5.png	150.83847498893738	0.9375028610229492
126	113.03221487998962	response	0	j		124.0	/home/egter/Projects/stimuli/pictures/R_S_yt-J8E_BpSJMpk_5.png	151.76348686218262	
127	113.04470586776733	picture	0		72.0	125.0	/home/egter/Projects/stimuli/pictures/R_S_yt-SHTeTAnZgho_43.png	151.77597784996033	0.5971910953521729
127	113.63211703300476	response	0	j		125.0	/home/egter/Projects/stimuli/pictures/R_S_yt-SHTeTAnZgho_43.png	152.36338901519775	
128	113.6418969631195	picture	0		104.0	126.0	/home/egter/Projects/stimuli/pictures/S_comp_A008_C007_011550_CC_v01_SDR_PS_FINAL_20180709_SDR_2K_AVC.png	152.3731689453125	0.8680651187896729
128	114.49879908561707	response	0	j		126.0	/home/egter/Projects/stimuli/pictures/S_comp_A008_C007_011550_CC_v01_SDR_PS_FINAL_20180709_SDR_2K_AVC.png	153.23007106781006	
129	114.50996208190918	picture	0		74.0	127.0	/home/egter/Projects/stimuli/pictures/S_yt-Faxdis4m3Fw_9.png	153.24123406410217	0.6181609630584717
129	115.11549401283264	response	0	j		127.0	/home/egter/Projects/stimuli/pictures/S_yt-Faxdis4m3Fw_9.png	153.84676599502563	
130	115.12812304496765	picture	0		104.0	128.0	/home/egter/Projects/stimuli/pictures/S_yt-urJgH6tpfkU_204.png	153.85939502716064	0.8679308891296387
130	115.98220992088318	response	0	j		128.0	/home/egter/Projects/stimuli/pictures/S_yt-urJgH6tpfkU_204.png	154.71348190307617	
131	115.99605393409729	picture	0		70.0	129.0	/home/egter/Projects/stimuli/pictures/n02979186_2693.JPEG	154.72732591629028	0.5902519226074219
131	116.57379388809204	response	0	k		129.0	/home/egter/Projects/stimuli/pictures/n02979186_2693.JPEG	155.30506587028503	
132	116.58630585670471	picture	0		77.0	130.0	/home/egter/Projects/stimuli/pictures/n01798484_6394.JPEG	155.3175778388977	0.64571213722229
132	117.21540999412537	response	0	k		130.0	/home/egter/Projects/stimuli/pictures/n01798484_6394.JPEG	155.94668197631836	
133	117.232017993927	picture	0		127.0	131.0	/home/egter/Projects/stimuli/pictures/n02101556_5243.JPEG	155.96328997612	1.062696933746338
133	118.27551507949829	response	0	k		131.0	/home/egter/Projects/stimuli/pictures/n02101556_5243.JPEG	157.00678706169128	
134	118.29471492767334	picture	0		83.0	132.0	/home/egter/Projects/stimuli/pictures/n03095699_3846.JPEG	157.02598690986633	0.701369047164917
134	118.9821720123291	response	0	k		132.0	/home/egter/Projects/stimuli/pictures/n03095699_3846.JPEG	157.7134439945221	
135	118.99608397483826	picture	0		74.0	133.0	/home/egter/Projects/stimuli/pictures/n02099267_858.JPEG	157.72735595703125	0.6249210834503174
135	119.6071228981018	response	0	k		133.0	/home/egter/Projects/stimuli/pictures/n02099267_858.JPEG	158.3383948802948	
136	119.62100505828857	picture	0		74.0	134.0	/home/egter/Projects/stimuli/pictures/R_S_yt-Xq6uX1jfFRk_21.png	158.35227704048157	0.6250298023223877
136	120.23213696479797	response	0	j		134.0	/home/egter/Projects/stimuli/pictures/R_S_yt-Xq6uX1jfFRk_21.png	158.96340894699097	
137	120.24603486061096	picture	0		127.0	135.0	/home/egter/Projects/stimuli/pictures/R_S_yt-2y6A9DJPsDU_65.png	158.97730684280396	1.0624620914459229
137	121.29873204231262	response	0	j		135.0	/home/egter/Projects/stimuli/pictures/R_S_yt-2y6A9DJPsDU_65.png	160.03000402450562	
138	121.30849695205688	picture	0		74.0	136.0	/home/egter/Projects/stimuli/pictures/n03891251_3162.JPEG	160.03976893424988	0.6180620193481445
138	121.91541790962219	response	0	k		136.0	/home/egter/Projects/stimuli/pictures/n03891251_3162.JPEG	160.64668989181519	
139	121.92655897140503	picture	0		94.0	137.0	/home/egter/Projects/stimuli/pictures/R_S_yt-nYi_FfCjepk_74.png	160.65783095359802	0.7847669124603271
139	122.69872403144836	response	0	j		137.0	/home/egter/Projects/stimuli/pictures/R_S_yt-nYi_FfCjepk_74.png	161.42999601364136	
140	122.71132588386536	picture	0		96.0	138.0	/home/egter/Projects/stimuli/pictures/R_S_yt-VxTTEZNJWjs_110.png	161.44259786605835	0.7985281944274902
140	123.4987518787384	response	0	j		138.0	/home/egter/Projects/stimuli/pictures/R_S_yt-VxTTEZNJWjs_110.png	162.2300238609314	
141	123.50985407829285	picture	0		106.0	139.0	/home/egter/Projects/stimuli/pictures/S_yt-ieA3XwoSko4_98.png	162.24112606048584	0.8819119930267334
141	124.38210988044739	response	0	j		139.0	/home/egter/Projects/stimuli/pictures/S_yt-ieA3XwoSko4_98.png	163.11338186264038	
142	124.39176607131958	picture	0		72.0	140.0	/home/egter/Projects/stimuli/pictures/n01798484_14483.JPEG	163.12303805351257	0.6041808128356934
142	124.98218393325806	response	0	k		140.0	/home/egter/Projects/stimuli/pictures/n01798484_14483.JPEG	163.71345591545105	
143	124.99594688415527	picture	0		68.0	141.0	/home/egter/Projects/stimuli/pictures/n03841143_132.JPEG	163.72721886634827	0.5694370269775391
143	125.55707287788391	response	0	k		141.0	/home/egter/Projects/stimuli/pictures/n03841143_132.JPEG	164.2883448600769	
144	125.56538391113281	picture	0		65.0	142.0	/home/egter/Projects/stimuli/pictures/n02701002_5649.JPEG	164.2966558933258	0.5417029857635498
144	126.09194207191467	response	0	k		142.0	/home/egter/Projects/stimuli/pictures/n02701002_5649.JPEG	164.82321405410767	
145	126.10708689689636	picture	0		91.0	143.0	/home/egter/Projects/stimuli/pictures/n09193705_48522.JPEG	164.83835887908936	0.7639560699462891
145	126.8572039604187	response	0	k		143.0	/home/egter/Projects/stimuli/pictures/n09193705_48522.JPEG	165.5884759426117	
146	126.87104296684265	picture	0		62.0	144.0	/home/egter/Projects/stimuli/pictures/n02037110_3698.JPEG	165.60231494903564	0.5207610130310059
146	127.38209199905396	response	0	k		144.0	/home/egter/Projects/stimuli/pictures/n02037110_3698.JPEG	166.11336398124695	
147	127.39180397987366	picture	0		66.0	145.0	/home/egter/Projects/stimuli/pictures/n03481172_1457.JPEG	166.12307596206665	0.5485529899597168
147	127.93209385871887	response	0	k		145.0	/home/egter/Projects/stimuli/pictures/n03481172_1457.JPEG	166.66336584091187	
148	127.94035696983337	picture	0		85.0	146.0	/home/egter/Projects/stimuli/pictures/S_production_ID_4101307.png	166.67162895202637	0.7084629535675049
148	128.64041304588318	response	0	j		146.0	/home/egter/Projects/stimuli/pictures/S_production_ID_4101307.png	167.37168502807617	
149	128.64881992340088	picture	0		106.0	147.0	/home/egter/Projects/stimuli/pictures/S_yt-EuyfT0PuOoQ_91.png	167.38009190559387	0.888869047164917
149	129.5238299369812	response	0	j		147.0	/home/egter/Projects/stimuli/pictures/S_yt-EuyfT0PuOoQ_91.png	168.2551019191742	
150	129.5376889705658	picture	0		77.0	148.0	/home/egter/Projects/stimuli/pictures/n01744401_3439.JPEG	168.2689609527588	0.6457390785217285
150	130.17372608184814	response	0	k		148.0	/home/egter/Projects/stimuli/pictures/n01744401_3439.JPEG	168.90499806404114	
151	130.18342804908752	picture	0		81.0	149.0	/home/egter/Projects/stimuli/pictures/R_S_yt-giRwl4yChlw_9.png	168.91470003128052	0.6736199855804443
151	130.8487560749054	response	0	j		149.0	/home/egter/Projects/stimuli/pictures/R_S_yt-giRwl4yChlw_9.png	169.5800280570984	
152	130.85704803466797	picture	0		75.0	150.0	/home/egter/Projects/stimuli/pictures/S_production_ID_4720614.png	169.58832001686096	0.6250138282775879
152	131.46688508987427	response	0	j		150.0	/home/egter/Projects/stimuli/pictures/S_production_ID_4720614.png	170.19815707206726	
153	131.48206186294556	picture	0		77.0	151.0	/home/egter/Projects/stimuli/pictures/n03445924_22524.JPEG	170.21333384513855	0.64583420753479
153	132.11535596847534	response	0	k		151.0	/home/egter/Projects/stimuli/pictures/n03445924_22524.JPEG	170.84662795066833	
154	132.12789607048035	picture	0		105.0	152.0	/home/egter/Projects/stimuli/pictures/n03388043_13053.JPEG	170.85916805267334	0.8749918937683105
154	132.99037504196167	response	0	k		152.0	/home/egter/Projects/stimuli/pictures/n03388043_13053.JPEG	171.72164702415466	
155	133.00288796424866	picture	0		92.0	153.0	/home/egter/Projects/stimuli/pictures/R_S_yt-mDil5vGZb14_4049.png	171.73415994644165	0.7638039588928223
155	133.75705409049988	response	0	j		153.0	/home/egter/Projects/stimuli/pictures/R_S_yt-mDil5vGZb14_4049.png	172.48832607269287	
156	133.76669192314148	picture	0		64.0	154.0	/home/egter/Projects/stimuli/pictures/n03982430_519.JPEG	172.49796390533447	0.5347440242767334
156	134.28361105918884	response	0	k		154.0	/home/egter/Projects/stimuli/pictures/n03982430_519.JPEG	173.01488304138184	
157	134.3014359474182	picture	0		102.0	155.0	/home/egter/Projects/stimuli/pictures/R_S_ILSVRC2015_train_00460000.png	173.0327079296112	0.847235918045044
157	135.14041304588318	response	0	j		155.0	/home/egter/Projects/stimuli/pictures/R_S_ILSVRC2015_train_00460000.png	173.87168502807617	
158	135.14867186546326	picture	0		67.0	156.0	/home/egter/Projects/stimuli/pictures/R_S_yt-tneuR3EtSZE_72.png	173.87994384765625	0.5624420642852783
158	135.69196796417236	response	0	j		156.0	/home/egter/Projects/stimuli/pictures/R_S_yt-tneuR3EtSZE_72.png	174.42323994636536	
159	135.71111392974854	picture	0		100.0	157.0	/home/egter/Projects/stimuli/pictures/R_S_comp_N013_C004_PS_v01_SDR_PS_20180925_F1970F7193_SDR_2K_AVC.png	174.44238591194153	0.8375401496887207
159	136.53205704689026	response	0	j		157.0	/home/egter/Projects/stimuli/pictures/R_S_comp_N013_C004_PS_v01_SDR_PS_20180925_F1970F7193_SDR_2K_AVC.png	175.26332902908325	
160	136.54865407943726	picture	0		95.0	158.0	/home/egter/Projects/stimuli/pictures/S_yt-8N5UuN5WQcY_72.png	175.27992606163025	0.794381856918335
160	137.33207297325134	response	0	j		158.0	/home/egter/Projects/stimuli/pictures/S_yt-8N5UuN5WQcY_72.png	176.06334495544434	
161	137.3430359363556	picture	0		74.0	159.0	/home/egter/Projects/stimuli/pictures/S_g201_CA_A016_C002_SDR_20191114_SDR_2K_AVC.png	176.07430791854858	0.6180779933929443
161	137.94869089126587	response	0	j		159.0	/home/egter/Projects/stimuli/pictures/S_g201_CA_A016_C002_SDR_20191114_SDR_2K_AVC.png	176.67996287345886	
162	137.96111392974854	picture	0		88.0	160.0	/home/egter/Projects/stimuli/pictures/n04389033_58437.JPEG	176.69238591194153	0.7291221618652344
162	138.67510199546814	response	0	k		160.0	/home/egter/Projects/stimuli/pictures/n04389033_58437.JPEG	177.40637397766113	
163	138.69023609161377	picture	0		76.0	161.0	/home/egter/Projects/stimuli/pictures/n02493509_13738.JPEG	177.42150807380676	0.6417667865753174
163	139.3154809474945	response	0	k		161.0	/home/egter/Projects/stimuli/pictures/n02493509_13738.JPEG	178.0467529296875	
164	139.3320028781891	picture	0		65.0	162.0	/home/egter/Projects/stimuli/pictures/n04041544_59160.JPEG	178.06327486038208	0.5457680225372314
164	139.8652949333191	response	0	k		162.0	/home/egter/Projects/stimuli/pictures/n04041544_59160.JPEG	178.59656691551208	
165	139.87777090072632	picture	0		83.0	163.0	/home/egter/Projects/stimuli/pictures/n01632458_761.JPEG	178.6090428829193	0.6874630451202393
165	140.5570728778839	response	0	k		163.0	/home/egter/Projects/stimuli/pictures/n01632458_761.JPEG	179.2883448600769	
166	140.56523394584656	picture	0		85.0	164.0	/home/egter/Projects/stimuli/pictures/S_yt-fT8CS1nszUE_355.png	179.29650592803955	0.7166731357574463
166	141.265310049057	response	0	k		164.0	/home/egter/Projects/stimuli/pictures/S_yt-fT8CS1nszUE_355.png	179.99658203125	
167	141.281907081604	picture	0		215.0	165.0	/home/egter/Projects/stimuli/pictures/S_yt-LsCCAQ8BRO8_7.png	180.013179063797	1.7972428798675537
167	143.06536388397217	response	0	j		165.0	/home/egter/Projects/stimuli/pictures/S_yt-LsCCAQ8BRO8_7.png	181.79663586616516	
168	143.07914996147156	picture	0		83.0	166.0	/home/egter/Projects/stimuli/pictures/R_S_yt-P8vJa4YVcGU_488.png	181.81042194366455	0.6943919658660889
168	143.76530694961548	response	0	j		166.0	/home/egter/Projects/stimuli/pictures/R_S_yt-P8vJa4YVcGU_488.png	182.49657893180847	
169	143.77354192733765	picture	0		76.0	167.0	/home/egter/Projects/stimuli/pictures/n03764736_1200.JPEG	182.50481390953064	0.6389210224151611
169	144.39867901802063	response	0	k		167.0	/home/egter/Projects/stimuli/pictures/n03764736_1200.JPEG	183.12995100021362	
170	144.4124629497528	picture	0		81.0	168.0	/home/egter/Projects/stimuli/pictures/R_S_comp_A009_C001_010181A_v09_SDR_PS_FINAL_20180725_SDR_2K_AVC.png	183.1437349319458	0.6805200576782227
170	145.0751838684082	response	0	j		168.0	/home/egter/Projects/stimuli/pictures/R_S_comp_A009_C001_010181A_v09_SDR_PS_FINAL_20180725_SDR_2K_AVC.png	183.8064558506012	
171	145.09298300743103	picture	0		69.0	169.0	/home/egter/Projects/stimuli/pictures/n01924916_6827.JPEG	183.82425498962402	0.5763928890228271
171	145.65696001052856	response	0	k		169.0	/home/egter/Projects/stimuli/pictures/n01924916_6827.JPEG	184.38823199272156	
172	145.66937589645386	picture	0		87.0	170.0	/home/egter/Projects/stimuli/pictures/S_ILSVRC2015_train_00423000.png	184.40064787864685	0.7222411632537842
172	146.38198399543762	response	0	j		170.0	/home/egter/Projects/stimuli/pictures/S_ILSVRC2015_train_00423000.png	185.11325597763062	
173	146.39161705970764	picture	0		100.0	171.0	/home/egter/Projects/stimuli/pictures/R_S_yt-tX3slAQb9yY_13.png	185.12288904190063	0.8401520252227783
173	147.21527886390686	response	0	j		171.0	/home/egter/Projects/stimuli/pictures/R_S_yt-tX3slAQb9yY_13.png	185.94655084609985	
174	147.23176908493042	picture	0		246.0	172.0	/home/egter/Projects/stimuli/pictures/S_pexels-kindel-media-8164443.png	185.9630410671234	2.058457851409912
174	149.27365708351135	response	0	j		172.0	/home/egter/Projects/stimuli/pictures/S_pexels-kindel-media-8164443.png	188.00492906570435	
175	149.29022693634033	picture	0		93.0	173.0	/home/egter/Projects/stimuli/pictures/n03788195_4503.JPEG	188.02149891853333	0.7749199867248535
175	150.05698585510254	response	0	k		173.0	/home/egter/Projects/stimuli/pictures/n03788195_4503.JPEG	188.78825783729553	
176	150.06514692306519	picture	0		88.0	174.0	/home/egter/Projects/stimuli/pictures/R_S_pexels-cottonbro-5780808.png	188.79641890525818	0.7361760139465332
176	150.7902660369873	response	0	j		174.0	/home/egter/Projects/stimuli/pictures/R_S_pexels-cottonbro-5780808.png	189.5215380191803	
177	150.80132293701172	picture	0		77.0	175.0	/home/egter/Projects/stimuli/pictures/n02321529_4221.JPEG	189.5325949192047	0.6388440132141113
177	151.4319670200348	response	0	k		175.0	/home/egter/Projects/stimuli/pictures/n02321529_4221.JPEG	190.16323900222778	
178	151.44016695022583	picture	0		199.0	176.0	/home/egter/Projects/stimuli/pictures/S_comp_DB_D002_C003_PSNK_v04_SDR_PS_20180914_SDR_2K_AVC.png	190.17143893241882	1.6597039699554443
178	153.0835189819336	response	0	k		176.0	/home/egter/Projects/stimuli/pictures/S_comp_DB_D002_C003_PSNK_v04_SDR_PS_20180914_SDR_2K_AVC.png	191.8147909641266	
179	153.09987092018127	picture	0		59.0	177.0	/home/egter/Projects/stimuli/pictures/n01692333_12067.JPEG	191.83114290237427	0.4930269718170166
179	153.58197903633118	response	0	k		177.0	/home/egter/Projects/stimuli/pictures/n01692333_12067.JPEG	192.31325101852417	
180	153.5928978919983	picture	0		124.0	178.0	/home/egter/Projects/stimuli/pictures/R_S_I003_C004_SDR_2K_AVC.png	192.32416987419128	1.0389490127563477
180	154.61531805992126	response	0	k		178.0	/home/egter/Projects/stimuli/pictures/R_S_I003_C004_SDR_2K_AVC.png	193.34659004211426	
181	154.63184690475464	picture	0		71.0	179.0	/home/egter/Projects/stimuli/pictures/n01981276_18340.JPEG	193.36311888694763	0.5930361747741699
181	155.21527194976807	response	0	k		179.0	/home/egter/Projects/stimuli/pictures/n01981276_18340.JPEG	193.94654393196106	
182	155.2248830795288	stim	0		1036.0			193.9561550617218	8.631891012191772
182	163.84850406646729	response	0	space				202.57977604866028	
