trial_nr	onset	event_type	phase	response	nr_frames	picture_index	picture_file	onset_abs	duration
0	0.01731109619140625	stim	0		2306.0			29.387968063354492	19.235935926437378
0	19.22852897644043	response	0	space				48.599185943603516	
2	19.253247022628784	picture	0		187.0	0.0	/home/egter/Projects/stimuli/pictures/S_video_inspire_oregon_lone-ranch-beach_00021.png	48.62390398979187	1.5593221187591553
2	20.803327083587646	response	0	j		0.0	/home/egter/Projects/stimuli/pictures/S_video_inspire_oregon_lone-ranch-beach_00021.png	50.17398405075073	
3	20.81256914138794	picture	0		119.0	1.0	/home/egter/Projects/stimuli/pictures/n01667114_10821.JPEG	50.183226108551025	0.9930717945098877
3	21.79498815536499	response	0	k		1.0	/home/egter/Projects/stimuli/pictures/n01667114_10821.JPEG	51.165645122528076	
4	21.805640935897827	picture	0		144.0	2.0	/home/egter/Projects/stimuli/pictures/n03733131_21.JPEG	51.17629790306091	1.2015111446380615
4	22.994938135147095	response	0	k		2.0	/home/egter/Projects/stimuli/pictures/n03733131_21.JPEG	52.36559510231018	
5	23.00715208053589	picture	0		83.0	3.0	/home/egter/Projects/stimuli/pictures/n03498962_440.JPEG	52.377809047698975	0.6876709461212158
5	23.68665313720703	response	0	k		3.0	/home/egter/Projects/stimuli/pictures/n03498962_440.JPEG	53.05731010437012	
6	23.694823026657104	picture	0		157.0	4.0	/home/egter/Projects/stimuli/pictures/S_yt-ycfVJyrFgB4_15.png	53.06547999382019	1.3166871070861816
6	24.994931936264038	response	0	j		4.0	/home/egter/Projects/stimuli/pictures/S_yt-ycfVJyrFgB4_15.png	54.365588903427124	
7	25.011510133743286	picture	0		104.0	5.0	/home/egter/Projects/stimuli/pictures/S_-vPHq-7BJ70_15.png	54.38216710090637	0.8774077892303467
7	25.86990714073181	response	0	j		5.0	/home/egter/Projects/stimuli/pictures/S_-vPHq-7BJ70_15.png	55.2405641078949	
8	25.888917922973633	picture	0		95.0	6.0	/home/egter/Projects/stimuli/pictures/S_DL_B002_C011_SDR_20191122_SDR_2K_AVC.png	55.25957489013672	0.7916440963745117
8	26.669849157333374	response	0	j		6.0	/home/egter/Projects/stimuli/pictures/S_DL_B002_C011_SDR_20191122_SDR_2K_AVC.png	56.04050612449646	
9	26.680562019348145	picture	0		78.0	7.0	/home/egter/Projects/stimuli/pictures/n04238763_27969.JPEG	56.05121898651123	0.7015891075134277
9	27.31991696357727	response	0	k		7.0	/home/egter/Projects/stimuli/pictures/n04238763_27969.JPEG	56.690573930740356	
10	27.382151126861572	picture	0		101.0	8.0	/home/egter/Projects/stimuli/pictures/n03697007_27544.JPEG	56.75280809402466	0.8400628566741943
10	28.211591005325317	response	0	k		8.0	/home/egter/Projects/stimuli/pictures/n03697007_27544.JPEG	57.5822479724884	
11	28.222213983535767	picture	0		80.0	9.0	/home/egter/Projects/stimuli/pictures/S_production_ID_3927047.png	57.59287095069885	0.6736230850219727
11	28.878311157226562	response	0	j		9.0	/home/egter/Projects/stimuli/pictures/S_production_ID_3927047.png	58.24896812438965	
12	28.89583706855774	picture	0		81.0	10.0	/home/egter/Projects/stimuli/pictures/n02823750_3762.JPEG	58.266494035720825	0.673954963684082
12	29.561607122421265	response	0	k		10.0	/home/egter/Projects/stimuli/pictures/n02823750_3762.JPEG	58.93226408958435	
13	29.56979203224182	picture	0		74.0	11.0	/home/egter/Projects/stimuli/pictures/n03633091_8817.JPEG	58.94044899940491	0.6177349090576172
13	30.178236961364746	response	0	k		11.0	/home/egter/Projects/stimuli/pictures/n03633091_8817.JPEG	59.54889392852783	
14	30.18752694129944	picture	0		63.0	12.0	/home/egter/Projects/stimuli/pictures/S_yt-65cexqxy5lU_35.png	59.558183908462524	0.5277390480041504
14	30.703266143798828	response	0	k		12.0	/home/egter/Projects/stimuli/pictures/S_yt-65cexqxy5lU_35.png	60.073923110961914	
15	30.71526598930359	picture	0		68.0	13.0	/home/egter/Projects/stimuli/pictures/n03775546_5924.JPEG	60.085922956466675	0.5712411403656006
15	31.270944118499756	response	0	k		13.0	/home/egter/Projects/stimuli/pictures/n03775546_5924.JPEG	60.64160108566284	
16	31.28650712966919	picture	0		112.0	14.0	/home/egter/Projects/stimuli/pictures/S_ILSVRC2015_train_00292006.png	60.657164096832275	0.9356658458709717
16	32.21155309677124	response	0	j		14.0	/home/egter/Projects/stimuli/pictures/S_ILSVRC2015_train_00292006.png	61.582210063934326	
17	32.22217297554016	picture	0		70.0	15.0	/home/egter/Projects/stimuli/pictures/n03595614_5370.JPEG	61.59282994270325	0.5833210945129395
17	32.79492807388306	response	0	k		15.0	/home/egter/Projects/stimuli/pictures/n03595614_5370.JPEG	62.16558504104614	
18	32.8054940700531	picture	0		88.0	16.0	/home/egter/Projects/stimuli/pictures/n03042490_2350.JPEG	62.17615103721619	0.736191987991333
18	33.52822399139404	response	0	k		16.0	/home/egter/Projects/stimuli/pictures/n03042490_2350.JPEG	62.89888095855713	
19	33.541686058044434	picture	0		150.0	17.0	/home/egter/Projects/stimuli/pictures/R_S_S005_C015_SDR_2K_AVC.png	62.91234302520752	1.2569580078125
19	34.78655004501343	response	0	k		17.0	/home/egter/Projects/stimuli/pictures/R_S_S005_C015_SDR_2K_AVC.png	64.15720701217651	
20	34.798644065856934	picture	0		97.0	18.0	/home/egter/Projects/stimuli/pictures/S_yt-vMnSbsjGK9k_62.png	64.16930103302002	0.8054580688476562
20	35.59492611885071	response	0	k		18.0	/home/egter/Projects/stimuli/pictures/S_yt-vMnSbsjGK9k_62.png	64.9655830860138	
21	35.60410213470459	picture	0		68.0	19.0	/home/egter/Projects/stimuli/pictures/n03770679_21013.JPEG	64.97475910186768	0.5694699287414551
21	36.16153407096863	response	0	k		19.0	/home/egter/Projects/stimuli/pictures/n03770679_21013.JPEG	65.53219103813171	
22	36.173572063446045	picture	0		73.0	20.0	/home/egter/Projects/stimuli/pictures/S_yt-B7ZRYVhfW2U_52.png	65.54422903060913	0.604525089263916
22	36.76990294456482	response	0	k		20.0	/home/egter/Projects/stimuli/pictures/S_yt-B7ZRYVhfW2U_52.png	66.1405599117279	
23	36.77809715270996	picture	0		74.0	21.0	/home/egter/Projects/stimuli/pictures/n01773549_1508.JPEG	66.14875411987305	0.6176488399505615
23	37.386481046676636	response	0	k		21.0	/home/egter/Projects/stimuli/pictures/n01773549_1508.JPEG	66.75713801383972	
24	37.39574599266052	picture	0		125.0	22.0	/home/egter/Projects/stimuli/pictures/R_S_yt-JG2OY_7B-gI_537.png	66.76640295982361	1.0416231155395508
24	38.42821502685547	response	0	k		22.0	/home/egter/Projects/stimuli/pictures/R_S_yt-JG2OY_7B-gI_537.png	67.79887199401855	
25	38.43736910820007	picture	0		94.0	23.0	/home/egter/Projects/stimuli/pictures/R_S_comp_A050_C004_1027V8_v16_SDR_FINAL_20180706_SDR_2K_AVC.png	67.80802607536316	0.7847268581390381
25	39.211629152297974	response	0	k		23.0	/home/egter/Projects/stimuli/pictures/R_S_comp_A050_C004_1027V8_v16_SDR_FINAL_20180706_SDR_2K_AVC.png	68.58228611946106	
26	39.22209596633911	picture	0		92.0	24.0	/home/egter/Projects/stimuli/pictures/S_yt-PQYnj2BR17I_16.png	68.5927529335022	0.7642450332641602
26	39.97819495201111	response	0	k		24.0	/home/egter/Projects/stimuli/pictures/S_yt-PQYnj2BR17I_16.png	69.3488519191742	
27	39.98634099960327	picture	0		103.0	25.0	/home/egter/Projects/stimuli/pictures/R_S_ILSVRC2015_train_00768000.png	69.35699796676636	0.860814094543457
27	40.829740047454834	response	0	j		25.0	/home/egter/Projects/stimuli/pictures/R_S_ILSVRC2015_train_00768000.png	70.20039701461792	
28	40.84715509414673	picture	0		60.0	26.0	/home/egter/Projects/stimuli/pictures/S_yt-EOspahHAnV4_85.png	70.21781206130981	0.4999079704284668
28	41.33657097816467	response	0	k		26.0	/home/egter/Projects/stimuli/pictures/S_yt-EOspahHAnV4_85.png	70.70722794532776	
29	41.347063064575195	picture	0		99.0	27.0	/home/egter/Projects/stimuli/pictures/S_yt-s5YONFy3vb4_46.png	70.71772003173828	0.8265728950500488
29	42.161510944366455	response	0	j		27.0	/home/egter/Projects/stimuli/pictures/S_yt-s5YONFy3vb4_46.png	71.53216791152954	
30	42.173635959625244	picture	0		64.0	28.0	/home/egter/Projects/stimuli/pictures/n03220513_18016.JPEG	71.54429292678833	0.5348701477050781
30	42.6949520111084	response	0	k		28.0	/home/egter/Projects/stimuli/pictures/n03220513_18016.JPEG	72.06560897827148	
31	42.70850610733032	picture	0		74.0	29.0	/home/egter/Projects/stimuli/pictures/n02804610_30273.JPEG	72.07916307449341	0.6250028610229492
31	43.319815158843994	response	0	k		29.0	/home/egter/Projects/stimuli/pictures/n02804610_30273.JPEG	72.69047212600708	
32	43.33350896835327	picture	0		98.0	30.0	/home/egter/Projects/stimuli/pictures/R_S_yt-D_f3_HIXG2g_87.png	72.70416593551636	0.8195641040802002
32	44.14490604400635	response	0	j		30.0	/home/egter/Projects/stimuli/pictures/R_S_yt-D_f3_HIXG2g_87.png	73.51556301116943	
33	44.15307307243347	picture	0		100.0	31.0	/home/egter/Projects/stimuli/pictures/n09468604_3861.JPEG	73.52373003959656	0.833280086517334
33	44.97816705703735	response	0	k		31.0	/home/egter/Projects/stimuli/pictures/n09468604_3861.JPEG	74.34882402420044	
34	44.986353158950806	picture	0		96.0	32.0	/home/egter/Projects/stimuli/pictures/S_yt-I9uf7kAccFA_229.png	74.35701012611389	0.8051998615264893
34	45.778205156326294	response	0	j		32.0	/home/egter/Projects/stimuli/pictures/S_yt-I9uf7kAccFA_229.png	75.14886212348938	
35	45.791553020477295	picture	0		84.0	33.0	/home/egter/Projects/stimuli/pictures/S_yt--v_iMUMMX6g_39.png	75.16220998764038	0.7083511352539062
35	46.48647212982178	response	0	j		33.0	/home/egter/Projects/stimuli/pictures/S_yt--v_iMUMMX6g_39.png	75.85712909698486	
36	46.4999041557312	picture	0		68.0	34.0	/home/egter/Projects/stimuli/pictures/n07720875_15668.JPEG	75.87056112289429	0.5781998634338379
36	47.05470299720764	response	0	k		34.0	/home/egter/Projects/stimuli/pictures/n07720875_15668.JPEG	76.42535996437073	
37	47.07810401916504	picture	0		72.0	35.0	/home/egter/Projects/stimuli/pictures/n04335435_13691.JPEG	76.44876098632812	0.6022970676422119
37	47.669849157333374	response	0	k		35.0	/home/egter/Projects/stimuli/pictures/n04335435_13691.JPEG	77.04050612449646	
38	47.68040108680725	picture	0		113.0	36.0	/home/egter/Projects/stimuli/pictures/S_yt-uWeU2s6JYyk_10.png	77.05105805397034	0.9447810649871826
38	48.61147499084473	response	0	j		36.0	/home/egter/Projects/stimuli/pictures/S_yt-uWeU2s6JYyk_10.png	77.98213195800781	
39	48.625182151794434	picture	0		90.0	37.0	/home/egter/Projects/stimuli/pictures/S_ILSVRC2015_train_00418003.png	77.99583911895752	0.7565789222717285
39	49.36983013153076	response	0	k		37.0	/home/egter/Projects/stimuli/pictures/S_ILSVRC2015_train_00418003.png	78.74048709869385	
40	49.38176107406616	picture	0		92.0	38.0	/home/egter/Projects/stimuli/pictures/S_yt-2i53vKte7SA_117.png	78.75241804122925	0.7638778686523438
40	50.13648509979248	response	0	j		38.0	/home/egter/Projects/stimuli/pictures/S_yt-2i53vKte7SA_117.png	79.50714206695557	
41	50.145638942718506	picture	0		96.0	39.0	/home/egter/Projects/stimuli/pictures/S_pexels-c-technical-6763571.png	79.51629590988159	0.799058198928833
41	50.93649697303772	response	0	j		39.0	/home/egter/Projects/stimuli/pictures/S_pexels-c-technical-6763571.png	80.3071539402008	
42	50.94469714164734	picture	0		88.0	40.0	/home/egter/Projects/stimuli/pictures/n03478589_16903.JPEG	80.31535410881042	0.7356348037719727
42	51.66982698440552	response	0	k		40.0	/home/egter/Projects/stimuli/pictures/n03478589_16903.JPEG	81.0404839515686	
43	51.68033194541931	picture	0		96.0	41.0	/home/egter/Projects/stimuli/pictures/n01728572_6155.JPEG	81.0509889125824	0.7985780239105225
43	52.46290707588196	response	0	k		41.0	/home/egter/Projects/stimuli/pictures/n01728572_6155.JPEG	81.83356404304504	
44	52.478909969329834	picture	0		69.0	42.0	/home/egter/Projects/stimuli/pictures/n04435653_10830.JPEG	81.84956693649292	0.5763959884643555
44	53.03795099258423	response	0	k		42.0	/home/egter/Projects/stimuli/pictures/n04435653_10830.JPEG	82.40860795974731	
45	53.05530595779419	picture	0		71.0	43.0	/home/egter/Projects/stimuli/pictures/S_ILSVRC2015_train_00507000.png	82.42596292495728	0.5902841091156006
45	53.63645815849304	response	0	j		43.0	/home/egter/Projects/stimuli/pictures/S_ILSVRC2015_train_00507000.png	83.00711512565613	
46	53.64559006690979	picture	0		85.0	44.0	/home/egter/Projects/stimuli/pictures/n02018795_2073.JPEG	83.01624703407288	0.722308874130249
46	54.34488010406494	response	0	k		44.0	/home/egter/Projects/stimuli/pictures/n02018795_2073.JPEG	83.71553707122803	
47	54.36789894104004	picture	0		61.0	45.0	/home/egter/Projects/stimuli/pictures/n02687172_3406.JPEG	83.73855590820312	0.5138711929321289
47	54.86980605125427	response	0	k		45.0	/home/egter/Projects/stimuli/pictures/n02687172_3406.JPEG	84.24046301841736	
48	54.88177013397217	picture	0		65.0	46.0	/home/egter/Projects/stimuli/pictures/R_S_DL_B002_C011_SDR_20191122_SDR_2K_AVC.png	84.25242710113525	0.541579008102417
48	55.41146898269653	response	0	j		46.0	/home/egter/Projects/stimuli/pictures/R_S_DL_B002_C011_SDR_20191122_SDR_2K_AVC.png	84.78212594985962	
49	55.423349142074585	picture	0		80.0	47.0	/home/egter/Projects/stimuli/pictures/R_S_yt-rlVzHENWufE_61.png	84.79400610923767	0.6666958332061768
49	56.07810997962952	response	0	k		47.0	/home/egter/Projects/stimuli/pictures/R_S_yt-rlVzHENWufE_61.png	85.4487669467926	
50	56.09004497528076	picture	0		149.0	48.0	/home/egter/Projects/stimuli/pictures/n02454379_1740.JPEG	85.46070194244385	1.2430710792541504
50	57.31980514526367	response	0	k		48.0	/home/egter/Projects/stimuli/pictures/n02454379_1740.JPEG	86.69046211242676	
51	57.33311605453491	picture	0		85.0	49.0	/home/egter/Projects/stimuli/pictures/n02025239_2049.JPEG	86.703773021698	0.7199089527130127
51	58.03653812408447	response	0	k		49.0	/home/egter/Projects/stimuli/pictures/n02025239_2049.JPEG	87.40719509124756	
52	58.053025007247925	picture	0		285.0	50.0	/home/egter/Projects/stimuli/pictures/R_S_comp_HK_H004_C010_PSNK_v08_SDR_PS_20181009_SDR_2K_AVC.png	87.42368197441101	2.377216100692749
52	60.419780015945435	response	0	j		50.0	/home/egter/Projects/stimuli/pictures/R_S_comp_HK_H004_C010_PSNK_v08_SDR_PS_20181009_SDR_2K_AVC.png	89.79043698310852	
53	60.430241107940674	picture	0		75.0	51.0	/home/egter/Projects/stimuli/pictures/n01873310_24983.JPEG	89.80089807510376	0.6249468326568604
53	61.037930965423584	response	0	k		51.0	/home/egter/Projects/stimuli/pictures/n01873310_24983.JPEG	90.40858793258667	
54	61.055187940597534	picture	0		78.0	52.0	/home/egter/Projects/stimuli/pictures/R_S_yt-JtR6WZXT2kU_8.png	90.42584490776062	0.6528580188751221
54	61.69477415084839	response	0	j		52.0	/home/egter/Projects/stimuli/pictures/R_S_yt-JtR6WZXT2kU_8.png	91.06543111801147	
55	61.708045959472656	picture	0		72.0	53.0	/home/egter/Projects/stimuli/pictures/n04204347_12330.JPEG	91.07870292663574	0.6041350364685059
55	62.30310297012329	response	0	k		53.0	/home/egter/Projects/stimuli/pictures/n04204347_12330.JPEG	91.67375993728638	
56	62.31218099594116	picture	0		82.0	54.0	/home/egter/Projects/stimuli/pictures/n07717410_12614.JPEG	91.68283796310425	0.6876530647277832
56	62.98641514778137	response	0	k		54.0	/home/egter/Projects/stimuli/pictures/n07717410_12614.JPEG	92.35707211494446	
57	62.999834060668945	picture	0		99.0	55.0	/home/egter/Projects/stimuli/pictures/S_yt-tVfYnm81ywo_82.png	92.37049102783203	0.8332819938659668
57	63.81984806060791	response	0	j		55.0	/home/egter/Projects/stimuli/pictures/S_yt-tVfYnm81ywo_82.png	93.190505027771	
58	63.83311605453491	picture	0		100.0	56.0	/home/egter/Projects/stimuli/pictures/ILSVRC2012_test_00014080.JPEG	93.203773021698	0.8401279449462891
58	64.65459299087524	response	0	k		56.0	/home/egter/Projects/stimuli/pictures/ILSVRC2012_test_00014080.JPEG	94.02524995803833	
59	64.6732439994812	picture	0		80.0	57.0	/home/egter/Projects/stimuli/pictures/n01798484_4501.JPEG	94.04390096664429	0.6797540187835693
59	65.32814311981201	response	0	k		57.0	/home/egter/Projects/stimuli/pictures/n01798484_4501.JPEG	94.6988000869751	
60	65.35299801826477	picture	0		90.0	58.0	/home/egter/Projects/stimuli/pictures/R_S_comp_DB_D002_C003_PSNK_v04_SDR_PS_20180914_SDR_2K_AVC.png	94.72365498542786	0.7507801055908203
60	66.09472107887268	response	0	j		58.0	/home/egter/Projects/stimuli/pictures/R_S_comp_DB_D002_C003_PSNK_v04_SDR_PS_20180914_SDR_2K_AVC.png	95.46537804603577	
61	66.10377812385559	picture	0		106.0	59.0	/home/egter/Projects/stimuli/pictures/S_ILSVRC2015_train_00415004.png	95.47443509101868	0.8824758529663086
61	66.9781379699707	response	0	k		59.0	/home/egter/Projects/stimuli/pictures/S_ILSVRC2015_train_00415004.png	96.34879493713379	
62	66.9862539768219	picture	0		81.0	60.0	/home/egter/Projects/stimuli/pictures/n01498041_2018.JPEG	96.35691094398499	0.6834120750427246
62	67.64628601074219	response	0	k		60.0	/home/egter/Projects/stimuli/pictures/n01498041_2018.JPEG	97.01694297790527	
63	67.66966605186462	picture	0		81.0	61.0	/home/egter/Projects/stimuli/pictures/R_S_production_ID_4510622.png	97.04032301902771	0.6833040714263916
63	68.33643007278442	response	0	j		61.0	/home/egter/Projects/stimuli/pictures/R_S_production_ID_4510622.png	97.70708703994751	
64	68.35297012329102	picture	0		71.0	62.0	/home/egter/Projects/stimuli/pictures/n03271574_5632.JPEG	97.7236270904541	0.5916438102722168
64	68.93638706207275	response	0	k		62.0	/home/egter/Projects/stimuli/pictures/n03271574_5632.JPEG	98.30704402923584	
65	68.94461393356323	picture	0		87.0	63.0	/home/egter/Projects/stimuli/pictures/n09472597_2871.JPEG	98.31527090072632	0.7287101745605469
65	69.65457010269165	response	0	k		63.0	/home/egter/Projects/stimuli/pictures/n09472597_2871.JPEG	99.02522706985474	
66	69.67332410812378	picture	0		97.0	64.0	/home/egter/Projects/stimuli/pictures/n04326547_7194.JPEG	99.04398107528687	0.8054690361022949
66	70.46297693252563	response	0	k		64.0	/home/egter/Projects/stimuli/pictures/n04326547_7194.JPEG	99.83363389968872	
67	70.47879314422607	picture	0		62.0	65.0	/home/egter/Projects/stimuli/pictures/n02793495_16179.JPEG	99.84945011138916	0.5208339691162109
67	70.98643493652344	response	0	k		65.0	/home/egter/Projects/stimuli/pictures/n02793495_16179.JPEG	100.35709190368652	
68	70.99962711334229	picture	0		86.0	66.0	/home/egter/Projects/stimuli/pictures/R_S_yt-8RmEimCI80g_35.png	100.37028408050537	0.7221999168395996
68	71.71147513389587	response	0	j		66.0	/home/egter/Projects/stimuli/pictures/R_S_yt-8RmEimCI80g_35.png	101.08213210105896	
69	71.72182703018188	picture	0		82.0	67.0	/home/egter/Projects/stimuli/pictures/R_S_yt-fymgyhmYnMI_557.png	101.09248399734497	0.6811001300811768
69	72.3946521282196	response	0	j		67.0	/home/egter/Projects/stimuli/pictures/R_S_yt-fymgyhmYnMI_557.png	101.76530909538269	
70	72.40292716026306	picture	0		410.0	68.0	/home/egter/Projects/stimuli/pictures/S_yt-XbigWWtnGL4_75.png	101.77358412742615	3.4165987968444824
70	75.81140112876892	response	0	k		68.0	/home/egter/Projects/stimuli/pictures/S_yt-XbigWWtnGL4_75.png	105.182058095932	
71	75.81952595710754	picture	0		84.0	69.0	/home/egter/Projects/stimuli/pictures/S_yt-xWCPbUQc-vg_7.png	105.19018292427063	0.7008411884307861
71	76.51137495040894	response	0	j		69.0	/home/egter/Projects/stimuli/pictures/S_yt-xWCPbUQc-vg_7.png	105.88203191757202	
72	76.52036714553833	picture	0		71.0	70.0	/home/egter/Projects/stimuli/pictures/S_yt_R-lST38EdfMMQ_5.png	105.89102411270142	0.5973138809204102
72	77.10377502441406	response	0	j		70.0	/home/egter/Projects/stimuli/pictures/S_yt_R-lST38EdfMMQ_5.png	106.47443199157715	
73	77.11768102645874	picture	0		151.0	71.0	/home/egter/Projects/stimuli/pictures/S_S006_C007_SDR_2K_AVC.png	106.48833799362183	1.263848066329956
73	78.36969208717346	response	0	k		71.0	/home/egter/Projects/stimuli/pictures/S_S006_C007_SDR_2K_AVC.png	107.74034905433655	
74	78.3815290927887	picture	0		92.0	72.0	/home/egter/Projects/stimuli/pictures/R_S_yt-uT4MXm0UBJM_64.png	107.75218605995178	0.7637839317321777
74	79.13640809059143	response	0	j		72.0	/home/egter/Projects/stimuli/pictures/R_S_yt-uT4MXm0UBJM_64.png	108.50706505775452	
75	79.14531302452087	picture	0		105.0	73.0	/home/egter/Projects/stimuli/pictures/S_yt-osz-TXlRdXs_2.png	108.51596999168396	0.8750159740447998
75	80.01135897636414	response	0	j		73.0	/home/egter/Projects/stimuli/pictures/S_yt-osz-TXlRdXs_2.png	109.38201594352722	
76	80.02032899856567	picture	0		69.0	74.0	/home/egter/Projects/stimuli/pictures/n12998815_20022.JPEG	109.39098596572876	0.5763881206512451
76	80.58639097213745	response	0	k		74.0	/home/egter/Projects/stimuli/pictures/n12998815_20022.JPEG	109.95704793930054	
77	80.59671711921692	picture	0		75.0	75.0	/home/egter/Projects/stimuli/pictures/R_S_yt-3aTDYxyF6bc_35.png	109.96737408638	0.6250748634338379
77	81.21130108833313	response	0	j		75.0	/home/egter/Projects/stimuli/pictures/R_S_yt-3aTDYxyF6bc_35.png	110.58195805549622	
78	81.22179198265076	picture	0		99.0	76.0	/home/egter/Projects/stimuli/pictures/R_S_yt-8fQ9LaF8U10_382.png	110.59244894981384	0.8262970447540283
78	82.03631496429443	response	0	j		76.0	/home/egter/Projects/stimuli/pictures/R_S_yt-8fQ9LaF8U10_382.png	111.40697193145752	
79	82.04808902740479	picture	0		80.0	77.0	/home/egter/Projects/stimuli/pictures/n02174001_3222.JPEG	111.41874599456787	0.671497106552124
79	82.7030930519104	response	0	k		77.0	/home/egter/Projects/stimuli/pictures/n02174001_3222.JPEG	112.07375001907349	
80	82.71958613395691	picture	0		80.0	78.0	/home/egter/Projects/stimuli/pictures/n03873416_17840.JPEG	112.09024310112	0.6687419414520264
80	83.37797403335571	response	0	k		78.0	/home/egter/Projects/stimuli/pictures/n03873416_17840.JPEG	112.7486310005188	
81	83.38832807540894	picture	0		68.0	79.0	/home/egter/Projects/stimuli/pictures/n04461696_15046.JPEG	112.75898504257202	0.5695469379425049
81	83.94466805458069	response	0	k		79.0	/home/egter/Projects/stimuli/pictures/n04461696_15046.JPEG	113.31532502174377	
82	83.95787501335144	picture	0		98.0	80.0	/home/egter/Projects/stimuli/pictures/R_S_ILSVRC2015_train_00682007.png	113.32853198051453	0.8264000415802002
82	84.7703709602356	response	0	j		80.0	/home/egter/Projects/stimuli/pictures/R_S_ILSVRC2015_train_00682007.png	114.14102792739868	
83	84.78427505493164	picture	0		92.0	81.0	/home/egter/Projects/stimuli/pictures/n04335435_3691.JPEG	114.15493202209473	0.7769660949707031
83	85.54469895362854	response	0	k		81.0	/home/egter/Projects/stimuli/pictures/n04335435_3691.JPEG	114.91535592079163	
84	85.56124114990234	picture	0		71.0	82.0	/home/egter/Projects/stimuli/pictures/n02132136_32838.JPEG	114.93189811706543	0.5916337966918945
84	86.14461994171143	response	0	k		82.0	/home/egter/Projects/stimuli/pictures/n02132136_32838.JPEG	115.51527690887451	
85	86.15287494659424	picture	0		76.0	83.0	/home/egter/Projects/stimuli/pictures/R_S_yt-zQnaVApUPH0_14.png	115.52353191375732	0.6382460594177246
85	86.7779769897461	response	0	j		83.0	/home/egter/Projects/stimuli/pictures/R_S_yt-zQnaVApUPH0_14.png	116.14863395690918	
86	86.79112100601196	picture	0		77.0	84.0	/home/egter/Projects/stimuli/pictures/n02396427_1792.JPEG	116.16177797317505	0.6457581520080566
86	87.42797803878784	response	0	k		84.0	/home/egter/Projects/stimuli/pictures/n02396427_1792.JPEG	116.79863500595093	
87	87.43687915802002	picture	0		108.0	85.0	/home/egter/Projects/stimuli/pictures/R_S_ILSVRC2015_train_00507000.png	116.8075361251831	0.9027879238128662
87	88.32797598838806	response	0	j		85.0	/home/egter/Projects/stimuli/pictures/R_S_ILSVRC2015_train_00507000.png	117.69863295555115	
88	88.33966708183289	picture	0		92.0	86.0	/home/egter/Projects/stimuli/pictures/R_S_production_ID_3735542.png	117.71032404899597	0.7638988494873047
88	89.09464693069458	response	0	j		86.0	/home/egter/Projects/stimuli/pictures/R_S_production_ID_3735542.png	118.46530389785767	
89	89.10356593132019	picture	0		71.0	87.0	/home/egter/Projects/stimuli/pictures/S_yt-oT4Bq8zYN4E_42.png	118.47422289848328	0.5974640846252441
89	89.67945909500122	response	0	j		87.0	/home/egter/Projects/stimuli/pictures/S_yt-oT4Bq8zYN4E_42.png	119.0501160621643	
90	89.70103001594543	picture	0		75.0	88.0	/home/egter/Projects/stimuli/pictures/n04443257_35567.JPEG	119.07168698310852	0.6318309307098389
90	90.31966805458069	response	0	k		88.0	/home/egter/Projects/stimuli/pictures/n04443257_35567.JPEG	119.69032502174377	
91	90.33286094665527	picture	0		71.0	89.0	/home/egter/Projects/stimuli/pictures/n02447366_2109.JPEG	119.70351791381836	0.5971372127532959
91	90.91962599754333	response	0	k		89.0	/home/egter/Projects/stimuli/pictures/n02447366_2109.JPEG	120.29028296470642	
92	90.92999815940857	picture	0		67.0	90.0	/home/egter/Projects/stimuli/pictures/R_S_yt-fymgyhmYnMI_76.png	120.30065512657166	0.5628108978271484
92	91.47867393493652	response	0	j		90.0	/home/egter/Projects/stimuli/pictures/R_S_yt-fymgyhmYnMI_76.png	120.84933090209961	
93	91.49280905723572	picture	0		87.0	91.0	/home/egter/Projects/stimuli/pictures/S_yt-JVhfcpV7OaY_71.png	120.8634660243988	0.7287559509277344
93	92.21129202842712	response	0	j		91.0	/home/egter/Projects/stimuli/pictures/S_yt-JVhfcpV7OaY_71.png	121.58194899559021	
94	92.22156500816345	picture	0		91.0	92.0	/home/egter/Projects/stimuli/pictures/S_wc-4cMsVgeKgq_t_1.png	121.59222197532654	0.7569699287414551
94	92.96957397460938	response	0	k		92.0	/home/egter/Projects/stimuli/pictures/S_wc-4cMsVgeKgq_t_1.png	122.34023094177246	
95	92.97853493690491	picture	0		74.0	93.0	/home/egter/Projects/stimuli/pictures/n02125311_38939.JPEG	122.349191904068	0.6180510520935059
95	93.58627700805664	response	0	k		93.0	/home/egter/Projects/stimuli/pictures/n02125311_38939.JPEG	122.95693397521973	
96	93.59658598899841	picture	0		76.0	94.0	/home/egter/Projects/stimuli/pictures/R_S_yt-R5wOWRtRmrI_36.png	122.9672429561615	0.6319520473480225
96	94.21960806846619	response	0	j		94.0	/home/egter/Projects/stimuli/pictures/R_S_yt-R5wOWRtRmrI_36.png	123.59026503562927	
97	94.22853803634644	picture	0		72.0	95.0	/home/egter/Projects/stimuli/pictures/n04141327_1185.JPEG	123.59919500350952	0.6042768955230713
97	94.81957197189331	response	0	k		95.0	/home/egter/Projects/stimuli/pictures/n04141327_1185.JPEG	124.1902289390564	
98	94.8328149318695	picture	0		87.0	96.0	/home/egter/Projects/stimuli/pictures/n02814860_904.JPEG	124.20347189903259	0.7290310859680176
98	95.55291199684143	response	0	k		96.0	/home/egter/Projects/stimuli/pictures/n02814860_904.JPEG	124.92356896400452	
99	95.56184601783752	picture	0		67.0	97.0	/home/egter/Projects/stimuli/pictures/n02361337_10879.JPEG	124.93250298500061	0.5625560283660889
99	96.11125302314758	response	0	k		97.0	/home/egter/Projects/stimuli/pictures/n02361337_10879.JPEG	125.48190999031067	
100	96.12440204620361	picture	0		68.0	98.0	/home/egter/Projects/stimuli/pictures/n02105056_4582.JPEG	125.4950590133667	0.5764050483703613
100	96.67946314811707	response	0	k		98.0	/home/egter/Projects/stimuli/pictures/n02105056_4582.JPEG	126.05012011528015	
101	96.70080709457397	picture	0		84.0	99.0	/home/egter/Projects/stimuli/pictures/R_S_zAKvYNtmhuc_772.png	126.07146406173706	0.7103798389434814
101	97.395259141922	response	0	j		99.0	/home/egter/Projects/stimuli/pictures/R_S_zAKvYNtmhuc_772.png	126.76591610908508	
102	97.41118693351746	picture	0		104.0	100.0	/home/egter/Projects/stimuli/pictures/S_yt-MIDWkOZcQUs_72.png	126.78184390068054	0.8729891777038574
102	98.27026104927063	response	0	k		100.0	/home/egter/Projects/stimuli/pictures/S_yt-MIDWkOZcQUs_72.png	127.64091801643372	
103	98.28417611122131	picture	0		94.0	101.0	/home/egter/Projects/stimuli/pictures/S_yt-JizcV7kYuqM_132.png	127.6548330783844	0.7915899753570557
103	99.05442810058594	response	0	k		101.0	/home/egter/Projects/stimuli/pictures/S_yt-JizcV7kYuqM_132.png	128.42508506774902	
104	99.07576608657837	picture	0		99.0	102.0	/home/egter/Projects/stimuli/pictures/S_yt-s2PWkCdT-TM_258.png	128.44642305374146	0.8354198932647705
104	99.88781309127808	response	0	j		102.0	/home/egter/Projects/stimuli/pictures/S_yt-s2PWkCdT-TM_258.png	129.25847005844116	
105	99.91118597984314	picture	0		93.0	103.0	/home/egter/Projects/stimuli/pictures/n04604644_15685.JPEG	129.28184294700623	0.7756259441375732
105	100.67120409011841	response	0	k		103.0	/home/egter/Projects/stimuli/pictures/n04604644_15685.JPEG	130.0418610572815	
106	100.68681192398071	picture	0		126.0	104.0	/home/egter/Projects/stimuli/pictures/S_yt-pO5SVq-9EhU_114.png	130.0574688911438	1.05560302734375
106	101.72864007949829	response	0	j		104.0	/home/egter/Projects/stimuli/pictures/S_yt-pO5SVq-9EhU_114.png	131.09929704666138	
107	101.74241495132446	picture	0		86.0	105.0	/home/egter/Projects/stimuli/pictures/n01688243_3101.JPEG	131.11307191848755	0.7221620082855225
107	102.4528911113739	response	0	k		105.0	/home/egter/Projects/stimuli/pictures/n01688243_3101.JPEG	131.823548078537	
108	102.46457695960999	picture	0		101.0	106.0	/home/egter/Projects/stimuli/pictures/R_S_yt-uWeU2s6JYyk_10.png	131.83523392677307	0.840264081954956
108	103.28774809837341	response	0	j		106.0	/home/egter/Projects/stimuli/pictures/R_S_yt-uWeU2s6JYyk_10.png	132.6584050655365	
109	103.30484104156494	picture	0		73.0	107.0	/home/egter/Projects/stimuli/pictures/n01631663_6163.JPEG	132.67549800872803	0.6111900806427002
109	103.90288996696472	response	0	k		107.0	/home/egter/Projects/stimuli/pictures/n01631663_6163.JPEG	133.2735469341278	
110	103.91603112220764	picture	0		89.0	108.0	/home/egter/Projects/stimuli/pictures/R_S_ILSVRC2015_train_00469000.png	133.28668808937073	0.749931812286377
110	104.64686608314514	response	0	j		108.0	/home/egter/Projects/stimuli/pictures/R_S_ILSVRC2015_train_00469000.png	134.01752305030823	
111	104.66596293449402	picture	0		110.0	109.0	/home/egter/Projects/stimuli/pictures/R_S_yt-Xegmd8whqBs_230.png	134.0366199016571	0.9235661029815674
111	105.57793807983398	response	0	j		109.0	/home/egter/Projects/stimuli/pictures/R_S_yt-Xegmd8whqBs_230.png	134.94859504699707	
112	105.58952903747559	picture	0		91.0	110.0	/home/egter/Projects/stimuli/pictures/R_S_yt-SRozDkhwx28_1463.png	134.96018600463867	0.7569429874420166
112	106.33621096611023	response	0	j		110.0	/home/egter/Projects/stimuli/pictures/R_S_yt-SRozDkhwx28_1463.png	135.70686793327332	
113	106.3464720249176	picture	0		107.0	111.0	/home/egter/Projects/stimuli/pictures/S_ILSVRC2015_train_00632002.png	135.7171289920807	0.8958821296691895
113	107.22854399681091	response	0	j		111.0	/home/egter/Projects/stimuli/pictures/S_ILSVRC2015_train_00632002.png	136.599200963974	
114	107.24235415458679	picture	0		65.0	112.0	/home/egter/Projects/stimuli/pictures/R_S_yt_R-lST38EdfMMQ_5.png	136.61301112174988	0.5485899448394775
114	107.7779450416565	response	0	j		112.0	/home/egter/Projects/stimuli/pictures/R_S_yt_R-lST38EdfMMQ_5.png	137.14860200881958	
115	107.79094409942627	picture	0		83.0	113.0	/home/egter/Projects/stimuli/pictures/R_S_ILSVRC2015_train_00465000.png	137.16160106658936	0.7016119956970215
115	108.47849297523499	response	0	j		113.0	/home/egter/Projects/stimuli/pictures/R_S_ILSVRC2015_train_00465000.png	137.84914994239807	
116	108.49255609512329	picture	0		67.0	114.0	/home/egter/Projects/stimuli/pictures/S_ILSVRC2015_train_00465000.png	137.86321306228638	0.5622458457946777
116	109.04456114768982	response	0	j		114.0	/home/egter/Projects/stimuli/pictures/S_ILSVRC2015_train_00465000.png	138.4152181148529	
117	109.05480194091797	picture	0		87.0	115.0	/home/egter/Projects/stimuli/pictures/n02704792_11366.JPEG	138.42545890808105	0.7292120456695557
117	109.77016401290894	response	0	k		115.0	/home/egter/Projects/stimuli/pictures/n02704792_11366.JPEG	139.14082098007202	
118	109.78401398658752	picture	0		88.0	116.0	/home/egter/Projects/stimuli/pictures/R_S_yt-FoO02U39gy4_398.png	139.1546709537506	0.7501780986785889
118	110.51119112968445	response	0	j		116.0	/home/egter/Projects/stimuli/pictures/R_S_yt-FoO02U39gy4_398.png	139.88184809684753	
119	110.53419208526611	picture	0		93.0	117.0	/home/egter/Projects/stimuli/pictures/S_yt-HwGg4-zeWi8_364.png	139.9048490524292	0.7774899005889893
119	111.30288815498352	response	0	j		117.0	/home/egter/Projects/stimuli/pictures/S_yt-HwGg4-zeWi8_364.png	140.6735451221466	
120	111.3116819858551	picture	0		79.0	118.0	/home/egter/Projects/stimuli/pictures/R_S_flickr-53807584@N00-5565833509_7.png	140.6823389530182	0.6597180366516113
120	111.96116995811462	response	0	j		118.0	/home/egter/Projects/stimuli/pictures/R_S_flickr-53807584@N00-5565833509_7.png	141.3318269252777	
121	111.97140002250671	picture	0		89.0	119.0	/home/egter/Projects/stimuli/pictures/S_wc-oyG6AjP_W2EL_15.png	141.3420569896698	0.7430651187896729
121	112.7028341293335	response	0	j		119.0	/home/egter/Projects/stimuli/pictures/S_wc-oyG6AjP_W2EL_15.png	142.07349109649658	
122	112.71446514129639	picture	0		88.0	120.0	/home/egter/Projects/stimuli/pictures/R_S_yt-JGKdBO2Ldzo_93.png	142.08512210845947	0.7361788749694824
122	113.43677711486816	response	0	j		120.0	/home/egter/Projects/stimuli/pictures/R_S_yt-JGKdBO2Ldzo_93.png	142.80743408203125	
123	113.45064401626587	picture	0		83.0	121.0	/home/egter/Projects/stimuli/pictures/S_yt-WpLgDX6Yw_s_20.png	142.82130098342896	0.6943860054016113
123	114.13622999191284	response	0	j		121.0	/home/egter/Projects/stimuli/pictures/S_yt-WpLgDX6Yw_s_20.png	143.50688695907593	
124	114.14503002166748	picture	0		74.0	122.0	/home/egter/Projects/stimuli/pictures/S_pexels-mart-production-7698693.png	143.51568698883057	0.6180169582366943
124	114.75285196304321	response	0	j		122.0	/home/egter/Projects/stimuli/pictures/S_pexels-mart-production-7698693.png	144.1235089302063	
125	114.76304697990417	picture	0		75.0	123.0	/home/egter/Projects/stimuli/pictures/R_S_production_ID_3967181.png	144.13370394706726	0.6249780654907227
125	115.37790608406067	response	0	j		123.0	/home/egter/Projects/stimuli/pictures/R_S_production_ID_3967181.png	144.74856305122375	
126	115.3880250453949	picture	0		82.0	124.0	/home/egter/Projects/stimuli/pictures/n03868242_2756.JPEG	144.75868201255798	0.6878790855407715
126	116.06172013282776	response	0	k		124.0	/home/egter/Projects/stimuli/pictures/n03868242_2756.JPEG	145.43237709999084	
127	116.07590413093567	picture	0		73.0	125.0	/home/egter/Projects/stimuli/pictures/n03794056_15065.JPEG	145.44656109809875	0.6185569763183594
127	116.67102599143982	response	0	k		125.0	/home/egter/Projects/stimuli/pictures/n03794056_15065.JPEG	146.0416829586029	
128	116.69446110725403	picture	0		80.0	126.0	/home/egter/Projects/stimuli/pictures/R_S_yt-ZBk_XFb5PGo_25.png	146.06511807441711	0.6727688312530518
128	117.35346794128418	response	0	j		126.0	/home/egter/Projects/stimuli/pictures/R_S_yt-ZBk_XFb5PGo_25.png	146.72412490844727	
129	117.36722993850708	picture	0		82.0	127.0	/home/egter/Projects/stimuli/pictures/S_yt-QD74nNliDvI_10.png	146.73788690567017	0.6874401569366455
129	118.04449510574341	response	0	j		127.0	/home/egter/Projects/stimuli/pictures/S_yt-QD74nNliDvI_10.png	147.4151520729065	
130	118.05467009544373	picture	0		92.0	128.0	/home/egter/Projects/stimuli/pictures/R_S_yt-H45g6700wbc_159.png	147.4253270626068	0.7710409164428711
130	118.81170415878296	response	0	j		128.0	/home/egter/Projects/stimuli/pictures/R_S_yt-H45g6700wbc_159.png	148.18236112594604	
131	118.8257110118866	picture	0		86.0	129.0	/home/egter/Projects/stimuli/pictures/n01855672_5994.JPEG	148.19636797904968	0.729017972946167
131	119.53617405891418	response	0	k		129.0	/home/egter/Projects/stimuli/pictures/n01855672_5994.JPEG	148.90683102607727	
132	119.55472898483276	picture	0		83.0	130.0	/home/egter/Projects/stimuli/pictures/R_S_yt-1CV2cYtUlxE_57.png	148.92538595199585	0.6945250034332275
132	120.23614597320557	response	0	j		130.0	/home/egter/Projects/stimuli/pictures/R_S_yt-1CV2cYtUlxE_57.png	149.60680294036865	
133	120.24925398826599	picture	0		78.0	131.0	/home/egter/Projects/stimuli/pictures/n02356798_5587.JPEG	149.61991095542908	0.66184401512146
133	120.88769292831421	response	0	k		131.0	/home/egter/Projects/stimuli/pictures/n02356798_5587.JPEG	150.2583498954773	
134	120.91109800338745	picture	0		94.0	132.0	/home/egter/Projects/stimuli/pictures/R_S_pexels-kindel-media-8165572.png	150.28175497055054	0.7894749641418457
134	121.67945194244385	response	0	j		132.0	/home/egter/Projects/stimuli/pictures/R_S_pexels-kindel-media-8165572.png	151.05010890960693	
135	121.7005729675293	picture	0		63.0	133.0	/home/egter/Projects/stimuli/pictures/n04335435_18507.JPEG	151.07122993469238	0.5277321338653564
135	122.21952295303345	response	0	k		133.0	/home/egter/Projects/stimuli/pictures/n04335435_18507.JPEG	151.59017992019653	
136	122.22830510139465	picture	0		92.0	134.0	/home/egter/Projects/stimuli/pictures/R_S_yt-_HuBzj8EPBc_62.png	151.59896206855774	0.7708950042724609
136	122.9861330986023	response	0	j		134.0	/home/egter/Projects/stimuli/pictures/R_S_yt-_HuBzj8EPBc_62.png	152.35679006576538	
137	122.99920010566711	picture	0		80.0	135.0	/home/egter/Projects/stimuli/pictures/R_S_ILSVRC2015_train_00538000.png	152.3698570728302	0.6734509468078613
137	123.66122603416443	response	0	j		135.0	/home/egter/Projects/stimuli/pictures/R_S_ILSVRC2015_train_00538000.png	153.03188300132751	
138	123.67265105247498	picture	0		75.0	136.0	/home/egter/Projects/stimuli/pictures/n03791053_10671.JPEG	153.04330801963806	0.6250460147857666
138	124.27938604354858	response	0	k		136.0	/home/egter/Projects/stimuli/pictures/n03791053_10671.JPEG	153.65004301071167	
139	124.29769706726074	picture	0		86.0	137.0	/home/egter/Projects/stimuli/pictures/S_yt-2U5u3lLJx5M_7.png	153.66835403442383	0.7152619361877441
139	125.00280499458313	response	0	k		137.0	/home/egter/Projects/stimuli/pictures/S_yt-2U5u3lLJx5M_7.png	154.37346196174622	
140	125.01295900344849	picture	0		75.0	138.0	/home/egter/Projects/stimuli/pictures/R_S_dwi2oPzQ1Wo_48.png	154.38361597061157	0.6249921321868896
140	125.62784814834595	response	0	j		138.0	/home/egter/Projects/stimuli/pictures/R_S_dwi2oPzQ1Wo_48.png	154.99850511550903	
141	125.63795113563538	picture	0		81.0	139.0	/home/egter/Projects/stimuli/pictures/S_yt-JG2OY_7B-gI_537.png	155.00860810279846	0.6736049652099609
141	126.29598212242126	response	0	j		139.0	/home/egter/Projects/stimuli/pictures/S_yt-JG2OY_7B-gI_537.png	155.66663908958435	
142	126.31155610084534	picture	0		83.0	140.0	/home/egter/Projects/stimuli/pictures/n04347754_56755.JPEG	155.68221306800842	0.6943869590759277
142	126.99443292617798	response	0	k		140.0	/home/egter/Projects/stimuli/pictures/n04347754_56755.JPEG	156.36508989334106	
143	127.00594305992126	picture	0		85.0	141.0	/home/egter/Projects/stimuli/pictures/R_S_ILSVRC2015_train_00323000.png	156.37660002708435	0.7083420753479004
143	127.69619297981262	response	0	j		141.0	/home/egter/Projects/stimuli/pictures/R_S_ILSVRC2015_train_00323000.png	157.0668499469757	
144	127.71428513526917	picture	0		112.0	142.0	/home/egter/Projects/stimuli/pictures/n09193705_48522.JPEG	157.08494210243225	0.9305369853973389
144	128.6361701488495	response	0	k		142.0	/home/egter/Projects/stimuli/pictures/n09193705_48522.JPEG	158.00682711601257	
145	128.6448221206665	picture	0		82.0	143.0	/home/egter/Projects/stimuli/pictures/R_S_yt-I9uf7kAccFA_229.png	158.0154790878296	0.687614917755127
145	129.31942915916443	response	0	j		143.0	/home/egter/Projects/stimuli/pictures/R_S_yt-I9uf7kAccFA_229.png	158.69008612632751	
146	129.33243703842163	picture	0		113.0	144.0	/home/egter/Projects/stimuli/pictures/ILSVRC2012_test_00078910.JPEG	158.70309400558472	0.9515690803527832
146	130.26284408569336	response	0	k		144.0	/home/egter/Projects/stimuli/pictures/ILSVRC2012_test_00078910.JPEG	159.63350105285645	
147	130.2840061187744	picture	0		103.0	145.0	/home/egter/Projects/stimuli/pictures/S_yt-isJga8ec5UM_32.png	159.6546630859375	0.8608038425445557
147	131.1361210346222	response	0	j		145.0	/home/egter/Projects/stimuli/pictures/S_yt-isJga8ec5UM_32.png	160.50677800178528	
148	131.14480996131897	picture	0		67.0	146.0	/home/egter/Projects/stimuli/pictures/n03777568_16796.JPEG	160.51546692848206	0.5625669956207275
148	131.68811511993408	response	0	k		146.0	/home/egter/Projects/stimuli/pictures/n03777568_16796.JPEG	161.05877208709717	
149	131.7073769569397	picture	0		143.0	147.0	/home/egter/Projects/stimuli/pictures/S_yt-RvdcgC9LFy8_16.png	161.07803392410278	1.2014269828796387
149	132.89488101005554	response	0	k		147.0	/home/egter/Projects/stimuli/pictures/S_yt-RvdcgC9LFy8_16.png	162.26553797721863	
150	132.90880393981934	picture	0		90.0	148.0	/home/egter/Projects/stimuli/pictures/S_wc-eJe3wXMgTLRV_20.png	162.27946090698242	0.756892204284668
150	133.65275812149048	response	0	j		148.0	/home/egter/Projects/stimuli/pictures/S_wc-eJe3wXMgTLRV_20.png	163.02341508865356	
151	133.665696144104	picture	0		87.0	149.0	/home/egter/Projects/stimuli/pictures/S_yt-pKl8nduxfTI_798.png	163.0363531112671	0.7221620082855225
151	134.37770795822144	response	0	j		149.0	/home/egter/Projects/stimuli/pictures/S_yt-pKl8nduxfTI_798.png	163.74836492538452	
152	134.38785815238953	picture	0		76.0	150.0	/home/egter/Projects/stimuli/pictures/R_S_yt-v66td-1WO7w_44.png	163.7585151195526	0.6319398880004883
152	135.01118993759155	response	0	j		150.0	/home/egter/Projects/stimuli/pictures/R_S_yt-v66td-1WO7w_44.png	164.38184690475464	
153	135.01979804039001	picture	0		82.0	151.0	/home/egter/Projects/stimuli/pictures/n03721384_6710.JPEG	164.3904550075531	0.687514066696167
153	135.68802499771118	response	0	k		151.0	/home/egter/Projects/stimuli/pictures/n03721384_6710.JPEG	165.05868196487427	
154	135.70731210708618	picture	0		94.0	152.0	/home/egter/Projects/stimuli/pictures/n03871628_12731.JPEG	165.07796907424927	0.7916579246520996
154	136.47974705696106	response	0	k		152.0	/home/egter/Projects/stimuli/pictures/n03871628_12731.JPEG	165.85040402412415	
155	136.49897003173828	picture	0		78.0	153.0	/home/egter/Projects/stimuli/pictures/ILSVRC2012_test_00011334.JPEG	165.86962699890137	0.6599419116973877
155	137.1448769569397	response	0	k		153.0	/home/egter/Projects/stimuli/pictures/ILSVRC2012_test_00011334.JPEG	166.51553392410278	
156	137.15891194343567	picture	0		75.0	154.0	/home/egter/Projects/stimuli/pictures/ILSVRC2012_test_00060820.JPEG	166.52956891059875	0.6317222118377686
156	137.77773213386536	response	0	k		154.0	/home/egter/Projects/stimuli/pictures/ILSVRC2012_test_00060820.JPEG	167.14838910102844	
157	137.79063415527344	picture	0		124.0	155.0	/home/egter/Projects/stimuli/pictures/S_yt-2ICWjxvgVYU_4.png	167.16129112243652	1.034989833831787
157	138.8115930557251	response	0	k		155.0	/home/egter/Projects/stimuli/pictures/S_yt-2ICWjxvgVYU_4.png	168.18225002288818	
158	138.82562398910522	picture	0		221.0	156.0	/home/egter/Projects/stimuli/pictures/n03467068_27029.JPEG	168.1962809562683	1.8520381450653076
158	140.66104412078857	response	0	k		156.0	/home/egter/Projects/stimuli/pictures/n03467068_27029.JPEG	170.03170108795166	
159	140.67766213417053	picture	0		69.0	157.0	/home/egter/Projects/stimuli/pictures/n01735189_9231.JPEG	170.04831910133362	0.578251838684082
159	141.2443449497223	response	0	k		157.0	/home/egter/Projects/stimuli/pictures/n01735189_9231.JPEG	170.61500191688538	
160	141.25591397285461	picture	0		74.0	158.0	/home/egter/Projects/stimuli/pictures/S_yt-bD1U6bo-6bE_465.png	170.6265709400177	0.6181080341339111
160	141.86105799674988	response	0	j		158.0	/home/egter/Projects/stimuli/pictures/S_yt-bD1U6bo-6bE_465.png	171.23171496391296	
161	141.87402200698853	picture	0		82.0	159.0	/home/egter/Projects/stimuli/pictures/R_S_yt-QD74nNliDvI_10.png	171.2446789741516	0.6873819828033447
161	142.55269598960876	response	0	k		159.0	/home/egter/Projects/stimuli/pictures/R_S_yt-QD74nNliDvI_10.png	171.92335295677185	
162	142.56140398979187	picture	0		96.0	160.0	/home/egter/Projects/stimuli/pictures/n02950826_16963.JPEG	171.93206095695496	0.8055980205535889
162	143.35314106941223	response	0	k		160.0	/home/egter/Projects/stimuli/pictures/n02950826_16963.JPEG	172.72379803657532	
163	143.36700201034546	picture	0		78.0	161.0	/home/egter/Projects/stimuli/pictures/n03930630_10328.JPEG	172.73765897750854	0.6526980400085449
163	144.01102900505066	response	0	k		161.0	/home/egter/Projects/stimuli/pictures/n03930630_10328.JPEG	173.38168597221375	
164	144.019700050354	picture	0		62.0	162.0	/home/egter/Projects/stimuli/pictures/n03095699_21006.JPEG	173.3903570175171	0.5245978832244873
164	144.5277121067047	response	0	k		162.0	/home/egter/Projects/stimuli/pictures/n03095699_21006.JPEG	173.8983690738678	
165	144.5442979335785	picture	0		119.0	163.0	/home/egter/Projects/stimuli/pictures/S_S005_C015_SDR_2K_AVC.png	173.91495490074158	0.9962210655212402
165	145.52775311470032	response	0	j		163.0	/home/egter/Projects/stimuli/pictures/S_S005_C015_SDR_2K_AVC.png	174.8984100818634	
166	145.54051899909973	picture	0		79.0	164.0	/home/egter/Projects/stimuli/pictures/n02514041_6107.JPEG	174.91117596626282	0.6622779369354248
166	146.18645215034485	response	0	k		164.0	/home/egter/Projects/stimuli/pictures/n02514041_6107.JPEG	175.55710911750793	
167	146.20279693603516	picture	0		78.0	165.0	/home/egter/Projects/stimuli/pictures/R_S_production_ID_3927047.png	175.57345390319824	0.6502211093902588
167	146.84439992904663	response	0	j		165.0	/home/egter/Projects/stimuli/pictures/R_S_production_ID_3927047.png	176.21505689620972	
168	146.85301804542542	picture	0		179.0	166.0	/home/egter/Projects/stimuli/pictures/S_yt-6MAIu_hWEz0_56.png	176.2236750125885	1.4995958805084229
168	148.33604192733765	response	0	j		166.0	/home/egter/Projects/stimuli/pictures/S_yt-6MAIu_hWEz0_56.png	177.70669889450073	
169	148.35261392593384	picture	0		180.0	167.0	/home/egter/Projects/stimuli/pictures/R_S_yt-JTuopUgmg1w_101.png	177.72327089309692	1.500340223312378
169	149.8443579673767	response	0	j		167.0	/home/egter/Projects/stimuli/pictures/R_S_yt-JTuopUgmg1w_101.png	179.2150149345398	
170	149.85295414924622	picture	0		74.0	168.0	/home/egter/Projects/stimuli/pictures/ILSVRC2012_test_00094818.JPEG	179.2236111164093	0.6246778964996338
170	150.46105909347534	response	0	k		168.0	/home/egter/Projects/stimuli/pictures/ILSVRC2012_test_00094818.JPEG	179.83171606063843	
171	150.47763204574585	picture	0		102.0	169.0	/home/egter/Projects/stimuli/pictures/S_nvbAwZOKBS8_23.png	179.84828901290894	0.8544800281524658
171	151.3192789554596	response	0	j		169.0	/home/egter/Projects/stimuli/pictures/S_nvbAwZOKBS8_23.png	180.68993592262268	
172	151.33211207389832	picture	0		72.0	170.0	/home/egter/Projects/stimuli/pictures/R_S_yt-_7HJhRPVmHw_255.png	180.7027690410614	0.5972299575805664
172	151.91931414604187	response	0	j		170.0	/home/egter/Projects/stimuli/pictures/R_S_yt-_7HJhRPVmHw_255.png	181.28997111320496	
173	151.92934203147888	picture	0		72.0	171.0	/home/egter/Projects/stimuli/pictures/S_g201_CA_A016_C002_SDR_20191114_SDR_2K_AVC.png	181.29999899864197	0.6042640209197998
173	152.51972103118896	response	0	j		171.0	/home/egter/Projects/stimuli/pictures/S_g201_CA_A016_C002_SDR_20191114_SDR_2K_AVC.png	181.89037799835205	
174	152.53360605239868	picture	0		83.0	172.0	/home/egter/Projects/stimuli/pictures/R_S_9smWynsk6sI_158.png	181.90426301956177	0.6943531036376953
174	153.21932792663574	response	0	j		172.0	/home/egter/Projects/stimuli/pictures/R_S_9smWynsk6sI_158.png	182.58998489379883	
175	153.22795915603638	picture	0		85.0	173.0	/home/egter/Projects/stimuli/pictures/n03777568_10386.JPEG	182.59861612319946	0.7083418369293213
175	153.92767310142517	response	0	k		173.0	/home/egter/Projects/stimuli/pictures/n03777568_10386.JPEG	183.29833006858826	
176	153.9363009929657	picture	0		130.0	174.0	/home/egter/Projects/stimuli/pictures/S_yt--Ra34zJ69AU_68.png	183.30695796012878	1.0833280086517334
176	155.01099109649658	response	0	j		174.0	/home/egter/Projects/stimuli/pictures/S_yt--Ra34zJ69AU_68.png	184.38164806365967	
177	155.01962900161743	picture	0		84.0	175.0	/home/egter/Projects/stimuli/pictures/S_hkunxDEshL4_95.png	184.39028596878052	0.7083320617675781
177	155.70427799224854	response	0	k		175.0	/home/egter/Projects/stimuli/pictures/S_hkunxDEshL4_95.png	185.07493495941162	
178	155.727961063385	picture	0		120.0	176.0	/home/egter/Projects/stimuli/pictures/R_S_yt-y3tyx6cZjmA_412.png	185.0986180305481	0.9999520778656006
178	156.71930599212646	response	0	j		176.0	/home/egter/Projects/stimuli/pictures/R_S_yt-y3tyx6cZjmA_412.png	186.08996295928955	
179	156.7279131412506	picture	0		85.0	177.0	/home/egter/Projects/stimuli/pictures/R_S_yt-tVfYnm81ywo_82.png	186.0985701084137	0.7083239555358887
179	157.42766904830933	response	0	j		177.0	/home/egter/Projects/stimuli/pictures/R_S_yt-tVfYnm81ywo_82.png	186.7983260154724	
180	157.4362370967865	picture	0		95.0	178.0	/home/egter/Projects/stimuli/pictures/n01744401_6341.JPEG	186.80689406394958	0.7916269302368164
180	158.21935105323792	response	0	k		178.0	/home/egter/Projects/stimuli/pictures/n01744401_6341.JPEG	187.590008020401	
181	158.22786402702332	picture	0		89.0	179.0	/home/egter/Projects/stimuli/pictures/n02536864_1961.JPEG	187.5985209941864	0.7431089878082275
181	158.96095204353333	response	0	k		179.0	/home/egter/Projects/stimuli/pictures/n02536864_1961.JPEG	188.3316090106964	
182	158.97097301483154	stim	0		738.0			188.34162998199463	6.148148059844971
182	165.10366010665894	response	0	space				194.47431707382202	
