trial_nr	onset	event_type	phase	response	nr_frames	picture_index	picture_file	onset_abs	duration
0	0.015520095825195312	stim	0		1818.0			38.36397910118103	15.161612033843994
0	12.45238208770752	response	0	j				50.800841093063354	
0	15.160526990890503	response	0	space				53.50898599624634	
2	15.17713212966919	picture	0		405.0	0.0	/home/egter/Projects/stimuli/pictures/ILSVRC2012_test_00011550.JPEG	53.525591135025024	3.383327007293701
2	18.544009923934937	response	0	k		0.0	/home/egter/Projects/stimuli/pictures/ILSVRC2012_test_00011550.JPEG	56.89246892929077	
3	18.56045913696289	picture	0		185.0	1.0	/home/egter/Projects/stimuli/pictures/n01981276_1306.JPEG	56.908918142318726	1.5459809303283691
3	20.093828916549683	response	0	k		1.0	/home/egter/Projects/stimuli/pictures/n01981276_1306.JPEG	58.44228792190552	
4	20.10644006729126	picture	0		146.0	2.0	/home/egter/Projects/stimuli/pictures/S_pexels-roman-odintsov-8232443_1.png	58.454899072647095	1.2151780128479004
4	21.31049394607544	response	0	j		2.0	/home/egter/Projects/stimuli/pictures/S_pexels-roman-odintsov-8232443_1.png	59.658952951431274	
5	21.32161808013916	picture	0		209.0	3.0	/home/egter/Projects/stimuli/pictures/S_10zlWVJ5aRw_5.png	59.670077085494995	1.7568888664245605
5	23.045391082763672	response	0	k		3.0	/home/egter/Projects/stimuli/pictures/S_10zlWVJ5aRw_5.png	61.39385008811951	
6	23.07850694656372	picture	0		196.0	4.0	/home/egter/Projects/stimuli/pictures/R_S_yt-jUGt_Byqczw_599.png	61.426965951919556	1.6319100856781006
6	24.702083110809326	response	0	j		4.0	/home/egter/Projects/stimuli/pictures/R_S_yt-jUGt_Byqczw_599.png	63.05054211616516	
7	24.71041703224182	picture	0		268.0	5.0	/home/egter/Projects/stimuli/pictures/S_yt-ZynGxEtFNdk_243.png	63.058876037597656	2.236098051071167
7	26.935477018356323	response	0	k		5.0	/home/egter/Projects/stimuli/pictures/S_yt-ZynGxEtFNdk_243.png	65.28393602371216	
8	26.94651508331299	picture	0		131.0	6.0	/home/egter/Projects/stimuli/pictures/S_yt-uE9XoCLZlFo_1.png	65.29497408866882	1.0971949100494385
8	28.02711009979248	response	0	k		6.0	/home/egter/Projects/stimuli/pictures/S_yt-uE9XoCLZlFo_1.png	66.37556910514832	
9	28.043709993362427	picture	0		201.0	7.0	/home/egter/Projects/stimuli/pictures/S_yt-vMnSbsjGK9k_62.png	66.39216899871826	1.6832609176635742
9	29.710489988327026	response	0	j		7.0	/home/egter/Projects/stimuli/pictures/S_yt-vMnSbsjGK9k_62.png	68.05894899368286	
10	29.726970911026	picture	0		137.0	8.0	/home/egter/Projects/stimuli/pictures/n02106662_31971.JPEG	68.07542991638184	1.150123119354248
10	30.86044692993164	response	0	k		8.0	/home/egter/Projects/stimuli/pictures/n02106662_31971.JPEG	69.20890593528748	
11	30.87709403038025	picture	0		518.0	9.0	/home/egter/Projects/stimuli/pictures/n04252225_30744.JPEG	69.22555303573608	4.319349050521851
11	35.18540811538696	response	0	k		9.0	/home/egter/Projects/stimuli/pictures/n04252225_30744.JPEG	73.5338671207428	
12	35.1964430809021	picture	0		183.0	10.0	/home/egter/Projects/stimuli/pictures/S_yt-n2sJadTbuxo_10.png	73.54490208625793	1.5278308391571045
12	36.71046710014343	response	0	k		10.0	/home/egter/Projects/stimuli/pictures/S_yt-n2sJadTbuxo_10.png	75.05892610549927	
13	36.724273920059204	picture	0		217.0	11.0	/home/egter/Projects/stimuli/pictures/n01833805_1496.JPEG	75.07273292541504	1.8123791217803955
13	38.52706503868103	response	0	k		11.0	/home/egter/Projects/stimuli/pictures/n01833805_1496.JPEG	76.87552404403687	
14	38.5366530418396	picture	0		138.0	12.0	/home/egter/Projects/stimuli/pictures/S_yt-sa-EMUqvd5w_245.png	76.88511204719543	1.1529219150543213
14	39.67706108093262	response	0	j		12.0	/home/egter/Projects/stimuli/pictures/S_yt-sa-EMUqvd5w_245.png	78.02552008628845	
15	39.68957495689392	picture	0		134.0	13.0	/home/egter/Projects/stimuli/pictures/S_ILSVRC2015_train_00460000.png	78.03803396224976	1.118124008178711
15	40.79375910758972	response	0	j		13.0	/home/egter/Projects/stimuli/pictures/S_ILSVRC2015_train_00460000.png	79.14221811294556	
16	40.80769896507263	picture	0		118.0	14.0	/home/egter/Projects/stimuli/pictures/S_yt-RVoC19C420Y_27.png	79.15615797042847	0.9942340850830078
16	41.785407066345215	response	0	j		14.0	/home/egter/Projects/stimuli/pictures/S_yt-RVoC19C420Y_27.png	80.13386607170105	
17	41.80193305015564	picture	0		141.0	15.0	/home/egter/Projects/stimuli/pictures/n01776313_35490.JPEG	80.15039205551147	1.1793060302734375
17	42.968713998794556	response	0	k		15.0	/home/egter/Projects/stimuli/pictures/n01776313_35490.JPEG	81.31717300415039	
18	42.98123908042908	picture	0		90.0	16.0	/home/egter/Projects/stimuli/pictures/S_yt-9Q7SZR0mgMA_155.png	81.32969808578491	0.7568588256835938
18	43.72705101966858	response	0	j		16.0	/home/egter/Projects/stimuli/pictures/S_yt-9Q7SZR0mgMA_155.png	82.07551002502441	
19	43.73809790611267	picture	0		125.0	17.0	/home/egter/Projects/stimuli/pictures/n04465501_7059.JPEG	82.0865569114685	1.0416200160980225
19	44.76875591278076	response	0	k		17.0	/home/egter/Projects/stimuli/pictures/n04465501_7059.JPEG	83.1172149181366	
20	44.77971792221069	picture	0		96.0	18.0	/home/egter/Projects/stimuli/pictures/R_S_yt-a5TGHnldsKg_102.png	83.12817692756653	0.7986001968383789
20	45.568681955337524	response	0	j		18.0	/home/egter/Projects/stimuli/pictures/R_S_yt-a5TGHnldsKg_102.png	83.91714096069336	
21	45.57831811904907	picture	0		141.0	19.0	/home/egter/Projects/stimuli/pictures/R_S_ILSVRC2015_train_00251004.png	83.92677712440491	1.1735868453979492
21	46.7437310218811	response	0	j		19.0	/home/egter/Projects/stimuli/pictures/R_S_ILSVRC2015_train_00251004.png	85.09219002723694	
22	46.75190496444702	picture	0		113.0	20.0	/home/egter/Projects/stimuli/pictures/R_S_yt-IigHVUksnw8_7.png	85.10036396980286	0.9444341659545898
22	47.68534302711487	response	0	j		20.0	/home/egter/Projects/stimuli/pictures/R_S_yt-IigHVUksnw8_7.png	86.0338020324707	
23	47.69633913040161	picture	0		211.0	21.0	/home/egter/Projects/stimuli/pictures/S_pexels-rodnae-productions-5993237_1.png	86.04479813575745	1.7568728923797607
23	49.43689012527466	response	0	k		21.0	/home/egter/Projects/stimuli/pictures/S_pexels-rodnae-productions-5993237_1.png	87.7853491306305	
24	49.45321202278137	picture	0		132.0	22.0	/home/egter/Projects/stimuli/pictures/S_yt-3JApfnMu5cU_378.png	87.8016710281372	1.104396104812622
24	50.543779134750366	response	0	j		22.0	/home/egter/Projects/stimuli/pictures/S_yt-3JApfnMu5cU_378.png	88.8922381401062	
25	50.557608127593994	picture	0		111.0	23.0	/home/egter/Projects/stimuli/pictures/S_yt-zam74qlzGtQ_122.png	88.90606713294983	0.9303889274597168
25	51.47697997093201	response	0	j		23.0	/home/egter/Projects/stimuli/pictures/S_yt-zam74qlzGtQ_122.png	89.82543897628784	
26	51.48799705505371	picture	0		123.0	24.0	/home/egter/Projects/stimuli/pictures/S_ILSVRC2015_train_00066005.png	89.83645606040955	1.02789306640625
26	52.502028942108154	response	0	j		24.0	/home/egter/Projects/stimuli/pictures/S_ILSVRC2015_train_00066005.png	90.85048794746399	
27	52.51589012145996	picture	0		130.0	25.0	/home/egter/Projects/stimuli/pictures/n01753488_7071.JPEG	90.8643491268158	1.0901408195495605
27	53.59364891052246	response	0	j		25.0	/home/egter/Projects/stimuli/pictures/n01753488_7071.JPEG	91.9421079158783	
28	53.60603094100952	picture	0		108.0	26.0	/home/egter/Projects/stimuli/pictures/R_S_yt-Mjm5smrurQI_125.png	91.95448994636536	0.8958601951599121
28	54.49370098114014	response	0	j		26.0	/home/egter/Projects/stimuli/pictures/R_S_yt-Mjm5smrurQI_125.png	92.84215998649597	
29	54.501891136169434	picture	0		118.0	27.0	/home/egter/Projects/stimuli/pictures/R_S_yt-nn-8LZcafGs_35.png	92.85035014152527	1.016648769378662
29	55.476938009262085	response	0	j		27.0	/home/egter/Projects/stimuli/pictures/R_S_yt-nn-8LZcafGs_35.png	93.82539701461792	
30	55.518539905548096	picture	0		116.0	28.0	/home/egter/Projects/stimuli/pictures/R_S_yt-GfPep7IhZIU_47.png	93.86699891090393	0.9750080108642578
30	56.47697305679321	response	0	j		28.0	/home/egter/Projects/stimuli/pictures/R_S_yt-GfPep7IhZIU_47.png	94.82543206214905	
31	56.49354791641235	picture	0		192.0	29.0	/home/egter/Projects/stimuli/pictures/S_wc-7ugQ0V4lxYkJ_131.png	94.84200692176819	1.6083581447601318
31	58.08533000946045	response	0	j		29.0	/home/egter/Projects/stimuli/pictures/S_wc-7ugQ0V4lxYkJ_131.png	96.43378901481628	
32	58.101906061172485	picture	0		130.0	30.0	/home/egter/Projects/stimuli/pictures/n09288635_24719.JPEG	96.45036506652832	1.0916509628295898
32	59.17691397666931	response	0	k		30.0	/home/egter/Projects/stimuli/pictures/n09288635_24719.JPEG	97.52537298202515	
33	59.193557024002075	picture	0		147.0	31.0	/home/egter/Projects/stimuli/pictures/S_yt-NqyG4Ar2JWo_10.png	97.54201602935791	1.233306884765625
33	60.41028594970703	response	0	k		31.0	/home/egter/Projects/stimuli/pictures/S_yt-NqyG4Ar2JWo_10.png	98.75874495506287	
34	60.4268639087677	picture	0		84.0	32.0	/home/egter/Projects/stimuli/pictures/S_yt-nn-8LZcafGs_35.png	98.77532291412354	0.7083761692047119
34	61.118520975112915	response	0	j		32.0	/home/egter/Projects/stimuli/pictures/S_yt-nn-8LZcafGs_35.png	99.46697998046875	
35	61.13524007797241	picture	0		168.0	33.0	/home/egter/Projects/stimuli/pictures/S_comp_GMT308_139K_142NC_CARIBBEAN_DAY_v09_SDR_FINAL_22062018_SDR_2K_AVC.png	99.48369908332825	1.4012370109558105
35	62.52700090408325	response	0	j		33.0	/home/egter/Projects/stimuli/pictures/S_comp_GMT308_139K_142NC_CARIBBEAN_DAY_v09_SDR_FINAL_22062018_SDR_2K_AVC.png	100.87545990943909	
36	62.53647708892822	picture	0		198.0	34.0	/home/egter/Projects/stimuli/pictures/n02410509_1127.JPEG	100.88493609428406	1.6570279598236084
36	64.17690706253052	response	0	j		34.0	/home/egter/Projects/stimuli/pictures/n02410509_1127.JPEG	102.52536606788635	
37	64.19350504875183	picture	0		94.0	35.0	/home/egter/Projects/stimuli/pictures/S_wc-sd8_iKx0t7s7_9.png	102.54196405410767	0.8015658855438232
37	64.96861290931702	response	0	j		35.0	/home/egter/Projects/stimuli/pictures/S_wc-sd8_iKx0t7s7_9.png	103.31707191467285	
38	64.99507093429565	picture	0		172.0	36.0	/home/egter/Projects/stimuli/pictures/n02132136_21557.JPEG	103.34352993965149	1.4580609798431396
38	66.4185950756073	response	0	k		36.0	/home/egter/Projects/stimuli/pictures/n02132136_21557.JPEG	104.76705408096313	
39	66.4531319141388	picture	0		85.0	37.0	/home/egter/Projects/stimuli/pictures/n04238763_25909.JPEG	104.80159091949463	0.7153551578521729
39	67.15194010734558	response	0	j		37.0	/home/egter/Projects/stimuli/pictures/n04238763_25909.JPEG	105.50039911270142	
40	67.16848707199097	picture	0		298.0	38.0	/home/egter/Projects/stimuli/pictures/n02447366_2109.JPEG	105.5169460773468	2.492058038711548
40	69.64359903335571	response	0	j		38.0	/home/egter/Projects/stimuli/pictures/n02447366_2109.JPEG	107.99205803871155	
41	69.66054511070251	picture	0		320.0	39.0	/home/egter/Projects/stimuli/pictures/R_S_yt-bwSRV1Vr21s_435.png	108.00900411605835	2.674571990966797
41	72.31858897209167	response	0	j		39.0	/home/egter/Projects/stimuli/pictures/R_S_yt-bwSRV1Vr21s_435.png	110.66704797744751	
42	72.33511710166931	picture	0		116.0	40.0	/home/egter/Projects/stimuli/pictures/n02988304_11706.JPEG	110.68357610702515	0.9750149250030518
42	73.29359793663025	response	0	k		40.0	/home/egter/Projects/stimuli/pictures/n02988304_11706.JPEG	111.64205694198608	
43	73.31013202667236	picture	0		166.0	41.0	/home/egter/Projects/stimuli/pictures/S_wc-ikynRrpJVaWp_12.png	111.6585910320282	1.3929929733276367
43	74.67835998535156	response	0	j		41.0	/home/egter/Projects/stimuli/pictures/S_wc-ikynRrpJVaWp_12.png	113.0268189907074	
44	74.703125	picture	0		93.0	42.0	/home/egter/Projects/stimuli/pictures/S_ILSVRC2015_train_00251005.png	113.05158400535583	0.7822480201721191
44	75.46182894706726	response	0	j		42.0	/home/egter/Projects/stimuli/pictures/S_ILSVRC2015_train_00251005.png	113.8102879524231	
45	75.48537302017212	picture	0		476.0	43.0	/home/egter/Projects/stimuli/pictures/R_S_yt-JpOBXV46TLE_124.png	113.83383202552795	3.9747159481048584
45	79.44350695610046	response	0	j		43.0	/home/egter/Projects/stimuli/pictures/R_S_yt-JpOBXV46TLE_124.png	117.7919659614563	
46	79.46008896827698	picture	0		234.0	44.0	/home/egter/Projects/stimuli/pictures/S_yt-oASqBTM-5fw_73.png	117.80854797363281	1.9666590690612793
46	81.40184712409973	response	0	j		44.0	/home/egter/Projects/stimuli/pictures/S_yt-oASqBTM-5fw_73.png	119.75030612945557	
47	81.42674803733826	picture	0		86.0	45.0	/home/egter/Projects/stimuli/pictures/S_pexels-anthony-shkraba-production-8135459.png	119.77520704269409	0.7206380367279053
47	82.13512706756592	response	0	j		45.0	/home/egter/Projects/stimuli/pictures/S_pexels-anthony-shkraba-production-8135459.png	120.48358607292175	
48	82.14738607406616	picture	0		161.0	46.0	/home/egter/Projects/stimuli/pictures/n02101388_4596.JPEG	120.495845079422	1.3404419422149658
48	83.47004199028015	response	0	k		46.0	/home/egter/Projects/stimuli/pictures/n02101388_4596.JPEG	121.81850099563599	
49	83.48782801628113	picture	0		106.0	47.0	/home/egter/Projects/stimuli/pictures/R_S_yt-w_C-15eJeCQ_191.png	121.83628702163696	0.8817760944366455
49	84.36022806167603	response	0	j		47.0	/home/egter/Projects/stimuli/pictures/R_S_yt-w_C-15eJeCQ_191.png	122.70868706703186	
50	84.36960411071777	picture	0		252.0	48.0	/home/egter/Projects/stimuli/pictures/n03773504_370.JPEG	122.71806311607361	2.1041929721832275
50	86.4533269405365	response	0	k		48.0	/home/egter/Projects/stimuli/pictures/n03773504_370.JPEG	124.80178594589233	
51	86.473797082901	picture	0		158.0	49.0	/home/egter/Projects/stimuli/pictures/n01797886_14987.JPEG	124.82225608825684	1.3279469013214111
51	87.7851939201355	response	0	k		49.0	/home/egter/Projects/stimuli/pictures/n01797886_14987.JPEG	126.13365292549133	
52	87.80174398422241	picture	0		114.0	50.0	/home/egter/Projects/stimuli/pictures/S_yt-ZmoUDsP2y40_8.png	126.15020298957825	0.9499869346618652
52	88.7435359954834	response	0	k		50.0	/home/egter/Projects/stimuli/pictures/S_yt-ZmoUDsP2y40_8.png	127.09199500083923	
53	88.75173091888428	picture	0		124.0	51.0	/home/egter/Projects/stimuli/pictures/R_S_yt-aiDGx4AN8J0_9.png	127.10018992424011	1.0345101356506348
53	89.77681803703308	response	0	j		51.0	/home/egter/Projects/stimuli/pictures/R_S_yt-aiDGx4AN8J0_9.png	128.12527704238892	
54	89.78624105453491	picture	0		137.0	52.0	/home/egter/Projects/stimuli/pictures/n09288635_9130.JPEG	128.13470005989075	1.1488230228424072
54	90.91855311393738	response	0	k		52.0	/home/egter/Projects/stimuli/pictures/n09288635_9130.JPEG	129.2670121192932	
55	90.93506407737732	picture	0		100.0	53.0	/home/egter/Projects/stimuli/pictures/R_S_production_ID_4101242.png	129.28352308273315	0.8372619152069092
55	91.76037311553955	response	0	j		53.0	/home/egter/Projects/stimuli/pictures/R_S_production_ID_4101242.png	130.10883212089539	
56	91.77232599258423	picture	0		134.0	54.0	/home/egter/Projects/stimuli/pictures/S_yt-sWBjSPt7tZI_85.png	130.12078499794006	1.1181039810180664
56	92.87008500099182	response	0	k		54.0	/home/egter/Projects/stimuli/pictures/S_yt-sWBjSPt7tZI_85.png	131.21854400634766	
57	92.8904299736023	picture	0		121.0	55.0	/home/egter/Projects/stimuli/pictures/n02817516_67499.JPEG	131.23888897895813	1.0138239860534668
57	93.88670611381531	response	0	k		55.0	/home/egter/Projects/stimuli/pictures/n02817516_67499.JPEG	132.23516511917114	
58	93.90425395965576	picture	0		187.0	56.0	/home/egter/Projects/stimuli/pictures/S_yt-cILZ_cB3_so_73.png	132.2527129650116	1.5558950901031494
58	95.45179295539856	response	0	k		56.0	/home/egter/Projects/stimuli/pictures/S_yt-cILZ_cB3_so_73.png	133.8002519607544	
59	95.46014904975891	picture	0		106.0	57.0	/home/egter/Projects/stimuli/pictures/R_S_comp_A105_C003_0212CT_FLARE_v10_SDR_PS_FINAL_20180711_SDR_2K_AVC.png	133.80860805511475	0.8886270523071289
59	96.33515906333923	response	0	j		57.0	/home/egter/Projects/stimuli/pictures/R_S_comp_A105_C003_0212CT_FLARE_v10_SDR_PS_FINAL_20180711_SDR_2K_AVC.png	134.68361806869507	
60	96.34877610206604	picture	0		122.0	58.0	/home/egter/Projects/stimuli/pictures/R_S_OdxWh1oU8e8_1.png	134.69723510742188	1.020697832107544
60	97.36017513275146	response	0	j		58.0	/home/egter/Projects/stimuli/pictures/R_S_OdxWh1oU8e8_1.png	135.7086341381073	
61	97.36947393417358	picture	0		192.0	59.0	/home/egter/Projects/stimuli/pictures/n02786058_2296.JPEG	135.71793293952942	1.6041810512542725
61	98.96010398864746	response	0	k		59.0	/home/egter/Projects/stimuli/pictures/n02786058_2296.JPEG	137.3085629940033	
62	98.97365498542786	picture	0		98.0	60.0	/home/egter/Projects/stimuli/pictures/R_S_pexels-mart-production-7277934.png	137.3221139907837	0.8280220031738281
62	99.78513312339783	response	0	j		60.0	/home/egter/Projects/stimuli/pictures/R_S_pexels-mart-production-7277934.png	138.13359212875366	
63	99.80167698860168	picture	0		180.0	61.0	/home/egter/Projects/stimuli/pictures/n02101556_5125.JPEG	138.15013599395752	1.5083260536193848
63	101.28673005104065	response	0	k		61.0	/home/egter/Projects/stimuli/pictures/n02101556_5125.JPEG	139.63518905639648	
64	101.31000304222107	picture	0		502.0	62.0	/home/egter/Projects/stimuli/pictures/R_S_EFR8AteY59I_15.png	139.6584620475769	4.191644906997681
64	105.47838807106018	response	0	j		62.0	/home/egter/Projects/stimuli/pictures/R_S_EFR8AteY59I_15.png	143.82684707641602	
65	105.50164794921875	picture	0		97.0	63.0	/home/egter/Projects/stimuli/pictures/R_S_yt-fymgyhmYnMI_76.png	143.85010695457458	0.8166670799255371
65	106.29499912261963	response	0	j		63.0	/home/egter/Projects/stimuli/pictures/R_S_yt-fymgyhmYnMI_76.png	144.64345812797546	
66	106.31831502914429	picture	0		89.0	64.0	/home/egter/Projects/stimuli/pictures/R_S_yt-HwZFMTZ7Xko_35.png	144.66677403450012	0.7500050067901611
66	107.05177998542786	response	0	j		64.0	/home/egter/Projects/stimuli/pictures/R_S_yt-HwZFMTZ7Xko_35.png	145.4002389907837	
67	107.06832003593445	picture	0		95.0	65.0	/home/egter/Projects/stimuli/pictures/S_pexels-vlada-karpovich-8044792.png	145.41677904129028	0.80000901222229
67	107.85179591178894	response	0	j		65.0	/home/egter/Projects/stimuli/pictures/S_pexels-vlada-karpovich-8044792.png	146.20025491714478	
68	107.86832904815674	picture	0		130.0	66.0	/home/egter/Projects/stimuli/pictures/R_S_production_ID_4540332.png	146.21678805351257	1.0916459560394287
68	108.94345903396606	response	0	k		66.0	/home/egter/Projects/stimuli/pictures/R_S_production_ID_4540332.png	147.2919180393219	
69	108.95997500419617	picture	0		101.0	67.0	/home/egter/Projects/stimuli/pictures/n03873416_6663.JPEG	147.308434009552	0.8500649929046631
69	109.79342293739319	response	0	k		67.0	/home/egter/Projects/stimuli/pictures/n03873416_6663.JPEG	148.14188194274902	
70	109.81003999710083	picture	0		218.0	68.0	/home/egter/Projects/stimuli/pictures/S_ILSVRC2015_train_00516000.png	148.15849900245667	1.824958086013794
70	111.61841797828674	response	0	k		68.0	/home/egter/Projects/stimuli/pictures/S_ILSVRC2015_train_00516000.png	149.96687698364258	
71	111.63499808311462	picture	0		93.0	69.0	/home/egter/Projects/stimuli/pictures/n03498962_11632.JPEG	149.98345708847046	0.7833080291748047
71	112.40169095993042	response	0	k		69.0	/home/egter/Projects/stimuli/pictures/n03498962_11632.JPEG	150.75014996528625	
72	112.41830611228943	picture	0		108.0	70.0	/home/egter/Projects/stimuli/pictures/R_S_yt--cAfxH1WnPo_3.png	150.76676511764526	0.9087028503417969
72	113.31010293960571	response	0	j		70.0	/home/egter/Projects/stimuli/pictures/R_S_yt--cAfxH1WnPo_3.png	151.65856194496155	
73	113.32700896263123	picture	0		136.0	71.0	/home/egter/Projects/stimuli/pictures/n02879718_27067.JPEG	151.67546796798706	1.1412990093231201
73	114.45173501968384	response	0	k		71.0	/home/egter/Projects/stimuli/pictures/n02879718_27067.JPEG	152.80019402503967	
74	114.46830797195435	picture	0		97.0	72.0	/home/egter/Projects/stimuli/pictures/S_yt-nE8YJOhW4e4_171.png	152.81676697731018	0.8166470527648926
74	115.26157903671265	response	0	j		72.0	/home/egter/Projects/stimuli/pictures/S_yt-nE8YJOhW4e4_171.png	153.61003804206848	
75	115.28495502471924	picture	0		103.0	73.0	/home/egter/Projects/stimuli/pictures/R_S_wc-__wCAtivIDG3_93.png	153.63341403007507	0.9166979789733887
75	116.13507413864136	response	0	j		73.0	/home/egter/Projects/stimuli/pictures/R_S_wc-__wCAtivIDG3_93.png	154.4835331439972	
76	116.20165300369263	picture	0		235.0	74.0	/home/egter/Projects/stimuli/pictures/S_yt-sde4IKBgBMw_21.png	154.55011200904846	1.959285020828247
76	118.1516740322113	response	0	k		74.0	/home/egter/Projects/stimuli/pictures/S_yt-sde4IKBgBMw_21.png	156.50013303756714	
77	118.16093802452087	picture	0		274.0	75.0	/home/egter/Projects/stimuli/pictures/R_S_comp_LA_A006_C008_PSNK_ALL_LOGOS_v10_SDR_PS_FINAL_20180801_SDR_2K_AVC.png	156.5093970298767	2.2907299995422363
77	120.43504405021667	response	0	j		75.0	/home/egter/Projects/stimuli/pictures/R_S_comp_LA_A006_C008_PSNK_ALL_LOGOS_v10_SDR_PS_FINAL_20180801_SDR_2K_AVC.png	158.7835030555725	
78	120.45166802406311	picture	0		92.0	76.0	/home/egter/Projects/stimuli/pictures/n07693725_9013.JPEG	158.80012702941895	0.7749419212341309
78	121.21004796028137	response	0	k		76.0	/home/egter/Projects/stimuli/pictures/n07693725_9013.JPEG	159.5585069656372	
79	121.22660994529724	picture	0		124.0	77.0	/home/egter/Projects/stimuli/pictures/n02988304_3864.JPEG	159.57506895065308	1.0499751567840576
79	122.25169396400452	response	0	k		77.0	/home/egter/Projects/stimuli/pictures/n02988304_3864.JPEG	160.60015296936035	
80	122.2765851020813	picture	0		210.0	78.0	/home/egter/Projects/stimuli/pictures/ILSVRC2012_val_00031535.JPEG	160.62504410743713	1.7583339214324951
80	124.01836204528809	response	0	k		78.0	/home/egter/Projects/stimuli/pictures/ILSVRC2012_val_00031535.JPEG	162.36682105064392	
81	124.0349190235138	picture	0		103.0	79.0	/home/egter/Projects/stimuli/pictures/S_yt--cAfxH1WnPo_3.png	162.38337802886963	0.883342981338501
81	124.87820291519165	response	0	j		79.0	/home/egter/Projects/stimuli/pictures/S_yt--cAfxH1WnPo_3.png	163.22666192054749	
82	124.9182620048523	picture	0		299.0	80.0	/home/egter/Projects/stimuli/pictures/n02814533_4087.JPEG	163.26672101020813	2.499988079071045
82	127.40171098709106	response	0	k		80.0	/home/egter/Projects/stimuli/pictures/n02814533_4087.JPEG	165.7501699924469	
83	127.41825008392334	picture	0		98.0	81.0	/home/egter/Projects/stimuli/pictures/n03457902_10209.JPEG	165.76670908927917	0.8249809741973877
83	128.22666597366333	response	0	k		81.0	/home/egter/Projects/stimuli/pictures/n03457902_10209.JPEG	166.57512497901917	
84	128.24323105812073	picture	0		116.0	82.0	/home/egter/Projects/stimuli/pictures/n04428191_27671.JPEG	166.59169006347656	0.9750020503997803
84	129.20162796974182	response	0	k		82.0	/home/egter/Projects/stimuli/pictures/n04428191_27671.JPEG	167.55008697509766	
85	129.2182331085205	picture	0		117.0	83.0	/home/egter/Projects/stimuli/pictures/n04597913_2077.JPEG	167.56669211387634	0.9833238124847412
85	130.18498301506042	response	0	k		83.0	/home/egter/Projects/stimuli/pictures/n04597913_2077.JPEG	168.53344202041626	
86	130.20155692100525	picture	0		116.0	84.0	/home/egter/Projects/stimuli/pictures/R_S_yt-tEzCpMrjOHs_24.png	168.55001592636108	0.9750370979309082
86	131.16002106666565	response	0	j		84.0	/home/egter/Projects/stimuli/pictures/R_S_yt-tEzCpMrjOHs_24.png	169.50848007202148	
87	131.17659401893616	picture	0		121.0	85.0	/home/egter/Projects/stimuli/pictures/n02025239_3191.JPEG	169.525053024292	1.0166289806365967
87	132.1766481399536	response	0	k		85.0	/home/egter/Projects/stimuli/pictures/n02025239_3191.JPEG	170.52510714530945	
88	132.19322299957275	picture	0		147.0	86.0	/home/egter/Projects/stimuli/pictures/R_S_yt-7W50lcw5FCo_37.png	170.5416820049286	1.233320951461792
88	133.4100079536438	response	0	j		86.0	/home/egter/Projects/stimuli/pictures/R_S_yt-7W50lcw5FCo_37.png	171.75846695899963	
89	133.42654395103455	picture	0		201.0	87.0	/home/egter/Projects/stimuli/pictures/n01667114_15503.JPEG	171.77500295639038	1.6857531070709229
89	135.08645796775818	response	0	k		87.0	/home/egter/Projects/stimuli/pictures/n01667114_15503.JPEG	173.434916973114	
90	135.11229705810547	picture	0		192.0	88.0	/home/egter/Projects/stimuli/pictures/S_ILSVRC2015_train_00303005.png	173.4607560634613	1.624891996383667
90	136.69491505622864	response	0	j		88.0	/home/egter/Projects/stimuli/pictures/S_ILSVRC2015_train_00303005.png	175.04337406158447	
91	136.73718905448914	picture	0		104.0	89.0	/home/egter/Projects/stimuli/pictures/S_yt-a5TGHnldsKg_102.png	175.08564805984497	0.8679850101470947
91	137.59330201148987	response	0	j		89.0	/home/egter/Projects/stimuli/pictures/S_yt-a5TGHnldsKg_102.png	175.9417610168457	
92	137.60517406463623	picture	0		269.0	90.0	/home/egter/Projects/stimuli/pictures/n01692333_5159.JPEG	175.95363306999207	2.246335983276367
92	139.83498311042786	response	0	k		90.0	/home/egter/Projects/stimuli/pictures/n01692333_5159.JPEG	178.1834421157837	
93	139.8515100479126	picture	0		235.0	91.0	/home/egter/Projects/stimuli/pictures/n02514041_4535.JPEG	178.19996905326843	1.9666919708251953
93	141.80162692070007	response	0	k		91.0	/home/egter/Projects/stimuli/pictures/n02514041_4535.JPEG	180.1500859260559	
94	141.8182020187378	picture	0		87.0	92.0	/home/egter/Projects/stimuli/pictures/R_S_yt-4r-oovk9JWg_85.png	180.16666102409363	0.7333149909973145
94	142.53493213653564	response	0	j		92.0	/home/egter/Projects/stimuli/pictures/R_S_yt-4r-oovk9JWg_85.png	180.88339114189148	
95	142.5515170097351	picture	0		131.0	93.0	/home/egter/Projects/stimuli/pictures/S_yt-9T99N7Cvi_o_112.png	180.89997601509094	1.1004109382629395
95	143.63495802879333	response	0	j		93.0	/home/egter/Projects/stimuli/pictures/S_yt-9T99N7Cvi_o_112.png	181.98341703414917	
96	143.65192794799805	picture	0		111.0	94.0	/home/egter/Projects/stimuli/pictures/n04347754_17994.JPEG	182.00038695335388	0.925443172454834
96	144.56826400756836	response	0	k		94.0	/home/egter/Projects/stimuli/pictures/n04347754_17994.JPEG	182.9167230129242	
97	144.57737112045288	picture	0		85.0	95.0	/home/egter/Projects/stimuli/pictures/R_S_flickr-clarkstonscamp-4863427159_1.png	182.92583012580872	0.7157318592071533
97	145.27658605575562	response	0	j		95.0	/home/egter/Projects/stimuli/pictures/R_S_flickr-clarkstonscamp-4863427159_1.png	183.62504506111145	
98	145.29310297966003	picture	0		223.0	96.0	/home/egter/Projects/stimuli/pictures/n01692333_9591.JPEG	183.64156198501587	1.8667290210723877
98	147.14322590827942	response	0	k		96.0	/home/egter/Projects/stimuli/pictures/n01692333_9591.JPEG	185.49168491363525	
99	147.15983200073242	picture	0		239.0	97.0	/home/egter/Projects/stimuli/pictures/R_S_yt-9pYW_TqVpU4_43.png	185.50829100608826	2.0002360343933105
99	149.14325404167175	response	0	k		97.0	/home/egter/Projects/stimuli/pictures/R_S_yt-9pYW_TqVpU4_43.png	187.4917130470276	
100	149.16006803512573	picture	0		95.0	98.0	/home/egter/Projects/stimuli/pictures/n01630670_4369.JPEG	187.50852704048157	0.7998170852661133
100	149.94321513175964	response	0	k		98.0	/home/egter/Projects/stimuli/pictures/n01630670_4369.JPEG	188.29167413711548	
101	149.95988512039185	picture	0		225.0	99.0	/home/egter/Projects/stimuli/pictures/n02966193_21630.JPEG	188.30834412574768	1.88326096534729
101	151.8266921043396	response	0	k		99.0	/home/egter/Projects/stimuli/pictures/n02966193_21630.JPEG	190.17515110969543	
102	151.84314608573914	picture	0		94.0	100.0	/home/egter/Projects/stimuli/pictures/n03042490_124.JPEG	190.19160509109497	0.7916529178619385
102	152.61829209327698	response	0	k		100.0	/home/egter/Projects/stimuli/pictures/n03042490_124.JPEG	190.9667510986328	
103	152.63479900360107	picture	0		161.0	101.0	/home/egter/Projects/stimuli/pictures/n07693725_12956.JPEG	190.9832580089569	1.3500070571899414
103	153.96824097633362	response	0	k		101.0	/home/egter/Projects/stimuli/pictures/n07693725_12956.JPEG	192.31669998168945	
104	153.98480606079102	picture	0		182.0	102.0	/home/egter/Projects/stimuli/pictures/n03042490_325.JPEG	192.33326506614685	1.5252408981323242
104	155.4863839149475	response	0	k		102.0	/home/egter/Projects/stimuli/pictures/n03042490_325.JPEG	193.83484292030334	
105	155.51004695892334	picture	0		103.0	103.0	/home/egter/Projects/stimuli/pictures/n04243546_27828.JPEG	193.85850596427917	0.8664159774780273
105	156.35993695259094	response	0	k		103.0	/home/egter/Projects/stimuli/pictures/n04243546_27828.JPEG	194.70839595794678	
106	156.37646293640137	picture	0		114.0	104.0	/home/egter/Projects/stimuli/pictures/n04476259_12267.JPEG	194.7249219417572	0.9507801532745361
106	157.31141090393066	response	0	k		104.0	/home/egter/Projects/stimuli/pictures/n04476259_12267.JPEG	195.6598699092865	
107	157.3272430896759	picture	0		188.0	105.0	/home/egter/Projects/stimuli/pictures/n04589890_9882.JPEG	195.67570209503174	1.574199914932251
107	158.88485312461853	response	0	k		105.0	/home/egter/Projects/stimuli/pictures/n04589890_9882.JPEG	197.23331212997437	
108	158.90144300460815	picture	0		167.0	106.0	/home/egter/Projects/stimuli/pictures/S_yt-iiGwN9FQrZo_1.png	197.249902009964	1.399989128112793
108	160.2849040031433	response	0	k		106.0	/home/egter/Projects/stimuli/pictures/S_yt-iiGwN9FQrZo_1.png	198.63336300849915	
109	160.30143213272095	picture	0		254.0	107.0	/home/egter/Projects/stimuli/pictures/n03895866_37571.JPEG	198.64989113807678	2.1251518726348877
109	162.40985703468323	response	0	k		107.0	/home/egter/Projects/stimuli/pictures/n03895866_37571.JPEG	200.75831604003906	
110	162.42658400535583	picture	0		261.0	108.0	/home/egter/Projects/stimuli/pictures/S_yt-uXDyvrm0Tw0_17.png	200.77504301071167	2.208164930343628
110	164.59318709373474	response	0	j		108.0	/home/egter/Projects/stimuli/pictures/S_yt-uXDyvrm0Tw0_17.png	202.94164609909058	
111	164.63474893569946	picture	0		193.0	109.0	/home/egter/Projects/stimuli/pictures/n02687172_18426.JPEG	202.9832079410553	1.6166460514068604
111	166.23484110832214	response	0	k		109.0	/home/egter/Projects/stimuli/pictures/n02687172_18426.JPEG	204.58330011367798	
112	166.25139498710632	picture	0		111.0	110.0	/home/egter/Projects/stimuli/pictures/R_S_video_inspire_california_big-sur_landscape_054.png	204.59985399246216	0.9333419799804688
112	167.1681489944458	response	0	j		110.0	/home/egter/Projects/stimuli/pictures/R_S_video_inspire_california_big-sur_landscape_054.png	205.51660799980164	
113	167.1847369670868	picture	0		143.0	111.0	/home/egter/Projects/stimuli/pictures/n04423845_23917.JPEG	205.53319597244263	1.200361967086792
113	168.36891794204712	response	0	k		111.0	/home/egter/Projects/stimuli/pictures/n04423845_23917.JPEG	206.71737694740295	
114	168.38509893417358	picture	0		162.0	112.0	/home/egter/Projects/stimuli/pictures/R_S_ILSVRC2015_train_00524001.png	206.73355793952942	1.3580939769744873
114	169.72658610343933	response	0	k		112.0	/home/egter/Projects/stimuli/pictures/R_S_ILSVRC2015_train_00524001.png	208.07504510879517	
115	169.74319291114807	picture	0		102.0	113.0	/home/egter/Projects/stimuli/pictures/n02447366_33293.JPEG	208.0916519165039	0.8581821918487549
115	170.5848069190979	response	0	k		113.0	/home/egter/Projects/stimuli/pictures/n02447366_33293.JPEG	208.93326592445374	
116	170.60137510299683	picture	0		108.0	114.0	/home/egter/Projects/stimuli/pictures/S_pexels-mart-production-8435081.png	208.94983410835266	0.9083390235900879
116	171.48650002479553	response	0	j		114.0	/home/egter/Projects/stimuli/pictures/S_pexels-mart-production-8435081.png	209.83495903015137	
117	171.5097141265869	picture	0		108.0	115.0	/home/egter/Projects/stimuli/pictures/S_comp_LA_A006_C008_PSNK_ALL_LOGOS_v10_SDR_PS_FINAL_20180801_SDR_2K_AVC.png	209.85817313194275	0.9083409309387207
117	172.40147590637207	response	0	j		115.0	/home/egter/Projects/stimuli/pictures/S_comp_LA_A006_C008_PSNK_ALL_LOGOS_v10_SDR_PS_FINAL_20180801_SDR_2K_AVC.png	210.7499349117279	
118	172.41805505752563	picture	0		216.0	116.0	/home/egter/Projects/stimuli/pictures/S_wc-16LozRfhUGea_49.png	210.76651406288147	1.8083679676055908
118	174.2098159790039	response	0	k		116.0	/home/egter/Projects/stimuli/pictures/S_wc-16LozRfhUGea_49.png	212.55827498435974	
119	174.22642302513123	picture	0		153.0	117.0	/home/egter/Projects/stimuli/pictures/n02835271_10202.JPEG	212.57488203048706	1.5172760486602783
119	175.49387001991272	response	0	k		117.0	/home/egter/Projects/stimuli/pictures/n02835271_10202.JPEG	213.84232902526855	
120	175.7436990737915	picture	0		113.0	118.0	/home/egter/Projects/stimuli/pictures/R_S_yt-LdHRVIb4nIE_6.png	214.09215807914734	0.9444758892059326
120	176.67646193504333	response	0	j		118.0	/home/egter/Projects/stimuli/pictures/R_S_yt-LdHRVIb4nIE_6.png	215.02492094039917	
121	176.68817496299744	picture	0		112.0	119.0	/home/egter/Projects/stimuli/pictures/n04252225_5024.JPEG	215.03663396835327	0.9305970668792725
121	177.60988593101501	response	0	k		119.0	/home/egter/Projects/stimuli/pictures/n04252225_5024.JPEG	215.95834493637085	
122	177.6187720298767	picture	0		213.0	120.0	/home/egter/Projects/stimuli/pictures/S_ILSVRC2015_train_00405000.png	215.96723103523254	1.7826008796691895
122	179.38483810424805	response	0	k		120.0	/home/egter/Projects/stimuli/pictures/S_ILSVRC2015_train_00405000.png	217.73329710960388	
123	179.4013729095459	picture	0		121.0	121.0	/home/egter/Projects/stimuli/pictures/S_yt-aTEGTeQuDWM_93.png	217.74983191490173	1.0090391635894775
123	180.40146112442017	response	0	j		121.0	/home/egter/Projects/stimuli/pictures/S_yt-aTEGTeQuDWM_93.png	218.749920129776	
124	180.41041207313538	picture	0		97.0	122.0	/home/egter/Projects/stimuli/pictures/S_yt-H45g6700wbc_159.png	218.7588710784912	0.8162729740142822
124	181.20981407165527	response	0	j		122.0	/home/egter/Projects/stimuli/pictures/S_yt-H45g6700wbc_159.png	219.5582730770111	
125	181.22668504714966	picture	0		121.0	123.0	/home/egter/Projects/stimuli/pictures/S_yt-E2Klz_wBAf8_285.png	219.5751440525055	1.016319990158081
125	182.2264039516449	response	0	k		123.0	/home/egter/Projects/stimuli/pictures/S_yt-E2Klz_wBAf8_285.png	220.57486295700073	
126	182.24300503730774	picture	0		105.0	124.0	/home/egter/Projects/stimuli/pictures/S_yt-gmiyqQDGN78_7.png	220.59146404266357	0.8833298683166504
126	183.10296511650085	response	0	j		124.0	/home/egter/Projects/stimuli/pictures/S_yt-gmiyqQDGN78_7.png	221.4514241218567	
127	183.1263349056244	picture	0		128.0	125.0	/home/egter/Projects/stimuli/pictures/R_S_yt-kKRGgUhVRzc_74.png	221.47479391098022	1.1034071445465088
127	184.18474912643433	response	0	j		125.0	/home/egter/Projects/stimuli/pictures/R_S_yt-kKRGgUhVRzc_74.png	222.53320813179016	
128	184.2297420501709	picture	0		102.0	126.0	/home/egter/Projects/stimuli/pictures/S_yt-Mjm5smrurQI_125.png	222.57820105552673	0.8549249172210693
128	185.0681300163269	response	0	j		126.0	/home/egter/Projects/stimuli/pictures/S_yt-Mjm5smrurQI_125.png	223.41658902168274	
129	185.08466696739197	picture	0		170.0	127.0	/home/egter/Projects/stimuli/pictures/R_S_yt-O_6CyqHeJig_132.png	223.4331259727478	1.4250221252441406
129	186.49374890327454	response	0	j		127.0	/home/egter/Projects/stimuli/pictures/R_S_yt-O_6CyqHeJig_132.png	224.84220790863037	
130	186.5096890926361	picture	0		103.0	128.0	/home/egter/Projects/stimuli/pictures/R_S_BO_A014_C023_SDR_20190717_F240F3709_SDR_2K_AVC.png	224.85814809799194	0.866649866104126
130	187.3597719669342	response	0	j		128.0	/home/egter/Projects/stimuli/pictures/R_S_BO_A014_C023_SDR_20190717_F240F3709_SDR_2K_AVC.png	225.70823097229004	
131	187.37633895874023	picture	0		114.0	129.0	/home/egter/Projects/stimuli/pictures/R_S_yt-3JApfnMu5cU_378.png	225.72479796409607	0.9583101272583008
131	188.31127309799194	response	0	j		129.0	/home/egter/Projects/stimuli/pictures/R_S_yt-3JApfnMu5cU_378.png	226.65973210334778	
132	188.33464908599854	picture	0		121.0	130.0	/home/egter/Projects/stimuli/pictures/R_S_ILSVRC2015_train_00460000.png	226.68310809135437	1.0166480541229248
132	189.33472895622253	response	0	j		130.0	/home/egter/Projects/stimuli/pictures/R_S_ILSVRC2015_train_00460000.png	227.68318796157837	
133	189.35129714012146	picture	0		135.0	131.0	/home/egter/Projects/stimuli/pictures/n02966193_3531.JPEG	227.6997561454773	1.1333317756652832
133	190.46803092956543	response	0	k		131.0	/home/egter/Projects/stimuli/pictures/n02966193_3531.JPEG	228.81648993492126	
134	190.48462891578674	picture	0		237.0	132.0	/home/egter/Projects/stimuli/pictures/R_S_comp_GMT329_113NC_396B_1105_CHINA_v04_SDR_FINAL_20180706_F900F2700_SDR_2K_AVC.png	228.83308792114258	1.9835681915283203
134	192.45204210281372	response	0	j		132.0	/home/egter/Projects/stimuli/pictures/R_S_comp_GMT329_113NC_396B_1105_CHINA_v04_SDR_FINAL_20180706_F900F2700_SDR_2K_AVC.png	230.80050110816956	
135	192.46819710731506	picture	0		107.0	133.0	/home/egter/Projects/stimuli/pictures/n02125311_1348.JPEG	230.8166561126709	0.9004659652709961
135	193.35140109062195	response	0	k		133.0	/home/egter/Projects/stimuli/pictures/n02125311_1348.JPEG	231.69986009597778	
136	193.36866307258606	picture	0		100.0	134.0	/home/egter/Projects/stimuli/pictures/n03877845_14850.JPEG	231.7171220779419	0.8409550189971924
136	194.19305896759033	response	0	k		134.0	/home/egter/Projects/stimuli/pictures/n03877845_14850.JPEG	232.54151797294617	
137	194.20961809158325	picture	0		130.0	135.0	/home/egter/Projects/stimuli/pictures/S_Pexels_Videos_2376809.png	232.5580770969391	1.9019889831542969
137	195.285325050354	response	0	j		135.0	/home/egter/Projects/stimuli/pictures/S_Pexels_Videos_2376809.png	233.63378405570984	
138	196.11160707473755	picture	0		193.0	136.0	/home/egter/Projects/stimuli/pictures/n04258138_16780.JPEG	234.46006608009338	1.6146960258483887
138	197.70358896255493	response	0	k		136.0	/home/egter/Projects/stimuli/pictures/n04258138_16780.JPEG	236.05204796791077	
139	197.72630310058594	picture	0		95.0	137.0	/home/egter/Projects/stimuli/pictures/R_S_yt-XUnZ7FbBtvk_162.png	236.07476210594177	0.7949869632720947
139	198.50287413597107	response	0	j		137.0	/home/egter/Projects/stimuli/pictures/R_S_yt-XUnZ7FbBtvk_162.png	236.8513331413269	
140	198.52129006385803	picture	0		105.0	138.0	/home/egter/Projects/stimuli/pictures/R_S_yt-7K5X1G7Cpls_965.png	236.86974906921387	0.8799879550933838
140	199.38469791412354	response	0	j		138.0	/home/egter/Projects/stimuli/pictures/R_S_yt-7K5X1G7Cpls_965.png	237.73315691947937	
141	199.40127801895142	picture	0		127.0	139.0	/home/egter/Projects/stimuli/pictures/R_S_production_ID_4765899.png	237.74973702430725	1.0666449069976807
141	200.4519281387329	response	0	j		139.0	/home/egter/Projects/stimuli/pictures/R_S_production_ID_4765899.png	238.80038714408875	
142	200.4679229259491	picture	0		115.0	140.0	/home/egter/Projects/stimuli/pictures/S_ILSVRC2015_train_00569006.png	238.81638193130493	0.9666650295257568
142	201.41804790496826	response	0	j		140.0	/home/egter/Projects/stimuli/pictures/S_ILSVRC2015_train_00569006.png	239.7665069103241	
143	201.43458795547485	picture	0		119.0	141.0	/home/egter/Projects/stimuli/pictures/S_yt-dqcUJzNOzbM_156.png	239.7830469608307	0.9999980926513672
143	202.41805005073547	response	0	j		141.0	/home/egter/Projects/stimuli/pictures/S_yt-dqcUJzNOzbM_156.png	240.7665090560913	
144	202.43458604812622	picture	0		178.0	142.0	/home/egter/Projects/stimuli/pictures/R_S_yt-bhiGMKSAz2g_370.png	240.78304505348206	1.4916579723358154
144	203.90280604362488	response	0	j		142.0	/home/egter/Projects/stimuli/pictures/R_S_yt-bhiGMKSAz2g_370.png	242.2512650489807	
145	203.92624402046204	picture	0		108.0	143.0	/home/egter/Projects/stimuli/pictures/R_S_pexels-mikael-blomkvist-8689852.png	242.27470302581787	0.9083540439605713
145	204.81805300712585	response	0	j		143.0	/home/egter/Projects/stimuli/pictures/R_S_pexels-mikael-blomkvist-8689852.png	243.1665120124817	
146	204.8345980644226	picture	0		132.0	144.0	/home/egter/Projects/stimuli/pictures/R_S_yt-W00vtWnXgIk_73.png	243.18305706977844	1.1166319847106934
146	205.91958904266357	response	0	j		144.0	/home/egter/Projects/stimuli/pictures/R_S_yt-W00vtWnXgIk_73.png	244.2680480480194	
147	205.9512300491333	picture	0		184.0	145.0	/home/egter/Projects/stimuli/pictures/S_yt-LKd9mHnUVUQ_230.png	244.29968905448914	1.5417499542236328
147	207.4763720035553	response	0	j		145.0	/home/egter/Projects/stimuli/pictures/S_yt-LKd9mHnUVUQ_230.png	245.82483100891113	
148	207.49298000335693	picture	0		126.0	146.0	/home/egter/Projects/stimuli/pictures/R_S_comp_A108_C001_v09_SDR_FINAL_22062018_SDR_2K_AVC.png	245.84143900871277	1.0582599639892578
148	208.52773904800415	response	0	j		146.0	/home/egter/Projects/stimuli/pictures/R_S_comp_A108_C001_v09_SDR_FINAL_22062018_SDR_2K_AVC.png	246.87619805335999	
149	208.5512399673462	picture	0		211.0	147.0	/home/egter/Projects/stimuli/pictures/n01632458_3672.JPEG	246.89969897270203	1.7668399810791016
149	210.30127501487732	response	0	k		147.0	/home/egter/Projects/stimuli/pictures/n01632458_3672.JPEG	248.64973402023315	
150	210.3180799484253	picture	0		126.0	148.0	/home/egter/Projects/stimuli/pictures/n03602883_7963.JPEG	248.66653895378113	1.058138132095337
150	211.35976099967957	response	0	k		148.0	/home/egter/Projects/stimuli/pictures/n03602883_7963.JPEG	249.7082200050354	
151	211.37621808052063	picture	0		198.0	149.0	/home/egter/Projects/stimuli/pictures/n04336792_7807.JPEG	249.72467708587646	1.658308982849121
151	213.01799392700195	response	0	k		149.0	/home/egter/Projects/stimuli/pictures/n04336792_7807.JPEG	251.3664529323578	
152	213.03452706336975	picture	0		125.0	150.0	/home/egter/Projects/stimuli/pictures/n03933933_11785.JPEG	251.3829860687256	1.0500049591064453
152	214.06797790527344	response	0	k		150.0	/home/egter/Projects/stimuli/pictures/n03933933_11785.JPEG	252.41643691062927	
153	214.0845320224762	picture	0		324.0	151.0	/home/egter/Projects/stimuli/pictures/n02487347_1261.JPEG	252.43299102783203	2.7005319595336914
153	216.77626991271973	response	0	k		151.0	/home/egter/Projects/stimuli/pictures/n02487347_1261.JPEG	255.12472891807556	
154	216.7850639820099	picture	0		87.0	152.0	/home/egter/Projects/stimuli/pictures/n04462240_2980.JPEG	255.13352298736572	0.7291700839996338
154	217.49496698379517	response	0	k		152.0	/home/egter/Projects/stimuli/pictures/n04462240_2980.JPEG	255.843425989151	
155	217.51423406600952	picture	0		114.0	153.0	/home/egter/Projects/stimuli/pictures/n01773549_5414.JPEG	255.86269307136536	0.9582428932189941
155	218.45961213111877	response	0	k		153.0	/home/egter/Projects/stimuli/pictures/n01773549_5414.JPEG	256.8080711364746	
156	218.47247695922852	picture	0		169.0	154.0	/home/egter/Projects/stimuli/pictures/n01798484_2552.JPEG	256.82093596458435	1.416668176651001
156	219.87627005577087	response	0	k		154.0	/home/egter/Projects/stimuli/pictures/n01798484_2552.JPEG	258.2247290611267	
157	219.88914513587952	picture	0		90.0	155.0	/home/egter/Projects/stimuli/pictures/S_yt-IigHVUksnw8_7.png	258.23760414123535	0.7537059783935547
157	220.62626099586487	response	0	j		155.0	/home/egter/Projects/stimuli/pictures/S_yt-IigHVUksnw8_7.png	258.9747200012207	
158	220.64285111427307	picture	0		132.0	156.0	/home/egter/Projects/stimuli/pictures/R_S_yt-V35ubrbe8gA_86.png	258.9913101196289	1.1004698276519775
158	221.72783613204956	response	0	j		156.0	/home/egter/Projects/stimuli/pictures/R_S_yt-V35ubrbe8gA_86.png	260.0762951374054	
159	221.74332094192505	picture	0		120.0	157.0	/home/egter/Projects/stimuli/pictures/S_yt-5rC42egLl5E_387.png	260.0917799472809	0.9999439716339111
159	222.72793292999268	response	0	j		157.0	/home/egter/Projects/stimuli/pictures/S_yt-5rC42egLl5E_387.png	261.0763919353485	
160	222.74326491355896	picture	0		96.0	158.0	/home/egter/Projects/stimuli/pictures/R_S_ILSVRC2015_train_00066005.png	261.0917239189148	0.807913064956665
160	223.5350410938263	response	0	j		158.0	/home/egter/Projects/stimuli/pictures/R_S_ILSVRC2015_train_00066005.png	261.88350009918213	
161	223.55117797851562	picture	0		104.0	159.0	/home/egter/Projects/stimuli/pictures/R_S_yt-1CV2cYtUlxE_57.png	261.89963698387146	0.8753790855407715
161	224.41006898880005	response	0	j		159.0	/home/egter/Projects/stimuli/pictures/R_S_yt-1CV2cYtUlxE_57.png	262.7585279941559	
162	224.4265570640564	picture	0		125.0	160.0	/home/egter/Projects/stimuli/pictures/R_S_yt-ayx4rU9bJrU_179.png	262.77501606941223	1.0597329139709473
162	225.45957207679749	response	0	j		160.0	/home/egter/Projects/stimuli/pictures/R_S_yt-ayx4rU9bJrU_179.png	263.8080310821533	
163	225.48628997802734	picture	0		129.0	161.0	/home/egter/Projects/stimuli/pictures/n01873310_24983.JPEG	263.8347489833832	1.0763981342315674
163	226.54445695877075	response	0	k		161.0	/home/egter/Projects/stimuli/pictures/n01873310_24983.JPEG	264.8929159641266	
164	226.5626881122589	picture	0		102.0	162.0	/home/egter/Projects/stimuli/pictures/S_production_ID_4584682.png	264.91114711761475	0.8612408638000488
164	227.40124702453613	response	0	j		162.0	/home/egter/Projects/stimuli/pictures/S_production_ID_4584682.png	265.74970602989197	
165	227.42392897605896	picture	0		184.0	163.0	/home/egter/Projects/stimuli/pictures/n02106030_1402.JPEG	265.7723879814148	1.5439021587371826
165	228.95170307159424	response	0	k		163.0	/home/egter/Projects/stimuli/pictures/n02106030_1402.JPEG	267.3001620769501	
166	228.96783113479614	picture	0		122.0	164.0	/home/egter/Projects/stimuli/pictures/n03000684_10624.JPEG	267.316290140152	1.024960994720459
166	229.9762361049652	response	0	k		164.0	/home/egter/Projects/stimuli/pictures/n03000684_10624.JPEG	268.32469511032104	
167	229.9927921295166	picture	0		296.0	165.0	/home/egter/Projects/stimuli/pictures/n01669191_11893.JPEG	268.34125113487244	2.479651927947998
167	232.451651096344	response	0	k		165.0	/home/egter/Projects/stimuli/pictures/n01669191_11893.JPEG	270.80011010169983	
168	232.4724440574646	picture	0		155.0	166.0	/home/egter/Projects/stimuli/pictures/R_S_ILSVRC2015_train_00743005.png	270.82090306282043	1.3036799430847168
168	233.75271010398865	response	0	j		166.0	/home/egter/Projects/stimuli/pictures/R_S_ILSVRC2015_train_00743005.png	272.1011691093445	
169	233.77612400054932	picture	0		131.0	167.0	/home/egter/Projects/stimuli/pictures/S_yt-GBqXIFjZf8w_28.png	272.12458300590515	1.0999689102172852
169	234.8595700263977	response	0	k		167.0	/home/egter/Projects/stimuli/pictures/S_yt-GBqXIFjZf8w_28.png	273.20802903175354	
170	234.8760929107666	picture	0		100.0	168.0	/home/egter/Projects/stimuli/pictures/n02123045_8581.JPEG	273.22455191612244	0.8417370319366455
170	235.7016019821167	response	0	k		168.0	/home/egter/Projects/stimuli/pictures/n02123045_8581.JPEG	274.05006098747253	
171	235.71782994270325	picture	0		96.0	169.0	/home/egter/Projects/stimuli/pictures/R_S_yt-BDCyXL5e9S4_223.png	274.0662889480591	1.1582520008087158
171	236.50954794883728	response	0	j		169.0	/home/egter/Projects/stimuli/pictures/R_S_yt-BDCyXL5e9S4_223.png	274.8580069541931	
172	236.87608194351196	picture	0		110.0	170.0	/home/egter/Projects/stimuli/pictures/n01687978_657.JPEG	275.2245409488678	0.9250819683074951
172	237.78494501113892	response	0	k		170.0	/home/egter/Projects/stimuli/pictures/n01687978_657.JPEG	276.13340401649475	
173	237.80116391181946	picture	0		234.0	171.0	/home/egter/Projects/stimuli/pictures/ILSVRC2012_test_00030050.JPEG	276.1496229171753	1.9583830833435059
173	239.7432780265808	response	0	k		171.0	/home/egter/Projects/stimuli/pictures/ILSVRC2012_test_00030050.JPEG	278.09173703193665	
174	239.75954699516296	picture	0		100.0	172.0	/home/egter/Projects/stimuli/pictures/n03874293_5720.JPEG	278.1080060005188	0.8415701389312744
174	240.584566116333	response	0	k		172.0	/home/egter/Projects/stimuli/pictures/n03874293_5720.JPEG	278.93302512168884	
175	240.60111713409424	picture	0		97.0	173.0	/home/egter/Projects/stimuli/pictures/S_yt-H5LQq4MPIao_660.png	278.9495761394501	0.816673994064331
175	241.40122604370117	response	0	j		173.0	/home/egter/Projects/stimuli/pictures/S_yt-H5LQq4MPIao_660.png	279.749685049057	
176	241.41779112815857	picture	0		108.0	174.0	/home/egter/Projects/stimuli/pictures/n04389033_19333.JPEG	279.7662501335144	0.9083337783813477
176	242.30950593948364	response	0	k		174.0	/home/egter/Projects/stimuli/pictures/n04389033_19333.JPEG	280.6579649448395	
177	242.32612490653992	picture	0		88.0	175.0	/home/egter/Projects/stimuli/pictures/R_S_production_ID_4720614.png	280.67458391189575	0.7416431903839111
177	243.051185131073	response	0	j		175.0	/home/egter/Projects/stimuli/pictures/R_S_production_ID_4720614.png	281.39964413642883	
178	243.06776809692383	picture	0		116.0	176.0	/home/egter/Projects/stimuli/pictures/ILSVRC2012_test_00025144.JPEG	281.41622710227966	0.9750080108642578
178	244.02617597579956	response	0	k		176.0	/home/egter/Projects/stimuli/pictures/ILSVRC2012_test_00025144.JPEG	282.3746349811554	
179	244.0427761077881	picture	0		86.0	177.0	/home/egter/Projects/stimuli/pictures/S_yt-4r-oovk9JWg_85.png	282.3912351131439	0.7249939441680908
179	244.75116205215454	response	0	j		177.0	/home/egter/Projects/stimuli/pictures/S_yt-4r-oovk9JWg_85.png	283.0996210575104	
180	244.76777005195618	picture	0		188.0	178.0	/home/egter/Projects/stimuli/pictures/n02091635_11940.JPEG	283.116229057312	1.6211469173431396
180	246.31930303573608	response	0	k		178.0	/home/egter/Projects/stimuli/pictures/n02091635_11940.JPEG	284.6677620410919	
181	246.38891696929932	picture	0		95.0	179.0	/home/egter/Projects/stimuli/pictures/S_yt-BDCyXL5e9S4_223.png	284.73737597465515	0.7958099842071533
181	247.1678569316864	response	0	j		179.0	/home/egter/Projects/stimuli/pictures/S_yt-BDCyXL5e9S4_223.png	285.51631593704224	
182	247.18472695350647	stim	0		592.0			285.5331859588623	4.9412829875946045
182	252.10946393013	response	0	space				290.45792293548584	
