trial_nr	onset	event_type	phase	response	nr_frames	picture_index	picture_file	onset_abs	duration
0	0.014036178588867188	stim	0		569.0			32.52463102340698	4.7472357749938965
0	4.744992971420288	response	0	space				37.2555878162384	
2	4.761271953582764	picture	0		499.0	0.0	/home/egter/Projects/stimuli/pictures/R_S_yt-fryIS5Itzig_124.png	37.27186679840088	4.158290147781372
2	8.911354064941406	response	0	j		0.0	/home/egter/Projects/stimuli/pictures/R_S_yt-fryIS5Itzig_124.png	41.42194890975952	
3	8.919562101364136	picture	0		157.0	1.0	/home/egter/Projects/stimuli/pictures/S_yt-HwZFMTZ7Xko_35.png	41.43015694618225	1.312229871749878
3	10.21968698501587	response	0	j		1.0	/home/egter/Projects/stimuli/pictures/S_yt-HwZFMTZ7Xko_35.png	42.730281829833984	
4	10.231791973114014	picture	0		110.0	2.0	/home/egter/Projects/stimuli/pictures/S_yt-8EiMToiiXYs_55.png	42.74238681793213	0.9165210723876953
4	11.136370182037354	response	0	k		2.0	/home/egter/Projects/stimuli/pictures/S_yt-8EiMToiiXYs_55.png	43.64696502685547	
5	11.148313045501709	picture	0		73.0	3.0	/home/egter/Projects/stimuli/pictures/R_S_yt-J2PiBa1MXI0_210.png	43.658907890319824	0.6114540100097656
5	11.74562406539917	response	0	j		3.0	/home/egter/Projects/stimuli/pictures/R_S_yt-J2PiBa1MXI0_210.png	44.256218910217285	
6	11.759767055511475	picture	0		87.0	4.0	/home/egter/Projects/stimuli/pictures/S_yt-fymgyhmYnMI_76.png	44.27036190032959	0.7288100719451904
6	12.477988004684448	response	0	j		4.0	/home/egter/Projects/stimuli/pictures/S_yt-fymgyhmYnMI_76.png	44.98858284950256	
7	12.488577127456665	picture	0		423.0	5.0	/home/egter/Projects/stimuli/pictures/n04371774_1713.JPEG	44.99917197227478	3.5278680324554443
7	15.996194124221802	response	0	j		5.0	/home/egter/Projects/stimuli/pictures/n04371774_1713.JPEG	48.50678896903992	
8	16.01644515991211	picture	0		99.0	6.0	/home/egter/Projects/stimuli/pictures/n02494079_5661.JPEG	48.527040004730225	0.8333330154418945
8	16.836328983306885	response	0	k		6.0	/home/egter/Projects/stimuli/pictures/n02494079_5661.JPEG	49.346923828125	
9	16.849778175354004	picture	0		500.0	7.0	/home/egter/Projects/stimuli/pictures/R_S_yt-uY5xsUKn8zU_17.png	49.36037302017212	4.173550844192505
9	21.004443168640137	response	0	j		7.0	/home/egter/Projects/stimuli/pictures/R_S_yt-uY5xsUKn8zU_17.png	53.51503801345825	
10	21.02332901954651	picture	0		106.0	8.0	/home/egter/Projects/stimuli/pictures/R_S_ILSVRC2015_train_00485001.png	53.533923864364624	0.8818111419677734
10	21.894649982452393	response	0	j		8.0	/home/egter/Projects/stimuli/pictures/R_S_ILSVRC2015_train_00485001.png	54.40524482727051	
11	21.905140161514282	picture	0		272.0	9.0	/home/egter/Projects/stimuli/pictures/R_S_ILSVRC2015_train_00067003.png	54.4157350063324	2.271052837371826
11	24.161314010620117	response	0	j		9.0	/home/egter/Projects/stimuli/pictures/R_S_ILSVRC2015_train_00067003.png	56.67190885543823	
12	24.17619299888611	picture	0		247.0	10.0	/home/egter/Projects/stimuli/pictures/n02123159_7967.JPEG	56.686787843704224	2.0623271465301514
12	26.227977991104126	response	0	k		10.0	/home/egter/Projects/stimuli/pictures/n02123159_7967.JPEG	58.73857283592224	
13	26.23852014541626	picture	0		195.0	11.0	/home/egter/Projects/stimuli/pictures/n04258138_16780.JPEG	58.749114990234375	1.6249120235443115
13	27.852951049804688	response	0	k		11.0	/home/egter/Projects/stimuli/pictures/n04258138_16780.JPEG	60.3635458946228	
14	27.86343216896057	picture	0		121.0	12.0	/home/egter/Projects/stimuli/pictures/R_S_yt-OEY9O2MglQM_7.png	60.37402701377869	1.0069408416748047
14	28.861258029937744	response	0	j		12.0	/home/egter/Projects/stimuli/pictures/R_S_yt-OEY9O2MglQM_7.png	61.37185287475586	
15	28.870373010635376	picture	0		139.0	13.0	/home/egter/Projects/stimuli/pictures/S_yt_R-lST38EdfMMQ_5.png	61.38096785545349	1.1597249507904053
15	30.0196270942688	response	0	j		13.0	/home/egter/Projects/stimuli/pictures/S_yt_R-lST38EdfMMQ_5.png	62.530221939086914	
16	30.03009796142578	picture	0		81.0	14.0	/home/egter/Projects/stimuli/pictures/R_S_pexels-roman-odintsov-8232443.png	62.5406928062439	0.6735851764678955
16	30.6946439743042	response	0	j		14.0	/home/egter/Projects/stimuli/pictures/R_S_pexels-roman-odintsov-8232443.png	63.205238819122314	
17	30.703683137893677	picture	0		155.0	15.0	/home/egter/Projects/stimuli/pictures/S_yt-a4T5fdpRKlQ_125.png	63.21427798271179	1.2916200160980225
17	31.97939109802246	response	0	j		15.0	/home/egter/Projects/stimuli/pictures/S_yt-a4T5fdpRKlQ_125.png	64.48998594284058	
18	31.9953031539917	picture	0		335.0	16.0	/home/egter/Projects/stimuli/pictures/n01685808_499.JPEG	64.50589799880981	2.7991440296173096
18	34.7779381275177	response	0	j		16.0	/home/egter/Projects/stimuli/pictures/n01685808_499.JPEG	67.28853297233582	
19	34.79444718360901	picture	0		89.0	17.0	/home/egter/Projects/stimuli/pictures/n04238763_4112.JPEG	67.30504202842712	0.7425458431243896
19	35.527961015701294	response	0	k		17.0	/home/egter/Projects/stimuli/pictures/n04238763_4112.JPEG	68.03855586051941	
20	35.5369930267334	picture	0		112.0	18.0	/home/egter/Projects/stimuli/pictures/S_yt-N7ztk2fa3Ls_137.png	68.04758787155151	0.9376671314239502
20	36.461246967315674	response	0	j		18.0	/home/egter/Projects/stimuli/pictures/S_yt-N7ztk2fa3Ls_137.png	68.97184181213379	
21	36.47466015815735	picture	0		79.0	19.0	/home/egter/Projects/stimuli/pictures/S_ILSVRC2015_train_00538001.png	68.98525500297546	0.6665809154510498
21	37.12789297103882	response	0	j		19.0	/home/egter/Projects/stimuli/pictures/S_ILSVRC2015_train_00538001.png	69.63848781585693	
22	37.1412410736084	picture	0		144.0	20.0	/home/egter/Projects/stimuli/pictures/S_AwPBuHsoXV0_25.png	69.65183591842651	1.2083039283752441
22	38.33622717857361	response	0	j		20.0	/home/egter/Projects/stimuli/pictures/S_AwPBuHsoXV0_25.png	70.84682202339172	
23	38.34954500198364	picture	0		182.0	21.0	/home/egter/Projects/stimuli/pictures/R_S_8amznWxLS04_212.png	70.86013984680176	1.5207209587097168
23	39.86123609542847	response	0	j		21.0	/home/egter/Projects/stimuli/pictures/R_S_8amznWxLS04_212.png	72.37183094024658	
24	39.87026596069336	picture	0		190.0	22.0	/home/egter/Projects/stimuli/pictures/n03344393_318.JPEG	72.38086080551147	1.5832881927490234
24	41.4446280002594	response	0	j		22.0	/home/egter/Projects/stimuli/pictures/n03344393_318.JPEG	73.95522284507751	
25	41.45355415344238	picture	0		69.0	23.0	/home/egter/Projects/stimuli/pictures/n04146614_1253.JPEG	73.9641489982605	0.576416015625
25	42.01954102516174	response	0	k		23.0	/home/egter/Projects/stimuli/pictures/n04146614_1253.JPEG	74.53013586997986	
26	42.02997016906738	picture	0		104.0	24.0	/home/egter/Projects/stimuli/pictures/R_S_comp_C001_C005_PS_v01_SDR_PS_20180925_SDR_2K_AVC.png	74.5405650138855	0.8680679798126221
26	42.88622999191284	response	0	j		24.0	/home/egter/Projects/stimuli/pictures/R_S_comp_C001_C005_PS_v01_SDR_PS_20180925_SDR_2K_AVC.png	75.39682483673096	
27	42.898038148880005	picture	0		94.0	25.0	/home/egter/Projects/stimuli/pictures/n02749479_4821.JPEG	75.40863299369812	0.7847859859466553
27	43.669512033462524	response	0	k		25.0	/home/egter/Projects/stimuli/pictures/n02749479_4821.JPEG	76.18010687828064	
28	43.68282413482666	picture	0		193.0	26.0	/home/egter/Projects/stimuli/pictures/S_yt-71qAAM6ryGY_32.png	76.19341897964478	1.611609935760498
28	45.28622007369995	response	0	k		26.0	/home/egter/Projects/stimuli/pictures/S_yt-71qAAM6ryGY_32.png	77.79681491851807	
29	45.29443407058716	picture	0		91.0	27.0	/home/egter/Projects/stimuli/pictures/S_yt-fP2JRJAFGZ4_25.png	77.80502891540527	0.763524055480957
29	46.044492959976196	response	0	j		27.0	/home/egter/Projects/stimuli/pictures/S_yt-fP2JRJAFGZ4_25.png	78.55508780479431	
30	46.057958126068115	picture	0		267.0	28.0	/home/egter/Projects/stimuli/pictures/n02099267_858.JPEG	78.56855297088623	2.2288718223571777
30	48.27790403366089	response	0	k		28.0	/home/egter/Projects/stimuli/pictures/n02099267_858.JPEG	80.788498878479	
31	48.28682994842529	picture	0		229.0	29.0	/home/egter/Projects/stimuli/pictures/R_S_g201_TH_804_A001_8_SDR_20191031_SDR_2K_AVC.png	80.79742479324341	1.9097301959991455
31	50.186190128326416	response	0	j		29.0	/home/egter/Projects/stimuli/pictures/R_S_g201_TH_804_A001_8_SDR_20191031_SDR_2K_AVC.png	82.69678497314453	
32	50.19656014442444	picture	0		84.0	30.0	/home/egter/Projects/stimuli/pictures/R_S_b1-3.png	82.70715498924255	0.7013828754425049
32	50.886165142059326	response	0	j		30.0	/home/egter/Projects/stimuli/pictures/R_S_b1-3.png	83.39675998687744	
33	50.89794301986694	picture	0		267.0	31.0	/home/egter/Projects/stimuli/pictures/R_S_yt-6DJulOrg2-8_122.png	83.40853786468506	2.2221970558166504
33	53.111194133758545	response	0	j		31.0	/home/egter/Projects/stimuli/pictures/R_S_yt-6DJulOrg2-8_122.png	85.62178897857666	
34	53.120140075683594	picture	0		158.0	32.0	/home/egter/Projects/stimuli/pictures/n03417042_24980.JPEG	85.63073492050171	1.319429874420166
34	54.42785096168518	response	0	k		32.0	/home/egter/Projects/stimuli/pictures/n03417042_24980.JPEG	86.9384458065033	
35	54.43956995010376	picture	0		89.0	33.0	/home/egter/Projects/stimuli/pictures/n13040303_6437.JPEG	86.95016479492188	0.7433350086212158
35	55.169586181640625	response	0	k		33.0	/home/egter/Projects/stimuli/pictures/n13040303_6437.JPEG	87.68018102645874	
36	55.182904958724976	picture	0		98.0	34.0	/home/egter/Projects/stimuli/pictures/n01744401_7142.JPEG	87.69349980354309	0.82647705078125
36	55.987614154815674	response	0	j		34.0	/home/egter/Projects/stimuli/pictures/n01744401_7142.JPEG	88.49820899963379	
37	56.009382009506226	picture	0		95.0	35.0	/home/egter/Projects/stimuli/pictures/S_yt-Q6BFO3Yz0zY_363.png	88.51997685432434	0.7983260154724121
37	56.788429975509644	response	0	j		35.0	/home/egter/Projects/stimuli/pictures/S_yt-Q6BFO3Yz0zY_363.png	89.29902482032776	
38	56.80770802497864	picture	0		81.0	36.0	/home/egter/Projects/stimuli/pictures/R_S_yt-F1vQ5nZWhDg_21.png	89.31830286979675	0.680413007736206
38	57.47779107093811	response	0	j		36.0	/home/egter/Projects/stimuli/pictures/R_S_yt-F1vQ5nZWhDg_21.png	89.98838591575623	
39	57.488121032714844	picture	0		95.0	37.0	/home/egter/Projects/stimuli/pictures/R_S_comp_A103_C002_0205DG_v12_SDR_FINAL_20180706_SDR_2K_AVC.png	89.99871587753296	0.7917311191558838
39	58.26959013938904	response	0	j		37.0	/home/egter/Projects/stimuli/pictures/R_S_comp_A103_C002_0205DG_v12_SDR_FINAL_20180706_SDR_2K_AVC.png	90.78018498420715	
40	58.27985215187073	picture	0		122.0	38.0	/home/egter/Projects/stimuli/pictures/S_yt-y3tyx6cZjmA_412.png	90.79044699668884	1.0209238529205322
40	59.28691005706787	response	0	j		38.0	/home/egter/Projects/stimuli/pictures/S_yt-y3tyx6cZjmA_412.png	91.79750490188599	
41	59.30077600479126	picture	0		103.0	39.0	/home/egter/Projects/stimuli/pictures/S_yt-lGQ3wMI5-Yg_140.png	91.81137084960938	0.8609781265258789
41	60.152848958969116	response	0	j		39.0	/home/egter/Projects/stimuli/pictures/S_yt-lGQ3wMI5-Yg_140.png	92.66344380378723	
42	60.16175413131714	picture	0		460.0	40.0	/home/egter/Projects/stimuli/pictures/n02814860_11200.JPEG	92.67234897613525	3.8333029747009277
42	63.98607397079468	response	0	k		40.0	/home/egter/Projects/stimuli/pictures/n02814860_11200.JPEG	96.4966688156128	
43	63.995057106018066	picture	0		128.0	41.0	/home/egter/Projects/stimuli/pictures/S_yt-MhW2fU45JK8_544.png	96.50565195083618	1.0694279670715332
43	65.05280995368958	response	0	j		41.0	/home/egter/Projects/stimuli/pictures/S_yt-MhW2fU45JK8_544.png	97.56340479850769	
44	65.0644850730896	picture	0		197.0	42.0	/home/egter/Projects/stimuli/pictures/n09193705_7158.JPEG	97.57507991790771	1.638861894607544
44	66.69447708129883	response	0	k		42.0	/home/egter/Projects/stimuli/pictures/n09193705_7158.JPEG	99.20507192611694	
45	66.70334696769714	picture	0		159.0	43.0	/home/egter/Projects/stimuli/pictures/n01695060_4884.JPEG	99.21394181251526	1.3263909816741943
45	68.0126280784607	response	0	j		43.0	/home/egter/Projects/stimuli/pictures/n01695060_4884.JPEG	100.52322292327881	
46	68.02973794937134	picture	0		93.0	44.0	/home/egter/Projects/stimuli/pictures/R_S_yt-VJ65ukWmdxQ_193.png	100.54033279418945	0.7780141830444336
46	68.78824400901794	response	0	j		44.0	/home/egter/Projects/stimuli/pictures/R_S_yt-VJ65ukWmdxQ_193.png	101.29883885383606	
47	68.80775213241577	picture	0		95.0	45.0	/home/egter/Projects/stimuli/pictures/S_yt-UBqUhu-GEVg_6.png	101.31834697723389	0.7983548641204834
47	69.59444618225098	response	0	j		45.0	/home/egter/Projects/stimuli/pictures/S_yt-UBqUhu-GEVg_6.png	102.10504102706909	
48	69.60610699653625	picture	0		363.0	46.0	/home/egter/Projects/stimuli/pictures/n01945685_22020.JPEG	102.11670184135437	3.027909994125366
48	72.61260199546814	response	0	j		46.0	/home/egter/Projects/stimuli/pictures/n01945685_22020.JPEG	105.12319684028625	
49	72.63401699066162	picture	0		99.0	47.0	/home/egter/Projects/stimuli/pictures/S_flickr-thelastdon-8662706978_3.png	105.14461183547974	0.8336629867553711
49	73.45344400405884	response	0	k		47.0	/home/egter/Projects/stimuli/pictures/S_flickr-thelastdon-8662706978_3.png	105.96403884887695	
50	73.46767997741699	picture	0		484.0	48.0	/home/egter/Projects/stimuli/pictures/R_S_yt-fk-z6WCvjjA_3.png	105.97827482223511	4.041189193725586
50	77.49506306648254	response	0	k		48.0	/home/egter/Projects/stimuli/pictures/R_S_yt-fk-z6WCvjjA_3.png	110.00565791130066	
51	77.50886917114258	picture	0		112.0	49.0	/home/egter/Projects/stimuli/pictures/S_ILSVRC2015_train_00565000.png	110.0194640159607	0.9374299049377441
51	78.42925810813904	response	0	j		49.0	/home/egter/Projects/stimuli/pictures/S_ILSVRC2015_train_00565000.png	110.93985295295715	
52	78.44629907608032	picture	0		102.0	50.0	/home/egter/Projects/stimuli/pictures/n03627232_38659.JPEG	110.95689392089844	0.8544900417327881
52	79.28666305541992	response	0	k		50.0	/home/egter/Projects/stimuli/pictures/n03627232_38659.JPEG	111.79725790023804	
53	79.30078911781311	picture	0		108.0	51.0	/home/egter/Projects/stimuli/pictures/R_S_ILSVRC2015_train_00708000.png	111.81138396263123	0.9023969173431396
53	80.19440603256226	response	0	j		51.0	/home/egter/Projects/stimuli/pictures/R_S_ILSVRC2015_train_00708000.png	112.70500087738037	
54	80.20318603515625	picture	0		244.0	52.0	/home/egter/Projects/stimuli/pictures/S_yt-DMb7ulzm5DM_20.png	112.71378087997437	2.034752130508423
54	82.22094106674194	response	0	j		52.0	/home/egter/Projects/stimuli/pictures/S_yt-DMb7ulzm5DM_20.png	114.73153591156006	
55	82.23793816566467	picture	0		75.0	53.0	/home/egter/Projects/stimuli/pictures/R_S_ILSVRC2015_train_00565000.png	114.74853301048279	0.624985933303833
55	82.85271000862122	response	0	j		53.0	/home/egter/Projects/stimuli/pictures/R_S_ILSVRC2015_train_00565000.png	115.36330485343933	
56	82.8629240989685	picture	0		151.0	54.0	/home/egter/Projects/stimuli/pictures/R_S_pexels-ron-lach-8071987.png	115.37351894378662	1.2569248676300049
56	84.111093044281	response	0	j		54.0	/home/egter/Projects/stimuli/pictures/R_S_pexels-ron-lach-8071987.png	116.62168788909912	
57	84.11984896659851	picture	0		140.0	55.0	/home/egter/Projects/stimuli/pictures/R_S_ILSVRC2015_train_00411001.png	116.63044381141663	1.166661024093628
57	85.27772307395935	response	0	j		55.0	/home/egter/Projects/stimuli/pictures/R_S_ILSVRC2015_train_00411001.png	117.78831791877747	
58	85.28650999069214	picture	0		133.0	56.0	/home/egter/Projects/stimuli/pictures/R_S_ILSVRC2015_train_00369002.png	117.79710483551025	1.1111199855804443
58	86.38614702224731	response	0	j		56.0	/home/egter/Projects/stimuli/pictures/R_S_ILSVRC2015_train_00369002.png	118.89674186706543	
59	86.39762997627258	picture	0		131.0	57.0	/home/egter/Projects/stimuli/pictures/S_wc-zkO_omg3nTvg_5.png	118.9082248210907	1.0902650356292725
59	87.47772812843323	response	0	j		57.0	/home/egter/Projects/stimuli/pictures/S_wc-zkO_omg3nTvg_5.png	119.98832297325134	
60	87.48789501190186	picture	0		355.0	58.0	/home/egter/Projects/stimuli/pictures/S_yt-7tLvK2IEwRM_4.png	119.99848985671997	2.9582760334014893
60	90.4360020160675	response	0	k		58.0	/home/egter/Projects/stimuli/pictures/S_yt-7tLvK2IEwRM_4.png	122.94659686088562	
61	90.44617104530334	picture	0		431.0	59.0	/home/egter/Projects/stimuli/pictures/S_ILSVRC2015_train_00303005.png	122.95676589012146	3.590268135070801
61	94.0208489894867	response	0	j		59.0	/home/egter/Projects/stimuli/pictures/S_ILSVRC2015_train_00303005.png	126.53144383430481	
62	94.03643918037415	picture	0		89.0	60.0	/home/egter/Projects/stimuli/pictures/S_yt-1CV2cYtUlxE_57.png	126.54703402519226	0.7430598735809326
62	94.76936912536621	response	0	j		60.0	/home/egter/Projects/stimuli/pictures/S_yt-1CV2cYtUlxE_57.png	127.27996397018433	
63	94.77949905395508	picture	0		374.0	61.0	/home/egter/Projects/stimuli/pictures/S_yt-tNCrkObhB6c_17.png	127.2900938987732	3.1180179119110107
63	97.88598799705505	response	0	j		61.0	/home/egter/Projects/stimuli/pictures/S_yt-tNCrkObhB6c_17.png	130.39658284187317	
64	97.89751696586609	picture	0		90.0	62.0	/home/egter/Projects/stimuli/pictures/S_yt-YLcmfyfIokU_64.png	130.4081118106842	0.749981164932251
64	98.62914514541626	response	0	j		62.0	/home/egter/Projects/stimuli/pictures/S_yt-YLcmfyfIokU_64.png	131.13973999023438	
65	98.64749813079834	picture	0		145.0	63.0	/home/egter/Projects/stimuli/pictures/n01689811_1069.JPEG	131.15809297561646	1.2083230018615723
65	99.8443341255188	response	0	j		63.0	/home/egter/Projects/stimuli/pictures/n01689811_1069.JPEG	132.3549289703369	
66	99.85582113265991	picture	0		199.0	64.0	/home/egter/Projects/stimuli/pictures/n03781244_819.JPEG	132.36641597747803	1.6597800254821777
66	101.50267696380615	response	0	k		64.0	/home/egter/Projects/stimuli/pictures/n03781244_819.JPEG	134.01327180862427	
67	101.51560115814209	picture	0		140.0	65.0	/home/egter/Projects/stimuli/pictures/R_S_ILSVRC2015_train_00518001.png	134.0261960029602	1.1735248565673828
67	102.67762804031372	response	0	k		65.0	/home/egter/Projects/stimuli/pictures/R_S_ILSVRC2015_train_00518001.png	135.18822288513184	
68	102.68912601470947	picture	0		233.0	66.0	/home/egter/Projects/stimuli/pictures/n03992509_2240.JPEG	135.1997208595276	1.9467511177062988
68	104.61241602897644	response	0	k		66.0	/home/egter/Projects/stimuli/pictures/n03992509_2240.JPEG	137.12301087379456	
69	104.63587713241577	picture	0		197.0	67.0	/home/egter/Projects/stimuli/pictures/n02268853_2699.JPEG	137.1464719772339	1.6435399055480957
69	106.26927900314331	response	0	j		67.0	/home/egter/Projects/stimuli/pictures/n02268853_2699.JPEG	138.77987384796143	
70	106.27941703796387	picture	0		245.0	68.0	/home/egter/Projects/stimuli/pictures/S_ILSVRC2015_train_00324002.png	138.79001188278198	2.0416691303253174
70	108.31094908714294	response	0	j		68.0	/home/egter/Projects/stimuli/pictures/S_ILSVRC2015_train_00324002.png	140.82154393196106	
71	108.32108616828918	picture	0		274.0	69.0	/home/egter/Projects/stimuli/pictures/R_S_-IkGMlLHrOI_108.png	140.8316810131073	2.2846169471740723
71	110.59427213668823	response	0	k		69.0	/home/egter/Projects/stimuli/pictures/R_S_-IkGMlLHrOI_108.png	143.10486698150635	
72	110.60570311546326	picture	0		93.0	70.0	/home/egter/Projects/stimuli/pictures/R_S_yt-nMWqezngycw_10.png	143.11629796028137	0.7778420448303223
72	111.36970615386963	response	0	j		70.0	/home/egter/Projects/stimuli/pictures/R_S_yt-nMWqezngycw_10.png	143.88030099868774	
73	111.38354516029358	picture	0		114.0	71.0	/home/egter/Projects/stimuli/pictures/n03372029_7977.JPEG	143.8941400051117	0.9583740234375
73	112.32819199562073	response	0	k		71.0	/home/egter/Projects/stimuli/pictures/n03372029_7977.JPEG	144.83878684043884	
74	112.34191918373108	picture	0		109.0	72.0	/home/egter/Projects/stimuli/pictures/R_S_yt-Ojy5TMPX8_Q_165.png	144.8525140285492	0.9166128635406494
74	113.23738718032837	response	0	j		72.0	/home/egter/Projects/stimuli/pictures/R_S_yt-Ojy5TMPX8_Q_165.png	145.74798202514648	
75	113.25853204727173	picture	0		88.0	73.0	/home/egter/Projects/stimuli/pictures/R_S_yt-bH4nJibL4Jo_164.png	145.76912689208984	0.7360429763793945
75	113.98593306541443	response	0	j		73.0	/home/egter/Projects/stimuli/pictures/R_S_yt-bH4nJibL4Jo_164.png	146.49652791023254	
76	113.99457502365112	picture	0		139.0	74.0	/home/egter/Projects/stimuli/pictures/R_S_yt-iHmshS63rBc_329.png	146.50516986846924	1.1597161293029785
76	115.1442141532898	response	0	j		74.0	/home/egter/Projects/stimuli/pictures/R_S_yt-iHmshS63rBc_329.png	147.6548089981079	
77	115.1542911529541	picture	0		128.0	75.0	/home/egter/Projects/stimuli/pictures/S_yt-EOspahHAnV4_85.png	147.66488599777222	1.0696468353271484
77	116.20447206497192	response	0	k		75.0	/home/egter/Projects/stimuli/pictures/S_yt-EOspahHAnV4_85.png	148.71506690979004	
78	116.22393798828125	picture	0		123.0	76.0	/home/egter/Projects/stimuli/pictures/n07717410_12614.JPEG	148.73453283309937	1.034898042678833
78	117.23739004135132	response	0	k		76.0	/home/egter/Projects/stimuli/pictures/n07717410_12614.JPEG	149.74798488616943	
79	117.25883603096008	picture	0		372.0	77.0	/home/egter/Projects/stimuli/pictures/S_yt--_ZMybcaUOw_254.png	149.7694308757782	3.103685140609741
79	120.35253310203552	response	0	j		77.0	/home/egter/Projects/stimuli/pictures/S_yt--_ZMybcaUOw_254.png	152.86312794685364	
80	120.36252117156982	picture	0		130.0	78.0	/home/egter/Projects/stimuli/pictures/n01753488_1870.JPEG	152.87311601638794	1.0833799839019775
80	121.42921996116638	response	0	k		78.0	/home/egter/Projects/stimuli/pictures/n01753488_1870.JPEG	153.9398148059845	
81	121.4459011554718	picture	0		368.0	79.0	/home/egter/Projects/stimuli/pictures/n03417042_4761.JPEG	153.95649600028992	3.0694098472595215
81	124.5024950504303	response	0	k		79.0	/home/egter/Projects/stimuli/pictures/n03417042_4761.JPEG	157.0130898952484	
82	124.51531100273132	picture	0		154.0	80.0	/home/egter/Projects/stimuli/pictures/n04005630_85500.JPEG	157.02590584754944	1.2954399585723877
82	125.79420208930969	response	0	k		80.0	/home/egter/Projects/stimuli/pictures/n04005630_85500.JPEG	158.3047969341278	
83	125.81075096130371	picture	0		89.0	81.0	/home/egter/Projects/stimuli/pictures/R_S_ILSVRC2015_train_00538001.png	158.32134580612183	0.7463040351867676
83	126.54428195953369	response	0	j		81.0	/home/egter/Projects/stimuli/pictures/R_S_ILSVRC2015_train_00538001.png	159.0548768043518	
84	126.55705499649048	picture	0		166.0	82.0	/home/egter/Projects/stimuli/pictures/n02097047_726.JPEG	159.0676498413086	1.3887600898742676
84	127.93585896492004	response	0	k		82.0	/home/egter/Projects/stimuli/pictures/n02097047_726.JPEG	160.44645380973816	
85	127.94581508636475	picture	0		66.0	83.0	/home/egter/Projects/stimuli/pictures/S_yt-iHmshS63rBc_329.png	160.45640993118286	0.5485720634460449
85	128.48583912849426	response	0	j		83.0	/home/egter/Projects/stimuli/pictures/S_yt-iHmshS63rBc_329.png	160.99643397331238	
86	128.4943871498108	picture	0		135.0	84.0	/home/egter/Projects/stimuli/pictures/S_yt-kawmL3oVw8c_2.png	161.0049819946289	1.1250619888305664
86	129.61084604263306	response	0	j		84.0	/home/egter/Projects/stimuli/pictures/S_yt-kawmL3oVw8c_2.png	162.12144088745117	
87	129.61944913864136	picture	0		232.0	85.0	/home/egter/Projects/stimuli/pictures/S_yt-fLNDhX22diw_98.png	162.13004398345947	1.937479019165039
87	131.54419016838074	response	0	j		85.0	/home/egter/Projects/stimuli/pictures/S_yt-fLNDhX22diw_98.png	164.05478501319885	
88	131.5569281578064	picture	0		121.0	86.0	/home/egter/Projects/stimuli/pictures/R_S_bing-www_dailymotion_com_video_x4kcklg_53.png	164.0675230026245	1.0069029331207275
88	132.55251097679138	response	0	j		86.0	/home/egter/Projects/stimuli/pictures/R_S_bing-www_dailymotion_com_video_x4kcklg_53.png	165.0631058216095	
89	132.56383109092712	picture	0		173.0	87.0	/home/egter/Projects/stimuli/pictures/n06794110_2069.JPEG	165.07442593574524	1.444735050201416
89	133.9945080280304	response	0	k		87.0	/home/egter/Projects/stimuli/pictures/n06794110_2069.JPEG	166.5051028728485	
90	134.00856614112854	picture	0		101.0	88.0	/home/egter/Projects/stimuli/pictures/n02119022_31789.JPEG	166.51916098594666	0.8469438552856445
90	134.8374481201172	response	0	k		88.0	/home/egter/Projects/stimuli/pictures/n02119022_31789.JPEG	167.3480429649353	
91	134.85550999641418	picture	0		91.0	89.0	/home/egter/Projects/stimuli/pictures/R_S_yt-3eQHOLBzOqA_100.png	167.3661048412323	0.756911039352417
91	135.6024570465088	response	0	j		89.0	/home/egter/Projects/stimuli/pictures/R_S_yt-3eQHOLBzOqA_100.png	168.1130518913269	
92	135.6124210357666	picture	0		120.0	90.0	/home/egter/Projects/stimuli/pictures/S_ILSVRC2015_train_00405001.png	168.12301588058472	0.9999420642852783
92	136.60248613357544	response	0	j		90.0	/home/egter/Projects/stimuli/pictures/S_ILSVRC2015_train_00405001.png	169.11308097839355	
93	136.61236310005188	picture	0		109.0	91.0	/home/egter/Projects/stimuli/pictures/S_pexels-cottonbro-9063801_1.png	169.12295794487	0.9098470211029053
93	137.5108470916748	response	0	j		91.0	/home/egter/Projects/stimuli/pictures/S_pexels-cottonbro-9063801_1.png	170.02144193649292	
94	137.52221012115479	picture	0		114.0	92.0	/home/egter/Projects/stimuli/pictures/S_I003_C004_SDR_2K_AVC.png	170.0328049659729	0.9513289928436279
94	138.46079015731812	response	0	j		92.0	/home/egter/Projects/stimuli/pictures/S_I003_C004_SDR_2K_AVC.png	170.97138500213623	
95	138.4735391139984	picture	0		180.0	93.0	/home/egter/Projects/stimuli/pictures/S_yt-JiOoUOoytos_39.png	170.98413395881653	1.5069198608398438
95	139.96913504600525	response	0	k		93.0	/home/egter/Projects/stimuli/pictures/S_yt-JiOoUOoytos_39.png	172.47972989082336	
96	139.98045897483826	picture	0		81.0	94.0	/home/egter/Projects/stimuli/pictures/S_wc-WgOBK5IL7vex_4.png	172.49105381965637	0.6735901832580566
96	140.63782000541687	response	0	j		94.0	/home/egter/Projects/stimuli/pictures/S_wc-WgOBK5IL7vex_4.png	173.14841485023499	
97	140.6540491580963	picture	0		158.0	95.0	/home/egter/Projects/stimuli/pictures/R_S_yt-xQPKYWDRy2A_491.png	173.16464400291443	1.3194530010223389
97	141.96073603630066	response	0	k		95.0	/home/egter/Projects/stimuli/pictures/R_S_yt-xQPKYWDRy2A_491.png	174.47133088111877	
98	141.97350215911865	picture	0		95.0	96.0	/home/egter/Projects/stimuli/pictures/n04335435_3691.JPEG	174.48409700393677	0.7985799312591553
98	142.76080799102783	response	0	j		96.0	/home/egter/Projects/stimuli/pictures/n04335435_3691.JPEG	175.27140283584595	
99	142.7720820903778	picture	0		13.0	97.0	/home/egter/Projects/stimuli/pictures/n13052670_9201.JPEG	175.28267693519592	0.11134004592895508
99	142.8693449497223	response	0	k		97.0	/home/egter/Projects/stimuli/pictures/n13052670_9201.JPEG	175.3799397945404	
100	142.88342213630676	picture	0		256.0	98.0	/home/egter/Projects/stimuli/pictures/n02988304_1974.JPEG	175.39401698112488	2.1386878490448
100	145.01081013679504	response	0	k		98.0	/home/egter/Projects/stimuli/pictures/n02988304_1974.JPEG	177.52140498161316	
101	145.02210998535156	picture	0		102.0	99.0	/home/egter/Projects/stimuli/pictures/S_comp_A103_C002_0205DG_v12_SDR_FINAL_20180706_SDR_2K_AVC.png	177.53270483016968	0.8471560478210449
101	145.86073207855225	response	0	j		99.0	/home/egter/Projects/stimuli/pictures/S_comp_A103_C002_0205DG_v12_SDR_FINAL_20180706_SDR_2K_AVC.png	178.37132692337036	
102	145.8692660331726	picture	0		627.0	100.0	/home/egter/Projects/stimuli/pictures/S_yt-5IEO9Gn5fZ4_59.png	178.37986087799072	5.229270935058594
102	151.08571004867554	response	0	j		100.0	/home/egter/Projects/stimuli/pictures/S_yt-5IEO9Gn5fZ4_59.png	183.59630489349365	
103	151.0985369682312	picture	0		112.0	101.0	/home/egter/Projects/stimuli/pictures/S_yt-4Qz0m5IYh10_167.png	183.60913181304932	0.9303960800170898
103	152.0190680027008	response	0	k		101.0	/home/egter/Projects/stimuli/pictures/S_yt-4Qz0m5IYh10_167.png	184.52966284751892	
104	152.0289330482483	picture	0		462.0	102.0	/home/egter/Projects/stimuli/pictures/S_yt-qlR-TG7veA4_17.png	184.5395278930664	3.856781005859375
104	155.86937808990479	response	0	j		102.0	/home/egter/Projects/stimuli/pictures/S_yt-qlR-TG7veA4_17.png	188.3799729347229	
105	155.88571405410767	picture	0		171.0	103.0	/home/egter/Projects/stimuli/pictures/n02115913_2800.JPEG	188.39630889892578	1.4278619289398193
105	157.30238008499146	response	0	k		103.0	/home/egter/Projects/stimuli/pictures/n02115913_2800.JPEG	189.81297492980957	
106	157.31357598304749	picture	0		201.0	104.0	/home/egter/Projects/stimuli/pictures/n04118776_71035.JPEG	189.8241708278656	1.6736781597137451
106	158.97737407684326	response	0	k		104.0	/home/egter/Projects/stimuli/pictures/n04118776_71035.JPEG	191.48796892166138	
107	158.98725414276123	picture	0		205.0	105.0	/home/egter/Projects/stimuli/pictures/S_yt-nfDPFHUDq8g_136.png	191.49784898757935	1.7082898616790771
107	160.68566513061523	response	0	j		105.0	/home/egter/Projects/stimuli/pictures/S_yt-nfDPFHUDq8g_136.png	193.19625997543335	
108	160.6955440044403	picture	0		224.0	106.0	/home/egter/Projects/stimuli/pictures/R_S_wc-zkO_omg3nTvg_5.png	193.20613884925842	1.868009090423584
108	162.5524480342865	response	0	j		106.0	/home/egter/Projects/stimuli/pictures/R_S_wc-zkO_omg3nTvg_5.png	195.06304287910461	
109	162.5635530948639	picture	0		103.0	107.0	/home/egter/Projects/stimuli/pictures/n01729322_17476.JPEG	195.074147939682	0.8616349697113037
109	163.4109070301056	response	0	k		107.0	/home/egter/Projects/stimuli/pictures/n01729322_17476.JPEG	195.9215018749237	
110	163.4251880645752	picture	0		114.0	108.0	/home/egter/Projects/stimuli/pictures/n01984695_22693.JPEG	195.9357829093933	0.9581899642944336
110	164.3692271709442	response	0	k		108.0	/home/egter/Projects/stimuli/pictures/n01984695_22693.JPEG	196.87982201576233	
111	164.38337802886963	picture	0		234.0	109.0	/home/egter/Projects/stimuli/pictures/S_yt--DS6U40wbF0_70.png	196.89397287368774	1.958022117614746
111	166.3275330066681	response	0	j		109.0	/home/egter/Projects/stimuli/pictures/S_yt--DS6U40wbF0_70.png	198.8381278514862	
112	166.34140014648438	picture	0		57.0	110.0	/home/egter/Projects/stimuli/pictures/S_wc-ZGCMbPfXQ71L_31.png	198.8519949913025	0.4790828227996826
112	166.8108320236206	response	0	k		110.0	/home/egter/Projects/stimuli/pictures/S_wc-ZGCMbPfXQ71L_31.png	199.32142686843872	
113	166.82048296928406	picture	0		93.0	111.0	/home/egter/Projects/stimuli/pictures/n02814533_4087.JPEG	199.33107781410217	0.7777822017669678
113	167.58571696281433	response	0	k		111.0	/home/egter/Projects/stimuli/pictures/n02814533_4087.JPEG	200.09631180763245	
114	167.59826517105103	picture	0		104.0	112.0	/home/egter/Projects/stimuli/pictures/n03535780_48037.JPEG	200.10886001586914	0.8750588893890381
114	168.45405197143555	response	0	k		112.0	/home/egter/Projects/stimuli/pictures/n03535780_48037.JPEG	200.96464681625366	
115	168.47332406044006	picture	0		195.0	113.0	/home/egter/Projects/stimuli/pictures/n01443537_2563.JPEG	200.98391890525818	1.6250040531158447
115	170.08565402030945	response	0	j		113.0	/home/egter/Projects/stimuli/pictures/n01443537_2563.JPEG	202.59624886512756	
116	170.0983281135559	picture	0		105.0	114.0	/home/egter/Projects/stimuli/pictures/n01877812_7593.JPEG	202.60892295837402	0.8818299770355225
116	170.96899008750916	response	0	k		114.0	/home/egter/Projects/stimuli/pictures/n01877812_7593.JPEG	203.47958493232727	
117	170.98015809059143	picture	0		80.0	115.0	/home/egter/Projects/stimuli/pictures/R_S_yt-SCzpSxzt0TA_46.png	203.49075293540955	0.6666710376739502
117	171.63568496704102	response	0	j		115.0	/home/egter/Projects/stimuli/pictures/R_S_yt-SCzpSxzt0TA_46.png	204.14627981185913	
118	171.64682912826538	picture	0		99.0	116.0	/home/egter/Projects/stimuli/pictures/S_pexels-cottonbro-9063801.png	204.1574239730835	0.826416015625
118	172.4540240764618	response	0	j		116.0	/home/egter/Projects/stimuli/pictures/S_pexels-cottonbro-9063801.png	204.9646189212799	
119	172.47324514389038	picture	0		91.0	117.0	/home/egter/Projects/stimuli/pictures/R_S_yt-xCh0LI9VKeI_28.png	204.9838399887085	0.7568659782409668
119	173.2190179824829	response	0	j		117.0	/home/egter/Projects/stimuli/pictures/R_S_yt-xCh0LI9VKeI_28.png	205.72961282730103	
120	173.23011112213135	picture	0		100.0	118.0	/home/egter/Projects/stimuli/pictures/S_yt-uDDv9fXG64w_98.png	205.74070596694946	0.8333349227905273
120	174.04544615745544	response	0	k		118.0	/home/egter/Projects/stimuli/pictures/S_yt-uDDv9fXG64w_98.png	206.55604100227356	
121	174.06344604492188	picture	0		149.0	119.0	/home/egter/Projects/stimuli/pictures/n04141327_4178.JPEG	206.57404088974	1.2431519031524658
121	175.29401803016663	response	0	k		119.0	/home/egter/Projects/stimuli/pictures/n04141327_4178.JPEG	207.80461287498474	
122	175.30659794807434	picture	0		87.0	120.0	/home/egter/Projects/stimuli/pictures/n03478589_9338.JPEG	207.81719279289246	0.7221531867980957
122	176.01903414726257	response	0	k		120.0	/home/egter/Projects/stimuli/pictures/n03478589_9338.JPEG	208.5296289920807	
123	176.02875113487244	picture	0		169.0	121.0	/home/egter/Projects/stimuli/pictures/S_yt-uX7qYKQm_pg_277.png	208.53934597969055	1.4096698760986328
123	177.42734599113464	response	0	j		121.0	/home/egter/Projects/stimuli/pictures/S_yt-uX7qYKQm_pg_277.png	209.93794083595276	
124	177.43842101097107	picture	0		216.0	122.0	/home/egter/Projects/stimuli/pictures/n01855032_5287.JPEG	209.94901585578918	1.798609972000122
124	179.22733402252197	response	0	k		122.0	/home/egter/Projects/stimuli/pictures/n01855032_5287.JPEG	211.7379288673401	
125	179.2370309829712	picture	0		509.0	123.0	/home/egter/Projects/stimuli/pictures/n04404412_29658.JPEG	211.7476258277893	4.242998123168945
125	183.46220207214355	response	0	k		123.0	/home/egter/Projects/stimuli/pictures/n04404412_29658.JPEG	215.97279691696167	
126	183.48002910614014	picture	0		118.0	124.0	/home/egter/Projects/stimuli/pictures/ILSVRC2012_test_00008659.JPEG	215.99062395095825	0.9861788749694824
126	184.44544506072998	response	0	k		124.0	/home/egter/Projects/stimuli/pictures/ILSVRC2012_test_00008659.JPEG	216.9560399055481	
127	184.46620798110962	picture	0		87.0	125.0	/home/egter/Projects/stimuli/pictures/S_yt-xroq1qyorNo_113.png	216.97680282592773	0.7290811538696289
127	185.1855640411377	response	0	k		125.0	/home/egter/Projects/stimuli/pictures/S_yt-xroq1qyorNo_113.png	217.6961588859558	
128	185.19528913497925	picture	0		134.0	126.0	/home/egter/Projects/stimuli/pictures/S_yt-Y7-umyL036c_507.png	217.70588397979736	1.1235928535461426
128	186.30224895477295	response	0	j		126.0	/home/egter/Projects/stimuli/pictures/S_yt-Y7-umyL036c_507.png	218.81284379959106	
129	186.3188819885254	picture	0		99.0	127.0	/home/egter/Projects/stimuli/pictures/S_ILSVRC2015_train_00001012.png	218.8294768333435	0.8278529644012451
129	187.13564205169678	response	0	j		127.0	/home/egter/Projects/stimuli/pictures/S_ILSVRC2015_train_00001012.png	219.6462368965149	
130	187.14673495292664	picture	0		90.0	128.0	/home/egter/Projects/stimuli/pictures/n02841315_5631.JPEG	219.65732979774475	0.7499251365661621
130	187.88558316230774	response	0	k		128.0	/home/egter/Projects/stimuli/pictures/n02841315_5631.JPEG	220.39617800712585	
131	187.8966600894928	picture	0		107.0	129.0	/home/egter/Projects/stimuli/pictures/R_S_yt-14tjqjjjAEI_15.png	220.4072549343109	0.8888490200042725
131	188.77728605270386	response	0	j		129.0	/home/egter/Projects/stimuli/pictures/R_S_yt-14tjqjjjAEI_15.png	221.28788089752197	
132	188.78550910949707	picture	0		407.0	130.0	/home/egter/Projects/stimuli/pictures/n04311004_3032.JPEG	221.29610395431519	3.3958208560943604
132	192.16893601417542	response	0	k		130.0	/home/egter/Projects/stimuli/pictures/n04311004_3032.JPEG	224.67953085899353	
133	192.18132996559143	picture	0		190.0	131.0	/home/egter/Projects/stimuli/pictures/S_yt-ORE2V_VvOpg_67.png	224.69192481040955	1.5833849906921387
133	193.75227999687195	response	0	k		131.0	/home/egter/Projects/stimuli/pictures/S_yt-ORE2V_VvOpg_67.png	226.26287484169006	
134	193.76471495628357	picture	0		120.0	132.0	/home/egter/Projects/stimuli/pictures/n03658185_5552.JPEG	226.27530980110168	0.9999182224273682
134	194.75231003761292	response	0	k		132.0	/home/egter/Projects/stimuli/pictures/n03658185_5552.JPEG	227.26290488243103	
135	194.76463317871094	picture	0		156.0	133.0	/home/egter/Projects/stimuli/pictures/R_S_Y011_C001_SDR_2K_AVC.png	227.27522802352905	1.2986619472503662
135	196.04542899131775	response	0	k		133.0	/home/egter/Projects/stimuli/pictures/R_S_Y011_C001_SDR_2K_AVC.png	228.55602383613586	
136	196.0632951259613	picture	0		151.0	134.0	/home/egter/Projects/stimuli/pictures/n01917289_731.JPEG	228.57388997077942	1.2569079399108887
136	197.31058812141418	response	0	j		134.0	/home/egter/Projects/stimuli/pictures/n01917289_731.JPEG	229.8211829662323	
137	197.3202030658722	picture	0		510.0	135.0	/home/egter/Projects/stimuli/pictures/S_wc-PsidKmkEV7Km_14.png	229.8307979106903	4.249905109405518
137	201.56053805351257	response	0	j		135.0	/home/egter/Projects/stimuli/pictures/S_wc-PsidKmkEV7Km_14.png	234.0711328983307	
138	201.5701081752777	picture	0		242.0	136.0	/home/egter/Projects/stimuli/pictures/S_yt-caS_SY5WmeE_5.png	234.08070302009583	2.023714780807495
138	203.57723999023438	response	0	k		136.0	/home/egter/Projects/stimuli/pictures/S_yt-caS_SY5WmeE_5.png	236.0878348350525	
139	203.5938229560852	picture	0		412.0	137.0	/home/egter/Projects/stimuli/pictures/n03857828_13653.JPEG	236.10441780090332	3.434603214263916
139	207.0188889503479	response	0	k		137.0	/home/egter/Projects/stimuli/pictures/n03857828_13653.JPEG	239.52948379516602	
140	207.02842617034912	picture	0		99.0	138.0	/home/egter/Projects/stimuli/pictures/S_yt-Oxu6w0Zx9dQ_3.png	239.53902101516724	0.8263499736785889
140	207.84386706352234	response	0	k		138.0	/home/egter/Projects/stimuli/pictures/S_yt-Oxu6w0Zx9dQ_3.png	240.35446190834045	
141	207.8547761440277	picture	0		129.0	139.0	/home/egter/Projects/stimuli/pictures/R_S_ILSVRC2015_train_00219003.png	240.36537098884583	1.0764808654785156
141	208.91888117790222	response	0	k		139.0	/home/egter/Projects/stimuli/pictures/R_S_ILSVRC2015_train_00219003.png	241.42947602272034	
142	208.93125700950623	picture	0		143.0	140.0	/home/egter/Projects/stimuli/pictures/n01824575_2029.JPEG	241.44185185432434	1.1958179473876953
142	210.11051106452942	response	0	k		140.0	/home/egter/Projects/stimuli/pictures/n01824575_2029.JPEG	242.62110590934753	
143	210.12707495689392	picture	0		112.0	141.0	/home/egter/Projects/stimuli/pictures/n02105162_3441.JPEG	242.63766980171204	0.9360132217407227
143	211.05214595794678	response	0	k		141.0	/home/egter/Projects/stimuli/pictures/n02105162_3441.JPEG	243.5627408027649	
144	211.06308817863464	picture	0		128.0	142.0	/home/egter/Projects/stimuli/pictures/n04005630_26150.JPEG	243.57368302345276	1.0695669651031494
144	212.11886405944824	response	0	k		142.0	/home/egter/Projects/stimuli/pictures/n04005630_26150.JPEG	244.62945890426636	
145	212.1326551437378	picture	0		88.0	143.0	/home/egter/Projects/stimuli/pictures/R_S_yt-N7ztk2fa3Ls_137.png	244.6432499885559	0.7360608577728271
145	212.85369610786438	response	0	j		143.0	/home/egter/Projects/stimuli/pictures/R_S_yt-N7ztk2fa3Ls_137.png	245.3642909526825	
146	212.86871600151062	picture	0		101.0	144.0	/home/egter/Projects/stimuli/pictures/S_yt-zhQ32_OayBQ_39.png	245.37931084632874	0.8474180698394775
146	213.7021520137787	response	0	j		144.0	/home/egter/Projects/stimuli/pictures/S_yt-zhQ32_OayBQ_39.png	246.2127468585968	
147	213.7161340713501	picture	0		145.0	145.0	/home/egter/Projects/stimuli/pictures/S_ILSVRC2015_train_00708000.png	246.2267289161682	1.215116024017334
147	214.91884398460388	response	0	j		145.0	/home/egter/Projects/stimuli/pictures/S_ILSVRC2015_train_00708000.png	247.429438829422	
148	214.93125009536743	picture	0		622.0	146.0	/home/egter/Projects/stimuli/pictures/n02094258_5630.JPEG	247.44184494018555	5.180394887924194
148	220.10210299491882	response	0	k		146.0	/home/egter/Projects/stimuli/pictures/n02094258_5630.JPEG	252.61269783973694	
149	220.11164498329163	picture	0		166.0	147.0	/home/egter/Projects/stimuli/pictures/R_S_TYs22gin-EU_57.png	252.62223982810974	1.382021188735962
149	221.478618144989	response	0	j		147.0	/home/egter/Projects/stimuli/pictures/R_S_TYs22gin-EU_57.png	253.98921298980713	
150	221.4936661720276	picture	0		257.0	148.0	/home/egter/Projects/stimuli/pictures/n02701002_502.JPEG	254.0042610168457	2.1457347869873047
150	223.62713408470154	response	0	k		148.0	/home/egter/Projects/stimuli/pictures/n02701002_502.JPEG	256.13772892951965	
151	223.6394009590149	picture	0		163.0	149.0	/home/egter/Projects/stimuli/pictures/S_yt-1n1jTroiwJs_163.png	256.149995803833	1.3542799949645996
151	224.98550295829773	response	0	k		149.0	/home/egter/Projects/stimuli/pictures/S_yt-1n1jTroiwJs_163.png	257.49609780311584	
152	224.9936809539795	picture	0		106.0	150.0	/home/egter/Projects/stimuli/pictures/S_yt--DXkjCUzThU_413.png	257.5042757987976	0.888862133026123
152	225.8619339466095	response	0	j		150.0	/home/egter/Projects/stimuli/pictures/S_yt--DXkjCUzThU_413.png	258.3725287914276	
153	225.88254308700562	picture	0		166.0	151.0	/home/egter/Projects/stimuli/pictures/S_yt-sWBjSPt7tZI_85.png	258.39313793182373	1.3888049125671387
153	227.26045894622803	response	0	k		151.0	/home/egter/Projects/stimuli/pictures/S_yt-sWBjSPt7tZI_85.png	259.77105379104614	
154	227.27134799957275	picture	0		104.0	152.0	/home/egter/Projects/stimuli/pictures/S_yt-n2sJadTbuxo_10.png	259.78194284439087	0.8680269718170166
154	228.1271231174469	response	0	j		152.0	/home/egter/Projects/stimuli/pictures/S_yt-n2sJadTbuxo_10.png	260.637717962265	
155	228.13937497138977	picture	0		122.0	153.0	/home/egter/Projects/stimuli/pictures/R_S_yt-6xXEMHBQ08A_28.png	260.6499698162079	1.013869047164917
155	229.14378595352173	response	0	j		153.0	/home/egter/Projects/stimuli/pictures/R_S_yt-6xXEMHBQ08A_28.png	261.65438079833984	
156	229.1532440185547	picture	0		96.0	154.0	/home/egter/Projects/stimuli/pictures/R_S_yt-mdLT282PVbE_6.png	261.6638388633728	0.798699140548706
156	229.9437849521637	response	0	j		154.0	/home/egter/Projects/stimuli/pictures/R_S_yt-mdLT282PVbE_6.png	262.4543797969818	
157	229.9519431591034	picture	0		102.0	155.0	/home/egter/Projects/stimuli/pictures/R_S_yt-MhW2fU45JK8_544.png	262.4625380039215	0.8540499210357666
157	230.79378199577332	response	0	j		155.0	/home/egter/Projects/stimuli/pictures/R_S_yt-MhW2fU45JK8_544.png	263.30437684059143	
158	230.80599308013916	picture	0		94.0	156.0	/home/egter/Projects/stimuli/pictures/S_yt-9yxWUrtQJnw_11.png	263.3165879249573	0.7847709655761719
158	231.57709503173828	response	0	j		156.0	/home/egter/Projects/stimuli/pictures/S_yt-9yxWUrtQJnw_11.png	264.0876898765564	
159	231.59076404571533	picture	0		81.0	157.0	/home/egter/Projects/stimuli/pictures/R_S_yt-fymgyhmYnMI_76.png	264.10135889053345	0.680474042892456
159	232.26056599617004	response	0	j		157.0	/home/egter/Projects/stimuli/pictures/R_S_yt-fymgyhmYnMI_76.png	264.77116084098816	
160	232.2712380886078	picture	0		119.0	158.0	/home/egter/Projects/stimuli/pictures/S_yt-6xXEMHBQ08A_28.png	264.7818329334259	0.9931020736694336
160	233.25207614898682	response	0	j		158.0	/home/egter/Projects/stimuli/pictures/S_yt-6xXEMHBQ08A_28.png	265.76267099380493	
161	233.26434016227722	picture	0		101.0	159.0	/home/egter/Projects/stimuli/pictures/n02666196_5500.JPEG	265.77493500709534	0.840242862701416
161	234.0868890285492	response	0	k		159.0	/home/egter/Projects/stimuli/pictures/n02666196_5500.JPEG	266.5974838733673	
162	234.10458302497864	picture	0		112.0	160.0	/home/egter/Projects/stimuli/pictures/n03871628_14843.JPEG	266.61517786979675	0.9306800365447998
162	235.02706003189087	response	0	k		160.0	/home/egter/Projects/stimuli/pictures/n03871628_14843.JPEG	267.537654876709	
163	235.03526306152344	picture	0		135.0	161.0	/home/egter/Projects/stimuli/pictures/S_RS_A008_C010_SDR_20191218_SDR_2K_AVC.png	267.54585790634155	1.125025987625122
163	236.1520481109619	response	0	j		161.0	/home/egter/Projects/stimuli/pictures/S_RS_A008_C010_SDR_20191218_SDR_2K_AVC.png	268.66264295578003	
164	236.16028904914856	picture	0		81.0	162.0	/home/egter/Projects/stimuli/pictures/S_yt-ZfDtalvUK5k_36.png	268.6708838939667	0.680419921875
164	236.82708716392517	response	0	j		162.0	/home/egter/Projects/stimuli/pictures/S_yt-ZfDtalvUK5k_36.png	269.3376820087433	
165	236.84070897102356	picture	0		105.0	163.0	/home/egter/Projects/stimuli/pictures/S_yt-sC9suzTl1Y0_66.png	269.3513038158417	0.8818790912628174
165	237.7104091644287	response	0	k		163.0	/home/egter/Projects/stimuli/pictures/S_yt-sC9suzTl1Y0_66.png	270.2210040092468	
166	237.72258806228638	picture	0		84.0	164.0	/home/egter/Projects/stimuli/pictures/S_yt-AjyR9--Mx3A_44.png	270.2331829071045	0.7016301155090332
166	238.410413980484	response	0	j		164.0	/home/egter/Projects/stimuli/pictures/S_yt-AjyR9--Mx3A_44.png	270.9210088253021	
167	238.4242181777954	picture	0		177.0	165.0	/home/egter/Projects/stimuli/pictures/n03697007_7401.JPEG	270.9348130226135	1.4789519309997559
167	239.88697814941406	response	0	k		165.0	/home/egter/Projects/stimuli/pictures/n03697007_7401.JPEG	272.3975729942322	
168	239.90317010879517	picture	0		151.0	166.0	/home/egter/Projects/stimuli/pictures/R_S_yt-kINZMjys3O4_112.png	272.4137649536133	1.2570929527282715
168	241.15204215049744	response	0	j		166.0	/home/egter/Projects/stimuli/pictures/R_S_yt-kINZMjys3O4_112.png	273.66263699531555	
169	241.16026306152344	picture	0		117.0	167.0	/home/egter/Projects/stimuli/pictures/n01685808_6392.JPEG	273.67085790634155	0.9791519641876221
169	242.12699913978577	response	0	k		167.0	/home/egter/Projects/stimuli/pictures/n01685808_6392.JPEG	274.6375939846039	
170	242.13941502571106	picture	0		140.0	168.0	/home/egter/Projects/stimuli/pictures/S_yt-hdZEAsVBEEM_19.png	274.6500098705292	1.1791880130767822
170	243.2869369983673	response	0	k		168.0	/home/egter/Projects/stimuli/pictures/S_yt-hdZEAsVBEEM_19.png	275.7975318431854	
171	243.31860303878784	picture	0		92.0	169.0	/home/egter/Projects/stimuli/pictures/R_S_yt-R0gFQo85cAE_5.png	275.82919788360596	0.7720439434051514
171	244.07032704353333	response	0	j		169.0	/home/egter/Projects/stimuli/pictures/R_S_yt-R0gFQo85cAE_5.png	276.58092188835144	
172	244.090646982193	picture	0		168.0	170.0	/home/egter/Projects/stimuli/pictures/n01729322_5682.JPEG	276.6012418270111	1.4029231071472168
172	245.47857213020325	response	0	k		170.0	/home/egter/Projects/stimuli/pictures/n01729322_5682.JPEG	277.98916697502136	
173	245.4935700893402	picture	0		126.0	171.0	/home/egter/Projects/stimuli/pictures/n09468604_18775.JPEG	278.0041649341583	1.0583410263061523
173	246.53541803359985	response	0	k		171.0	/home/egter/Projects/stimuli/pictures/n09468604_18775.JPEG	279.04601287841797	
174	246.55191111564636	picture	0		67.0	172.0	/home/egter/Projects/stimuli/pictures/R_S_yt-AjyR9--Mx3A_44.png	279.0625059604645	0.5594699382781982
174	247.10204100608826	response	0	j		172.0	/home/egter/Projects/stimuli/pictures/R_S_yt-AjyR9--Mx3A_44.png	279.6126358509064	
175	247.11138105392456	picture	0		92.0	173.0	/home/egter/Projects/stimuli/pictures/R_S_DV6V38rplag_215.png	279.6219758987427	0.770953893661499
175	247.86868906021118	response	0	j		173.0	/home/egter/Projects/stimuli/pictures/R_S_DV6V38rplag_215.png	280.3792839050293	
176	247.88233494758606	picture	0		173.0	174.0	/home/egter/Projects/stimuli/pictures/S_yt-YxVIDs9oN50_3.png	280.3929297924042	1.4445571899414062
176	249.3187119960785	response	0	k		174.0	/home/egter/Projects/stimuli/pictures/S_yt-YxVIDs9oN50_3.png	281.8293068408966	
177	249.32689213752747	picture	0		98.0	175.0	/home/egter/Projects/stimuli/pictures/n07716358_6428.JPEG	281.8374869823456	0.8192188739776611
177	250.1353621482849	response	0	j		175.0	/home/egter/Projects/stimuli/pictures/n07716358_6428.JPEG	282.645956993103	
178	250.14611101150513	picture	0		169.0	176.0	/home/egter/Projects/stimuli/pictures/ILSVRC2012_val_00021857.JPEG	282.65670585632324	1.4098031520843506
178	251.54369616508484	response	0	k		176.0	/home/egter/Projects/stimuli/pictures/ILSVRC2012_val_00021857.JPEG	284.05429100990295	
179	251.55591416358948	picture	0		237.0	177.0	/home/egter/Projects/stimuli/pictures/n02109961_1239.JPEG	284.0665090084076	1.9721229076385498
179	253.5186951160431	response	0	k		177.0	/home/egter/Projects/stimuli/pictures/n02109961_1239.JPEG	286.0292899608612	
180	253.52803707122803	picture	0		115.0	178.0	/home/egter/Projects/stimuli/pictures/n03372029_20144.JPEG	286.03863191604614	0.9582860469818115
180	254.47014617919922	response	0	k		178.0	/home/egter/Projects/stimuli/pictures/n03372029_20144.JPEG	286.98074102401733	
181	254.48632311820984	picture	0		81.0	179.0	/home/egter/Projects/stimuli/pictures/n02814533_13155.JPEG	286.99691796302795	0.6738569736480713
181	255.152006149292	response	0	k		179.0	/home/egter/Projects/stimuli/pictures/n02814533_13155.JPEG	287.6626009941101	
182	255.1601800918579	stim	0		258.0			287.670774936676	2.152529001235962
182	257.29466700553894	response	0	space				289.80526185035706	
