trial_nr	onset	event_type	phase	response	nr_frames	picture_index	picture_file	onset_abs	duration
0	0.014946937561035156	stim	0		861.0			33.137197971343994	7.179175853729248
0	0.005009889602661133	response	0	j				33.12726092338562	
0	7.177536964416504	response	0	space				40.29978799819946	
2	7.194122791290283	picture	0		151.0	0.0	/home/egter/Projects/stimuli/pictures/S_yt-oM9oaz2ytSY_140.png	40.31637382507324	1.2646410465240479
2	8.44485092163086	response	0	k		0.0	/home/egter/Projects/stimuli/pictures/S_yt-oM9oaz2ytSY_140.png	41.56710195541382	
3	8.458763837814331	picture	0		284.0	1.0	/home/egter/Projects/stimuli/pictures/S_yt-xrPrnzvWUkY_7.png	41.58101487159729	2.3749001026153564
3	10.819880962371826	response	0	j		1.0	/home/egter/Projects/stimuli/pictures/S_yt-xrPrnzvWUkY_7.png	43.942131996154785	
4	10.833663940429688	picture	0		93.0	2.0	/home/egter/Projects/stimuli/pictures/R_S_ILSVRC2015_train_00001011.png	43.95591497421265	0.7777578830718994
4	11.6024489402771	response	0	j		2.0	/home/egter/Projects/stimuli/pictures/R_S_ILSVRC2015_train_00001011.png	44.72469997406006	
5	11.611421823501587	picture	0		113.0	3.0	/home/egter/Projects/stimuli/pictures/S_yt-bD1U6bo-6bE_465.png	44.733672857284546	0.9444010257720947
5	12.544225931167603	response	0	j		3.0	/home/egter/Projects/stimuli/pictures/S_yt-bD1U6bo-6bE_465.png	45.66647696495056	
6	12.555822849273682	picture	0		151.0	4.0	/home/egter/Projects/stimuli/pictures/S_yt-2lnxIdOTxog_157.png	45.67807388305664	1.256932020187378
6	13.802470922470093	response	0	j		4.0	/home/egter/Projects/stimuli/pictures/S_yt-2lnxIdOTxog_157.png	46.92472195625305	
7	13.81275486946106	picture	0		82.0	5.0	/home/egter/Projects/stimuli/pictures/S_ILSVRC2015_train_00418007.png	46.93500590324402	0.6812939643859863
7	14.479039907455444	response	0	j		5.0	/home/egter/Projects/stimuli/pictures/S_ILSVRC2015_train_00418007.png	47.6012909412384	
8	14.494048833847046	picture	0		122.0	6.0	/home/egter/Projects/stimuli/pictures/S_yt-EcOYbXulEpI_139.png	47.616299867630005	1.0201420783996582
8	15.495685815811157	response	0	k		6.0	/home/egter/Projects/stimuli/pictures/S_yt-EcOYbXulEpI_139.png	48.617936849594116	
9	15.514190912246704	picture	0		107.0	7.0	/home/egter/Projects/stimuli/pictures/S_yt-Co4dzHwupRM_18.png	48.63644194602966	0.8889200687408447
9	16.3941969871521	response	0	k		7.0	/home/egter/Projects/stimuli/pictures/S_yt-Co4dzHwupRM_18.png	49.51644802093506	
10	16.40311098098755	picture	0		98.0	8.0	/home/egter/Projects/stimuli/pictures/R_S_yt-GWlwb2QsxIA_48.png	49.52536201477051	0.8193168640136719
10	17.210858821868896	response	0	j		8.0	/home/egter/Projects/stimuli/pictures/R_S_yt-GWlwb2QsxIA_48.png	50.333109855651855	
11	17.22242784500122	picture	0		198.0	9.0	/home/egter/Projects/stimuli/pictures/n04465501_4400.JPEG	50.34467887878418	1.655045986175537
11	18.861469984054565	response	0	k		9.0	/home/egter/Projects/stimuli/pictures/n04465501_4400.JPEG	51.983721017837524	
12	18.877473831176758	picture	0		86.0	10.0	/home/egter/Projects/stimuli/pictures/n04515003_5632.JPEG	51.99972486495972	0.7199549674987793
12	19.585903882980347	response	0	k		10.0	/home/egter/Projects/stimuli/pictures/n04515003_5632.JPEG	52.708154916763306	
13	19.597428798675537	picture	0		96.0	11.0	/home/egter/Projects/stimuli/pictures/S_yt-ak01CHYgEOs_1383.png	52.719679832458496	0.7986540794372559
13	20.385790824890137	response	0	j		11.0	/home/egter/Projects/stimuli/pictures/S_yt-ak01CHYgEOs_1383.png	53.508041858673096	
14	20.396082878112793	picture	0		229.0	12.0	/home/egter/Projects/stimuli/pictures/R_S_ILSVRC2015_train_00042002.png	53.51833391189575	1.9096999168395996
14	22.287481784820557	response	0	k		12.0	/home/egter/Projects/stimuli/pictures/R_S_ILSVRC2015_train_00042002.png	55.409732818603516	
15	22.305782794952393	picture	0		98.0	13.0	/home/egter/Projects/stimuli/pictures/S_ILSVRC2015_train_00697001.png	55.42803382873535	0.821749210357666
15	23.111474990844727	response	0	j		13.0	/home/egter/Projects/stimuli/pictures/S_ILSVRC2015_train_00697001.png	56.233726024627686	
16	23.12753200531006	picture	0		225.0	14.0	/home/egter/Projects/stimuli/pictures/n04228054_11703.JPEG	56.24978303909302	1.8796558380126953
16	24.994136810302734	response	0	k		14.0	/home/egter/Projects/stimuli/pictures/n04228054_11703.JPEG	58.11638784408569	
17	25.007187843322754	picture	0		163.0	15.0	/home/egter/Projects/stimuli/pictures/R_S_yt-GLK6LniTOK0_69.png	58.12943887710571	1.3680429458618164
17	26.361320972442627	response	0	j		15.0	/home/egter/Projects/stimuli/pictures/R_S_yt-GLK6LniTOK0_69.png	59.483572006225586	
18	26.37523078918457	picture	0		120.0	16.0	/home/egter/Projects/stimuli/pictures/S_yt-qurTr1BJMec_244.png	59.49748182296753	1.0068750381469727
18	27.36905288696289	response	0	j		16.0	/home/egter/Projects/stimuli/pictures/S_yt-qurTr1BJMec_244.png	60.49130392074585	
19	27.382105827331543	picture	0		123.0	17.0	/home/egter/Projects/stimuli/pictures/n03903868_14924.JPEG	60.5043568611145	1.0347900390625
19	28.40305781364441	response	0	k		17.0	/home/egter/Projects/stimuli/pictures/n03903868_14924.JPEG	61.52530884742737	
20	28.416895866394043	picture	0		103.0	18.0	/home/egter/Projects/stimuli/pictures/n01773797_2883.JPEG	61.539146900177	0.8610150814056396
20	29.269118785858154	response	0	k		18.0	/home/egter/Projects/stimuli/pictures/n01773797_2883.JPEG	62.39136981964111	
21	29.277910947799683	picture	0		101.0	19.0	/home/egter/Projects/stimuli/pictures/R_S_yt-cokedWwwYYs_136.png	62.40016198158264	0.8473000526428223
21	30.11134696006775	response	0	k		19.0	/home/egter/Projects/stimuli/pictures/R_S_yt-cokedWwwYYs_136.png	63.23359799385071	
22	30.125211000442505	picture	0		246.0	20.0	/home/egter/Projects/stimuli/pictures/S_yt-AKRjrTvvxFc_1804.png	63.247462034225464	2.055506944656372
22	32.16915678977966	response	0	k		20.0	/home/egter/Projects/stimuli/pictures/S_yt-AKRjrTvvxFc_1804.png	65.29140782356262	
23	32.18071794509888	picture	0		88.0	21.0	/home/egter/Projects/stimuli/pictures/R_S_bing-www_yahoo_com_entertainment_anastasia-karanikolaou-chantel-jeffries-discuss-182400502_html_9.png	65.30296897888184	0.7361350059509277
23	32.90298080444336	response	0	j		21.0	/home/egter/Projects/stimuli/pictures/R_S_bing-www_yahoo_com_entertainment_anastasia-karanikolaou-chantel-jeffries-discuss-182400502_html_9.png	66.02523183822632	
24	32.916852951049805	picture	0		86.0	22.0	/home/egter/Projects/stimuli/pictures/S_yt-BiBS8EO5GPc_4.png	66.03910398483276	0.7221529483795166
24	33.627442836761475	response	0	j		22.0	/home/egter/Projects/stimuli/pictures/S_yt-BiBS8EO5GPc_4.png	66.74969387054443	
25	33.63900589942932	picture	0		226.0	23.0	/home/egter/Projects/stimuli/pictures/S_uMYzeAJiua0_199.png	66.76125693321228	1.8819010257720947
25	35.50397086143494	response	0	k		23.0	/home/egter/Projects/stimuli/pictures/S_uMYzeAJiua0_199.png	68.6262218952179	
26	35.520906925201416	picture	0		174.0	24.0	/home/egter/Projects/stimuli/pictures/S_yt-kINZMjys3O4_112.png	68.64315795898438	1.4514009952545166
26	36.96078181266785	response	0	k		24.0	/home/egter/Projects/stimuli/pictures/S_yt-kINZMjys3O4_112.png	70.0830328464508	
27	36.97230792045593	picture	0		90.0	25.0	/home/egter/Projects/stimuli/pictures/S_yt-kiEFK7bDssE_14.png	70.09455895423889	0.7500569820404053
27	37.70394682884216	response	0	j		25.0	/home/egter/Projects/stimuli/pictures/S_yt-kiEFK7bDssE_14.png	70.82619786262512	
28	37.72236490249634	picture	0		79.0	26.0	/home/egter/Projects/stimuli/pictures/S_yt-UBqUhu-GEVg_6.png	70.8446159362793	0.6596410274505615
28	38.368987798690796	response	0	j		26.0	/home/egter/Projects/stimuli/pictures/S_yt-UBqUhu-GEVg_6.png	71.49123883247375	
29	38.3820059299469	picture	0		119.0	27.0	/home/egter/Projects/stimuli/pictures/S_yt--jzScB82vKI_90.png	71.50425696372986	0.9931130409240723
29	39.36126184463501	response	0	j		27.0	/home/egter/Projects/stimuli/pictures/S_yt--jzScB82vKI_90.png	72.48351287841797	
30	39.37511897087097	picture	0		84.0	28.0	/home/egter/Projects/stimuli/pictures/S_production_ID_4057155.png	72.49737000465393	0.7083380222320557
30	40.06956887245178	response	0	j		28.0	/home/egter/Projects/stimuli/pictures/S_production_ID_4057155.png	73.19181990623474	
31	40.08345699310303	picture	0		107.0	29.0	/home/egter/Projects/stimuli/pictures/S_yt-pO5SVq-9EhU_114.png	73.20570802688599	0.8957347869873047
31	40.96909284591675	response	0	j		29.0	/home/egter/Projects/stimuli/pictures/S_yt-pO5SVq-9EhU_114.png	74.0913438796997	
32	40.97919178009033	picture	0		123.0	30.0	/home/egter/Projects/stimuli/pictures/S_yt-G40PW6hfb2c_5.png	74.10144281387329	1.0277760028839111
32	41.99405097961426	response	0	k		30.0	/home/egter/Projects/stimuli/pictures/S_yt-G40PW6hfb2c_5.png	75.11630201339722	
33	42.00696778297424	picture	0		105.0	31.0	/home/egter/Projects/stimuli/pictures/n03764736_10366.JPEG	75.1292188167572	0.8818871974945068
33	42.87737679481506	response	0	k		31.0	/home/egter/Projects/stimuli/pictures/n03764736_10366.JPEG	75.99962782859802	
34	42.88885498046875	picture	0		95.0	32.0	/home/egter/Projects/stimuli/pictures/S_yt-VgJZl9SddCQ_8.png	76.01110601425171	0.7917299270629883
34	43.669020891189575	response	0	k		32.0	/home/egter/Projects/stimuli/pictures/S_yt-VgJZl9SddCQ_8.png	76.79127192497253	
35	43.68058490753174	picture	0		113.0	33.0	/home/egter/Projects/stimuli/pictures/S_yt-fja6A_3ys_w_116.png	76.8028359413147	0.9446289539337158
35	44.61121892929077	response	0	j		33.0	/home/egter/Projects/stimuli/pictures/S_yt-fja6A_3ys_w_116.png	77.73346996307373	
36	44.625213861465454	picture	0		73.0	34.0	/home/egter/Projects/stimuli/pictures/R_S_g201_AK_A003_C014_SDR_20191113_SDR_2K_AVC.png	77.74746489524841	0.6108160018920898
36	45.227362871170044	response	0	j		34.0	/home/egter/Projects/stimuli/pictures/R_S_g201_AK_A003_C014_SDR_20191113_SDR_2K_AVC.png	78.349613904953	
37	45.236029863357544	picture	0		156.0	35.0	/home/egter/Projects/stimuli/pictures/n01756291_7815.JPEG	78.3582808971405	1.3056230545043945
37	46.527854919433594	response	0	k		35.0	/home/egter/Projects/stimuli/pictures/n01756291_7815.JPEG	79.65010595321655	
38	46.54165291786194	picture	0		357.0	36.0	/home/egter/Projects/stimuli/pictures/R_S_yt-kA0ybjmoiMc_284.png	79.6639039516449	2.9791300296783447
38	49.503856897354126	response	0	k		36.0	/home/egter/Projects/stimuli/pictures/R_S_yt-kA0ybjmoiMc_284.png	82.62610793113708	
39	49.52078294754028	picture	0		112.0	37.0	/home/egter/Projects/stimuli/pictures/n02443114_19873.JPEG	82.64303398132324	0.9376888275146484
39	50.4444580078125	response	0	k		37.0	/home/egter/Projects/stimuli/pictures/n02443114_19873.JPEG	83.56670904159546	
40	50.45847177505493	picture	0		73.0	38.0	/home/egter/Projects/stimuli/pictures/n03478589_9338.JPEG	83.58072280883789	0.610875129699707
40	51.06068181991577	response	0	k		38.0	/home/egter/Projects/stimuli/pictures/n03478589_9338.JPEG	84.18293285369873	
41	51.06934690475464	picture	0		138.0	39.0	/home/egter/Projects/stimuli/pictures/R_S_comp_GMT329_113NC_396B_1105_ITALY_v03_SDR_FINAL_20180706_SDR_2K_AVC.png	84.1915979385376	1.1527609825134277
41	52.21073389053345	response	0	k		39.0	/home/egter/Projects/stimuli/pictures/R_S_comp_GMT329_113NC_396B_1105_ITALY_v03_SDR_FINAL_20180706_SDR_2K_AVC.png	85.3329849243164	
42	52.222107887268066	picture	0		88.0	40.0	/home/egter/Projects/stimuli/pictures/n02058221_203.JPEG	85.34435892105103	0.7361209392547607
42	52.944435834884644	response	0	k		40.0	/home/egter/Projects/stimuli/pictures/n02058221_203.JPEG	86.0666868686676	
43	52.95822882652283	picture	0		74.0	41.0	/home/egter/Projects/stimuli/pictures/n02268853_852.JPEG	86.08047986030579	0.6251399517059326
43	53.569424867630005	response	0	k		41.0	/home/egter/Projects/stimuli/pictures/n02268853_852.JPEG	86.69167590141296	
44	53.58336877822876	picture	0		305.0	42.0	/home/egter/Projects/stimuli/pictures/ILSVRC2012_test_00028394.JPEG	86.70561981201172	2.54856014251709
44	56.11263585090637	response	0	k		42.0	/home/egter/Projects/stimuli/pictures/ILSVRC2012_test_00028394.JPEG	89.23488688468933	
45	56.13192892074585	picture	0		104.0	43.0	/home/egter/Projects/stimuli/pictures/n02115913_3938.JPEG	89.25417995452881	0.8680319786071777
45	56.986061811447144	response	0	k		43.0	/home/egter/Projects/stimuli/pictures/n02115913_3938.JPEG	90.1083128452301	
46	56.99996089935303	picture	0		95.0	44.0	/home/egter/Projects/stimuli/pictures/n13040303_2937.JPEG	90.12221193313599	0.798753023147583
46	57.7856228351593	response	0	k		44.0	/home/egter/Projects/stimuli/pictures/n13040303_2937.JPEG	90.90787386894226	
47	57.79871392250061	picture	0		114.0	45.0	/home/egter/Projects/stimuli/pictures/R_S_production_ID_5199636.png	90.92096495628357	0.9581849575042725
47	58.744003772735596	response	0	j		45.0	/home/egter/Projects/stimuli/pictures/R_S_production_ID_5199636.png	91.86625480651855	
48	58.75689888000488	picture	0		80.0	46.0	/home/egter/Projects/stimuli/pictures/n04238763_25524.JPEG	91.87914991378784	0.6734619140625
48	59.418967962265015	response	0	k		46.0	/home/egter/Projects/stimuli/pictures/n04238763_25524.JPEG	92.54121899604797	
49	59.43036079406738	picture	0		92.0	47.0	/home/egter/Projects/stimuli/pictures/n02988304_1974.JPEG	92.55261182785034	0.7639071941375732
49	60.185630798339844	response	0	k		47.0	/home/egter/Projects/stimuli/pictures/n02988304_1974.JPEG	93.3078818321228	
50	60.194267988204956	picture	0		78.0	48.0	/home/egter/Projects/stimuli/pictures/S_yt-yf4RdPKpSVc_44.png	93.31651902198792	0.6527729034423828
50	60.83569693565369	response	0	k		48.0	/home/egter/Projects/stimuli/pictures/S_yt-yf4RdPKpSVc_44.png	93.95794796943665	
51	60.84704089164734	picture	0		104.0	49.0	/home/egter/Projects/stimuli/pictures/S_pexels-kampus-production-5991896.png	93.9692919254303	0.8683249950408936
51	61.696006774902344	response	0	j		49.0	/home/egter/Projects/stimuli/pictures/S_pexels-kampus-production-5991896.png	94.8182578086853	
52	61.71536588668823	picture	0		82.0	50.0	/home/egter/Projects/stimuli/pictures/S_ILSVRC2015_train_00743005.png	94.83761692047119	0.6871850490570068
52	62.39400100708008	response	0	k		50.0	/home/egter/Projects/stimuli/pictures/S_ILSVRC2015_train_00743005.png	95.51625204086304	
53	62.40255093574524	picture	0		88.0	51.0	/home/egter/Projects/stimuli/pictures/n03272010_549.JPEG	95.5248019695282	0.7361040115356445
53	63.12733578681946	response	0	k		51.0	/home/egter/Projects/stimuli/pictures/n03272010_549.JPEG	96.24958682060242	
54	63.138654947280884	picture	0		265.0	52.0	/home/egter/Projects/stimuli/pictures/S_yt-i3-YlGenYmk_411.png	96.26090598106384	2.2083120346069336
54	65.33559584617615	response	0	j		52.0	/home/egter/Projects/stimuli/pictures/S_yt-i3-YlGenYmk_411.png	98.4578468799591	
55	65.34696698188782	picture	0		106.0	53.0	/home/egter/Projects/stimuli/pictures/S_ILSVRC2015_train_00469000.png	98.46921801567078	0.8820679187774658
55	66.21899390220642	response	0	j		53.0	/home/egter/Projects/stimuli/pictures/S_ILSVRC2015_train_00469000.png	99.34124493598938	
56	66.22903490066528	picture	0		96.0	54.0	/home/egter/Projects/stimuli/pictures/R_S_ILSVRC2015_train_00323000.png	99.35128593444824	0.7985470294952393
56	67.01894497871399	response	0	j		54.0	/home/egter/Projects/stimuli/pictures/R_S_ILSVRC2015_train_00323000.png	100.14119601249695	
57	67.02758193016052	picture	0		124.0	55.0	/home/egter/Projects/stimuli/pictures/R_S_yt-M_ApPnq00iE_67.png	100.14983296394348	1.0346839427947998
57	68.05229187011719	response	0	j		55.0	/home/egter/Projects/stimuli/pictures/R_S_yt-M_ApPnq00iE_67.png	101.17454290390015	
58	68.06226587295532	picture	0		95.0	56.0	/home/egter/Projects/stimuli/pictures/n04462240_5054.JPEG	101.18451690673828	0.7916200160980225
58	68.84394884109497	response	0	k		56.0	/home/egter/Projects/stimuli/pictures/n04462240_5054.JPEG	101.96619987487793	
59	68.85388588905334	picture	0		304.0	57.0	/home/egter/Projects/stimuli/pictures/n02489166_9884.JPEG	101.9761369228363	2.5347559452056885
59	71.37731194496155	response	0	k		57.0	/home/egter/Projects/stimuli/pictures/n02489166_9884.JPEG	104.4995629787445	
60	71.38864183425903	picture	0		139.0	58.0	/home/egter/Projects/stimuli/pictures/R_S_yt-VinOD6g7xEc_135.png	104.51089286804199	1.1597051620483398
60	72.53560400009155	response	0	j		58.0	/home/egter/Projects/stimuli/pictures/R_S_yt-VinOD6g7xEc_135.png	105.65785503387451	
61	72.54834699630737	picture	0		117.0	59.0	/home/egter/Projects/stimuli/pictures/R_S_yt-7K5X1G7Cpls_965.png	105.67059803009033	0.9723269939422607
61	73.5037899017334	response	0	j		59.0	/home/egter/Projects/stimuli/pictures/R_S_yt-7K5X1G7Cpls_965.png	106.62604093551636	
62	73.52067399024963	picture	0		83.0	60.0	/home/egter/Projects/stimuli/pictures/S_pexels-koolshooters-7327401_1.png	106.64292502403259	0.6943869590759277
62	74.2022488117218	response	0	j		60.0	/home/egter/Projects/stimuli/pictures/S_pexels-koolshooters-7327401_1.png	107.32449984550476	
63	74.21506094932556	picture	0		102.0	61.0	/home/egter/Projects/stimuli/pictures/S_-vPHq-7BJ70_15.png	107.33731198310852	0.8470959663391113
63	75.05228590965271	response	0	j		61.0	/home/egter/Projects/stimuli/pictures/S_-vPHq-7BJ70_15.png	108.17453694343567	
64	75.06215691566467	picture	0		125.0	62.0	/home/egter/Projects/stimuli/pictures/S_comp_H005_C012_PS_v01_SDR_PS_20180925_SDR_2K_AVC.png	108.18440794944763	1.0416779518127441
64	76.09394788742065	response	0	k		62.0	/home/egter/Projects/stimuli/pictures/S_comp_H005_C012_PS_v01_SDR_PS_20180925_SDR_2K_AVC.png	109.21619892120361	
65	76.10383486747742	picture	0		100.0	63.0	/home/egter/Projects/stimuli/pictures/n01798484_11429.JPEG	109.22608590126038	0.8333230018615723
65	76.92041182518005	response	0	k		63.0	/home/egter/Projects/stimuli/pictures/n01798484_11429.JPEG	110.04266285896301	
66	76.93715786933899	picture	0		90.0	64.0	/home/egter/Projects/stimuli/pictures/S_yt-W00vtWnXgIk_73.png	110.05940890312195	0.7500250339508057
66	77.6771788597107	response	0	j		64.0	/home/egter/Projects/stimuli/pictures/S_yt-W00vtWnXgIk_73.png	110.79942989349365	
67	77.6871829032898	picture	0		83.0	65.0	/home/egter/Projects/stimuli/pictures/n12144580_31450.JPEG	110.80943393707275	0.6944470405578613
67	78.36891794204712	response	0	k		65.0	/home/egter/Projects/stimuli/pictures/n12144580_31450.JPEG	111.49116897583008	
68	78.38162994384766	picture	0		100.0	66.0	/home/egter/Projects/stimuli/pictures/n03891251_7811.JPEG	111.50388097763062	0.837195873260498
68	79.20219898223877	response	0	k		66.0	/home/egter/Projects/stimuli/pictures/n03891251_7811.JPEG	112.32445001602173	
69	79.21882581710815	picture	0		130.0	67.0	/home/egter/Projects/stimuli/pictures/n02910353_15057.JPEG	112.34107685089111	1.08640718460083
69	80.29391193389893	response	0	k		67.0	/home/egter/Projects/stimuli/pictures/n02910353_15057.JPEG	113.41616296768188	
70	80.30523300170898	picture	0		186.0	68.0	/home/egter/Projects/stimuli/pictures/n03344393_8204.JPEG	113.42748403549194	1.548569917678833
70	81.8439588546753	response	0	k		68.0	/home/egter/Projects/stimuli/pictures/n03344393_8204.JPEG	114.96620988845825	
71	81.85380291938782	picture	0		87.0	69.0	/home/egter/Projects/stimuli/pictures/n02814533_13155.JPEG	114.97605395317078	0.7294600009918213
71	82.56918382644653	response	0	k		69.0	/home/egter/Projects/stimuli/pictures/n02814533_13155.JPEG	115.69143486022949	
72	82.58326292037964	picture	0		93.0	70.0	/home/egter/Projects/stimuli/pictures/R_S_yt-7Fyu2vr7zbA_31.png	115.7055139541626	0.7774238586425781
72	83.35223388671875	response	0	j		70.0	/home/egter/Projects/stimuli/pictures/R_S_yt-7Fyu2vr7zbA_31.png	116.47448492050171	
73	83.36068677902222	picture	0		122.0	71.0	/home/egter/Projects/stimuli/pictures/S_yt-Xkx53mjgj2E_30.png	116.48293781280518	1.0209400653839111
73	84.3688600063324	response	0	j		71.0	/home/egter/Projects/stimuli/pictures/S_yt-Xkx53mjgj2E_30.png	117.49111104011536	
74	84.38162684440613	picture	0		105.0	72.0	/home/egter/Projects/stimuli/pictures/n06785654_17137.JPEG	117.50387787818909	0.8818459510803223
74	85.24388480186462	response	0	k		72.0	/home/egter/Projects/stimuli/pictures/n06785654_17137.JPEG	118.36613583564758	
75	85.26347279548645	picture	0		157.0	73.0	/home/egter/Projects/stimuli/pictures/S_yt-LB9LoYfH_EA_15.png	118.38572382926941	1.3055250644683838
75	86.56054186820984	response	0	k		73.0	/home/egter/Projects/stimuli/pictures/S_yt-LB9LoYfH_EA_15.png	119.6827929019928	
76	86.56899785995483	picture	0		141.0	74.0	/home/egter/Projects/stimuli/pictures/n01728572_2672.JPEG	119.6912488937378	1.183251142501831
76	87.73587393760681	response	0	k		74.0	/home/egter/Projects/stimuli/pictures/n01728572_2672.JPEG	120.85812497138977	
77	87.75224900245667	picture	0		202.0	75.0	/home/egter/Projects/stimuli/pictures/R_S_yt-MhW2fU45JK8_544.png	120.87450003623962	1.6848127841949463
77	89.42720484733582	response	0	k		75.0	/home/egter/Projects/stimuli/pictures/R_S_yt-MhW2fU45JK8_544.png	122.54945588111877	
78	89.43706178665161	picture	0		123.0	76.0	/home/egter/Projects/stimuli/pictures/R_S_ILSVRC2015_train_00572000.png	122.55931282043457	1.0277931690216064
78	90.45221781730652	response	0	j		76.0	/home/egter/Projects/stimuli/pictures/R_S_ILSVRC2015_train_00572000.png	123.57446885108948	
79	90.46485495567322	picture	0		357.0	77.0	/home/egter/Projects/stimuli/pictures/n02104029_5263.JPEG	123.58710598945618	2.972174882888794
79	93.42710781097412	response	0	k		77.0	/home/egter/Projects/stimuli/pictures/n02104029_5263.JPEG	126.54935884475708	
80	93.43702983856201	picture	0		75.0	78.0	/home/egter/Projects/stimuli/pictures/ILSVRC2012_test_00085201.JPEG	126.55928087234497	0.6250760555267334
80	94.05211997032166	response	0	k		78.0	/home/egter/Projects/stimuli/pictures/ILSVRC2012_test_00085201.JPEG	127.17437100410461	
81	94.06210589408875	picture	0		70.0	79.0	/home/egter/Projects/stimuli/pictures/n07590611_18149.JPEG	127.1843569278717	0.5832390785217285
81	94.63551878929138	response	0	k		79.0	/home/egter/Projects/stimuli/pictures/n07590611_18149.JPEG	127.75776982307434	
82	94.64534497261047	picture	0		138.0	80.0	/home/egter/Projects/stimuli/pictures/S_yt-M8wvzt_BMXM_173.png	127.76759600639343	1.152878999710083
82	95.78555989265442	response	0	k		80.0	/home/egter/Projects/stimuli/pictures/S_yt-M8wvzt_BMXM_173.png	128.90781092643738	
83	95.79822397232056	picture	0		100.0	81.0	/home/egter/Projects/stimuli/pictures/R_S_yt-BiBS8EO5GPc_4.png	128.92047500610352	0.8332648277282715
83	96.61883997917175	response	0	j		81.0	/home/egter/Projects/stimuli/pictures/R_S_yt-BiBS8EO5GPc_4.png	129.7410910129547	
84	96.63148880004883	picture	0		75.0	82.0	/home/egter/Projects/stimuli/pictures/n03496892_7861.JPEG	129.7537398338318	0.6250929832458496
84	97.24383497238159	response	0	k		82.0	/home/egter/Projects/stimuli/pictures/n03496892_7861.JPEG	130.36608600616455	
85	97.25658178329468	picture	0		116.0	83.0	/home/egter/Projects/stimuli/pictures/n01737021_9464.JPEG	130.37883281707764	0.9651532173156738
85	98.21049880981445	response	0	k		83.0	/home/egter/Projects/stimuli/pictures/n01737021_9464.JPEG	131.3327498435974	
86	98.22173500061035	picture	0		86.0	84.0	/home/egter/Projects/stimuli/pictures/S_yt-z16pdVTZK1o_3.png	131.3439860343933	0.7152488231658936
86	98.92032480239868	response	0	j		84.0	/home/egter/Projects/stimuli/pictures/S_yt-z16pdVTZK1o_3.png	132.04257583618164	
87	98.93698382377625	picture	0		76.0	85.0	/home/egter/Projects/stimuli/pictures/R_S_PA_A001_C007_SDR_20190717_SDR_2K_AVC.png	132.0592348575592	0.6319460868835449
87	99.56047892570496	response	0	j		85.0	/home/egter/Projects/stimuli/pictures/R_S_PA_A001_C007_SDR_20190717_SDR_2K_AVC.png	132.68272995948792	
88	99.56892991065979	picture	0		114.0	86.0	/home/egter/Projects/stimuli/pictures/S_yt-nfDPFHUDq8g_136.png	132.69118094444275	0.951369047164917
88	100.5036449432373	response	0	j		86.0	/home/egter/Projects/stimuli/pictures/S_yt-nfDPFHUDq8g_136.png	133.62589597702026	
89	100.5202989578247	picture	0		88.0	87.0	/home/egter/Projects/stimuli/pictures/n03250847_2573.JPEG	133.64254999160767	0.7361199855804443
89	101.24384784698486	response	0	k		87.0	/home/egter/Projects/stimuli/pictures/n03250847_2573.JPEG	134.36609888076782	
90	101.25641894340515	picture	0		203.0	88.0	/home/egter/Projects/stimuli/pictures/n01667114_14580.JPEG	134.3786699771881	1.6956188678741455
90	102.9288477897644	response	0	j		88.0	/home/egter/Projects/stimuli/pictures/n01667114_14580.JPEG	136.05109882354736	
91	102.9520378112793	picture	0		139.0	89.0	/home/egter/Projects/stimuli/pictures/n01914609_246.JPEG	136.07428884506226	1.1585171222686768
91	104.10214591026306	response	0	k		89.0	/home/egter/Projects/stimuli/pictures/n01914609_246.JPEG	137.22439694404602	
92	104.11055493354797	picture	0		77.0	90.0	/home/egter/Projects/stimuli/pictures/n04389033_960.JPEG	137.23280596733093	0.6459319591522217
92	104.74385094642639	response	0	k		90.0	/home/egter/Projects/stimuli/pictures/n04389033_960.JPEG	137.86610198020935	
93	104.7564868927002	picture	0		133.0	91.0	/home/egter/Projects/stimuli/pictures/S_yt-qOPJfTB1klY_1.png	137.87873792648315	1.104051113128662
93	105.85216498374939	response	0	k		91.0	/home/egter/Projects/stimuli/pictures/S_yt-qOPJfTB1klY_1.png	138.97441601753235	
94	105.86053800582886	picture	0		104.0	92.0	/home/egter/Projects/stimuli/pictures/R_S_yt-OdTWn1U1mO4_68.png	138.98278903961182	0.8680849075317383
94	106.71192193031311	response	0	j		92.0	/home/egter/Projects/stimuli/pictures/R_S_yt-OdTWn1U1mO4_68.png	139.83417296409607	
95	106.7286229133606	picture	0		104.0	93.0	/home/egter/Projects/stimuli/pictures/n03000134_1013.JPEG	139.85087394714355	0.8679969310760498
95	107.58547782897949	response	0	k		93.0	/home/egter/Projects/stimuli/pictures/n03000134_1013.JPEG	140.70772886276245	
96	107.59661984443665	picture	0		88.0	94.0	/home/egter/Projects/stimuli/pictures/n02102973_3999.JPEG	140.7188708782196	0.7365450859069824
96	108.31195998191833	response	0	k		94.0	/home/egter/Projects/stimuli/pictures/n02102973_3999.JPEG	141.4342110157013	
97	108.33316493034363	picture	0		127.0	95.0	/home/egter/Projects/stimuli/pictures/R_S_yt-83nimFMNhrM_131.png	141.4554159641266	1.0619988441467285
97	109.38537883758545	response	0	j		95.0	/home/egter/Projects/stimuli/pictures/R_S_yt-83nimFMNhrM_131.png	142.5076298713684	
98	109.39516377449036	picture	0		104.0	96.0	/home/egter/Projects/stimuli/pictures/n01980166_2403.JPEG	142.51741480827332	0.8681390285491943
98	110.25212788581848	response	0	k		96.0	/home/egter/Projects/stimuli/pictures/n01980166_2403.JPEG	143.37437891960144	
99	110.26330280303955	picture	0		73.0	97.0	/home/egter/Projects/stimuli/pictures/n03770679_25478.JPEG	143.3855538368225	0.6111631393432617
99	110.86062598228455	response	0	k		97.0	/home/egter/Projects/stimuli/pictures/n03770679_25478.JPEG	143.9828770160675	
100	110.87446594238281	picture	0		95.0	98.0	/home/egter/Projects/stimuli/pictures/n01689811_1897.JPEG	143.99671697616577	0.7985858917236328
100	111.66044187545776	response	0	k		98.0	/home/egter/Projects/stimuli/pictures/n01689811_1897.JPEG	144.78269290924072	
101	111.67305183410645	picture	0		133.0	99.0	/home/egter/Projects/stimuli/pictures/S_ILSVRC2015_train_00042002.png	144.7953028678894	1.1040689945220947
101	112.7687919139862	response	0	j		99.0	/home/egter/Projects/stimuli/pictures/S_ILSVRC2015_train_00042002.png	145.89104294776917	
102	112.77712082862854	picture	0		141.0	100.0	/home/egter/Projects/stimuli/pictures/R_S_yt-y3tyx6cZjmA_412.png	145.8993718624115	1.1806349754333496
102	113.9370379447937	response	0	j		100.0	/home/egter/Projects/stimuli/pictures/R_S_yt-y3tyx6cZjmA_412.png	147.05928897857666	
103	113.95775580406189	picture	0		98.0	101.0	/home/egter/Projects/stimuli/pictures/S_comp_GMT329_113NC_396B_1105_ITALY_v03_SDR_FINAL_20180706_SDR_2K_AVC.png	147.08000683784485	0.8193471431732178
103	114.76877689361572	response	0	j		101.0	/home/egter/Projects/stimuli/pictures/S_comp_GMT329_113NC_396B_1105_ITALY_v03_SDR_FINAL_20180706_SDR_2K_AVC.png	147.89102792739868	
104	114.77710294723511	picture	0		101.0	102.0	/home/egter/Projects/stimuli/pictures/S_G010_C026_UHD_SDR_v02_2K_AVC.png	147.89935398101807	0.8472959995269775
104	115.6105568408966	response	0	j		102.0	/home/egter/Projects/stimuli/pictures/S_G010_C026_UHD_SDR_v02_2K_AVC.png	148.73280787467957	
105	115.62439894676208	picture	0		155.0	103.0	/home/egter/Projects/stimuli/pictures/S_yt-JizcV7kYuqM_132.png	148.74664998054504	1.2985429763793945
105	116.91045498847961	response	0	k		103.0	/home/egter/Projects/stimuli/pictures/S_yt-JizcV7kYuqM_132.png	150.03270602226257	
106	116.92294192314148	picture	0		99.0	104.0	/home/egter/Projects/stimuli/pictures/n07871810_4559.JPEG	150.04519295692444	0.8268270492553711
106	117.7286229133606	response	0	k		104.0	/home/egter/Projects/stimuli/pictures/n07871810_4559.JPEG	150.85087394714355	
107	117.74976897239685	picture	0		96.0	105.0	/home/egter/Projects/stimuli/pictures/S_yt-BqJHT4K7Qf8_127.png	150.8720200061798	0.8050758838653564
107	118.5437879562378	response	0	j		105.0	/home/egter/Projects/stimuli/pictures/S_yt-BqJHT4K7Qf8_127.png	151.66603899002075	
108	118.5548448562622	picture	0		82.0	106.0	/home/egter/Projects/stimuli/pictures/n02268853_14231.JPEG	151.67709589004517	0.6805801391601562
108	119.22707390785217	response	0	k		106.0	/home/egter/Projects/stimuli/pictures/n02268853_14231.JPEG	152.34932494163513	
109	119.23542499542236	picture	0		102.0	107.0	/home/egter/Projects/stimuli/pictures/S_yt-9mWz93En7Gw_97.png	152.35767602920532	0.8542108535766602
109	120.07706785202026	response	0	j		107.0	/home/egter/Projects/stimuli/pictures/S_yt-9mWz93En7Gw_97.png	153.19931888580322	
110	120.08963584899902	picture	0		128.0	108.0	/home/egter/Projects/stimuli/pictures/S_yt-GpVFUM8K0yE_68.png	153.21188688278198	1.0623559951782227
110	121.13694095611572	response	0	k		108.0	/home/egter/Projects/stimuli/pictures/S_yt-GpVFUM8K0yE_68.png	154.25919198989868	
111	121.15199184417725	picture	0		349.0	109.0	/home/egter/Projects/stimuli/pictures/ILSVRC2012_test_00060820.JPEG	154.2742428779602	2.9098379611968994
111	124.0520567893982	response	0	j		109.0	/home/egter/Projects/stimuli/pictures/ILSVRC2012_test_00060820.JPEG	157.17430782318115	
112	124.06182980537415	picture	0		157.0	110.0	/home/egter/Projects/stimuli/pictures/n07684084_5965.JPEG	157.1840808391571	1.312425136566162
112	125.36064887046814	response	0	k		110.0	/home/egter/Projects/stimuli/pictures/n07684084_5965.JPEG	158.4828999042511	
113	125.37425494194031	picture	0		81.0	111.0	/home/egter/Projects/stimuli/pictures/n03792782_1030.JPEG	158.49650597572327	0.6805438995361328
113	126.04372477531433	response	0	k		111.0	/home/egter/Projects/stimuli/pictures/n03792782_1030.JPEG	159.1659758090973	
114	126.05479884147644	picture	0		97.0	112.0	/home/egter/Projects/stimuli/pictures/R_S_pexels-cottonbro-9063801_1.png	159.1770498752594	0.8055310249328613
114	126.85204887390137	response	0	j		112.0	/home/egter/Projects/stimuli/pictures/R_S_pexels-cottonbro-9063801_1.png	159.97429990768433	
115	126.8603298664093	picture	0		108.0	113.0	/home/egter/Projects/stimuli/pictures/n03447447_2331.JPEG	159.98258090019226	0.9027659893035889
115	127.74524688720703	response	0	k		113.0	/home/egter/Projects/stimuli/pictures/n03447447_2331.JPEG	160.86749792099	
116	127.76309585571289	picture	0		79.0	114.0	/home/egter/Projects/stimuli/pictures/S_ILSVRC2015_train_00323000.png	160.88534688949585	0.6598000526428223
116	128.41040778160095	response	0	j		114.0	/home/egter/Projects/stimuli/pictures/S_ILSVRC2015_train_00323000.png	161.5326588153839	
117	128.4228959083557	picture	0		97.0	115.0	/home/egter/Projects/stimuli/pictures/R_S_production_ID_5020960.png	161.54514694213867	0.8054440021514893
117	129.21869087219238	response	0	k		115.0	/home/egter/Projects/stimuli/pictures/R_S_production_ID_5020960.png	162.34094190597534	
118	129.2283399105072	picture	0		145.0	116.0	/home/egter/Projects/stimuli/pictures/n03498962_440.JPEG	162.35059094429016	1.208306074142456
118	130.4269278049469	response	0	k		116.0	/home/egter/Projects/stimuli/pictures/n03498962_440.JPEG	163.54917883872986	
119	130.43664598464966	picture	0		108.0	117.0	/home/egter/Projects/stimuli/pictures/S_ILSVRC2015_train_00415003.png	163.55889701843262	0.9027860164642334
119	131.3203887939453	response	0	j		117.0	/home/egter/Projects/stimuli/pictures/S_ILSVRC2015_train_00415003.png	164.44263982772827	
120	131.3394320011139	picture	0		72.0	118.0	/home/egter/Projects/stimuli/pictures/R_S_yt--jzScB82vKI_90.png	164.46168303489685	0.5972158908843994
120	131.9202527999878	response	0	j		118.0	/home/egter/Projects/stimuli/pictures/R_S_yt--jzScB82vKI_90.png	165.04250383377075	
121	131.9366478919983	picture	0		122.0	119.0	/home/egter/Projects/stimuli/pictures/n02268853_582.JPEG	165.05889892578125	1.0236380100250244
121	132.93694281578064	response	0	k		119.0	/home/egter/Projects/stimuli/pictures/n02268853_582.JPEG	166.0591938495636	
122	132.96028590202332	picture	0		127.0	120.0	/home/egter/Projects/stimuli/pictures/n02444819_23160.JPEG	166.08253693580627	1.0596730709075928
122	134.01034593582153	response	0	k		120.0	/home/egter/Projects/stimuli/pictures/n02444819_23160.JPEG	167.1325969696045	
123	134.0199589729309	picture	0		151.0	121.0	/home/egter/Projects/stimuli/pictures/n02395406_12010.JPEG	167.14221000671387	1.2569048404693604
123	135.26867294311523	response	0	k		121.0	/home/egter/Projects/stimuli/pictures/n02395406_12010.JPEG	168.3909239768982	
124	135.27686381340027	picture	0		72.0	122.0	/home/egter/Projects/stimuli/pictures/n02749479_1887.JPEG	168.39911484718323	0.6084849834442139
124	135.86867380142212	response	0	k		122.0	/home/egter/Projects/stimuli/pictures/n02749479_1887.JPEG	168.99092483520508	
125	135.88534879684448	picture	0		108.0	123.0	/home/egter/Projects/stimuli/pictures/n02105162_2318.JPEG	169.00759983062744	0.9057300090789795
125	136.77696180343628	response	0	k		123.0	/home/egter/Projects/stimuli/pictures/n02105162_2318.JPEG	169.89921283721924	
126	136.79107880592346	picture	0		102.0	124.0	/home/egter/Projects/stimuli/pictures/S_yt-g_CLzrCYHoc_7.png	169.91332983970642	0.853888988494873
126	137.63533687591553	response	0	j		124.0	/home/egter/Projects/stimuli/pictures/S_yt-g_CLzrCYHoc_7.png	170.7575879096985	
127	137.64496779441833	picture	0		100.0	125.0	/home/egter/Projects/stimuli/pictures/S_ILSVRC2015_train_00756000.png	170.7672188282013	0.8332850933074951
127	138.4686098098755	response	0	k		125.0	/home/egter/Projects/stimuli/pictures/S_ILSVRC2015_train_00756000.png	171.59086084365845	
128	138.47825288772583	picture	0		102.0	126.0	/home/egter/Projects/stimuli/pictures/R_S_yt-b7JAHOeiTqU_44.png	171.6005039215088	0.8541750907897949
128	139.31865692138672	response	0	j		126.0	/home/egter/Projects/stimuli/pictures/R_S_yt-b7JAHOeiTqU_44.png	172.44090795516968	
129	139.33242797851562	picture	0		199.0	127.0	/home/egter/Projects/stimuli/pictures/R_S_ILSVRC2015_train_00405001.png	172.45467901229858	1.6667189598083496
129	140.98533987998962	response	0	k		127.0	/home/egter/Projects/stimuli/pictures/R_S_ILSVRC2015_train_00405001.png	174.10759091377258	
130	140.99914693832397	picture	0		128.0	128.0	/home/egter/Projects/stimuli/pictures/S_yt-XRQ_LSGGr3Y_712.png	174.12139797210693	1.0693888664245605
130	142.06024599075317	response	0	j		128.0	/home/egter/Projects/stimuli/pictures/S_yt-XRQ_LSGGr3Y_712.png	175.18249702453613	
131	142.06853580474854	picture	0		124.0	129.0	/home/egter/Projects/stimuli/pictures/S_yt-d5jBQ-LOW2I_17.png	175.1907868385315	1.0346741676330566
131	143.09361696243286	response	0	k		129.0	/home/egter/Projects/stimuli/pictures/S_yt-d5jBQ-LOW2I_17.png	176.21586799621582	
132	143.1032099723816	picture	0		77.0	130.0	/home/egter/Projects/stimuli/pictures/n02727426_10584.JPEG	176.22546100616455	0.6459648609161377
132	143.72841382026672	response	0	k		130.0	/home/egter/Projects/stimuli/pictures/n02727426_10584.JPEG	176.85066485404968	
133	143.74917483329773	picture	0		174.0	131.0	/home/egter/Projects/stimuli/pictures/S_yt-kA0ybjmoiMc_284.png	176.8714258670807	1.4585001468658447
133	145.19363379478455	response	0	k		131.0	/home/egter/Projects/stimuli/pictures/S_yt-kA0ybjmoiMc_284.png	178.3158848285675	
134	145.20767498016357	picture	0		91.0	132.0	/home/egter/Projects/stimuli/pictures/n03372029_21950.JPEG	178.32992601394653	0.7635829448699951
134	145.9603259563446	response	0	k		132.0	/home/egter/Projects/stimuli/pictures/n03372029_21950.JPEG	179.08257699012756	
135	145.97125792503357	picture	0		97.0	133.0	/home/egter/Projects/stimuli/pictures/S_ILSVRC2015_train_00074011.png	179.09350895881653	0.8055648803710938
135	146.7685899734497	response	0	k		133.0	/home/egter/Projects/stimuli/pictures/S_ILSVRC2015_train_00074011.png	179.89084100723267	
136	146.77682280540466	picture	0		95.0	134.0	/home/egter/Projects/stimuli/pictures/R_S_yt-V4Oosy-ZtGY_193.png	179.89907383918762	0.7916810512542725
136	147.5534269809723	response	0	k		134.0	/home/egter/Projects/stimuli/pictures/R_S_yt-V4Oosy-ZtGY_193.png	180.67567801475525	
137	147.56850385665894	picture	0		118.0	135.0	/home/egter/Projects/stimuli/pictures/S_yt-cu4AVz6o2eg_24.png	180.6907548904419	0.9860470294952393
137	148.53685188293457	response	0	j		135.0	/home/egter/Projects/stimuli/pictures/S_yt-cu4AVz6o2eg_24.png	181.65910291671753	
138	148.55455088615417	picture	0		173.0	136.0	/home/egter/Projects/stimuli/pictures/R_S_comp_GMT329_113NC_396B_1105_CHINA_v04_SDR_FINAL_20180706_F900F2700_SDR_2K_AVC.png	181.67680191993713	1.4445099830627441
138	149.9852738380432	response	0	j		136.0	/home/egter/Projects/stimuli/pictures/R_S_comp_GMT329_113NC_396B_1105_CHINA_v04_SDR_FINAL_20180706_F900F2700_SDR_2K_AVC.png	183.10752487182617	
139	149.99906086921692	picture	0		82.0	137.0	/home/egter/Projects/stimuli/pictures/R_S_production_ID_4154238.png	183.12131190299988	0.6874229907989502
139	150.6769199371338	response	0	j		137.0	/home/egter/Projects/stimuli/pictures/R_S_production_ID_4154238.png	183.79917097091675	
140	150.68648386001587	picture	0		84.0	138.0	/home/egter/Projects/stimuli/pictures/n09256479_671.JPEG	183.80873489379883	0.7013599872589111
140	151.37693190574646	response	0	k		138.0	/home/egter/Projects/stimuli/pictures/n09256479_671.JPEG	184.49918293952942	
141	151.38784384727478	picture	0		247.0	139.0	/home/egter/Projects/stimuli/pictures/R_S_yt-PaxmJhMoP3w_87.png	184.51009488105774	2.0555851459503174
141	153.43525886535645	response	0	k		139.0	/home/egter/Projects/stimuli/pictures/R_S_yt-PaxmJhMoP3w_87.png	186.5575098991394	
142	153.4434289932251	picture	0		96.0	140.0	/home/egter/Projects/stimuli/pictures/n13044778_857.JPEG	186.56568002700806	0.8060028553009033
142	154.2352488040924	response	0	k		140.0	/home/egter/Projects/stimuli/pictures/n13044778_857.JPEG	187.35749983787537	
143	154.249431848526	picture	0		75.0	141.0	/home/egter/Projects/stimuli/pictures/S_Pz_NXxhQCJc_70.png	187.37168288230896	0.6315889358520508
143	154.86858677864075	response	0	j		141.0	/home/egter/Projects/stimuli/pictures/S_Pz_NXxhQCJc_70.png	187.9908378124237	
144	154.88102078437805	picture	0		79.0	142.0	/home/egter/Projects/stimuli/pictures/S_yt-rY_ra5Tb9XU_51.png	188.003271818161	0.6600630283355713
144	155.52692294120789	response	0	j		142.0	/home/egter/Projects/stimuli/pictures/S_yt-rY_ra5Tb9XU_51.png	188.64917397499084	
145	155.54108381271362	picture	0		85.0	143.0	/home/egter/Projects/stimuli/pictures/n02006656_11360.JPEG	188.66333484649658	0.7147550582885742
145	156.2436158657074	response	0	k		143.0	/home/egter/Projects/stimuli/pictures/n02006656_11360.JPEG	189.36586689949036	
146	156.2558388710022	picture	0		110.0	144.0	/home/egter/Projects/stimuli/pictures/n04336792_7448.JPEG	189.37808990478516	0.9166960716247559
146	157.16025400161743	response	0	k		144.0	/home/egter/Projects/stimuli/pictures/n04336792_7448.JPEG	190.2825050354004	
147	157.17253494262695	picture	0		84.0	145.0	/home/egter/Projects/stimuli/pictures/R_S_yt-ak01CHYgEOs_1383.png	190.2947859764099	0.7014198303222656
147	157.8602409362793	response	0	j		145.0	/home/egter/Projects/stimuli/pictures/R_S_yt-ak01CHYgEOs_1383.png	190.98249197006226	
148	157.87395477294922	picture	0		74.0	146.0	/home/egter/Projects/stimuli/pictures/n04081281_1024.JPEG	190.99620580673218	0.6249771118164062
148	158.48517179489136	response	0	k		146.0	/home/egter/Projects/stimuli/pictures/n04081281_1024.JPEG	191.60742282867432	
149	158.49893188476562	picture	0		77.0	147.0	/home/egter/Projects/stimuli/pictures/n01644373_10937.JPEG	191.62118291854858	0.6457839012145996
149	159.12829184532166	response	0	k		147.0	/home/egter/Projects/stimuli/pictures/n01644373_10937.JPEG	192.25054287910461	
150	159.14471578598022	picture	0		86.0	148.0	/home/egter/Projects/stimuli/pictures/S_yt-49uKOBs2wLQ_45.png	192.26696681976318	0.7153530120849609
150	159.8518888950348	response	0	k		148.0	/home/egter/Projects/stimuli/pictures/S_yt-49uKOBs2wLQ_45.png	192.97413992881775	
151	159.86006879806519	picture	0		85.0	149.0	/home/egter/Projects/stimuli/pictures/R_S_comp_A007_C017_01156B_v02_SDR_PS_20180925_SDR_2K_AVC.png	192.98231983184814	0.7083711624145508
151	160.55343794822693	response	0	k		149.0	/home/egter/Projects/stimuli/pictures/R_S_comp_A007_C017_01156B_v02_SDR_PS_20180925_SDR_2K_AVC.png	193.6756889820099	
152	160.56843996047974	picture	0		78.0	150.0	/home/egter/Projects/stimuli/pictures/R_S_yt-z16pdVTZK1o_3.png	193.6906909942627	0.6526129245758057
152	161.21036982536316	response	0	j		150.0	/home/egter/Projects/stimuli/pictures/R_S_yt-z16pdVTZK1o_3.png	194.33262085914612	
153	161.22105288505554	picture	0		97.0	151.0	/home/egter/Projects/stimuli/pictures/n01855672_5132.JPEG	194.3433039188385	0.8057200908660889
153	162.01853799819946	response	0	k		151.0	/home/egter/Projects/stimuli/pictures/n01855672_5132.JPEG	195.14078903198242	
154	162.02677297592163	picture	0		123.0	152.0	/home/egter/Projects/stimuli/pictures/n02417914_11649.JPEG	195.1490240097046	1.0276398658752441
154	163.04355478286743	response	0	k		152.0	/home/egter/Projects/stimuli/pictures/n02417914_11649.JPEG	196.1658058166504	
155	163.05441284179688	picture	0		96.0	153.0	/home/egter/Projects/stimuli/pictures/S_yt-M_ApPnq00iE_67.png	196.17666387557983	0.7985999584197998
155	163.84355282783508	response	0	j		153.0	/home/egter/Projects/stimuli/pictures/S_yt-M_ApPnq00iE_67.png	196.96580386161804	
156	163.85301280021667	picture	0		85.0	154.0	/home/egter/Projects/stimuli/pictures/n09399592_24758.JPEG	196.97526383399963	0.7083470821380615
156	164.5450828075409	response	0	k		154.0	/home/egter/Projects/stimuli/pictures/n09399592_24758.JPEG	197.66733384132385	
157	164.56135988235474	picture	0		73.0	155.0	/home/egter/Projects/stimuli/pictures/S_yt-GWlwb2QsxIA_48.png	197.6836109161377	0.6111938953399658
157	165.15341782569885	response	0	j		155.0	/home/egter/Projects/stimuli/pictures/S_yt-GWlwb2QsxIA_48.png	198.2756688594818	
158	165.1725537776947	picture	0		121.0	156.0	/home/egter/Projects/stimuli/pictures/S_yt-fk-z6WCvjjA_3.png	198.29480481147766	1.006829023361206
158	166.16172790527344	response	0	j		156.0	/home/egter/Projects/stimuli/pictures/S_yt-fk-z6WCvjjA_3.png	199.2839789390564	
159	166.1793828010559	picture	0		111.0	157.0	/home/egter/Projects/stimuli/pictures/R_S_yt-QD74nNliDvI_10.png	199.30163383483887	0.9235889911651611
159	167.09353280067444	response	0	j		157.0	/home/egter/Projects/stimuli/pictures/R_S_yt-QD74nNliDvI_10.png	200.2157838344574	
160	167.10297179222107	picture	0		105.0	158.0	/home/egter/Projects/stimuli/pictures/R_S_ILSVRC2015_train_00485001.png	200.22522282600403	0.8749971389770508
160	167.96858477592468	response	0	k		158.0	/home/egter/Projects/stimuli/pictures/R_S_ILSVRC2015_train_00485001.png	201.09083580970764	
161	167.97796893119812	picture	0		119.0	159.0	/home/egter/Projects/stimuli/pictures/n03272010_3346.JPEG	201.10021996498108	0.9930598735809326
161	168.9533019065857	response	0	k		159.0	/home/egter/Projects/stimuli/pictures/n03272010_3346.JPEG	202.07555294036865	
162	168.97102880477905	picture	0		208.0	160.0	/home/egter/Projects/stimuli/pictures/R_S_production_ID_4325516.png	202.093279838562	1.7361280918121338
162	170.69352078437805	response	0	j		160.0	/home/egter/Projects/stimuli/pictures/R_S_production_ID_4325516.png	203.815771818161	
163	170.7071568965912	picture	0		261.0	161.0	/home/egter/Projects/stimuli/pictures/n04462240_17744.JPEG	203.82940793037415	2.180509090423584
163	172.87683200836182	response	0	k		161.0	/home/egter/Projects/stimuli/pictures/n04462240_17744.JPEG	205.99908304214478	
164	172.88766598701477	picture	0		91.0	162.0	/home/egter/Projects/stimuli/pictures/n02086079_15865.JPEG	206.00991702079773	0.756889820098877
164	173.63515090942383	response	0	k		162.0	/home/egter/Projects/stimuli/pictures/n02086079_15865.JPEG	206.7574019432068	
165	173.64455580711365	picture	0		76.0	163.0	/home/egter/Projects/stimuli/pictures/S_PA_A001_C007_SDR_20190717_SDR_2K_AVC.png	206.7668068408966	0.6321721076965332
165	174.268492937088	response	0	j		163.0	/home/egter/Projects/stimuli/pictures/S_PA_A001_C007_SDR_20190717_SDR_2K_AVC.png	207.39074397087097	
166	174.27672791481018	picture	0		91.0	164.0	/home/egter/Projects/stimuli/pictures/R_S_yt-R5wOWRtRmrI_36.png	207.39897894859314	0.7637009620666504
166	175.02681589126587	response	0	j		164.0	/home/egter/Projects/stimuli/pictures/R_S_yt-R5wOWRtRmrI_36.png	208.14906692504883	
167	175.04042887687683	picture	0		79.0	165.0	/home/egter/Projects/stimuli/pictures/S_yt-cONX-OgVhHU_1821.png	208.1626799106598	0.6667180061340332
167	175.6934459209442	response	0	k		165.0	/home/egter/Projects/stimuli/pictures/S_yt-cONX-OgVhHU_1821.png	208.81569695472717	
168	175.70714688301086	picture	0		62.0	166.0	/home/egter/Projects/stimuli/pictures/n03661043_10100.JPEG	208.82939791679382	0.5207068920135498
168	176.21847677230835	response	0	k		166.0	/home/egter/Projects/stimuli/pictures/n03661043_10100.JPEG	209.3407278060913	
169	176.2278537750244	picture	0		110.0	167.0	/home/egter/Projects/stimuli/pictures/R_S_yt-ujTY1igjc3E_2.png	209.35010480880737	0.9166982173919678
169	177.1351637840271	response	0	j		167.0	/home/egter/Projects/stimuli/pictures/R_S_yt-ujTY1igjc3E_2.png	210.25741481781006	
170	177.14455199241638	picture	0		65.0	168.0	/home/egter/Projects/stimuli/pictures/S_yt-V4ptcLegCiw_161.png	210.26680302619934	0.5416829586029053
170	177.67680382728577	response	0	k		168.0	/home/egter/Projects/stimuli/pictures/S_yt-V4ptcLegCiw_161.png	210.79905486106873	
171	177.6862349510193	picture	0		153.0	169.0	/home/egter/Projects/stimuli/pictures/S_yt-nwa8jP9fa1Y_767.png	210.80848598480225	1.2777960300445557
171	178.9450809955597	response	0	k		169.0	/home/egter/Projects/stimuli/pictures/S_yt-nwa8jP9fa1Y_767.png	212.06733202934265	
172	178.96403098106384	picture	0		68.0	170.0	/home/egter/Projects/stimuli/pictures/n03372029_57793.JPEG	212.0862820148468	0.562614917755127
172	179.5184519290924	response	0	k		170.0	/home/egter/Projects/stimuli/pictures/n03372029_57793.JPEG	212.64070296287537	
173	179.52664589881897	picture	0		85.0	171.0	/home/egter/Projects/stimuli/pictures/R_S_ILSVRC2015_train_00584001.png	212.64889693260193	0.7084980010986328
173	180.22680497169495	response	0	j		171.0	/home/egter/Projects/stimuli/pictures/R_S_ILSVRC2015_train_00584001.png	213.3490560054779	
174	180.2351438999176	picture	0		81.0	172.0	/home/egter/Projects/stimuli/pictures/R_S_ILSVRC2015_train_00756000.png	213.35739493370056	0.6802840232849121
174	180.90180897712708	response	0	j		172.0	/home/egter/Projects/stimuli/pictures/R_S_ILSVRC2015_train_00756000.png	214.02406001091003	
175	180.91542792320251	picture	0		91.0	173.0	/home/egter/Projects/stimuli/pictures/n02493509_15152.JPEG	214.03767895698547	0.7637920379638672
175	181.66848397254944	response	0	k		173.0	/home/egter/Projects/stimuli/pictures/n02493509_15152.JPEG	214.7907350063324	
176	181.67921996116638	picture	0		109.0	174.0	/home/egter/Projects/stimuli/pictures/n03240683_7128.JPEG	214.80147099494934	0.909782886505127
176	182.56992888450623	response	0	k		174.0	/home/egter/Projects/stimuli/pictures/n03240683_7128.JPEG	215.69217991828918	
177	182.5890028476715	picture	0		88.0	175.0	/home/egter/Projects/stimuli/pictures/n02105056_951.JPEG	215.71125388145447	0.7293050289154053
177	183.3101007938385	response	0	k		175.0	/home/egter/Projects/stimuli/pictures/n02105056_951.JPEG	216.43235182762146	
178	183.3183078765869	picture	0		84.0	176.0	/home/egter/Projects/stimuli/pictures/n03042490_124.JPEG	216.44055891036987	0.7011899948120117
178	184.01016283035278	response	0	k		176.0	/home/egter/Projects/stimuli/pictures/n03042490_124.JPEG	217.13241386413574	
179	184.01949787139893	picture	0		157.0	177.0	/home/egter/Projects/stimuli/pictures/S_yt-qlR-TG7veA4_17.png	217.14174890518188	1.3125529289245605
179	185.318452835083	response	0	j		177.0	/home/egter/Projects/stimuli/pictures/S_yt-qlR-TG7veA4_17.png	218.44070386886597	
180	185.3320508003235	picture	0		115.0	178.0	/home/egter/Projects/stimuli/pictures/n01910747_9384.JPEG	218.45430183410645	0.9653210639953613
180	186.28510880470276	response	0	k		178.0	/home/egter/Projects/stimuli/pictures/n01910747_9384.JPEG	219.40735983848572	
181	186.29737186431885	picture	0		76.0	179.0	/home/egter/Projects/stimuli/pictures/R_S_Pz_NXxhQCJc_70.png	219.4196228981018	0.6318709850311279
181	186.9184467792511	response	0	j		179.0	/home/egter/Projects/stimuli/pictures/R_S_Pz_NXxhQCJc_70.png	220.04069781303406	
182	186.92924284934998	stim	0		1717.0			220.05149388313293	14.3056800365448
182	187.61847591400146	response	0	k				220.74072694778442	
