trial_nr	onset	event_type	phase	response	nr_frames	picture_index	picture_file	onset_abs	duration
0	0.015510797500610352	stim	0		199.0			34.56992697715759	1.6624791622161865
0	1.17972993850708	response	0	j				35.73414611816406	
0	1.6613869667053223	response	0	space				36.215803146362305	
2	1.6779899597167969	picture	0		183.0	0.0	/home/egter/Projects/stimuli/pictures/n02655020_2268.JPEG	36.23240613937378	1.5260329246520996
2	3.1881258487701416	response	0	k		0.0	/home/egter/Projects/stimuli/pictures/n02655020_2268.JPEG	37.742542028427124	
3	3.2040228843688965	picture	0		104.0	1.0	/home/egter/Projects/stimuli/pictures/R_S_Pexels_Videos_2795731_1.png	37.75843906402588	0.8677690029144287
3	4.061431884765625	response	0	j		1.0	/home/egter/Projects/stimuli/pictures/R_S_Pexels_Videos_2795731_1.png	38.61584806442261	
4	4.071791887283325	picture	0		66.0	2.0	/home/egter/Projects/stimuli/pictures/R_S_yt-nQu-PAXBv2g_5.png	38.62620806694031	0.5485799312591553
4	4.604517936706543	response	0	j		2.0	/home/egter/Projects/stimuli/pictures/R_S_yt-nQu-PAXBv2g_5.png	39.158934116363525	
5	4.6203718185424805	picture	0		97.0	3.0	/home/egter/Projects/stimuli/pictures/n03776460_16537.JPEG	39.17478799819946	0.812589168548584
5	5.419902801513672	response	0	k		3.0	/home/egter/Projects/stimuli/pictures/n03776460_16537.JPEG	39.974318981170654	
6	5.4329609870910645	picture	0		90.0	4.0	/home/egter/Projects/stimuli/pictures/R_S_yt-VrEuTDQxtD0_226.png	39.98737716674805	0.7568600177764893
6	6.178020000457764	response	0	j		4.0	/home/egter/Projects/stimuli/pictures/R_S_yt-VrEuTDQxtD0_226.png	40.732436180114746	
7	6.189821004867554	picture	0		200.0	5.0	/home/egter/Projects/stimuli/pictures/S_comp_HK_H004_C008_PSNK_v19_SDR_PS_20180914_SDR_2K_AVC.png	40.744237184524536	1.666651964187622
7	7.84463095664978	response	0	j		5.0	/home/egter/Projects/stimuli/pictures/S_comp_HK_H004_C008_PSNK_v19_SDR_PS_20180914_SDR_2K_AVC.png	42.39904713630676	
8	7.856472969055176	picture	0		118.0	6.0	/home/egter/Projects/stimuli/pictures/n02484975_6984.JPEG	42.41088914871216	0.9797170162200928
8	8.828001976013184	response	0	k		6.0	/home/egter/Projects/stimuli/pictures/n02484975_6984.JPEG	43.382418155670166	
9	8.836189985275269	picture	0		84.0	7.0	/home/egter/Projects/stimuli/pictures/R_S_yt-BG-G7m5wLZ4_94.png	43.39060616493225	0.700875997543335
9	9.528064012527466	response	0	j		7.0	/home/egter/Projects/stimuli/pictures/R_S_yt-BG-G7m5wLZ4_94.png	44.08248019218445	
10	9.537065982818604	picture	0		72.0	8.0	/home/egter/Projects/stimuli/pictures/R_S_yt-mmvWYAttrIw_2.png	44.091482162475586	0.6042919158935547
10	10.12801480293274	response	0	j		8.0	/home/egter/Projects/stimuli/pictures/R_S_yt-mmvWYAttrIw_2.png	44.68243098258972	
11	10.141357898712158	picture	0		79.0	9.0	/home/egter/Projects/stimuli/pictures/n02814533_8025.JPEG	44.69577407836914	0.6665480136871338
11	10.788756847381592	response	0	k		9.0	/home/egter/Projects/stimuli/pictures/n02814533_8025.JPEG	45.343173027038574	
12	10.807905912399292	picture	0		84.0	10.0	/home/egter/Projects/stimuli/pictures/S_yt-AbJBxqEYoMg_27.png	45.362322092056274	0.7083039283752441
12	11.503199815750122	response	0	j		10.0	/home/egter/Projects/stimuli/pictures/S_yt-AbJBxqEYoMg_27.png	46.057615995407104	
13	11.516209840774536	picture	0		85.0	11.0	/home/egter/Projects/stimuli/pictures/S_yt-XbpTfwsSXc8_124.png	46.07062602043152	0.7153291702270508
13	12.219703912734985	response	0	k		11.0	/home/egter/Projects/stimuli/pictures/S_yt-XbpTfwsSXc8_124.png	46.77412009239197	
14	12.231539011001587	picture	0		87.0	12.0	/home/egter/Projects/stimuli/pictures/S_yt-WhQMF3WM0Ig_29.png	46.78595519065857	0.722153902053833
14	12.944700002670288	response	0	k		12.0	/home/egter/Projects/stimuli/pictures/S_yt-WhQMF3WM0Ig_29.png	47.49911618232727	
15	12.95369291305542	picture	0		113.0	13.0	/home/egter/Projects/stimuli/pictures/n01728920_2783.JPEG	47.5081090927124	0.9444150924682617
15	13.88643193244934	response	0	k		13.0	/home/egter/Projects/stimuli/pictures/n01728920_2783.JPEG	48.44084811210632	
16	13.898108005523682	picture	0		138.0	14.0	/home/egter/Projects/stimuli/pictures/S_yt--4P7Xab3nPw_304.png	48.452524185180664	1.1463799476623535
16	15.036328792572021	response	0	k		14.0	/home/egter/Projects/stimuli/pictures/S_yt--4P7Xab3nPw_304.png	49.590744972229004	
17	15.044487953186035	picture	0		93.0	15.0	/home/egter/Projects/stimuli/pictures/S_yt-ChAhBD9LrsU_223.png	49.59890413284302	0.7772090435028076
17	15.804518938064575	response	0	k		15.0	/home/egter/Projects/stimuli/pictures/S_yt-ChAhBD9LrsU_223.png	50.35893511772156	
18	15.821696996688843	picture	0		71.0	16.0	/home/egter/Projects/stimuli/pictures/n02793495_14509.JPEG	50.376113176345825	0.5903358459472656
18	16.396212816238403	response	0	k		16.0	/home/egter/Projects/stimuli/pictures/n02793495_14509.JPEG	50.950628995895386	
19	16.41203284263611	picture	0		77.0	17.0	/home/egter/Projects/stimuli/pictures/S_yt-93qaq7zWjyo_246.png	50.96644902229309	0.645794153213501
19	17.044641971588135	response	0	k		17.0	/home/egter/Projects/stimuli/pictures/S_yt-93qaq7zWjyo_246.png	51.59905815124512	
20	17.05782699584961	picture	0		95.0	18.0	/home/egter/Projects/stimuli/pictures/S_yt-yPl8LcgSMjo_32.png	51.61224317550659	0.7987279891967773
20	17.84461283683777	response	0	j		18.0	/home/egter/Projects/stimuli/pictures/S_yt-yPl8LcgSMjo_32.png	52.39902901649475	
21	17.856554985046387	picture	0		108.0	19.0	/home/egter/Projects/stimuli/pictures/n01632458_2682.JPEG	52.41097116470337	0.8962838649749756
21	18.744670867919922	response	0	k		19.0	/home/egter/Projects/stimuli/pictures/n01632458_2682.JPEG	53.299087047576904	
22	18.752838850021362	picture	0		96.0	20.0	/home/egter/Projects/stimuli/pictures/n01687978_657.JPEG	53.307255029678345	0.8052120208740234
22	19.544639825820923	response	0	k		20.0	/home/egter/Projects/stimuli/pictures/n01687978_657.JPEG	54.099056005477905	
23	19.558050870895386	picture	0		72.0	21.0	/home/egter/Projects/stimuli/pictures/S_yt-wz2opOBqClo_14.png	54.11246705055237	0.603877067565918
23	20.152992963790894	response	0	j		21.0	/home/egter/Projects/stimuli/pictures/S_yt-wz2opOBqClo_14.png	54.707409143447876	
24	20.161927938461304	picture	0		89.0	22.0	/home/egter/Projects/stimuli/pictures/R_S_yt-qjg6kRxNXK8_217.png	54.716344118118286	0.7430498600006104
24	20.89466094970703	response	0	j		22.0	/home/egter/Projects/stimuli/pictures/R_S_yt-qjg6kRxNXK8_217.png	55.449077129364014	
25	20.904977798461914	picture	0		68.0	23.0	/home/egter/Projects/stimuli/pictures/R_S_yt-WhQMF3WM0Ig_29.png	55.4593939781189	0.5695152282714844
25	21.461232900619507	response	0	j		23.0	/home/egter/Projects/stimuli/pictures/R_S_yt-WhQMF3WM0Ig_29.png	56.01564908027649	
26	21.4744930267334	picture	0		90.0	24.0	/home/egter/Projects/stimuli/pictures/S_pexels-c-technical-6753390.png	56.02890920639038	0.7568659782409668
26	22.212800979614258	response	0	j		24.0	/home/egter/Projects/stimuli/pictures/S_pexels-c-technical-6753390.png	56.76721715927124	
27	22.231359004974365	picture	0		92.0	25.0	/home/egter/Projects/stimuli/pictures/R_S_pexels-anthony-shkraba-production-8135459.png	56.78577518463135	0.7638678550720215
27	22.98629379272461	response	0	j		25.0	/home/egter/Projects/stimuli/pictures/R_S_pexels-anthony-shkraba-production-8135459.png	57.54070997238159	
28	22.995226860046387	picture	0		143.0	26.0	/home/egter/Projects/stimuli/pictures/n01798484_10194.JPEG	57.54964303970337	1.1944820880889893
28	24.17795181274414	response	0	j		26.0	/home/egter/Projects/stimuli/pictures/n01798484_10194.JPEG	58.73236799240112	
29	24.189708948135376	picture	0		191.0	27.0	/home/egter/Projects/stimuli/pictures/R_S_pexels-mart-production-7698911.png	58.74412512779236	1.5902268886566162
29	25.76959800720215	response	0	j		27.0	/home/egter/Projects/stimuli/pictures/R_S_pexels-mart-production-7698911.png	60.32401418685913	
30	25.779935836791992	picture	0		92.0	28.0	/home/egter/Projects/stimuli/pictures/R_S_comp_N013_C004_PS_v01_SDR_PS_20180925_F1970F7193_SDR_2K_AVC.png	60.334352016448975	0.7729160785675049
30	26.53702998161316	response	0	j		28.0	/home/egter/Projects/stimuli/pictures/R_S_comp_N013_C004_PS_v01_SDR_PS_20180925_F1970F7193_SDR_2K_AVC.png	61.09144616127014	
31	26.552851915359497	picture	0		107.0	29.0	/home/egter/Projects/stimuli/pictures/R_S_ILSVRC2015_train_00723001.png	61.10726809501648	0.8937211036682129
31	27.436282873153687	response	0	k		29.0	/home/egter/Projects/stimuli/pictures/R_S_ILSVRC2015_train_00723001.png	61.99069905281067	
32	27.44657301902771	picture	0		101.0	30.0	/home/egter/Projects/stimuli/pictures/n04371774_1713.JPEG	62.00098919868469	0.8402888774871826
32	28.27804183959961	response	0	k		30.0	/home/egter/Projects/stimuli/pictures/n04371774_1713.JPEG	62.83245801925659	
33	28.286861896514893	picture	0		88.0	31.0	/home/egter/Projects/stimuli/pictures/R_S_yt-_HuBzj8EPBc_62.png	62.841278076171875	0.7360849380493164
33	29.004364013671875	response	0	j		31.0	/home/egter/Projects/stimuli/pictures/R_S_yt-_HuBzj8EPBc_62.png	63.55878019332886	
34	29.02294683456421	picture	0		80.0	32.0	/home/egter/Projects/stimuli/pictures/n01986214_12921.JPEG	63.57736301422119	0.6666750907897949
34	29.67788791656494	response	0	k		32.0	/home/egter/Projects/stimuli/pictures/n01986214_12921.JPEG	64.23230409622192	
35	29.689621925354004	picture	0		72.0	33.0	/home/egter/Projects/stimuli/pictures/R_S_yt-Fm97IY0Z2LU_110.png	64.24403810501099	0.5972468852996826
35	30.277889013290405	response	0	j		33.0	/home/egter/Projects/stimuli/pictures/R_S_yt-Fm97IY0Z2LU_110.png	64.83230519294739	
36	30.286868810653687	picture	0		73.0	34.0	/home/egter/Projects/stimuli/pictures/n02264363_17016.JPEG	64.84128499031067	0.6110711097717285
36	30.886225938796997	response	0	k		34.0	/home/egter/Projects/stimuli/pictures/n02264363_17016.JPEG	65.44064211845398	
37	30.897939920425415	picture	0		77.0	35.0	/home/egter/Projects/stimuli/pictures/n09399592_30371.JPEG	65.4523561000824	0.6388750076293945
37	31.527915954589844	response	0	j		35.0	/home/egter/Projects/stimuli/pictures/n09399592_30371.JPEG	66.08233213424683	
38	31.53681492805481	picture	0		90.0	36.0	/home/egter/Projects/stimuli/pictures/n04335435_985.JPEG	66.09123110771179	0.7499699592590332
38	32.277867794036865	response	0	k		36.0	/home/egter/Projects/stimuli/pictures/n04335435_985.JPEG	66.83228397369385	
39	32.28678488731384	picture	0		100.0	37.0	/home/egter/Projects/stimuli/pictures/S_yt-OEKvI2pFleg_118.png	66.84120106697083	0.833359956741333
39	33.11117696762085	response	0	k		37.0	/home/egter/Projects/stimuli/pictures/S_yt-OEKvI2pFleg_118.png	67.66559314727783	
40	33.120144844055176	picture	0		85.0	38.0	/home/egter/Projects/stimuli/pictures/R_S_m-aeoYPMqfg_185.png	67.67456102371216	0.7083430290222168
40	33.812697887420654	response	0	k		38.0	/home/egter/Projects/stimuli/pictures/R_S_m-aeoYPMqfg_185.png	68.36711406707764	
41	33.82848787307739	picture	0		148.0	39.0	/home/egter/Projects/stimuli/pictures/R_S_pexels-laker-5793000.png	68.38290405273438	1.2361021041870117
41	35.05285382270813	response	0	j		39.0	/home/egter/Projects/stimuli/pictures/R_S_pexels-laker-5793000.png	69.60727000236511	
42	35.064589977264404	picture	0		98.0	40.0	/home/egter/Projects/stimuli/pictures/ILSVRC2012_val_00033636.JPEG	69.61900615692139	0.8215489387512207
42	35.8702290058136	response	0	k		40.0	/home/egter/Projects/stimuli/pictures/ILSVRC2012_val_00033636.JPEG	70.42464518547058	
43	35.886138916015625	picture	0		123.0	41.0	/home/egter/Projects/stimuli/pictures/R_S_yt-2XRGfGc0q44_37.png	70.44055509567261	1.02565598487854
43	36.90285801887512	response	0	k		41.0	/home/egter/Projects/stimuli/pictures/R_S_yt-2XRGfGc0q44_37.png	71.4572741985321	
44	36.911794900894165	picture	0		174.0	42.0	/home/egter/Projects/stimuli/pictures/n01924916_3514.JPEG	71.46621108055115	1.451442003250122
44	38.35281300544739	response	0	k		42.0	/home/egter/Projects/stimuli/pictures/n01924916_3514.JPEG	72.90722918510437	
45	38.36323690414429	picture	0		205.0	43.0	/home/egter/Projects/stimuli/pictures/S_yt-v1PFy5uHQp0_14.png	72.91765308380127	1.7082440853118896
45	40.06126284599304	response	0	k		43.0	/home/egter/Projects/stimuli/pictures/S_yt-v1PFy5uHQp0_14.png	74.61567902565002	
46	40.07148098945618	picture	0		71.0	44.0	/home/egter/Projects/stimuli/pictures/n03223299_2243.JPEG	74.62589716911316	0.5902149677276611
46	40.65283679962158	response	0	k		44.0	/home/egter/Projects/stimuli/pictures/n03223299_2243.JPEG	75.20725297927856	
47	40.66169595718384	picture	0		64.0	45.0	/home/egter/Projects/stimuli/pictures/n01984695_35188.JPEG	75.21611213684082	0.5347509384155273
47	41.18618297576904	response	0	k		45.0	/home/egter/Projects/stimuli/pictures/n01984695_35188.JPEG	75.74059915542603	
48	41.196446895599365	picture	0		105.0	46.0	/home/egter/Projects/stimuli/pictures/n03967562_1345.JPEG	75.75086307525635	0.8750379085540771
48	42.06123900413513	response	0	k		46.0	/home/egter/Projects/stimuli/pictures/n03967562_1345.JPEG	76.61565518379211	
49	42.07148480415344	picture	0		98.0	47.0	/home/egter/Projects/stimuli/pictures/S_yt-aVKIgTiQp9A_29.png	76.62590098381042	0.8194291591644287
49	42.87784385681152	response	0	k		47.0	/home/egter/Projects/stimuli/pictures/S_yt-aVKIgTiQp9A_29.png	77.4322600364685	
50	42.89091396331787	picture	0		86.0	48.0	/home/egter/Projects/stimuli/pictures/S_yt-3NMDWrZr1Z4_255.png	77.44533014297485	0.7152068614959717
50	43.594544887542725	response	0	j		48.0	/home/egter/Projects/stimuli/pictures/S_yt-3NMDWrZr1Z4_255.png	78.1489610671997	
51	43.60612082481384	picture	0		70.0	49.0	/home/egter/Projects/stimuli/pictures/n02264363_448.JPEG	78.16053700447083	0.5833690166473389
51	44.17782187461853	response	0	k		49.0	/home/egter/Projects/stimuli/pictures/n02264363_448.JPEG	78.73223805427551	
52	44.18948984146118	picture	0		101.0	50.0	/home/egter/Projects/stimuli/pictures/S_yt-loe3Rqs8TEM_46.png	78.74390602111816	0.8403410911560059
52	45.01270580291748	response	0	k		50.0	/home/egter/Projects/stimuli/pictures/S_yt-loe3Rqs8TEM_46.png	79.56712198257446	
53	45.02983093261719	picture	0		118.0	51.0	/home/egter/Projects/stimuli/pictures/n07717556_11398.JPEG	79.58424711227417	0.9860730171203613
53	45.99677896499634	response	0	k		51.0	/home/egter/Projects/stimuli/pictures/n07717556_11398.JPEG	80.55119514465332	
54	46.01590394973755	picture	0		92.0	52.0	/home/egter/Projects/stimuli/pictures/S_yt-yJmHtBFyhH4_15.png	80.57032012939453	0.7708089351654053
54	46.77782893180847	response	0	j		52.0	/home/egter/Projects/stimuli/pictures/S_yt-yJmHtBFyhH4_15.png	81.33224511146545	
55	46.786712884902954	picture	0		88.0	53.0	/home/egter/Projects/stimuli/pictures/n02134084_2844.JPEG	81.34112906455994	0.7360711097717285
55	47.51115393638611	response	0	k		53.0	/home/egter/Projects/stimuli/pictures/n02134084_2844.JPEG	82.06557011604309	
56	47.52278399467468	picture	0		87.0	54.0	/home/egter/Projects/stimuli/pictures/n03930630_23262.JPEG	82.07720017433167	0.7222108840942383
56	48.229296922683716	response	0	k		54.0	/home/egter/Projects/stimuli/pictures/n03930630_23262.JPEG	82.7837131023407	
57	48.24499487876892	picture	0		96.0	55.0	/home/egter/Projects/stimuli/pictures/R_S_yt-2l6VKd94eAI_151.png	82.7994110584259	0.8056490421295166
57	49.0367488861084	response	0	j		55.0	/home/egter/Projects/stimuli/pictures/R_S_yt-2l6VKd94eAI_151.png	83.59116506576538	
58	49.05064392089844	picture	0		84.0	56.0	/home/egter/Projects/stimuli/pictures/n01950731_1335.JPEG	83.60506010055542	0.7152159214019775
58	49.745118856430054	response	0	k		56.0	/home/egter/Projects/stimuli/pictures/n01950731_1335.JPEG	84.29953503608704	
59	49.765859842300415	picture	0		80.0	57.0	/home/egter/Projects/stimuli/pictures/n03791053_292.JPEG	84.3202760219574	0.7086460590362549
59	50.421069860458374	response	0	k		57.0	/home/egter/Projects/stimuli/pictures/n03791053_292.JPEG	84.97548604011536	
60	50.47450590133667	picture	0		130.0	58.0	/home/egter/Projects/stimuli/pictures/R_S_yt-kA0ybjmoiMc_284.png	85.02892208099365	1.0948779582977295
60	51.55283784866333	response	0	j		58.0	/home/egter/Projects/stimuli/pictures/R_S_yt-kA0ybjmoiMc_284.png	86.10725402832031	
61	51.5693838596344	picture	0		124.0	59.0	/home/egter/Projects/stimuli/pictures/n04005630_26150.JPEG	86.12380003929138	1.0367751121520996
61	52.59459090232849	response	0	k		59.0	/home/egter/Projects/stimuli/pictures/n04005630_26150.JPEG	87.14900708198547	
62	52.6061589717865	picture	0		80.0	60.0	/home/egter/Projects/stimuli/pictures/S_yt-N1DlS9B00G0_23.png	87.16057515144348	0.6736199855804443
62	53.26115798950195	response	0	j		60.0	/home/egter/Projects/stimuli/pictures/S_yt-N1DlS9B00G0_23.png	87.81557416915894	
63	53.27977895736694	picture	0		65.0	61.0	/home/egter/Projects/stimuli/pictures/n02974003_2666.JPEG	87.83419513702393	0.548516035079956
63	53.804274797439575	response	0	k		61.0	/home/egter/Projects/stimuli/pictures/n02974003_2666.JPEG	88.35869097709656	
64	53.8282949924469	picture	0		69.0	62.0	/home/egter/Projects/stimuli/pictures/n02607072_208.JPEG	88.38271117210388	0.5827429294586182
64	54.39446401596069	response	0	k		62.0	/home/egter/Projects/stimuli/pictures/n02607072_208.JPEG	88.94888019561768	
65	54.41103792190552	picture	0		75.0	63.0	/home/egter/Projects/stimuli/pictures/n02835271_10202.JPEG	88.9654541015625	0.6256370544433594
65	55.02107787132263	response	0	k		63.0	/home/egter/Projects/stimuli/pictures/n02835271_10202.JPEG	89.57549405097961	
66	55.03667497634888	picture	0		59.0	64.0	/home/egter/Projects/stimuli/pictures/n13054560_4503.JPEG	89.59109115600586	0.4929978847503662
66	55.51941895484924	response	0	k		64.0	/home/egter/Projects/stimuli/pictures/n13054560_4503.JPEG	90.07383513450623	
67	55.52967286109924	picture	0		145.0	65.0	/home/egter/Projects/stimuli/pictures/S_yt-PK-Eip9wFr0_24.png	90.08408904075623	1.2083289623260498
67	56.72778582572937	response	0	k		65.0	/home/egter/Projects/stimuli/pictures/S_yt-PK-Eip9wFr0_24.png	91.28220200538635	
68	56.73800182342529	picture	0		74.0	66.0	/home/egter/Projects/stimuli/pictures/S_yt-IdhdCU1HQ30_50.png	91.29241800308228	0.6179990768432617
68	57.34442400932312	response	0	k		66.0	/home/egter/Projects/stimuli/pictures/S_yt-IdhdCU1HQ30_50.png	91.8988401889801	
69	57.356000900268555	picture	0		64.0	67.0	/home/egter/Projects/stimuli/pictures/n03697007_7401.JPEG	91.91041707992554	0.5348210334777832
69	57.87774395942688	response	0	k		67.0	/home/egter/Projects/stimuli/pictures/n03697007_7401.JPEG	92.43216013908386	
70	57.89082193374634	picture	0		73.0	68.0	/home/egter/Projects/stimuli/pictures/S_yt-kawmL3oVw8c_2.png	92.44523811340332	0.6180410385131836
70	58.495070934295654	response	0	k		68.0	/home/egter/Projects/stimuli/pictures/S_yt-kawmL3oVw8c_2.png	93.04948711395264	
71	58.50886297225952	picture	0		58.0	69.0	/home/egter/Projects/stimuli/pictures/S_yt-s0lPpn3TAEo_90.png	93.0632791519165	0.48605895042419434
71	58.9861319065094	response	0	k		69.0	/home/egter/Projects/stimuli/pictures/S_yt-s0lPpn3TAEo_90.png	93.54054808616638	
72	58.994921922683716	picture	0		140.0	70.0	/home/egter/Projects/stimuli/pictures/n01980166_2746.JPEG	93.5493381023407	1.1666460037231445
72	60.152753829956055	response	0	k		70.0	/home/egter/Projects/stimuli/pictures/n01980166_2746.JPEG	94.70717000961304	
73	60.16156792640686	picture	0		146.0	71.0	/home/egter/Projects/stimuli/pictures/n03895866_20384.JPEG	94.71598410606384	1.2244770526885986
73	61.370025873184204	response	0	j		71.0	/home/egter/Projects/stimuli/pictures/n03895866_20384.JPEG	95.92444205284119	
74	61.38604497909546	picture	0		91.0	72.0	/home/egter/Projects/stimuli/pictures/R_S_yt-OFbbvxTLrtM_132.png	95.94046115875244	0.7615740299224854
74	62.13611888885498	response	0	j		72.0	/home/egter/Projects/stimuli/pictures/R_S_yt-OFbbvxTLrtM_132.png	96.69053506851196	
75	62.147619009017944	picture	0		78.0	73.0	/home/egter/Projects/stimuli/pictures/R_S_video_inspire_alabama_montgomery_countryside_00007.png	96.70203518867493	0.6530687808990479
75	62.786783933639526	response	0	j		73.0	/home/egter/Projects/stimuli/pictures/R_S_video_inspire_alabama_montgomery_countryside_00007.png	97.34120011329651	
76	62.80068778991699	picture	0		91.0	74.0	/home/egter/Projects/stimuli/pictures/S_yt-y6JsUW0eSW8_32.png	97.35510396957397	0.7636311054229736
76	63.55276679992676	response	0	j		74.0	/home/egter/Projects/stimuli/pictures/S_yt-y6JsUW0eSW8_32.png	98.10718297958374	
77	63.564318895339966	picture	0		110.0	75.0	/home/egter/Projects/stimuli/pictures/R_S_yt-y6JsUW0eSW8_32.png	98.11873507499695	0.9166760444641113
77	64.46945285797119	response	0	j		75.0	/home/egter/Projects/stimuli/pictures/R_S_yt-y6JsUW0eSW8_32.png	99.02386903762817	
78	64.48099493980408	picture	0		141.0	76.0	/home/egter/Projects/stimuli/pictures/R_S_comp_N003_C006_PS_v01_SDR_PS_20180925_SDR_2K_AVC.png	99.03541111946106	1.1735539436340332
78	65.64447379112244	response	0	j		76.0	/home/egter/Projects/stimuli/pictures/R_S_comp_N003_C006_PS_v01_SDR_PS_20180925_SDR_2K_AVC.png	100.19888997077942	
79	65.65454888343811	picture	0		77.0	77.0	/home/egter/Projects/stimuli/pictures/n09246464_16480.JPEG	100.20896506309509	0.6481180191040039
79	66.2866759300232	response	0	k		77.0	/home/egter/Projects/stimuli/pictures/n09246464_16480.JPEG	100.84109210968018	
80	66.30266690254211	picture	0		89.0	78.0	/home/egter/Projects/stimuli/pictures/S_bing-www_dailymotion_com_video_x64hzm7_8.png	100.8570830821991	0.7477850914001465
80	67.02938985824585	response	0	j		78.0	/home/egter/Projects/stimuli/pictures/S_bing-www_dailymotion_com_video_x64hzm7_8.png	101.58380603790283	
81	67.05045199394226	picture	0		96.0	79.0	/home/egter/Projects/stimuli/pictures/n03417042_24980.JPEG	101.60486817359924	0.805452823638916
81	67.84442687034607	response	0	k		79.0	/home/egter/Projects/stimuli/pictures/n03417042_24980.JPEG	102.39884305000305	
82	67.85590481758118	picture	0		78.0	80.0	/home/egter/Projects/stimuli/pictures/n03042490_2350.JPEG	102.41032099723816	0.6528711318969727
82	68.494961977005	response	0	k		80.0	/home/egter/Projects/stimuli/pictures/n03042490_2350.JPEG	103.04937815666199	
83	68.50877594947815	picture	0		144.0	81.0	/home/egter/Projects/stimuli/pictures/S_yt-hjqjWlzPRjY_76.png	103.06319212913513	1.208258867263794
83	69.70333099365234	response	0	k		81.0	/home/egter/Projects/stimuli/pictures/S_yt-hjqjWlzPRjY_76.png	104.25774717330933	
84	69.71703481674194	picture	0		87.0	82.0	/home/egter/Projects/stimuli/pictures/S_pexels-cottonbro-6788024.png	104.27145099639893	0.7291522026062012
84	70.42938780784607	response	0	j		82.0	/home/egter/Projects/stimuli/pictures/S_pexels-cottonbro-6788024.png	104.98380398750305	
85	70.44618701934814	picture	0		81.0	83.0	/home/egter/Projects/stimuli/pictures/R_S_pexels-marcus-aurelius-6785014.png	105.00060319900513	0.6737139225006104
85	71.11108994483948	response	0	j		83.0	/home/egter/Projects/stimuli/pictures/R_S_pexels-marcus-aurelius-6785014.png	105.66550612449646	
86	71.11990094184875	picture	0		89.0	84.0	/home/egter/Projects/stimuli/pictures/n01675722_7072.JPEG	105.67431712150574	0.7429399490356445
86	71.8527398109436	response	0	k		84.0	/home/egter/Projects/stimuli/pictures/n01675722_7072.JPEG	106.40715599060059	
87	71.8628408908844	picture	0		77.0	85.0	/home/egter/Projects/stimuli/pictures/R_S_wc-Mf8SQpviaD6D_17.png	106.41725707054138	0.6459619998931885
87	72.4950168132782	response	0	j		85.0	/home/egter/Projects/stimuli/pictures/R_S_wc-Mf8SQpviaD6D_17.png	107.04943299293518	
88	72.50880289077759	picture	0		70.0	86.0	/home/egter/Projects/stimuli/pictures/S_wc-_W9iefBXz8bi_23.png	107.06321907043457	0.5901730060577393
88	73.08601880073547	response	0	j		86.0	/home/egter/Projects/stimuli/pictures/S_wc-_W9iefBXz8bi_23.png	107.64043498039246	
89	73.09897589683533	picture	0		55.0	87.0	/home/egter/Projects/stimuli/pictures/n02279972_3612.JPEG	107.65339207649231	0.46526193618774414
89	73.55270600318909	response	0	j		87.0	/home/egter/Projects/stimuli/pictures/n02279972_3612.JPEG	108.10712218284607	
90	73.56423783302307	picture	0		71.0	88.0	/home/egter/Projects/stimuli/pictures/n02116738_7924.JPEG	108.11865401268005	0.5902459621429443
90	74.1443920135498	response	0	k		88.0	/home/egter/Projects/stimuli/pictures/n02116738_7924.JPEG	108.69880819320679	
91	74.15448379516602	picture	0		81.0	89.0	/home/egter/Projects/stimuli/pictures/S_comp_LA_A006_C004_v01_SDR_FINAL_PS_20180730_SDR_2K_AVC.png	108.708899974823	0.6735532283782959
91	74.81250286102295	response	0	k		89.0	/home/egter/Projects/stimuli/pictures/S_comp_LA_A006_C004_v01_SDR_FINAL_PS_20180730_SDR_2K_AVC.png	109.36691904067993	
92	74.82803702354431	picture	0		74.0	90.0	/home/egter/Projects/stimuli/pictures/S_video_inspire_alabama_montgomery_countryside_00007.png	109.3824532032013	0.6181018352508545
92	75.42925882339478	response	0	j		90.0	/home/egter/Projects/stimuli/pictures/S_video_inspire_alabama_montgomery_countryside_00007.png	109.98367500305176	
93	75.44613885879517	picture	0		69.0	91.0	/home/egter/Projects/stimuli/pictures/n01737021_15317.JPEG	110.00055503845215	0.5814900398254395
93	76.01109480857849	response	0	k		91.0	/home/egter/Projects/stimuli/pictures/n01737021_15317.JPEG	110.56551098823547	
94	76.0276288986206	picture	0		70.0	92.0	/home/egter/Projects/stimuli/pictures/R_S_yt-ycfVJyrFgB4_15.png	110.58204507827759	0.5851500034332275
94	76.6027398109436	response	0	j		92.0	/home/egter/Projects/stimuli/pictures/R_S_yt-ycfVJyrFgB4_15.png	111.15715599060059	
95	76.61277890205383	picture	0		79.0	93.0	/home/egter/Projects/stimuli/pictures/S_OdxWh1oU8e8_1.png	111.16719508171082	0.6597189903259277
95	77.26109790802002	response	0	j		93.0	/home/egter/Projects/stimuli/pictures/S_OdxWh1oU8e8_1.png	111.815514087677	
96	77.27249789237976	picture	0		67.0	94.0	/home/egter/Projects/stimuli/pictures/n03733281_32047.JPEG	111.82691407203674	0.5556180477142334
96	77.81261801719666	response	0	k		94.0	/home/egter/Projects/stimuli/pictures/n03733281_32047.JPEG	112.36703419685364	
97	77.828115940094	picture	0		89.0	95.0	/home/egter/Projects/stimuli/pictures/n01753488_18261.JPEG	112.38253211975098	0.7429909706115723
97	78.56106090545654	response	0	k		95.0	/home/egter/Projects/stimuli/pictures/n01753488_18261.JPEG	113.11547708511353	
98	78.57110691070557	picture	0		75.0	96.0	/home/egter/Projects/stimuli/pictures/n06794110_2840.JPEG	113.12552309036255	0.6250050067901611
98	79.18604898452759	response	0	k		96.0	/home/egter/Projects/stimuli/pictures/n06794110_2840.JPEG	113.74046516418457	
99	79.19611191749573	picture	0		76.0	97.0	/home/egter/Projects/stimuli/pictures/R_S_yt-K7viJXt9vX8_143.png	113.75052809715271	0.6319599151611328
99	79.81248688697815	response	0	j		97.0	/home/egter/Projects/stimuli/pictures/R_S_yt-K7viJXt9vX8_143.png	114.36690306663513	
100	79.82807183265686	picture	0		88.0	98.0	/home/egter/Projects/stimuli/pictures/R_S_yt-3E02UEHdoZ4_752.png	114.38248801231384	0.7360560894012451
100	80.55272698402405	response	0	j		98.0	/home/egter/Projects/stimuli/pictures/R_S_yt-3E02UEHdoZ4_752.png	115.10714316368103	
101	80.5641279220581	picture	0		69.0	99.0	/home/egter/Projects/stimuli/pictures/R_S_yt-s-J3C6e5A3Q_18.png	115.11854410171509	0.5801329612731934
101	81.12768888473511	response	0	j		99.0	/home/egter/Projects/stimuli/pictures/R_S_yt-s-J3C6e5A3Q_18.png	115.68210506439209	
102	81.1442608833313	picture	0		66.0	100.0	/home/egter/Projects/stimuli/pictures/n12620546_18861.JPEG	115.69867706298828	0.5518231391906738
102	81.68601489067078	response	0	k		100.0	/home/egter/Projects/stimuli/pictures/n12620546_18861.JPEG	116.24043107032776	
103	81.69608402252197	picture	0		85.0	101.0	/home/egter/Projects/stimuli/pictures/R_S_yt-MSdNCUWOp4o_4.png	116.25050020217896	0.7083039283752441
103	82.3943419456482	response	0	j		101.0	/home/egter/Projects/stimuli/pictures/R_S_yt-MSdNCUWOp4o_4.png	116.94875812530518	
104	82.40438795089722	picture	0		70.0	102.0	/home/egter/Projects/stimuli/pictures/S_comp_GMT329_113NC_396B_1105_CHINA_v04_SDR_FINAL_20180706_F900F2700_SDR_2K_AVC.png	116.9588041305542	0.5833799839019775
104	82.97764182090759	response	0	j		102.0	/home/egter/Projects/stimuli/pictures/S_comp_GMT329_113NC_396B_1105_CHINA_v04_SDR_FINAL_20180706_F900F2700_SDR_2K_AVC.png	117.53205800056458	
105	82.9877679347992	picture	0		100.0	103.0	/home/egter/Projects/stimuli/pictures/n02951358_20960.JPEG	117.54218411445618	0.8333029747009277
105	83.81104183197021	response	0	k		103.0	/home/egter/Projects/stimuli/pictures/n02951358_20960.JPEG	118.3654580116272	
106	83.82107090950012	picture	0		80.0	104.0	/home/egter/Projects/stimuli/pictures/n03447721_6651.JPEG	118.3754870891571	0.6666619777679443
106	84.47771286964417	response	0	k		104.0	/home/egter/Projects/stimuli/pictures/n03447721_6651.JPEG	119.03212904930115	
107	84.48773288726807	picture	0		96.0	105.0	/home/egter/Projects/stimuli/pictures/R_S_ILSVRC2015_train_00274003.png	119.04214906692505	0.7986359596252441
107	85.27767896652222	response	0	j		105.0	/home/egter/Projects/stimuli/pictures/R_S_ILSVRC2015_train_00274003.png	119.8320951461792	
108	85.28636884689331	picture	0		60.0	106.0	/home/egter/Projects/stimuli/pictures/n01632458_798.JPEG	119.8407850265503	0.4999680519104004
108	85.77770495414734	response	0	k		106.0	/home/egter/Projects/stimuli/pictures/n01632458_798.JPEG	120.33212113380432	
109	85.78633689880371	picture	0		99.0	107.0	/home/egter/Projects/stimuli/pictures/R_S_ILSVRC2015_train_00479001.png	120.3407530784607	0.8263719081878662
109	86.60265302658081	response	0	j		107.0	/home/egter/Projects/stimuli/pictures/R_S_ILSVRC2015_train_00479001.png	121.1570692062378	
110	86.61270880699158	picture	0		73.0	108.0	/home/egter/Projects/stimuli/pictures/n02114712_22469.JPEG	121.16712498664856	0.6111371517181396
110	87.2046549320221	response	0	k		108.0	/home/egter/Projects/stimuli/pictures/n02114712_22469.JPEG	121.75907111167908	
111	87.22384595870972	picture	0		69.0	109.0	/home/egter/Projects/stimuli/pictures/n02268853_2189.JPEG	121.7782621383667	0.5833790302276611
111	87.79428100585938	response	0	k		109.0	/home/egter/Projects/stimuli/pictures/n02268853_2189.JPEG	122.34869718551636	
112	87.80722498893738	picture	0		80.0	110.0	/home/egter/Projects/stimuli/pictures/S_ILSVRC2015_train_00723001.png	122.36164116859436	0.6734828948974609
112	88.46933102607727	response	0	j		110.0	/home/egter/Projects/stimuli/pictures/S_ILSVRC2015_train_00723001.png	123.02374720573425	
113	88.48070788383484	picture	0		44.0	111.0	/home/egter/Projects/stimuli/pictures/R_S_yt-7e6Z9QQieAk_183.png	123.03512406349182	0.36830806732177734
113	88.82963800430298	response	0	k		111.0	/home/egter/Projects/stimuli/pictures/R_S_yt-7e6Z9QQieAk_183.png	123.38405418395996	
114	88.84901595115662	picture	0		72.0	112.0	/home/egter/Projects/stimuli/pictures/n01914609_785.JPEG	123.4034321308136	0.6039390563964844
114	89.4377338886261	response	0	k		112.0	/home/egter/Projects/stimuli/pictures/n01914609_785.JPEG	123.99215006828308	
115	89.4529550075531	picture	0		73.0	113.0	/home/egter/Projects/stimuli/pictures/R_S_yt-ayx4rU9bJrU_179.png	124.00737118721008	0.6111769676208496
115	90.04589080810547	response	0	j		113.0	/home/egter/Projects/stimuli/pictures/R_S_yt-ayx4rU9bJrU_179.png	124.60030698776245	
116	90.06413197517395	picture	0		76.0	114.0	/home/egter/Projects/stimuli/pictures/S_pexels-cottonbro-6844209.png	124.61854815483093	0.6318628787994385
116	90.68602895736694	response	0	j		114.0	/home/egter/Projects/stimuli/pictures/S_pexels-cottonbro-6844209.png	125.24044513702393	
117	90.69599485397339	picture	0		95.0	115.0	/home/egter/Projects/stimuli/pictures/R_S_ILSVRC2015_train_00444000.png	125.25041103363037	0.7916300296783447
117	91.47767186164856	response	0	j		115.0	/home/egter/Projects/stimuli/pictures/R_S_ILSVRC2015_train_00444000.png	126.03208804130554	
118	91.48762488365173	picture	0		85.0	116.0	/home/egter/Projects/stimuli/pictures/R_S_flickr-csgzs-8144064966_10.png	126.04204106330872	0.7083799839019775
118	92.1860249042511	response	0	j		116.0	/home/egter/Projects/stimuli/pictures/R_S_flickr-csgzs-8144064966_10.png	126.74044108390808	
119	92.19600486755371	picture	0		81.0	117.0	/home/egter/Projects/stimuli/pictures/n02056570_381.JPEG	126.7504210472107	0.6735429763793945
119	92.86099195480347	response	0	k		117.0	/home/egter/Projects/stimuli/pictures/n02056570_381.JPEG	127.41540813446045	
120	92.8695478439331	picture	0		85.0	118.0	/home/egter/Projects/stimuli/pictures/S_yt-c6kLumgTX54_7.png	127.42396402359009	0.708420991897583
120	93.5693290233612	response	0	j		118.0	/home/egter/Projects/stimuli/pictures/S_yt-c6kLumgTX54_7.png	128.1237452030182	
121	93.57796883583069	picture	0		79.0	119.0	/home/egter/Projects/stimuli/pictures/R_S_pexels-pavel-danilyuk-8057714.png	128.13238501548767	0.6596620082855225
121	94.22079181671143	response	0	j		119.0	/home/egter/Projects/stimuli/pictures/R_S_pexels-pavel-danilyuk-8057714.png	128.7752079963684	
122	94.23763084411621	picture	0		71.0	120.0	/home/egter/Projects/stimuli/pictures/n01910747_9384.JPEG	128.7920470237732	0.590264081954956
122	94.81931900978088	response	0	k		120.0	/home/egter/Projects/stimuli/pictures/n01910747_9384.JPEG	129.37373518943787	
123	94.82789492607117	picture	0		118.0	121.0	/home/egter/Projects/stimuli/pictures/n01877812_11873.JPEG	129.38231110572815	0.9861490726470947
123	95.80265879631042	response	0	k		121.0	/home/egter/Projects/stimuli/pictures/n01877812_11873.JPEG	130.3570749759674	
124	95.81404399871826	picture	0		196.0	122.0	/home/egter/Projects/stimuli/pictures/R_S_Person_Going_Through_A_Bible.png	130.36846017837524	1.63189697265625
124	97.42915391921997	response	0	k		122.0	/home/egter/Projects/stimuli/pictures/R_S_Person_Going_Through_A_Bible.png	131.98357009887695	
125	97.44594097137451	picture	0		63.0	123.0	/home/egter/Projects/stimuli/pictures/S_PA_A010_C007_SDR_20190717_SDR_2K_AVC.png	132.0003571510315	0.5279018878936768
125	97.9609158039093	response	0	k		123.0	/home/egter/Projects/stimuli/pictures/S_PA_A010_C007_SDR_20190717_SDR_2K_AVC.png	132.51533198356628	
126	97.97384285926819	picture	0		81.0	124.0	/home/egter/Projects/stimuli/pictures/R_S_yt-w_e3sxIzepA_115.png	132.52825903892517	0.6805081367492676
126	98.63748693466187	response	0	j		124.0	/home/egter/Projects/stimuli/pictures/R_S_yt-w_e3sxIzepA_115.png	133.19190311431885	
127	98.65435099601746	picture	0		78.0	125.0	/home/egter/Projects/stimuli/pictures/R_S_ILSVRC2015_train_00324001.png	133.20876717567444	0.6527888774871826
127	99.29429292678833	response	0	k		125.0	/home/egter/Projects/stimuli/pictures/R_S_ILSVRC2015_train_00324001.png	133.8487091064453	
128	99.30713987350464	picture	0		86.0	126.0	/home/egter/Projects/stimuli/pictures/n03933933_11785.JPEG	133.86155605316162	0.7151250839233398
128	100.01091980934143	response	0	k		126.0	/home/egter/Projects/stimuli/pictures/n03933933_11785.JPEG	134.5653359889984	
129	100.02226495742798	picture	0		62.0	127.0	/home/egter/Projects/stimuli/pictures/ILSVRC2012_test_00069056.JPEG	134.57668113708496	0.5139200687408447
129	100.52762699127197	response	0	k		127.0	/home/egter/Projects/stimuli/pictures/ILSVRC2012_test_00069056.JPEG	135.08204317092896	
130	100.53618502616882	picture	0		65.0	128.0	/home/egter/Projects/stimuli/pictures/S_yt--koo4FOfZE0_86.png	135.0906012058258	0.5416839122772217
130	101.06926798820496	response	0	j		128.0	/home/egter/Projects/stimuli/pictures/S_yt--koo4FOfZE0_86.png	135.62368416786194	
131	101.07786893844604	picture	0		61.0	129.0	/home/egter/Projects/stimuli/pictures/n07716906_10696.JPEG	135.63228511810303	0.5141520500183105
131	101.57797288894653	response	0	k		129.0	/home/egter/Projects/stimuli/pictures/n07716906_10696.JPEG	136.13238906860352	
132	101.59202098846436	picture	0		82.0	130.0	/home/egter/Projects/stimuli/pictures/R_S_ILSVRC2015_train_00762000.png	136.14643716812134	0.6872048377990723
132	102.26929497718811	response	0	j		130.0	/home/egter/Projects/stimuli/pictures/R_S_ILSVRC2015_train_00762000.png	136.8237111568451	
133	102.27922582626343	picture	0		68.0	131.0	/home/egter/Projects/stimuli/pictures/R_S_yt-xrPrnzvWUkY_7.png	136.8336420059204	0.5694630146026611
133	102.82954692840576	response	0	j		131.0	/home/egter/Projects/stimuli/pictures/R_S_yt-xrPrnzvWUkY_7.png	137.38396310806274	
134	102.84868884086609	picture	0		75.0	132.0	/home/egter/Projects/stimuli/pictures/n01675722_10934.JPEG	137.40310502052307	0.6250710487365723
134	103.46091794967651	response	0	k		132.0	/home/egter/Projects/stimuli/pictures/n01675722_10934.JPEG	138.0153341293335	
135	103.47375988960266	picture	0		85.0	133.0	/home/egter/Projects/stimuli/pictures/S_yt-0Sph9-EZQRA_35.png	138.02817606925964	0.7152700424194336
135	104.17761898040771	response	0	k		133.0	/home/egter/Projects/stimuli/pictures/S_yt-0Sph9-EZQRA_35.png	138.7320351600647	
136	104.1890299320221	picture	0		84.0	134.0	/home/egter/Projects/stimuli/pictures/R_S_yt-hvuC_2YXsTQ_73.png	138.74344611167908	0.7012639045715332
136	104.87771797180176	response	0	j		134.0	/home/egter/Projects/stimuli/pictures/R_S_yt-hvuC_2YXsTQ_73.png	139.43213415145874	
137	104.89029383659363	picture	0		60.0	135.0	/home/egter/Projects/stimuli/pictures/n04389033_58437.JPEG	139.4447100162506	0.5000309944152832
137	105.3775098323822	response	0	k		135.0	/home/egter/Projects/stimuli/pictures/n04389033_58437.JPEG	139.93192601203918	
138	105.39032483100891	picture	0		87.0	136.0	/home/egter/Projects/stimuli/pictures/R_S_P005_C002_UHD_SDR_2K_AVC.png	139.9447410106659	0.7291719913482666
138	106.11090183258057	response	0	j		136.0	/home/egter/Projects/stimuli/pictures/R_S_P005_C002_UHD_SDR_2K_AVC.png	140.66531801223755	
139	106.11949682235718	picture	0		79.0	137.0	/home/egter/Projects/stimuli/pictures/S_yt-9Z9-RT-ysEE_85.png	140.67391300201416	0.6596941947937012
139	106.7692699432373	response	0	j		137.0	/home/egter/Projects/stimuli/pictures/S_yt-9Z9-RT-ysEE_85.png	141.3236861228943	
140	106.77919101715088	picture	0		72.0	138.0	/home/egter/Projects/stimuli/pictures/R_S_pexels-cottonbro-6844209.png	141.33360719680786	0.6044027805328369
140	107.36960697174072	response	0	j		138.0	/home/egter/Projects/stimuli/pictures/R_S_pexels-cottonbro-6844209.png	141.9240231513977	
141	107.38359379768372	picture	0		38.0	139.0	/home/egter/Projects/stimuli/pictures/S_yt-Xegmd8whqBs_230.png	141.9380099773407	0.3191862106323242
141	107.69424200057983	response	0	j		139.0	/home/egter/Projects/stimuli/pictures/S_yt-Xegmd8whqBs_230.png	142.24865818023682	
142	107.70278000831604	picture	0		51.0	140.0	/home/egter/Projects/stimuli/pictures/R_S_g201_WH_D004_L014_SDR_20191031_SDR_2K_AVC.png	142.25719618797302	0.43058300018310547
142	108.11965584754944	response	0	j		140.0	/home/egter/Projects/stimuli/pictures/R_S_g201_WH_D004_L014_SDR_20191031_SDR_2K_AVC.png	142.67407202720642	
143	108.13336300849915	picture	0		72.0	141.0	/home/egter/Projects/stimuli/pictures/R_S_OdxWh1oU8e8_1.png	142.68777918815613	0.6041297912597656
143	108.72770500183105	response	0	j		141.0	/home/egter/Projects/stimuli/pictures/R_S_OdxWh1oU8e8_1.png	143.28212118148804	
144	108.73749279975891	picture	0		84.0	142.0	/home/egter/Projects/stimuli/pictures/S_yt-sdsSoU6XvU4_77.png	143.2919089794159	0.7014272212982178
144	109.42756199836731	response	0	k		142.0	/home/egter/Projects/stimuli/pictures/S_yt-sdsSoU6XvU4_77.png	143.9819781780243	
145	109.43892002105713	picture	0		77.0	143.0	/home/egter/Projects/stimuli/pictures/n09332890_51000.JPEG	143.9933362007141	0.6388459205627441
145	110.06918287277222	response	0	k		143.0	/home/egter/Projects/stimuli/pictures/n09332890_51000.JPEG	144.6235990524292	
146	110.07776594161987	picture	0		70.0	144.0	/home/egter/Projects/stimuli/pictures/S_ILSVRC2015_train_00682000.png	144.63218212127686	0.5832920074462891
146	110.64576387405396	response	0	j		144.0	/home/egter/Projects/stimuli/pictures/S_ILSVRC2015_train_00682000.png	145.20018005371094	
147	110.66105794906616	picture	0		98.0	145.0	/home/egter/Projects/stimuli/pictures/R_S_yt-Gokv9ZtV6zo_70.png	145.21547412872314	0.8194708824157715
147	111.46925687789917	response	0	j		145.0	/home/egter/Projects/stimuli/pictures/R_S_yt-Gokv9ZtV6zo_70.png	146.02367305755615	
148	111.48052883148193	picture	0		61.0	146.0	/home/egter/Projects/stimuli/pictures/n01735189_9231.JPEG	146.03494501113892	0.506904125213623
148	111.97755789756775	response	0	k		146.0	/home/egter/Projects/stimuli/pictures/n01735189_9231.JPEG	146.53197407722473	
149	111.98743295669556	picture	0		76.0	147.0	/home/egter/Projects/stimuli/pictures/R_S_yt-GWgG8PVM1iw_34.png	146.54184913635254	0.6319348812103271
149	112.61087894439697	response	0	j		147.0	/home/egter/Projects/stimuli/pictures/R_S_yt-GWgG8PVM1iw_34.png	147.16529512405396	
150	112.61936783790588	picture	0		101.0	148.0	/home/egter/Projects/stimuli/pictures/S_comp_A103_C002_0205DG_v12_SDR_FINAL_20180706_SDR_2K_AVC.png	147.17378401756287	0.8473780155181885
150	113.44579982757568	response	0	j		148.0	/home/egter/Projects/stimuli/pictures/S_comp_A103_C002_0205DG_v12_SDR_FINAL_20180706_SDR_2K_AVC.png	148.00021600723267	
151	113.46674585342407	picture	0		88.0	149.0	/home/egter/Projects/stimuli/pictures/S_G5lrDxJJzfI_2.png	148.02116203308105	0.7359421253204346
151	114.19426679611206	response	0	k		149.0	/home/egter/Projects/stimuli/pictures/S_G5lrDxJJzfI_2.png	148.74868297576904	
152	114.2026879787445	picture	0		83.0	150.0	/home/egter/Projects/stimuli/pictures/R_S_yt-r4st6Mt4EE8_85.png	148.7571041584015	0.6944758892059326
152	114.88592100143433	response	0	j		150.0	/home/egter/Projects/stimuli/pictures/R_S_yt-r4st6Mt4EE8_85.png	149.4403371810913	
153	114.89716386795044	picture	0		87.0	151.0	/home/egter/Projects/stimuli/pictures/S_yt--jzScB82vKI_212.png	149.45158004760742	0.722149133682251
153	115.61088681221008	response	0	j		151.0	/home/egter/Projects/stimuli/pictures/S_yt--jzScB82vKI_212.png	150.16530299186707	
154	115.61931300163269	picture	0		79.0	152.0	/home/egter/Projects/stimuli/pictures/S_ILSVRC2015_train_00762000.png	150.17372918128967	0.6597938537597656
154	116.26235485076904	response	0	j		152.0	/home/egter/Projects/stimuli/pictures/S_ILSVRC2015_train_00762000.png	150.81677103042603	
155	116.27910685539246	picture	0		80.0	153.0	/home/egter/Projects/stimuli/pictures/n02802426_23812.JPEG	150.83352303504944	0.6666290760040283
155	116.9359679222107	response	0	k		153.0	/home/egter/Projects/stimuli/pictures/n02802426_23812.JPEG	151.49038410186768	
156	116.94573593139648	picture	0		73.0	154.0	/home/egter/Projects/stimuli/pictures/R_S_yt-zgkJCgcT1s4_300.png	151.50015211105347	0.6112349033355713
156	117.54416489601135	response	0	j		154.0	/home/egter/Projects/stimuli/pictures/R_S_yt-zgkJCgcT1s4_300.png	152.09858107566833	
157	117.55697083473206	picture	0		79.0	155.0	/home/egter/Projects/stimuli/pictures/n02100583_20582.JPEG	152.11138701438904	0.666558027267456
157	118.2109010219574	response	0	k		155.0	/home/egter/Projects/stimuli/pictures/n02100583_20582.JPEG	152.76531720161438	
158	118.22352886199951	picture	0		98.0	156.0	/home/egter/Projects/stimuli/pictures/n02066245_10848.JPEG	152.7779450416565	0.8264369964599609
158	119.02897882461548	response	0	k		156.0	/home/egter/Projects/stimuli/pictures/n02066245_10848.JPEG	153.58339500427246	
159	119.04996585845947	picture	0		72.0	157.0	/home/egter/Projects/stimuli/pictures/S_nTA7B2uHaCQ_1.png	153.60438203811646	0.6041009426116943
159	119.63735389709473	response	0	j		157.0	/home/egter/Projects/stimuli/pictures/S_nTA7B2uHaCQ_1.png	154.1917700767517	
160	119.65406680107117	picture	0		58.0	158.0	/home/egter/Projects/stimuli/pictures/n07836838_948.JPEG	154.20848298072815	0.48612403869628906
160	120.12748789787292	response	0	k		158.0	/home/egter/Projects/stimuli/pictures/n07836838_948.JPEG	154.6819040775299	
161	120.14019083976746	picture	0		87.0	159.0	/home/egter/Projects/stimuli/pictures/S_yt-pZRvYLT6SmU_40.png	154.69460701942444	0.7221779823303223
161	120.84574699401855	response	0	j		159.0	/home/egter/Projects/stimuli/pictures/S_yt-pZRvYLT6SmU_40.png	155.40016317367554	
162	120.86236882209778	picture	0		115.0	160.0	/home/egter/Projects/stimuli/pictures/S_yt-pB-AcJ71tzA_20.png	155.41678500175476	0.9583570957183838
162	121.81083297729492	response	0	k		160.0	/home/egter/Projects/stimuli/pictures/S_yt-pB-AcJ71tzA_20.png	156.3652491569519	
163	121.82072591781616	picture	0		57.0	161.0	/home/egter/Projects/stimuli/pictures/n01697457_2811.JPEG	156.37514209747314	0.47922587394714355
163	122.28602981567383	response	0	k		161.0	/home/egter/Projects/stimuli/pictures/n01697457_2811.JPEG	156.8404459953308	
164	122.2999517917633	picture	0		79.0	162.0	/home/egter/Projects/stimuli/pictures/n03290653_11575.JPEG	156.8543679714203	0.6666731834411621
164	122.95273995399475	response	0	k		162.0	/home/egter/Projects/stimuli/pictures/n03290653_11575.JPEG	157.50715613365173	
165	122.96662497520447	picture	0		97.0	163.0	/home/egter/Projects/stimuli/pictures/S_yt-TSSPDwAQLXs_158.png	157.52104115486145	0.8124120235443115
165	123.76920580863953	response	0	j		163.0	/home/egter/Projects/stimuli/pictures/S_yt-TSSPDwAQLXs_158.png	158.3236219882965	
166	123.77903699874878	picture	0		78.0	164.0	/home/egter/Projects/stimuli/pictures/S_yt-lfDIg8kaXhA_169.png	158.33345317840576	0.6527879238128662
166	124.419193983078	response	0	j		164.0	/home/egter/Projects/stimuli/pictures/S_yt-lfDIg8kaXhA_169.png	158.97361016273499	
167	124.43182492256165	picture	0		120.0	165.0	/home/egter/Projects/stimuli/pictures/R_S_P001_C005_UHD_SDR_2K_AVC.png	158.98624110221863	1.0068860054016113
167	125.42752981185913	response	0	k		165.0	/home/egter/Projects/stimuli/pictures/R_S_P001_C005_UHD_SDR_2K_AVC.png	159.9819459915161	
168	125.43871092796326	picture	0		68.0	166.0	/home/egter/Projects/stimuli/pictures/R_S_yt-OTNdgakSIJE_97.png	159.99312710762024	0.5696759223937988
168	125.99439287185669	response	0	j		166.0	/home/egter/Projects/stimuli/pictures/R_S_yt-OTNdgakSIJE_97.png	160.54880905151367	
169	126.00838685035706	picture	0		56.0	167.0	/home/egter/Projects/stimuli/pictures/n01737021_18234.JPEG	160.56280303001404	0.4719870090484619
169	126.46919083595276	response	0	k		167.0	/home/egter/Projects/stimuli/pictures/n01737021_18234.JPEG	161.02360701560974	
170	126.48037385940552	picture	0		86.0	168.0	/home/egter/Projects/stimuli/pictures/n04596742_23019.JPEG	161.0347900390625	0.7153029441833496
170	127.18584179878235	response	0	j		168.0	/home/egter/Projects/stimuli/pictures/n04596742_23019.JPEG	161.74025797843933	
171	127.19567680358887	picture	0		60.0	169.0	/home/egter/Projects/stimuli/pictures/n03776460_6449.JPEG	161.75009298324585	0.5000030994415283
171	127.68588399887085	response	0	k		169.0	/home/egter/Projects/stimuli/pictures/n03776460_6449.JPEG	162.24030017852783	
172	127.6956799030304	picture	0		83.0	170.0	/home/egter/Projects/stimuli/pictures/R_S_yt-O6W6CZPXvlA_15.png	162.25009608268738	0.694586992263794
172	128.37749600410461	response	0	j		170.0	/home/egter/Projects/stimuli/pictures/R_S_yt-O6W6CZPXvlA_15.png	162.9319121837616	
173	128.3902668952942	picture	0		81.0	171.0	/home/egter/Projects/stimuli/pictures/R_S_pexels-ron-lach-8071987.png	162.94468307495117	0.6734499931335449
173	129.04575896263123	response	0	j		171.0	/home/egter/Projects/stimuli/pictures/R_S_pexels-ron-lach-8071987.png	163.6001751422882	
174	129.06371688842773	picture	0		89.0	172.0	/home/egter/Projects/stimuli/pictures/S_yt-LGjuqDnv9s8_5.png	163.61813306808472	0.7430269718170166
174	129.7940788269043	response	0	k		172.0	/home/egter/Projects/stimuli/pictures/S_yt-LGjuqDnv9s8_5.png	164.34849500656128	
175	129.80674386024475	picture	0		82.0	173.0	/home/egter/Projects/stimuli/pictures/S_yt-zgkJCgcT1s4_300.png	164.36116003990173	0.6805419921875
175	130.47748589515686	response	0	j		173.0	/home/egter/Projects/stimuli/pictures/S_yt-zgkJCgcT1s4_300.png	165.03190207481384	
176	130.48728585243225	picture	0		70.0	174.0	/home/egter/Projects/stimuli/pictures/n01692333_5130.JPEG	165.04170203208923	0.5901451110839844
176	131.0539288520813	response	0	k		174.0	/home/egter/Projects/stimuli/pictures/n01692333_5130.JPEG	165.60834503173828	
177	131.07743096351624	picture	0		143.0	175.0	/home/egter/Projects/stimuli/pictures/R_S_yt-3roniRu6w58_10.png	165.63184714317322	1.194545030593872
177	132.25396180152893	response	0	k		175.0	/home/egter/Projects/stimuli/pictures/R_S_yt-3roniRu6w58_10.png	166.8083779811859	
178	132.2719759941101	picture	0		63.0	176.0	/home/egter/Projects/stimuli/pictures/n03977966_2901.JPEG	166.8263921737671	0.527918815612793
178	132.7859559059143	response	0	k		176.0	/home/egter/Projects/stimuli/pictures/n03977966_2901.JPEG	167.3403720855713	
179	132.7998948097229	picture	0		57.0	177.0	/home/egter/Projects/stimuli/pictures/n02117135_2447.JPEG	167.35431098937988	0.4790182113647461
179	133.26910591125488	response	0	k		177.0	/home/egter/Projects/stimuli/pictures/n02117135_2447.JPEG	167.82352209091187	
180	133.27891302108765	picture	0		68.0	178.0	/home/egter/Projects/stimuli/pictures/R_S_yt-CH4HfNRC1hY_40.png	167.83332920074463	0.5695068836212158
180	133.83579087257385	response	0	k		178.0	/home/egter/Projects/stimuli/pictures/R_S_yt-CH4HfNRC1hY_40.png	168.39020705223083	
181	133.84841990470886	picture	0		80.0	179.0	/home/egter/Projects/stimuli/pictures/n04536866_11132.JPEG	168.40283608436584	0.6735749244689941
181	134.5108139514923	response	0	k		179.0	/home/egter/Projects/stimuli/pictures/n04536866_11132.JPEG	169.0652301311493	
182	134.52199482917786	stim	0		736.0			169.07641100883484	6.1319310665130615
182	140.64408683776855	response	0	space				175.19850301742554	
