trial_nr	onset	event_type	phase	response	nr_frames	picture_index	picture_file	onset_abs	duration
0	0.013312101364135742	stim	0		358.0			33.46898913383484	2.987941026687622
0	2.984951972961426	response	0	space				36.44062900543213	
2	3.001253128051758	picture	0		107.0	0.0	/home/egter/Projects/stimuli/pictures/R_S_yt-ZYrQIw9VUok_111.png	36.45693016052246	0.8931269645690918
2	3.8847908973693848	response	0	j		0.0	/home/egter/Projects/stimuli/pictures/R_S_yt-ZYrQIw9VUok_111.png	37.34046792984009	
3	3.8943800926208496	picture	0		187.0	1.0	/home/egter/Projects/stimuli/pictures/n02879718_3621.JPEG	37.35005712509155	1.5625619888305664
3	5.4431750774383545	response	0	j		1.0	/home/egter/Projects/stimuli/pictures/n02879718_3621.JPEG	38.89885210990906	
4	5.456942081451416	picture	0		138.0	2.0	/home/egter/Projects/stimuli/pictures/R_S_X-D3lUv-atE_376.png	38.91261911392212	1.1527018547058105
4	6.601325988769531	response	0	j		2.0	/home/egter/Projects/stimuli/pictures/R_S_X-D3lUv-atE_376.png	40.057003021240234	
5	6.609643936157227	picture	0		109.0	3.0	/home/egter/Projects/stimuli/pictures/S_Ds4EKTLx_RI_51.png	40.06532096862793	0.90966796875
5	7.50302791595459	response	0	j		3.0	/home/egter/Projects/stimuli/pictures/S_Ds4EKTLx_RI_51.png	40.95870494842529	
6	7.519311904907227	picture	0		125.0	4.0	/home/egter/Projects/stimuli/pictures/n04350905_11239.JPEG	40.97498893737793	1.0416831970214844
6	8.551427125930786	response	0	k		4.0	/home/egter/Projects/stimuli/pictures/n04350905_11239.JPEG	42.00710415840149	
7	8.560995101928711	picture	0		113.0	5.0	/home/egter/Projects/stimuli/pictures/n01883070_6403.JPEG	42.016672134399414	0.9444468021392822
7	9.493014097213745	response	0	k		5.0	/home/egter/Projects/stimuli/pictures/n01883070_6403.JPEG	42.94869112968445	
8	9.505441904067993	picture	0		109.0	6.0	/home/egter/Projects/stimuli/pictures/R_S_yt-HwGg4-zeWi8_364.png	42.961118936538696	0.9097251892089844
8	10.401416063308716	response	0	j		6.0	/home/egter/Projects/stimuli/pictures/R_S_yt-HwGg4-zeWi8_364.png	43.85709309577942	
9	10.415167093276978	picture	0		103.0	7.0	/home/egter/Projects/stimuli/pictures/n02009912_5068.JPEG	43.87084412574768	0.8610849380493164
9	11.26804804801941	response	0	j		7.0	/home/egter/Projects/stimuli/pictures/n02009912_5068.JPEG	44.72372508049011	
10	11.276252031326294	picture	0		162.0	8.0	/home/egter/Projects/stimuli/pictures/n02492660_5349.JPEG	44.731929063797	1.3541860580444336
10	12.618015050888062	response	0	j		8.0	/home/egter/Projects/stimuli/pictures/n02492660_5349.JPEG	46.073692083358765	
11	12.630438089370728	picture	0		89.0	9.0	/home/egter/Projects/stimuli/pictures/R_S_xq822dX6DDM_1.png	46.08611512184143	0.743034839630127
11	13.359738111495972	response	0	j		9.0	/home/egter/Projects/stimuli/pictures/R_S_xq822dX6DDM_1.png	46.815415143966675	
12	13.373472929000854	picture	0		88.0	10.0	/home/egter/Projects/stimuli/pictures/R_S_yt-etF_WUW5D68_3.png	46.82914996147156	0.7362589836120605
12	14.101354122161865	response	0	j		10.0	/home/egter/Projects/stimuli/pictures/R_S_yt-etF_WUW5D68_3.png	47.55703115463257	
13	14.109731912612915	picture	0		98.0	11.0	/home/egter/Projects/stimuli/pictures/S_yt-qp46Jph_oCQ_1.png	47.56540894508362	0.8192791938781738
13	14.911189079284668	response	0	j		11.0	/home/egter/Projects/stimuli/pictures/S_yt-qp46Jph_oCQ_1.png	48.36686611175537	
14	14.929011106491089	picture	0		123.0	12.0	/home/egter/Projects/stimuli/pictures/S_yt-fIEGqReekCM_10.png	48.38468813896179	1.0278258323669434
14	15.936249017715454	response	0	j		12.0	/home/egter/Projects/stimuli/pictures/S_yt-fIEGqReekCM_10.png	49.39192605018616	
15	15.956836938858032	picture	0		103.0	13.0	/home/egter/Projects/stimuli/pictures/n07693725_2957.JPEG	49.412513971328735	0.8610460758209229
15	16.809607982635498	response	0	k		13.0	/home/egter/Projects/stimuli/pictures/n07693725_2957.JPEG	50.2652850151062	
16	16.817883014678955	picture	0		78.0	14.0	/home/egter/Projects/stimuli/pictures/n03249569_390.JPEG	50.27356004714966	0.6529231071472168
16	17.459693908691406	response	0	k		14.0	/home/egter/Projects/stimuli/pictures/n03249569_390.JPEG	50.91537094116211	
17	17.470806121826172	picture	0		96.0	15.0	/home/egter/Projects/stimuli/pictures/n02493509_10681.JPEG	50.926483154296875	0.798475980758667
17	18.25962805747986	response	0	j		15.0	/home/egter/Projects/stimuli/pictures/n02493509_10681.JPEG	51.71530508995056	
18	18.26928210258484	picture	0		106.0	16.0	/home/egter/Projects/stimuli/pictures/R_S_FZ0hLmjCR0s_26.png	51.72495913505554	0.8819689750671387
18	19.142982959747314	response	0	j		16.0	/home/egter/Projects/stimuli/pictures/R_S_FZ0hLmjCR0s_26.png	52.59865999221802	
19	19.151251077651978	picture	0		98.0	17.0	/home/egter/Projects/stimuli/pictures/n04487081_13086.JPEG	52.60692811012268	0.8193948268890381
19	19.959625005722046	response	0	k		17.0	/home/egter/Projects/stimuli/pictures/n04487081_13086.JPEG	53.41530203819275	
20	19.970645904541016	picture	0		75.0	18.0	/home/egter/Projects/stimuli/pictures/n02174001_3222.JPEG	53.42632293701172	0.62496018409729
20	20.584679126739502	response	0	k		18.0	/home/egter/Projects/stimuli/pictures/n02174001_3222.JPEG	54.040356159210205	
21	20.595606088638306	picture	0		81.0	19.0	/home/egter/Projects/stimuli/pictures/n04141327_3426.JPEG	54.05128312110901	0.6735739707946777
21	21.25966191291809	response	0	k		19.0	/home/egter/Projects/stimuli/pictures/n04141327_3426.JPEG	54.715338945388794	
22	21.269180059432983	picture	0		104.0	20.0	/home/egter/Projects/stimuli/pictures/n03590841_10648.JPEG	54.72485709190369	0.8680510520935059
22	22.119543075561523	response	0	k		20.0	/home/egter/Projects/stimuli/pictures/n03590841_10648.JPEG	55.57522010803223	
23	22.13723111152649	picture	0		74.0	21.0	/home/egter/Projects/stimuli/pictures/R_S_pexels-mart-production-7698911.png	55.59290814399719	0.6180799007415771
23	22.742995023727417	response	0	j		21.0	/home/egter/Projects/stimuli/pictures/R_S_pexels-mart-production-7698911.png	56.19867205619812	
24	22.755311012268066	picture	0		151.0	22.0	/home/egter/Projects/stimuli/pictures/n01753488_9363.JPEG	56.21098804473877	1.2569410800933838
24	24.00126600265503	response	0	j		22.0	/home/egter/Projects/stimuli/pictures/n01753488_9363.JPEG	57.45694303512573	
25	24.01225209236145	picture	0		139.0	23.0	/home/egter/Projects/stimuli/pictures/R_S_yt-qsyDLtXcyHc_8.png	57.46792912483215	1.1597628593444824
25	25.159631967544556	response	0	k		23.0	/home/egter/Projects/stimuli/pictures/R_S_yt-qsyDLtXcyHc_8.png	58.61530900001526	
26	25.172014951705933	picture	0		71.0	24.0	/home/egter/Projects/stimuli/pictures/S_comp_GMT329_113NC_396B_1105_CHINA_v04_SDR_FINAL_20180706_F900F2700_SDR_2K_AVC.png	58.627691984176636	0.5902280807495117
26	25.745266914367676	response	0	j		24.0	/home/egter/Projects/stimuli/pictures/S_comp_GMT329_113NC_396B_1105_CHINA_v04_SDR_FINAL_20180706_F900F2700_SDR_2K_AVC.png	59.20094394683838	
27	25.762243032455444	picture	0		160.0	25.0	/home/egter/Projects/stimuli/pictures/n03372029_76011.JPEG	59.21792006492615	1.3332929611206055
27	27.08464002609253	response	0	k		25.0	/home/egter/Projects/stimuli/pictures/n03372029_76011.JPEG	60.54031705856323	
28	27.09553599357605	picture	0		60.0	26.0	/home/egter/Projects/stimuli/pictures/n04259630_16135.JPEG	60.55121302604675	0.5000109672546387
28	27.5847589969635	response	0	j		26.0	/home/egter/Projects/stimuli/pictures/n04259630_16135.JPEG	61.040436029434204	
29	27.59554696083069	picture	0		190.0	27.0	/home/egter/Projects/stimuli/pictures/R_S_ILSVRC2015_train_00761000.png	61.05122399330139	1.5833079814910889
29	29.168066024780273	response	0	k		27.0	/home/egter/Projects/stimuli/pictures/R_S_ILSVRC2015_train_00761000.png	62.62374305725098	
30	29.178854942321777	picture	0		94.0	28.0	/home/egter/Projects/stimuli/pictures/R_S_yt-9EnchawJ3pA_90.png	62.63453197479248	0.7847630977630615
30	29.944504976272583	response	0	j		28.0	/home/egter/Projects/stimuli/pictures/R_S_yt-9EnchawJ3pA_90.png	63.400182008743286	
31	29.96361804008484	picture	0		84.0	29.0	/home/egter/Projects/stimuli/pictures/S_S003_C020_SDR_2K_AVC.png	63.41929507255554	0.7013750076293945
31	30.651299953460693	response	0	j		29.0	/home/egter/Projects/stimuli/pictures/S_S003_C020_SDR_2K_AVC.png	64.1069769859314	
32	30.664993047714233	picture	0		101.0	30.0	/home/egter/Projects/stimuli/pictures/R_S_ILSVRC2015_train_00568002.png	64.12067008018494	0.8471930027008057
32	31.501276969909668	response	0	j		30.0	/home/egter/Projects/stimuli/pictures/R_S_ILSVRC2015_train_00568002.png	64.95695400238037	
33	31.51218605041504	picture	0		84.0	31.0	/home/egter/Projects/stimuli/pictures/S_yt-s8Egk0W1Uck_39.png	64.96786308288574	0.7013700008392334
33	32.201282024383545	response	0	j		31.0	/home/egter/Projects/stimuli/pictures/S_yt-s8Egk0W1Uck_39.png	65.65695905685425	
34	32.21355605125427	picture	0		199.0	32.0	/home/egter/Projects/stimuli/pictures/n03372029_21950.JPEG	65.66923308372498	1.659693956375122
34	33.85967993736267	response	0	k		32.0	/home/egter/Projects/stimuli/pictures/n03372029_21950.JPEG	67.31535696983337	
35	33.873250007629395	picture	0		118.0	33.0	/home/egter/Projects/stimuli/pictures/n02077923_15442.JPEG	67.3289270401001	0.9862160682678223
35	34.85127091407776	response	0	j		33.0	/home/egter/Projects/stimuli/pictures/n02077923_15442.JPEG	68.30694794654846	
36	34.85946607589722	picture	0		122.0	34.0	/home/egter/Projects/stimuli/pictures/n07714571_16752.JPEG	68.31514310836792	1.0207250118255615
36	35.86791491508484	response	0	k		34.0	/home/egter/Projects/stimuli/pictures/n07714571_16752.JPEG	69.32359194755554	
37	35.88019108772278	picture	0		252.0	35.0	/home/egter/Projects/stimuli/pictures/n04552348_15837.JPEG	69.33586812019348	2.0972089767456055
37	37.96795701980591	response	0	k		35.0	/home/egter/Projects/stimuli/pictures/n04552348_15837.JPEG	71.42363405227661	
38	37.977400064468384	picture	0		131.0	36.0	/home/egter/Projects/stimuli/pictures/R_S_ILSVRC2015_train_00303008.png	71.43307709693909	1.0903830528259277
38	39.05960202217102	response	0	j		36.0	/home/egter/Projects/stimuli/pictures/R_S_ILSVRC2015_train_00303008.png	72.51527905464172	
39	39.06778311729431	picture	0		198.0	37.0	/home/egter/Projects/stimuli/pictures/S_yt--DXkjCUzThU_413.png	72.52346014976501	1.6526589393615723
39	40.70958399772644	response	0	j		37.0	/home/egter/Projects/stimuli/pictures/S_yt--DXkjCUzThU_413.png	74.16526103019714	
40	40.720442056655884	picture	0		177.0	38.0	/home/egter/Projects/stimuli/pictures/n02087394_8183.JPEG	74.17611908912659	1.47232985496521
40	42.184550046920776	response	0	j		38.0	/home/egter/Projects/stimuli/pictures/n02087394_8183.JPEG	75.64022707939148	
41	42.192771911621094	picture	0		103.0	39.0	/home/egter/Projects/stimuli/pictures/R_S_9smWynsk6sI_158.png	75.6484489440918	0.8609681129455566
41	43.0428991317749	response	0	j		39.0	/home/egter/Projects/stimuli/pictures/R_S_9smWynsk6sI_158.png	76.4985761642456	
42	43.05374002456665	picture	0		139.0	40.0	/home/egter/Projects/stimuli/pictures/S_yt-qE70lj3-A78_228.png	76.50941705703735	1.1597390174865723
42	44.201191902160645	response	0	j		40.0	/home/egter/Projects/stimuli/pictures/S_yt-qE70lj3-A78_228.png	77.65686893463135	
43	44.21347904205322	picture	0		122.0	41.0	/home/egter/Projects/stimuli/pictures/n03977966_31931.JPEG	77.66915607452393	1.0208840370178223
43	45.22622609138489	response	0	k		41.0	/home/egter/Projects/stimuli/pictures/n03977966_31931.JPEG	78.68190312385559	
44	45.234363079071045	picture	0		88.0	42.0	/home/egter/Projects/stimuli/pictures/n03670208_7944.JPEG	78.69004011154175	0.7360329627990723
44	45.95281910896301	response	0	k		42.0	/home/egter/Projects/stimuli/pictures/n03670208_7944.JPEG	79.40849614143372	
45	45.97039604187012	picture	0		222.0	43.0	/home/egter/Projects/stimuli/pictures/n04086273_27801.JPEG	79.42607307434082	1.847303867340088
45	47.8095428943634	response	0	j		43.0	/home/egter/Projects/stimuli/pictures/n04086273_27801.JPEG	81.2652199268341	
46	47.817699909210205	picture	0		131.0	44.0	/home/egter/Projects/stimuli/pictures/n04443257_5128.JPEG	81.27337694168091	1.0971221923828125
46	48.901148080825806	response	0	k		44.0	/home/egter/Projects/stimuli/pictures/n04443257_5128.JPEG	82.35682511329651	
47	48.91482210159302	picture	0		109.0	45.0	/home/egter/Projects/stimuli/pictures/R_S_yt-2pRKCSgdXXU_30.png	82.37049913406372	0.916632890701294
47	49.81782102584839	response	0	j		45.0	/home/egter/Projects/stimuli/pictures/R_S_yt-2pRKCSgdXXU_30.png	83.27349805831909	
48	49.83145499229431	picture	0		119.0	46.0	/home/egter/Projects/stimuli/pictures/S_CmWAkLISGyE_265.png	83.28713202476501	1.0000219345092773
48	50.817872047424316	response	0	j		46.0	/home/egter/Projects/stimuli/pictures/S_CmWAkLISGyE_265.png	84.27354907989502	
49	50.83147692680359	picture	0		153.0	47.0	/home/egter/Projects/stimuli/pictures/n03126707_32441.JPEG	84.28715395927429	1.2778630256652832
49	52.10120511054993	response	0	j		47.0	/home/egter/Projects/stimuli/pictures/n03126707_32441.JPEG	85.55688214302063	
50	52.10933995246887	picture	0		103.0	48.0	/home/egter/Projects/stimuli/pictures/R_S_pexels-c-technical-6809719.png	85.56501698493958	0.8610851764678955
50	52.95954895019531	response	0	j		48.0	/home/egter/Projects/stimuli/pictures/R_S_pexels-c-technical-6809719.png	86.41522598266602	
51	52.97042512893677	picture	0		282.0	49.0	/home/egter/Projects/stimuli/pictures/S_yt-N1EsjM9gD5Q_21.png	86.42610216140747	2.347240924835205
51	55.309513092041016	response	0	j		49.0	/home/egter/Projects/stimuli/pictures/S_yt-N1EsjM9gD5Q_21.png	88.76519012451172	
52	55.31766605377197	picture	0		95.0	50.0	/home/egter/Projects/stimuli/pictures/R_S_wc-AyT9mzwZsu0T_14.png	88.77334308624268	0.7917368412017822
52	56.101202964782715	response	0	j		50.0	/home/egter/Projects/stimuli/pictures/R_S_wc-AyT9mzwZsu0T_14.png	89.55687999725342	
53	56.109402894973755	picture	0		97.0	51.0	/home/egter/Projects/stimuli/pictures/R_S_yt-7lULOC_rSE0_747.png	89.56507992744446	0.8123061656951904
53	56.90948295593262	response	0	j		51.0	/home/egter/Projects/stimuli/pictures/R_S_yt-7lULOC_rSE0_747.png	90.36515998840332	
54	56.921709060668945	picture	0		79.0	52.0	/home/egter/Projects/stimuli/pictures/S_pexels-kindel-media-8164443.png	90.37738609313965	0.6596839427947998
54	57.561036109924316	response	0	j		52.0	/home/egter/Projects/stimuli/pictures/S_pexels-kindel-media-8164443.png	91.01671314239502	
55	57.581393003463745	picture	0		142.0	53.0	/home/egter/Projects/stimuli/pictures/ILSVRC2012_test_00019267.JPEG	91.03707003593445	1.1874959468841553
55	58.75266909599304	response	0	k		53.0	/home/egter/Projects/stimuli/pictures/ILSVRC2012_test_00019267.JPEG	92.20834612846375	
56	58.7688889503479	picture	0		124.0	54.0	/home/egter/Projects/stimuli/pictures/n02346627_989.JPEG	92.2245659828186	1.0347471237182617
56	59.79282307624817	response	0	j		54.0	/home/egter/Projects/stimuli/pictures/n02346627_989.JPEG	93.24850010871887	
57	59.80363607406616	picture	0		134.0	55.0	/home/egter/Projects/stimuli/pictures/n04118776_58097.JPEG	93.25931310653687	1.118021011352539
57	60.90947699546814	response	0	j		55.0	/home/egter/Projects/stimuli/pictures/n04118776_58097.JPEG	94.36515402793884	
58	60.9216570854187	picture	0		103.0	56.0	/home/egter/Projects/stimuli/pictures/R_S_comp_GMT329_113NC_396B_1105_CHINA_v04_SDR_FINAL_20180706_F900F2700_SDR_2K_AVC.png	94.3773341178894	0.8543658256530762
58	61.761085987091064	response	0	j		56.0	/home/egter/Projects/stimuli/pictures/R_S_comp_GMT329_113NC_396B_1105_CHINA_v04_SDR_FINAL_20180706_F900F2700_SDR_2K_AVC.png	95.21676301956177	
59	61.77602291107178	picture	0		94.0	57.0	/home/egter/Projects/stimuli/pictures/n01751748_3296.JPEG	95.23169994354248	0.7844760417938232
59	62.54433608055115	response	0	k		57.0	/home/egter/Projects/stimuli/pictures/n01751748_3296.JPEG	96.00001311302185	
60	62.5604989528656	picture	0		94.0	58.0	/home/egter/Projects/stimuli/pictures/n02493509_12153.JPEG	96.0161759853363	0.7847161293029785
60	63.32768392562866	response	0	k		58.0	/home/egter/Projects/stimuli/pictures/n02493509_12153.JPEG	96.78336095809937	
61	63.34521508216858	picture	0		118.0	59.0	/home/egter/Projects/stimuli/pictures/S_yt-rY_ra5Tb9XU_51.png	96.80089211463928	0.9861190319061279
61	64.31783509254456	response	0	j		59.0	/home/egter/Projects/stimuli/pictures/S_yt-rY_ra5Tb9XU_51.png	97.77351212501526	
62	64.3313341140747	picture	0		81.0	60.0	/home/egter/Projects/stimuli/pictures/R_S_yt-yQrDeFlFmfM_138.png	97.78701114654541	0.6874868869781494
62	65.0010769367218	response	0	j		60.0	/home/egter/Projects/stimuli/pictures/R_S_yt-yQrDeFlFmfM_138.png	98.4567539691925	
63	65.01882100105286	picture	0		89.0	61.0	/home/egter/Projects/stimuli/pictures/R_S_yt-HFiRYTnMZxE_338.png	98.47449803352356	0.7430739402770996
63	65.74463510513306	response	0	j		61.0	/home/egter/Projects/stimuli/pictures/R_S_yt-HFiRYTnMZxE_338.png	99.20031213760376	
64	65.76189494132996	picture	0		141.0	62.0	/home/egter/Projects/stimuli/pictures/S_yt-gMqeZkpA_1Q_61.png	99.21757197380066	1.1735291481018066
64	66.92615008354187	response	0	j		62.0	/home/egter/Projects/stimuli/pictures/S_yt-gMqeZkpA_1Q_61.png	100.38182711601257	
65	66.93542408943176	picture	0		210.0	63.0	/home/egter/Projects/stimuli/pictures/R_S_yt-0Ut9QANGX20_35.png	100.39110112190247	1.7500498294830322
65	68.67608904838562	response	0	j		63.0	/home/egter/Projects/stimuli/pictures/R_S_yt-0Ut9QANGX20_35.png	102.13176608085632	
66	68.6854739189148	picture	0		160.0	64.0	/home/egter/Projects/stimuli/pictures/S_yt-h8wy6x6oytA_25.png	102.1411509513855	1.3333230018615723
66	70.00952410697937	response	0	j		64.0	/home/egter/Projects/stimuli/pictures/S_yt-h8wy6x6oytA_25.png	103.46520113945007	
67	70.01879692077637	picture	0		186.0	65.0	/home/egter/Projects/stimuli/pictures/S_yt-SRozDkhwx28_1463.png	103.47447395324707	1.5555059909820557
67	71.55282807350159	response	0	k		65.0	/home/egter/Projects/stimuli/pictures/S_yt-SRozDkhwx28_1463.png	105.00850510597229	
68	71.57430291175842	picture	0		98.0	66.0	/home/egter/Projects/stimuli/pictures/n04336792_7807.JPEG	105.02997994422913	0.8194370269775391
68	72.38443899154663	response	0	k		66.0	/home/egter/Projects/stimuli/pictures/n04336792_7807.JPEG	105.84011602401733	
69	72.39373993873596	picture	0		87.0	67.0	/home/egter/Projects/stimuli/pictures/ILSVRC2012_test_00080382.JPEG	105.84941697120667	0.7291901111602783
69	73.10944199562073	response	0	k		67.0	/home/egter/Projects/stimuli/pictures/ILSVRC2012_test_00080382.JPEG	106.56511902809143	
70	73.12293004989624	picture	0		133.0	68.0	/home/egter/Projects/stimuli/pictures/n02486261_18987.JPEG	106.57860708236694	1.1113719940185547
70	74.22610592842102	response	0	k		68.0	/home/egter/Projects/stimuli/pictures/n02486261_18987.JPEG	107.68178296089172	
71	74.2343020439148	picture	0		135.0	69.0	/home/egter/Projects/stimuli/pictures/R_S_yt-hOtj2y9VWrc_354.png	107.6899790763855	1.1249840259552002
71	75.34437203407288	response	0	j		69.0	/home/egter/Projects/stimuli/pictures/R_S_yt-hOtj2y9VWrc_354.png	108.80004906654358	
72	75.35928606987	picture	0		139.0	70.0	/home/egter/Projects/stimuli/pictures/S_yt--jzScB82vKI_90.png	108.8149631023407	1.159411907196045
72	76.50942802429199	response	0	j		70.0	/home/egter/Projects/stimuli/pictures/S_yt--jzScB82vKI_90.png	109.9651050567627	
73	76.51869797706604	picture	0		171.0	71.0	/home/egter/Projects/stimuli/pictures/S_yt-JQOHHL30Y54_101.png	109.97437500953674	1.4239439964294434
73	77.93437695503235	response	0	j		71.0	/home/egter/Projects/stimuli/pictures/S_yt-JQOHHL30Y54_101.png	111.39005398750305	
74	77.94264197349548	picture	0		117.0	72.0	/home/egter/Projects/stimuli/pictures/S_ILSVRC2015_train_00568000.png	111.39831900596619	0.9788329601287842
74	78.90938401222229	response	0	k		72.0	/home/egter/Projects/stimuli/pictures/S_ILSVRC2015_train_00568000.png	112.365061044693	
75	78.92147493362427	picture	0		92.0	73.0	/home/egter/Projects/stimuli/pictures/n04347754_23610.JPEG	112.37715196609497	0.7711291313171387
75	79.6844129562378	response	0	k		73.0	/home/egter/Projects/stimuli/pictures/n04347754_23610.JPEG	113.1400899887085	
76	79.6926040649414	picture	0		119.0	74.0	/home/egter/Projects/stimuli/pictures/n01728572_16119.JPEG	113.14828109741211	0.9927399158477783
76	80.67605495452881	response	0	k		74.0	/home/egter/Projects/stimuli/pictures/n01728572_16119.JPEG	114.13173198699951	
77	80.68534398078918	picture	0		81.0	75.0	/home/egter/Projects/stimuli/pictures/n01534433_2457.JPEG	114.14102101325989	0.6739320755004883
77	81.34425902366638	response	0	k		75.0	/home/egter/Projects/stimuli/pictures/n01534433_2457.JPEG	114.79993605613708	
78	81.35927605628967	picture	0		76.0	76.0	/home/egter/Projects/stimuli/pictures/n04118776_71035.JPEG	114.81495308876038	0.6385300159454346
78	81.9844000339508	response	0	k		76.0	/home/egter/Projects/stimuli/pictures/n04118776_71035.JPEG	115.44007706642151	
79	81.99780607223511	picture	0		85.0	77.0	/home/egter/Projects/stimuli/pictures/n04141327_9161.JPEG	115.45348310470581	0.7152750492095947
79	82.70102500915527	response	0	k		77.0	/home/egter/Projects/stimuli/pictures/n04141327_9161.JPEG	116.15670204162598	
80	82.7130811214447	picture	0		86.0	78.0	/home/egter/Projects/stimuli/pictures/S_ILSVRC2015_train_00682009.png	116.1687581539154	0.7222108840942383
80	83.42607808113098	response	0	j		78.0	/home/egter/Projects/stimuli/pictures/S_ILSVRC2015_train_00682009.png	116.88175511360168	
81	83.43529200553894	picture	0		105.0	79.0	/home/egter/Projects/stimuli/pictures/n03857828_6224.JPEG	116.89096903800964	0.875
81	84.30109310150146	response	0	k		79.0	/home/egter/Projects/stimuli/pictures/n03857828_6224.JPEG	117.75677013397217	
82	84.31029200553894	picture	0		73.0	80.0	/home/egter/Projects/stimuli/pictures/R_S_pexels-rodnae-productions-7467585.png	117.76596903800964	0.6110789775848389
82	84.90939903259277	response	0	j		80.0	/home/egter/Projects/stimuli/pictures/R_S_pexels-rodnae-productions-7467585.png	118.36507606506348	
83	84.92137098312378	picture	0		83.0	81.0	/home/egter/Projects/stimuli/pictures/R_S_yt-316ecr1BT84_44.png	118.37704801559448	0.6878769397735596
83	85.60103797912598	response	0	j		81.0	/home/egter/Projects/stimuli/pictures/R_S_yt-316ecr1BT84_44.png	119.05671501159668	
84	85.60924792289734	picture	0		133.0	82.0	/home/egter/Projects/stimuli/pictures/n01855032_7437.JPEG	119.06492495536804	1.1107230186462402
84	86.70936393737793	response	0	k		82.0	/home/egter/Projects/stimuli/pictures/n01855032_7437.JPEG	120.16504096984863	
85	86.71997094154358	picture	0		80.0	83.0	/home/egter/Projects/stimuli/pictures/n04550184_1973.JPEG	120.17564797401428	0.66668701171875
85	87.36922407150269	response	0	k		83.0	/home/egter/Projects/stimuli/pictures/n04550184_1973.JPEG	120.82490110397339	
86	87.38665795326233	picture	0		101.0	84.0	/home/egter/Projects/stimuli/pictures/n04238763_4175.JPEG	120.84233498573303	0.8402650356292725
86	88.217768907547	response	0	k		84.0	/home/egter/Projects/stimuli/pictures/n04238763_4175.JPEG	121.6734459400177	
87	88.2269229888916	picture	0		163.0	85.0	/home/egter/Projects/stimuli/pictures/R_S_ILSVRC2015_train_00762000.png	121.6826000213623	1.3611171245574951
87	89.5692310333252	response	0	j		85.0	/home/egter/Projects/stimuli/pictures/R_S_ILSVRC2015_train_00762000.png	123.0249080657959	
88	89.5880401134491	picture	0		126.0	86.0	/home/egter/Projects/stimuli/pictures/S_ILSVRC2015_train_00594001.png	123.0437171459198	1.0485939979553223
88	90.62605309486389	response	0	j		86.0	/home/egter/Projects/stimuli/pictures/S_ILSVRC2015_train_00594001.png	124.0817301273346	
89	90.63663411140442	picture	0		96.0	87.0	/home/egter/Projects/stimuli/pictures/n01798484_6755.JPEG	124.09231114387512	0.79862380027771
89	91.42600512504578	response	0	k		87.0	/home/egter/Projects/stimuli/pictures/n01798484_6755.JPEG	124.88168215751648	
90	91.43525791168213	picture	0		108.0	88.0	/home/egter/Projects/stimuli/pictures/S_ILSVRC2015_train_00761000.png	124.89093494415283	0.9027562141418457
90	92.32601308822632	response	0	j		88.0	/home/egter/Projects/stimuli/pictures/S_ILSVRC2015_train_00761000.png	125.78169012069702	
91	92.33801412582397	picture	0		101.0	89.0	/home/egter/Projects/stimuli/pictures/R_S_yt-3TF_RGo9cLs_541.png	125.79369115829468	0.8471889495849609
91	93.17605209350586	response	0	j		89.0	/home/egter/Projects/stimuli/pictures/R_S_yt-3TF_RGo9cLs_541.png	126.63172912597656	
92	93.18520307540894	picture	0		144.0	90.0	/home/egter/Projects/stimuli/pictures/n03384352_6994.JPEG	126.64088010787964	1.2014179229736328
92	94.37608909606934	response	0	j		90.0	/home/egter/Projects/stimuli/pictures/n03384352_6994.JPEG	127.83176612854004	
93	94.38662099838257	picture	0		194.0	91.0	/home/egter/Projects/stimuli/pictures/R_S_ILSVRC2015_train_00568000.png	127.84229803085327	1.6180050373077393
93	95.99263191223145	response	0	j		91.0	/home/egter/Projects/stimuli/pictures/R_S_ILSVRC2015_train_00568000.png	129.44830894470215	
94	96.00462603569031	picture	0		82.0	92.0	/home/egter/Projects/stimuli/pictures/S_yt-LYnwnfi1JJ4_120.png	129.460303068161	0.6805570125579834
94	96.67597794532776	response	0	j		92.0	/home/egter/Projects/stimuli/pictures/S_yt-LYnwnfi1JJ4_120.png	130.13165497779846	
95	96.68518304824829	picture	0		119.0	93.0	/home/egter/Projects/stimuli/pictures/S_yt-F3B1i_Yt8_o_20.png	130.140860080719	0.9930970668792725
95	97.66765403747559	response	0	j		93.0	/home/egter/Projects/stimuli/pictures/S_yt-F3B1i_Yt8_o_20.png	131.1233310699463	
96	97.67828011512756	picture	0		104.0	94.0	/home/egter/Projects/stimuli/pictures/S_yt-EApB0DJ3ECg_119.png	131.13395714759827	0.8680338859558105
96	98.53434610366821	response	0	j		94.0	/home/egter/Projects/stimuli/pictures/S_yt-EApB0DJ3ECg_119.png	131.99002313613892	
97	98.54631400108337	picture	0		116.0	95.0	/home/egter/Projects/stimuli/pictures/S_comp_GL_G004_C010_PSNK_v04_SDR_PS_FINAL_20180709_SDR_2K_AVC.png	132.00199103355408	0.9721989631652832
97	99.50933194160461	response	0	k		95.0	/home/egter/Projects/stimuli/pictures/S_comp_GL_G004_C010_PSNK_v04_SDR_PS_FINAL_20180709_SDR_2K_AVC.png	132.96500897407532	
98	99.51851296424866	picture	0		277.0	96.0	/home/egter/Projects/stimuli/pictures/n02114855_13522.JPEG	132.97418999671936	2.3124849796295166
98	101.81772303581238	response	0	k		96.0	/home/egter/Projects/stimuli/pictures/n02114855_13522.JPEG	135.27340006828308	
99	101.83099794387817	picture	0		125.0	97.0	/home/egter/Projects/stimuli/pictures/n03930313_7086.JPEG	135.28667497634888	1.0485990047454834
99	102.86759495735168	response	0	k		97.0	/home/egter/Projects/stimuli/pictures/n03930313_7086.JPEG	136.3232719898224	
100	102.87959694862366	picture	0		86.0	98.0	/home/egter/Projects/stimuli/pictures/S_yt-etF_WUW5D68_3.png	136.33527398109436	0.7152740955352783
100	103.58429908752441	response	0	j		98.0	/home/egter/Projects/stimuli/pictures/S_yt-etF_WUW5D68_3.png	137.03997611999512	
101	103.59487104415894	picture	0		374.0	99.0	/home/egter/Projects/stimuli/pictures/n02988304_832.JPEG	137.05054807662964	3.1179800033569336
101	106.70097398757935	response	0	k		99.0	/home/egter/Projects/stimuli/pictures/n02988304_832.JPEG	140.15665102005005	
102	106.71285104751587	picture	0		91.0	100.0	/home/egter/Projects/stimuli/pictures/S_yt-sxZ_ONShI7U_75.png	140.16852807998657	0.7639000415802002
102	107.46757197380066	response	0	j		100.0	/home/egter/Projects/stimuli/pictures/S_yt-sxZ_ONShI7U_75.png	140.92324900627136	
103	107.47675108909607	picture	0		141.0	101.0	/home/egter/Projects/stimuli/pictures/n01737021_9851.JPEG	140.93242812156677	1.1741018295288086
103	108.64257502555847	response	0	k		101.0	/home/egter/Projects/stimuli/pictures/n01737021_9851.JPEG	142.09825205802917	
104	108.65085291862488	picture	0		81.0	102.0	/home/egter/Projects/stimuli/pictures/R_S_yt-CEQnXB0LxQU_278.png	142.10652995109558	0.6801211833953857
104	109.31768107414246	response	0	j		102.0	/home/egter/Projects/stimuli/pictures/R_S_yt-CEQnXB0LxQU_278.png	142.77335810661316	
105	109.33097410202026	picture	0		139.0	103.0	/home/egter/Projects/stimuli/pictures/n01641577_6777.JPEG	142.78665113449097	1.1665840148925781
105	110.4842619895935	response	0	j		103.0	/home/egter/Projects/stimuli/pictures/n01641577_6777.JPEG	143.9399390220642	
106	110.49755811691284	picture	0		106.0	104.0	/home/egter/Projects/stimuli/pictures/S_yt--OkafQ5VFHs_51.png	143.95323514938354	0.8889079093933105
106	111.36912894248962	response	0	j		104.0	/home/egter/Projects/stimuli/pictures/S_yt--OkafQ5VFHs_51.png	144.82480597496033	
107	111.38646602630615	picture	0		144.0	105.0	/home/egter/Projects/stimuli/pictures/n01695060_4884.JPEG	144.84214305877686	1.2013518810272217
107	112.56909608840942	response	0	k		105.0	/home/egter/Projects/stimuli/pictures/n01695060_4884.JPEG	146.02477312088013	
108	112.58781790733337	picture	0		159.0	106.0	/home/egter/Projects/stimuli/pictures/n04238763_8940.JPEG	146.04349493980408	1.326362133026123
108	113.90094709396362	response	0	k		106.0	/home/egter/Projects/stimuli/pictures/n04238763_8940.JPEG	147.35662412643433	
109	113.9141800403595	picture	0		260.0	107.0	/home/egter/Projects/stimuli/pictures/S_yt-uS1wBwS3Emo_10.png	147.3698570728302	2.1735758781433105
109	116.07594203948975	response	0	j		107.0	/home/egter/Projects/stimuli/pictures/S_yt-uS1wBwS3Emo_10.png	149.53161907196045	
110	116.08775591850281	picture	0		83.0	108.0	/home/egter/Projects/stimuli/pictures/S_yt-316ecr1BT84_44.png	149.5434329509735	0.6944541931152344
110	116.76084804534912	response	0	j		108.0	/home/egter/Projects/stimuli/pictures/S_yt-316ecr1BT84_44.png	150.21652507781982	
111	116.78221011161804	picture	0		92.0	109.0	/home/egter/Projects/stimuli/pictures/S_yt-v66td-1WO7w_44.png	150.23788714408875	0.770819902420044
111	117.5425910949707	response	0	j		109.0	/home/egter/Projects/stimuli/pictures/S_yt-v66td-1WO7w_44.png	150.9982681274414	
112	117.55303001403809	picture	0		96.0	110.0	/home/egter/Projects/stimuli/pictures/n02988304_1974.JPEG	151.0087070465088	0.7986369132995605
112	118.34254097938538	response	0	k		110.0	/home/egter/Projects/stimuli/pictures/n02988304_1974.JPEG	151.79821801185608	
113	118.35166692733765	picture	0		168.0	111.0	/home/egter/Projects/stimuli/pictures/n02361337_10879.JPEG	151.80734395980835	1.4027230739593506
113	119.7425799369812	response	0	k		111.0	/home/egter/Projects/stimuli/pictures/n02361337_10879.JPEG	153.1982569694519	
114	119.754390001297	picture	0		160.0	112.0	/home/egter/Projects/stimuli/pictures/S_yt-uWeU2s6JYyk_10.png	153.2100670337677	1.3333179950714111
114	121.07586097717285	response	0	j		112.0	/home/egter/Projects/stimuli/pictures/S_yt-uWeU2s6JYyk_10.png	154.53153800964355	
115	121.08770799636841	picture	0		187.0	113.0	/home/egter/Projects/stimuli/pictures/n03100240_2683.JPEG	154.5433850288391	1.5555670261383057
115	122.63418412208557	response	0	k		113.0	/home/egter/Projects/stimuli/pictures/n03100240_2683.JPEG	156.08986115455627	
116	122.64327502250671	picture	0		148.0	114.0	/home/egter/Projects/stimuli/pictures/R_S_ILSVRC2015_train_00594001.png	156.09895205497742	1.2407939434051514
116	123.86756706237793	response	0	j		114.0	/home/egter/Projects/stimuli/pictures/R_S_ILSVRC2015_train_00594001.png	157.32324409484863	
117	123.88406896591187	picture	0		125.0	115.0	/home/egter/Projects/stimuli/pictures/R_S_yt-v66td-1WO7w_44.png	157.33974599838257	1.0439469814300537
117	124.91755104064941	response	0	j		115.0	/home/egter/Projects/stimuli/pictures/R_S_yt-v66td-1WO7w_44.png	158.37322807312012	
118	124.92801594734192	picture	0		112.0	116.0	/home/egter/Projects/stimuli/pictures/R_S_yt-wrfAMDCg93Y_8.png	158.38369297981262	0.9394450187683105
118	125.85173201560974	response	0	j		116.0	/home/egter/Projects/stimuli/pictures/R_S_yt-wrfAMDCg93Y_8.png	159.30740904808044	
119	125.86746096611023	picture	0		213.0	117.0	/home/egter/Projects/stimuli/pictures/n04417672_16396.JPEG	159.32313799858093	1.7757270336151123
119	127.63415694236755	response	0	k		117.0	/home/egter/Projects/stimuli/pictures/n04417672_16396.JPEG	161.08983397483826	
120	127.64318799972534	picture	0		83.0	118.0	/home/egter/Projects/stimuli/pictures/S_wc-AyT9mzwZsu0T_14.png	161.09886503219604	0.6945230960845947
120	128.3258581161499	response	0	j		118.0	/home/egter/Projects/stimuli/pictures/S_wc-AyT9mzwZsu0T_14.png	161.7815351486206	
121	128.33771109580994	picture	0		104.0	119.0	/home/egter/Projects/stimuli/pictures/n02105056_951.JPEG	161.79338812828064	0.8683018684387207
121	129.18563103675842	response	0	k		119.0	/home/egter/Projects/stimuli/pictures/n02105056_951.JPEG	162.64130806922913	
122	129.20601296424866	picture	0		164.0	120.0	/home/egter/Projects/stimuli/pictures/n02006656_7554.JPEG	162.66168999671936	1.3746850490570068
122	130.56072998046875	response	0	j		120.0	/home/egter/Projects/stimuli/pictures/n02006656_7554.JPEG	164.01640701293945	
123	130.58069801330566	picture	0		99.0	121.0	/home/egter/Projects/stimuli/pictures/S_bing-www_break_com_video_like-a-cat-catching-a-fly-3131008_12.png	164.03637504577637	0.8333339691162109
123	131.40078210830688	response	0	j		121.0	/home/egter/Projects/stimuli/pictures/S_bing-www_break_com_video_like-a-cat-catching-a-fly-3131008_12.png	164.8564591407776	
124	131.41403198242188	picture	0		239.0	122.0	/home/egter/Projects/stimuli/pictures/n04465501_1420.JPEG	164.86970901489258	1.9999620914459229
124	133.40087294578552	response	0	k		122.0	/home/egter/Projects/stimuli/pictures/n04465501_1420.JPEG	166.85654997825623	
125	133.4139940738678	picture	0		178.0	123.0	/home/egter/Projects/stimuli/pictures/n03633091_10423.JPEG	166.8696711063385	1.4950690269470215
125	134.8933219909668	response	0	k		123.0	/home/egter/Projects/stimuli/pictures/n03633091_10423.JPEG	168.3489990234375	
126	134.90906310081482	picture	0		218.0	124.0	/home/egter/Projects/stimuli/pictures/R_S_ILSVRC2015_train_00001009.png	168.36474013328552	1.8174009323120117
126	136.71752190589905	response	0	k		124.0	/home/egter/Projects/stimuli/pictures/R_S_ILSVRC2015_train_00001009.png	170.17319893836975	
127	136.72646403312683	picture	0		575.0	125.0	/home/egter/Projects/stimuli/pictures/n02074367_2348.JPEG	170.18214106559753	4.791656017303467
127	141.50913906097412	response	0	k		125.0	/home/egter/Projects/stimuli/pictures/n02074367_2348.JPEG	174.96481609344482	
128	141.5181200504303	picture	0		120.0	126.0	/home/egter/Projects/stimuli/pictures/n04389033_960.JPEG	174.973797082901	1.0000309944152832
128	142.50915789604187	response	0	k		126.0	/home/egter/Projects/stimuli/pictures/n04389033_960.JPEG	175.96483492851257	
129	142.51815104484558	picture	0		110.0	127.0	/home/egter/Projects/stimuli/pictures/n01945685_1342.JPEG	175.97382807731628	0.9166269302368164
129	143.42579913139343	response	0	k		127.0	/home/egter/Projects/stimuli/pictures/n01945685_1342.JPEG	176.88147616386414	
130	143.4347779750824	picture	0		128.0	128.0	/home/egter/Projects/stimuli/pictures/R_S_pexels-cottonbro-9063801.png	176.8904550075531	1.069443941116333
130	144.49249505996704	response	0	j		128.0	/home/egter/Projects/stimuli/pictures/R_S_pexels-cottonbro-9063801.png	177.94817209243774	
131	144.50422191619873	picture	0		93.0	129.0	/home/egter/Projects/stimuli/pictures/R_S_yt-RMjo2PPEPEA_112.png	177.95989894866943	0.7797961235046387
131	145.26827812194824	response	0	j		129.0	/home/egter/Projects/stimuli/pictures/R_S_yt-RMjo2PPEPEA_112.png	178.72395515441895	
132	145.28401803970337	picture	0		113.0	130.0	/home/egter/Projects/stimuli/pictures/R_S_ILSVRC2015_train_00632002.png	178.73969507217407	0.94234299659729
132	146.21751308441162	response	0	j		130.0	/home/egter/Projects/stimuli/pictures/R_S_ILSVRC2015_train_00632002.png	179.67319011688232	
133	146.22636103630066	picture	0		85.0	131.0	/home/egter/Projects/stimuli/pictures/S_yt-YykKZWKmLnQ_386.png	179.68203806877136	0.708380937576294
133	146.92584705352783	response	0	j		131.0	/home/egter/Projects/stimuli/pictures/S_yt-YykKZWKmLnQ_386.png	180.38152408599854	
134	146.93474197387695	picture	0		120.0	132.0	/home/egter/Projects/stimuli/pictures/n02097209_5260.JPEG	180.39041900634766	0.9999899864196777
134	147.92593097686768	response	0	k		132.0	/home/egter/Projects/stimuli/pictures/n02097209_5260.JPEG	181.38160800933838	
135	147.93473196029663	picture	0		80.0	133.0	/home/egter/Projects/stimuli/pictures/S_yt-3TF_RGo9cLs_541.png	181.39040899276733	0.6666460037231445
135	148.58572602272034	response	0	j		133.0	/home/egter/Projects/stimuli/pictures/S_yt-3TF_RGo9cLs_541.png	182.04140305519104	
136	148.60137796401978	picture	0		99.0	134.0	/home/egter/Projects/stimuli/pictures/S_yt-x7TqP8l4lCA_39.png	182.05705499649048	0.8263931274414062
136	149.4174599647522	response	0	j		134.0	/home/egter/Projects/stimuli/pictures/S_yt-x7TqP8l4lCA_39.png	182.8731369972229	
137	149.42777109146118	picture	0		149.0	135.0	/home/egter/Projects/stimuli/pictures/S_yt-JkKOG9Fxykc_94.png	182.88344812393188	1.2430248260498047
137	150.65914297103882	response	0	j		135.0	/home/egter/Projects/stimuli/pictures/S_yt-JkKOG9Fxykc_94.png	184.11482000350952	
138	150.670795917511	picture	0		270.0	136.0	/home/egter/Projects/stimuli/pictures/n03692522_9753.JPEG	184.1264729499817	2.2500200271606445
138	152.90914511680603	response	0	k		136.0	/home/egter/Projects/stimuli/pictures/n03692522_9753.JPEG	186.36482214927673	
139	152.92081594467163	picture	0		194.0	137.0	/home/egter/Projects/stimuli/pictures/S_yt-HwZFMTZ7Xko_35.png	186.37649297714233	1.6180419921875
139	154.5258400440216	response	0	j		137.0	/home/egter/Projects/stimuli/pictures/S_yt-HwZFMTZ7Xko_35.png	187.9815170764923	
140	154.53885793685913	picture	0		134.0	138.0	/home/egter/Projects/stimuli/pictures/S_yt-49uKOBs2wLQ_45.png	187.99453496932983	1.1201441287994385
140	155.6431119441986	response	0	k		138.0	/home/egter/Projects/stimuli/pictures/S_yt-49uKOBs2wLQ_45.png	189.0987889766693	
141	155.65900206565857	picture	0		181.0	139.0	/home/egter/Projects/stimuli/pictures/n02894605_1275.JPEG	189.11467909812927	1.511746883392334
141	157.15917801856995	response	0	k		139.0	/home/egter/Projects/stimuli/pictures/n02894605_1275.JPEG	190.61485505104065	
142	157.1707489490509	picture	0		90.0	140.0	/home/egter/Projects/stimuli/pictures/n02058221_4417.JPEG	190.6264259815216	0.7500181198120117
142	157.90909790992737	response	0	k		140.0	/home/egter/Projects/stimuli/pictures/n02058221_4417.JPEG	191.36477494239807	
143	157.92076706886292	picture	0		83.0	141.0	/home/egter/Projects/stimuli/pictures/S_yt-2cwARrUMj40_67.png	191.37644410133362	0.6965310573577881
143	158.59398293495178	response	0	j		141.0	/home/egter/Projects/stimuli/pictures/S_yt-2cwARrUMj40_67.png	192.04965996742249	
144	158.6172981262207	picture	0		214.0	142.0	/home/egter/Projects/stimuli/pictures/S_meta-11482036_235.png	192.0729751586914	1.7917108535766602
144	160.39306211471558	response	0	j		142.0	/home/egter/Projects/stimuli/pictures/S_meta-11482036_235.png	193.84873914718628	
145	160.40900897979736	picture	0		93.0	143.0	/home/egter/Projects/stimuli/pictures/n02088364_6742.JPEG	193.86468601226807	0.7755200862884521
145	161.16883301734924	response	0	k		143.0	/home/egter/Projects/stimuli/pictures/n02088364_6742.JPEG	194.62451004981995	
146	161.18452906608582	picture	0		106.0	144.0	/home/egter/Projects/stimuli/pictures/S_ILSVRC2015_train_00743002.png	194.64020609855652	0.8959050178527832
146	162.06746006011963	response	0	j		144.0	/home/egter/Projects/stimuli/pictures/S_ILSVRC2015_train_00743002.png	195.52313709259033	
147	162.0804340839386	picture	0		178.0	145.0	/home/egter/Projects/stimuli/pictures/S_yt-Iu2ZPHLqXuY_32.png	195.5361111164093	1.4952080249786377
147	163.55974411964417	response	0	j		145.0	/home/egter/Projects/stimuli/pictures/S_yt-Iu2ZPHLqXuY_32.png	197.01542115211487	
148	163.57564210891724	picture	0		222.0	146.0	/home/egter/Projects/stimuli/pictures/n01843383_1065.JPEG	197.03131914138794	1.851977825164795
148	165.41738295555115	response	0	j		146.0	/home/egter/Projects/stimuli/pictures/n01843383_1065.JPEG	198.87305998802185	
149	165.42761993408203	picture	0		101.0	147.0	/home/egter/Projects/stimuli/pictures/ILSVRC2012_test_00042583.JPEG	198.88329696655273	0.840285062789917
149	166.25903606414795	response	0	k		147.0	/home/egter/Projects/stimuli/pictures/ILSVRC2012_test_00042583.JPEG	199.71471309661865	
150	166.26790499687195	picture	0		69.0	148.0	/home/egter/Projects/stimuli/pictures/R_S_yt-VQtbKGzI9SE_431.png	199.72358202934265	0.5763630867004395
150	166.83407998085022	response	0	j		148.0	/home/egter/Projects/stimuli/pictures/R_S_yt-VQtbKGzI9SE_431.png	200.28975701332092	
151	166.8442680835724	picture	0		80.0	149.0	/home/egter/Projects/stimuli/pictures/S_FZ0hLmjCR0s_26.png	200.2999451160431	0.6666638851165771
151	167.50079202651978	response	0	j		149.0	/home/egter/Projects/stimuli/pictures/S_FZ0hLmjCR0s_26.png	200.95646905899048	
152	167.51093196868896	picture	0		107.0	150.0	/home/egter/Projects/stimuli/pictures/n01735189_13393.JPEG	200.96660900115967	0.8958289623260498
152	168.38564205169678	response	0	j		150.0	/home/egter/Projects/stimuli/pictures/n01735189_13393.JPEG	201.84131908416748	
153	168.40676093101501	picture	0		152.0	151.0	/home/egter/Projects/stimuli/pictures/n03041632_42841.JPEG	201.86243796348572	1.270833969116211
153	169.66735196113586	response	0	k		151.0	/home/egter/Projects/stimuli/pictures/n03041632_42841.JPEG	203.12302899360657	
154	169.67759490013123	picture	0		89.0	152.0	/home/egter/Projects/stimuli/pictures/S_nTA7B2uHaCQ_1.png	203.13327193260193	0.7430450916290283
154	170.40905499458313	response	0	j		152.0	/home/egter/Projects/stimuli/pictures/S_nTA7B2uHaCQ_1.png	203.86473202705383	
155	170.42063999176025	picture	0		104.0	153.0	/home/egter/Projects/stimuli/pictures/S_comp_DB_D001_C001_PSNK_v06_SDR_PS_20180824_SDR_2K_AVC.png	203.87631702423096	0.8680551052093506
155	171.27574610710144	response	0	j		153.0	/home/egter/Projects/stimuli/pictures/S_comp_DB_D001_C001_PSNK_v06_SDR_PS_20180824_SDR_2K_AVC.png	204.73142313957214	
156	171.2886950969696	picture	0		142.0	154.0	/home/egter/Projects/stimuli/pictures/n02951585_12720.JPEG	204.7443721294403	1.1806018352508545
156	172.4590699672699	response	0	j		154.0	/home/egter/Projects/stimuli/pictures/n02951585_12720.JPEG	205.9147469997406	
157	172.46929693222046	picture	0		128.0	155.0	/home/egter/Projects/stimuli/pictures/ILSVRC2012_val_00019941.JPEG	205.92497396469116	1.06939697265625
157	173.52572798728943	response	0	k		155.0	/home/egter/Projects/stimuli/pictures/ILSVRC2012_val_00019941.JPEG	206.98140501976013	
158	173.5386939048767	picture	0		87.0	156.0	/home/egter/Projects/stimuli/pictures/n04037443_42171.JPEG	206.9943709373474	0.7222840785980225
158	174.2506721019745	response	0	k		156.0	/home/egter/Projects/stimuli/pictures/n04037443_42171.JPEG	207.7063491344452	
159	174.26097798347473	picture	0		258.0	157.0	/home/egter/Projects/stimuli/pictures/S_pexels-roman-odintsov-8233166.png	207.71665501594543	2.15959095954895
159	176.40221691131592	response	0	j		157.0	/home/egter/Projects/stimuli/pictures/S_pexels-roman-odintsov-8233166.png	209.85789394378662	
160	176.42056894302368	picture	0		113.0	158.0	/home/egter/Projects/stimuli/pictures/S_yt-7Ya-rGPO8cM_159.png	209.87624597549438	0.9513540267944336
160	177.35903191566467	response	0	j		158.0	/home/egter/Projects/stimuli/pictures/S_yt-7Ya-rGPO8cM_159.png	210.81470894813538	
161	177.37192296981812	picture	0		98.0	159.0	/home/egter/Projects/stimuli/pictures/R_S_yt-_HuBzj8EPBc_62.png	210.82760000228882	0.812507152557373
161	178.1756739616394	response	0	j		159.0	/home/egter/Projects/stimuli/pictures/R_S_yt-_HuBzj8EPBc_62.png	211.6313509941101	
162	178.1844301223755	picture	0		87.0	160.0	/home/egter/Projects/stimuli/pictures/R_S_ILSVRC2015_train_00715000.png	211.6401071548462	0.7291388511657715
162	178.90064597129822	response	0	j		160.0	/home/egter/Projects/stimuli/pictures/R_S_ILSVRC2015_train_00715000.png	212.35632300376892	
163	178.91356897354126	picture	0		99.0	161.0	/home/egter/Projects/stimuli/pictures/n04371774_10510.JPEG	212.36924600601196	0.8286399841308594
163	179.7262260913849	response	0	j		161.0	/home/egter/Projects/stimuli/pictures/n04371774_10510.JPEG	213.1819031238556	
164	179.74220895767212	picture	0		136.0	162.0	/home/egter/Projects/stimuli/pictures/R_S_yt-qurTr1BJMec_244.png	213.19788599014282	1.1366140842437744
164	180.8673210144043	response	0	j		162.0	/home/egter/Projects/stimuli/pictures/R_S_yt-qurTr1BJMec_244.png	214.322998046875	
165	180.8788230419159	picture	0		240.0	163.0	/home/egter/Projects/stimuli/pictures/S_ILSVRC2015_train_00415003.png	214.3345000743866	1.9999959468841553
165	182.86729192733765	response	0	j		163.0	/home/egter/Projects/stimuli/pictures/S_ILSVRC2015_train_00415003.png	216.32296895980835	
166	182.87881898880005	picture	0		176.0	164.0	/home/egter/Projects/stimuli/pictures/n02114712_16500.JPEG	216.33449602127075	1.4716930389404297
166	184.33392000198364	response	0	k		164.0	/home/egter/Projects/stimuli/pictures/n02114712_16500.JPEG	217.78959703445435	
167	184.35051202774048	picture	0		104.0	165.0	/home/egter/Projects/stimuli/pictures/n03895866_38388.JPEG	217.80618906021118	0.8685600757598877
167	185.20223903656006	response	0	k		165.0	/home/egter/Projects/stimuli/pictures/n03895866_38388.JPEG	218.65791606903076	
168	185.21907210350037	picture	0		127.0	166.0	/home/egter/Projects/stimuli/pictures/S_yt-xBwq6sHHF5M_21.png	218.67474913597107	1.0625009536743164
168	186.2678050994873	response	0	j		166.0	/home/egter/Projects/stimuli/pictures/S_yt-xBwq6sHHF5M_21.png	219.723482131958	
169	186.28157305717468	picture	0		113.0	167.0	/home/egter/Projects/stimuli/pictures/R_S_yt-thmqgEV-sYY_91.png	219.73725008964539	0.9444119930267334
169	187.21050596237183	response	0	j		167.0	/home/egter/Projects/stimuli/pictures/R_S_yt-thmqgEV-sYY_91.png	220.66618299484253	
170	187.22598505020142	picture	0		116.0	168.0	/home/egter/Projects/stimuli/pictures/n03874293_7077.JPEG	220.68166208267212	0.9722249507904053
170	188.1771879196167	response	0	k		168.0	/home/egter/Projects/stimuli/pictures/n03874293_7077.JPEG	221.6328649520874	
171	188.19821000099182	picture	0		204.0	169.0	/home/egter/Projects/stimuli/pictures/n02607072_1442.JPEG	221.65388703346252	1.7106189727783203
171	189.89277601242065	response	0	j		169.0	/home/egter/Projects/stimuli/pictures/n02607072_1442.JPEG	223.34845304489136	
172	189.90882897377014	picture	0		103.0	170.0	/home/egter/Projects/stimuli/pictures/n02279972_36722.JPEG	223.36450600624084	0.8587851524353027
172	190.75891304016113	response	0	j		170.0	/home/egter/Projects/stimuli/pictures/n02279972_36722.JPEG	224.21459007263184	
173	190.76761412620544	picture	0		134.0	171.0	/home/egter/Projects/stimuli/pictures/S_yt-qurTr1BJMec_244.png	224.22329115867615	1.118062973022461
173	191.87559509277344	response	0	j		171.0	/home/egter/Projects/stimuli/pictures/S_yt-qurTr1BJMec_244.png	225.33127212524414	
174	191.8856770992279	picture	0		120.0	172.0	/home/egter/Projects/stimuli/pictures/S_yt-Hs5HF3mTQ7A_9.png	225.3413541316986	0.9999959468841553
174	192.8755989074707	response	0	k		172.0	/home/egter/Projects/stimuli/pictures/S_yt-Hs5HF3mTQ7A_9.png	226.3312759399414	
175	192.88567304611206	picture	0		173.0	173.0	/home/egter/Projects/stimuli/pictures/R_S_ILSVRC2015_train_00569002.png	226.34135007858276	1.444429874420166
175	194.31726789474487	response	0	k		173.0	/home/egter/Projects/stimuli/pictures/R_S_ILSVRC2015_train_00569002.png	227.77294492721558	
176	194.33010292053223	picture	0		154.0	174.0	/home/egter/Projects/stimuli/pictures/R_S_yt-26009GpQuUg_3.png	227.78577995300293	1.284715175628662
176	195.5938539505005	response	0	j		174.0	/home/egter/Projects/stimuli/pictures/R_S_yt-26009GpQuUg_3.png	229.0495309829712	
177	195.6148180961609	picture	0		163.0	175.0	/home/egter/Projects/stimuli/pictures/R_S_yt-RWN5qOIgqec_25.png	229.0704951286316	1.3610739707946777
177	196.96722412109375	response	0	j		175.0	/home/egter/Projects/stimuli/pictures/R_S_yt-RWN5qOIgqec_25.png	230.42290115356445	
178	196.97589206695557	picture	0		97.0	176.0	/home/egter/Projects/stimuli/pictures/n01692333_3245.JPEG	230.43156909942627	0.8125350475311279
178	197.7692630290985	response	0	k		176.0	/home/egter/Projects/stimuli/pictures/n01692333_3245.JPEG	231.2249400615692	
179	197.7884271144867	picture	0		151.0	177.0	/home/egter/Projects/stimuli/pictures/n02814533_63202.JPEG	231.2441041469574	1.256889820098877
179	199.033921957016	response	0	k		177.0	/home/egter/Projects/stimuli/pictures/n02814533_63202.JPEG	232.4895989894867	
180	199.04531693458557	picture	0		126.0	178.0	/home/egter/Projects/stimuli/pictures/S__9v_wUywaAA_35.png	232.50099396705627	1.0485970973968506
180	200.0839250087738	response	0	k		178.0	/home/egter/Projects/stimuli/pictures/S__9v_wUywaAA_35.png	233.5396020412445	
181	200.09391403198242	picture	0		132.0	179.0	/home/egter/Projects/stimuli/pictures/n04037443_1901.JPEG	233.54959106445312	1.1042120456695557
181	201.1843490600586	response	0	k		179.0	/home/egter/Projects/stimuli/pictures/n04037443_1901.JPEG	234.6400260925293	
182	201.19812607765198	stim	0		110.0			234.65380311012268	0.9190428256988525
182	202.10891795158386	response	0	space				235.56459498405457	
