trial_nr	onset	event_type	phase	response	nr_frames	picture_index	picture_file	onset_abs	duration
0	0.013957977294921875	stim	0		231.0			32.91093587875366	1.9352970123291016
0	1.9328410625457764	response	0	space				34.82981896400452	
2	1.9492549896240234	picture	0		408.0	0.0	/home/egter/Projects/stimuli/pictures/n02493509_10681.JPEG	34.846232891082764	3.402704954147339
2	5.340861082077026	response	0	k		0.0	/home/egter/Projects/stimuli/pictures/n02493509_10681.JPEG	38.23783898353577	
3	5.351959943771362	picture	0		117.0	1.0	/home/egter/Projects/stimuli/pictures/R_S_yt-RMjo2PPEPEA_112.png	38.2489378452301	0.9721970558166504
3	6.315968990325928	response	0	j		1.0	/home/egter/Projects/stimuli/pictures/R_S_yt-RMjo2PPEPEA_112.png	39.21294689178467	
4	6.324156999588013	picture	0		96.0	2.0	/home/egter/Projects/stimuli/pictures/n01687978_152.JPEG	39.22113490104675	0.8055830001831055
4	7.115965127944946	response	0	k		2.0	/home/egter/Projects/stimuli/pictures/n01687978_152.JPEG	40.01294302940369	
5	7.129739999771118	picture	0		140.0	3.0	/home/egter/Projects/stimuli/pictures/n01689811_1069.JPEG	40.02671790122986	1.173604965209961
5	8.290919065475464	response	0	k		3.0	/home/egter/Projects/stimuli/pictures/n01689811_1069.JPEG	41.187896966934204	
6	8.303344964981079	picture	0		69.0	4.0	/home/egter/Projects/stimuli/pictures/S_pexels-mikhail-nilov-8410063_1.png	41.20032286643982	0.5764000415802002
6	8.865927934646606	response	0	j		4.0	/home/egter/Projects/stimuli/pictures/S_pexels-mikhail-nilov-8410063_1.png	41.76290583610535	
7	8.87974500656128	picture	0		89.0	5.0	/home/egter/Projects/stimuli/pictures/ILSVRC2012_test_00016248.JPEG	41.77672290802002	0.7500119209289551
7	9.60905408859253	response	0	k		5.0	/home/egter/Projects/stimuli/pictures/ILSVRC2012_test_00016248.JPEG	42.50603199005127	
8	9.629756927490234	picture	0		187.0	6.0	/home/egter/Projects/stimuli/pictures/n04335435_13691.JPEG	42.526734828948975	1.5693612098693848
8	11.182562112808228	response	0	k		6.0	/home/egter/Projects/stimuli/pictures/n04335435_13691.JPEG	44.07954001426697	
9	11.19911813735962	picture	0		108.0	7.0	/home/egter/Projects/stimuli/pictures/S_ILSVRC2015_train_00423000.png	44.09609603881836	0.9027729034423828
9	12.090912103652954	response	0	j		7.0	/home/egter/Projects/stimuli/pictures/S_ILSVRC2015_train_00423000.png	44.987890005111694	
10	12.101891040802002	picture	0		116.0	8.0	/home/egter/Projects/stimuli/pictures/S_pexels-c-technical-5771610.png	44.99886894226074	0.965277910232544
10	13.057554960250854	response	0	j		8.0	/home/egter/Projects/stimuli/pictures/S_pexels-c-technical-5771610.png	45.954532861709595	
11	13.067168951034546	picture	0		167.0	9.0	/home/egter/Projects/stimuli/pictures/S_yt-PK-Eip9wFr0_24.png	45.964146852493286	1.3986029624938965
11	14.449198961257935	response	0	j		9.0	/home/egter/Projects/stimuli/pictures/S_yt-PK-Eip9wFr0_24.png	47.346176862716675	
12	14.465771913528442	picture	0		81.0	10.0	/home/egter/Projects/stimuli/pictures/S_FZ0hLmjCR0s_26.png	47.36274981498718	0.6777701377868652
12	15.132559061050415	response	0	j		10.0	/home/egter/Projects/stimuli/pictures/S_FZ0hLmjCR0s_26.png	48.029536962509155	
13	15.143542051315308	picture	0		98.0	11.0	/home/egter/Projects/stimuli/pictures/n02009912_4963.JPEG	48.04051995277405	0.8193988800048828
13	15.949218988418579	response	0	k		11.0	/home/egter/Projects/stimuli/pictures/n02009912_4963.JPEG	48.84619688987732	
14	15.96294093132019	picture	0		131.0	12.0	/home/egter/Projects/stimuli/pictures/R_S_wc-lItGMdwvEd_l_7.png	48.85991883277893	1.0972740650177002
14	17.049221992492676	response	0	j		12.0	/home/egter/Projects/stimuli/pictures/R_S_wc-lItGMdwvEd_l_7.png	49.946199893951416	
15	17.06021499633789	picture	0		217.0	13.0	/home/egter/Projects/stimuli/pictures/S_yt-lfDIg8kaXhA_169.png	49.95719289779663	1.8139021396636963
15	18.857479095458984	response	0	j		13.0	/home/egter/Projects/stimuli/pictures/S_yt-lfDIg8kaXhA_169.png	51.754456996917725	
16	18.874117136001587	picture	0		96.0	14.0	/home/egter/Projects/stimuli/pictures/S_yt-jcuaf9iSEkI_169.png	51.77109503746033	0.804081916809082
16	19.665822982788086	response	0	j		14.0	/home/egter/Projects/stimuli/pictures/S_yt-jcuaf9iSEkI_169.png	52.562800884246826	
17	19.67819905281067	picture	0		184.0	15.0	/home/egter/Projects/stimuli/pictures/R_S_Ds4EKTLx_RI_51.png	52.57517695426941	1.534717082977295
17	21.19913601875305	response	0	j		15.0	/home/egter/Projects/stimuli/pictures/R_S_Ds4EKTLx_RI_51.png	54.09611392021179	
18	21.212916135787964	picture	0		119.0	16.0	/home/egter/Projects/stimuli/pictures/n01644900_6783.JPEG	54.109894037246704	1.0000228881835938
18	22.19917893409729	response	0	k		16.0	/home/egter/Projects/stimuli/pictures/n01644900_6783.JPEG	55.09615683555603	
19	22.212939023971558	picture	0		99.0	17.0	/home/egter/Projects/stimuli/pictures/S_yt-XUnZ7FbBtvk_162.png	55.1099169254303	0.8361010551452637
19	23.025761127471924	response	0	j		17.0	/home/egter/Projects/stimuli/pictures/S_yt-XUnZ7FbBtvk_162.png	55.922739028930664	
20	23.04904007911682	picture	0		197.0	18.0	/home/egter/Projects/stimuli/pictures/R_S_yt-3eQHOLBzOqA_100.png	55.94601798057556	1.6430280208587646
20	24.68249201774597	response	0	j		18.0	/home/egter/Projects/stimuli/pictures/R_S_yt-3eQHOLBzOqA_100.png	57.57946991920471	
21	24.692068099975586	picture	0		147.0	19.0	/home/egter/Projects/stimuli/pictures/ILSVRC2012_test_00015183.JPEG	57.589046001434326	1.2291369438171387
21	25.907488107681274	response	0	k		19.0	/home/egter/Projects/stimuli/pictures/ILSVRC2012_test_00015183.JPEG	58.804466009140015	
22	25.921205043792725	picture	0		97.0	20.0	/home/egter/Projects/stimuli/pictures/n01644373_10937.JPEG	58.818182945251465	0.8124580383300781
22	26.724138975143433	response	0	k		20.0	/home/egter/Projects/stimuli/pictures/n01644373_10937.JPEG	59.62111687660217	
23	26.733663082122803	picture	0		66.0	21.0	/home/egter/Projects/stimuli/pictures/R_S_ILSVRC2015_train_00578000.png	59.63064098358154	0.5570328235626221
23	27.274181127548218	response	0	j		21.0	/home/egter/Projects/stimuli/pictures/R_S_ILSVRC2015_train_00578000.png	60.17115902900696	
24	27.290695905685425	picture	0		106.0	22.0	/home/egter/Projects/stimuli/pictures/S_yt-yAtHuDsadu8_102.png	60.187673807144165	0.8916242122650146
24	28.16583013534546	response	0	j		22.0	/home/egter/Projects/stimuli/pictures/S_yt-yAtHuDsadu8_102.png	61.0628080368042	
25	28.18232011795044	picture	0		115.0	23.0	/home/egter/Projects/stimuli/pictures/S_yt-vMnSbsjGK9k_62.png	61.07929801940918	0.9611678123474121
25	29.13242506980896	response	0	k		23.0	/home/egter/Projects/stimuli/pictures/S_yt-vMnSbsjGK9k_62.png	62.0294029712677	
26	29.14348793029785	picture	0		112.0	24.0	/home/egter/Projects/stimuli/pictures/n02100735_4545.JPEG	62.04046583175659	0.9305310249328613
26	30.065809965133667	response	0	k		24.0	/home/egter/Projects/stimuli/pictures/n02100735_4545.JPEG	62.96278786659241	
27	30.074018955230713	picture	0		71.0	25.0	/home/egter/Projects/stimuli/pictures/S_yt-J2PiBa1MXI0_210.png	62.97099685668945	0.597175121307373
27	30.657397985458374	response	0	j		25.0	/home/egter/Projects/stimuli/pictures/S_yt-J2PiBa1MXI0_210.png	63.554375886917114	
28	30.671194076538086	picture	0		71.0	26.0	/home/egter/Projects/stimuli/pictures/n03673027_17203.JPEG	63.568171977996826	0.5971739292144775
28	31.25744104385376	response	0	k		26.0	/home/egter/Projects/stimuli/pictures/n03673027_17203.JPEG	64.1544189453125	
29	31.268368005752563	picture	0		73.0	27.0	/home/egter/Projects/stimuli/pictures/R_S_FZ0hLmjCR0s_26.png	64.1653459072113	0.611112117767334
29	31.865726947784424	response	0	j		27.0	/home/egter/Projects/stimuli/pictures/R_S_FZ0hLmjCR0s_26.png	64.76270484924316	
30	31.879480123519897	picture	0		80.0	28.0	/home/egter/Projects/stimuli/pictures/S_ILSVRC2015_train_00495000.png	64.77645802497864	0.68058180809021
30	32.54913592338562	response	0	j		28.0	/home/egter/Projects/stimuli/pictures/S_ILSVRC2015_train_00495000.png	65.44611382484436	
31	32.56006193161011	picture	0		89.0	29.0	/home/egter/Projects/stimuli/pictures/n04252225_9518.JPEG	65.45703983306885	0.743023157119751
31	33.290799140930176	response	0	k		29.0	/home/egter/Projects/stimuli/pictures/n04252225_9518.JPEG	66.18777704238892	
32	33.30308508872986	picture	0		97.0	30.0	/home/egter/Projects/stimuli/pictures/n01728572_6751.JPEG	66.2000629901886	0.8055379390716553
32	34.099133014678955	response	0	k		30.0	/home/egter/Projects/stimuli/pictures/n01728572_6751.JPEG	66.9961109161377	
33	34.108623027801514	picture	0		96.0	31.0	/home/egter/Projects/stimuli/pictures/n02106382_6237.JPEG	67.00560092926025	0.8055970668792725
33	34.89910912513733	response	0	k		31.0	/home/egter/Projects/stimuli/pictures/n02106382_6237.JPEG	67.79608702659607	
34	34.914220094680786	picture	0		77.0	32.0	/home/egter/Projects/stimuli/pictures/n02108000_1272.JPEG	67.81119799613953	0.6458559036254883
34	35.5490620136261	response	0	k		32.0	/home/egter/Projects/stimuli/pictures/n02108000_1272.JPEG	68.44603991508484	
35	35.560075998306274	picture	0		110.0	33.0	/home/egter/Projects/stimuli/pictures/S_yt-7W50lcw5FCo_37.png	68.45705389976501	0.9166350364685059
35	36.465734004974365	response	0	j		33.0	/home/egter/Projects/stimuli/pictures/S_yt-7W50lcw5FCo_37.png	69.3627119064331	
36	36.47671103477478	picture	0		75.0	34.0	/home/egter/Projects/stimuli/pictures/S_yt-JGKdBO2Ldzo_93.png	69.37368893623352	0.6249189376831055
36	37.09078598022461	response	0	j		34.0	/home/egter/Projects/stimuli/pictures/S_yt-JGKdBO2Ldzo_93.png	69.98776388168335	
37	37.101629972457886	picture	0		126.0	35.0	/home/egter/Projects/stimuli/pictures/n02077923_10626.JPEG	69.99860787391663	1.048647165298462
37	38.14075207710266	response	0	k		35.0	/home/egter/Projects/stimuli/pictures/n02077923_10626.JPEG	71.0377299785614	
38	38.15027713775635	picture	0		110.0	36.0	/home/egter/Projects/stimuli/pictures/n04228054_3307.JPEG	71.04725503921509	0.9236969947814941
38	39.057496070861816	response	0	k		36.0	/home/egter/Projects/stimuli/pictures/n04228054_3307.JPEG	71.95447397232056	
39	39.07397413253784	picture	0		90.0	37.0	/home/egter/Projects/stimuli/pictures/n03742115_14313.JPEG	71.97095203399658	0.75
39	39.815757036209106	response	0	k		37.0	/home/egter/Projects/stimuli/pictures/n03742115_14313.JPEG	72.71273493766785	
40	39.82397413253784	picture	0		75.0	38.0	/home/egter/Projects/stimuli/pictures/R_S_yt-NuZy8Rjk4d0_156.png	72.72095203399658	0.6333367824554443
40	40.43390703201294	response	0	j		38.0	/home/egter/Projects/stimuli/pictures/R_S_yt-NuZy8Rjk4d0_156.png	73.33088493347168	
41	40.457310914993286	picture	0		81.0	39.0	/home/egter/Projects/stimuli/pictures/R_S_yt-2IfvnrF3IV0_241.png	73.35428881645203	0.6790931224822998
41	41.124109983444214	response	0	j		39.0	/home/egter/Projects/stimuli/pictures/R_S_yt-2IfvnrF3IV0_241.png	74.02108788490295	
42	41.136404037475586	picture	0		109.0	40.0	/home/egter/Projects/stimuli/pictures/n01924916_5254.JPEG	74.03338193893433	0.9166059494018555
42	42.0339241027832	response	0	k		40.0	/home/egter/Projects/stimuli/pictures/n01924916_5254.JPEG	74.93090200424194	
43	42.05300998687744	picture	0		144.0	41.0	/home/egter/Projects/stimuli/pictures/n04141327_3426.JPEG	74.94998788833618	1.2126319408416748
43	43.242223024368286	response	0	k		41.0	/home/egter/Projects/stimuli/pictures/n04141327_3426.JPEG	76.13920092582703	
44	43.265641927719116	picture	0		102.0	42.0	/home/egter/Projects/stimuli/pictures/n12985857_1291.JPEG	76.16261982917786	0.8499610424041748
44	44.10736393928528	response	0	k		42.0	/home/egter/Projects/stimuli/pictures/n12985857_1291.JPEG	77.00434184074402	
45	44.11560297012329	picture	0		105.0	43.0	/home/egter/Projects/stimuli/pictures/n03743016_5447.JPEG	77.01258087158203	0.8834609985351562
45	44.98245692253113	response	0	k		43.0	/home/egter/Projects/stimuli/pictures/n03743016_5447.JPEG	77.87943482398987	
46	44.99906396865845	picture	0		86.0	44.0	/home/egter/Projects/stimuli/pictures/S_yt-GFcuvjHJmS4_86.png	77.89604187011719	0.7248790264129639
46	45.70743012428284	response	0	j		44.0	/home/egter/Projects/stimuli/pictures/S_yt-GFcuvjHJmS4_86.png	78.60440802574158	
47	45.72394299507141	picture	0		113.0	45.0	/home/egter/Projects/stimuli/pictures/n04335435_3965.JPEG	78.62092089653015	0.9471161365509033
47	46.65067505836487	response	0	k		45.0	/home/egter/Projects/stimuli/pictures/n04335435_3965.JPEG	79.54765295982361	
48	46.671059131622314	picture	0		78.0	46.0	/home/egter/Projects/stimuli/pictures/S_yt-tneuR3EtSZE_72.png	79.56803703308105	0.6612207889556885
48	47.31572413444519	response	0	j		46.0	/home/egter/Projects/stimuli/pictures/S_yt-tneuR3EtSZE_72.png	80.21270203590393	
49	47.332279920578	picture	0		106.0	47.0	/home/egter/Projects/stimuli/pictures/S_yt-kXarkCFJLeg_46.png	80.22925782203674	0.891754150390625
49	48.20741391181946	response	0	j		47.0	/home/egter/Projects/stimuli/pictures/S_yt-kXarkCFJLeg_46.png	81.1043918132782	
50	48.22403407096863	picture	0		93.0	48.0	/home/egter/Projects/stimuli/pictures/n02114367_24765.JPEG	81.12101197242737	0.7803199291229248
50	48.990718126297	response	0	k		48.0	/home/egter/Projects/stimuli/pictures/n02114367_24765.JPEG	81.88769602775574	
51	49.00435400009155	picture	0		108.0	49.0	/home/egter/Projects/stimuli/pictures/S_yt-FzMLLmcD1mE_19.png	81.9013319015503	0.9029200077056885
51	49.89907097816467	response	0	j		49.0	/home/egter/Projects/stimuli/pictures/S_yt-FzMLLmcD1mE_19.png	82.79604887962341	
52	49.90727400779724	picture	0		93.0	50.0	/home/egter/Projects/stimuli/pictures/n03095699_4762.JPEG	82.80425190925598	0.7775719165802002
52	50.66729211807251	response	0	k		50.0	/home/egter/Projects/stimuli/pictures/n03095699_4762.JPEG	83.56427001953125	
53	50.68484592437744	picture	0		146.0	51.0	/home/egter/Projects/stimuli/pictures/R_S_yt-xKteiAi5h7Q_36.png	83.58182382583618	1.2224490642547607
53	51.89072608947754	response	0	j		51.0	/home/egter/Projects/stimuli/pictures/R_S_yt-xKteiAi5h7Q_36.png	84.78770399093628	
54	51.9072949886322	picture	0		224.0	52.0	/home/egter/Projects/stimuli/pictures/R_S_comp_L012_c002_PS_v01_SDR_PS_20180925_SDR_2K_AVC.png	84.80427289009094	1.8678159713745117
54	53.76572895050049	response	0	k		52.0	/home/egter/Projects/stimuli/pictures/R_S_comp_L012_c002_PS_v01_SDR_PS_20180925_SDR_2K_AVC.png	86.66270685195923	
55	53.775110960006714	picture	0		94.0	53.0	/home/egter/Projects/stimuli/pictures/S_yt-5hgLXyLw82w_23.png	86.67208886146545	0.7904820442199707
55	54.54913306236267	response	0	j		53.0	/home/egter/Projects/stimuli/pictures/S_yt-5hgLXyLw82w_23.png	87.44611096382141	
56	54.565593004226685	picture	0		79.0	54.0	/home/egter/Projects/stimuli/pictures/n02776631_14631.JPEG	87.46257090568542	0.6609399318695068
56	55.21568512916565	response	0	k		54.0	/home/egter/Projects/stimuli/pictures/n02776631_14631.JPEG	88.11266303062439	
57	55.22653293609619	picture	0		96.0	55.0	/home/egter/Projects/stimuli/pictures/R_S_pexels-c-technical-5771610.png	88.12351083755493	0.8057761192321777
57	56.01574206352234	response	0	j		55.0	/home/egter/Projects/stimuli/pictures/R_S_pexels-c-technical-5771610.png	88.91271996498108	
58	56.03230905532837	picture	0		95.0	56.0	/home/egter/Projects/stimuli/pictures/n02807133_12777.JPEG	88.92928695678711	0.7983548641204834
58	56.815701961517334	response	0	k		56.0	/home/egter/Projects/stimuli/pictures/n02807133_12777.JPEG	89.71267986297607	
59	56.83066391944885	picture	0		210.0	57.0	/home/egter/Projects/stimuli/pictures/n01985128_7382.JPEG	89.72764182090759	1.7569210529327393
59	58.573992013931274	response	0	k		57.0	/home/egter/Projects/stimuli/pictures/n01985128_7382.JPEG	91.47096991539001	
60	58.58758497238159	picture	0		82.0	58.0	/home/egter/Projects/stimuli/pictures/S_video-2_copy.png	91.48456287384033	0.6874821186065674
60	59.26571297645569	response	0	j		58.0	/home/egter/Projects/stimuli/pictures/S_video-2_copy.png	92.16269087791443	
61	59.27506709098816	picture	0		89.0	59.0	/home/egter/Projects/stimuli/pictures/n01795545_13446.JPEG	92.1720449924469	0.7487888336181641
61	60.007328033447266	response	0	k		59.0	/home/egter/Projects/stimuli/pictures/n01795545_13446.JPEG	92.904305934906	
62	60.02385592460632	picture	0		123.0	60.0	/home/egter/Projects/stimuli/pictures/R_S_yt-nYi_FfCjepk_74.png	92.92083382606506	1.0359411239624023
62	61.033926010131836	response	0	j		60.0	/home/egter/Projects/stimuli/pictures/R_S_yt-nYi_FfCjepk_74.png	93.93090391159058	
63	61.059797048568726	picture	0		98.0	61.0	/home/egter/Projects/stimuli/pictures/S_yt-1PJ1RZ0bfls_4.png	93.95677495002747	0.82240891456604
63	61.865663051605225	response	0	k		61.0	/home/egter/Projects/stimuli/pictures/S_yt-1PJ1RZ0bfls_4.png	94.76264095306396	
64	61.882205963134766	picture	0		118.0	62.0	/home/egter/Projects/stimuli/pictures/S_yt-n12iRXTksXA_65.png	94.7791838645935	0.9916691780090332
64	62.85052514076233	response	0	k		62.0	/home/egter/Projects/stimuli/pictures/S_yt-n12iRXTksXA_65.png	95.74750304222107	
65	62.8738751411438	picture	0		80.0	63.0	/home/egter/Projects/stimuli/pictures/ILSVRC2012_test_00002910.JPEG	95.77085304260254	0.671968936920166
65	63.532357931137085	response	0	j		63.0	/home/egter/Projects/stimuli/pictures/ILSVRC2012_test_00002910.JPEG	96.42933583259583	
66	63.545844078063965	picture	0		123.0	64.0	/home/egter/Projects/stimuli/pictures/n07714990_14158.JPEG	96.4428219795227	1.0279979705810547
66	64.56567811965942	response	0	k		64.0	/home/egter/Projects/stimuli/pictures/n07714990_14158.JPEG	97.46265602111816	
67	64.57384204864502	picture	0		84.0	65.0	/home/egter/Projects/stimuli/pictures/S_yt-xBwq6sHHF5M_21.png	97.47081995010376	0.7011599540710449
67	65.25878190994263	response	0	j		65.0	/home/egter/Projects/stimuli/pictures/S_yt-xBwq6sHHF5M_21.png	98.15575981140137	
68	65.27500200271606	picture	0		74.0	66.0	/home/egter/Projects/stimuli/pictures/n01770081_19110.JPEG	98.1719799041748	0.6238701343536377
68	65.88234996795654	response	0	k		66.0	/home/egter/Projects/stimuli/pictures/n01770081_19110.JPEG	98.77932786941528	
69	65.8988721370697	picture	0		90.0	67.0	/home/egter/Projects/stimuli/pictures/R_S_yt-XY1n_Oze1kQ_9.png	98.79585003852844	0.7511258125305176
69	66.63382911682129	response	0	j		67.0	/home/egter/Projects/stimuli/pictures/R_S_yt-XY1n_Oze1kQ_9.png	99.53080701828003	
70	66.64999794960022	picture	0		92.0	68.0	/home/egter/Projects/stimuli/pictures/n01751748_2797.JPEG	99.54697585105896	0.7738640308380127
70	67.40730094909668	response	0	k		68.0	/home/egter/Projects/stimuli/pictures/n01751748_2797.JPEG	100.30427885055542	
71	67.42386198043823	picture	0		98.0	69.0	/home/egter/Projects/stimuli/pictures/n02704792_11366.JPEG	100.32083988189697	0.8249621391296387
71	68.23229813575745	response	0	k		69.0	/home/egter/Projects/stimuli/pictures/n02704792_11366.JPEG	101.12927603721619	
72	68.24882411956787	picture	0		199.0	70.0	/home/egter/Projects/stimuli/pictures/R_S_yt-RWN5qOIgqec_25.png	101.14580202102661	1.6666839122772217
72	69.89899706840515	response	0	k		70.0	/home/egter/Projects/stimuli/pictures/R_S_yt-RWN5qOIgqec_25.png	102.79597496986389	
73	69.91550803184509	picture	0		117.0	71.0	/home/egter/Projects/stimuli/pictures/S_yt-giRwl4yChlw_9.png	102.81248593330383	0.9775168895721436
73	70.88231706619263	response	0	j		71.0	/home/egter/Projects/stimuli/pictures/S_yt-giRwl4yChlw_9.png	103.77929496765137	
74	70.89302492141724	picture	0		108.0	72.0	/home/egter/Projects/stimuli/pictures/n02951358_13450.JPEG	103.79000282287598	0.9058351516723633
74	71.78229808807373	response	0	k		72.0	/home/egter/Projects/stimuli/pictures/n02951358_13450.JPEG	104.67927598953247	
75	71.7988600730896	picture	0		136.0	73.0	/home/egter/Projects/stimuli/pictures/S_yt-7lULOC_rSE0_747.png	104.69583797454834	1.1358048915863037
75	72.92397093772888	response	0	j		73.0	/home/egter/Projects/stimuli/pictures/S_yt-7lULOC_rSE0_747.png	105.82094883918762	
76	72.9346649646759	picture	0		91.0	74.0	/home/egter/Projects/stimuli/pictures/ILSVRC2012_test_00025144.JPEG	105.83164286613464	0.7642111778259277
76	73.68218612670898	response	0	k		74.0	/home/egter/Projects/stimuli/pictures/ILSVRC2012_test_00025144.JPEG	106.57916402816772	
77	73.69887614250183	picture	0		102.0	75.0	/home/egter/Projects/stimuli/pictures/n01855032_2578.JPEG	106.59585404396057	0.8583009243011475
77	74.54056692123413	response	0	k		75.0	/home/egter/Projects/stimuli/pictures/n01855032_2578.JPEG	107.43754482269287	
78	74.55717706680298	picture	0		80.0	76.0	/home/egter/Projects/stimuli/pictures/n01735189_13393.JPEG	107.45415496826172	0.6691510677337646
78	75.2155990600586	response	0	k		76.0	/home/egter/Projects/stimuli/pictures/n01735189_13393.JPEG	108.11257696151733	
79	75.22632813453674	picture	0		102.0	77.0	/home/egter/Projects/stimuli/pictures/S_production_ID_3712945.png	108.12330603599548	0.8558368682861328
79	76.05891513824463	response	0	j		77.0	/home/egter/Projects/stimuli/pictures/S_production_ID_3712945.png	108.95589303970337	
80	76.08216500282288	picture	0		102.0	78.0	/home/egter/Projects/stimuli/pictures/n04037443_29666.JPEG	108.97914290428162	0.8583090305328369
80	76.92389392852783	response	0	k		78.0	/home/egter/Projects/stimuli/pictures/n04037443_29666.JPEG	109.82087182998657	
81	76.94047403335571	picture	0		114.0	79.0	/home/egter/Projects/stimuli/pictures/S_yt-VTNBCfQxnsk_59.png	109.83745193481445	0.9583389759063721
81	77.88231897354126	response	0	j		79.0	/home/egter/Projects/stimuli/pictures/S_yt-VTNBCfQxnsk_59.png	110.779296875	
82	77.89881300926208	picture	0		109.0	80.0	/home/egter/Projects/stimuli/pictures/n13133613_36128.JPEG	110.79579091072083	0.9108059406280518
82	78.79892301559448	response	0	k		80.0	/home/egter/Projects/stimuli/pictures/n13133613_36128.JPEG	111.69590091705322	
83	78.80961894989014	picture	0		98.0	81.0	/home/egter/Projects/stimuli/pictures/n02841315_5631.JPEG	111.70659685134888	0.8225109577178955
83	79.61559104919434	response	0	k		81.0	/home/egter/Projects/stimuli/pictures/n02841315_5631.JPEG	112.51256895065308	
84	79.63212990760803	picture	0		92.0	82.0	/home/egter/Projects/stimuli/pictures/n04296562_6180.JPEG	112.52910780906677	0.7750251293182373
84	80.39059591293335	response	0	k		82.0	/home/egter/Projects/stimuli/pictures/n04296562_6180.JPEG	113.28757381439209	
85	80.40715503692627	picture	0		73.0	83.0	/home/egter/Projects/stimuli/pictures/n01704323_3004.JPEG	113.30413293838501	0.6107449531555176
85	81.00726795196533	response	0	k		83.0	/home/egter/Projects/stimuli/pictures/n01704323_3004.JPEG	113.90424585342407	
86	81.01789999008179	picture	0		72.0	84.0	/home/egter/Projects/stimuli/pictures/n03602883_7963.JPEG	113.91487789154053	0.6059160232543945
86	81.60726499557495	response	0	k		84.0	/home/egter/Projects/stimuli/pictures/n03602883_7963.JPEG	114.50424289703369	
87	81.62381601333618	picture	0		167.0	85.0	/home/egter/Projects/stimuli/pictures/n02134084_2844.JPEG	114.52079391479492	1.3940811157226562
87	83.00724291801453	response	0	k		85.0	/home/egter/Projects/stimuli/pictures/n02134084_2844.JPEG	115.90422081947327	
88	83.01789712905884	picture	0		90.0	86.0	/home/egter/Projects/stimuli/pictures/R_S_ILSVRC2015_train_00549000.png	115.91487503051758	0.750006914138794
88	83.75722694396973	response	0	j		86.0	/home/egter/Projects/stimuli/pictures/R_S_ILSVRC2015_train_00549000.png	116.65420484542847	
89	83.76790404319763	picture	0		82.0	87.0	/home/egter/Projects/stimuli/pictures/n09332890_2002.JPEG	116.66488194465637	0.6892108917236328
89	84.43385601043701	response	0	k		87.0	/home/egter/Projects/stimuli/pictures/n09332890_2002.JPEG	117.33083391189575	
90	84.45711493492126	picture	0		79.0	88.0	/home/egter/Projects/stimuli/pictures/n02108000_721.JPEG	117.35409283638	0.6582901477813721
90	85.1072371006012	response	0	k		88.0	/home/egter/Projects/stimuli/pictures/n02108000_721.JPEG	118.00421500205994	
91	85.11540508270264	picture	0		113.0	89.0	/home/egter/Projects/stimuli/pictures/ILSVRC2012_test_00009846.JPEG	118.01238298416138	0.9500608444213867
91	86.04212307929993	response	0	k		89.0	/home/egter/Projects/stimuli/pictures/ILSVRC2012_test_00009846.JPEG	118.93910098075867	
92	86.06546592712402	picture	0		101.0	90.0	/home/egter/Projects/stimuli/pictures/ILSVRC2012_val_00034402.JPEG	118.96244382858276	0.8499841690063477
92	86.89891505241394	response	0	k		90.0	/home/egter/Projects/stimuli/pictures/ILSVRC2012_val_00034402.JPEG	119.79589295387268	
93	86.91545009613037	picture	0		74.0	91.0	/home/egter/Projects/stimuli/pictures/n04523525_14005.JPEG	119.81242799758911	0.6232340335845947
93	87.5238950252533	response	0	k		91.0	/home/egter/Projects/stimuli/pictures/n04523525_14005.JPEG	120.42087292671204	
94	87.53868412971497	picture	0		74.0	92.0	/home/egter/Projects/stimuli/pictures/S_production_ID_5049072.png	120.4356620311737	0.6267609596252441
94	88.14886903762817	response	0	j		92.0	/home/egter/Projects/stimuli/pictures/S_production_ID_5049072.png	121.04584693908691	
95	88.16544508934021	picture	0		96.0	93.0	/home/egter/Projects/stimuli/pictures/S_yt-2l6VKd94eAI_151.png	121.06242299079895	0.8083398342132568
95	88.95722103118896	response	0	j		93.0	/home/egter/Projects/stimuli/pictures/S_yt-2l6VKd94eAI_151.png	121.8541989326477	
96	88.97378492355347	picture	0		90.0	94.0	/home/egter/Projects/stimuli/pictures/n02793495_16179.JPEG	121.8707628250122	0.7582900524139404
96	89.71553897857666	response	0	k		94.0	/home/egter/Projects/stimuli/pictures/n02793495_16179.JPEG	122.6125168800354	
97	89.73207497596741	picture	0		112.0	95.0	/home/egter/Projects/stimuli/pictures/n01729322_16251.JPEG	122.62905287742615	0.9417760372161865
97	90.65033793449402	response	0	k		95.0	/home/egter/Projects/stimuli/pictures/n01729322_16251.JPEG	123.54731583595276	
98	90.6738510131836	picture	0		69.0	96.0	/home/egter/Projects/stimuli/pictures/R_S_pexels-mikhail-nilov-8410063.png	123.57082891464233	0.5832149982452393
98	91.24055695533752	response	0	j		96.0	/home/egter/Projects/stimuli/pictures/R_S_pexels-mikhail-nilov-8410063.png	124.13753485679626	
99	91.25706601142883	picture	0		110.0	97.0	/home/egter/Projects/stimuli/pictures/S_yt-iCGU1R75BZo_52.png	124.15404391288757	0.9249930381774902
99	92.16552710533142	response	0	k		97.0	/home/egter/Projects/stimuli/pictures/S_yt-iCGU1R75BZo_52.png	125.06250500679016	
100	92.18205904960632	picture	0		127.0	98.0	/home/egter/Projects/stimuli/pictures/n03661043_47964.JPEG	125.07903695106506	1.0648810863494873
100	93.23220300674438	response	0	k		98.0	/home/egter/Projects/stimuli/pictures/n03661043_47964.JPEG	126.12918090820312	
101	93.24694013595581	picture	0		151.0	99.0	/home/egter/Projects/stimuli/pictures/S_yt-1ruRqcfBMw0_21.png	126.14391803741455	1.2684338092803955
101	94.49887895584106	response	0	j		99.0	/home/egter/Projects/stimuli/pictures/S_yt-1ruRqcfBMw0_21.png	127.3958568572998	
102	94.5153739452362	picture	0		85.0	100.0	/home/egter/Projects/stimuli/pictures/n01924916_3514.JPEG	127.41235184669495	0.7167370319366455
102	95.21554708480835	response	0	k		100.0	/home/egter/Projects/stimuli/pictures/n01924916_3514.JPEG	128.1125249862671	
103	95.23211097717285	picture	0		110.0	101.0	/home/egter/Projects/stimuli/pictures/R_S_pexels-rodnae-productions-5544703.png	128.1290888786316	0.924994945526123
103	96.14057397842407	response	0	j		101.0	/home/egter/Projects/stimuli/pictures/R_S_pexels-rodnae-productions-5544703.png	129.0375518798828	
104	96.15710592269897	picture	0		91.0	102.0	/home/egter/Projects/stimuli/pictures/S_production_ID_4510883.png	129.05408382415771	0.7634739875793457
104	96.90722012519836	response	0	j		102.0	/home/egter/Projects/stimuli/pictures/S_production_ID_4510883.png	129.8041980266571	
105	96.92057991027832	picture	0		132.0	103.0	/home/egter/Projects/stimuli/pictures/S_yt-g_RCws799LQ_52.png	129.81755781173706	1.1115100383758545
105	98.0155029296875	response	0	k		103.0	/home/egter/Projects/stimuli/pictures/S_yt-g_RCws799LQ_52.png	130.91248083114624	
106	98.03208994865417	picture	0		97.0	104.0	/home/egter/Projects/stimuli/pictures/n02326432_10454.JPEG	130.92906785011292	0.8166830539703369
106	98.83217811584473	response	0	k		104.0	/home/egter/Projects/stimuli/pictures/n02326432_10454.JPEG	131.72915601730347	
107	98.84877300262451	picture	0		77.0	105.0	/home/egter/Projects/stimuli/pictures/R_S_yt-XUnZ7FbBtvk_162.png	131.74575090408325	0.6500060558319092
107	99.47549891471863	response	0	j		105.0	/home/egter/Projects/stimuli/pictures/R_S_yt-XUnZ7FbBtvk_162.png	132.37247681617737	
108	99.49877905845642	picture	0		75.0	106.0	/home/egter/Projects/stimuli/pictures/n04523525_17616.JPEG	132.39575695991516	0.6333370208740234
108	100.11548113822937	response	0	k		106.0	/home/egter/Projects/stimuli/pictures/n04523525_17616.JPEG	133.0124590396881	
109	100.13211607933044	picture	0		98.0	107.0	/home/egter/Projects/stimuli/pictures/n04597913_2395.JPEG	133.02909398078918	0.8249828815460205
109	100.94053292274475	response	0	k		107.0	/home/egter/Projects/stimuli/pictures/n04597913_2395.JPEG	133.8375108242035	
110	100.95709896087646	picture	0		245.0	108.0	/home/egter/Projects/stimuli/pictures/n02988304_12818.JPEG	133.8540768623352	2.049973964691162
110	102.99047803878784	response	0	k		108.0	/home/egter/Projects/stimuli/pictures/n02988304_12818.JPEG	135.88745594024658	
111	103.00707292556763	picture	0		91.0	109.0	/home/egter/Projects/stimuli/pictures/R_S_yt-ycfVJyrFgB4_15.png	135.90405082702637	0.7666721343994141
111	103.75713205337524	response	0	j		109.0	/home/egter/Projects/stimuli/pictures/R_S_yt-ycfVJyrFgB4_15.png	136.65410995483398	
112	103.77374505996704	picture	0		96.0	110.0	/home/egter/Projects/stimuli/pictures/S_yt-VypeVQ7gJ_k_578.png	136.67072296142578	0.8083169460296631
112	104.56548810005188	response	0	k		110.0	/home/egter/Projects/stimuli/pictures/S_yt-VypeVQ7gJ_k_578.png	137.46246600151062	
113	104.5820620059967	picture	0		104.0	111.0	/home/egter/Projects/stimuli/pictures/R_S_ILSVRC2015_test_00004002.png	137.47903990745544	0.8750131130218506
113	105.44047808647156	response	0	j		111.0	/home/egter/Projects/stimuli/pictures/R_S_ILSVRC2015_test_00004002.png	138.3374559879303	
114	105.45707511901855	picture	0		85.0	112.0	/home/egter/Projects/stimuli/pictures/n01688243_3064.JPEG	138.3540530204773	0.7166588306427002
114	106.15716409683228	response	0	k		112.0	/home/egter/Projects/stimuli/pictures/n01688243_3064.JPEG	139.05414199829102	
115	106.17373394966125	picture	0		327.0	113.0	/home/egter/Projects/stimuli/pictures/R_S_ILSVRC2015_train_00303008.png	139.07071185112	2.733273983001709
115	108.88364291191101	response	0	j		113.0	/home/egter/Projects/stimuli/pictures/R_S_ILSVRC2015_train_00303008.png	141.78062081336975	
116	108.90700793266296	picture	0		76.0	114.0	/home/egter/Projects/stimuli/pictures/n01829413_7315.JPEG	141.8039858341217	0.6416840553283691
116	109.53212094306946	response	0	k		114.0	/home/egter/Projects/stimuli/pictures/n01829413_7315.JPEG	142.4290988445282	
117	109.54869198799133	picture	0		75.0	115.0	/home/egter/Projects/stimuli/pictures/R_S_wc-_W9iefBXz8bi_23.png	142.44566988945007	0.6286489963531494
117	110.16539192199707	response	0	j		115.0	/home/egter/Projects/stimuli/pictures/R_S_wc-_W9iefBXz8bi_23.png	143.0623698234558	
118	110.17734098434448	picture	0		87.0	116.0	/home/egter/Projects/stimuli/pictures/S_yt-GjFQxAklviE_25.png	143.07431888580322	0.7296769618988037
118	110.89044713973999	response	0	j		116.0	/home/egter/Projects/stimuli/pictures/S_yt-GjFQxAklviE_25.png	143.78742504119873	
119	110.90701794624329	picture	0		77.0	117.0	/home/egter/Projects/stimuli/pictures/n01629819_111.JPEG	143.80399584770203	0.6453371047973633
119	111.54040193557739	response	0	k		117.0	/home/egter/Projects/stimuli/pictures/n01629819_111.JPEG	144.43737983703613	
120	111.55235505104065	picture	0		87.0	118.0	/home/egter/Projects/stimuli/pictures/R_S_pexels-cottonbro-10639398.png	144.4493329524994	0.7221729755401611
120	112.25874495506287	response	0	j		118.0	/home/egter/Projects/stimuli/pictures/R_S_pexels-cottonbro-10639398.png	145.1557228565216	
121	112.27452802658081	picture	0		76.0	119.0	/home/egter/Projects/stimuli/pictures/S_yt-kkbtZP78JxQ_96.png	145.17150592803955	0.6408059597015381
121	112.89967703819275	response	0	j		119.0	/home/egter/Projects/stimuli/pictures/S_yt-kkbtZP78JxQ_96.png	145.7966549396515	
122	112.91533398628235	picture	0		77.0	120.0	/home/egter/Projects/stimuli/pictures/n12144580_17301.JPEG	145.8123118877411	0.6439390182495117
122	113.5487449169159	response	0	k		120.0	/home/egter/Projects/stimuli/pictures/n12144580_17301.JPEG	146.44572281837463	
123	113.55927300453186	picture	0		213.0	121.0	/home/egter/Projects/stimuli/pictures/R_S_5Bc466bkeA0_35.png	146.4562509059906	1.7810580730438232
123	115.32373690605164	response	0	j		121.0	/home/egter/Projects/stimuli/pictures/R_S_5Bc466bkeA0_35.png	148.22071480751038	
124	115.34033107757568	picture	0		113.0	122.0	/home/egter/Projects/stimuli/pictures/n04005630_111339.JPEG	148.23730897903442	0.9499609470367432
124	116.26688313484192	response	0	k		122.0	/home/egter/Projects/stimuli/pictures/n04005630_111339.JPEG	149.16386103630066	
125	116.29029202461243	picture	0		102.0	123.0	/home/egter/Projects/stimuli/pictures/n04523525_53014.JPEG	149.18726992607117	0.8522889614105225
125	117.13204598426819	response	0	k		123.0	/home/egter/Projects/stimuli/pictures/n04523525_53014.JPEG	150.02902388572693	
126	117.14258098602295	picture	0		141.0	124.0	/home/egter/Projects/stimuli/pictures/S_video_inspire_california_big-sur_landscape_054.png	150.0395588874817	1.1810500621795654
126	118.3070240020752	response	0	j		124.0	/home/egter/Projects/stimuli/pictures/S_video_inspire_california_big-sur_landscape_054.png	151.20400190353394	
127	118.32363104820251	picture	0		126.0	125.0	/home/egter/Projects/stimuli/pictures/S_wc-Mf8SQpviaD6D_17.png	151.22060894966125	1.0550270080566406
127	119.36540102958679	response	0	j		125.0	/home/egter/Projects/stimuli/pictures/S_wc-Mf8SQpviaD6D_17.png	152.26237893104553	
128	119.37865805625916	picture	0		167.0	126.0	/home/egter/Projects/stimuli/pictures/R_S_yt-qsyDLtXcyHc_8.png	152.2756359577179	1.4032959938049316
128	120.76543998718262	response	0	j		126.0	/home/egter/Projects/stimuli/pictures/R_S_yt-qsyDLtXcyHc_8.png	153.66241788864136	
129	120.78195405006409	picture	0		87.0	127.0	/home/egter/Projects/stimuli/pictures/n09288635_1189.JPEG	153.67893195152283	0.7333240509033203
129	121.49870705604553	response	0	k		127.0	/home/egter/Projects/stimuli/pictures/n09288635_1189.JPEG	154.39568495750427	
130	121.51527810096741	picture	0		94.0	128.0	/home/egter/Projects/stimuli/pictures/R_S_yt-31WwM4UgsVI_322.png	154.41225600242615	0.7939059734344482
130	122.29045009613037	response	0	j		128.0	/home/egter/Projects/stimuli/pictures/R_S_yt-31WwM4UgsVI_322.png	155.1874279975891	
131	122.30918407440186	picture	0		166.0	129.0	/home/egter/Projects/stimuli/pictures/S_yt-6MAIu_hWEz0_56.png	155.2061619758606	1.3894200325012207
131	123.67538690567017	response	0	k		129.0	/home/egter/Projects/stimuli/pictures/S_yt-6MAIu_hWEz0_56.png	156.5723648071289	
132	123.69860410690308	picture	0		84.0	130.0	/home/egter/Projects/stimuli/pictures/n11879895_2478.JPEG	156.59558200836182	0.7083380222320557
132	124.39036893844604	response	0	k		130.0	/home/egter/Projects/stimuli/pictures/n11879895_2478.JPEG	157.28734683990479	
133	124.40694212913513	picture	0		99.0	131.0	/home/egter/Projects/stimuli/pictures/R_S_comp_A009_C001_010181A_v09_SDR_PS_FINAL_20180725_SDR_2K_AVC.png	157.30392003059387	0.8257927894592285
133	125.22372603416443	response	0	j		131.0	/home/egter/Projects/stimuli/pictures/R_S_comp_A009_C001_010181A_v09_SDR_PS_FINAL_20180725_SDR_2K_AVC.png	158.12070393562317	
134	125.23273491859436	picture	0		67.0	132.0	/home/egter/Projects/stimuli/pictures/R_S_pexels-mikhail-nilov-8410063_1.png	158.1297128200531	0.5658590793609619
134	125.78206992149353	response	0	k		132.0	/home/egter/Projects/stimuli/pictures/R_S_pexels-mikhail-nilov-8410063_1.png	158.67904782295227	
135	125.79859399795532	picture	0		209.0	133.0	/home/egter/Projects/stimuli/pictures/R_S_yt-Fdv-V--QlR0_117.png	158.69557189941406	1.749993085861206
135	127.53206706047058	response	0	j		133.0	/home/egter/Projects/stimuli/pictures/R_S_yt-Fdv-V--QlR0_117.png	160.42904496192932	
136	127.54858708381653	picture	0		111.0	134.0	/home/egter/Projects/stimuli/pictures/R_S_yt-TNtO8RPd3iE_25.png	160.44556498527527	0.933323860168457
136	128.45859813690186	response	0	j		134.0	/home/egter/Projects/stimuli/pictures/R_S_yt-TNtO8RPd3iE_25.png	161.3555760383606	
137	128.48191094398499	picture	0		89.0	135.0	/home/egter/Projects/stimuli/pictures/R_S_yt--vHa85DHvLU_31.png	161.37888884544373	0.7500040531158447
137	129.21537399291992	response	0	j		135.0	/home/egter/Projects/stimuli/pictures/R_S_yt--vHa85DHvLU_31.png	162.11235189437866	
138	129.23191499710083	picture	0		380.0	136.0	/home/egter/Projects/stimuli/pictures/n02487347_9577.JPEG	162.12889289855957	3.174967050552368
138	132.39036512374878	response	0	k		136.0	/home/egter/Projects/stimuli/pictures/n02487347_9577.JPEG	165.28734302520752	
139	132.4068820476532	picture	0		135.0	137.0	/home/egter/Projects/stimuli/pictures/S_pexels-rodnae-productions-5993237.png	165.30385994911194	1.133363962173462
139	133.52450013160706	response	0	j		137.0	/home/egter/Projects/stimuli/pictures/S_pexels-rodnae-productions-5993237.png	166.4214780330658	
140	133.54024600982666	picture	0		97.0	138.0	/home/egter/Projects/stimuli/pictures/R_S_wc-ZZxbTv7oc5DQ_10.png	166.4372239112854	0.8166520595550537
140	134.3403661251068	response	0	j		138.0	/home/egter/Projects/stimuli/pictures/R_S_wc-ZZxbTv7oc5DQ_10.png	167.23734402656555	
141	134.3568980693817	picture	0		161.0	139.0	/home/egter/Projects/stimuli/pictures/S_yt-ZfDtalvUK5k_36.png	167.25387597084045	1.3500258922576904
141	135.68433713912964	response	0	j		139.0	/home/egter/Projects/stimuli/pictures/S_yt-ZfDtalvUK5k_36.png	168.58131504058838	
142	135.7069239616394	picture	0		73.0	140.0	/home/egter/Projects/stimuli/pictures/S_pexels-cottonbro-10639398.png	168.60390186309814	0.6249940395355225
142	136.31605291366577	response	0	k		140.0	/home/egter/Projects/stimuli/pictures/S_pexels-cottonbro-10639398.png	169.2130308151245	
143	136.33191800117493	picture	0		121.0	141.0	/home/egter/Projects/stimuli/pictures/R_S_yt-_7HJhRPVmHw_255.png	169.22889590263367	1.0166630744934082
143	137.33201098442078	response	0	j		141.0	/home/egter/Projects/stimuli/pictures/R_S_yt-_7HJhRPVmHw_255.png	170.22898888587952	
144	137.34858107566833	picture	0		299.0	142.0	/home/egter/Projects/stimuli/pictures/R_S_ILSVRC2015_train_00715000.png	170.24555897712708	2.499985933303833
144	139.831964969635	response	0	j		142.0	/home/egter/Projects/stimuli/pictures/R_S_ILSVRC2015_train_00715000.png	172.72894287109375	
145	139.84856700897217	picture	0		177.0	143.0	/home/egter/Projects/stimuli/pictures/n01695060_5630.JPEG	172.7455449104309	1.4833929538726807
145	141.31611394882202	response	0	k		143.0	/home/egter/Projects/stimuli/pictures/n01695060_5630.JPEG	174.21309185028076	
146	141.33195996284485	picture	0		96.0	144.0	/home/egter/Projects/stimuli/pictures/R_S_ILSVRC2015_train_00425000.png	174.2289378643036	0.8082799911499023
146	142.12367606163025	response	0	j		144.0	/home/egter/Projects/stimuli/pictures/R_S_ILSVRC2015_train_00425000.png	175.020653963089	
147	142.14023995399475	picture	0		85.0	145.0	/home/egter/Projects/stimuli/pictures/S_ILSVRC2015_train_00549000.png	175.0372178554535	0.7165839672088623
147	142.84031200408936	response	0	j		145.0	/home/egter/Projects/stimuli/pictures/S_ILSVRC2015_train_00549000.png	175.7372899055481	
148	142.8568239212036	picture	0		78.0	146.0	/home/egter/Projects/stimuli/pictures/R_S_yt-JQOHHL30Y54_101.png	175.75380182266235	0.6583690643310547
148	143.4918179512024	response	0	j		146.0	/home/egter/Projects/stimuli/pictures/R_S_yt-JQOHHL30Y54_101.png	176.38879585266113	
149	143.51519298553467	picture	0		86.0	147.0	/home/egter/Projects/stimuli/pictures/n03868242_2756.JPEG	176.4121708869934	0.7249979972839355
149	144.22365713119507	response	0	k		147.0	/home/egter/Projects/stimuli/pictures/n03868242_2756.JPEG	177.1206350326538	
150	144.2401909828186	picture	0		78.0	148.0	/home/egter/Projects/stimuli/pictures/n04476259_12267.JPEG	177.13716888427734	0.6521110534667969
150	144.87513494491577	response	0	k		148.0	/home/egter/Projects/stimuli/pictures/n04476259_12267.JPEG	177.7721128463745	
151	144.8923020362854	picture	0		103.0	149.0	/home/egter/Projects/stimuli/pictures/n04146614_6375.JPEG	177.78927993774414	0.864595890045166
151	145.74035096168518	response	0	k		149.0	/home/egter/Projects/stimuli/pictures/n04146614_6375.JPEG	178.63732886314392	
152	145.75689792633057	picture	0		71.0	150.0	/home/egter/Projects/stimuli/pictures/R_S_yt-1UFhynm5g6Y_266.png	178.6538758277893	0.5999860763549805
152	146.3402819633484	response	0	j		150.0	/home/egter/Projects/stimuli/pictures/R_S_yt-1UFhynm5g6Y_266.png	179.23725986480713	
153	146.35688400268555	picture	0		84.0	151.0	/home/egter/Projects/stimuli/pictures/S_yt-mQRzWCcKOR8_28.png	179.2538619041443	0.7083230018615723
153	147.04876399040222	response	0	j		151.0	/home/egter/Projects/stimuli/pictures/S_yt-mQRzWCcKOR8_28.png	179.94574189186096	
154	147.06520700454712	picture	0		96.0	152.0	/home/egter/Projects/stimuli/pictures/S_yt-2i53vKte7SA_117.png	179.96218490600586	0.8084571361541748
154	147.85776495933533	response	0	j		152.0	/home/egter/Projects/stimuli/pictures/S_yt-2i53vKte7SA_117.png	180.75474286079407	
155	147.8736641407013	picture	0		107.0	153.0	/home/egter/Projects/stimuli/pictures/S_yt-ebajhZwlVJM_32.png	180.77064204216003	0.8999087810516357
155	148.75698113441467	response	0	j		153.0	/home/egter/Projects/stimuli/pictures/S_yt-ebajhZwlVJM_32.png	181.6539590358734	
156	148.77357292175293	picture	0		94.0	154.0	/home/egter/Projects/stimuli/pictures/S_8d08M6iP-vU_44.png	181.67055082321167	0.7854211330413818
156	149.54859590530396	response	0	k		154.0	/home/egter/Projects/stimuli/pictures/S_8d08M6iP-vU_44.png	182.4455738067627	
157	149.5589940547943	picture	0		86.0	155.0	/home/egter/Projects/stimuli/pictures/S_ILSVRC2015_train_00613000.png	182.45597195625305	0.7228729724884033
157	150.26529598236084	response	0	j		155.0	/home/egter/Projects/stimuli/pictures/S_ILSVRC2015_train_00613000.png	183.16227388381958	
158	150.28186702728271	picture	0		88.0	156.0	/home/egter/Projects/stimuli/pictures/S_comp_A009_C001_010181A_v09_SDR_PS_FINAL_20180725_SDR_2K_AVC.png	183.17884492874146	0.7417080402374268
158	151.00716400146484	response	0	j		156.0	/home/egter/Projects/stimuli/pictures/S_comp_A009_C001_010181A_v09_SDR_PS_FINAL_20180725_SDR_2K_AVC.png	183.90414190292358	
159	151.02357506752014	picture	0		94.0	157.0	/home/egter/Projects/stimuli/pictures/S_yt-eczLsCTIyn0_553.png	183.92055296897888	0.791611909866333
159	151.79867601394653	response	0	j		157.0	/home/egter/Projects/stimuli/pictures/S_yt-eczLsCTIyn0_553.png	184.69565391540527	
160	151.81518697738647	picture	0		83.0	158.0	/home/egter/Projects/stimuli/pictures/R_S_yt-yQrDeFlFmfM_138.png	184.71216487884521	0.7000219821929932
160	152.49198508262634	response	0	j		158.0	/home/egter/Projects/stimuli/pictures/R_S_yt-yQrDeFlFmfM_138.png	185.38896298408508	
161	152.51520895957947	picture	0		76.0	159.0	/home/egter/Projects/stimuli/pictures/n01756291_2968.JPEG	185.4121868610382	0.6416759490966797
161	153.140291929245	response	0	k		159.0	/home/egter/Projects/stimuli/pictures/n01756291_2968.JPEG	186.03726983070374	
162	153.15688490867615	picture	0		86.0	160.0	/home/egter/Projects/stimuli/pictures/R_S_ILSVRC2015_train_00682000.png	186.0538628101349	0.7249810695648193
162	153.85916590690613	response	0	j		160.0	/home/egter/Projects/stimuli/pictures/R_S_ILSVRC2015_train_00682000.png	186.75614380836487	
163	153.88186597824097	picture	0		92.0	161.0	/home/egter/Projects/stimuli/pictures/R_S_ILSVRC2015_train_00324001.png	186.7788438796997	0.774968147277832
163	154.64026498794556	response	0	j		161.0	/home/egter/Projects/stimuli/pictures/R_S_ILSVRC2015_train_00324001.png	187.5372428894043	
164	154.6568341255188	picture	0		74.0	162.0	/home/egter/Projects/stimuli/pictures/n04465501_4400.JPEG	187.55381202697754	0.6250159740447998
164	155.26525497436523	response	0	k		162.0	/home/egter/Projects/stimuli/pictures/n04465501_4400.JPEG	188.16223287582397	
165	155.2818500995636	picture	0		86.0	163.0	/home/egter/Projects/stimuli/pictures/n04273569_31194.JPEG	188.17882800102234	0.7249948978424072
165	155.99031400680542	response	0	k		163.0	/home/egter/Projects/stimuli/pictures/n04273569_31194.JPEG	188.88729190826416	
166	156.006844997406	picture	0		77.0	164.0	/home/egter/Projects/stimuli/pictures/R_S_yt-giRwl4yChlw_9.png	188.90382289886475	0.6500039100646973
166	156.64030003547668	response	0	j		164.0	/home/egter/Projects/stimuli/pictures/R_S_yt-giRwl4yChlw_9.png	189.53727793693542	
167	156.6568489074707	picture	0		121.0	165.0	/home/egter/Projects/stimuli/pictures/n02115913_2800.JPEG	189.55382680892944	1.0166561603546143
167	157.65078592300415	response	0	k		165.0	/home/egter/Projects/stimuli/pictures/n02115913_2800.JPEG	190.5477638244629	
168	157.67350506782532	picture	0		122.0	166.0	/home/egter/Projects/stimuli/pictures/R_S_yt-ZtS7ZrJ_rtk_525.png	190.57048296928406	1.0249929428100586
168	158.67513012886047	response	0	j		166.0	/home/egter/Projects/stimuli/pictures/R_S_yt-ZtS7ZrJ_rtk_525.png	191.5721080303192	
169	158.69849801063538	picture	0		95.0	167.0	/home/egter/Projects/stimuli/pictures/n07871810_19.JPEG	191.59547591209412	0.7999911308288574
169	159.47512698173523	response	0	k		167.0	/home/egter/Projects/stimuli/pictures/n07871810_19.JPEG	192.37210488319397	
170	159.49848914146423	picture	0		116.0	168.0	/home/egter/Projects/stimuli/pictures/S_yt-CJeyOFsd3lg_80.png	192.39546704292297	0.970085859298706
170	160.45691990852356	response	0	j		168.0	/home/egter/Projects/stimuli/pictures/S_yt-CJeyOFsd3lg_80.png	193.3538978099823	
171	160.46857500076294	picture	0		250.0	169.0	/home/egter/Projects/stimuli/pictures/S_yt-omUwZYZrWy0_375.png	193.36555290222168	2.088252067565918
171	162.54027605056763	response	0	k		169.0	/home/egter/Projects/stimuli/pictures/S_yt-omUwZYZrWy0_375.png	195.43725395202637	
172	162.55682706832886	picture	0		275.0	170.0	/home/egter/Projects/stimuli/pictures/ILSVRC2012_test_00032841.JPEG	195.4538049697876	2.3000030517578125
172	164.84027099609375	response	0	k		170.0	/home/egter/Projects/stimuli/pictures/ILSVRC2012_test_00032841.JPEG	197.7372488975525	
173	164.85683012008667	picture	0		387.0	171.0	/home/egter/Projects/stimuli/pictures/n03786901_1295.JPEG	197.7538080215454	3.2332348823547363
173	168.06737399101257	response	0	k		171.0	/home/egter/Projects/stimuli/pictures/n03786901_1295.JPEG	200.9643518924713	
174	168.0900650024414	picture	0		84.0	172.0	/home/egter/Projects/stimuli/pictures/S_bing-www_cnet_com_videos_amazon-wants-to-put-alexa-on-your-pc__50.png	200.98704290390015	0.7083539962768555
174	168.78192806243896	response	0	j		172.0	/home/egter/Projects/stimuli/pictures/S_bing-www_cnet_com_videos_amazon-wants-to-put-alexa-on-your-pc__50.png	201.6789059638977	
175	168.79841899871826	picture	0		93.0	173.0	/home/egter/Projects/stimuli/pictures/S_production_ID_4835060.png	201.695396900177	0.783332109451294
175	169.56578612327576	response	0	j		173.0	/home/egter/Projects/stimuli/pictures/S_production_ID_4835060.png	202.4627640247345	
176	169.58175110816956	picture	0		75.0	174.0	/home/egter/Projects/stimuli/pictures/R_S_video_inspire_nevada_lasvegas_northstrip_021.png	202.4787290096283	0.6333539485931396
176	170.19852709770203	response	0	j		174.0	/home/egter/Projects/stimuli/pictures/R_S_video_inspire_nevada_lasvegas_northstrip_021.png	203.09550499916077	
177	170.2151050567627	picture	0		154.0	175.0	/home/egter/Projects/stimuli/pictures/ILSVRC2012_test_00087953.JPEG	203.11208295822144	1.2916688919067383
177	171.4841229915619	response	0	k		175.0	/home/egter/Projects/stimuli/pictures/ILSVRC2012_test_00087953.JPEG	204.38110089302063	
178	171.50677394866943	picture	0		269.0	176.0	/home/egter/Projects/stimuli/pictures/R_S_production_ID_3923518.png	204.40375185012817	2.2499771118164062
178	173.74030208587646	response	0	j		176.0	/home/egter/Projects/stimuli/pictures/R_S_production_ID_3923518.png	206.6372799873352	
179	173.75675106048584	picture	0		211.0	177.0	/home/egter/Projects/stimuli/pictures/S_yt-ohKBip2nOHQ_555.png	206.65372896194458	1.7666499614715576
179	175.50001907348633	response	0	k		177.0	/home/egter/Projects/stimuli/pictures/S_yt-ohKBip2nOHQ_555.png	208.39699697494507	
180	175.5234010219574	picture	0		73.0	178.0	/home/egter/Projects/stimuli/pictures/R_S_yt-tneuR3EtSZE_72.png	208.42037892341614	0.6166949272155762
180	176.1234769821167	response	0	j		178.0	/home/egter/Projects/stimuli/pictures/R_S_yt-tneuR3EtSZE_72.png	209.02045488357544	
181	176.14009594917297	picture	0		75.0	179.0	/home/egter/Projects/stimuli/pictures/R_S_yt-UmLeGNcqouI_718.png	209.0370738506317	0.6269869804382324
181	176.75681400299072	response	0	j		179.0	/home/egter/Projects/stimuli/pictures/R_S_yt-UmLeGNcqouI_718.png	209.65379190444946	
182	176.7670829296112	stim	0		331.0			209.66406083106995	2.7568280696868896
182	179.5077769756317	response	0	space				212.40475487709045	
