trial_nr	onset	event_type	phase	response	nr_frames	picture_index	picture_file	onset_abs	duration
0	0.013478994369506836	stim	0		341.0			33.34844994544983	2.855876922607422
0	2.8529858589172363	response	0	space				36.18795680999756	
2	2.8693559169769287	picture	0		611.0	0.0	/home/egter/Projects/stimuli/pictures/R_S_ILSVRC2015_train_00087003.png	36.20432686805725	5.097838878631592
2	7.953521013259888	response	0	j		0.0	/home/egter/Projects/stimuli/pictures/R_S_ILSVRC2015_train_00087003.png	41.28849196434021	
3	7.9671947956085205	picture	0		166.0	1.0	/home/egter/Projects/stimuli/pictures/S_xTlFOCRvy68_1564.png	41.30216574668884	1.3888890743255615
3	9.344579935073853	response	0	j		1.0	/home/egter/Projects/stimuli/pictures/S_xTlFOCRvy68_1564.png	42.679550886154175	
4	9.356083869934082	picture	0		164.0	2.0	/home/egter/Projects/stimuli/pictures/S_yt_R-SwXr0ScjD9o_20.png	42.691054821014404	1.3680329322814941
4	10.711196899414062	response	0	k		2.0	/home/egter/Projects/stimuli/pictures/S_yt_R-SwXr0ScjD9o_20.png	44.046167850494385	
5	10.724116802215576	picture	0		158.0	3.0	/home/egter/Projects/stimuli/pictures/n07875152_931.JPEG	44.0590877532959	1.3124980926513672
5	12.027804851531982	response	0	k		3.0	/home/egter/Projects/stimuli/pictures/n07875152_931.JPEG	45.362775802612305	
6	12.036614894866943	picture	0		142.0	4.0	/home/egter/Projects/stimuli/pictures/S_yt-j3aQHA2TVq4_38.png	45.371585845947266	1.1874969005584717
6	13.204901933670044	response	0	k		4.0	/home/egter/Projects/stimuli/pictures/S_yt-j3aQHA2TVq4_38.png	46.539872884750366	
7	13.224111795425415	picture	0		110.0	5.0	/home/egter/Projects/stimuli/pictures/n09332890_51000.JPEG	46.55908274650574	0.9202620983123779
7	14.127779960632324	response	0	k		5.0	/home/egter/Projects/stimuli/pictures/n09332890_51000.JPEG	47.46275091171265	
8	14.144373893737793	picture	0		192.0	6.0	/home/egter/Projects/stimuli/pictures/R_S_comp_DB_D011_D009_SIGNCMP_v15_6Mbps.png	47.479344844818115	1.6005361080169678
8	15.736141920089722	response	0	j		6.0	/home/egter/Projects/stimuli/pictures/R_S_comp_DB_D011_D009_SIGNCMP_v15_6Mbps.png	49.071112871170044	
9	15.74491000175476	picture	0		121.0	7.0	/home/egter/Projects/stimuli/pictures/n04465501_4549.JPEG	49.07988095283508	1.01389479637146
9	16.74502182006836	response	0	k		7.0	/home/egter/Projects/stimuli/pictures/n04465501_4549.JPEG	50.07999277114868	
10	16.75880479812622	picture	0		135.0	8.0	/home/egter/Projects/stimuli/pictures/n01773549_1508.JPEG	50.09377574920654	1.1319420337677002
10	17.877766847610474	response	0	k		8.0	/home/egter/Projects/stimuli/pictures/n01773549_1508.JPEG	51.212737798690796	
11	17.89074683189392	picture	0		137.0	9.0	/home/egter/Projects/stimuli/pictures/S_yt-FH07OivQGOM_30.png	51.22571778297424	1.1452500820159912
11	19.012632846832275	response	0	k		9.0	/home/egter/Projects/stimuli/pictures/S_yt-FH07OivQGOM_30.png	52.3476037979126	
12	19.035996913909912	picture	0		123.0	10.0	/home/egter/Projects/stimuli/pictures/S_yt-caS_SY5WmeE_5.png	52.370967864990234	1.028317928314209
12	20.05269980430603	response	0	k		10.0	/home/egter/Projects/stimuli/pictures/S_yt-caS_SY5WmeE_5.png	53.38767075538635	
13	20.06431484222412	picture	0		137.0	11.0	/home/egter/Projects/stimuli/pictures/R_S_yt-XtzmBXKYEWk_60.png	53.39928579330444	1.1388821601867676
13	21.194447994232178	response	0	j		11.0	/home/egter/Projects/stimuli/pictures/R_S_yt-XtzmBXKYEWk_60.png	54.5294189453125	
14	21.20319700241089	picture	0		202.0	12.0	/home/egter/Projects/stimuli/pictures/R_S_yt-he_RSdeVinA_68.png	54.53816795349121	1.6874938011169434
14	22.877774953842163	response	0	k		12.0	/home/egter/Projects/stimuli/pictures/R_S_yt-he_RSdeVinA_68.png	56.212745904922485	
15	22.890690803527832	picture	0		126.0	13.0	/home/egter/Projects/stimuli/pictures/n02979186_11156.JPEG	56.225661754608154	1.0485692024230957
15	23.927737951278687	response	0	k		13.0	/home/egter/Projects/stimuli/pictures/n02979186_11156.JPEG	57.26270890235901	
16	23.939260005950928	picture	0		125.0	14.0	/home/egter/Projects/stimuli/pictures/S_yt-9mWz93En7Gw_97.png	57.27423095703125	1.0416488647460938
16	24.96941590309143	response	0	j		14.0	/home/egter/Projects/stimuli/pictures/S_yt-9mWz93En7Gw_97.png	58.30438685417175	
17	24.98090887069702	picture	0		120.0	15.0	/home/egter/Projects/stimuli/pictures/n02396427_1792.JPEG	58.315879821777344	1.000007152557373
17	25.969401836395264	response	0	k		15.0	/home/egter/Projects/stimuli/pictures/n02396427_1792.JPEG	59.304372787475586	
18	25.980916023254395	picture	0		129.0	16.0	/home/egter/Projects/stimuli/pictures/R_S_yt-K7viJXt9vX8_143.png	59.31588697433472	1.0764048099517822
18	27.044410943984985	response	0	j		16.0	/home/egter/Projects/stimuli/pictures/R_S_yt-K7viJXt9vX8_143.png	60.37938189506531	
19	27.057320833206177	picture	0		124.0	17.0	/home/egter/Projects/stimuli/pictures/S_ILSVRC2015_test_00004002.png	60.3922917842865	1.0346870422363281
19	28.07822299003601	response	0	j		17.0	/home/egter/Projects/stimuli/pictures/S_ILSVRC2015_test_00004002.png	61.41319394111633	
20	28.092007875442505	picture	0		147.0	18.0	/home/egter/Projects/stimuli/pictures/R_S_yt-1n1jTroiwJs_163.png	61.42697882652283	1.2292001247406006
20	29.311092853546143	response	0	j		18.0	/home/egter/Projects/stimuli/pictures/R_S_yt-1n1jTroiwJs_163.png	62.646063804626465	
21	29.321208000183105	picture	0		198.0	19.0	/home/egter/Projects/stimuli/pictures/S_ILSVRC2015_train_00292005.png	62.65617895126343	1.652742862701416
21	30.961081981658936	response	0	k		19.0	/home/egter/Projects/stimuli/pictures/S_ILSVRC2015_train_00292005.png	64.29605293273926	
22	30.97395086288452	picture	0		170.0	20.0	/home/egter/Projects/stimuli/pictures/S_ILSVRC2015_train_00418001.png	64.30892181396484	1.4166710376739502
22	32.37774085998535	response	0	j		20.0	/home/egter/Projects/stimuli/pictures/S_ILSVRC2015_train_00418001.png	65.71271181106567	
23	32.39062190055847	picture	0		120.0	21.0	/home/egter/Projects/stimuli/pictures/n01855032_7437.JPEG	65.7255928516388	0.9999709129333496
23	33.37771487236023	response	0	k		21.0	/home/egter/Projects/stimuli/pictures/n01855032_7437.JPEG	66.71268582344055	
24	33.39059281349182	picture	0		113.0	22.0	/home/egter/Projects/stimuli/pictures/n02974003_106.JPEG	66.72556376457214	0.9374840259552002
24	34.319461822509766	response	0	k		22.0	/home/egter/Projects/stimuli/pictures/n02974003_106.JPEG	67.65443277359009	
25	34.32807683944702	picture	0		114.0	23.0	/home/egter/Projects/stimuli/pictures/n03814639_8934.JPEG	67.66304779052734	0.9513859748840332
25	35.26934099197388	response	0	k		23.0	/home/egter/Projects/stimuli/pictures/n03814639_8934.JPEG	68.6043119430542	
26	35.279462814331055	picture	0		167.0	24.0	/home/egter/Projects/stimuli/pictures/n02484975_5457.JPEG	68.61443376541138	1.3957810401916504
26	36.66152000427246	response	0	k		24.0	/home/egter/Projects/stimuli/pictures/n02484975_5457.JPEG	69.99649095535278	
27	36.675243854522705	picture	0		117.0	25.0	/home/egter/Projects/stimuli/pictures/R_S_yt-D9uD7yM6bxQ_269.png	70.01021480560303	0.9792189598083496
27	37.64436388015747	response	0	j		25.0	/home/egter/Projects/stimuli/pictures/R_S_yt-D9uD7yM6bxQ_269.png	70.9793348312378	
28	37.654462814331055	picture	0		172.0	26.0	/home/egter/Projects/stimuli/pictures/n01735189_1313.JPEG	70.98943376541138	1.4374690055847168
28	39.07814288139343	response	0	k		26.0	/home/egter/Projects/stimuli/pictures/n01735189_1313.JPEG	72.41311383247375	
29	39.09193181991577	picture	0		116.0	27.0	/home/egter/Projects/stimuli/pictures/S_yt-EBuE7GbFw7U_180.png	72.4269027709961	0.9722011089324951
29	40.05269694328308	response	0	j		27.0	/home/egter/Projects/stimuli/pictures/S_yt-EBuE7GbFw7U_180.png	73.3876678943634	
30	40.06413292884827	picture	0		109.0	28.0	/home/egter/Projects/stimuli/pictures/R_S_yt-ZYrQIw9VUok_111.png	73.39910387992859	0.9166469573974609
30	40.969353914260864	response	0	j		28.0	/home/egter/Projects/stimuli/pictures/R_S_yt-ZYrQIw9VUok_111.png	74.30432486534119	
31	40.98077988624573	picture	0		128.0	29.0	/home/egter/Projects/stimuli/pictures/S_yt-J1dw4AznwmQ_7.png	74.31575083732605	1.071864128112793
31	42.03642296791077	response	0	j		29.0	/home/egter/Projects/stimuli/pictures/S_yt-J1dw4AznwmQ_7.png	75.37139391899109	
32	42.05264401435852	picture	0		133.0	30.0	/home/egter/Projects/stimuli/pictures/S_yt-SkIJvj6KNOo_33.png	75.38761496543884	1.1086609363555908
32	43.152709007263184	response	0	j		30.0	/home/egter/Projects/stimuli/pictures/S_yt-SkIJvj6KNOo_33.png	76.4876799583435	
33	43.16130495071411	picture	0		114.0	31.0	/home/egter/Projects/stimuli/pictures/R_S_production_ID_4325585.png	76.49627590179443	0.9514470100402832
33	44.10274696350098	response	0	k		31.0	/home/egter/Projects/stimuli/pictures/R_S_production_ID_4325585.png	77.4377179145813	
34	44.112751960754395	picture	0		138.0	32.0	/home/egter/Projects/stimuli/pictures/S_yt-UPgF4YAHBQY_33.png	77.44772291183472	1.1526918411254883
34	45.25267791748047	response	0	j		32.0	/home/egter/Projects/stimuli/pictures/S_yt-UPgF4YAHBQY_33.png	78.58764886856079	
35	45.26544380187988	picture	0		109.0	33.0	/home/egter/Projects/stimuli/pictures/n02325366_6083.JPEG	78.6004147529602	0.9097130298614502
35	46.16143798828125	response	0	k		33.0	/home/egter/Projects/stimuli/pictures/n02325366_6083.JPEG	79.49640893936157	
36	46.17515683174133	picture	0		110.0	34.0	/home/egter/Projects/stimuli/pictures/S_Ds4EKTLx_RI_51.png	79.51012778282166	0.9236130714416504
36	47.086023807525635	response	0	k		34.0	/home/egter/Projects/stimuli/pictures/S_Ds4EKTLx_RI_51.png	80.42099475860596	
37	47.09876990318298	picture	0		137.0	35.0	/home/egter/Projects/stimuli/pictures/R_S_yt--a-d97T4Gak_75.png	80.4337408542633	1.1388940811157227
37	48.22087502479553	response	0	j		35.0	/home/egter/Projects/stimuli/pictures/R_S_yt--a-d97T4Gak_75.png	81.55584597587585	
38	48.237663984298706	picture	0		155.0	36.0	/home/egter/Projects/stimuli/pictures/S_yt-n2sJadTbuxo_10.png	81.57263493537903	1.2917399406433105
38	49.51931095123291	response	0	k		36.0	/home/egter/Projects/stimuli/pictures/S_yt-n2sJadTbuxo_10.png	82.85428190231323	
39	49.52940392494202	picture	0		104.0	37.0	/home/egter/Projects/stimuli/pictures/n04147183_33318.JPEG	82.86437487602234	0.8679518699645996
39	50.385987997055054	response	0	k		37.0	/home/egter/Projects/stimuli/pictures/n04147183_33318.JPEG	83.72095894813538	
40	50.397355794906616	picture	0		109.0	38.0	/home/egter/Projects/stimuli/pictures/R_S_yt-G65z8p1YNhw_16.png	83.73232674598694	0.9097340106964111
40	51.2943959236145	response	0	j		38.0	/home/egter/Projects/stimuli/pictures/R_S_yt-G65z8p1YNhw_16.png	84.62936687469482	
41	51.30708980560303	picture	0		113.0	39.0	/home/egter/Projects/stimuli/pictures/n03445777_3549.JPEG	84.64206075668335	0.9374470710754395
41	52.2292218208313	response	0	k		39.0	/home/egter/Projects/stimuli/pictures/n03445777_3549.JPEG	85.56419277191162	
42	52.24453687667847	picture	0		115.0	40.0	/home/egter/Projects/stimuli/pictures/n06794110_2069.JPEG	85.57950782775879	0.9583570957183838
42	53.19424390792847	response	0	k		40.0	/home/egter/Projects/stimuli/pictures/n06794110_2069.JPEG	86.52921485900879	
43	53.20289397239685	picture	0		146.0	41.0	/home/egter/Projects/stimuli/pictures/R_S_production_ID_4510622.png	86.53786492347717	1.2222378253936768
43	54.41135787963867	response	0	j		41.0	/home/egter/Projects/stimuli/pictures/R_S_production_ID_4510622.png	87.746328830719	
44	54.42513179779053	picture	0		120.0	42.0	/home/egter/Projects/stimuli/pictures/S_yt-DO1vncSoiJk_58.png	87.76010274887085	1.0069270133972168
44	55.412797927856445	response	0	k		42.0	/home/egter/Projects/stimuli/pictures/S_yt-DO1vncSoiJk_58.png	88.74776887893677	
45	55.432058811187744	picture	0		120.0	43.0	/home/egter/Projects/stimuli/pictures/n03447447_5685.JPEG	88.76702976226807	1.0000510215759277
45	56.412890911102295	response	0	k		43.0	/home/egter/Projects/stimuli/pictures/n03447447_5685.JPEG	89.74786186218262	
46	56.43210983276367	picture	0		134.0	44.0	/home/egter/Projects/stimuli/pictures/S_yt-o0Hbe7kcPps_70.png	89.767080783844	1.1249291896820068
46	57.54427981376648	response	0	j		44.0	/home/egter/Projects/stimuli/pictures/S_yt-o0Hbe7kcPps_70.png	90.8792507648468	
47	57.55703902244568	picture	0		175.0	45.0	/home/egter/Projects/stimuli/pictures/R_S_yt-9pUeQix6EW8_7.png	90.892009973526	1.4582879543304443
47	59.00260281562805	response	0	j		45.0	/home/egter/Projects/stimuli/pictures/R_S_yt-9pUeQix6EW8_7.png	92.33757376670837	
48	59.01532697677612	picture	0		99.0	46.0	/home/egter/Projects/stimuli/pictures/n03633091_24188.JPEG	92.35029792785645	0.8264098167419434
48	59.82084894180298	response	0	k		46.0	/home/egter/Projects/stimuli/pictures/n03633091_24188.JPEG	93.1558198928833	
49	59.841736793518066	picture	0		105.0	47.0	/home/egter/Projects/stimuli/pictures/S_yt-Wr5vs_0Iypw_161.png	93.17670774459839	0.8819501399993896
49	60.710898876190186	response	0	j		47.0	/home/egter/Projects/stimuli/pictures/S_yt-Wr5vs_0Iypw_161.png	94.04586982727051	
50	60.723686933517456	picture	0		123.0	48.0	/home/egter/Projects/stimuli/pictures/R_S_yt-BIDHmbneB10_998.png	94.05865788459778	1.0347800254821777
50	61.7446129322052	response	0	j		48.0	/home/egter/Projects/stimuli/pictures/R_S_yt-BIDHmbneB10_998.png	95.07958388328552	
51	61.758466958999634	picture	0		107.0	49.0	/home/egter/Projects/stimuli/pictures/n02607072_3299.JPEG	95.09343791007996	0.8957688808441162
51	62.63751482963562	response	0	k		49.0	/home/egter/Projects/stimuli/pictures/n02607072_3299.JPEG	95.97248578071594	
52	62.65423583984375	picture	0		95.0	50.0	/home/egter/Projects/stimuli/pictures/n04037443_53706.JPEG	95.98920679092407	0.791633129119873
52	63.42918300628662	response	0	k		50.0	/home/egter/Projects/stimuli/pictures/n04037443_53706.JPEG	96.76415395736694	
53	63.44586896896362	picture	0		113.0	51.0	/home/egter/Projects/stimuli/pictures/S_ILSVRC2015_train_00484001.png	96.78083992004395	0.9443988800048828
53	64.3775999546051	response	0	j		51.0	/home/egter/Projects/stimuli/pictures/S_ILSVRC2015_train_00484001.png	97.71257090568542	
54	64.3902678489685	picture	0		121.0	52.0	/home/egter/Projects/stimuli/pictures/n13052670_922.JPEG	97.72523880004883	1.0069501399993896
54	65.38590979576111	response	0	k		52.0	/home/egter/Projects/stimuli/pictures/n13052670_922.JPEG	98.72088074684143	
55	65.3972179889679	picture	0		157.0	53.0	/home/egter/Projects/stimuli/pictures/S_yt-JLXUWZPY-xA_88.png	98.73218894004822	1.3056178092956543
55	66.6943039894104	response	0	k		53.0	/home/egter/Projects/stimuli/pictures/S_yt-JLXUWZPY-xA_88.png	100.02927494049072	
56	66.70283579826355	picture	0		108.0	54.0	/home/egter/Projects/stimuli/pictures/ILSVRC2012_test_00032841.JPEG	100.03780674934387	0.9026951789855957
56	67.59425902366638	response	0	k		54.0	/home/egter/Projects/stimuli/pictures/ILSVRC2012_test_00032841.JPEG	100.9292299747467	
57	67.60553097724915	picture	0		120.0	55.0	/home/egter/Projects/stimuli/pictures/R_S_yt-WCT9dyz0-gQ_36.png	100.94050192832947	0.9999990463256836
57	68.59427380561829	response	0	j		55.0	/home/egter/Projects/stimuli/pictures/R_S_yt-WCT9dyz0-gQ_36.png	101.92924475669861	
58	68.60553002357483	picture	0		159.0	56.0	/home/egter/Projects/stimuli/pictures/S_yt-cgwHIb9LAFc_336.png	101.94050097465515	1.3263838291168213
58	69.91931080818176	response	0	k		56.0	/home/egter/Projects/stimuli/pictures/S_yt-cgwHIb9LAFc_336.png	103.25428175926208	
59	69.93191385269165	picture	0		103.0	57.0	/home/egter/Projects/stimuli/pictures/n06794110_6844.JPEG	103.26688480377197	0.8541500568389893
59	70.77758479118347	response	0	k		57.0	/home/egter/Projects/stimuli/pictures/n06794110_6844.JPEG	104.1125557422638	
60	70.78606390953064	picture	0		106.0	58.0	/home/egter/Projects/stimuli/pictures/R_S_yt--C2DDZ7LOQA_95.png	104.12103486061096	0.8889400959014893
60	71.66126489639282	response	0	k		58.0	/home/egter/Projects/stimuli/pictures/R_S_yt--C2DDZ7LOQA_95.png	104.99623584747314	
61	71.67500400543213	picture	0		141.0	59.0	/home/egter/Projects/stimuli/pictures/S_Pexels_Videos_2786546.png	105.00997495651245	1.1804728507995605
61	72.83751893043518	response	0	j		59.0	/home/egter/Projects/stimuli/pictures/S_Pexels_Videos_2786546.png	106.1724898815155	
62	72.85547685623169	picture	0		100.0	60.0	/home/egter/Projects/stimuli/pictures/ILSVRC2012_val_00042220.JPEG	106.19044780731201	0.8333320617675781
62	73.67752480506897	response	0	k		60.0	/home/egter/Projects/stimuli/pictures/ILSVRC2012_val_00042220.JPEG	107.01249575614929	
63	73.68880891799927	picture	0		118.0	61.0	/home/egter/Projects/stimuli/pictures/S_yt-1UFhynm5g6Y_266.png	107.02377986907959	0.9861209392547607
63	74.66116189956665	response	0	j		61.0	/home/egter/Projects/stimuli/pictures/S_yt-1UFhynm5g6Y_266.png	107.99613285064697	
64	74.67492985725403	picture	0		155.0	62.0	/home/egter/Projects/stimuli/pictures/n04366367_5814.JPEG	108.00990080833435	1.2986199855804443
64	75.96090292930603	response	0	k		62.0	/home/egter/Projects/stimuli/pictures/n04366367_5814.JPEG	109.29587388038635	
65	75.97354984283447	picture	0		142.0	63.0	/home/egter/Projects/stimuli/pictures/S_-CyI3hUfiOY_23.png	109.3085207939148	1.1805520057678223
65	77.14423680305481	response	0	k		63.0	/home/egter/Projects/stimuli/pictures/S_-CyI3hUfiOY_23.png	110.47920775413513	
66	77.1541018486023	picture	0		120.0	64.0	/home/egter/Projects/stimuli/pictures/S_pexels-diva-plavalaguna-6985395.png	110.48907279968262	0.9999790191650391
66	78.14422678947449	response	0	k		64.0	/home/egter/Projects/stimuli/pictures/S_pexels-diva-plavalaguna-6985395.png	111.47919774055481	
67	78.15408086776733	picture	0		114.0	65.0	/home/egter/Projects/stimuli/pictures/S_yt-LB9LoYfH_EA_15.png	111.48905181884766	0.9566690921783447
67	79.0942018032074	response	0	k		65.0	/home/egter/Projects/stimuli/pictures/S_yt-LB9LoYfH_EA_15.png	112.42917275428772	
68	79.11074995994568	picture	0		120.0	66.0	/home/egter/Projects/stimuli/pictures/R_S_yt-Fm97IY0Z2LU_79.png	112.445720911026	1.0018320083618164
68	80.10247993469238	response	0	j		66.0	/home/egter/Projects/stimuli/pictures/R_S_yt-Fm97IY0Z2LU_79.png	113.4374508857727	
69	80.1125819683075	picture	0		157.0	67.0	/home/egter/Projects/stimuli/pictures/R_S_yt-8vm83GUgYxI_1.png	113.44755291938782	1.3122680187225342
69	81.41113686561584	response	0	j		67.0	/home/egter/Projects/stimuli/pictures/R_S_yt-8vm83GUgYxI_1.png	114.74610781669617	
70	81.42484998703003	picture	0		108.0	68.0	/home/egter/Projects/stimuli/pictures/n01675722_5442.JPEG	114.75982093811035	0.9027409553527832
70	82.31917381286621	response	0	k		68.0	/home/egter/Projects/stimuli/pictures/n01675722_5442.JPEG	115.65414476394653	
71	82.32759094238281	picture	0		150.0	69.0	/home/egter/Projects/stimuli/pictures/S_yt-3JApfnMu5cU_378.png	115.66256189346313	1.2499709129333496
71	83.56917095184326	response	0	j		69.0	/home/egter/Projects/stimuli/pictures/S_yt-3JApfnMu5cU_378.png	116.90414190292358	
72	83.57756185531616	picture	0		158.0	70.0	/home/egter/Projects/stimuli/pictures/n02077923_10121.JPEG	116.91253280639648	1.3194611072540283
72	84.88582992553711	response	0	k		70.0	/home/egter/Projects/stimuli/pictures/n02077923_10121.JPEG	118.22080087661743	
73	84.89702296257019	picture	0		99.0	71.0	/home/egter/Projects/stimuli/pictures/n01704323_3004.JPEG	118.23199391365051	0.826387882232666
73	85.7108199596405	response	0	k		71.0	/home/egter/Projects/stimuli/pictures/n01704323_3004.JPEG	119.04579091072083	
74	85.72341084480286	picture	0		136.0	72.0	/home/egter/Projects/stimuli/pictures/n01753488_5338.JPEG	119.05838179588318	1.131932020187378
74	86.83735299110413	response	0	k		72.0	/home/egter/Projects/stimuli/pictures/n01753488_5338.JPEG	120.17232394218445	
75	86.85534286499023	picture	0		111.0	73.0	/home/egter/Projects/stimuli/pictures/ILSVRC2012_test_00042631.JPEG	120.19031381607056	0.9236090183258057
75	87.76916599273682	response	0	k		73.0	/home/egter/Projects/stimuli/pictures/ILSVRC2012_test_00042631.JPEG	121.10413694381714	
76	87.77895188331604	picture	0		113.0	74.0	/home/egter/Projects/stimuli/pictures/n07590611_8720.JPEG	121.11392283439636	0.9445221424102783
76	88.71081399917603	response	0	k		74.0	/home/egter/Projects/stimuli/pictures/n07590611_8720.JPEG	122.04578495025635	
77	88.72347402572632	picture	0		116.0	75.0	/home/egter/Projects/stimuli/pictures/n13037406_4960.JPEG	122.05844497680664	0.9652068614959717
77	89.67750191688538	response	0	k		75.0	/home/egter/Projects/stimuli/pictures/n13037406_4960.JPEG	123.0124728679657	
78	89.68868088722229	picture	0		126.0	76.0	/home/egter/Projects/stimuli/pictures/n02504013_13418.JPEG	123.02365183830261	1.0485649108886719
78	90.72748899459839	response	0	k		76.0	/home/egter/Projects/stimuli/pictures/n02504013_13418.JPEG	124.06245994567871	
79	90.73724579811096	picture	0		117.0	77.0	/home/egter/Projects/stimuli/pictures/S_yt-lzXao6Reec4_14.png	124.07221674919128	0.9791910648345947
79	91.70263600349426	response	0	j		77.0	/home/egter/Projects/stimuli/pictures/S_yt-lzXao6Reec4_14.png	125.03760695457458	
80	91.71643686294556	picture	0		108.0	78.0	/home/egter/Projects/stimuli/pictures/n02799071_1517.JPEG	125.05140781402588	0.9027400016784668
80	92.61079096794128	response	0	k		78.0	/home/egter/Projects/stimuli/pictures/n02799071_1517.JPEG	125.9457619190216	
81	92.61917686462402	picture	0		114.0	79.0	/home/egter/Projects/stimuli/pictures/n01806567_8377.JPEG	125.95414781570435	0.9514319896697998
81	93.56079483032227	response	0	k		79.0	/home/egter/Projects/stimuli/pictures/n01806567_8377.JPEG	126.89576578140259	
82	93.57060885429382	picture	0		99.0	80.0	/home/egter/Projects/stimuli/pictures/S_yt-rPYBHkUEwwc_10.png	126.90557980537415	0.8263499736785889
82	94.3858118057251	response	0	j		80.0	/home/egter/Projects/stimuli/pictures/S_yt-rPYBHkUEwwc_10.png	127.72078275680542	
83	94.39695882797241	picture	0		106.0	81.0	/home/egter/Projects/stimuli/pictures/R_S_yt-VxTTEZNJWjs_110.png	127.73192977905273	0.8819551467895508
83	95.26914191246033	response	0	k		81.0	/home/egter/Projects/stimuli/pictures/R_S_yt-VxTTEZNJWjs_110.png	128.60411286354065	
84	95.27891397476196	picture	0		188.0	82.0	/home/egter/Projects/stimuli/pictures/R_S_ILSVRC2015_train_00292005.png	128.61388492584229	1.569408893585205
84	96.82926297187805	response	0	j		82.0	/home/egter/Projects/stimuli/pictures/R_S_ILSVRC2015_train_00292005.png	130.16423392295837	
85	96.84832286834717	picture	0		123.0	83.0	/home/egter/Projects/stimuli/pictures/R_S_video-3.png	130.1832938194275	1.0208189487457275
85	97.85397982597351	response	0	j		83.0	/home/egter/Projects/stimuli/pictures/R_S_video-3.png	131.18895077705383	
86	97.8691418170929	picture	0		108.0	84.0	/home/egter/Projects/stimuli/pictures/R_S_comp_A012_C014_1223PT_v53_SDR_PS_FINAL_20180709_F0F8700_SDR_2K_AVC.png	131.20411276817322	0.9028182029724121
86	98.76082682609558	response	0	j		84.0	/home/egter/Projects/stimuli/pictures/R_S_comp_A012_C014_1223PT_v53_SDR_PS_FINAL_20180709_F0F8700_SDR_2K_AVC.png	132.0957977771759	
87	98.77196002006531	picture	0		100.0	85.0	/home/egter/Projects/stimuli/pictures/S_yt-Y32yFYRmNVU_22.png	132.10693097114563	0.833284854888916
87	99.59412002563477	response	0	k		85.0	/home/egter/Projects/stimuli/pictures/S_yt-Y32yFYRmNVU_22.png	132.9290909767151	
88	99.60524487495422	picture	0		113.0	86.0	/home/egter/Projects/stimuli/pictures/n03777568_2439.JPEG	132.94021582603455	0.9444599151611328
88	100.53591179847717	response	0	k		86.0	/home/egter/Projects/stimuli/pictures/n03777568_2439.JPEG	133.8708827495575	
89	100.54970479011536	picture	0		204.0	87.0	/home/egter/Projects/stimuli/pictures/S_yt-mQESmS4uqRU_208.png	133.88467574119568	1.7083251476287842
89	102.2373628616333	response	0	j		87.0	/home/egter/Projects/stimuli/pictures/S_yt-mQESmS4uqRU_208.png	135.57233381271362	
90	102.25802993774414	picture	0		94.0	88.0	/home/egter/Projects/stimuli/pictures/n04238763_6901.JPEG	135.59300088882446	0.791672945022583
90	103.0288758277893	response	0	k		88.0	/home/egter/Projects/stimuli/pictures/n04238763_6901.JPEG	136.36384677886963	
91	103.04970288276672	picture	0		226.0	89.0	/home/egter/Projects/stimuli/pictures/S_yt-DMb7ulzm5DM_20.png	136.38467383384705	1.8888189792633057
91	104.92751789093018	response	0	k		89.0	/home/egter/Projects/stimuli/pictures/S_yt-DMb7ulzm5DM_20.png	138.2624888420105	
92	104.93852186203003	picture	0		107.0	90.0	/home/egter/Projects/stimuli/pictures/n02074367_2348.JPEG	138.27349281311035	0.88885498046875
92	105.81912279129028	response	0	k		90.0	/home/egter/Projects/stimuli/pictures/n02074367_2348.JPEG	139.1540937423706	
93	105.82737684249878	picture	0		174.0	91.0	/home/egter/Projects/stimuli/pictures/R_S_yt-deiWoIfK6vg_44.png	139.1623477935791	1.4513740539550781
93	107.26227498054504	response	0	j		91.0	/home/egter/Projects/stimuli/pictures/R_S_yt-deiWoIfK6vg_44.png	140.59724593162537	
94	107.27875089645386	picture	0		122.0	92.0	/home/egter/Projects/stimuli/pictures/S_2RTDFkjD6vI_93.png	140.61372184753418	1.0208420753479004
94	108.28579497337341	response	0	j		92.0	/home/egter/Projects/stimuli/pictures/S_2RTDFkjD6vI_93.png	141.62076592445374	
95	108.29959297180176	picture	0		101.0	93.0	/home/egter/Projects/stimuli/pictures/R_S_yt-waWM9vAfsIw_116.png	141.63456392288208	0.8473658561706543
95	109.1357319355011	response	0	k		93.0	/home/egter/Projects/stimuli/pictures/R_S_yt-waWM9vAfsIw_116.png	142.47070288658142	
96	109.14695882797241	picture	0		99.0	94.0	/home/egter/Projects/stimuli/pictures/ILSVRC2012_test_00022914.JPEG	142.48192977905273	0.8263120651245117
96	109.96071100234985	response	0	k		94.0	/home/egter/Projects/stimuli/pictures/ILSVRC2012_test_00022914.JPEG	143.29568195343018	
97	109.97327089309692	picture	0		109.0	95.0	/home/egter/Projects/stimuli/pictures/R_S_yt-ZBhTpmrAlUY_70.png	143.30824184417725	0.9096949100494385
97	110.86240291595459	response	0	j		95.0	/home/egter/Projects/stimuli/pictures/R_S_yt-ZBhTpmrAlUY_70.png	144.1973738670349	
98	110.88296580314636	picture	0		148.0	96.0	/home/egter/Projects/stimuli/pictures/S_ILSVRC2015_train_00418000.png	144.21793675422668	1.2360270023345947
98	112.1107268333435	response	0	j		96.0	/home/egter/Projects/stimuli/pictures/S_ILSVRC2015_train_00418000.png	145.44569778442383	
99	112.11899280548096	picture	0		190.0	97.0	/home/egter/Projects/stimuli/pictures/R_S_yt-T_qmGKyeKNU_32.png	145.45396375656128	1.5833280086517334
99	113.69396495819092	response	0	k		97.0	/home/egter/Projects/stimuli/pictures/R_S_yt-T_qmGKyeKNU_32.png	147.02893590927124	
100	113.70232081413269	picture	0		112.0	98.0	/home/egter/Projects/stimuli/pictures/n01641577_6777.JPEG	147.037291765213	0.9375190734863281
100	114.62737393379211	response	0	k		98.0	/home/egter/Projects/stimuli/pictures/n01641577_6777.JPEG	147.96234488487244	
101	114.63983988761902	picture	0		101.0	99.0	/home/egter/Projects/stimuli/pictures/n02268443_26935.JPEG	147.97481083869934	0.8402800559997559
101	115.4690330028534	response	0	k		99.0	/home/egter/Projects/stimuli/pictures/n02268443_26935.JPEG	148.80400395393372	
102	115.48011994361877	picture	0		117.0	100.0	/home/egter/Projects/stimuli/pictures/S_yt-hvuC_2YXsTQ_73.png	148.8150908946991	0.9722900390625
102	116.43721890449524	response	0	j		100.0	/home/egter/Projects/stimuli/pictures/S_yt-hvuC_2YXsTQ_73.png	149.77218985557556	
103	116.45240998268127	picture	0		151.0	101.0	/home/egter/Projects/stimuli/pictures/S_yt-5AI_SyK5sg8_112.png	149.7873809337616	1.2638280391693115
103	117.70253586769104	response	0	j		101.0	/home/egter/Projects/stimuli/pictures/S_yt-5AI_SyK5sg8_112.png	151.03750681877136	
104	117.71623802185059	picture	0		119.0	102.0	/home/egter/Projects/stimuli/pictures/S_yt-T_qmGKyeKNU_32.png	151.0512089729309	0.9999198913574219
104	118.70240688323975	response	0	k		102.0	/home/egter/Projects/stimuli/pictures/S_yt-T_qmGKyeKNU_32.png	152.03737783432007	
105	118.71615791320801	picture	0		123.0	103.0	/home/egter/Projects/stimuli/pictures/S_yt-BG-G7m5wLZ4_94.png	152.05112886428833	1.0277729034423828
105	119.73569798469543	response	0	k		103.0	/home/egter/Projects/stimuli/pictures/S_yt-BG-G7m5wLZ4_94.png	153.07066893577576	
106	119.74393081665039	picture	0		136.0	104.0	/home/egter/Projects/stimuli/pictures/S_yt-2wb0b0pdSxU_59.png	153.0789017677307	1.1389060020446777
106	120.86226987838745	response	0	k		104.0	/home/egter/Projects/stimuli/pictures/S_yt-2wb0b0pdSxU_59.png	154.19724082946777	
107	120.88283681869507	picture	0		195.0	105.0	/home/egter/Projects/stimuli/pictures/S_yt-XY1n_Oze1kQ_9.png	154.2178077697754	1.6319420337677002
107	122.50235795974731	response	0	j		105.0	/home/egter/Projects/stimuli/pictures/S_yt-XY1n_Oze1kQ_9.png	155.83732891082764	
108	122.51477885246277	picture	0		102.0	106.0	/home/egter/Projects/stimuli/pictures/n02105162_2318.JPEG	155.8497498035431	0.8472061157226562
108	123.35232496261597	response	0	k		106.0	/home/egter/Projects/stimuli/pictures/n02105162_2318.JPEG	156.6872959136963	
109	123.36198496818542	picture	0		109.0	107.0	/home/egter/Projects/stimuli/pictures/n02487347_1261.JPEG	156.69695591926575	0.9096839427947998
109	124.25396394729614	response	0	k		107.0	/home/egter/Projects/stimuli/pictures/n02487347_1261.JPEG	157.58893489837646	
110	124.27166891098022	picture	0		149.0	108.0	/home/egter/Projects/stimuli/pictures/R_S_yt-QJHe-CoK4iI_170.png	157.60663986206055	1.243114948272705
110	125.50234985351562	response	0	j		108.0	/home/egter/Projects/stimuli/pictures/R_S_yt-QJHe-CoK4iI_170.png	158.83732080459595	
111	125.51478385925293	picture	0		189.0	109.0	/home/egter/Projects/stimuli/pictures/R_S_yt-CZ2qiY-kS7Y_105.png	158.84975481033325	1.5763471126556396
111	127.07734680175781	response	0	k		109.0	/home/egter/Projects/stimuli/pictures/R_S_yt-CZ2qiY-kS7Y_105.png	160.41231775283813	
112	127.09113097190857	picture	0		122.0	110.0	/home/egter/Projects/stimuli/pictures/n03201208_3545.JPEG	160.4261019229889	1.020798921585083
112	128.10234880447388	response	0	k		110.0	/home/egter/Projects/stimuli/pictures/n03201208_3545.JPEG	161.4373197555542	
113	128.11192989349365	picture	0		107.0	111.0	/home/egter/Projects/stimuli/pictures/n01728920_2783.JPEG	161.44690084457397	0.8958330154418945
113	128.99400281906128	response	0	k		111.0	/home/egter/Projects/stimuli/pictures/n01728920_2783.JPEG	162.3289737701416	
114	129.00776290893555	picture	0		122.0	112.0	/home/egter/Projects/stimuli/pictures/S_yt-BeF1BUrjY_8_117.png	162.34273386001587	1.0208120346069336
114	130.01899099349976	response	0	k		112.0	/home/egter/Projects/stimuli/pictures/S_yt-BeF1BUrjY_8_117.png	163.35396194458008	
115	130.02857494354248	picture	0		112.0	113.0	/home/egter/Projects/stimuli/pictures/ILSVRC2012_test_00041371.JPEG	163.3635458946228	0.9375190734863281
115	130.95234298706055	response	0	k		113.0	/home/egter/Projects/stimuli/pictures/ILSVRC2012_test_00041371.JPEG	164.28731393814087	
116	130.9660940170288	picture	0		123.0	114.0	/home/egter/Projects/stimuli/pictures/R_S_g201_TH_804_A001_8_SDR_20191031_SDR_2K_AVC.png	164.30106496810913	1.0277879238128662
116	131.9856288433075	response	0	j		114.0	/home/egter/Projects/stimuli/pictures/R_S_g201_TH_804_A001_8_SDR_20191031_SDR_2K_AVC.png	165.32059979438782	
117	131.99388194084167	picture	0		143.0	115.0	/home/egter/Projects/stimuli/pictures/S_yt-ChAhBD9LrsU_223.png	165.328852891922	1.1943719387054443
117	133.1772518157959	response	0	k		115.0	/home/egter/Projects/stimuli/pictures/S_yt-ChAhBD9LrsU_223.png	166.51222276687622	
118	133.18825387954712	picture	0		109.0	116.0	/home/egter/Projects/stimuli/pictures/n01631663_3521.JPEG	166.52322483062744	0.9097881317138672
118	134.08567190170288	response	0	k		116.0	/home/egter/Projects/stimuli/pictures/n01631663_3521.JPEG	167.4206428527832	
119	134.098042011261	picture	0		143.0	117.0	/home/egter/Projects/stimuli/pictures/S_yt-0Sph9-EZQRA_35.png	167.4330129623413	1.1874809265136719
119	135.27056288719177	response	0	k		117.0	/home/egter/Projects/stimuli/pictures/S_yt-0Sph9-EZQRA_35.png	168.6055338382721	
120	135.28552293777466	picture	0		135.0	118.0	/home/egter/Projects/stimuli/pictures/S_cST9H3zu3zQ_126.png	168.62049388885498	1.124993085861206
120	136.40228581428528	response	0	k		118.0	/home/egter/Projects/stimuli/pictures/S_cST9H3zu3zQ_126.png	169.7372567653656	
121	136.41051602363586	picture	0		106.0	119.0	/home/egter/Projects/stimuli/pictures/R_S_yt--cAfxH1WnPo_3.png	169.7454869747162	0.8888149261474609
121	137.2856409549713	response	0	j		119.0	/home/egter/Projects/stimuli/pictures/R_S_yt--cAfxH1WnPo_3.png	170.62061190605164	
122	137.29933094978333	picture	0		116.0	120.0	/home/egter/Projects/stimuli/pictures/n01740131_12845.JPEG	170.63430190086365	0.972243070602417
122	138.25384783744812	response	0	k		120.0	/home/egter/Projects/stimuli/pictures/n01740131_12845.JPEG	171.58881878852844	
123	138.27157402038574	picture	0		251.0	121.0	/home/egter/Projects/stimuli/pictures/S_yt-y6zr69M0yHI_76.png	171.60654497146606	2.097263813018799
123	140.35230898857117	response	0	j		121.0	/home/egter/Projects/stimuli/pictures/S_yt-y6zr69M0yHI_76.png	173.6872799396515	
124	140.36883783340454	picture	0		73.0	122.0	/home/egter/Projects/stimuli/pictures/n02749479_4821.JPEG	173.70380878448486	0.6110141277313232
124	140.96893286705017	response	0	k		122.0	/home/egter/Projects/stimuli/pictures/n02749479_4821.JPEG	174.3039038181305	
125	140.97985196113586	picture	0		88.0	123.0	/home/egter/Projects/stimuli/pictures/S_video_inspire_uk_london_hampstead-heath_003.png	174.3148229122162	0.7361159324645996
125	141.70219087600708	response	0	k		123.0	/home/egter/Projects/stimuli/pictures/S_video_inspire_uk_london_hampstead-heath_003.png	175.0371618270874	
126	141.71596789360046	picture	0		85.0	124.0	/home/egter/Projects/stimuli/pictures/n02114855_15185.JPEG	175.0509388446808	0.7152841091156006
126	142.41897082328796	response	0	k		124.0	/home/egter/Projects/stimuli/pictures/n02114855_15185.JPEG	175.7539417743683	
127	142.43125200271606	picture	0		77.0	125.0	/home/egter/Projects/stimuli/pictures/n02096177_10984.JPEG	175.7662229537964	0.6388659477233887
127	143.05386781692505	response	0	k		125.0	/home/egter/Projects/stimuli/pictures/n02096177_10984.JPEG	176.38883876800537	
128	143.07011795043945	picture	0		87.0	126.0	/home/egter/Projects/stimuli/pictures/S_video_inspire_oregon_lone-ranch-beach_00001.png	176.40508890151978	0.729158878326416
128	143.78568696975708	response	0	k		126.0	/home/egter/Projects/stimuli/pictures/S_video_inspire_oregon_lone-ranch-beach_00001.png	177.1206579208374	
129	143.79927682876587	picture	0		184.0	127.0	/home/egter/Projects/stimuli/pictures/n04335435_7886.JPEG	177.1342477798462	1.5417101383209229
129	145.32739901542664	response	0	k		127.0	/home/egter/Projects/stimuli/pictures/n04335435_7886.JPEG	178.66236996650696	
130	145.3409869670868	picture	0		119.0	128.0	/home/egter/Projects/stimuli/pictures/S_video-8.png	178.67595791816711	0.999953031539917
130	146.32735681533813	response	0	j		128.0	/home/egter/Projects/stimuli/pictures/S_video-8.png	179.66232776641846	
131	146.3409399986267	picture	0		228.0	129.0	/home/egter/Projects/stimuli/pictures/S_bing-www_dailymotion_com_video_x4kcklg_53.png	179.67591094970703	1.9028618335723877
131	148.23561596870422	response	0	j		129.0	/home/egter/Projects/stimuli/pictures/S_bing-www_dailymotion_com_video_x4kcklg_53.png	181.57058691978455	
132	148.2438018321991	picture	0		102.0	130.0	/home/egter/Projects/stimuli/pictures/S_comp_A012_C014_1223PT_v53_SDR_PS_FINAL_20180709_F0F8700_SDR_2K_AVC.png	181.57877278327942	0.8540799617767334
132	149.07881999015808	response	0	j		130.0	/home/egter/Projects/stimuli/pictures/S_comp_A012_C014_1223PT_v53_SDR_PS_FINAL_20180709_F0F8700_SDR_2K_AVC.png	182.4137909412384	
133	149.09788179397583	picture	0		101.0	131.0	/home/egter/Projects/stimuli/pictures/n02099267_858.JPEG	182.43285274505615	0.8402621746063232
133	149.9272358417511	response	0	k		131.0	/home/egter/Projects/stimuli/pictures/n02099267_858.JPEG	183.26220679283142	
134	149.93814396858215	picture	0		156.0	132.0	/home/egter/Projects/stimuli/pictures/n07590611_16771.JPEG	183.27311491966248	1.298598051071167
134	151.22726678848267	response	0	k		132.0	/home/egter/Projects/stimuli/pictures/n07590611_16771.JPEG	184.562237739563	
135	151.23674201965332	picture	0		110.0	133.0	/home/egter/Projects/stimuli/pictures/n03982430_11979.JPEG	184.57171297073364	0.9166469573974609
135	152.14390397071838	response	0	k		133.0	/home/egter/Projects/stimuli/pictures/n03982430_11979.JPEG	185.4788749217987	
136	152.15338897705078	picture	0		94.0	134.0	/home/egter/Projects/stimuli/pictures/n03709823_25233.JPEG	185.4883599281311	0.784714937210083
136	152.92725086212158	response	0	k		134.0	/home/egter/Projects/stimuli/pictures/n03709823_25233.JPEG	186.2622218132019	
137	152.93810391426086	picture	0		124.0	135.0	/home/egter/Projects/stimuli/pictures/S_yt-nA-1mD3ky2c_37.png	186.2730748653412	1.0347230434417725
137	153.9605429172516	response	0	k		135.0	/home/egter/Projects/stimuli/pictures/S_yt-nA-1mD3ky2c_37.png	187.2955138683319	
138	153.97282695770264	picture	0		130.0	136.0	/home/egter/Projects/stimuli/pictures/n02074367_7561.JPEG	187.30779790878296	1.0833020210266113
138	155.04384398460388	response	0	k		136.0	/home/egter/Projects/stimuli/pictures/n02074367_7561.JPEG	188.3788149356842	
139	155.05612897872925	picture	0		86.0	137.0	/home/egter/Projects/stimuli/pictures/n01773797_9344.JPEG	188.39109992980957	0.715256929397583
139	155.7605369091034	response	0	k		137.0	/home/egter/Projects/stimuli/pictures/n01773797_9344.JPEG	189.09550786018372	
140	155.77138590812683	picture	0		112.0	138.0	/home/egter/Projects/stimuli/pictures/R_S_ILSVRC2015_train_00405000.png	189.10635685920715	0.930732011795044
140	156.69382882118225	response	0	k		138.0	/home/egter/Projects/stimuli/pictures/R_S_ILSVRC2015_train_00405000.png	190.02879977226257	
141	156.70211791992188	picture	0		76.0	139.0	/home/egter/Projects/stimuli/pictures/n01744401_1517.JPEG	190.0370888710022	0.6387689113616943
141	157.32719588279724	response	0	k		139.0	/home/egter/Projects/stimuli/pictures/n01744401_1517.JPEG	190.66216683387756	
142	157.34088683128357	picture	0		195.0	140.0	/home/egter/Projects/stimuli/pictures/S_yt-9CY7rDYBYUI_40.png	190.6758577823639	1.6318600177764893
142	158.96063995361328	response	0	k		140.0	/home/egter/Projects/stimuli/pictures/S_yt-9CY7rDYBYUI_40.png	192.2956109046936	
143	158.97274684906006	picture	0		107.0	141.0	/home/egter/Projects/stimuli/pictures/S_yt-aD-EAuBdpUo_163.png	192.30771780014038	0.8889031410217285
143	159.8522069454193	response	0	k		141.0	/home/egter/Projects/stimuli/pictures/S_yt-aD-EAuBdpUo_163.png	193.18717789649963	
144	159.8616499900818	picture	0		214.0	142.0	/home/egter/Projects/stimuli/pictures/ILSVRC2012_test_00082225.JPEG	193.1966209411621	1.784714937210083
144	161.63561987876892	response	0	k		142.0	/home/egter/Projects/stimuli/pictures/ILSVRC2012_test_00082225.JPEG	194.97059082984924	
145	161.64636492729187	picture	0		117.0	143.0	/home/egter/Projects/stimuli/pictures/R_S_yt-9CY7rDYBYUI_40.png	194.9813358783722	0.9723999500274658
145	162.6105318069458	response	0	k		143.0	/home/egter/Projects/stimuli/pictures/R_S_yt-9CY7rDYBYUI_40.png	195.94550275802612	
146	162.61876487731934	picture	0		120.0	144.0	/home/egter/Projects/stimuli/pictures/S_yt-n6aLw10f2Yw_317.png	195.95373582839966	0.99993896484375
146	163.61052680015564	response	0	j		144.0	/home/egter/Projects/stimuli/pictures/S_yt-n6aLw10f2Yw_317.png	196.94549775123596	
147	163.6187038421631	picture	0		138.0	145.0	/home/egter/Projects/stimuli/pictures/R_S_ILSVRC2015_train_00371010.png	196.9536747932434	1.1526200771331787
147	164.76050996780396	response	0	j		145.0	/home/egter/Projects/stimuli/pictures/R_S_ILSVRC2015_train_00371010.png	198.09548091888428	
148	164.77132391929626	picture	0		112.0	146.0	/home/egter/Projects/stimuli/pictures/n09468604_68244.JPEG	198.1062948703766	0.9307329654693604
148	165.69386196136475	response	0	k		146.0	/home/egter/Projects/stimuli/pictures/n09468604_68244.JPEG	199.02883291244507	
149	165.70205688476562	picture	0		102.0	147.0	/home/egter/Projects/stimuli/pictures/n03345487_2994.JPEG	199.03702783584595	0.8539619445800781
149	166.54385089874268	response	0	k		147.0	/home/egter/Projects/stimuli/pictures/n03345487_2994.JPEG	199.878821849823	
150	166.5560188293457	picture	0		193.0	148.0	/home/egter/Projects/stimuli/pictures/S_video_inspire_texas_pecos_foggy-landscape_00018.png	199.89098978042603	1.6180591583251953
150	168.16059589385986	response	0	j		148.0	/home/egter/Projects/stimuli/pictures/S_video_inspire_texas_pecos_foggy-landscape_00018.png	201.49556684494019	
151	168.1740779876709	picture	0		85.0	149.0	/home/egter/Projects/stimuli/pictures/R_S_yt-Z0nfPTEEOLo_85.png	201.50904893875122	0.7152259349822998
151	168.8703579902649	response	0	k		149.0	/home/egter/Projects/stimuli/pictures/R_S_yt-Z0nfPTEEOLo_85.png	202.20532894134521	
152	168.8893039226532	picture	0		105.0	150.0	/home/egter/Projects/stimuli/pictures/n02687172_773.JPEG	202.22427487373352	0.8750300407409668
152	169.75217390060425	response	0	k		150.0	/home/egter/Projects/stimuli/pictures/n02687172_773.JPEG	203.08714485168457	
153	169.76433396339417	picture	0		119.0	151.0	/home/egter/Projects/stimuli/pictures/R_S_I003_C015_SDR_2K_AVC.png	203.0993049144745	0.9930658340454102
153	170.74382901191711	response	0	j		151.0	/home/egter/Projects/stimuli/pictures/R_S_I003_C015_SDR_2K_AVC.png	204.07879996299744	
154	170.75739979743958	picture	0		128.0	152.0	/home/egter/Projects/stimuli/pictures/S_yt-JizcV7kYuqM_132.png	204.0923707485199	1.0696430206298828
154	171.81884384155273	response	0	k		152.0	/home/egter/Projects/stimuli/pictures/S_yt-JizcV7kYuqM_132.png	205.15381479263306	
155	171.82704281806946	picture	0		137.0	153.0	/home/egter/Projects/stimuli/pictures/n04090263_5905.JPEG	205.16201376914978	1.1456291675567627
155	172.96050786972046	response	0	k		153.0	/home/egter/Projects/stimuli/pictures/n04090263_5905.JPEG	206.29547882080078	
156	172.97267198562622	picture	0		111.0	154.0	/home/egter/Projects/stimuli/pictures/n01630670_4369.JPEG	206.30764293670654	0.9235990047454834
156	173.87871289253235	response	0	k		154.0	/home/egter/Projects/stimuli/pictures/n01630670_4369.JPEG	207.21368384361267	
157	173.8962709903717	picture	0		125.0	155.0	/home/egter/Projects/stimuli/pictures/R_S_yt-PP93D7b7Ni4_10.png	207.23124194145203	1.0416598320007324
157	174.92718386650085	response	0	k		155.0	/home/egter/Projects/stimuli/pictures/R_S_yt-PP93D7b7Ni4_10.png	208.26215481758118	
158	174.93793082237244	picture	0		149.0	156.0	/home/egter/Projects/stimuli/pictures/n02667093_5587.JPEG	208.27290177345276	1.2429931163787842
158	176.1689338684082	response	0	k		156.0	/home/egter/Projects/stimuli/pictures/n02667093_5587.JPEG	209.50390481948853	
159	176.18092393875122	picture	0		121.0	157.0	/home/egter/Projects/stimuli/pictures/S_yt-D9uD7yM6bxQ_269.png	209.51589488983154	1.0069799423217773
159	177.17717289924622	response	0	j		157.0	/home/egter/Projects/stimuli/pictures/S_yt-D9uD7yM6bxQ_269.png	210.51214385032654	
160	177.187903881073	picture	0		110.0	158.0	/home/egter/Projects/stimuli/pictures/S_production_ID_5139371.png	210.52287483215332	0.9165940284729004
160	178.09376192092896	response	0	j		158.0	/home/egter/Projects/stimuli/pictures/S_production_ID_5139371.png	211.42873287200928	
161	178.1044979095459	picture	0		107.0	159.0	/home/egter/Projects/stimuli/pictures/S_yt-UmLeGNcqouI_718.png	211.43946886062622	0.8891808986663818
161	178.98551201820374	response	0	j		159.0	/home/egter/Projects/stimuli/pictures/S_yt-UmLeGNcqouI_718.png	212.32048296928406	
162	178.99367880821228	picture	0		126.0	160.0	/home/egter/Projects/stimuli/pictures/R_S_yt-a9bnYU0Gnxg_59.png	212.3286497592926	1.0553581714630127
162	180.03546285629272	response	0	j		160.0	/home/egter/Projects/stimuli/pictures/R_S_yt-a9bnYU0Gnxg_59.png	213.37043380737305	
163	180.0490369796753	picture	0		108.0	161.0	/home/egter/Projects/stimuli/pictures/n13052670_3309.JPEG	213.38400793075562	0.9030179977416992
163	180.94384098052979	response	0	k		161.0	/home/egter/Projects/stimuli/pictures/n13052670_3309.JPEG	214.2788119316101	
164	180.952054977417	picture	0		127.0	162.0	/home/egter/Projects/stimuli/pictures/S_yt-ORE2V_VvOpg_67.png	214.28702592849731	1.062135934829712
164	182.00210094451904	response	0	k		162.0	/home/egter/Projects/stimuli/pictures/S_yt-ORE2V_VvOpg_67.png	215.33707189559937	
165	182.0141909122467	picture	0		99.0	163.0	/home/egter/Projects/stimuli/pictures/n02094258_5630.JPEG	215.34916186332703	0.8333640098571777
165	182.83546900749207	response	0	k		163.0	/home/egter/Projects/stimuli/pictures/n02094258_5630.JPEG	216.1704399585724	
166	182.84755492210388	picture	0		98.0	164.0	/home/egter/Projects/stimuli/pictures/n01644900_20697.JPEG	216.1825258731842	0.8263978958129883
166	183.66044878959656	response	0	k		164.0	/home/egter/Projects/stimuli/pictures/n01644900_20697.JPEG	216.99541974067688	
167	183.67395281791687	picture	0		127.0	165.0	/home/egter/Projects/stimuli/pictures/R_S_yt-SS7pSyb0_d0_32.png	217.0089237689972	1.0624752044677734
167	184.72715282440186	response	0	k		165.0	/home/egter/Projects/stimuli/pictures/R_S_yt-SS7pSyb0_d0_32.png	218.06212377548218	
168	184.73642802238464	picture	0		129.0	166.0	/home/egter/Projects/stimuli/pictures/S_yt-8vm83GUgYxI_1.png	218.07139897346497	1.0764079093933105
168	185.8021240234375	response	0	j		166.0	/home/egter/Projects/stimuli/pictures/S_yt-8vm83GUgYxI_1.png	219.13709497451782	
169	185.81283593177795	picture	0		207.0	167.0	/home/egter/Projects/stimuli/pictures/S_P007_C027_UHD_SDR_2K_AVC.png	219.14780688285828	1.7224400043487549
169	187.52712202072144	response	0	k		167.0	/home/egter/Projects/stimuli/pictures/S_P007_C027_UHD_SDR_2K_AVC.png	220.86209297180176	
170	187.5352759361267	picture	0		124.0	168.0	/home/egter/Projects/stimuli/pictures/R_S_ILSVRC2015_train_00415007.png	220.87024688720703	1.0344269275665283
170	188.56040692329407	response	0	k		168.0	/home/egter/Projects/stimuli/pictures/R_S_ILSVRC2015_train_00415007.png	221.8953778743744	
171	188.56970286369324	picture	0		92.0	169.0	/home/egter/Projects/stimuli/pictures/n04523525_23494.JPEG	221.90467381477356	0.7708370685577393
171	189.32709002494812	response	0	k		169.0	/home/egter/Projects/stimuli/pictures/n04523525_23494.JPEG	222.66206097602844	
172	189.34053993225098	picture	0		111.0	170.0	/home/egter/Projects/stimuli/pictures/S_yt-ZYrQIw9VUok_111.png	222.6755108833313	0.9305419921875
172	190.26050400733948	response	0	j		170.0	/home/egter/Projects/stimuli/pictures/S_yt-ZYrQIw9VUok_111.png	223.5954749584198	
173	190.27108192443848	picture	0		116.0	171.0	/home/egter/Projects/stimuli/pictures/S_ILSVRC2015_train_00497001.png	223.6060528755188	0.9652740955352783
173	191.2271339893341	response	0	j		171.0	/home/egter/Projects/stimuli/pictures/S_ILSVRC2015_train_00497001.png	224.56210494041443	
174	191.23635601997375	picture	0		116.0	172.0	/home/egter/Projects/stimuli/pictures/S_yt-PaxmJhMoP3w_87.png	224.57132697105408	0.96561598777771
174	192.19376802444458	response	0	k		172.0	/home/egter/Projects/stimuli/pictures/S_yt-PaxmJhMoP3w_87.png	225.5287389755249	
175	192.20197200775146	picture	0		101.0	173.0	/home/egter/Projects/stimuli/pictures/n02701002_3387.JPEG	225.5369429588318	0.8468408584594727
175	193.03535795211792	response	0	k		173.0	/home/egter/Projects/stimuli/pictures/n02701002_3387.JPEG	226.37032890319824	
176	193.04881286621094	picture	0		245.0	174.0	/home/egter/Projects/stimuli/pictures/S_PA_A001_C007_SDR_20190717_SDR_2K_AVC.png	226.38378381729126	2.0486061573028564
176	195.07864499092102	response	0	j		174.0	/home/egter/Projects/stimuli/pictures/S_PA_A001_C007_SDR_20190717_SDR_2K_AVC.png	228.41361594200134	
177	195.0974190235138	picture	0		119.0	175.0	/home/egter/Projects/stimuli/pictures/n03272562_4416.JPEG	228.43238997459412	0.9930329322814941
177	196.07033395767212	response	0	k		175.0	/home/egter/Projects/stimuli/pictures/n03272562_4416.JPEG	229.40530490875244	
178	196.0904519557953	picture	0		105.0	176.0	/home/egter/Projects/stimuli/pictures/n04118776_27750.JPEG	229.4254229068756	0.8819489479064941
178	196.9603898525238	response	0	k		176.0	/home/egter/Projects/stimuli/pictures/n04118776_27750.JPEG	230.29536080360413	
179	196.97240090370178	picture	0		151.0	177.0	/home/egter/Projects/stimuli/pictures/R_S_pexels-rodnae-productions-5993654.png	230.3073718547821	1.2569730281829834
179	198.21872687339783	response	0	k		177.0	/home/egter/Projects/stimuli/pictures/R_S_pexels-rodnae-productions-5993654.png	231.55369782447815	
180	198.22937393188477	picture	0		105.0	178.0	/home/egter/Projects/stimuli/pictures/n02910353_8726.JPEG	231.5643448829651	0.8819630146026611
180	199.09526801109314	response	0	k		178.0	/home/egter/Projects/stimuli/pictures/n02910353_8726.JPEG	232.43023896217346	
181	199.11133694648743	stim	0		294.0			232.44630789756775	2.4513518810272217
181	201.55211400985718	response	0	space				234.8870849609375	
