trial_nr	onset	event_type	phase	response	nr_frames	picture_index	picture_file	onset_abs	duration
0	0.01848912239074707	stim	0		8593.0			22.953747034072876	71.62862086296082
0	71.63014793395996	response	0	space				94.56540584564209	
2	71.64710998535156	picture	0		8816.0	0.0	/home/egter/Projects/stimuli/pictures/n09288635_4175.JPEG	94.58236789703369	73.47403812408447
2	145.10481214523315	response	0	k		0.0	/home/egter/Projects/stimuli/pictures/n09288635_4175.JPEG	168.04007005691528	
3	145.12114810943604	picture	0		251.0	1.0	/home/egter/Projects/stimuli/pictures/n01728920_7410.JPEG	168.05640602111816	2.094588041305542
3	147.20462012290955	response	0	k		1.0	/home/egter/Projects/stimuli/pictures/n01728920_7410.JPEG	170.13987803459167	
4	147.21573615074158	picture	0		97.0	2.0	/home/egter/Projects/stimuli/pictures/S_yt-uSHBdUi8_V0_24.png	170.1509940624237	0.805534839630127
4	148.0130250453949	response	0	j		2.0	/home/egter/Projects/stimuli/pictures/S_yt-uSHBdUi8_V0_24.png	170.94828295707703	
5	148.0212709903717	picture	0		111.0	3.0	/home/egter/Projects/stimuli/pictures/n11939491_51261.JPEG	170.95652890205383	0.9305751323699951
5	148.93803095817566	response	0	k		3.0	/home/egter/Projects/stimuli/pictures/n11939491_51261.JPEG	171.8732888698578	
6	148.9518461227417	picture	0		102.0	4.0	/home/egter/Projects/stimuli/pictures/n03529860_2779.JPEG	171.88710403442383	0.8541510105133057
6	149.79623794555664	response	0	k		4.0	/home/egter/Projects/stimuli/pictures/n03529860_2779.JPEG	172.73149585723877	
7	149.805997133255	picture	0		106.0	5.0	/home/egter/Projects/stimuli/pictures/R_S_ILSVRC2015_train_00595000.png	172.74125504493713	0.8819348812103271
7	150.6795949935913	response	0	j		5.0	/home/egter/Projects/stimuli/pictures/R_S_ILSVRC2015_train_00595000.png	173.61485290527344	
8	150.68793201446533	picture	0		155.0	6.0	/home/egter/Projects/stimuli/pictures/S_yt-oASqBTM-5fw_73.png	173.62318992614746	1.291646957397461
8	151.96436595916748	response	0	j		6.0	/home/egter/Projects/stimuli/pictures/S_yt-oASqBTM-5fw_73.png	174.8996238708496	
9	151.9795789718628	picture	0		109.0	7.0	/home/egter/Projects/stimuli/pictures/R_S_wc-DgBY_btLlgBC_19.png	174.91483688354492	0.9096860885620117
9	152.87961292266846	response	0	j		7.0	/home/egter/Projects/stimuli/pictures/R_S_wc-DgBY_btLlgBC_19.png	175.8148708343506	
10	152.8892650604248	picture	0		96.0	8.0	/home/egter/Projects/stimuli/pictures/R_S_yt-tX3slAQb9yY_13.png	175.82452297210693	0.798832893371582
10	153.67959904670715	response	0	j		8.0	/home/egter/Projects/stimuli/pictures/R_S_yt-tX3slAQb9yY_13.png	176.61485695838928	
11	153.6880979537964	picture	0		177.0	9.0	/home/egter/Projects/stimuli/pictures/S_yt_R-3UiB_5en3gg_145.png	176.62335586547852	1.4790830612182617
11	155.14791011810303	response	0	k		9.0	/home/egter/Projects/stimuli/pictures/S_yt_R-3UiB_5en3gg_145.png	178.08316802978516	
12	155.16718101501465	picture	0		113.0	10.0	/home/egter/Projects/stimuli/pictures/R_S_Y005_C003_SDR_2K_AVC.png	178.10243892669678	0.9373481273651123
12	156.09619903564453	response	0	k		10.0	/home/egter/Projects/stimuli/pictures/R_S_Y005_C003_SDR_2K_AVC.png	179.03145694732666	
13	156.10452914237976	picture	0		114.0	11.0	/home/egter/Projects/stimuli/pictures/S_pexels-c-technical-6754008.png	179.0397870540619	0.958441972732544
13	157.04625606536865	response	0	j		11.0	/home/egter/Projects/stimuli/pictures/S_pexels-c-technical-6754008.png	179.98151397705078	
14	157.0629711151123	picture	0		145.0	12.0	/home/egter/Projects/stimuli/pictures/S_yt-fTlJIM1TtOw_28.png	179.99822902679443	1.2081818580627441
14	158.26290011405945	response	0	k		12.0	/home/egter/Projects/stimuli/pictures/S_yt-fTlJIM1TtOw_28.png	181.19815802574158	
15	158.27115297317505	picture	0		118.0	13.0	/home/egter/Projects/stimuli/pictures/n01630670_8298.JPEG	181.20641088485718	0.9861719608306885
15	159.24618291854858	response	0	k		13.0	/home/egter/Projects/stimuli/pictures/n01630670_8298.JPEG	182.1814408302307	
16	159.25732493400574	picture	0		80.0	14.0	/home/egter/Projects/stimuli/pictures/R_S_ILSVRC2015_train_00538000.png	182.19258284568787	0.666593074798584
16	159.91287899017334	response	0	j		14.0	/home/egter/Projects/stimuli/pictures/R_S_ILSVRC2015_train_00538000.png	182.84813690185547	
17	159.92391800880432	picture	0		91.0	15.0	/home/egter/Projects/stimuli/pictures/S_Pz_NXxhQCJc_70.png	182.85917592048645	0.756986141204834
17	160.67120814323425	response	0	j		15.0	/home/egter/Projects/stimuli/pictures/S_Pz_NXxhQCJc_70.png	183.60646605491638	
18	160.68090415000916	picture	0		141.0	16.0	/home/egter/Projects/stimuli/pictures/R_S_OdxWh1oU8e8_1.png	183.61616206169128	1.1735889911651611
18	161.84616708755493	response	0	j		16.0	/home/egter/Projects/stimuli/pictures/R_S_OdxWh1oU8e8_1.png	184.78142499923706	
19	161.85449314117432	picture	0		151.0	17.0	/home/egter/Projects/stimuli/pictures/n02790996_7989.JPEG	184.78975105285645	1.2639048099517822
19	163.1046440601349	response	0	k		17.0	/home/egter/Projects/stimuli/pictures/n02790996_7989.JPEG	186.03990197181702	
20	163.1183979511261	picture	0		90.0	18.0	/home/egter/Projects/stimuli/pictures/R_S_video_inspire_california_big-sur_2020_00001.png	186.05365586280823	0.7569379806518555
20	163.86281394958496	response	0	k		18.0	/home/egter/Projects/stimuli/pictures/R_S_video_inspire_california_big-sur_2020_00001.png	186.7980718612671	
21	163.87533593177795	picture	0		165.0	19.0	/home/egter/Projects/stimuli/pictures/n02268853_2189.JPEG	186.81059384346008	1.374986171722412
21	165.23786306381226	response	0	k		19.0	/home/egter/Projects/stimuli/pictures/n02268853_2189.JPEG	188.17312097549438	
22	165.25032210350037	picture	0		129.0	20.0	/home/egter/Projects/stimuli/pictures/n04467665_83611.JPEG	188.1855800151825	1.0763859748840332
22	166.31289911270142	response	0	k		20.0	/home/egter/Projects/stimuli/pictures/n04467665_83611.JPEG	189.24815702438354	
23	166.3267080783844	picture	0		123.0	21.0	/home/egter/Projects/stimuli/pictures/n01748264_17810.JPEG	189.26196599006653	1.027716875076294
23	167.346204996109	response	0	k		21.0	/home/egter/Projects/stimuli/pictures/n01748264_17810.JPEG	190.28146290779114	
24	167.3544249534607	picture	0		137.0	22.0	/home/egter/Projects/stimuli/pictures/S_flickr-lamujuri-10653517683_4.png	190.28968286514282	1.145815134048462
24	168.4878511428833	response	0	j		22.0	/home/egter/Projects/stimuli/pictures/S_flickr-lamujuri-10653517683_4.png	191.42310905456543	
25	168.50024008750916	picture	0		127.0	23.0	/home/egter/Projects/stimuli/pictures/n09193705_49708.JPEG	191.43549799919128	1.0555448532104492
25	169.5461630821228	response	0	k		23.0	/home/egter/Projects/stimuli/pictures/n09193705_49708.JPEG	192.48142099380493	
26	169.5557849407196	picture	0		90.0	24.0	/home/egter/Projects/stimuli/pictures/S_yt--DXkjCUzThU_413.png	192.49104285240173	0.7500121593475342
26	170.29616808891296	response	0	j		24.0	/home/egter/Projects/stimuli/pictures/S_yt--DXkjCUzThU_413.png	193.2314260005951	
27	170.30579710006714	picture	0		100.0	25.0	/home/egter/Projects/stimuli/pictures/n04443257_5252.JPEG	193.24105501174927	0.8333489894866943
27	171.1294960975647	response	0	k		25.0	/home/egter/Projects/stimuli/pictures/n04443257_5252.JPEG	194.06475400924683	
28	171.13914608955383	picture	0		78.0	26.0	/home/egter/Projects/stimuli/pictures/R_S_yt-8N5UuN5WQcY_72.png	194.07440400123596	0.6527678966522217
28	171.77274298667908	response	0	j		26.0	/home/egter/Projects/stimuli/pictures/R_S_yt-8N5UuN5WQcY_72.png	194.7080008983612	
29	171.79191398620605	picture	0		77.0	27.0	/home/egter/Projects/stimuli/pictures/S_yt-tX3slAQb9yY_13.png	194.72717189788818	0.6388671398162842
29	172.4211549758911	response	0	j		27.0	/home/egter/Projects/stimuli/pictures/S_yt-tX3slAQb9yY_13.png	195.35641288757324	
30	172.43078112602234	picture	0		86.0	28.0	/home/egter/Projects/stimuli/pictures/S_yt-RVoC19C420Y_27.png	195.36603903770447	0.7152140140533447
30	173.13783192634583	response	0	j		28.0	/home/egter/Projects/stimuli/pictures/S_yt-RVoC19C420Y_27.png	196.07308983802795	
31	173.14599514007568	picture	0		98.0	29.0	/home/egter/Projects/stimuli/pictures/n02951358_20960.JPEG	196.0812530517578	0.8194618225097656
31	173.9476020336151	response	0	k		29.0	/home/egter/Projects/stimuli/pictures/n02951358_20960.JPEG	196.88285994529724	
32	173.96545696258545	picture	0		117.0	30.0	/home/egter/Projects/stimuli/pictures/S_yt-7bSTxOajpjc_58.png	196.90071487426758	0.9723081588745117
32	174.92947506904602	response	0	j		30.0	/home/egter/Projects/stimuli/pictures/S_yt-7bSTxOajpjc_58.png	197.86473298072815	
33	174.93776512145996	picture	0		82.0	31.0	/home/egter/Projects/stimuli/pictures/S_BO_A014_C023_SDR_20190717_F240F3709_SDR_2K_AVC.png	197.8730230331421	0.6875059604644775
33	175.6128180027008	response	0	j		31.0	/home/egter/Projects/stimuli/pictures/S_BO_A014_C023_SDR_20190717_F240F3709_SDR_2K_AVC.png	198.54807591438293	
34	175.62527108192444	picture	0		143.0	32.0	/home/egter/Projects/stimuli/pictures/n03478589_16903.JPEG	198.56052899360657	1.1874089241027832
34	176.80453300476074	response	0	k		32.0	/home/egter/Projects/stimuli/pictures/n03478589_16903.JPEG	199.73979091644287	
35	176.81268000602722	picture	0		435.0	33.0	/home/egter/Projects/stimuli/pictures/n02165456_15231.JPEG	199.74793791770935	3.6249489784240723
35	180.42946696281433	response	0	k		33.0	/home/egter/Projects/stimuli/pictures/n02165456_15231.JPEG	203.36472487449646	
36	180.4376289844513	picture	0		204.0	34.0	/home/egter/Projects/stimuli/pictures/S_yt-YOLaQ53ooks_195.png	203.37288689613342	1.7014000415802002
36	182.12946796417236	response	0	j		34.0	/home/egter/Projects/stimuli/pictures/S_yt-YOLaQ53ooks_195.png	205.0647258758545	
37	182.1390290260315	picture	0		107.0	35.0	/home/egter/Projects/stimuli/pictures/S_bing-www_yahoo_com_entertainment_anastasia-karanikolaou-chantel-jeffries-discuss-182400502_html_9.png	205.07428693771362	1.0986130237579346
37	183.02108693122864	response	0	j		35.0	/home/egter/Projects/stimuli/pictures/S_bing-www_yahoo_com_entertainment_anastasia-karanikolaou-chantel-jeffries-discuss-182400502_html_9.png	205.95634484291077	
38	183.23764204978943	picture	0		163.0	36.0	/home/egter/Projects/stimuli/pictures/ILSVRC2012_test_00088583.JPEG	206.17289996147156	1.3596971035003662
38	184.58089303970337	response	0	k		36.0	/home/egter/Projects/stimuli/pictures/ILSVRC2012_test_00088583.JPEG	207.5161509513855	
39	184.5973391532898	picture	0		83.0	37.0	/home/egter/Projects/stimuli/pictures/n09332890_2002.JPEG	207.53259706497192	0.694464921951294
39	185.2794909477234	response	0	k		37.0	/home/egter/Projects/stimuli/pictures/n09332890_2002.JPEG	208.21474885940552	
40	185.2918040752411	picture	0		116.0	38.0	/home/egter/Projects/stimuli/pictures/R_S_yt-Tt_LkR4iAt4_11.png	208.22706198692322	0.9708969593048096
40	186.24610114097595	response	0	j		38.0	/home/egter/Projects/stimuli/pictures/R_S_yt-Tt_LkR4iAt4_11.png	209.18135905265808	
41	186.2627010345459	picture	0		104.0	39.0	/home/egter/Projects/stimuli/pictures/S_yt-452RKqKIeRU_16.png	209.19795894622803	0.8693830966949463
41	187.12121415138245	response	0	j		39.0	/home/egter/Projects/stimuli/pictures/S_yt-452RKqKIeRU_16.png	210.05647206306458	
42	187.13208413124084	picture	0		102.0	40.0	/home/egter/Projects/stimuli/pictures/S_yt-s73Xqkcq9Js_285.png	210.06734204292297	0.8556108474731445
42	187.96433997154236	response	0	j		40.0	/home/egter/Projects/stimuli/pictures/S_yt-s73Xqkcq9Js_285.png	210.8995978832245	
43	187.987694978714	picture	0		104.0	41.0	/home/egter/Projects/stimuli/pictures/S_production_ID_5182928.png	210.92295289039612	0.8666200637817383
43	188.846116065979	response	0	j		41.0	/home/egter/Projects/stimuli/pictures/S_production_ID_5182928.png	211.78137397766113	
44	188.85431504249573	picture	0		107.0	42.0	/home/egter/Projects/stimuli/pictures/S_yt-hZxbKZ1WCVg_24.png	211.78957295417786	0.8958520889282227
44	189.73779702186584	response	0	k		42.0	/home/egter/Projects/stimuli/pictures/S_yt-hZxbKZ1WCVg_24.png	212.67305493354797	
45	189.75016713142395	picture	0		107.0	43.0	/home/egter/Projects/stimuli/pictures/n02111277_3754.JPEG	212.68542504310608	0.888826847076416
45	190.62943696975708	response	0	k		43.0	/home/egter/Projects/stimuli/pictures/n02111277_3754.JPEG	213.5646948814392	
46	190.63899397850037	picture	0		200.0	44.0	/home/egter/Projects/stimuli/pictures/S_yt-DWsFRl5bXs8_23.png	213.5742518901825	1.6666779518127441
46	192.2961881160736	response	0	j		44.0	/home/egter/Projects/stimuli/pictures/S_yt-DWsFRl5bXs8_23.png	215.23144602775574	
47	192.3056719303131	picture	0		107.0	45.0	/home/egter/Projects/stimuli/pictures/n01692333_12376.JPEG	215.24092984199524	0.895820140838623
47	193.18784594535828	response	0	k		45.0	/home/egter/Projects/stimuli/pictures/n01692333_12376.JPEG	216.1231038570404	
48	193.20149207115173	picture	0		94.0	46.0	/home/egter/Projects/stimuli/pictures/R_S_wc-lItGMdwvEd_l_7.png	216.13674998283386	1.680582046508789
48	193.97259402275085	response	0	j		46.0	/home/egter/Projects/stimuli/pictures/R_S_wc-lItGMdwvEd_l_7.png	216.90785193443298	
49	194.88207411766052	picture	0		119.0	47.0	/home/egter/Projects/stimuli/pictures/R_S_yt-t-wpKypNysg_27.png	217.81733202934265	0.9998958110809326
49	195.87106108665466	response	0	j		47.0	/home/egter/Projects/stimuli/pictures/R_S_yt-t-wpKypNysg_27.png	218.8063189983368	
50	195.88196992874146	picture	0		99.0	48.0	/home/egter/Projects/stimuli/pictures/R_S_yt-2ftSsLqRQnA_84.png	218.81722784042358	0.8307271003723145
50	196.69604897499084	response	0	j		48.0	/home/egter/Projects/stimuli/pictures/R_S_yt-2ftSsLqRQnA_84.png	219.63130688667297	
51	196.71269702911377	picture	0		85.0	49.0	/home/egter/Projects/stimuli/pictures/n04418357_9604.JPEG	219.6479549407959	0.7165958881378174
51	197.41282415390015	response	0	k		49.0	/home/egter/Projects/stimuli/pictures/n04418357_9604.JPEG	220.34808206558228	
52	197.4292929172516	picture	0		74.0	50.0	/home/egter/Projects/stimuli/pictures/n02165105_5484.JPEG	220.36455082893372	0.619340181350708
52	198.03779697418213	response	0	k		50.0	/home/egter/Projects/stimuli/pictures/n02165105_5484.JPEG	220.97305488586426	
53	198.0486330986023	picture	0		75.0	51.0	/home/egter/Projects/stimuli/pictures/n02058221_6048.JPEG	220.98389101028442	0.630612850189209
53	198.6627540588379	response	0	k		51.0	/home/egter/Projects/stimuli/pictures/n02058221_6048.JPEG	221.59801197052002	
54	198.6792459487915	picture	0		79.0	52.0	/home/egter/Projects/stimuli/pictures/R_S_yt-pOCEuqVE7ro_61.png	221.61450386047363	0.6610331535339355
54	199.32936811447144	response	0	k		52.0	/home/egter/Projects/stimuli/pictures/R_S_yt-pOCEuqVE7ro_61.png	222.26462602615356	
55	199.34027910232544	picture	0		66.0	53.0	/home/egter/Projects/stimuli/pictures/n01748264_9809.JPEG	222.27553701400757	0.5556449890136719
55	199.8793821334839	response	0	k		53.0	/home/egter/Projects/stimuli/pictures/n01748264_9809.JPEG	222.81464004516602	
56	199.8959240913391	picture	0		127.0	54.0	/home/egter/Projects/stimuli/pictures/S_yt-bhiGMKSAz2g_370.png	222.83118200302124	1.0624229907989502
56	200.9460380077362	response	0	k		54.0	/home/egter/Projects/stimuli/pictures/S_yt-bhiGMKSAz2g_370.png	223.88129591941833	
57	200.95834708213806	picture	0		101.0	55.0	/home/egter/Projects/stimuli/pictures/ILSVRC2012_val_00018369.JPEG	223.8936049938202	0.8402228355407715
57	201.780916929245	response	0	k		55.0	/home/egter/Projects/stimuli/pictures/ILSVRC2012_val_00018369.JPEG	224.71617484092712	
58	201.79856991767883	picture	0		97.0	56.0	/home/egter/Projects/stimuli/pictures/S_yt-HQQws1Lp_rQ_10.png	224.73382782936096	0.8056871891021729
58	202.5893099308014	response	0	j		56.0	/home/egter/Projects/stimuli/pictures/S_yt-HQQws1Lp_rQ_10.png	225.52456784248352	
59	202.604257106781	picture	0		88.0	57.0	/home/egter/Projects/stimuli/pictures/S_video_inspire_uk_edinburgh_arthursseat_010.png	225.53951501846313	0.7359359264373779
59	203.32934594154358	response	0	k		57.0	/home/egter/Projects/stimuli/pictures/S_video_inspire_uk_edinburgh_arthursseat_010.png	226.2646038532257	
60	203.34019303321838	picture	0		94.0	58.0	/home/egter/Projects/stimuli/pictures/n02974003_106.JPEG	226.2754509449005	0.7890300750732422
60	204.1127209663391	response	0	k		58.0	/home/egter/Projects/stimuli/pictures/n02974003_106.JPEG	227.04797887802124	
61	204.12922310829163	picture	0		112.0	59.0	/home/egter/Projects/stimuli/pictures/R_S_yt-ObT9gF8E_tU_250.png	227.06448101997375	0.9416768550872803
61	205.0543670654297	response	0	j		59.0	/home/egter/Projects/stimuli/pictures/R_S_yt-ObT9gF8E_tU_250.png	227.98962497711182	
62	205.0708999633789	picture	0		110.0	60.0	/home/egter/Projects/stimuli/pictures/n07590611_20876.JPEG	228.00615787506104	0.9220449924468994
62	205.97252297401428	response	0	k		60.0	/home/egter/Projects/stimuli/pictures/n07590611_20876.JPEG	228.9077808856964	
63	205.9929449558258	picture	0		94.0	61.0	/home/egter/Projects/stimuli/pictures/S_yt-Dlk44AGz-xM_37.png	228.92820286750793	0.7946250438690186
63	206.76415014266968	response	0	j		61.0	/home/egter/Projects/stimuli/pictures/S_yt-Dlk44AGz-xM_37.png	229.6994080543518	
64	206.78756999969482	picture	0		150.0	62.0	/home/egter/Projects/stimuli/pictures/S_yt-7Z6Kmp0n7L8_145.png	229.72282791137695	1.2583270072937012
64	208.02933597564697	response	0	j		62.0	/home/egter/Projects/stimuli/pictures/S_yt-7Z6Kmp0n7L8_145.png	230.9645938873291	
65	208.04589700698853	picture	0		100.0	63.0	/home/egter/Projects/stimuli/pictures/n02100735_3498.JPEG	230.98115491867065	0.8499419689178467
65	208.8793420791626	response	0	j		63.0	/home/egter/Projects/stimuli/pictures/n02100735_3498.JPEG	231.81459999084473	
66	208.89583897590637	picture	0		349.0	64.0	/home/egter/Projects/stimuli/pictures/R_S_yt-RO4mhuXBVrY_67.png	231.8310968875885	2.9095711708068848
66	211.78919506072998	response	0	k		64.0	/home/egter/Projects/stimuli/pictures/R_S_yt-RO4mhuXBVrY_67.png	234.7244529724121	
67	211.80541014671326	picture	0		176.0	65.0	/home/egter/Projects/stimuli/pictures/R_S_yt-bH4nJibL4Jo_164.png	234.74066805839539	1.6570467948913574
67	213.26260995864868	response	0	j		65.0	/home/egter/Projects/stimuli/pictures/R_S_yt-bH4nJibL4Jo_164.png	236.1978678703308	
68	213.46245694160461	picture	0		101.0	66.0	/home/egter/Projects/stimuli/pictures/R_S_production_ID_4325513.png	236.39771485328674	0.8429570198059082
68	214.29598212242126	response	0	j		66.0	/home/egter/Projects/stimuli/pictures/R_S_production_ID_4325513.png	237.2312400341034	
69	214.30541396141052	picture	0		90.0	67.0	/home/egter/Projects/stimuli/pictures/S_pexels-c-technical-6809719.png	237.24067187309265	0.7571160793304443
69	215.04593014717102	response	0	j		67.0	/home/egter/Projects/stimuli/pictures/S_pexels-c-technical-6809719.png	237.98118805885315	
70	215.06253004074097	picture	0		92.0	68.0	/home/egter/Projects/stimuli/pictures/S_yt-fT8CS1nszUE_355.png	237.9977879524231	0.7706100940704346
70	215.82097911834717	response	0	k		68.0	/home/egter/Projects/stimuli/pictures/S_yt-fT8CS1nszUE_355.png	238.7562370300293	
71	215.8331401348114	picture	0		245.0	69.0	/home/egter/Projects/stimuli/pictures/R_S_yt-mdLT282PVbE_6.png	238.76839804649353	2.046027898788452
71	217.8626251220703	response	0	j		69.0	/home/egter/Projects/stimuli/pictures/R_S_yt-mdLT282PVbE_6.png	240.79788303375244	
72	217.87916803359985	picture	0		105.0	70.0	/home/egter/Projects/stimuli/pictures/n01669191_5844.JPEG	240.81442594528198	0.8776109218597412
72	218.74595403671265	response	0	k		70.0	/home/egter/Projects/stimuli/pictures/n01669191_5844.JPEG	241.68121194839478	
73	218.7567789554596	picture	0		71.0	71.0	/home/egter/Projects/stimuli/pictures/n02701002_3387.JPEG	241.69203686714172	0.5901970863342285
73	219.33756613731384	response	0	k		71.0	/home/egter/Projects/stimuli/pictures/n02701002_3387.JPEG	242.27282404899597	
74	219.34697604179382	picture	0		116.0	72.0	/home/egter/Projects/stimuli/pictures/R_S_yt-hZxbKZ1WCVg_24.png	242.28223395347595	0.9738359451293945
74	220.3042869567871	response	0	j		72.0	/home/egter/Projects/stimuli/pictures/R_S_yt-hZxbKZ1WCVg_24.png	243.23954486846924	
75	220.32081198692322	picture	0		112.0	73.0	/home/egter/Projects/stimuli/pictures/n04310018_2965.JPEG	243.25606989860535	0.9428670406341553
75	221.24592208862305	response	0	j		73.0	/home/egter/Projects/stimuli/pictures/n04310018_2965.JPEG	244.18118000030518	
76	221.26367902755737	picture	0		113.0	74.0	/home/egter/Projects/stimuli/pictures/R_S_ILSVRC2015_train_00415005.png	244.1989369392395	1.034653902053833
76	222.18909096717834	response	0	j		74.0	/home/egter/Projects/stimuli/pictures/R_S_ILSVRC2015_train_00415005.png	245.12434887886047	
77	222.2983329296112	picture	0		77.0	75.0	/home/egter/Projects/stimuli/pictures/S_yt-FsylDeYfcxU_24.png	245.23359084129333	0.6474730968475342
77	222.9294171333313	response	0	j		75.0	/home/egter/Projects/stimuli/pictures/S_yt-FsylDeYfcxU_24.png	245.86467504501343	
78	222.94580602645874	picture	0		87.0	76.0	/home/egter/Projects/stimuli/pictures/n01744401_4165.JPEG	245.88106393814087	0.733349084854126
78	223.66261315345764	response	0	k		76.0	/home/egter/Projects/stimuli/pictures/n01744401_4165.JPEG	246.59787106513977	
79	223.67915511131287	picture	0		115.0	77.0	/home/egter/Projects/stimuli/pictures/n02951585_12720.JPEG	246.614413022995	0.9594509601593018
79	224.62930393218994	response	0	k		77.0	/home/egter/Projects/stimuli/pictures/n02951585_12720.JPEG	247.56456184387207	
80	224.63860607147217	picture	0		281.0	78.0	/home/egter/Projects/stimuli/pictures/S_yt-NZIhxK5NvWE_152.png	247.5738639831543	2.340528964996338
80	226.97091507911682	response	0	j		78.0	/home/egter/Projects/stimuli/pictures/S_yt-NZIhxK5NvWE_152.png	249.90617299079895	
81	226.9791350364685	picture	0		178.0	79.0	/home/egter/Projects/stimuli/pictures/n03759954_11657.JPEG	249.91439294815063	1.4927549362182617
81	228.4542760848999	response	0	k		79.0	/home/egter/Projects/stimuli/pictures/n03759954_11657.JPEG	251.38953399658203	
82	228.47188997268677	picture	0		212.0	80.0	/home/egter/Projects/stimuli/pictures/n01644900_20697.JPEG	251.4071478843689	1.7739150524139404
82	230.22923111915588	response	0	k		80.0	/home/egter/Projects/stimuli/pictures/n01644900_20697.JPEG	253.164489030838	
83	230.2458050251007	picture	0		101.0	81.0	/home/egter/Projects/stimuli/pictures/S_yt-GBqXIFjZf8w_28.png	253.18106293678284	0.8499939441680908
83	231.07923913002014	response	0	k		81.0	/home/egter/Projects/stimuli/pictures/S_yt-GBqXIFjZf8w_28.png	254.01449704170227	
84	231.0957989692688	picture	0		107.0	82.0	/home/egter/Projects/stimuli/pictures/S_yt-F1X_vq0Zioc_154.png	254.03105688095093	0.8969631195068359
84	231.9724760055542	response	0	j		82.0	/home/egter/Projects/stimuli/pictures/S_yt-F1X_vq0Zioc_154.png	254.90773391723633	
85	231.99276208877563	picture	0		88.0	83.0	/home/egter/Projects/stimuli/pictures/R_S_yt-2SVpSaBAxsw_78.png	254.92802000045776	0.7430288791656494
85	232.72086811065674	response	0	j		83.0	/home/egter/Projects/stimuli/pictures/R_S_yt-2SVpSaBAxsw_78.png	255.65612602233887	
86	232.73579096794128	picture	0		86.0	84.0	/home/egter/Projects/stimuli/pictures/n02492660_5349.JPEG	255.6710488796234	1.29335618019104
86	233.44593906402588	response	0	k		84.0	/home/egter/Projects/stimuli/pictures/n02492660_5349.JPEG	256.381196975708	
87	234.02914714813232	picture	0		1.0	85.0	/home/egter/Projects/stimuli/pictures/n04613696_7610.JPEG	256.96440505981445	0.016690969467163086
87	234.0227370262146	response	0	k		85.0	/home/egter/Projects/stimuli/pictures/n04613696_7610.JPEG	256.95799493789673	
88	234.0458381175995	picture	0		223.0	86.0	/home/egter/Projects/stimuli/pictures/n02102040_1274.JPEG	256.9810960292816	1.8635568618774414
88	235.89592909812927	response	0	k		86.0	/home/egter/Projects/stimuli/pictures/n02102040_1274.JPEG	258.8311870098114	
89	235.90939497947693	picture	0		86.0	87.0	/home/egter/Projects/stimuli/pictures/ILSVRC2012_test_00060820.JPEG	258.84465289115906	0.7222001552581787
89	236.61415004730225	response	0	k		87.0	/home/egter/Projects/stimuli/pictures/ILSVRC2012_test_00060820.JPEG	259.5494079589844	
90	236.6315951347351	picture	0		106.0	88.0	/home/egter/Projects/stimuli/pictures/R_S_nvbAwZOKBS8_23.png	259.56685304641724	0.8892128467559814
90	237.5042269229889	response	0	k		88.0	/home/egter/Projects/stimuli/pictures/R_S_nvbAwZOKBS8_23.png	260.439484834671	
91	237.5208079814911	picture	0		109.0	89.0	/home/egter/Projects/stimuli/pictures/S_yt-IlW1U39Dga4_5.png	260.4560658931732	0.909372091293335
91	238.4209020137787	response	0	j		89.0	/home/egter/Projects/stimuli/pictures/S_yt-IlW1U39Dga4_5.png	261.3561599254608	
92	238.43018007278442	picture	0		112.0	90.0	/home/egter/Projects/stimuli/pictures/R_S_wc-eJe3wXMgTLRV_20.png	261.36543798446655	0.9375078678131104
92	239.3541979789734	response	0	j		90.0	/home/egter/Projects/stimuli/pictures/R_S_wc-eJe3wXMgTLRV_20.png	262.2894558906555	
93	239.36768794059753	picture	0		200.0	91.0	/home/egter/Projects/stimuli/pictures/n09288635_6355.JPEG	262.30294585227966	1.673600196838379
93	241.0292489528656	response	0	k		91.0	/home/egter/Projects/stimuli/pictures/n09288635_6355.JPEG	263.96450686454773	
94	241.0412881374359	picture	0		108.0	92.0	/home/egter/Projects/stimuli/pictures/R_S_ILSVRC2015_train_00441000.png	263.97654604911804	0.9044969081878662
94	241.9292449951172	response	0	k		92.0	/home/egter/Projects/stimuli/pictures/R_S_ILSVRC2015_train_00441000.png	264.8645029067993	
95	241.94578504562378	picture	0		131.0	93.0	/home/egter/Projects/stimuli/pictures/S_yt-vMnSbsjGK9k_62.png	264.8810429573059	1.0954070091247559
95	243.0292329788208	response	0	k		93.0	/home/egter/Projects/stimuli/pictures/S_yt-vMnSbsjGK9k_62.png	265.96449089050293	
96	243.04119205474854	picture	0		97.0	94.0	/home/egter/Projects/stimuli/pictures/S_ILSVRC2015_train_00479004.png	265.97644996643066	0.8055720329284668
96	243.83754014968872	response	0	j		94.0	/home/egter/Projects/stimuli/pictures/S_ILSVRC2015_train_00479004.png	266.77279806137085	
97	243.846764087677	picture	0		86.0	95.0	/home/egter/Projects/stimuli/pictures/R_S_yt-y3tyx6cZjmA_412.png	266.78202199935913	1.652789831161499
97	244.55421805381775	response	0	j		95.0	/home/egter/Projects/stimuli/pictures/R_S_yt-y3tyx6cZjmA_412.png	267.4894759654999	
98	245.4995539188385	picture	0		97.0	96.0	/home/egter/Projects/stimuli/pictures/R_S_yt-K_gHa2x2OQA_319.png	268.43481183052063	0.8128550052642822
98	246.29584407806396	response	0	j		96.0	/home/egter/Projects/stimuli/pictures/R_S_yt-K_gHa2x2OQA_319.png	269.2311019897461	
99	246.31240892410278	picture	0		91.0	97.0	/home/egter/Projects/stimuli/pictures/S_yt-pOCEuqVE7ro_61.png	269.2476668357849	0.7666270732879639
99	247.06248998641968	response	0	k		97.0	/home/egter/Projects/stimuli/pictures/S_yt-pOCEuqVE7ro_61.png	269.9977478981018	
100	247.07903599739075	picture	0		188.0	98.0	/home/egter/Projects/stimuli/pictures/S_ILSVRC2015_train_00549000.png	270.0142939090729	1.5666329860687256
100	248.63750505447388	response	0	j		98.0	/home/egter/Projects/stimuli/pictures/S_ILSVRC2015_train_00549000.png	271.572762966156	
101	248.64566898345947	picture	0		130.0	99.0	/home/egter/Projects/stimuli/pictures/S_yt-cAFx29wS_xo_130.png	271.5809268951416	1.0899691581726074
101	249.72083592414856	response	0	k		99.0	/home/egter/Projects/stimuli/pictures/S_yt-cAFx29wS_xo_130.png	272.6560938358307	
102	249.73563814163208	picture	0		149.0	100.0	/home/egter/Projects/stimuli/pictures/R_S_yt-k-MRlbCOzZU_163.png	272.6708960533142	1.2499828338623047
102	250.9708800315857	response	0	j		100.0	/home/egter/Projects/stimuli/pictures/R_S_yt-k-MRlbCOzZU_163.png	273.9061379432678	
103	250.98562097549438	picture	0		99.0	101.0	/home/egter/Projects/stimuli/pictures/S_yt-lkpfs_4qAGE_50.png	273.9208788871765	0.8350751399993896
103	251.7974021434784	response	0	j		101.0	/home/egter/Projects/stimuli/pictures/S_yt-lkpfs_4qAGE_50.png	274.7326600551605	
104	251.82069611549377	picture	0		188.0	102.0	/home/egter/Projects/stimuli/pictures/n03447447_524.JPEG	274.7559540271759	1.5676488876342773
104	253.37912511825562	response	0	k		102.0	/home/egter/Projects/stimuli/pictures/n03447447_524.JPEG	276.31438302993774	
105	253.38834500312805	picture	0		132.0	103.0	/home/egter/Projects/stimuli/pictures/S_yt-Tt_LkR4iAt4_11.png	276.3236029148102	1.1528189182281494
105	254.47914695739746	response	0	j		103.0	/home/egter/Projects/stimuli/pictures/S_yt-Tt_LkR4iAt4_11.png	277.4144048690796	
106	254.5411639213562	picture	0		175.0	104.0	/home/egter/Projects/stimuli/pictures/n04228054_3307.JPEG	277.47642183303833	1.4582462310791016
106	255.9875090122223	response	0	k		104.0	/home/egter/Projects/stimuli/pictures/n04228054_3307.JPEG	278.9227669239044	
107	255.9994101524353	picture	0		328.0	105.0	/home/egter/Projects/stimuli/pictures/S_yt-NuJbedGLcQY_112.png	278.93466806411743	2.7295539379119873
107	258.72078704833984	response	0	k		105.0	/home/egter/Projects/stimuli/pictures/S_yt-NuJbedGLcQY_112.png	281.656044960022	
108	258.7289640903473	picture	0		214.0	106.0	/home/egter/Projects/stimuli/pictures/n02123045_15494.JPEG	281.6642220020294	1.7917048931121826
108	260.50408911705017	response	0	k		106.0	/home/egter/Projects/stimuli/pictures/n02123045_15494.JPEG	283.4393470287323	
109	260.5206689834595	picture	0		234.0	107.0	/home/egter/Projects/stimuli/pictures/S_yt-WTxvvlP8xnw_113.png	283.4559268951416	1.9509310722351074
109	262.46240401268005	response	0	k		107.0	/home/egter/Projects/stimuli/pictures/S_yt-WTxvvlP8xnw_113.png	285.3976619243622	
110	262.4716000556946	picture	0		81.0	108.0	/home/egter/Projects/stimuli/pictures/n02110341_7091.JPEG	285.4068579673767	0.6805908679962158
110	263.1374509334564	response	0	k		108.0	/home/egter/Projects/stimuli/pictures/n02110341_7091.JPEG	286.07270884513855	
111	263.1521909236908	picture	0		94.0	109.0	/home/egter/Projects/stimuli/pictures/n03538406_15318.JPEG	286.0874488353729	0.7934601306915283
111	263.92904806137085	response	0	k		109.0	/home/egter/Projects/stimuli/pictures/n03538406_15318.JPEG	286.864305973053	
112	263.9456510543823	picture	0		119.0	110.0	/home/egter/Projects/stimuli/pictures/n01984695_30354.JPEG	286.88090896606445	0.9981958866119385
112	264.92909693717957	response	0	k		110.0	/home/egter/Projects/stimuli/pictures/n01984695_30354.JPEG	287.8643548488617	
113	264.94384694099426	picture	0		926.0	111.0	/home/egter/Projects/stimuli/pictures/n03160309_6235.JPEG	287.8791048526764	7.726731061935425
113	272.6540529727936	response	0	k		111.0	/home/egter/Projects/stimuli/pictures/n03160309_6235.JPEG	295.5893108844757	
114	272.6705780029297	picture	0		124.0	112.0	/home/egter/Projects/stimuli/pictures/n01945685_563.JPEG	295.6058359146118	1.0370619297027588
114	273.6956479549408	response	0	k		112.0	/home/egter/Projects/stimuli/pictures/n01945685_563.JPEG	296.6309058666229	
115	273.70763993263245	picture	0		150.0	113.0	/home/egter/Projects/stimuli/pictures/n02480495_26877.JPEG	296.6428978443146	1.2499971389770508
115	274.9457280635834	response	0	k		113.0	/home/egter/Projects/stimuli/pictures/n02480495_26877.JPEG	297.8809859752655	
116	274.9576370716095	picture	0		96.0	114.0	/home/egter/Projects/stimuli/pictures/n01698640_10136.JPEG	297.8928949832916	0.7985649108886719
116	275.7457299232483	response	0	k		114.0	/home/egter/Projects/stimuli/pictures/n01698640_10136.JPEG	298.6809878349304	
117	275.75620198249817	picture	0		67.0	115.0	/home/egter/Projects/stimuli/pictures/R_S_comp_A083_C002_1130KZ_v04_SDR_PS_FINAL_20180725_SDR_2K_AVC.png	298.6914598941803	0.5643889904022217
117	276.3040339946747	response	0	k		115.0	/home/egter/Projects/stimuli/pictures/R_S_comp_A083_C002_1130KZ_v04_SDR_PS_FINAL_20180725_SDR_2K_AVC.png	299.2392919063568	
118	276.3205909729004	picture	0		114.0	116.0	/home/egter/Projects/stimuli/pictures/S_wc-lItGMdwvEd_l_7.png	299.2558488845825	0.9564650058746338
118	277.26243710517883	response	0	j		116.0	/home/egter/Projects/stimuli/pictures/S_wc-lItGMdwvEd_l_7.png	300.19769501686096	
119	277.277055978775	picture	0		205.0	117.0	/home/egter/Projects/stimuli/pictures/S_production_ID_5139371.png	300.21231389045715	1.7152290344238281
119	278.97299814224243	response	0	j		117.0	/home/egter/Projects/stimuli/pictures/S_production_ID_5139371.png	301.90825605392456	
120	278.99228501319885	picture	0		97.0	118.0	/home/egter/Projects/stimuli/pictures/n02017213_4782.JPEG	301.927542924881	0.8199539184570312
120	279.79564905166626	response	0	k		118.0	/home/egter/Projects/stimuli/pictures/n02017213_4782.JPEG	302.7309069633484	
121	279.8122389316559	picture	0		96.0	119.0	/home/egter/Projects/stimuli/pictures/n12144580_17301.JPEG	302.747496843338	0.8050251007080078
121	280.59713411331177	response	0	k		119.0	/home/egter/Projects/stimuli/pictures/n12144580_17301.JPEG	303.5323920249939	
122	280.6172640323639	picture	0		122.0	120.0	/home/egter/Projects/stimuli/pictures/n03967562_42424.JPEG	303.552521944046	1.0208399295806885
122	281.6290121078491	response	0	k		120.0	/home/egter/Projects/stimuli/pictures/n03967562_42424.JPEG	304.56427001953125	
123	281.6381039619446	picture	0		92.0	121.0	/home/egter/Projects/stimuli/pictures/R_S_yt-TbdZrcl_Jso_5.png	304.5733618736267	0.7708070278167725
123	282.3956730365753	response	0	j		121.0	/home/egter/Projects/stimuli/pictures/R_S_yt-TbdZrcl_Jso_5.png	305.33093094825745	
124	282.40891098976135	picture	0		226.0	122.0	/home/egter/Projects/stimuli/pictures/n03777568_14302.JPEG	305.3441689014435	1.8949570655822754
124	284.2873001098633	response	0	k		122.0	/home/egter/Projects/stimuli/pictures/n03777568_14302.JPEG	307.2225580215454	
125	284.3038680553436	picture	0		2024.0	123.0	/home/egter/Projects/stimuli/pictures/n03457902_25660.JPEG	307.23912596702576	16.868772983551025
125	301.16225814819336	response	0	k		123.0	/home/egter/Projects/stimuli/pictures/n03457902_25660.JPEG	324.0975160598755	
126	301.17264103889465	picture	0		176.0	124.0	/home/egter/Projects/stimuli/pictures/n04476259_714.JPEG	324.1078989505768	1.4652690887451172
126	302.622190952301	response	0	k		124.0	/home/egter/Projects/stimuli/pictures/n04476259_714.JPEG	325.55744886398315	
127	302.63791012763977	picture	0		99.0	125.0	/home/egter/Projects/stimuli/pictures/R_S_flickr-lamujuri-10653517683_4.png	325.5731680393219	0.8263559341430664
127	303.4539339542389	response	0	j		125.0	/home/egter/Projects/stimuli/pictures/R_S_flickr-lamujuri-10653517683_4.png	326.389191865921	
128	303.46426606178284	picture	0		366.0	126.0	/home/egter/Projects/stimuli/pictures/S_yt-y3tyx6cZjmA_412.png	326.39952397346497	3.0486040115356445
128	306.5039031505585	response	0	j		126.0	/home/egter/Projects/stimuli/pictures/S_yt-y3tyx6cZjmA_412.png	329.4391610622406	
129	306.5128700733185	picture	0		189.0	127.0	/home/egter/Projects/stimuli/pictures/n02486261_18987.JPEG	329.4481279850006	2.140929937362671
129	308.07889914512634	response	0	k		127.0	/home/egter/Projects/stimuli/pictures/n02486261_18987.JPEG	331.0141570568085	
130	308.65380001068115	picture	0		504.0	128.0	/home/egter/Projects/stimuli/pictures/S_yt-E2Klz_wBAf8_285.png	331.5890579223633	4.20831298828125
130	312.8462390899658	response	0	k		128.0	/home/egter/Projects/stimuli/pictures/S_yt-E2Klz_wBAf8_285.png	335.78149700164795	
131	312.8621129989624	picture	0		177.0	129.0	/home/egter/Projects/stimuli/pictures/R_S_yt-aiwDdJm1ek8_90.png	335.79737091064453	1.574981927871704
131	314.3288531303406	response	0	j		129.0	/home/egter/Projects/stimuli/pictures/R_S_yt-aiwDdJm1ek8_90.png	337.2641110420227	
132	314.4370949268341	picture	0		651.0	130.0	/home/egter/Projects/stimuli/pictures/n02814533_67571.JPEG	337.37235283851624	5.433304071426392
132	319.8538570404053	response	0	k		130.0	/home/egter/Projects/stimuli/pictures/n02814533_67571.JPEG	342.7891149520874	
133	319.8703989982605	picture	0		106.0	131.0	/home/egter/Projects/stimuli/pictures/S_yt-Jo6PxivsTOg_247.png	342.8056569099426	0.8923389911651611
133	320.7455141544342	response	0	j		131.0	/home/egter/Projects/stimuli/pictures/S_yt-Jo6PxivsTOg_247.png	343.68077206611633	
134	320.76273798942566	picture	0		326.0	132.0	/home/egter/Projects/stimuli/pictures/n01753488_3517.JPEG	343.6979959011078	2.7243030071258545
134	323.47111105918884	response	0	j		132.0	/home/egter/Projects/stimuli/pictures/n01753488_3517.JPEG	346.406368970871	
135	323.4870409965515	picture	0		122.0	133.0	/home/egter/Projects/stimuli/pictures/n03598930_3498.JPEG	346.42229890823364	1.0249969959259033
135	324.4954640865326	response	0	j		133.0	/home/egter/Projects/stimuli/pictures/n03598930_3498.JPEG	347.4307219982147	
136	324.5120379924774	picture	0		252.0	134.0	/home/egter/Projects/stimuli/pictures/R_S_Y002_C013_SDR_2K_AVC.png	347.44729590415955	2.104773998260498
136	326.5975661277771	response	0	j		134.0	/home/egter/Projects/stimuli/pictures/R_S_Y002_C013_SDR_2K_AVC.png	349.53282403945923	
137	326.6168119907379	picture	0		1087.0	135.0	/home/egter/Projects/stimuli/pictures/ILSVRC2012_test_00060829.JPEG	349.55206990242004	9.070158958435059
137	335.67052006721497	response	0	k		135.0	/home/egter/Projects/stimuli/pictures/ILSVRC2012_test_00060829.JPEG	358.6057779788971	
138	335.686970949173	picture	0		158.0	136.0	/home/egter/Projects/stimuli/pictures/n01644373_7812.JPEG	358.6222288608551	1.3186590671539307
138	336.9953999519348	response	0	k		136.0	/home/egter/Projects/stimuli/pictures/n01644373_7812.JPEG	359.93065786361694	
139	337.0056300163269	picture	0		671.0	137.0	/home/egter/Projects/stimuli/pictures/n02840245_12096.JPEG	359.94088792800903	5.597990989685059
139	342.58710408210754	response	0	k		137.0	/home/egter/Projects/stimuli/pictures/n02840245_12096.JPEG	365.5223619937897	
140	342.60362100601196	picture	0		230.0	138.0	/home/egter/Projects/stimuli/pictures/n03792782_4249.JPEG	365.5388789176941	1.9250030517578125
140	344.5126280784607	response	0	k		138.0	/home/egter/Projects/stimuli/pictures/n03792782_4249.JPEG	367.4478859901428	
141	344.5286240577698	picture	0		188.0	139.0	/home/egter/Projects/stimuli/pictures/n02484975_6799.JPEG	367.4638819694519	1.5750179290771484
141	346.0870940685272	response	0	k		139.0	/home/egter/Projects/stimuli/pictures/n02484975_6799.JPEG	369.02235198020935	
142	346.1036419868469	picture	0		140.0	140.0	/home/egter/Projects/stimuli/pictures/n04389033_33688.JPEG	369.03889989852905	1.1749870777130127
142	347.2626450061798	response	0	k		140.0	/home/egter/Projects/stimuli/pictures/n04389033_33688.JPEG	370.19790291786194	
143	347.27862906455994	picture	0		157.0	141.0	/home/egter/Projects/stimuli/pictures/S_ILSVRC2015_train_00560000.png	370.21388697624207	1.3102080821990967
143	348.5787501335144	response	0	k		141.0	/home/egter/Projects/stimuli/pictures/S_ILSVRC2015_train_00560000.png	371.51400804519653	
144	348.58883714675903	picture	0		112.0	142.0	/home/egter/Projects/stimuli/pictures/n03496892_7861.JPEG	371.52409505844116	0.9397759437561035
144	349.512647151947	response	0	k		142.0	/home/egter/Projects/stimuli/pictures/n03496892_7861.JPEG	372.44790506362915	
145	349.52861309051514	picture	0		136.0	143.0	/home/egter/Projects/stimuli/pictures/R_S_pexels-c-technical-6809719.png	372.46387100219727	1.1416759490966797
145	350.64691495895386	response	0	j		143.0	/home/egter/Projects/stimuli/pictures/R_S_pexels-c-technical-6809719.png	373.582172870636	
146	350.6702890396118	picture	0		1104.0	144.0	/home/egter/Projects/stimuli/pictures/S_Y002_C013_SDR_2K_AVC.png	373.60554695129395	9.203198909759521
146	359.86197209358215	response	0	j		144.0	/home/egter/Projects/stimuli/pictures/S_Y002_C013_SDR_2K_AVC.png	382.7972300052643	
147	359.87348794937134	picture	0		528.0	145.0	/home/egter/Projects/stimuli/pictures/n01983481_8852.JPEG	382.80874586105347	4.405119180679321
147	364.2624990940094	response	0	k		145.0	/home/egter/Projects/stimuli/pictures/n01983481_8852.JPEG	387.1977570056915	
148	364.27860713005066	picture	0		518.0	146.0	/home/egter/Projects/stimuli/pictures/R_S_yt-6vkiJedss6g_5.png	387.2138650417328	4.317070007324219
148	368.5870180130005	response	0	k		146.0	/home/egter/Projects/stimuli/pictures/R_S_yt-6vkiJedss6g_5.png	391.5222759246826	
149	368.5956771373749	picture	0		131.0	147.0	/home/egter/Projects/stimuli/pictures/R_S_Pexels_Videos_2376809.png	391.530935049057	1.0995759963989258
149	369.679034948349	response	0	j		147.0	/home/egter/Projects/stimuli/pictures/R_S_Pexels_Videos_2376809.png	392.6142928600311	
150	369.6952531337738	picture	0		743.0	148.0	/home/egter/Projects/stimuli/pictures/n09468604_8572.JPEG	392.63051104545593	6.192173957824707
150	375.8785970211029	response	0	k		148.0	/home/egter/Projects/stimuli/pictures/n09468604_8572.JPEG	398.81385493278503	
151	375.8874270915985	picture	0		131.0	149.0	/home/egter/Projects/stimuli/pictures/R_S_G008_C015_UHD_SDR_2K_AVC.png	398.82268500328064	1.4163780212402344
151	376.9706461429596	response	0	j		149.0	/home/egter/Projects/stimuli/pictures/R_S_G008_C015_UHD_SDR_2K_AVC.png	399.9059040546417	
152	377.30380511283875	picture	0		227.0	150.0	/home/egter/Projects/stimuli/pictures/R_S_comp_DB_D001_C005_COMP_PSNK_v12_SDR_PS_20180912_SDR_2K_AVC.png	400.2390630245209	1.8996689319610596
152	379.186980009079	response	0	j		150.0	/home/egter/Projects/stimuli/pictures/R_S_comp_DB_D001_C005_COMP_PSNK_v12_SDR_PS_20180912_SDR_2K_AVC.png	402.1222379207611	
153	379.2034740447998	picture	0		115.0	151.0	/home/egter/Projects/stimuli/pictures/R_S_yt-IX6uxR5DSKk_2.png	402.13873195648193	0.9666860103607178
153	380.1535711288452	response	0	j		151.0	/home/egter/Projects/stimuli/pictures/R_S_yt-IX6uxR5DSKk_2.png	403.08882904052734	
154	380.1701600551605	picture	0		443.0	152.0	/home/egter/Projects/stimuli/pictures/R_S_yt-ROhKDdF1gV4_21.png	403.10541796684265	3.696207046508789
154	383.84704995155334	response	0	j		152.0	/home/egter/Projects/stimuli/pictures/R_S_yt-ROhKDdF1gV4_21.png	406.7823078632355	
155	383.8663671016693	picture	0		528.0	153.0	/home/egter/Projects/stimuli/pictures/n02115913_2800.JPEG	406.80162501335144	4.403749942779541
155	388.24672293663025	response	0	j		153.0	/home/egter/Projects/stimuli/pictures/n02115913_2800.JPEG	411.1819808483124	
156	388.27011704444885	picture	0		106.0	154.0	/home/egter/Projects/stimuli/pictures/S_ILSVRC2015_train_00441000.png	411.205374956131	0.891671895980835
156	389.14525508880615	response	0	j		154.0	/home/egter/Projects/stimuli/pictures/S_ILSVRC2015_train_00441000.png	412.0805130004883	
157	389.1617889404297	picture	0		113.0	155.0	/home/egter/Projects/stimuli/pictures/n03594945_13386.JPEG	412.0970468521118	0.9499890804290771
157	390.09551310539246	response	0	k		155.0	/home/egter/Projects/stimuli/pictures/n03594945_13386.JPEG	413.0307710170746	
158	390.11177802085876	picture	0		717.0	156.0	/home/egter/Projects/stimuli/pictures/n03777568_18178.JPEG	413.0470359325409	5.983560085296631
158	396.0787510871887	response	0	k		156.0	/home/egter/Projects/stimuli/pictures/n03777568_18178.JPEG	419.01400899887085	
159	396.0953381061554	picture	0		118.0	157.0	/home/egter/Projects/stimuli/pictures/R_S_yt-xrWo3lnbshw_80.png	419.0305960178375	0.9861128330230713
159	397.0633840560913	response	0	j		157.0	/home/egter/Projects/stimuli/pictures/R_S_yt-xrWo3lnbshw_80.png	419.99864196777344	
160	397.08145093917847	picture	0		1747.0	158.0	/home/egter/Projects/stimuli/pictures/n04238763_4175.JPEG	420.0167088508606	14.555361986160278
160	411.62846302986145	response	0	k		158.0	/home/egter/Projects/stimuli/pictures/n04238763_4175.JPEG	434.5637209415436	
161	411.63681292533875	picture	0		94.0	159.0	/home/egter/Projects/stimuli/pictures/ILSVRC2012_val_00035696.JPEG	434.5720708370209	0.7847909927368164
161	412.4117839336395	response	0	k		159.0	/home/egter/Projects/stimuli/pictures/ILSVRC2012_val_00035696.JPEG	435.34704184532166	
162	412.42160391807556	picture	0		122.0	160.0	/home/egter/Projects/stimuli/pictures/n03721384_684.JPEG	435.3568618297577	1.0234770774841309
162	413.4285960197449	response	0	k		160.0	/home/egter/Projects/stimuli/pictures/n03721384_684.JPEG	436.363853931427	
163	413.4450809955597	picture	0		111.0	161.0	/home/egter/Projects/stimuli/pictures/R_S_ioSkDvwpEaU_35.png	436.3803389072418	0.9278719425201416
163	414.36179995536804	response	0	j		161.0	/home/egter/Projects/stimuli/pictures/R_S_ioSkDvwpEaU_35.png	437.29705786705017	
164	414.37295293807983	picture	0		292.0	162.0	/home/egter/Projects/stimuli/pictures/S_KP_A010_C002_SDR_20190717_SDR_2K_AVC.png	437.30821084976196	2.4304440021514893
164	416.79512906074524	response	0	j		162.0	/home/egter/Projects/stimuli/pictures/S_KP_A010_C002_SDR_20190717_SDR_2K_AVC.png	439.73038697242737	
165	416.8033969402313	picture	0		307.0	163.0	/home/egter/Projects/stimuli/pictures/S_yt-1RVw8p6Dw2Q_20.png	439.73865485191345	2.608262062072754
165	419.3534059524536	response	0	k		163.0	/home/egter/Projects/stimuli/pictures/S_yt-1RVw8p6Dw2Q_20.png	442.28866386413574	
166	419.4116590023041	picture	0		125.0	164.0	/home/egter/Projects/stimuli/pictures/R_S_yt-0bovQBIUZho_15.png	442.3469169139862	1.044558048248291
166	420.4451389312744	response	0	j		164.0	/home/egter/Projects/stimuli/pictures/R_S_yt-0bovQBIUZho_15.png	443.38039684295654	
167	420.45621705055237	picture	0		100.0	165.0	/home/egter/Projects/stimuli/pictures/R_S_ILSVRC2015_train_00292005.png	443.3914749622345	0.8387260437011719
167	421.2715950012207	response	0	j		165.0	/home/egter/Projects/stimuli/pictures/R_S_ILSVRC2015_train_00292005.png	444.20685291290283	
168	421.29494309425354	picture	0		240.0	166.0	/home/egter/Projects/stimuli/pictures/n07717556_8089.JPEG	444.23020100593567	2.0015180110931396
168	423.2799150943756	response	0	k		166.0	/home/egter/Projects/stimuli/pictures/n07717556_8089.JPEG	446.21517300605774	
169	423.2964611053467	picture	0		580.0	167.0	/home/egter/Projects/stimuli/pictures/n02981792_181.JPEG	446.2317190170288	4.840123891830444
169	428.12007093429565	response	0	k		167.0	/home/egter/Projects/stimuli/pictures/n02981792_181.JPEG	451.0553288459778	
170	428.1365849971771	picture	0		76.0	168.0	/home/egter/Projects/stimuli/pictures/R_S_KP_A010_C002_SDR_20190717_SDR_2K_AVC.png	451.07184290885925	0.6416759490966797
170	428.7618160247803	response	0	k		168.0	/home/egter/Projects/stimuli/pictures/R_S_KP_A010_C002_SDR_20190717_SDR_2K_AVC.png	451.6970739364624	
171	428.7782609462738	picture	0		121.0	169.0	/home/egter/Projects/stimuli/pictures/n03131574_4612.JPEG	451.71351885795593	1.011234998703003
171	429.7783319950104	response	0	k		169.0	/home/egter/Projects/stimuli/pictures/n03131574_4612.JPEG	452.7135899066925	
172	429.7894959449768	picture	0		158.0	170.0	/home/egter/Projects/stimuli/pictures/S_video_copy.png	452.72475385665894	1.3220829963684082
172	431.09506702423096	response	0	j		170.0	/home/egter/Projects/stimuli/pictures/S_video_copy.png	454.0303249359131	
173	431.1115789413452	picture	0		87.0	171.0	/home/egter/Projects/stimuli/pictures/R_S_BO_A014_C023_SDR_20190717_F240F3709_SDR_2K_AVC.png	454.04683685302734	0.7265040874481201
173	431.82832407951355	response	0	j		171.0	/home/egter/Projects/stimuli/pictures/R_S_BO_A014_C023_SDR_20190717_F240F3709_SDR_2K_AVC.png	454.7635819911957	
174	431.83808302879333	picture	0		1409.0	172.0	/home/egter/Projects/stimuli/pictures/n09288635_24719.JPEG	454.77334094047546	11.748456954956055
174	443.5700011253357	response	0	k		172.0	/home/egter/Projects/stimuli/pictures/n09288635_24719.JPEG	466.5052590370178	
175	443.5865399837494	picture	0		110.0	173.0	/home/egter/Projects/stimuli/pictures/S_comp_A001_C004_1207W5_v23_SDR_FINAL_20180706_SDR_2K_AVC.png	466.5217978954315	0.918079137802124
175	444.4881329536438	response	0	k		173.0	/home/egter/Projects/stimuli/pictures/S_comp_A001_C004_1207W5_v23_SDR_FINAL_20180706_SDR_2K_AVC.png	467.4233908653259	
176	444.5046191215515	picture	0		167.0	174.0	/home/egter/Projects/stimuli/pictures/n01737021_362.JPEG	467.43987703323364	1.3985579013824463
176	445.87988805770874	response	0	k		174.0	/home/egter/Projects/stimuli/pictures/n01737021_362.JPEG	468.81514596939087	
177	445.90317702293396	picture	0		109.0	175.0	/home/egter/Projects/stimuli/pictures/R_S_yt-AuQ_WxaNy4Y_255.png	468.8384349346161	0.9139549732208252
177	446.80330991744995	response	0	j		175.0	/home/egter/Projects/stimuli/pictures/R_S_yt-AuQ_WxaNy4Y_255.png	469.7385678291321	
178	446.8171319961548	picture	0		154.0	176.0	/home/egter/Projects/stimuli/pictures/n02138441_10541.JPEG	469.7523899078369	1.2985320091247559
178	448.1032769680023	response	0	k		176.0	/home/egter/Projects/stimuli/pictures/n02138441_10541.JPEG	471.03853487968445	
179	448.11566400527954	picture	0		111.0	177.0	/home/egter/Projects/stimuli/pictures/n03857828_10829.JPEG	471.05092191696167	0.9237351417541504
179	449.0283031463623	response	0	k		177.0	/home/egter/Projects/stimuli/pictures/n03857828_10829.JPEG	471.96356105804443	
180	449.0393991470337	picture	0		104.0	178.0	/home/egter/Projects/stimuli/pictures/S_bing-www_dailymotion_com_video_x4kcklg_53.png	471.9746570587158	0.8679177761077881
180	449.8881220817566	response	0	j		178.0	/home/egter/Projects/stimuli/pictures/S_bing-www_dailymotion_com_video_x4kcklg_53.png	472.8233799934387	
181	449.9073169231415	picture	0		286.0	179.0	/home/egter/Projects/stimuli/pictures/ILSVRC2012_test_00015183.JPEG	472.8425748348236	2.3819282054901123
181	452.2714641094208	response	0	k		179.0	/home/egter/Projects/stimuli/pictures/ILSVRC2012_test_00015183.JPEG	475.2067220211029	
182	452.2892451286316	stim	0		1553.0			475.2245030403137	12.947198867797852
182	465.2199749946594	response	0	space				488.15523290634155	
