trial_nr	onset	event_type	phase	response	nr_frames	picture_index	picture_file	onset_abs	duration
0	0.015543937683105469	stim	0		334.0			34.12208700180054	2.79060697555542
0	2.7898240089416504	response	0	space				36.89636707305908	
2	2.8061509132385254	picture	0		244.0	0.0	/home/egter/Projects/stimuli/pictures/n03095699_25542.JPEG	36.91269397735596	2.0416769981384277
2	4.832088947296143	response	0	k		0.0	/home/egter/Projects/stimuli/pictures/n03095699_25542.JPEG	38.938632011413574	
3	4.847827911376953	picture	0		119.0	1.0	/home/egter/Projects/stimuli/pictures/R_S_yt-Ja7d2a6e5xE_279.png	38.954370975494385	0.9999990463256836
3	5.8317711353302	response	0	j		1.0	/home/egter/Projects/stimuli/pictures/R_S_yt-Ja7d2a6e5xE_279.png	39.93831419944763	
4	5.847826957702637	picture	0		122.0	2.0	/home/egter/Projects/stimuli/pictures/n02093859_359.JPEG	39.95437002182007	1.0249900817871094
4	6.85627007484436	response	0	k		2.0	/home/egter/Projects/stimuli/pictures/n02093859_359.JPEG	40.96281313896179	
5	6.872817039489746	picture	0		304.0	3.0	/home/egter/Projects/stimuli/pictures/S_yt-uDDv9fXG64w_98.png	40.97936010360718	2.5415799617767334
5	9.3978750705719	response	0	k		3.0	/home/egter/Projects/stimuli/pictures/S_yt-uDDv9fXG64w_98.png	43.50441813468933	
6	9.41439700126648	picture	0		105.0	4.0	/home/egter/Projects/stimuli/pictures/R_S_yt-Dlk44AGz-xM_37.png	43.52094006538391	0.8833389282226562
6	10.281270980834961	response	0	j		4.0	/home/egter/Projects/stimuli/pictures/R_S_yt-Dlk44AGz-xM_37.png	44.38781404495239	
7	10.297735929489136	picture	0		451.0	5.0	/home/egter/Projects/stimuli/pictures/S_ILSVRC2015_train_00460000.png	44.40427899360657	3.7629570960998535
7	14.047866106033325	response	0	j		5.0	/home/egter/Projects/stimuli/pictures/S_ILSVRC2015_train_00460000.png	48.15440917015076	
8	14.06069302558899	picture	0		129.0	6.0	/home/egter/Projects/stimuli/pictures/n03982430_519.JPEG	48.16723608970642	1.078744888305664
8	15.123368978500366	response	0	k		6.0	/home/egter/Projects/stimuli/pictures/n03982430_519.JPEG	49.2299120426178	
9	15.139437913894653	picture	0		118.0	7.0	/home/egter/Projects/stimuli/pictures/n02879718_393.JPEG	49.245980978012085	0.9837570190429688
9	16.11450505256653	response	0	k		7.0	/home/egter/Projects/stimuli/pictures/n02879718_393.JPEG	50.22104811668396	
10	16.123194932937622	picture	0		120.0	8.0	/home/egter/Projects/stimuli/pictures/S_comp_A008_C007_011550_CC_v01_SDR_PS_FINAL_20180709_SDR_2K_AVC.png	50.229737997055054	1.0078630447387695
10	17.114601135253906	response	0	j		8.0	/home/egter/Projects/stimuli/pictures/S_comp_A008_C007_011550_CC_v01_SDR_PS_FINAL_20180709_SDR_2K_AVC.png	51.22114419937134	
11	17.13105797767639	picture	0		110.0	9.0	/home/egter/Projects/stimuli/pictures/S_2RTDFkjD6vI_93.png	51.23760104179382	0.9250240325927734
11	18.03269100189209	response	0	j		9.0	/home/egter/Projects/stimuli/pictures/S_2RTDFkjD6vI_93.png	52.13923406600952	
12	18.056082010269165	picture	0		106.0	10.0	/home/egter/Projects/stimuli/pictures/n02823750_3762.JPEG	52.1626250743866	0.8916299343109131
12	18.931209087371826	response	0	k		10.0	/home/egter/Projects/stimuli/pictures/n02823750_3762.JPEG	53.03775215148926	
13	18.947711944580078	picture	0		104.0	11.0	/home/egter/Projects/stimuli/pictures/S_yt-XtzmBXKYEWk_60.png	53.05425500869751	0.8698580265045166
13	19.80620503425598	response	0	j		11.0	/home/egter/Projects/stimuli/pictures/S_yt-XtzmBXKYEWk_60.png	53.91274809837341	
14	19.817569971084595	picture	0		107.0	12.0	/home/egter/Projects/stimuli/pictures/R_S_yt-3NMDWrZr1Z4_255.png	53.924113035202026	0.896834135055542
14	20.697822093963623	response	0	j		12.0	/home/egter/Projects/stimuli/pictures/R_S_yt-3NMDWrZr1Z4_255.png	54.804365158081055	
15	20.714404106140137	picture	0		103.0	13.0	/home/egter/Projects/stimuli/pictures/R_S_yt-vQGD-rJyMw4_166.png	54.82094717025757	0.860131025314331
15	21.564495086669922	response	0	j		13.0	/home/egter/Projects/stimuli/pictures/R_S_yt-vQGD-rJyMw4_166.png	55.67103815078735	
16	21.574535131454468	picture	0		107.0	14.0	/home/egter/Projects/stimuli/pictures/S_pexels-koolshooters-7327401_1.png	55.6810781955719	0.8981637954711914
16	22.449350118637085	response	0	j		14.0	/home/egter/Projects/stimuli/pictures/S_pexels-koolshooters-7327401_1.png	56.55589318275452	
17	22.47269892692566	picture	0		96.0	15.0	/home/egter/Projects/stimuli/pictures/S_yt-5MyvZYFlc9g_125.png	56.57924199104309	0.8083410263061523
17	23.264398097991943	response	0	j		15.0	/home/egter/Projects/stimuli/pictures/S_yt-5MyvZYFlc9g_125.png	57.370941162109375	
18	23.28103995323181	picture	0		99.0	16.0	/home/egter/Projects/stimuli/pictures/R_S_yt-FbCVXEJicis_5.png	57.38758301734924	0.8333191871643066
18	24.09787607192993	response	0	j		16.0	/home/egter/Projects/stimuli/pictures/R_S_yt-FbCVXEJicis_5.png	58.20441913604736	
19	24.114359140396118	picture	0		96.0	17.0	/home/egter/Projects/stimuli/pictures/R_S_yt-738MRS0yI6g_177.png	58.22090220451355	0.8003678321838379
19	24.906170129776	response	0	j		17.0	/home/egter/Projects/stimuli/pictures/R_S_yt-738MRS0yI6g_177.png	59.01271319389343	
20	24.914726972579956	picture	0		101.0	18.0	/home/egter/Projects/stimuli/pictures/n03220513_39485.JPEG	59.02127003669739	0.8496191501617432
20	25.748198986053467	response	0	k		18.0	/home/egter/Projects/stimuli/pictures/n03220513_39485.JPEG	59.8547420501709	
21	25.7643461227417	picture	0		96.0	19.0	/home/egter/Projects/stimuli/pictures/R_S_yt-kawmL3oVw8c_2.png	59.87088918685913	0.8032009601593018
21	26.556155920028687	response	0	j		19.0	/home/egter/Projects/stimuli/pictures/R_S_yt-kawmL3oVw8c_2.png	60.66269898414612	
22	26.567547082901	picture	0		164.0	20.0	/home/egter/Projects/stimuli/pictures/S_yt-bl9EuWKeVmY_6.png	60.67409014701843	1.3718159198760986
22	27.92280912399292	response	0	k		20.0	/home/egter/Projects/stimuli/pictures/S_yt-bl9EuWKeVmY_6.png	62.02935218811035	
23	27.9393630027771	picture	0		122.0	21.0	/home/egter/Projects/stimuli/pictures/S_comp_HK_H004_C013_t9_6M_HB_tag0.png	62.04590606689453	1.0249590873718262
23	28.94777512550354	response	0	j		21.0	/home/egter/Projects/stimuli/pictures/S_comp_HK_H004_C013_t9_6M_HB_tag0.png	63.05431818962097	
24	28.964322090148926	picture	0		94.0	22.0	/home/egter/Projects/stimuli/pictures/n04118776_8927.JPEG	63.07086515426636	0.7916879653930664
24	29.739413022994995	response	0	k		22.0	/home/egter/Projects/stimuli/pictures/n04118776_8927.JPEG	63.84595608711243	
25	29.756010055541992	picture	0		103.0	23.0	/home/egter/Projects/stimuli/pictures/n02486261_11686.JPEG	63.862553119659424	0.8600540161132812
25	30.606132984161377	response	0	k		23.0	/home/egter/Projects/stimuli/pictures/n02486261_11686.JPEG	64.71267604827881	
26	30.616064071655273	picture	0		97.0	24.0	/home/egter/Projects/stimuli/pictures/S_yt-PRqnM7xDsus_24.png	64.7226071357727	0.8150579929351807
26	31.414814949035645	response	0	j		24.0	/home/egter/Projects/stimuli/pictures/S_yt-PRqnM7xDsus_24.png	65.52135801315308	
27	31.431122064590454	picture	0		97.0	25.0	/home/egter/Projects/stimuli/pictures/R_S_ILSVRC2015_train_00371012.png	65.53766512870789	0.8099770545959473
27	32.224308013916016	response	0	j		25.0	/home/egter/Projects/stimuli/pictures/R_S_ILSVRC2015_train_00371012.png	66.33085107803345	
28	32.2410991191864	picture	0		95.0	26.0	/home/egter/Projects/stimuli/pictures/R_S_Pexels_Videos_278654_1.png	66.34764218330383	0.7982149124145508
28	33.02286696434021	response	0	j		26.0	/home/egter/Projects/stimuli/pictures/R_S_Pexels_Videos_278654_1.png	67.12941002845764	
29	33.03931403160095	picture	0		97.0	27.0	/home/egter/Projects/stimuli/pictures/n02058221_4417.JPEG	67.14585709571838	0.812877893447876
29	33.83307194709778	response	0	k		27.0	/home/egter/Projects/stimuli/pictures/n02058221_4417.JPEG	67.93961501121521	
30	33.85219192504883	picture	0		98.0	28.0	/home/egter/Projects/stimuli/pictures/R_S_yt-iO0efV_PV-k_102.png	67.95873498916626	0.8204421997070312
30	34.656089067459106	response	0	j		28.0	/home/egter/Projects/stimuli/pictures/R_S_yt-iO0efV_PV-k_102.png	68.76263213157654	
31	34.67263412475586	picture	0		121.0	29.0	/home/egter/Projects/stimuli/pictures/S_video_inspire_uk_edinburgh_arthursseat_010.png	68.77917718887329	1.0128788948059082
31	35.67277908325195	response	0	j		29.0	/home/egter/Projects/stimuli/pictures/S_video_inspire_uk_edinburgh_arthursseat_010.png	69.77932214736938	
32	35.68551301956177	picture	0		100.0	30.0	/home/egter/Projects/stimuli/pictures/n04238763_5409.JPEG	69.7920560836792	0.8371310234069824
32	36.50609993934631	response	0	k		30.0	/home/egter/Projects/stimuli/pictures/n04238763_5409.JPEG	70.61264300346375	
33	36.52264404296875	picture	0		107.0	31.0	/home/egter/Projects/stimuli/pictures/n01797886_1738.JPEG	70.62918710708618	0.8999979496002197
33	37.40606093406677	response	0	k		31.0	/home/egter/Projects/stimuli/pictures/n01797886_1738.JPEG	71.5126039981842	
34	37.42264199256897	picture	0		641.0	32.0	/home/egter/Projects/stimuli/pictures/n09468604_3861.JPEG	71.5291850566864	5.3461620807647705
34	42.756032943725586	response	0	j		32.0	/home/egter/Projects/stimuli/pictures/n09468604_3861.JPEG	76.86257600784302	
35	42.76880407333374	picture	0		103.0	33.0	/home/egter/Projects/stimuli/pictures/n04389033_2859.JPEG	76.87534713745117	0.8541810512542725
35	43.61438512802124	response	0	k		33.0	/home/egter/Projects/stimuli/pictures/n04389033_2859.JPEG	77.72092819213867	
36	43.62298512458801	picture	0		312.0	34.0	/home/egter/Projects/stimuli/pictures/S_yt-0RBWX9VRzaU_141.png	77.72952818870544	2.6079518795013428
36	46.21439003944397	response	0	k		34.0	/home/egter/Projects/stimuli/pictures/S_yt-0RBWX9VRzaU_141.png	80.3209331035614	
37	46.230937004089355	picture	0		111.0	35.0	/home/egter/Projects/stimuli/pictures/R_S_pexels-cottonbro-10640532.png	80.33748006820679	0.9333140850067139
37	47.14773893356323	response	0	j		35.0	/home/egter/Projects/stimuli/pictures/R_S_pexels-cottonbro-10640532.png	81.25428199768066	
38	47.16425108909607	picture	0		113.0	36.0	/home/egter/Projects/stimuli/pictures/n02641379_39329.JPEG	81.2707941532135	0.9500248432159424
38	48.09769892692566	response	0	k		36.0	/home/egter/Projects/stimuli/pictures/n02641379_39329.JPEG	82.20424199104309	
39	48.11427593231201	picture	0		109.0	37.0	/home/egter/Projects/stimuli/pictures/R_S_comp_1223LV_FLARE_v21_SDR_PS_FINAL_20180709_F0F5700_SDR_2K_AVC.png	82.22081899642944	0.925300121307373
39	49.014389991760254	response	0	j		37.0	/home/egter/Projects/stimuli/pictures/R_S_comp_1223LV_FLARE_v21_SDR_PS_FINAL_20180709_F0F5700_SDR_2K_AVC.png	83.12093305587769	
40	49.039576053619385	picture	0		183.0	38.0	/home/egter/Projects/stimuli/pictures/R_S_wc-ZZxbTv7oc5DQ_10.png	83.14611911773682	1.5330328941345215
40	50.55605506896973	response	0	j		38.0	/home/egter/Projects/stimuli/pictures/R_S_wc-ZZxbTv7oc5DQ_10.png	84.66259813308716	
41	50.572608947753906	picture	0		174.0	39.0	/home/egter/Projects/stimuli/pictures/R_S_g201_CA_A016_C002_SDR_20191114_SDR_2K_AVC.png	84.67915201187134	1.4583101272583008
41	52.01437592506409	response	0	k		39.0	/home/egter/Projects/stimuli/pictures/R_S_g201_CA_A016_C002_SDR_20191114_SDR_2K_AVC.png	86.12091898918152	
41	52.014451026916504	response	0	j		39.0	/home/egter/Projects/stimuli/pictures/R_S_g201_CA_A016_C002_SDR_20191114_SDR_2K_AVC.png	86.12099409103394	
42	52.03091907501221	picture	0		124.0	40.0	/home/egter/Projects/stimuli/pictures/n02489166_9884.JPEG	86.13746213912964	1.0364549160003662
42	53.049246072769165	response	0	j		40.0	/home/egter/Projects/stimuli/pictures/n02489166_9884.JPEG	87.1557891368866	
43	53.06737399101257	picture	0		393.0	41.0	/home/egter/Projects/stimuli/pictures/S_yt-osdlC1buTaM_4.png	87.17391705513	3.2801389694213867
43	56.331198930740356	response	0	j		41.0	/home/egter/Projects/stimuli/pictures/S_yt-osdlC1buTaM_4.png	90.43774199485779	
44	56.34751296043396	picture	0		424.0	42.0	/home/egter/Projects/stimuli/pictures/S_yt-7Fyu2vr7zbA_31.png	90.45405602455139	3.541646957397461
44	59.87293100357056	response	0	j		42.0	/home/egter/Projects/stimuli/pictures/S_yt-7Fyu2vr7zbA_31.png	93.97947406768799	
45	59.88915991783142	picture	0		127.0	43.0	/home/egter/Projects/stimuli/pictures/S_AwPBuHsoXV0_25.png	93.99570298194885	1.0600080490112305
45	60.93937802314758	response	0	k		43.0	/home/egter/Projects/stimuli/pictures/S_AwPBuHsoXV0_25.png	95.04592108726501	
46	60.94916796684265	picture	0		210.0	44.0	/home/egter/Projects/stimuli/pictures/R_S_yt-VTNBCfQxnsk_59.png	95.05571103096008	1.756697177886963
46	62.68932795524597	response	0	j		44.0	/home/egter/Projects/stimuli/pictures/R_S_yt-VTNBCfQxnsk_59.png	96.7958710193634	
47	62.705865144729614	picture	0		146.0	45.0	/home/egter/Projects/stimuli/pictures/n02536864_1961.JPEG	96.81240820884705	1.2249739170074463
47	63.91448402404785	response	0	k		45.0	/home/egter/Projects/stimuli/pictures/n02536864_1961.JPEG	98.02102708816528	
48	63.93083906173706	picture	0		94.0	46.0	/home/egter/Projects/stimuli/pictures/n02396427_7033.JPEG	98.03738212585449	0.7891380786895752
48	64.70611596107483	response	0	k		46.0	/home/egter/Projects/stimuli/pictures/n02396427_7033.JPEG	98.81265902519226	
49	64.71997714042664	picture	0		102.0	47.0	/home/egter/Projects/stimuli/pictures/n01910747_877.JPEG	98.82652020454407	0.8541209697723389
49	65.56430506706238	response	0	j		47.0	/home/egter/Projects/stimuli/pictures/n01910747_877.JPEG	99.67084813117981	
50	65.57409811019897	picture	0		121.0	48.0	/home/egter/Projects/stimuli/pictures/S_yt-ak01CHYgEOs_1383.png	99.6806411743164	1.01509690284729
50	66.57263493537903	response	0	j		48.0	/home/egter/Projects/stimuli/pictures/S_yt-ak01CHYgEOs_1383.png	100.67917799949646	
51	66.58919501304626	picture	0		102.0	49.0	/home/egter/Projects/stimuli/pictures/n02115913_1433.JPEG	100.6957380771637	0.8583331108093262
51	67.43100309371948	response	0	k		49.0	/home/egter/Projects/stimuli/pictures/n02115913_1433.JPEG	101.53754615783691	
52	67.44752812385559	picture	0		129.0	50.0	/home/egter/Projects/stimuli/pictures/n03590841_10648.JPEG	101.55407118797302	1.0833349227905273
52	68.51431798934937	response	0	k		50.0	/home/egter/Projects/stimuli/pictures/n03590841_10648.JPEG	102.6208610534668	
53	68.53086304664612	picture	0		172.0	51.0	/home/egter/Projects/stimuli/pictures/n03933933_16287.JPEG	102.63740611076355	1.4416489601135254
53	69.9561219215393	response	0	k		51.0	/home/egter/Projects/stimuli/pictures/n03933933_16287.JPEG	104.06266498565674	
54	69.97251200675964	picture	0		110.0	52.0	/home/egter/Projects/stimuli/pictures/R_S_yt-R5wOWRtRmrI_36.png	104.07905507087708	0.9249849319458008
54	70.88092994689941	response	0	j		52.0	/home/egter/Projects/stimuli/pictures/R_S_yt-R5wOWRtRmrI_36.png	104.98747301101685	
55	70.89749693870544	picture	0		114.0	53.0	/home/egter/Projects/stimuli/pictures/R_S_yt-iHmshS63rBc_329.png	105.00404000282288	0.9583292007446289
55	71.83929204940796	response	0	j		53.0	/home/egter/Projects/stimuli/pictures/R_S_yt-iHmshS63rBc_329.png	105.94583511352539	
56	71.85582613945007	picture	0		123.0	54.0	/home/egter/Projects/stimuli/pictures/n03126707_1277.JPEG	105.9623692035675	1.0333168506622314
56	72.8727560043335	response	0	k		54.0	/home/egter/Projects/stimuli/pictures/n03126707_1277.JPEG	106.97929906845093	
57	72.8891429901123	picture	0		106.0	55.0	/home/egter/Projects/stimuli/pictures/n02835271_9551.JPEG	106.99568605422974	0.8917019367218018
57	73.76429104804993	response	0	k		55.0	/home/egter/Projects/stimuli/pictures/n02835271_9551.JPEG	107.87083411216736	
58	73.7808449268341	picture	0		145.0	56.0	/home/egter/Projects/stimuli/pictures/n04347754_624.JPEG	107.88738799095154	1.2166399955749512
58	74.98094010353088	response	0	k		56.0	/home/egter/Projects/stimuli/pictures/n04347754_624.JPEG	109.08748316764832	
59	74.99748492240906	picture	0		127.0	57.0	/home/egter/Projects/stimuli/pictures/n04179913_7268.JPEG	109.10402798652649	1.062676191329956
59	76.04103493690491	response	0	k		57.0	/home/egter/Projects/stimuli/pictures/n04179913_7268.JPEG	110.14757800102234	
60	76.06016111373901	picture	0		279.0	58.0	/home/egter/Projects/stimuli/pictures/n02281787_2559.JPEG	110.16670417785645	2.3289928436279297
60	78.37270712852478	response	0	k		58.0	/home/egter/Projects/stimuli/pictures/n02281787_2559.JPEG	112.47925019264221	
61	78.38915395736694	picture	0		265.0	59.0	/home/egter/Projects/stimuli/pictures/n03344393_5136.JPEG	112.49569702148438	2.2166800498962402
61	80.58924794197083	response	0	k		59.0	/home/egter/Projects/stimuli/pictures/n03344393_5136.JPEG	114.69579100608826	
62	80.60583400726318	picture	0		164.0	60.0	/home/egter/Projects/stimuli/pictures/S_ILSVRC2015_train_00682006.png	114.71237707138062	1.3749959468841553
62	81.96432995796204	response	0	k		60.0	/home/egter/Projects/stimuli/pictures/S_ILSVRC2015_train_00682006.png	116.07087302207947	
63	81.98082995414734	picture	0		98.0	61.0	/home/egter/Projects/stimuli/pictures/S_yt-Ud9uqaeHtY4_302.png	116.08737301826477	0.824984073638916
63	82.78941893577576	response	0	j		61.0	/home/egter/Projects/stimuli/pictures/S_yt-Ud9uqaeHtY4_302.png	116.89596199989319	
64	82.80581402778625	picture	0		94.0	62.0	/home/egter/Projects/stimuli/pictures/S_ux8Mvi8P16k_168.png	116.91235709190369	0.7916159629821777
64	83.58104300498962	response	0	j		62.0	/home/egter/Projects/stimuli/pictures/S_ux8Mvi8P16k_168.png	117.68758606910706	
65	83.59742999076843	picture	0		243.0	63.0	/home/egter/Projects/stimuli/pictures/n01917289_731.JPEG	117.70397305488586	2.0333399772644043
65	85.61420893669128	response	0	k		63.0	/home/egter/Projects/stimuli/pictures/n01917289_731.JPEG	119.72075200080872	
66	85.63076996803284	picture	0		141.0	64.0	/home/egter/Projects/stimuli/pictures/n03980874_19533.JPEG	119.73731303215027	1.1792380809783936
66	86.79757308959961	response	0	k		64.0	/home/egter/Projects/stimuli/pictures/n03980874_19533.JPEG	120.90411615371704	
67	86.81000804901123	picture	0		111.0	65.0	/home/egter/Projects/stimuli/pictures/S_yt-HsiWrFBbUuU_10.png	120.91655111312866	0.9235920906066895
67	87.72255897521973	response	0	k		65.0	/home/egter/Projects/stimuli/pictures/S_yt-HsiWrFBbUuU_10.png	121.82910203933716	
68	87.73360013961792	picture	0		120.0	66.0	/home/egter/Projects/stimuli/pictures/n03478589_16903.JPEG	121.84014320373535	1.0000338554382324
68	88.72257900238037	response	0	k		66.0	/home/egter/Projects/stimuli/pictures/n03478589_16903.JPEG	122.8291220664978	
69	88.73363399505615	picture	0		91.0	67.0	/home/egter/Projects/stimuli/pictures/R_S_yt-GbL63AmOIss_116.png	122.84017705917358	0.7569210529327393
69	89.47400093078613	response	0	j		67.0	/home/egter/Projects/stimuli/pictures/R_S_yt-GbL63AmOIss_116.png	123.58054399490356	
70	89.49055504798889	picture	0		97.0	68.0	/home/egter/Projects/stimuli/pictures/S_ILSVRC2015_train_00524006.png	123.59709811210632	0.8124949932098389
70	90.28930497169495	response	0	j		68.0	/home/egter/Projects/stimuli/pictures/S_ILSVRC2015_train_00524006.png	124.39584803581238	
71	90.30305004119873	picture	0		93.0	69.0	/home/egter/Projects/stimuli/pictures/S_g201_CA_A016_C002_SDR_20191114_SDR_2K_AVC.png	124.40959310531616	0.7860500812530518
71	91.06581902503967	response	0	j		69.0	/home/egter/Projects/stimuli/pictures/S_g201_CA_A016_C002_SDR_20191114_SDR_2K_AVC.png	125.1723620891571	
72	91.08910012245178	picture	0		272.0	70.0	/home/egter/Projects/stimuli/pictures/n04243546_7928.JPEG	125.19564318656921	2.2694919109344482
72	93.34754705429077	response	0	k		70.0	/home/egter/Projects/stimuli/pictures/n04243546_7928.JPEG	127.4540901184082	
73	93.35859203338623	picture	0		104.0	71.0	/home/egter/Projects/stimuli/pictures/S_comp_1223LV_FLARE_v21_SDR_PS_FINAL_20180709_F0F5700_SDR_2K_AVC.png	127.46513509750366	0.8721590042114258
73	94.21420192718506	response	0	j		71.0	/home/egter/Projects/stimuli/pictures/S_comp_1223LV_FLARE_v21_SDR_PS_FINAL_20180709_F0F5700_SDR_2K_AVC.png	128.3207449913025	
74	94.23075103759766	picture	0		173.0	72.0	/home/egter/Projects/stimuli/pictures/n09468604_18775.JPEG	128.3372941017151	1.4499800205230713
74	95.65740513801575	response	0	k		72.0	/home/egter/Projects/stimuli/pictures/n09468604_18775.JPEG	129.76394820213318	
75	95.68073105812073	picture	0		90.0	73.0	/home/egter/Projects/stimuli/pictures/S_yt-jbvXEFk2Gyw_12.png	129.78727412223816	0.7583370208740234
75	96.42252898216248	response	0	j		73.0	/home/egter/Projects/stimuli/pictures/S_yt-jbvXEFk2Gyw_12.png	130.5290720462799	
76	96.43906807899475	picture	0		78.0	74.0	/home/egter/Projects/stimuli/pictures/n03496892_13891.JPEG	130.54561114311218	0.6583149433135986
76	97.080894947052	response	0	k		74.0	/home/egter/Projects/stimuli/pictures/n03496892_13891.JPEG	131.18743801116943	
77	97.09738302230835	picture	0		178.0	75.0	/home/egter/Projects/stimuli/pictures/S_yt-1uk2k3PnTNw_12.png	131.20392608642578	1.491703987121582
77	98.57251691818237	response	0	k		75.0	/home/egter/Projects/stimuli/pictures/S_yt-1uk2k3PnTNw_12.png	132.6790599822998	
78	98.58908700942993	picture	0		228.0	76.0	/home/egter/Projects/stimuli/pictures/R_S_yt-EZCX42e_bkc_78.png	132.69563007354736	1.9166600704193115
78	100.48914098739624	response	0	j		76.0	/home/egter/Projects/stimuli/pictures/R_S_yt-EZCX42e_bkc_78.png	134.59568405151367	
79	100.50574707984924	picture	0		99.0	77.0	/home/egter/Projects/stimuli/pictures/ILSVRC2012_test_00030050.JPEG	134.61229014396667	0.8333120346069336
79	101.32253313064575	response	0	k		77.0	/home/egter/Projects/stimuli/pictures/ILSVRC2012_test_00030050.JPEG	135.42907619476318	
80	101.33905911445618	picture	0		91.0	78.0	/home/egter/Projects/stimuli/pictures/R_S_yt-RO4mhuXBVrY_67.png	135.4456021785736	0.7666609287261963
80	102.08914709091187	response	0	j		78.0	/home/egter/Projects/stimuli/pictures/R_S_yt-RO4mhuXBVrY_67.png	136.1956901550293	
81	102.10572004318237	picture	0		95.0	79.0	/home/egter/Projects/stimuli/pictures/S_yt-K_gHa2x2OQA_319.png	136.2122631072998	0.7999749183654785
81	102.88916897773743	response	0	j		79.0	/home/egter/Projects/stimuli/pictures/S_yt-K_gHa2x2OQA_319.png	136.99571204185486	
82	102.90569496154785	picture	0		141.0	80.0	/home/egter/Projects/stimuli/pictures/S_yt-ChAhBD9LrsU_223.png	137.01223802566528	1.1833431720733643
82	104.0656840801239	response	0	k		80.0	/home/egter/Projects/stimuli/pictures/S_yt-ChAhBD9LrsU_223.png	138.17222714424133	
83	104.08903813362122	picture	0		90.0	81.0	/home/egter/Projects/stimuli/pictures/S_yt-fryIS5Itzig_124.png	138.19558119773865	0.7555539608001709
83	104.83080911636353	response	0	j		81.0	/home/egter/Projects/stimuli/pictures/S_yt-fryIS5Itzig_124.png	138.93735218048096	
84	104.84459209442139	picture	0		91.0	82.0	/home/egter/Projects/stimuli/pictures/S_production_ID_5139371.png	138.95113515853882	0.7638649940490723
84	105.59747004508972	response	0	j		82.0	/home/egter/Projects/stimuli/pictures/S_production_ID_5139371.png	139.70401310920715	
85	105.60845708847046	picture	0		88.0	83.0	/home/egter/Projects/stimuli/pictures/n01440764_10787.JPEG	139.7150001525879	0.7389228343963623
85	106.33079695701599	response	0	k		83.0	/home/egter/Projects/stimuli/pictures/n01440764_10787.JPEG	140.43734002113342	
86	106.34737992286682	picture	0		89.0	84.0	/home/egter/Projects/stimuli/pictures/n02134418_9485.JPEG	140.45392298698425	0.7471961975097656
86	107.07401394844055	response	0	k		84.0	/home/egter/Projects/stimuli/pictures/n02134418_9485.JPEG	141.18055701255798	
87	107.09457612037659	picture	0		92.0	85.0	/home/egter/Projects/stimuli/pictures/S_pexels-mikhail-nilov-8410084.png	141.20111918449402	0.777789831161499
87	107.84902596473694	response	0	j		85.0	/home/egter/Projects/stimuli/pictures/S_pexels-mikhail-nilov-8410084.png	141.95556902885437	
88	107.87236595153809	picture	0		98.0	86.0	/home/egter/Projects/stimuli/pictures/n01756291_2795.JPEG	141.97890901565552	0.8193910121917725
88	108.67413902282715	response	0	k		86.0	/home/egter/Projects/stimuli/pictures/n01756291_2795.JPEG	142.78068208694458	
89	108.69175696372986	picture	0		94.0	87.0	/home/egter/Projects/stimuli/pictures/n03095699_4762.JPEG	142.7983000278473	0.7847311496734619
89	109.45741200447083	response	0	k		87.0	/home/egter/Projects/stimuli/pictures/n03095699_4762.JPEG	143.56395506858826	
90	109.47648811340332	picture	0		96.0	88.0	/home/egter/Projects/stimuli/pictures/R_S_yt-vQ-rd-1gwH4_238.png	143.58303117752075	0.7986159324645996
90	110.25734996795654	response	0	j		88.0	/home/egter/Projects/stimuli/pictures/R_S_yt-vQ-rd-1gwH4_238.png	144.36389303207397	
91	110.27510404586792	picture	0		138.0	89.0	/home/egter/Projects/stimuli/pictures/n03218198_6372.JPEG	144.38164710998535	1.1555709838867188
91	111.41414308547974	response	0	k		89.0	/home/egter/Projects/stimuli/pictures/n03218198_6372.JPEG	145.52068614959717	
92	111.43067502975464	picture	0		124.0	90.0	/home/egter/Projects/stimuli/pictures/n02134084_2844.JPEG	145.53721809387207	1.0416769981384277
92	112.45579195022583	response	0	k		90.0	/home/egter/Projects/stimuli/pictures/n02134084_2844.JPEG	146.56233501434326	
93	112.47235202789307	picture	0		79.0	91.0	/home/egter/Projects/stimuli/pictures/n03854065_10600.JPEG	146.5788950920105	0.6638290882110596
93	113.12244892120361	response	0	k		91.0	/home/egter/Projects/stimuli/pictures/n03854065_10600.JPEG	147.22899198532104	
94	113.13618111610413	picture	0		88.0	92.0	/home/egter/Projects/stimuli/pictures/n02109047_17100.JPEG	147.24272418022156	0.744488000869751
94	113.8572371006012	response	0	k		92.0	/home/egter/Projects/stimuli/pictures/n02109047_17100.JPEG	147.96378016471863	
95	113.88066911697388	picture	0		117.0	93.0	/home/egter/Projects/stimuli/pictures/R_S_yt-QQPv17nfR_E_2.png	147.9872121810913	0.9833669662475586
95	114.84744501113892	response	0	j		93.0	/home/egter/Projects/stimuli/pictures/R_S_yt-QQPv17nfR_E_2.png	148.95398807525635	
96	114.86403608322144	picture	0		128.0	94.0	/home/egter/Projects/stimuli/pictures/S_comp_A083_C002_1130KZ_v04_SDR_PS_FINAL_20180725_SDR_2K_AVC.png	148.97057914733887	1.0749809741973877
96	115.92248392105103	response	0	j		94.0	/home/egter/Projects/stimuli/pictures/S_comp_A083_C002_1130KZ_v04_SDR_PS_FINAL_20180725_SDR_2K_AVC.png	150.02902698516846	
97	115.93901705741882	picture	0		93.0	95.0	/home/egter/Projects/stimuli/pictures/S_production_ID_4720614.png	150.04556012153625	0.7832748889923096
97	116.70575904846191	response	0	j		95.0	/home/egter/Projects/stimuli/pictures/S_production_ID_4720614.png	150.81230211257935	
98	116.72229194641113	picture	0		90.0	96.0	/home/egter/Projects/stimuli/pictures/R_S_yt-YTQXM5ZjRgg_116.png	150.82883501052856	0.7583620548248291
98	117.45734405517578	response	0	j		96.0	/home/egter/Projects/stimuli/pictures/R_S_yt-YTQXM5ZjRgg_116.png	151.5638871192932	
99	117.48065400123596	picture	0		88.0	97.0	/home/egter/Projects/stimuli/pictures/n02966193_9079.JPEG	151.5871970653534	0.7500500679016113
99	118.20577907562256	response	0	k		97.0	/home/egter/Projects/stimuli/pictures/n02966193_9079.JPEG	152.31232213974	
100	118.23070406913757	picture	0		102.0	98.0	/home/egter/Projects/stimuli/pictures/R_S_yt-okYy5Md2U8I_7.png	152.337247133255	0.8582780361175537
100	119.06558299064636	response	0	j		98.0	/home/egter/Projects/stimuli/pictures/R_S_yt-okYy5Md2U8I_7.png	153.1721260547638	
101	119.08898210525513	picture	0		101.0	99.0	/home/egter/Projects/stimuli/pictures/n03992509_14076.JPEG	153.19552516937256	0.8457329273223877
101	119.92238998413086	response	0	k		99.0	/home/egter/Projects/stimuli/pictures/n03992509_14076.JPEG	154.0289330482483	
102	119.93471503257751	picture	0		81.0	100.0	/home/egter/Projects/stimuli/pictures/R_S_yt-9yxWUrtQJnw_11.png	154.04125809669495	0.6805460453033447
102	120.60570311546326	response	0	j		100.0	/home/egter/Projects/stimuli/pictures/R_S_yt-9yxWUrtQJnw_11.png	154.7122461795807	
103	120.61526107788086	picture	0		85.0	101.0	/home/egter/Projects/stimuli/pictures/R_S_yt-YeT4acsbqok_210.png	154.7218041419983	0.7083239555358887
103	121.31410312652588	response	0	j		101.0	/home/egter/Projects/stimuli/pictures/R_S_yt-YeT4acsbqok_210.png	155.4206461906433	
104	121.32358503341675	picture	0		84.0	102.0	/home/egter/Projects/stimuli/pictures/S_yt-QQPv17nfR_E_2.png	155.43012809753418	0.7071239948272705
104	122.01403903961182	response	0	j		102.0	/home/egter/Projects/stimuli/pictures/S_yt-QQPv17nfR_E_2.png	156.12058210372925	
105	122.03070902824402	picture	0		81.0	103.0	/home/egter/Projects/stimuli/pictures/n04335435_985.JPEG	156.13725209236145	0.6749041080474854
105	122.69060206413269	response	0	k		103.0	/home/egter/Projects/stimuli/pictures/n04335435_985.JPEG	156.79714512825012	
106	122.7056131362915	picture	0		91.0	104.0	/home/egter/Projects/stimuli/pictures/R_S_yt-uE9XoCLZlFo_1.png	156.81215620040894	0.7666318416595459
106	123.45572996139526	response	0	j		104.0	/home/egter/Projects/stimuli/pictures/R_S_yt-uE9XoCLZlFo_1.png	157.5622730255127	
107	123.47224497795105	picture	0		81.0	105.0	/home/egter/Projects/stimuli/pictures/R_S_yt-QXsedpZh800_275.png	157.57878804206848	0.6846561431884766
107	124.13901495933533	response	0	j		105.0	/home/egter/Projects/stimuli/pictures/R_S_yt-QXsedpZh800_275.png	158.24555802345276	
108	124.15690112113953	picture	0		102.0	106.0	/home/egter/Projects/stimuli/pictures/S_yt-VypeVQ7gJ_k_578.png	158.26344418525696	0.8570408821105957
108	124.99738693237305	response	0	k		106.0	/home/egter/Projects/stimuli/pictures/S_yt-VypeVQ7gJ_k_578.png	159.10392999649048	
109	125.01394200325012	picture	0		82.0	107.0	/home/egter/Projects/stimuli/pictures/n02704792_5138.JPEG	159.12048506736755	0.6845860481262207
109	125.6822440624237	response	0	k		107.0	/home/egter/Projects/stimuli/pictures/n02704792_5138.JPEG	159.78878712654114	
110	125.69852805137634	picture	0		161.0	108.0	/home/egter/Projects/stimuli/pictures/S_yt-ie418P-Euz4_1077.png	159.80507111549377	1.3487470149993896
110	127.03081607818604	response	0	k		108.0	/home/egter/Projects/stimuli/pictures/S_yt-ie418P-Euz4_1077.png	161.13735914230347	
111	127.04727506637573	picture	0		181.0	109.0	/home/egter/Projects/stimuli/pictures/S_ILSVRC2015_train_00324000.png	161.15381813049316	1.5166680812835693
111	128.54733991622925	response	0	j		109.0	/home/egter/Projects/stimuli/pictures/S_ILSVRC2015_train_00324000.png	162.65388298034668	
112	128.5639431476593	picture	0		114.0	110.0	/home/egter/Projects/stimuli/pictures/S_yt-8gaLZxx-q50_142.png	162.67048621177673	0.9583477973937988
112	129.5057339668274	response	0	k		110.0	/home/egter/Projects/stimuli/pictures/S_yt-8gaLZxx-q50_142.png	163.61227703094482	
113	129.5222909450531	picture	0		82.0	111.0	/home/egter/Projects/stimuli/pictures/n02018795_2073.JPEG	163.62883400917053	0.6916279792785645
113	130.1975109577179	response	0	k		111.0	/home/egter/Projects/stimuli/pictures/n02018795_2073.JPEG	164.30405402183533	
114	130.21391892433167	picture	0		81.0	112.0	/home/egter/Projects/stimuli/pictures/S_ILSVRC2015_train_00725000.png	164.3204619884491	0.6833031177520752
114	130.87388706207275	response	0	j		112.0	/home/egter/Projects/stimuli/pictures/S_ILSVRC2015_train_00725000.png	164.98043012619019	
115	130.89722204208374	picture	0		103.0	113.0	/home/egter/Projects/stimuli/pictures/R_S_yt-Rqwi-Fk9IJQ_114.png	165.00376510620117	0.8666729927062988
115	131.7473590373993	response	0	j		113.0	/home/egter/Projects/stimuli/pictures/R_S_yt-Rqwi-Fk9IJQ_114.png	165.85390210151672	
116	131.76389503479004	picture	0		83.0	114.0	/home/egter/Projects/stimuli/pictures/ILSVRC2012_val_00039884.JPEG	165.87043809890747	0.7000150680541992
116	132.44734692573547	response	0	k		114.0	/home/egter/Projects/stimuli/pictures/ILSVRC2012_val_00039884.JPEG	166.5538899898529	
117	132.46391010284424	picture	0		77.0	115.0	/home/egter/Projects/stimuli/pictures/R_S_yt-82O1uT8dmv8_12.png	166.57045316696167	0.6499919891357422
117	133.09740805625916	response	0	j		115.0	/home/egter/Projects/stimuli/pictures/R_S_yt-82O1uT8dmv8_12.png	167.2039511203766	
118	133.11390209197998	picture	0		149.0	116.0	/home/egter/Projects/stimuli/pictures/R_S_G008_C015_UHD_SDR_2K_AVC.png	167.2204451560974	1.249974012374878
118	134.3472969532013	response	0	k		116.0	/home/egter/Projects/stimuli/pictures/R_S_G008_C015_UHD_SDR_2K_AVC.png	168.45384001731873	
119	134.36387610435486	picture	0		99.0	117.0	/home/egter/Projects/stimuli/pictures/S_yt-okYy5Md2U8I_7.png	168.4704191684723	0.8417010307312012
119	135.18901801109314	response	0	j		117.0	/home/egter/Projects/stimuli/pictures/S_yt-okYy5Md2U8I_7.png	169.29556107521057	
120	135.20557713508606	picture	0		76.0	118.0	/home/egter/Projects/stimuli/pictures/n13133613_15992.JPEG	169.3121201992035	0.6416418552398682
120	135.83067798614502	response	0	k		118.0	/home/egter/Projects/stimuli/pictures/n13133613_15992.JPEG	169.93722105026245	
121	135.84721899032593	picture	0		89.0	119.0	/home/egter/Projects/stimuli/pictures/R_S_yt-28ODBE9bVh0_44.png	169.95376205444336	0.750014066696167
121	136.5806589126587	response	0	j		119.0	/home/egter/Projects/stimuli/pictures/R_S_yt-28ODBE9bVh0_44.png	170.68720197677612	
122	136.5972330570221	picture	0		83.0	120.0	/home/egter/Projects/stimuli/pictures/ILSVRC2012_test_00028014.JPEG	170.70377612113953	0.6999988555908203
122	137.27387404441833	response	0	k		120.0	/home/egter/Projects/stimuli/pictures/ILSVRC2012_test_00028014.JPEG	171.38041710853577	
123	137.29723191261292	picture	0		98.0	121.0	/home/egter/Projects/stimuli/pictures/n12985857_77.JPEG	171.40377497673035	0.825005054473877
123	138.09888195991516	response	0	k		121.0	/home/egter/Projects/stimuli/pictures/n12985857_77.JPEG	172.2054250240326	
124	138.1222369670868	picture	0		119.0	122.0	/home/egter/Projects/stimuli/pictures/S_yt--5ls65Ue1RA_52.png	172.22878003120422	1.0000100135803223
124	139.10562705993652	response	0	j		122.0	/home/egter/Projects/stimuli/pictures/S_yt--5ls65Ue1RA_52.png	173.21217012405396	
125	139.12224698066711	picture	0		100.0	123.0	/home/egter/Projects/stimuli/pictures/R_S_comp_A114_C001_0305OT_v10_SDR_FINAL_22062018_SDR_2K_AVC.png	173.22879004478455	0.8417010307312012
125	139.94733595848083	response	0	j		123.0	/home/egter/Projects/stimuli/pictures/R_S_comp_A114_C001_0305OT_v10_SDR_FINAL_22062018_SDR_2K_AVC.png	174.05387902259827	
126	139.96394801139832	picture	0		101.0	124.0	/home/egter/Projects/stimuli/pictures/S_yt-isJga8ec5UM_32.png	174.07049107551575	0.8525280952453613
126	140.7973439693451	response	0	j		124.0	/home/egter/Projects/stimuli/pictures/S_yt-isJga8ec5UM_32.png	174.90388703346252	
127	140.81647610664368	picture	0		82.0	125.0	/home/egter/Projects/stimuli/pictures/n09288635_813.JPEG	174.9230191707611	0.6890668869018555
127	141.4823341369629	response	0	k		125.0	/home/egter/Projects/stimuli/pictures/n09288635_813.JPEG	175.58887720108032	
128	141.50554299354553	picture	0		76.0	126.0	/home/egter/Projects/stimuli/pictures/S_yt-MsSEF0krKE4_149.png	175.61208605766296	0.6372740268707275
128	142.1306540966034	response	0	j		126.0	/home/egter/Projects/stimuli/pictures/S_yt-MsSEF0krKE4_149.png	176.23719716072083	
129	142.14281702041626	picture	0		99.0	127.0	/home/egter/Projects/stimuli/pictures/S_yt-tfHCqgH1guY_235.png	176.2493600845337	0.8263790607452393
129	142.95564699172974	response	0	j		127.0	/home/egter/Projects/stimuli/pictures/S_yt-tfHCqgH1guY_235.png	177.06219005584717	
130	142.9691960811615	picture	0		76.0	128.0	/home/egter/Projects/stimuli/pictures/n02091134_6007.JPEG	177.07573914527893	0.6446828842163086
130	143.59739804267883	response	0	k		128.0	/home/egter/Projects/stimuli/pictures/n02091134_6007.JPEG	177.70394110679626	
131	143.6138789653778	picture	0		85.0	129.0	/home/egter/Projects/stimuli/pictures/n02092002_2626.JPEG	177.72042202949524	0.7166681289672852
131	144.31397700309753	response	0	k		129.0	/home/egter/Projects/stimuli/pictures/n02092002_2626.JPEG	178.42052006721497	
132	144.3305470943451	picture	0		80.0	130.0	/home/egter/Projects/stimuli/pictures/n03344393_13760.JPEG	178.43709015846252	0.6749908924102783
132	144.98898911476135	response	0	k		130.0	/home/egter/Projects/stimuli/pictures/n03344393_13760.JPEG	179.09553217887878	
133	145.00553798675537	picture	0		81.0	131.0	/home/egter/Projects/stimuli/pictures/S_pexels-mikhail-nilov-8410063.png	179.1120810508728	0.6833350658416748
133	145.66555404663086	response	0	j		131.0	/home/egter/Projects/stimuli/pictures/S_pexels-mikhail-nilov-8410063.png	179.7720971107483	
134	145.68887305259705	picture	0		78.0	132.0	/home/egter/Projects/stimuli/pictures/S_yt-z68VLDDCFdw_93.png	179.79541611671448	0.6583170890808105
134	146.33063292503357	response	0	j		132.0	/home/egter/Projects/stimuli/pictures/S_yt-z68VLDDCFdw_93.png	180.437175989151	
135	146.34719014167786	picture	0		73.0	133.0	/home/egter/Projects/stimuli/pictures/n03633091_18329.JPEG	180.4537332057953	0.6166718006134033
135	146.9473419189453	response	0	k		133.0	/home/egter/Projects/stimuli/pictures/n03633091_18329.JPEG	181.05388498306274	
136	146.96386194229126	picture	0		89.0	134.0	/home/egter/Projects/stimuli/pictures/n01728572_1217.JPEG	181.0704050064087	0.7499821186065674
136	147.69058513641357	response	0	k		134.0	/home/egter/Projects/stimuli/pictures/n01728572_1217.JPEG	181.797128200531	
137	147.71384406089783	picture	0		78.0	135.0	/home/egter/Projects/stimuli/pictures/n03796401_3475.JPEG	181.82038712501526	0.6583089828491211
137	148.35560607910156	response	0	k		135.0	/home/egter/Projects/stimuli/pictures/n03796401_3475.JPEG	182.462149143219	
138	148.37215304374695	picture	0		75.0	136.0	/home/egter/Projects/stimuli/pictures/n04311174_8810.JPEG	182.47869610786438	0.6333539485931396
138	148.98894500732422	response	0	k		136.0	/home/egter/Projects/stimuli/pictures/n04311174_8810.JPEG	183.09548807144165	
139	149.0055069923401	picture	0		78.0	137.0	/home/egter/Projects/stimuli/pictures/n02116738_7924.JPEG	183.11205005645752	0.6583399772644043
139	149.64725995063782	response	0	k		137.0	/home/egter/Projects/stimuli/pictures/n02116738_7924.JPEG	183.75380301475525	
140	149.6638469696045	picture	0		78.0	138.0	/home/egter/Projects/stimuli/pictures/n04118776_27750.JPEG	183.77039003372192	0.65830397605896
140	150.3056299686432	response	0	k		138.0	/home/egter/Projects/stimuli/pictures/n04118776_27750.JPEG	184.41217303276062	
141	150.32215094566345	picture	0		74.0	139.0	/home/egter/Projects/stimuli/pictures/S_yt-2wb0b0pdSxU_59.png	184.42869400978088	0.6250159740447998
141	150.9306070804596	response	0	k		139.0	/home/egter/Projects/stimuli/pictures/S_yt-2wb0b0pdSxU_59.png	185.03715014457703	
142	150.94716691970825	picture	0		78.0	140.0	/home/egter/Projects/stimuli/pictures/S_yt-9Fxa53fDUWU_34.png	185.05370998382568	0.6583490371704102
142	151.58897495269775	response	0	k		140.0	/home/egter/Projects/stimuli/pictures/S_yt-9Fxa53fDUWU_34.png	185.69551801681519	
143	151.60551595687866	picture	0		84.0	141.0	/home/egter/Projects/stimuli/pictures/S_yt-cILZ_cB3_so_73.png	185.7120590209961	0.7039110660552979
143	152.29047012329102	response	0	k		141.0	/home/egter/Projects/stimuli/pictures/S_yt-cILZ_cB3_so_73.png	186.39701318740845	
144	152.30942702293396	picture	0		74.0	142.0	/home/egter/Projects/stimuli/pictures/n13133613_30670.JPEG	186.4159700870514	0.6294009685516357
144	152.92227292060852	response	0	k		142.0	/home/egter/Projects/stimuli/pictures/n13133613_30670.JPEG	187.02881598472595	
145	152.9388279914856	picture	0		84.0	143.0	/home/egter/Projects/stimuli/pictures/n02086079_15865.JPEG	187.04537105560303	0.7083380222320557
145	153.63061499595642	response	0	k		143.0	/home/egter/Projects/stimuli/pictures/n02086079_15865.JPEG	187.73715806007385	
146	153.64716601371765	picture	0		76.0	144.0	/home/egter/Projects/stimuli/pictures/n03977966_2901.JPEG	187.75370907783508	0.6344408988952637
146	154.2722671031952	response	0	k		144.0	/home/egter/Projects/stimuli/pictures/n03977966_2901.JPEG	188.37881016731262	
147	154.28160691261292	picture	0		82.0	145.0	/home/egter/Projects/stimuli/pictures/S_wc-zkO_omg3nTvg_5.png	188.38814997673035	0.6874861717224121
147	154.95561814308167	response	0	j		145.0	/home/egter/Projects/stimuli/pictures/S_wc-zkO_omg3nTvg_5.png	189.0621612071991	
148	154.96909308433533	picture	0		113.0	146.0	/home/egter/Projects/stimuli/pictures/S_yt-pB-AcJ71tzA_20.png	189.07563614845276	0.9530379772186279
148	155.89875292778015	response	0	k		146.0	/home/egter/Projects/stimuli/pictures/S_yt-pB-AcJ71tzA_20.png	190.00529599189758	
149	155.92213106155396	picture	0		76.0	147.0	/home/egter/Projects/stimuli/pictures/n02490219_12145.JPEG	190.0286741256714	0.641697883605957
149	156.54726791381836	response	0	k		147.0	/home/egter/Projects/stimuli/pictures/n02490219_12145.JPEG	190.6538109779358	
150	156.5638289451599	picture	0		82.0	148.0	/home/egter/Projects/stimuli/pictures/R_S_yt-GLK6LniTOK0_69.png	190.67037200927734	0.6916851997375488
150	157.2389109134674	response	0	j		148.0	/home/egter/Projects/stimuli/pictures/R_S_yt-GLK6LniTOK0_69.png	191.34545397758484	
151	157.25551414489746	picture	0		76.0	149.0	/home/egter/Projects/stimuli/pictures/S_yt-iO0efV_PV-k_102.png	191.3620572090149	0.637211799621582
151	157.8737370967865	response	0	j		149.0	/home/egter/Projects/stimuli/pictures/S_yt-iO0efV_PV-k_102.png	191.98028016090393	
152	157.89272594451904	picture	0		84.0	150.0	/home/egter/Projects/stimuli/pictures/S_ILSVRC2015_train_00479001.png	191.99926900863647	0.7044541835784912
152	158.58060598373413	response	0	j		150.0	/home/egter/Projects/stimuli/pictures/S_ILSVRC2015_train_00479001.png	192.68714904785156	
153	158.59718012809753	picture	0		83.0	151.0	/home/egter/Projects/stimuli/pictures/S_yt-y2RUPYKfBZs_12.png	192.70372319221497	0.6999719142913818
153	159.27372407913208	response	0	j		151.0	/home/egter/Projects/stimuli/pictures/S_yt-y2RUPYKfBZs_12.png	193.3802671432495	
154	159.29715204238892	picture	0		67.0	152.0	/home/egter/Projects/stimuli/pictures/S_ILSVRC2015_train_00323000.png	193.40369510650635	0.5666608810424805
154	159.84724807739258	response	0	j		152.0	/home/egter/Projects/stimuli/pictures/S_ILSVRC2015_train_00323000.png	193.95379114151	
155	159.8638129234314	picture	0		70.0	153.0	/home/egter/Projects/stimuli/pictures/S_yt-kawmL3oVw8c_2.png	193.97035598754883	0.591670036315918
155	160.43893313407898	response	0	j		153.0	/home/egter/Projects/stimuli/pictures/S_yt-kawmL3oVw8c_2.png	194.5454761981964	
156	160.45548295974731	picture	0		107.0	154.0	/home/egter/Projects/stimuli/pictures/S_yt-TSSPDwAQLXs_158.png	194.56202602386475	0.9000129699707031
156	161.33894109725952	response	0	j		154.0	/home/egter/Projects/stimuli/pictures/S_yt-TSSPDwAQLXs_158.png	195.44548416137695	
157	161.35549592971802	picture	0		79.0	155.0	/home/egter/Projects/stimuli/pictures/n02108000_1272.JPEG	195.46203899383545	0.6666011810302734
157	162.00559997558594	response	0	k		155.0	/home/egter/Projects/stimuli/pictures/n02108000_1272.JPEG	196.11214303970337	
158	162.0220971107483	picture	0		75.0	156.0	/home/egter/Projects/stimuli/pictures/S_ILSVRC2015_train_00165011.png	196.12864017486572	0.6333169937133789
158	162.63888692855835	response	0	j		156.0	/home/egter/Projects/stimuli/pictures/S_ILSVRC2015_train_00165011.png	196.74542999267578	
159	162.65541410446167	picture	0		99.0	157.0	/home/egter/Projects/stimuli/pictures/S_yt-93qaq7zWjyo_246.png	196.7619571685791	0.8333449363708496
159	163.47225213050842	response	0	k		157.0	/home/egter/Projects/stimuli/pictures/S_yt-93qaq7zWjyo_246.png	197.57879519462585	
160	163.48875904083252	picture	0		111.0	158.0	/home/egter/Projects/stimuli/pictures/n03888257_17004.JPEG	197.59530210494995	0.9316580295562744
160	164.40550708770752	response	0	k		158.0	/home/egter/Projects/stimuli/pictures/n03888257_17004.JPEG	198.51205015182495	
161	164.4204170703888	picture	0		104.0	159.0	/home/egter/Projects/stimuli/pictures/S_yt-T2CzKcU8pHo_17.png	198.52696013450623	0.8766720294952393
161	165.2738721370697	response	0	k		159.0	/home/egter/Projects/stimuli/pictures/S_yt-T2CzKcU8pHo_17.png	199.38041520118713	
162	165.29708909988403	picture	0		90.0	160.0	/home/egter/Projects/stimuli/pictures/S_yt-UKrWbJEs7pw_74.png	199.40363216400146	0.75836181640625
162	166.03890991210938	response	0	j		160.0	/home/egter/Projects/stimuli/pictures/S_yt-UKrWbJEs7pw_74.png	200.1454529762268	
163	166.05545091629028	picture	0		132.0	161.0	/home/egter/Projects/stimuli/pictures/n02116738_10956.JPEG	200.16199398040771	1.1010501384735107
163	167.1472499370575	response	0	k		161.0	/home/egter/Projects/stimuli/pictures/n02116738_10956.JPEG	201.25379300117493	
164	167.1565010547638	picture	0		79.0	162.0	/home/egter/Projects/stimuli/pictures/R_S_ux8Mvi8P16k_168.png	201.26304411888123	0.6597318649291992
164	167.80552196502686	response	0	j		162.0	/home/egter/Projects/stimuli/pictures/R_S_ux8Mvi8P16k_168.png	201.9120650291443	
165	167.816232919693	picture	0		85.0	163.0	/home/egter/Projects/stimuli/pictures/S_yt-PreGL81PEP4_61.png	201.92277598381042	0.7142090797424316
165	168.51390099525452	response	0	j		163.0	/home/egter/Projects/stimuli/pictures/S_yt-PreGL81PEP4_61.png	202.62044405937195	
166	168.53044199943542	picture	0		81.0	164.0	/home/egter/Projects/stimuli/pictures/R_S_yt-YlA-FPDylDE_100.png	202.63698506355286	0.6815979480743408
166	169.19721603393555	response	0	j		164.0	/home/egter/Projects/stimuli/pictures/R_S_yt-YlA-FPDylDE_100.png	203.30375909805298	
167	169.21203994750977	picture	0		83.0	165.0	/home/egter/Projects/stimuli/pictures/S_yt-r2jZ0zZrqzQ_45.png	203.3185830116272	0.7016839981079102
167	169.8904149532318	response	0	j		165.0	/home/egter/Projects/stimuli/pictures/S_yt-r2jZ0zZrqzQ_45.png	203.99695801734924	
168	169.91372394561768	picture	0		84.0	166.0	/home/egter/Projects/stimuli/pictures/R_S_yt-ZE8Af60eNsI_15.png	204.0202670097351	0.7083601951599121
168	170.6055359840393	response	0	j		166.0	/home/egter/Projects/stimuli/pictures/R_S_yt-ZE8Af60eNsI_15.png	204.71207904815674	
169	170.6220841407776	picture	0		84.0	167.0	/home/egter/Projects/stimuli/pictures/S_yt-P001x88adE4_427.png	204.72862720489502	0.7010607719421387
169	171.3138530254364	response	0	j		167.0	/home/egter/Projects/stimuli/pictures/S_yt-P001x88adE4_427.png	205.42039608955383	
170	171.32314491271973	picture	0		76.0	168.0	/home/egter/Projects/stimuli/pictures/S_yt-ibDaDIEazxg_3.png	205.42968797683716	0.6405889987945557
170	171.947261095047	response	0	j		168.0	/home/egter/Projects/stimuli/pictures/S_yt-ibDaDIEazxg_3.png	206.05380415916443	
171	171.96373391151428	picture	0		71.0	169.0	/home/egter/Projects/stimuli/pictures/n04259630_685.JPEG	206.0702769756317	0.5954971313476562
171	172.54720091819763	response	0	k		169.0	/home/egter/Projects/stimuli/pictures/n04259630_685.JPEG	206.65374398231506	
172	172.55923104286194	picture	0		71.0	170.0	/home/egter/Projects/stimuli/pictures/S_Pexels_Videos_278654_1.png	206.66577410697937	0.5961489677429199
172	173.13887310028076	response	0	j		170.0	/home/egter/Projects/stimuli/pictures/S_Pexels_Videos_278654_1.png	207.2454161643982	
173	173.15538001060486	picture	0		1400.0	171.0	/home/egter/Projects/stimuli/pictures/R_S_yt-8aJDzfAaArQ_75.png	207.2619230747223	11.674926996231079
173	184.8138129711151	response	0	k		171.0	/home/egter/Projects/stimuli/pictures/R_S_yt-8aJDzfAaArQ_75.png	218.92035603523254	
174	184.83030700683594	picture	0		370.0	172.0	/home/egter/Projects/stimuli/pictures/n04404412_29658.JPEG	218.93685007095337	3.091710090637207
174	187.89860606193542	response	0	k		172.0	/home/egter/Projects/stimuli/pictures/n04404412_29658.JPEG	222.00514912605286	
175	187.92201709747314	picture	0		109.0	173.0	/home/egter/Projects/stimuli/pictures/n09428293_16949.JPEG	222.02856016159058	0.9166829586029053
175	188.8221571445465	response	0	k		173.0	/home/egter/Projects/stimuli/pictures/n09428293_16949.JPEG	222.92870020866394	
176	188.83870005607605	picture	0		145.0	174.0	/home/egter/Projects/stimuli/pictures/S_yt-QXsedpZh800_275.png	222.94524312019348	1.2166428565979004
176	190.03879714012146	response	0	j		174.0	/home/egter/Projects/stimuli/pictures/S_yt-QXsedpZh800_275.png	224.1453402042389	
177	190.05534291267395	picture	0		87.0	175.0	/home/egter/Projects/stimuli/pictures/S_yt-kkbtZP78JxQ_96.png	224.16188597679138	0.7333512306213379
177	190.77208614349365	response	0	j		175.0	/home/egter/Projects/stimuli/pictures/S_yt-kkbtZP78JxQ_96.png	224.87862920761108	
178	190.7886941432953	picture	0		82.0	176.0	/home/egter/Projects/stimuli/pictures/S_ILSVRC2015_train_00303008.png	224.89523720741272	0.6916148662567139
178	191.4638249874115	response	0	j		176.0	/home/egter/Projects/stimuli/pictures/S_ILSVRC2015_train_00303008.png	225.57036805152893	
179	191.480309009552	picture	0		106.0	177.0	/home/egter/Projects/stimuli/pictures/n04252077_162.JPEG	225.58685207366943	0.8917269706726074
179	192.35548496246338	response	0	k		177.0	/home/egter/Projects/stimuli/pictures/n04252077_162.JPEG	226.4620280265808	
180	192.3720359802246	picture	0		76.0	178.0	/home/egter/Projects/stimuli/pictures/ILSVRC2012_test_00080274.JPEG	226.47857904434204	0.6416339874267578
180	192.9971160888672	response	0	k		178.0	/home/egter/Projects/stimuli/pictures/ILSVRC2012_test_00080274.JPEG	227.10365915298462	
181	193.01366996765137	picture	0		341.0	179.0	/home/egter/Projects/stimuli/pictures/S_yt-8aJDzfAaArQ_75.png	227.1202130317688	2.843981981277466
181	195.84715604782104	response	0	j		179.0	/home/egter/Projects/stimuli/pictures/S_yt-8aJDzfAaArQ_75.png	229.95369911193848	
182	195.85765194892883	stim	0		486.0			229.96419501304626	4.048601150512695
182	199.8970730304718	response	0	space				234.00361609458923	
