trial_nr	onset	event_type	phase	response	nr_frames	picture_index	picture_file	onset_abs	duration
0	0.016427040100097656	stim	0		1.0			35.80724596977234	0.025116920471191406
0	0.005101919174194336	response	0	space				35.795920848846436	
0	0.005209922790527344	response	0	space				35.79602885246277	
0	0.00580906867980957	response	0	space				35.79662799835205	
2	0.04154396057128906	picture	0		311.0	0.0	/home/egter/Projects/stimuli/pictures/S_yt-SRcIvTQcmOk_62.png	35.83236289024353	2.9163169860839844
2	2.6245920658111572	response	0	j		0.0	/home/egter/Projects/stimuli/pictures/S_yt-SRcIvTQcmOk_62.png	38.4154109954834	
3	2.9578609466552734	picture	0		112.0	1.0	/home/egter/Projects/stimuli/pictures/n02114855_37153.JPEG	38.748679876327515	0.9373230934143066
3	3.8762779235839844	response	0	k		1.0	/home/egter/Projects/stimuli/pictures/n02114855_37153.JPEG	39.667096853256226	
4	3.89518404006958	picture	0		88.0	2.0	/home/egter/Projects/stimuli/pictures/n03982430_11979.JPEG	39.68600296974182	0.7293169498443604
4	4.616282939910889	response	0	k		2.0	/home/egter/Projects/stimuli/pictures/n03982430_11979.JPEG	40.40710186958313	
5	4.62450098991394	picture	0		93.0	3.0	/home/egter/Projects/stimuli/pictures/R_S_yt-oVrkSsEpuvk_118.png	40.41531991958618	0.7774081230163574
5	5.391315937042236	response	0	j		3.0	/home/egter/Projects/stimuli/pictures/R_S_yt-oVrkSsEpuvk_118.png	41.18213486671448	
6	5.401909112930298	picture	0		98.0	4.0	/home/egter/Projects/stimuli/pictures/n04081281_2467.JPEG	41.19272804260254	0.8195078372955322
6	6.207963943481445	response	0	k		4.0	/home/egter/Projects/stimuli/pictures/n04081281_2467.JPEG	41.99878287315369	
7	6.22141695022583	picture	0		91.0	5.0	/home/egter/Projects/stimuli/pictures/n02077923_6737.JPEG	42.01223587989807	0.7638390064239502
7	6.974695920944214	response	0	k		5.0	/home/egter/Projects/stimuli/pictures/n02077923_6737.JPEG	42.765514850616455	
8	6.98525595664978	picture	0		76.0	6.0	/home/egter/Projects/stimuli/pictures/n01734418_12759.JPEG	42.77607488632202	0.631965160369873
8	7.607954978942871	response	0	k		6.0	/home/egter/Projects/stimuli/pictures/n01734418_12759.JPEG	43.39877390861511	
9	7.617221117019653	picture	0		152.0	7.0	/home/egter/Projects/stimuli/pictures/n09468604_14107.JPEG	43.408040046691895	1.270900011062622
9	8.867828130722046	response	0	k		7.0	/home/egter/Projects/stimuli/pictures/n09468604_14107.JPEG	44.65864706039429	
10	8.888121128082275	picture	0		203.0	8.0	/home/egter/Projects/stimuli/pictures/R_S_yt-CXn1PGH67_s_20.png	44.67894005775452	1.6947197914123535
10	10.574630975723267	response	0	j		8.0	/home/egter/Projects/stimuli/pictures/R_S_yt-CXn1PGH67_s_20.png	46.36544990539551	
11	10.582840919494629	picture	0		77.0	9.0	/home/egter/Projects/stimuli/pictures/n03240683_10903.JPEG	46.37365984916687	0.6454601287841797
11	11.216318130493164	response	0	k		9.0	/home/egter/Projects/stimuli/pictures/n03240683_10903.JPEG	47.007137060165405	
12	11.228301048278809	picture	0		75.0	10.0	/home/egter/Projects/stimuli/pictures/R_S_yt-RVoC19C420Y_27.png	47.01911997795105	0.6249940395355225
12	11.841308116912842	response	0	j		10.0	/home/egter/Projects/stimuli/pictures/R_S_yt-RVoC19C420Y_27.png	47.63212704658508	
13	11.853295087814331	picture	0		128.0	11.0	/home/egter/Projects/stimuli/pictures/S_yt-xBhTD9mVR7s_43.png	47.64411401748657	1.0628440380096436
13	12.907968044281006	response	0	k		11.0	/home/egter/Projects/stimuli/pictures/S_yt-xBhTD9mVR7s_43.png	48.69878697395325	
14	12.916139125823975	picture	0		124.0	12.0	/home/egter/Projects/stimuli/pictures/R_S_bing-www_nbcnews_com_storyline_isis-terror_fall-isis-stronghold-raqqa-will-change-war-extremists-not-end-n808621_86.png	48.706958055496216	1.0343449115753174
14	13.941303014755249	response	0	j		12.0	/home/egter/Projects/stimuli/pictures/R_S_bing-www_nbcnews_com_storyline_isis-terror_fall-isis-stronghold-raqqa-will-change-war-extremists-not-end-n808621_86.png	49.73212194442749	
15	13.950484037399292	picture	0		91.0	13.0	/home/egter/Projects/stimuli/pictures/n01729322_16251.JPEG	49.74130296707153	0.7573370933532715
15	14.699633121490479	response	0	k		13.0	/home/egter/Projects/stimuli/pictures/n01729322_16251.JPEG	50.49045205116272	
16	14.707821130752563	picture	0		110.0	14.0	/home/egter/Projects/stimuli/pictures/S_yt-CJeyOFsd3lg_80.png	50.498640060424805	0.9166679382324219
16	15.61629605293274	response	0	j		14.0	/home/egter/Projects/stimuli/pictures/S_yt-CJeyOFsd3lg_80.png	51.40711498260498	
17	15.624489068984985	picture	0		168.0	15.0	/home/egter/Projects/stimuli/pictures/ILSVRC2012_test_00088260.JPEG	51.41530799865723	1.402353048324585
17	17.016292095184326	response	0	k		15.0	/home/egter/Projects/stimuli/pictures/ILSVRC2012_test_00088260.JPEG	52.80711102485657	
18	17.02684211730957	picture	0		168.0	16.0	/home/egter/Projects/stimuli/pictures/S_yt-yzXjWakwpPs_175.png	52.81766104698181	1.4028739929199219
18	18.41627812385559	response	0	k		16.0	/home/egter/Projects/stimuli/pictures/S_yt-yzXjWakwpPs_175.png	54.20709705352783	
19	18.429716110229492	picture	0		244.0	17.0	/home/egter/Projects/stimuli/pictures/S_ILSVRC2015_train_00416000.png	54.22053503990173	2.0415589809417725
19	20.457901000976562	response	0	k		17.0	/home/egter/Projects/stimuli/pictures/S_ILSVRC2015_train_00416000.png	56.248719930648804	
20	20.471275091171265	picture	0		82.0	18.0	/home/egter/Projects/stimuli/pictures/S_yt-65cexqxy5lU_35.png	56.262094020843506	0.6874768733978271
20	21.149611949920654	response	0	k		18.0	/home/egter/Projects/stimuli/pictures/S_yt-65cexqxy5lU_35.png	56.940430879592896	
21	21.158751964569092	picture	0		113.0	19.0	/home/egter/Projects/stimuli/pictures/R_S_yt-3DM_SqT4RII_10.png	56.94957089424133	0.9444489479064941
21	22.08444595336914	response	0	j		19.0	/home/egter/Projects/stimuli/pictures/R_S_yt-3DM_SqT4RII_10.png	57.87526488304138	
22	22.103200912475586	picture	0		122.0	20.0	/home/egter/Projects/stimuli/pictures/S_video-2.png	57.89401984214783	1.0139060020446777
22	23.107927083969116	response	0	j		20.0	/home/egter/Projects/stimuli/pictures/S_video-2.png	58.89874601364136	
23	23.117106914520264	picture	0		91.0	21.0	/home/egter/Projects/stimuli/pictures/n02120079_9615.JPEG	58.907925844192505	0.7657170295715332
23	23.859381914138794	response	0	k		21.0	/home/egter/Projects/stimuli/pictures/n02120079_9615.JPEG	59.650200843811035	
24	23.882823944091797	picture	0		79.0	22.0	/home/egter/Projects/stimuli/pictures/R_S_yt-GWOOQZ19-oU_331.png	59.67364287376404	0.6582880020141602
24	24.53285002708435	response	0	j		22.0	/home/egter/Projects/stimuli/pictures/R_S_yt-GWOOQZ19-oU_331.png	60.32366895675659	
25	24.541111946105957	picture	0		146.0	23.0	/home/egter/Projects/stimuli/pictures/R_S_yt-GI8BEHw2Lq8_3.png	60.3319308757782	1.2218360900878906
25	25.74958300590515	response	0	k		23.0	/home/egter/Projects/stimuli/pictures/R_S_yt-GI8BEHw2Lq8_3.png	61.54040193557739	
26	25.762948036193848	picture	0		121.0	24.0	/home/egter/Projects/stimuli/pictures/R_S_yt-BLmwmX-mni8_56.png	61.55376696586609	1.0138349533081055
26	26.76627802848816	response	0	k		24.0	/home/egter/Projects/stimuli/pictures/R_S_yt-BLmwmX-mni8_56.png	62.5570969581604	
27	26.776782989501953	picture	0		98.0	25.0	/home/egter/Projects/stimuli/pictures/n01774384_13906.JPEG	62.567601919174194	0.8194940090179443
27	27.58292007446289	response	0	k		25.0	/home/egter/Projects/stimuli/pictures/n01774384_13906.JPEG	63.37373900413513	
28	27.596276998519897	picture	0		145.0	26.0	/home/egter/Projects/stimuli/pictures/n09428293_4311.JPEG	63.38709592819214	1.215217113494873
28	28.799556970596313	response	0	k		26.0	/home/egter/Projects/stimuli/pictures/n09428293_4311.JPEG	64.59037590026855	
29	28.81149411201477	picture	0		133.0	27.0	/home/egter/Projects/stimuli/pictures/S_yt-tqxZlasEvZA_15.png	64.60231304168701	1.1045958995819092
29	29.90786910057068	response	0	k		27.0	/home/egter/Projects/stimuli/pictures/S_yt-tqxZlasEvZA_15.png	65.69868803024292	
30	29.91609001159668	picture	0		78.0	28.0	/home/egter/Projects/stimuli/pictures/S_yt-xrPrnzvWUkY_7.png	65.70690894126892	0.6523110866546631
30	30.557892084121704	response	0	j		28.0	/home/egter/Projects/stimuli/pictures/S_yt-xrPrnzvWUkY_7.png	66.34871101379395	
31	30.568401098251343	picture	0		81.0	29.0	/home/egter/Projects/stimuli/pictures/n13052670_2855.JPEG	66.35922002792358	0.6736009120941162
31	31.232887983322144	response	0	k		29.0	/home/egter/Projects/stimuli/pictures/n13052670_2855.JPEG	67.02370691299438	
32	31.24200201034546	picture	0		234.0	30.0	/home/egter/Projects/stimuli/pictures/ILSVRC2012_test_00065049.JPEG	67.0328209400177	1.9513940811157227
32	33.1828351020813	response	0	k		30.0	/home/egter/Projects/stimuli/pictures/ILSVRC2012_test_00065049.JPEG	68.97365403175354	
33	33.19339609146118	picture	0		129.0	31.0	/home/egter/Projects/stimuli/pictures/S_yt-wCGilnAvV3s_188.png	68.98421502113342	1.076483964920044
33	34.25789213180542	response	0	k		31.0	/home/egter/Projects/stimuli/pictures/S_yt-wCGilnAvV3s_188.png	70.04871106147766	
34	34.269880056381226	picture	0		90.0	32.0	/home/egter/Projects/stimuli/pictures/S_yt-i-1Gou9SA5U_3.png	70.06069898605347	0.756803035736084
34	35.016178131103516	response	0	j		32.0	/home/egter/Projects/stimuli/pictures/S_yt-i-1Gou9SA5U_3.png	70.80699706077576	
35	35.02668309211731	picture	0		116.0	33.0	/home/egter/Projects/stimuli/pictures/S_yt-T_qmGKyeKNU_32.png	70.81750202178955	0.9652938842773438
35	35.982872009277344	response	0	j		33.0	/home/egter/Projects/stimuli/pictures/S_yt-T_qmGKyeKNU_32.png	71.77369093894958	
36	35.99197697639465	picture	0		132.0	34.0	/home/egter/Projects/stimuli/pictures/n03874293_8329.JPEG	71.7827959060669	1.1042561531066895
36	37.07603907585144	response	0	k		34.0	/home/egter/Projects/stimuli/pictures/n03874293_8329.JPEG	72.86685800552368	
37	37.09623312950134	picture	0		102.0	35.0	/home/egter/Projects/stimuli/pictures/R_S_yt-kQpE9L-fsNE_55.png	72.88705205917358	0.8540167808532715
37	37.94123411178589	response	0	j		35.0	/home/egter/Projects/stimuli/pictures/R_S_yt-kQpE9L-fsNE_55.png	73.73205304145813	
38	37.950249910354614	picture	0		90.0	36.0	/home/egter/Projects/stimuli/pictures/n01930112_1639.JPEG	73.74106884002686	0.7500669956207275
38	38.68434405326843	response	0	k		36.0	/home/egter/Projects/stimuli/pictures/n01930112_1639.JPEG	74.47516298294067	
39	38.70031690597534	picture	0		107.0	37.0	/home/egter/Projects/stimuli/pictures/S_yt-v9WGfC67DPk_50.png	74.49113583564758	0.8958652019500732
39	39.582813024520874	response	0	j		37.0	/home/egter/Projects/stimuli/pictures/S_yt-v9WGfC67DPk_50.png	75.37363195419312	
40	39.596182107925415	picture	0		1103.0	38.0	/home/egter/Projects/stimuli/pictures/n13037406_3682.JPEG	75.38700103759766	9.194766998291016
40	48.782679080963135	response	0	k		38.0	/home/egter/Projects/stimuli/pictures/n13037406_3682.JPEG	84.57349801063538	
41	48.79094910621643	picture	0		170.0	39.0	/home/egter/Projects/stimuli/pictures/n01737021_16424.JPEG	84.58176803588867	1.425123929977417
41	50.200287103652954	response	0	k		39.0	/home/egter/Projects/stimuli/pictures/n01737021_16424.JPEG	85.9911060333252	
42	50.21607303619385	picture	0		86.0	40.0	/home/egter/Projects/stimuli/pictures/S_yt-CXn1PGH67_s_20.png	86.00689196586609	0.7201180458068848
42	50.924396991729736	response	0	j		40.0	/home/egter/Projects/stimuli/pictures/S_yt-CXn1PGH67_s_20.png	86.71521592140198	
43	50.93619108200073	picture	0		158.0	41.0	/home/egter/Projects/stimuli/pictures/S_yt-FLMdajcbjcg_35.png	86.72701001167297	1.3130300045013428
43	52.24107813835144	response	0	j		41.0	/home/egter/Projects/stimuli/pictures/S_yt-FLMdajcbjcg_35.png	88.03189706802368	
44	52.249221086502075	picture	0		106.0	42.0	/home/egter/Projects/stimuli/pictures/R_S_yt-rZA9zXR-A6s_426.png	88.04004001617432	0.8883469104766846
44	53.12440609931946	response	0	j		42.0	/home/egter/Projects/stimuli/pictures/R_S_yt-rZA9zXR-A6s_426.png	88.9152250289917	
45	53.13756799697876	picture	0		133.0	43.0	/home/egter/Projects/stimuli/pictures/S_ILSVRC2015_train_00601000.png	88.928386926651	1.111781120300293
45	54.24115300178528	response	0	j		43.0	/home/egter/Projects/stimuli/pictures/S_ILSVRC2015_train_00601000.png	90.03197193145752	
46	54.24934911727905	picture	0		122.0	44.0	/home/egter/Projects/stimuli/pictures/S_yt-71qAAM6ryGY_32.png	90.0401680469513	1.020190954208374
46	55.257786989212036	response	0	k		44.0	/home/egter/Projects/stimuli/pictures/S_yt-71qAAM6ryGY_32.png	91.04860591888428	
47	55.26954007148743	picture	0		180.0	45.0	/home/egter/Projects/stimuli/pictures/n02804610_30273.JPEG	91.06035900115967	1.5000998973846436
47	56.75776505470276	response	0	k		45.0	/home/egter/Projects/stimuli/pictures/n02804610_30273.JPEG	92.548583984375	
48	56.76963996887207	picture	0		110.0	46.0	/home/egter/Projects/stimuli/pictures/S_comp_L012_c002_PS_v01_SDR_PS_20180925_SDR_2K_AVC.png	92.56045889854431	0.9165501594543457
48	57.67439293861389	response	0	k		46.0	/home/egter/Projects/stimuli/pictures/S_comp_L012_c002_PS_v01_SDR_PS_20180925_SDR_2K_AVC.png	93.46521186828613	
49	57.686190128326416	picture	0		90.0	47.0	/home/egter/Projects/stimuli/pictures/R_S_video_inspire_texas_austin_oct2019_evening_00085.png	93.47700905799866	0.7500169277191162
49	58.424379110336304	response	0	j		47.0	/home/egter/Projects/stimuli/pictures/R_S_video_inspire_texas_austin_oct2019_evening_00085.png	94.21519804000854	
50	58.43620705604553	picture	0		118.0	48.0	/home/egter/Projects/stimuli/pictures/S_yt-OLDm2slgfA4_3.png	94.22702598571777	0.9861509799957275
50	59.40852403640747	response	0	j		48.0	/home/egter/Projects/stimuli/pictures/S_yt-OLDm2slgfA4_3.png	95.19934296607971	
51	59.42235803604126	picture	0		179.0	49.0	/home/egter/Projects/stimuli/pictures/S_SAiA2MWgCWE_5.png	95.2131769657135	1.5019359588623047
51	60.900819063186646	response	0	k		49.0	/home/egter/Projects/stimuli/pictures/S_SAiA2MWgCWE_5.png	96.69163799285889	
52	60.924293994903564	picture	0		97.0	50.0	/home/egter/Projects/stimuli/pictures/R_S_yt-0xzYSBvVfYM_197.png	96.7151129245758	0.8104739189147949
52	61.72441506385803	response	0	j		50.0	/home/egter/Projects/stimuli/pictures/R_S_yt-0xzYSBvVfYM_197.png	97.51523399353027	
53	61.73476791381836	picture	0		76.0	51.0	/home/egter/Projects/stimuli/pictures/n01729322_6872.JPEG	97.5255868434906	0.6319270133972168
53	62.35772109031677	response	0	k		51.0	/home/egter/Projects/stimuli/pictures/n01729322_6872.JPEG	98.14854001998901	
54	62.366694927215576	picture	0		99.0	52.0	/home/egter/Projects/stimuli/pictures/R_S_dwi2oPzQ1Wo_48.png	98.15751385688782	0.8263959884643555
54	63.182734966278076	response	0	j		52.0	/home/egter/Projects/stimuli/pictures/R_S_dwi2oPzQ1Wo_48.png	98.97355389595032	
55	63.19309091567993	picture	0		86.0	53.0	/home/egter/Projects/stimuli/pictures/R_S_yt-HFiRYTnMZxE_338.png	98.98390984535217	0.7152690887451172
55	63.892590045928955	response	0	j		53.0	/home/egter/Projects/stimuli/pictures/R_S_yt-HFiRYTnMZxE_338.png	99.6834089756012	
56	63.90836000442505	picture	0		76.0	54.0	/home/egter/Projects/stimuli/pictures/R_S_ILSVRC2015_train_00414000.png	99.69917893409729	0.6325960159301758
56	64.5327250957489	response	0	k		54.0	/home/egter/Projects/stimuli/pictures/R_S_ILSVRC2015_train_00414000.png	100.32354402542114	
57	64.54095602035522	picture	0		79.0	55.0	/home/egter/Projects/stimuli/pictures/R_S_yt-mDil5vGZb14_4049.png	100.33177495002747	0.6590731143951416
57	65.1911129951477	response	0	j		55.0	/home/egter/Projects/stimuli/pictures/R_S_yt-mDil5vGZb14_4049.png	100.98193192481995	
58	65.20002913475037	picture	0		185.0	56.0	/home/egter/Projects/stimuli/pictures/R_S_video-9.png	100.99084806442261	1.5415949821472168
58	66.73273611068726	response	0	j		56.0	/home/egter/Projects/stimuli/pictures/R_S_video-9.png	102.5235550403595	
59	66.74162411689758	picture	0		83.0	57.0	/home/egter/Projects/stimuli/pictures/n04465501_8877.JPEG	102.53244304656982	0.6944899559020996
59	67.42437291145325	response	0	j		57.0	/home/egter/Projects/stimuli/pictures/n04465501_8877.JPEG	103.21519184112549	
60	67.43611407279968	picture	0		228.0	58.0	/home/egter/Projects/stimuli/pictures/R_S_yt-NOnR6C2sjpI_97.png	103.22693300247192	1.9048559665679932
60	69.32504892349243	response	0	j		58.0	/home/egter/Projects/stimuli/pictures/R_S_yt-NOnR6C2sjpI_97.png	105.11586785316467	
61	69.34097003936768	picture	0		99.0	59.0	/home/egter/Projects/stimuli/pictures/R_S_yt-cBCeq1NQgj0_1129.png	105.13178896903992	0.8313250541687012
61	70.1584529876709	response	0	j		59.0	/home/egter/Projects/stimuli/pictures/R_S_yt-cBCeq1NQgj0_1129.png	105.94927191734314	
62	70.17229509353638	picture	0		162.0	60.0	/home/egter/Projects/stimuli/pictures/n03793489_2422.JPEG	105.96311402320862	1.3539798259735107
62	71.5160129070282	response	0	k		60.0	/home/egter/Projects/stimuli/pictures/n03793489_2422.JPEG	107.30683183670044	
63	71.52627491950989	picture	0		88.0	61.0	/home/egter/Projects/stimuli/pictures/R_S_yt-FLMdajcbjcg_35.png	107.31709384918213	0.7362241744995117
63	72.24951505661011	response	0	j		61.0	/home/egter/Projects/stimuli/pictures/R_S_yt-FLMdajcbjcg_35.png	108.04033398628235	
64	72.2624990940094	picture	0		78.0	62.0	/home/egter/Projects/stimuli/pictures/n01742172_4768.JPEG	108.05331802368164	0.6598289012908936
64	72.90834903717041	response	0	k		62.0	/home/egter/Projects/stimuli/pictures/n01742172_4768.JPEG	108.69916796684265	
65	72.9223279953003	picture	0		74.0	63.0	/home/egter/Projects/stimuli/pictures/n04238763_5117.JPEG	108.71314692497253	0.6248641014099121
65	73.5334849357605	response	0	k		63.0	/home/egter/Projects/stimuli/pictures/n04238763_5117.JPEG	109.32430386543274	
66	73.5471920967102	picture	0		100.0	64.0	/home/egter/Projects/stimuli/pictures/R_S_yt-8fQ9LaF8U10_382.png	109.33801102638245	0.840303897857666
66	74.3743269443512	response	0	j		64.0	/home/egter/Projects/stimuli/pictures/R_S_yt-8fQ9LaF8U10_382.png	110.16514587402344	
67	74.38749599456787	picture	0		80.0	65.0	/home/egter/Projects/stimuli/pictures/n02776631_46569.JPEG	110.17831492424011	0.6735191345214844
67	75.04934310913086	response	0	k		65.0	/home/egter/Projects/stimuli/pictures/n02776631_46569.JPEG	110.8401620388031	
68	75.06101512908936	picture	0		81.0	66.0	/home/egter/Projects/stimuli/pictures/R_S_yt-IX6uxR5DSKk_2.png	110.8518340587616	0.6735918521881104
68	75.72429704666138	response	0	k		66.0	/home/egter/Projects/stimuli/pictures/R_S_yt-IX6uxR5DSKk_2.png	111.51511597633362	
69	75.73460698127747	picture	0		334.0	67.0	/home/egter/Projects/stimuli/pictures/n01773549_6756.JPEG	111.5254259109497	2.78466796875
69	78.50090599060059	response	0	k		67.0	/home/egter/Projects/stimuli/pictures/n01773549_6756.JPEG	114.29172492027283	
70	78.51927495002747	picture	0		146.0	68.0	/home/egter/Projects/stimuli/pictures/R_S_3WAnGcPubBY_179.png	114.3100938796997	1.2152869701385498
70	79.72432112693787	response	0	j		68.0	/home/egter/Projects/stimuli/pictures/R_S_3WAnGcPubBY_179.png	115.51514005661011	
71	79.73456192016602	picture	0		119.0	69.0	/home/egter/Projects/stimuli/pictures/R_S_yt-2dRSJcaJIXw_32.png	115.52538084983826	0.9931411743164062
71	80.71598196029663	response	0	j		69.0	/home/egter/Projects/stimuli/pictures/R_S_yt-2dRSJcaJIXw_32.png	116.50680088996887	
72	80.72770309448242	picture	0		78.0	70.0	/home/egter/Projects/stimuli/pictures/n04523525_23494.JPEG	116.51852202415466	0.6530778408050537
72	81.36658000946045	response	0	k		70.0	/home/egter/Projects/stimuli/pictures/n04523525_23494.JPEG	117.15739893913269	
73	81.38078093528748	picture	0		75.0	71.0	/home/egter/Projects/stimuli/pictures/n02109525_32141.JPEG	117.17159986495972	0.6318249702453613
73	81.99926114082336	response	0	k		71.0	/home/egter/Projects/stimuli/pictures/n02109525_32141.JPEG	117.7900800704956	
74	82.01260590553284	picture	0		89.0	72.0	/home/egter/Projects/stimuli/pictures/R_S_yt-BlWfK4MkjWA_469.png	117.80342483520508	0.7498700618743896
74	82.74943208694458	response	0	j		72.0	/home/egter/Projects/stimuli/pictures/R_S_yt-BlWfK4MkjWA_469.png	118.54025101661682	
75	82.76247596740723	picture	0		101.0	73.0	/home/egter/Projects/stimuli/pictures/n02097209_435.JPEG	118.55329489707947	0.8470540046691895
75	83.59937906265259	response	0	k		73.0	/home/egter/Projects/stimuli/pictures/n02097209_435.JPEG	119.39019799232483	
76	83.60952997207642	picture	0		86.0	74.0	/home/egter/Projects/stimuli/pictures/n03249569_16214.JPEG	119.40034890174866	0.7152280807495117
76	84.30909490585327	response	0	k		74.0	/home/egter/Projects/stimuli/pictures/n03249569_16214.JPEG	120.09991383552551	
77	84.32475805282593	picture	0		84.0	75.0	/home/egter/Projects/stimuli/pictures/n04243546_7928.JPEG	120.11557698249817	0.7014000415802002
77	85.01598000526428	response	0	k		75.0	/home/egter/Projects/stimuli/pictures/n04243546_7928.JPEG	120.80679893493652	
78	85.02615809440613	picture	0		94.0	76.0	/home/egter/Projects/stimuli/pictures/R_S_yt-SRcIvTQcmOk_62.png	120.81697702407837	0.7847268581390381
78	85.799320936203	response	0	j		76.0	/home/egter/Projects/stimuli/pictures/R_S_yt-SRcIvTQcmOk_62.png	121.59013986587524	
79	85.81088495254517	picture	0		81.0	77.0	/home/egter/Projects/stimuli/pictures/R_S_yt-IigHVUksnw8_7.png	121.60170388221741	0.6735930442810059
79	86.47424793243408	response	0	k		77.0	/home/egter/Projects/stimuli/pictures/R_S_yt-IigHVUksnw8_7.png	122.26506686210632	
80	86.48447799682617	picture	0		194.0	78.0	/home/egter/Projects/stimuli/pictures/S_yt-R9Iabv0XgOQ_80.png	122.27529692649841	1.6181120872497559
80	88.08413910865784	response	0	j		78.0	/home/egter/Projects/stimuli/pictures/S_yt-R9Iabv0XgOQ_80.png	123.87495803833008	
81	88.10259008407593	picture	0		186.0	79.0	/home/egter/Projects/stimuli/pictures/n04389033_17850.JPEG	123.89340901374817	1.5485470294952393
81	89.64094805717468	response	0	k		79.0	/home/egter/Projects/stimuli/pictures/n04389033_17850.JPEG	125.43176698684692	
82	89.65113711357117	picture	0		90.0	80.0	/home/egter/Projects/stimuli/pictures/n09468604_14505.JPEG	125.44195604324341	0.7499949932098389
82	90.39095401763916	response	0	k		80.0	/home/egter/Projects/stimuli/pictures/n09468604_14505.JPEG	126.1817729473114	
83	90.401132106781	picture	0		104.0	81.0	/home/egter/Projects/stimuli/pictures/n02058221_5460.JPEG	126.19195103645325	0.8680229187011719
83	91.2576060295105	response	0	k		81.0	/home/egter/Projects/stimuli/pictures/n02058221_5460.JPEG	127.04842495918274	
84	91.26915502548218	picture	0		80.0	82.0	/home/egter/Projects/stimuli/pictures/S_yt-oPq1uvbw-lQ_62.png	127.05997395515442	0.6667189598083496
84	91.92426300048828	response	0	j		82.0	/home/egter/Projects/stimuli/pictures/S_yt-oPq1uvbw-lQ_62.png	127.71508193016052	
85	91.93587398529053	picture	0		105.0	83.0	/home/egter/Projects/stimuli/pictures/n04328186_2567.JPEG	127.72669291496277	0.8749520778656006
85	92.79926609992981	response	0	k		83.0	/home/egter/Projects/stimuli/pictures/n04328186_2567.JPEG	128.59008502960205	
86	92.81082606315613	picture	0		82.0	84.0	/home/egter/Projects/stimuli/pictures/S_yt-hQ5pge893b4_6.png	128.60164499282837	0.6805610656738281
86	93.48258709907532	response	0	j		84.0	/home/egter/Projects/stimuli/pictures/S_yt-hQ5pge893b4_6.png	129.27340602874756	
87	93.49138712882996	picture	0		101.0	85.0	/home/egter/Projects/stimuli/pictures/R_S_flickr-hapanine-31880782705_22.png	129.2822060585022	0.8472340106964111
87	94.31751012802124	response	0	j		85.0	/home/egter/Projects/stimuli/pictures/R_S_flickr-hapanine-31880782705_22.png	130.10832905769348	
88	94.33862113952637	picture	0		94.0	86.0	/home/egter/Projects/stimuli/pictures/S_yt-CAeQzlUyq38_352.png	130.1294400691986	0.7921228408813477
88	95.10920596122742	response	0	j		86.0	/home/egter/Projects/stimuli/pictures/S_yt-CAeQzlUyq38_352.png	130.90002489089966	
89	95.13074398040771	picture	0		119.0	87.0	/home/egter/Projects/stimuli/pictures/S_production_ID_4360158.png	130.92156291007996	0.9999189376831055
89	96.11649298667908	response	0	j		87.0	/home/egter/Projects/stimuli/pictures/S_production_ID_4360158.png	131.90731191635132	
90	96.13066291809082	picture	0		79.0	88.0	/home/egter/Projects/stimuli/pictures/n02966687_1449.JPEG	131.92148184776306	0.6666882038116455
90	96.78315210342407	response	0	k		88.0	/home/egter/Projects/stimuli/pictures/n02966687_1449.JPEG	132.5739710330963	
91	96.79735112190247	picture	0		127.0	89.0	/home/egter/Projects/stimuli/pictures/S_yt-GI8BEHw2Lq8_3.png	132.5881700515747	1.0620110034942627
91	97.8493390083313	response	0	k		89.0	/home/egter/Projects/stimuli/pictures/S_yt-GI8BEHw2Lq8_3.png	133.64015793800354	
92	97.85936212539673	picture	0		70.0	90.0	/home/egter/Projects/stimuli/pictures/R_S_yt-v9WGfC67DPk_50.png	133.65018105506897	0.583366870880127
92	98.43251013755798	response	0	j		90.0	/home/egter/Projects/stimuli/pictures/R_S_yt-v9WGfC67DPk_50.png	134.22332906723022	
93	98.44272899627686	picture	0		199.0	91.0	/home/egter/Projects/stimuli/pictures/S_ILSVRC2015_train_00369002.png	134.2335479259491	1.6596689224243164
93	100.09085702896118	response	0	j		91.0	/home/egter/Projects/stimuli/pictures/S_ILSVRC2015_train_00369002.png	135.88167595863342	
94	100.10239791870117	picture	0		231.0	92.0	/home/egter/Projects/stimuli/pictures/S_yt-zLZ4NEUf9tM_19.png	135.8932168483734	1.9236462116241455
94	102.01586699485779	response	0	k		92.0	/home/egter/Projects/stimuli/pictures/S_yt-zLZ4NEUf9tM_19.png	137.80668592453003	
95	102.02604413032532	picture	0		70.0	93.0	/home/egter/Projects/stimuli/pictures/S_Y004_C015_SDR_2K_AVC.png	137.81686305999756	0.5833258628845215
95	102.59923195838928	response	0	k		93.0	/home/egter/Projects/stimuli/pictures/S_Y004_C015_SDR_2K_AVC.png	138.39005088806152	
96	102.60936999320984	picture	0		88.0	94.0	/home/egter/Projects/stimuli/pictures/n04141327_9161.JPEG	138.40018892288208	0.7361719608306885
96	103.33253812789917	response	0	k		94.0	/home/egter/Projects/stimuli/pictures/n04141327_9161.JPEG	139.1233570575714	
97	103.34554195404053	picture	0		118.0	95.0	/home/egter/Projects/stimuli/pictures/S_yt-EFrazkRaYbs_21.png	139.13636088371277	0.9790329933166504
97	104.30917811393738	response	0	k		95.0	/home/egter/Projects/stimuli/pictures/S_yt-EFrazkRaYbs_21.png	140.09999704360962	
98	104.32457494735718	picture	0		165.0	96.0	/home/egter/Projects/stimuli/pictures/S_flickr-reginahart-31964450591_23.png	140.11539387702942	1.3749849796295166
98	105.69090104103088	response	0	j		96.0	/home/egter/Projects/stimuli/pictures/S_flickr-reginahart-31964450591_23.png	141.48171997070312	
99	105.6995599269867	picture	0		121.0	97.0	/home/egter/Projects/stimuli/pictures/R_S_b6-4.png	141.49037885665894	1.0139729976654053
99	106.69231700897217	response	0	k		97.0	/home/egter/Projects/stimuli/pictures/R_S_b6-4.png	142.4831359386444	
100	106.7135329246521	picture	0		117.0	98.0	/home/egter/Projects/stimuli/pictures/R_S_pexels-mart-production-7698911.png	142.50435185432434	0.9790902137756348
100	107.68256306648254	response	0	k		98.0	/home/egter/Projects/stimuli/pictures/R_S_pexels-mart-production-7698911.png	143.47338199615479	
101	107.69262313842773	picture	0		74.0	99.0	/home/egter/Projects/stimuli/pictures/R_S_yt-MyL1VlXiZa4_25.png	143.48344206809998	0.6180567741394043
101	108.29228711128235	response	0	k		99.0	/home/egter/Projects/stimuli/pictures/R_S_yt-MyL1VlXiZa4_25.png	144.0831060409546	
102	108.31067991256714	picture	0		75.0	100.0	/home/egter/Projects/stimuli/pictures/n03697007_25120.JPEG	144.10149884223938	0.6249921321868896
102	108.91737294197083	response	0	k		100.0	/home/egter/Projects/stimuli/pictures/n03697007_25120.JPEG	144.70819187164307	
103	108.93567204475403	picture	0		92.0	101.0	/home/egter/Projects/stimuli/pictures/R_S_yt-nn-8LZcafGs_35.png	144.72649097442627	0.7638969421386719
103	109.69085907936096	response	0	j		101.0	/home/egter/Projects/stimuli/pictures/R_S_yt-nn-8LZcafGs_35.png	145.4816780090332	
104	109.6995689868927	picture	0		138.0	102.0	/home/egter/Projects/stimuli/pictures/S_yt-ujTY1igjc3E_2.png	145.49038791656494	1.152858018875122
104	110.84086203575134	response	0	j		102.0	/home/egter/Projects/stimuli/pictures/S_yt-ujTY1igjc3E_2.png	146.63168096542358	
105	110.85242700576782	picture	0		90.0	103.0	/home/egter/Projects/stimuli/pictures/ILSVRC2012_test_00022914.JPEG	146.64324593544006	0.7499039173126221
105	111.59082007408142	response	0	k		103.0	/home/egter/Projects/stimuli/pictures/ILSVRC2012_test_00022914.JPEG	147.38163900375366	
106	111.60233092308044	picture	0		77.0	104.0	/home/egter/Projects/stimuli/pictures/S_yt-wUqpCtBOFBA_89.png	147.39314985275269	0.6388521194458008
106	112.23251795768738	response	0	j		104.0	/home/egter/Projects/stimuli/pictures/S_yt-wUqpCtBOFBA_89.png	148.02333688735962	
107	112.24118304252625	picture	0		93.0	105.0	/home/egter/Projects/stimuli/pictures/n03424325_482.JPEG	148.0320019721985	0.7778089046478271
107	113.0075011253357	response	0	k		105.0	/home/egter/Projects/stimuli/pictures/n03424325_482.JPEG	148.79832005500793	
108	113.01899194717407	picture	0		86.0	106.0	/home/egter/Projects/stimuli/pictures/n04238763_8940.JPEG	148.8098108768463	0.7152471542358398
108	113.71734309196472	response	0	k		106.0	/home/egter/Projects/stimuli/pictures/n04238763_8940.JPEG	149.50816202163696	
109	113.73423910140991	picture	0		73.0	107.0	/home/egter/Projects/stimuli/pictures/S_yt-IT741UWKVzg_34.png	149.52505803108215	0.6111218929290771
109	114.33254098892212	response	0	j		107.0	/home/egter/Projects/stimuli/pictures/S_yt-IT741UWKVzg_34.png	150.12335991859436	
110	114.34536099433899	picture	0		74.0	108.0	/home/egter/Projects/stimuli/pictures/n01744401_6425.JPEG	150.13617992401123	0.6181390285491943
110	114.94963192939758	response	0	k		108.0	/home/egter/Projects/stimuli/pictures/n01744401_6425.JPEG	150.74045085906982	
111	114.96350002288818	picture	0		133.0	109.0	/home/egter/Projects/stimuli/pictures/R_S_ILSVRC2015_train_00066005.png	150.75431895256042	1.1110310554504395
111	116.06583404541016	response	0	j		109.0	/home/egter/Projects/stimuli/pictures/R_S_ILSVRC2015_train_00066005.png	151.8566529750824	
112	116.07453107833862	picture	0		92.0	110.0	/home/egter/Projects/stimuli/pictures/S_ILSVRC2015_train_00414000.png	151.86535000801086	0.7708728313446045
112	116.83246803283691	response	0	k		110.0	/home/egter/Projects/stimuli/pictures/S_ILSVRC2015_train_00414000.png	152.62328696250916	
113	116.84540390968323	picture	0		121.0	111.0	/home/egter/Projects/stimuli/pictures/R_S_yt-ycQy_fHCK-U_8.png	152.63622283935547	1.0068531036376953
113	117.84083795547485	response	0	j		111.0	/home/egter/Projects/stimuli/pictures/R_S_yt-ycQy_fHCK-U_8.png	153.6316568851471	
114	117.85225701332092	picture	0		228.0	112.0	/home/egter/Projects/stimuli/pictures/S_yt-l6WPyKg_3is_154.png	153.64307594299316	1.9029021263122559
114	119.74127793312073	response	0	k		112.0	/home/egter/Projects/stimuli/pictures/S_yt-l6WPyKg_3is_154.png	155.53209686279297	
115	119.75515913963318	picture	0		99.0	113.0	/home/egter/Projects/stimuli/pictures/n01773549_1508.JPEG	155.54597806930542	0.8334329128265381
115	120.57461404800415	response	0	k		113.0	/home/egter/Projects/stimuli/pictures/n01773549_1508.JPEG	156.3654329776764	
116	120.58859205245972	picture	0		98.0	114.0	/home/egter/Projects/stimuli/pictures/S_ILSVRC2015_train_00066005.png	156.37941098213196	0.8273820877075195
116	121.39908790588379	response	0	j		114.0	/home/egter/Projects/stimuli/pictures/S_ILSVRC2015_train_00066005.png	157.18990683555603	
117	121.41597414016724	picture	0		96.0	115.0	/home/egter/Projects/stimuli/pictures/S_yt-PP93D7b7Ni4_10.png	157.20679306983948	0.8042778968811035
117	122.207435131073	response	0	k		115.0	/home/egter/Projects/stimuli/pictures/S_yt-PP93D7b7Ni4_10.png	157.99825406074524	
118	122.22025203704834	picture	0		151.0	116.0	/home/egter/Projects/stimuli/pictures/S_yt-jovPh9BdlYI_215.png	158.01107096672058	1.2569561004638672
118	123.46584606170654	response	0	k		116.0	/home/egter/Projects/stimuli/pictures/S_yt-jovPh9BdlYI_215.png	159.25666499137878	
119	123.4772081375122	picture	0		104.0	117.0	/home/egter/Projects/stimuli/pictures/n01692333_9310.JPEG	159.26802706718445	0.8680408000946045
119	124.33245992660522	response	0	k		117.0	/home/egter/Projects/stimuli/pictures/n01692333_9310.JPEG	160.12327885627747	
120	124.34524893760681	picture	0		101.0	118.0	/home/egter/Projects/stimuli/pictures/R_S_comp_LA_A011_C003_DGRN_LNFIX_STAB_v57_SDR_PS_20181002_SDR_2K_AVC.png	160.13606786727905	0.8403019905090332
120	125.17416310310364	response	0	k		118.0	/home/egter/Projects/stimuli/pictures/R_S_comp_LA_A011_C003_DGRN_LNFIX_STAB_v57_SDR_PS_20181002_SDR_2K_AVC.png	160.96498203277588	
121	125.18555092811584	picture	0		79.0	119.0	/home/egter/Projects/stimuli/pictures/n04346328_7408.JPEG	160.9763698577881	0.659757137298584
121	125.83238506317139	response	0	k		119.0	/home/egter/Projects/stimuli/pictures/n04346328_7408.JPEG	161.62320399284363	
122	125.84530806541443	picture	0		70.0	120.0	/home/egter/Projects/stimuli/pictures/S_pexels-mikhail-nilov-8410084.png	161.63612699508667	0.5832948684692383
122	126.41578102111816	response	0	k		120.0	/home/egter/Projects/stimuli/pictures/S_pexels-mikhail-nilov-8410084.png	162.2065999507904	
123	126.42860293388367	picture	0		71.0	121.0	/home/egter/Projects/stimuli/pictures/S_comp_L010_C006_PS_v01_SDR_PS_20180925_SDR_2K_AVC.png	162.2194218635559	0.5971941947937012
123	127.01579093933105	response	0	k		121.0	/home/egter/Projects/stimuli/pictures/S_comp_L010_C006_PS_v01_SDR_PS_20180925_SDR_2K_AVC.png	162.8066098690033	
124	127.02579712867737	picture	0		110.0	122.0	/home/egter/Projects/stimuli/pictures/R_S_yt-nlfwzxlwRfk_12.png	162.8166160583496	0.9166409969329834
124	127.925616979599	response	0	j		122.0	/home/egter/Projects/stimuli/pictures/R_S_yt-nlfwzxlwRfk_12.png	163.71643590927124	
125	127.94243812561035	picture	0		97.0	123.0	/home/egter/Projects/stimuli/pictures/n02814533_4087.JPEG	163.7332570552826	0.8125519752502441
125	128.733873128891	response	0	k		123.0	/home/egter/Projects/stimuli/pictures/n02814533_4087.JPEG	164.52469205856323	
126	128.7549901008606	picture	0		122.0	124.0	/home/egter/Projects/stimuli/pictures/n03697007_8567.JPEG	164.54580903053284	1.0207998752593994
126	129.76575207710266	response	0	k		124.0	/home/egter/Projects/stimuli/pictures/n03697007_8567.JPEG	165.5565710067749	
127	129.77578997612	picture	0		98.0	125.0	/home/egter/Projects/stimuli/pictures/n03658185_6797.JPEG	165.56660890579224	0.819504976272583
127	130.5824499130249	response	0	k		125.0	/home/egter/Projects/stimuli/pictures/n03658185_6797.JPEG	166.37326884269714	
128	130.59529495239258	picture	0		86.0	126.0	/home/egter/Projects/stimuli/pictures/S_yt-rZA9zXR-A6s_426.png	166.38611388206482	0.7151801586151123
128	131.29908990859985	response	0	j		126.0	/home/egter/Projects/stimuli/pictures/S_yt-rZA9zXR-A6s_426.png	167.0899088382721	
129	131.3104751110077	picture	0		95.0	127.0	/home/egter/Projects/stimuli/pictures/S_wc-3IayTPy_A3nF_17.png	167.10129404067993	0.7916338443756104
129	132.0907940864563	response	0	k		127.0	/home/egter/Projects/stimuli/pictures/S_wc-3IayTPy_A3nF_17.png	167.88161301612854	
130	132.1021089553833	picture	0		91.0	128.0	/home/egter/Projects/stimuli/pictures/n02441942_15661.JPEG	167.89292788505554	0.7569811344146729
130	132.84907007217407	response	0	k		128.0	/home/egter/Projects/stimuli/pictures/n02441942_15661.JPEG	168.6398890018463	
131	132.85909008979797	picture	0		90.0	129.0	/home/egter/Projects/stimuli/pictures/R_S_comp_L010_C006_PS_v01_SDR_PS_20180925_SDR_2K_AVC.png	168.64990901947021	0.7499699592590332
131	133.599112033844	response	0	k		129.0	/home/egter/Projects/stimuli/pictures/R_S_comp_L010_C006_PS_v01_SDR_PS_20180925_SDR_2K_AVC.png	169.38993096351624	
132	133.609060049057	picture	0		75.0	130.0	/home/egter/Projects/stimuli/pictures/n03379051_795.JPEG	169.39987897872925	0.6250240802764893
132	134.22406601905823	response	0	k		130.0	/home/egter/Projects/stimuli/pictures/n03379051_795.JPEG	170.01488494873047	
133	134.2340841293335	picture	0		145.0	131.0	/home/egter/Projects/stimuli/pictures/S_wc-8bTJmWfuVyJ4_8.png	170.02490305900574	1.2083089351654053
133	135.4324119091034	response	0	k		131.0	/home/egter/Projects/stimuli/pictures/S_wc-8bTJmWfuVyJ4_8.png	171.22323083877563	
134	135.4423930644989	picture	0		201.0	132.0	/home/egter/Projects/stimuli/pictures/S_ILSVRC2015_train_00001011.png	171.23321199417114	1.6735339164733887
134	137.10070610046387	response	0	k		132.0	/home/egter/Projects/stimuli/pictures/S_ILSVRC2015_train_00001011.png	172.8915250301361	
135	137.1159269809723	picture	0		107.0	133.0	/home/egter/Projects/stimuli/pictures/R_S_ILSVRC2015_train_00469000.png	172.90674591064453	0.8958461284637451
135	137.9990749359131	response	0	j		133.0	/home/egter/Projects/stimuli/pictures/R_S_ILSVRC2015_train_00469000.png	173.78989386558533	
136	138.01177310943604	picture	0		282.0	134.0	/home/egter/Projects/stimuli/pictures/n01518878_10165.JPEG	173.80259203910828	2.347249984741211
136	140.34903812408447	response	0	k		134.0	/home/egter/Projects/stimuli/pictures/n01518878_10165.JPEG	176.1398570537567	
137	140.35902309417725	picture	0		122.0	135.0	/home/egter/Projects/stimuli/pictures/n03792972_985.JPEG	176.1498420238495	1.0208070278167725
137	141.36602807044983	response	0	k		135.0	/home/egter/Projects/stimuli/pictures/n03792972_985.JPEG	177.15684700012207	
138	141.37983012199402	picture	0		84.0	136.0	/home/egter/Projects/stimuli/pictures/R_S_yt-R9Iabv0XgOQ_80.png	177.17064905166626	0.7107808589935303
138	142.07440304756165	response	0	j		136.0	/home/egter/Projects/stimuli/pictures/R_S_yt-R9Iabv0XgOQ_80.png	177.8652219772339	
139	142.09061098098755	picture	0		117.0	137.0	/home/egter/Projects/stimuli/pictures/n03095699_3680.JPEG	177.8814299106598	0.9766900539398193
139	143.05735802650452	response	0	k		137.0	/home/egter/Projects/stimuli/pictures/n03095699_3680.JPEG	178.84817695617676	
140	143.06730103492737	picture	0		9.0	138.0	/home/egter/Projects/stimuli/pictures/n04604644_15685.JPEG	178.8581199645996	0.07641887664794922
140	143.12545895576477	response	0	k		138.0	/home/egter/Projects/stimuli/pictures/n04604644_15685.JPEG	178.916277885437	
141	143.14371991157532	picture	0		155.0	139.0	/home/egter/Projects/stimuli/pictures/S_yt-TBY8F6UMnJQ_51.png	178.93453884124756	1.2915921211242676
141	144.42405605316162	response	0	j		139.0	/home/egter/Projects/stimuli/pictures/S_yt-TBY8F6UMnJQ_51.png	180.21487498283386	
142	144.43531203269958	picture	0		76.0	140.0	/home/egter/Projects/stimuli/pictures/R_S_yt-ja8Pmpik_ao_112.png	180.22613096237183	0.6319620609283447
142	145.05736899375916	response	0	j		140.0	/home/egter/Projects/stimuli/pictures/R_S_yt-ja8Pmpik_ao_112.png	180.8481879234314	
143	145.06727409362793	picture	0		82.0	141.0	/home/egter/Projects/stimuli/pictures/ILSVRC2012_test_00099286.JPEG	180.85809302330017	0.6875929832458496
143	145.74099206924438	response	0	k		141.0	/home/egter/Projects/stimuli/pictures/ILSVRC2012_test_00099286.JPEG	181.53181099891663	
144	145.75486707687378	picture	0		124.0	142.0	/home/egter/Projects/stimuli/pictures/S_yt-oUrpKe5nyuI_5.png	181.54568600654602	1.0416250228881836
144	146.78269910812378	response	0	k		142.0	/home/egter/Projects/stimuli/pictures/S_yt-oUrpKe5nyuI_5.png	182.57351803779602	
145	146.79649209976196	picture	0		136.0	143.0	/home/egter/Projects/stimuli/pictures/n02701002_4286.JPEG	182.5873110294342	1.1387889385223389
145	147.91718792915344	response	0	k		143.0	/home/egter/Projects/stimuli/pictures/n02701002_4286.JPEG	183.70800685882568	
146	147.9352810382843	picture	0		111.0	144.0	/home/egter/Projects/stimuli/pictures/S_ILSVRC2015_train_00743005.png	183.72609996795654	0.9236369132995605
146	148.84902906417847	response	0	j		144.0	/home/egter/Projects/stimuli/pictures/S_ILSVRC2015_train_00743005.png	184.6398479938507	
147	148.85891795158386	picture	0		68.0	145.0	/home/egter/Projects/stimuli/pictures/n02027492_4942.JPEG	184.6497368812561	0.5695180892944336
147	149.41566109657288	response	0	k		145.0	/home/egter/Projects/stimuli/pictures/n02027492_4942.JPEG	185.20648002624512	
148	149.4284360408783	picture	0		70.0	146.0	/home/egter/Projects/stimuli/pictures/n04265275_2395.JPEG	185.21925497055054	0.5832629203796387
148	149.9990050792694	response	0	k		146.0	/home/egter/Projects/stimuli/pictures/n04265275_2395.JPEG	185.78982400894165	
149	150.01169896125793	picture	0		104.0	147.0	/home/egter/Projects/stimuli/pictures/R_S_3dzza09VbXY_235.png	185.80251789093018	0.8681681156158447
149	150.86603093147278	response	0	j		147.0	/home/egter/Projects/stimuli/pictures/R_S_3dzza09VbXY_235.png	186.65684986114502	
150	150.87986707687378	picture	0		108.0	148.0	/home/egter/Projects/stimuli/pictures/n02606052_2701.JPEG	186.67068600654602	0.9026288986206055
150	151.77394795417786	response	0	k		148.0	/home/egter/Projects/stimuli/pictures/n02606052_2701.JPEG	187.5647668838501	
151	151.78249597549438	picture	0		93.0	149.0	/home/egter/Projects/stimuli/pictures/n02326432_10454.JPEG	187.57331490516663	0.7777581214904785
151	152.54230093955994	response	0	k		149.0	/home/egter/Projects/stimuli/pictures/n02326432_10454.JPEG	188.33311986923218	
152	152.56025409698486	picture	0		79.0	150.0	/home/egter/Projects/stimuli/pictures/S_yt-BlWfK4MkjWA_469.png	188.3510730266571	0.6598289012908936
152	153.20730113983154	response	0	j		150.0	/home/egter/Projects/stimuli/pictures/S_yt-BlWfK4MkjWA_469.png	188.99812006950378	
153	153.22008299827576	picture	0		546.0	151.0	/home/egter/Projects/stimuli/pictures/n04467665_33783.JPEG	189.010901927948	4.5486650466918945
153	157.75730395317078	response	0	k		151.0	/home/egter/Projects/stimuli/pictures/n04467665_33783.JPEG	193.54812288284302	
154	157.76874804496765	picture	0		97.0	152.0	/home/egter/Projects/stimuli/pictures/R_S_yt-foGMTdxewBI_43.png	193.5595669746399	0.8053040504455566
154	158.56565499305725	response	0	j		152.0	/home/egter/Projects/stimuli/pictures/R_S_yt-foGMTdxewBI_43.png	194.3564739227295	
155	158.5740520954132	picture	0		138.0	153.0	/home/egter/Projects/stimuli/pictures/S_yt-78k6vUHDWAI_206.png	194.36487102508545	1.1528308391571045
155	159.71567296981812	response	0	j		153.0	/home/egter/Projects/stimuli/pictures/S_yt-78k6vUHDWAI_206.png	195.50649189949036	
156	159.7268829345703	picture	0		81.0	154.0	/home/egter/Projects/stimuli/pictures/n01755581_5019.JPEG	195.51770186424255	0.6736149787902832
156	160.3906090259552	response	0	k		154.0	/home/egter/Projects/stimuli/pictures/n01755581_5019.JPEG	196.18142795562744	
157	160.4004979133606	picture	0		90.0	155.0	/home/egter/Projects/stimuli/pictures/n04435653_10826.JPEG	196.19131684303284	0.7499761581420898
157	161.13383793830872	response	0	k		155.0	/home/egter/Projects/stimuli/pictures/n04435653_10826.JPEG	196.92465686798096	
158	161.15047407150269	picture	0		174.0	156.0	/home/egter/Projects/stimuli/pictures/R_S_yt-JH6qCYAnX-I_70.png	196.94129300117493	1.4513750076293945
158	162.59056091308594	response	0	k		156.0	/home/egter/Projects/stimuli/pictures/R_S_yt-JH6qCYAnX-I_70.png	198.38137984275818	
159	162.60184907913208	picture	0		95.0	157.0	/home/egter/Projects/stimuli/pictures/n01797886_26429.JPEG	198.39266800880432	0.7916460037231445
159	163.38229298591614	response	0	k		157.0	/home/egter/Projects/stimuli/pictures/n01797886_26429.JPEG	199.17311191558838	
160	163.39349508285522	picture	0		114.0	158.0	/home/egter/Projects/stimuli/pictures/ILSVRC2012_test_00005577.JPEG	199.18431401252747	0.9514319896697998
160	164.32563495635986	response	0	k		158.0	/home/egter/Projects/stimuli/pictures/ILSVRC2012_test_00005577.JPEG	200.1164538860321	
161	164.34492707252502	picture	0		198.0	159.0	/home/egter/Projects/stimuli/pictures/S_S005_C015_SDR_2K_AVC.png	200.13574600219727	1.6457538604736328
161	165.98230695724487	response	0	j		159.0	/home/egter/Projects/stimuli/pictures/S_S005_C015_SDR_2K_AVC.png	201.77312588691711	
162	165.99068093299866	picture	0		100.0	160.0	/home/egter/Projects/stimuli/pictures/n04482393_28133.JPEG	201.7814998626709	0.8333170413970947
162	166.8156270980835	response	0	k		160.0	/home/egter/Projects/stimuli/pictures/n04482393_28133.JPEG	202.60644602775574	
163	166.82399797439575	picture	0		123.0	161.0	/home/egter/Projects/stimuli/pictures/R_S_yt-4Qz0m5IYh10_167.png	202.614816904068	1.0277650356292725
163	167.84061908721924	response	0	k		161.0	/home/egter/Projects/stimuli/pictures/R_S_yt-4Qz0m5IYh10_167.png	203.63143801689148	
164	167.85176301002502	picture	0		188.0	162.0	/home/egter/Projects/stimuli/pictures/n07697313_1070.JPEG	203.64258193969727	1.5694971084594727
164	169.40743398666382	response	0	k		162.0	/home/egter/Projects/stimuli/pictures/n07697313_1070.JPEG	205.19825291633606	
165	169.4212601184845	picture	0		89.0	163.0	/home/egter/Projects/stimuli/pictures/n04465501_4400.JPEG	205.21207904815674	0.7499959468841553
165	170.15739607810974	response	0	k		163.0	/home/egter/Projects/stimuli/pictures/n04465501_4400.JPEG	205.94821500778198	
166	170.17125606536865	picture	0		83.0	164.0	/home/egter/Projects/stimuli/pictures/R_S_yt-ZTAaH5XbtfE_3.png	205.9620749950409	0.694364070892334
166	170.8572759628296	response	0	j		164.0	/home/egter/Projects/stimuli/pictures/R_S_yt-ZTAaH5XbtfE_3.png	206.64809489250183	
167	170.865620136261	picture	0		791.0	165.0	/home/egter/Projects/stimuli/pictures/n01687978_7602.JPEG	206.65643906593323	6.59724497795105
167	177.4490270614624	response	0	k		165.0	/home/egter/Projects/stimuli/pictures/n01687978_7602.JPEG	213.23984599113464	
168	177.46286511421204	picture	0		82.0	166.0	/home/egter/Projects/stimuli/pictures/n04162706_1747.JPEG	213.25368404388428	0.6874339580535889
168	178.13371992111206	response	0	k		166.0	/home/egter/Projects/stimuli/pictures/n04162706_1747.JPEG	213.9245388507843	
169	178.15029907226562	picture	0		97.0	167.0	/home/egter/Projects/stimuli/pictures/R_S_yt-aD-EAuBdpUo_163.png	213.94111800193787	0.8125820159912109
169	178.94205904006958	response	0	k		167.0	/home/egter/Projects/stimuli/pictures/R_S_yt-aD-EAuBdpUo_163.png	214.73287796974182	
170	178.96288108825684	picture	0		80.0	168.0	/home/egter/Projects/stimuli/pictures/n02120079_3724.JPEG	214.75370001792908	0.6735389232635498
170	179.62390112876892	response	0	k		168.0	/home/egter/Projects/stimuli/pictures/n02120079_3724.JPEG	215.41472005844116	
171	179.63642001152039	picture	0		69.0	169.0	/home/egter/Projects/stimuli/pictures/n07684084_6374.JPEG	215.42723894119263	0.5763669013977051
171	180.198979139328	response	0	k		169.0	/home/egter/Projects/stimuli/pictures/n07684084_6374.JPEG	215.98979806900024	
172	180.2127869129181	picture	0		82.0	170.0	/home/egter/Projects/stimuli/pictures/S_yt-PyO8-WsbaLU_43.png	216.00360584259033	0.6875011920928955
172	180.89054799079895	response	0	k		170.0	/home/egter/Projects/stimuli/pictures/S_yt-PyO8-WsbaLU_43.png	216.6813669204712	
173	180.900288105011	picture	0		69.0	171.0	/home/egter/Projects/stimuli/pictures/n02835271_1055.JPEG	216.69110703468323	0.5817909240722656
173	181.4655249118805	response	0	k		171.0	/home/egter/Projects/stimuli/pictures/n02835271_1055.JPEG	217.25634384155273	
174	181.48207902908325	picture	0		166.0	172.0	/home/egter/Projects/stimuli/pictures/R_S_yt-y3tyx6cZjmA_412.png	217.2728979587555	1.383439064025879
174	182.85720896720886	response	0	k		172.0	/home/egter/Projects/stimuli/pictures/R_S_yt-y3tyx6cZjmA_412.png	218.6480278968811	
175	182.86551809310913	picture	0		119.0	173.0	/home/egter/Projects/stimuli/pictures/S_yt-NOnR6C2sjpI_97.png	218.65633702278137	0.9930570125579834
175	183.84885811805725	response	0	j		173.0	/home/egter/Projects/stimuli/pictures/S_yt-NOnR6C2sjpI_97.png	219.6396770477295	
176	183.85857510566711	picture	0		80.0	174.0	/home/egter/Projects/stimuli/pictures/n01768244_4120.JPEG	219.64939403533936	0.6666359901428223
176	184.51554703712463	response	0	k		174.0	/home/egter/Projects/stimuli/pictures/n01768244_4120.JPEG	220.30636596679688	
177	184.52521109580994	picture	0		86.0	175.0	/home/egter/Projects/stimuli/pictures/S_wc-NVeGRb_y_y_5_36.png	220.31603002548218	0.7153048515319824
177	185.23224401474	response	0	j		175.0	/home/egter/Projects/stimuli/pictures/S_wc-NVeGRb_y_y_5_36.png	221.02306294441223	
178	185.24051594734192	picture	0		83.0	176.0	/home/egter/Projects/stimuli/pictures/n02814533_87572.JPEG	221.03133487701416	0.6945409774780273
178	185.92386102676392	response	0	k		176.0	/home/egter/Projects/stimuli/pictures/n02814533_87572.JPEG	221.71467995643616	
179	185.93505692481995	picture	0		78.0	177.0	/home/egter/Projects/stimuli/pictures/R_S_comp_L012_c002_PS_v01_SDR_PS_20180925_SDR_2K_AVC.png	221.7258758544922	0.6527271270751953
179	186.57392692565918	response	0	k		177.0	/home/egter/Projects/stimuli/pictures/R_S_comp_L012_c002_PS_v01_SDR_PS_20180925_SDR_2K_AVC.png	222.36474585533142	
180	186.58778405189514	picture	0		103.0	178.0	/home/egter/Projects/stimuli/pictures/S_ILSVRC2015_train_00768002.png	222.37860298156738	0.8611440658569336
180	187.4405300617218	response	0	k		178.0	/home/egter/Projects/stimuli/pictures/S_ILSVRC2015_train_00768002.png	223.23134899139404	
181	187.44892811775208	picture	0		237.0	179.0	/home/egter/Projects/stimuli/pictures/n03425413_8412.JPEG	223.23974704742432	1.9791369438171387
181	189.4154829978943	response	0	k		179.0	/home/egter/Projects/stimuli/pictures/n03425413_8412.JPEG	225.20630192756653	
182	189.4280650615692	stim	0		520.0			225.21888399124146	4.328885078430176
182	190.39047813415527	response	0	k				226.18129706382751	
182	193.74145102500916	response	0	space				229.5322699546814	
