trial_nr	onset	event_type	phase	response	nr_frames	picture_index	picture_file	onset_abs	duration
0	0.01260519027709961	stim	0		240.0			29.977323055267334	2.0059688091278076
0	2.0023131370544434	response	0	space				31.967031002044678	
2	2.0185739994049072	picture	0		413.0	0.0	/home/egter/Projects/stimuli/pictures/n02114855_37153.JPEG	31.98329186439514	3.4500231742858887
2	5.451999187469482	response	0	k		0.0	/home/egter/Projects/stimuli/pictures/n02114855_37153.JPEG	35.41671705245972	
3	5.468597173690796	picture	0		168.0	1.0	/home/egter/Projects/stimuli/pictures/S_yt-mDil5vGZb14_4049.png	35.43331503868103	1.4167299270629883
3	6.8604350090026855	response	0	j		1.0	/home/egter/Projects/stimuli/pictures/S_yt-mDil5vGZb14_4049.png	36.82515287399292	
4	6.885327100753784	picture	0		170.0	2.0	/home/egter/Projects/stimuli/pictures/n04258138_4676.JPEG	36.85004496574402	1.4332690238952637
4	8.29441499710083	response	0	k		2.0	/home/egter/Projects/stimuli/pictures/n04258138_4676.JPEG	38.259132862091064	
5	8.318596124649048	picture	0		122.0	3.0	/home/egter/Projects/stimuli/pictures/n01665541_2969.JPEG	38.28331398963928	1.033329963684082
5	9.327043056488037	response	0	k		3.0	/home/egter/Projects/stimuli/pictures/n01665541_2969.JPEG	39.29176092147827	
6	9.35192608833313	picture	0		104.0	4.0	/home/egter/Projects/stimuli/pictures/n02096294_4274.JPEG	39.316643953323364	0.874967098236084
6	10.203519105911255	response	0	k		4.0	/home/egter/Projects/stimuli/pictures/n02096294_4274.JPEG	40.16823697090149	
7	10.226893186569214	picture	0		110.0	5.0	/home/egter/Projects/stimuli/pictures/R_S_wc-PsidKmkEV7Km_14.png	40.19161105155945	0.9250149726867676
7	11.135388135910034	response	0	j		5.0	/home/egter/Projects/stimuli/pictures/R_S_wc-PsidKmkEV7Km_14.png	41.10010600090027	
8	11.151908159255981	picture	0		100.0	6.0	/home/egter/Projects/stimuli/pictures/R_S_yt-gmiyqQDGN78_7.png	41.116626024246216	0.8416588306427002
8	11.97703504562378	response	0	j		6.0	/home/egter/Projects/stimuli/pictures/R_S_yt-gmiyqQDGN78_7.png	41.941752910614014	
9	11.993566989898682	picture	0		132.0	7.0	/home/egter/Projects/stimuli/pictures/S_Pexels_Videos_2795737.png	41.958284854888916	1.1062240600585938
9	13.086058139801025	response	0	k		7.0	/home/egter/Projects/stimuli/pictures/S_Pexels_Videos_2795737.png	43.05077600479126	
10	13.099791049957275	picture	0		165.0	8.0	/home/egter/Projects/stimuli/pictures/S_yt-F3hhts3bwWg_25.png	43.06450891494751	1.3854501247406006
10	14.468705177307129	response	0	k		8.0	/home/egter/Projects/stimuli/pictures/S_yt-F3hhts3bwWg_25.png	44.43342304229736	
11	14.485241174697876	picture	0		99.0	9.0	/home/egter/Projects/stimuli/pictures/S_ILSVRC2015_train_00545000.png	44.44995903968811	0.8297679424285889
11	15.302036046981812	response	0	j		9.0	/home/egter/Projects/stimuli/pictures/S_ILSVRC2015_train_00545000.png	45.266753911972046	
12	15.315009117126465	picture	0		175.0	10.0	/home/egter/Projects/stimuli/pictures/R_S_S006_C007_SDR_2K_AVC.png	45.2797269821167	1.4583470821380615
12	16.760393142700195	response	0	j		10.0	/home/egter/Projects/stimuli/pictures/R_S_S006_C007_SDR_2K_AVC.png	46.72511100769043	
13	16.773356199264526	picture	0		288.0	11.0	/home/egter/Projects/stimuli/pictures/S_yt-LYStNoRhVO8_846.png	46.73807406425476	2.395803928375244
13	19.160367012023926	response	0	k		11.0	/home/egter/Projects/stimuli/pictures/S_yt-LYStNoRhVO8_846.png	49.12508487701416	
14	19.16916012763977	picture	0		276.0	12.0	/home/egter/Projects/stimuli/pictures/R_S_yt-QD74nNliDvI_10.png	49.133877992630005	2.305521011352539
14	21.460916996002197	response	0	j		12.0	/home/egter/Projects/stimuli/pictures/R_S_yt-QD74nNliDvI_10.png	51.42563486099243	
15	21.47468113899231	picture	0		139.0	13.0	/home/egter/Projects/stimuli/pictures/n01855672_5994.JPEG	51.439399003982544	1.16880202293396
15	22.620208978652954	response	0	k		13.0	/home/egter/Projects/stimuli/pictures/n01855672_5994.JPEG	52.58492684364319	
16	22.64348316192627	picture	0		242.0	14.0	/home/egter/Projects/stimuli/pictures/R_S_flickr-seattlemcneals-996953_3.png	52.608201026916504	2.025635004043579
16	24.651954174041748	response	0	j		14.0	/home/egter/Projects/stimuli/pictures/R_S_flickr-seattlemcneals-996953_3.png	54.61667203903198	
17	24.66911816596985	picture	0		110.0	15.0	/home/egter/Projects/stimuli/pictures/n01531178_1980.JPEG	54.63383603096008	0.9166479110717773
17	25.576967000961304	response	0	k		15.0	/home/egter/Projects/stimuli/pictures/n01531178_1980.JPEG	55.54168486595154	
18	25.585766077041626	picture	0		131.0	16.0	/home/egter/Projects/stimuli/pictures/n03977966_68744.JPEG	55.55048394203186	1.0971860885620117
18	26.66929316520691	response	0	k		16.0	/home/egter/Projects/stimuli/pictures/n03977966_68744.JPEG	56.634011030197144	
19	26.682952165603638	picture	0		119.0	17.0	/home/egter/Projects/stimuli/pictures/n07717410_10909.JPEG	56.64767003059387	1.0022249221801758
19	27.669188976287842	response	0	k		17.0	/home/egter/Projects/stimuli/pictures/n07717410_10909.JPEG	57.633906841278076	
20	27.685177087783813	picture	0		122.0	18.0	/home/egter/Projects/stimuli/pictures/n01667114_16572.JPEG	57.64989495277405	1.0249910354614258
20	28.693634033203125	response	0	k		18.0	/home/egter/Projects/stimuli/pictures/n01667114_16572.JPEG	58.65835189819336	
21	28.71016812324524	picture	0		87.0	19.0	/home/egter/Projects/stimuli/pictures/R_S_yt-mDil5vGZb14_4049.png	58.674885988235474	0.7297160625457764
21	29.420700073242188	response	0	j		19.0	/home/egter/Projects/stimuli/pictures/R_S_yt-mDil5vGZb14_4049.png	59.38541793823242	
22	29.439884185791016	picture	0		124.0	20.0	/home/egter/Projects/stimuli/pictures/R_S_pexels-pavel-danilyuk-8057714.png	59.40460205078125	1.0369279384613037
22	30.460880994796753	response	0	j		20.0	/home/egter/Projects/stimuli/pictures/R_S_pexels-pavel-danilyuk-8057714.png	60.42559885978699	
23	30.47681212425232	picture	0		103.0	21.0	/home/egter/Projects/stimuli/pictures/S_yt-6aqg1P9YqR8_38.png	60.441529989242554	0.886667013168335
23	31.326963186264038	response	0	j		21.0	/home/egter/Projects/stimuli/pictures/S_yt-6aqg1P9YqR8_38.png	61.29168105125427	
24	31.363479137420654	picture	0		122.0	22.0	/home/egter/Projects/stimuli/pictures/n03208938_21585.JPEG	61.32819700241089	1.0967328548431396
24	32.36860418319702	response	0	k		22.0	/home/egter/Projects/stimuli/pictures/n03208938_21585.JPEG	62.333322048187256	
25	32.460211992263794	picture	0		98.0	23.0	/home/egter/Projects/stimuli/pictures/R_S_yt-GETRVzxihhM_74.png	62.42492985725403	0.8754642009735107
25	33.26866817474365	response	0	j		23.0	/home/egter/Projects/stimuli/pictures/R_S_yt-GETRVzxihhM_74.png	63.23338603973389	
26	33.335676193237305	picture	0		141.0	24.0	/home/egter/Projects/stimuli/pictures/R_S_yt-8aJDzfAaArQ_75.png	63.30039405822754	1.2499818801879883
26	34.502599000930786	response	0	k		24.0	/home/egter/Projects/stimuli/pictures/R_S_yt-8aJDzfAaArQ_75.png	64.46731686592102	
27	34.58565807342529	picture	0		97.0	25.0	/home/egter/Projects/stimuli/pictures/S_yt-mL3MuCfKtdY_79.png	64.55037593841553	0.866142988204956
27	35.385191202163696	response	0	j		25.0	/home/egter/Projects/stimuli/pictures/S_yt-mL3MuCfKtdY_79.png	65.34990906715393	
28	35.45180106163025	picture	0		93.0	26.0	/home/egter/Projects/stimuli/pictures/S_Pz_NXxhQCJc_70.png	65.41651892662048	0.8250079154968262
28	36.212329149246216	response	0	j		26.0	/home/egter/Projects/stimuli/pictures/S_Pz_NXxhQCJc_70.png	66.17704701423645	
29	36.276808977127075	picture	0		141.0	27.0	/home/egter/Projects/stimuli/pictures/S_video_inspire_california_santa-barbara_050.png	66.24152684211731	1.8666701316833496
29	37.43683409690857	response	0	k		27.0	/home/egter/Projects/stimuli/pictures/S_video_inspire_california_santa-barbara_050.png	67.4015519618988	
30	38.143479108810425	picture	0		84.0	28.0	/home/egter/Projects/stimuli/pictures/S_yt-ILARvS15SDQ_741.png	68.10819697380066	0.7083630561828613
30	38.83592700958252	response	0	j		28.0	/home/egter/Projects/stimuli/pictures/S_yt-ILARvS15SDQ_741.png	68.80064487457275	
31	38.851842164993286	picture	0		155.0	29.0	/home/egter/Projects/stimuli/pictures/n03095699_4710.JPEG	68.81656002998352	1.2963449954986572
31	40.13522720336914	response	0	k		29.0	/home/egter/Projects/stimuli/pictures/n03095699_4710.JPEG	70.09994506835938	
32	40.14818716049194	picture	0		126.0	30.0	/home/egter/Projects/stimuli/pictures/n03345487_3468.JPEG	70.11290502548218	1.053596019744873
32	41.18520712852478	response	0	k		30.0	/home/egter/Projects/stimuli/pictures/n03345487_3468.JPEG	71.14992499351501	
33	41.201783180236816	picture	0		91.0	31.0	/home/egter/Projects/stimuli/pictures/n02804610_3301.JPEG	71.16650104522705	0.7666699886322021
33	41.95203614234924	response	0	k		31.0	/home/egter/Projects/stimuli/pictures/n02804610_3301.JPEG	71.91675400733948	
34	41.96845316886902	picture	0		126.0	32.0	/home/egter/Projects/stimuli/pictures/n02115913_3618.JPEG	71.93317103385925	1.0583248138427734
34	43.003880977630615	response	0	k		32.0	/home/egter/Projects/stimuli/pictures/n02115913_3618.JPEG	72.96859884262085	
35	43.02677798271179	picture	0		616.0	33.0	/home/egter/Projects/stimuli/pictures/n01737021_211.JPEG	72.99149584770203	5.141692161560059
35	48.152000188827515	response	0	k		33.0	/home/egter/Projects/stimuli/pictures/n01737021_211.JPEG	78.11671805381775	
36	48.16847014427185	picture	0		268.0	34.0	/home/egter/Projects/stimuli/pictures/R_S_yt-WrwPgZYBXlA_34.png	78.13318800926208	2.2364890575408936
36	50.393529176712036	response	0	k		34.0	/home/egter/Projects/stimuli/pictures/R_S_yt-WrwPgZYBXlA_34.png	80.35824704170227	
37	50.404959201812744	picture	0		111.0	35.0	/home/egter/Projects/stimuli/pictures/R_S_yt-PCSXJ5YB_AE_3.png	80.36967706680298	0.9305458068847656
37	51.31857514381409	response	0	j		35.0	/home/egter/Projects/stimuli/pictures/R_S_yt-PCSXJ5YB_AE_3.png	81.28329300880432	
38	51.33550500869751	picture	0		212.0	36.0	/home/egter/Projects/stimuli/pictures/n03788195_3188.JPEG	81.30022287368774	1.7745261192321777
38	53.09354519844055	response	0	k		36.0	/home/egter/Projects/stimuli/pictures/n03788195_3188.JPEG	83.05826306343079	
39	53.11003112792969	picture	0		427.0	37.0	/home/egter/Projects/stimuli/pictures/R_S_yt-N1EsjM9gD5Q_21.png	83.07474899291992	3.5666558742523193
39	56.65336203575134	response	0	k		37.0	/home/egter/Projects/stimuli/pictures/R_S_yt-N1EsjM9gD5Q_21.png	86.61807990074158	
40	56.67668700218201	picture	0		182.0	38.0	/home/egter/Projects/stimuli/pictures/n01855672_2471.JPEG	86.64140486717224	1.5250120162963867
40	58.185150146484375	response	0	k		38.0	/home/egter/Projects/stimuli/pictures/n01855672_2471.JPEG	88.14986801147461	
41	58.201699018478394	picture	0		259.0	39.0	/home/egter/Projects/stimuli/pictures/n02835271_1055.JPEG	88.16641688346863	2.1614911556243896
41	60.35183620452881	response	0	k		39.0	/home/egter/Projects/stimuli/pictures/n02835271_1055.JPEG	90.31655406951904	
42	60.36319017410278	picture	0		136.0	40.0	/home/egter/Projects/stimuli/pictures/n04456115_10477.JPEG	90.32790803909302	1.1385109424591064
42	61.48515796661377	response	0	k		40.0	/home/egter/Projects/stimuli/pictures/n04456115_10477.JPEG	91.449875831604	
43	61.50170111656189	picture	0		217.0	41.0	/home/egter/Projects/stimuli/pictures/ILSVRC2012_test_00004144.JPEG	91.46641898155212	1.8583378791809082
43	63.30188298225403	response	0	k		41.0	/home/egter/Projects/stimuli/pictures/ILSVRC2012_test_00004144.JPEG	93.26660084724426	
44	63.3600389957428	picture	0		92.0	42.0	/home/egter/Projects/stimuli/pictures/R_S_yt-FMIevUic_XY_50.png	93.32475686073303	0.7749722003936768
44	64.11849117279053	response	0	j		42.0	/home/egter/Projects/stimuli/pictures/R_S_yt-FMIevUic_XY_50.png	94.08320903778076	
45	64.13501119613647	picture	0		166.0	43.0	/home/egter/Projects/stimuli/pictures/n03527444_23205.JPEG	94.09972906112671	1.3916668891906738
45	65.51012301445007	response	0	k		43.0	/home/egter/Projects/stimuli/pictures/n03527444_23205.JPEG	95.47484087944031	
46	65.52667808532715	picture	0		140.0	44.0	/home/egter/Projects/stimuli/pictures/n09399592_18691.JPEG	95.49139595031738	1.1836988925933838
46	66.68514204025269	response	0	k		44.0	/home/egter/Projects/stimuli/pictures/n09399592_18691.JPEG	96.64985990524292	
47	66.71037697792053	picture	0		95.0	45.0	/home/egter/Projects/stimuli/pictures/S_yt-2pRKCSgdXXU_30.png	96.67509484291077	1.4245409965515137
47	67.49345302581787	response	0	j		45.0	/home/egter/Projects/stimuli/pictures/S_yt-2pRKCSgdXXU_30.png	97.4581708908081	
48	68.13491797447205	picture	0		126.0	46.0	/home/egter/Projects/stimuli/pictures/R_S_comp_GMT329_113NC_396B_1105_CHINA_v04_SDR_FINAL_20180706_F900F2700_SDR_2K_AVC.png	98.09963583946228	1.0615642070770264
48	69.17682600021362	response	0	j		46.0	/home/egter/Projects/stimuli/pictures/R_S_comp_GMT329_113NC_396B_1105_CHINA_v04_SDR_FINAL_20180706_F900F2700_SDR_2K_AVC.png	99.14154386520386	
49	69.19648218154907	picture	0		74.0	47.0	/home/egter/Projects/stimuli/pictures/R_S_yt-ILARvS15SDQ_741.png	99.1612000465393	0.6180169582366943
49	69.80179715156555	response	0	j		47.0	/home/egter/Projects/stimuli/pictures/R_S_yt-ILARvS15SDQ_741.png	99.76651501655579	
50	69.81449913978577	picture	0		88.0	48.0	/home/egter/Projects/stimuli/pictures/R_S_yt-074ygGXNoQ8_64.png	99.779217004776	0.7291879653930664
50	70.53509497642517	response	0	j		48.0	/home/egter/Projects/stimuli/pictures/R_S_yt-074ygGXNoQ8_64.png	100.4998128414154	
51	70.54368710517883	picture	0		112.0	49.0	/home/egter/Projects/stimuli/pictures/n04243546_4721.JPEG	100.50840497016907	0.9412879943847656
51	71.46844220161438	response	0	k		49.0	/home/egter/Projects/stimuli/pictures/n04243546_4721.JPEG	101.43316006660461	
52	71.4849750995636	picture	0		106.0	50.0	/home/egter/Projects/stimuli/pictures/n04296562_20170.JPEG	101.44969296455383	0.8920130729675293
52	72.36006808280945	response	0	k		50.0	/home/egter/Projects/stimuli/pictures/n04296562_20170.JPEG	102.32478594779968	
53	72.37698817253113	picture	0		123.0	51.0	/home/egter/Projects/stimuli/pictures/n01990800_8499.JPEG	102.34170603752136	1.027784824371338
53	73.39342904090881	response	0	k		51.0	/home/egter/Projects/stimuli/pictures/n01990800_8499.JPEG	103.35814690589905	
54	73.40477299690247	picture	0		111.0	52.0	/home/egter/Projects/stimuli/pictures/n09428293_4311.JPEG	103.3694908618927	0.9305620193481445
54	74.31841802597046	response	0	k		52.0	/home/egter/Projects/stimuli/pictures/n09428293_4311.JPEG	104.2831358909607	
55	74.33533501625061	picture	0		165.0	53.0	/home/egter/Projects/stimuli/pictures/n01744401_4165.JPEG	104.30005288124084	1.3749520778656006
55	75.70175814628601	response	0	k		53.0	/home/egter/Projects/stimuli/pictures/n01744401_4165.JPEG	105.66647601127625	
56	75.71028709411621	picture	0		124.0	54.0	/home/egter/Projects/stimuli/pictures/n01734418_7857.JPEG	105.67500495910645	1.0413799285888672
56	76.7350070476532	response	0	k		54.0	/home/egter/Projects/stimuli/pictures/n01734418_7857.JPEG	106.69972491264343	
57	76.75166702270508	picture	0		168.0	55.0	/home/egter/Projects/stimuli/pictures/n09246464_9698.JPEG	106.71638488769531	1.4030430316925049
57	78.14340209960938	response	0	k		55.0	/home/egter/Projects/stimuli/pictures/n09246464_9698.JPEG	108.10811996459961	
58	78.15471005439758	picture	0		160.0	56.0	/home/egter/Projects/stimuli/pictures/S_video_inspire_alabama_montgomery_countryside_00007.png	108.11942791938782	1.340264081954956
58	79.47675609588623	response	0	k		56.0	/home/egter/Projects/stimuli/pictures/S_video_inspire_alabama_montgomery_countryside_00007.png	109.44147396087646	
59	79.49497413635254	picture	0		106.0	57.0	/home/egter/Projects/stimuli/pictures/n03977966_2901.JPEG	109.45969200134277	0.8819880485534668
59	80.36843514442444	response	0	k		57.0	/home/egter/Projects/stimuli/pictures/n03977966_2901.JPEG	110.33315300941467	
60	80.376962184906	picture	0		144.0	58.0	/home/egter/Projects/stimuli/pictures/ILSVRC2012_test_00038027.JPEG	110.34168004989624	1.207974910736084
60	81.56841397285461	response	0	k		58.0	/home/egter/Projects/stimuli/pictures/ILSVRC2012_test_00038027.JPEG	111.53313183784485	
61	81.58493709564209	picture	0		139.0	59.0	/home/egter/Projects/stimuli/pictures/S_yt-147vePB5Arc_15.png	111.54965496063232	1.1599938869476318
61	82.73508906364441	response	0	k		59.0	/home/egter/Projects/stimuli/pictures/S_yt-147vePB5Arc_15.png	112.69980692863464	
62	82.74493098258972	picture	0		180.0	60.0	/home/egter/Projects/stimuli/pictures/R_S_ILSVRC2015_train_00042002.png	112.70964884757996	1.5000391006469727
62	84.2350401878357	response	0	j		60.0	/home/egter/Projects/stimuli/pictures/R_S_ILSVRC2015_train_00042002.png	114.19975805282593	
63	84.2449700832367	picture	0		93.0	61.0	/home/egter/Projects/stimuli/pictures/S_yt-MEfljVFL0xw_375.png	114.20968794822693	0.7778100967407227
63	85.01003217697144	response	0	j		61.0	/home/egter/Projects/stimuli/pictures/S_yt-MEfljVFL0xw_375.png	114.97475004196167	
64	85.02278017997742	picture	0		97.0	62.0	/home/egter/Projects/stimuli/pictures/R_S_yt-9CUR6mjzaiY_85.png	114.98749804496765	0.805495023727417
64	85.81838297843933	response	0	j		62.0	/home/egter/Projects/stimuli/pictures/R_S_yt-9CUR6mjzaiY_85.png	115.78310084342957	
65	85.82827520370483	picture	0		91.0	63.0	/home/egter/Projects/stimuli/pictures/S_yt-Dwgpjoikt84_122.png	115.79299306869507	0.76497483253479
65	86.57670903205872	response	0	j		63.0	/home/egter/Projects/stimuli/pictures/S_yt-Dwgpjoikt84_122.png	116.54142689704895	
66	86.59325003623962	picture	0		224.0	64.0	/home/egter/Projects/stimuli/pictures/S_yt-Kabm8kuBnFo_27.png	116.55796790122986	1.866868019104004
66	88.44482016563416	response	0	k		64.0	/home/egter/Projects/stimuli/pictures/S_yt-Kabm8kuBnFo_27.png	118.40953803062439	
67	88.46011805534363	picture	0		198.0	65.0	/home/egter/Projects/stimuli/pictures/R_S_video-5.png	118.42483592033386	1.6581320762634277
67	90.10167407989502	response	0	k		65.0	/home/egter/Projects/stimuli/pictures/R_S_video-5.png	120.06639194488525	
68	90.11825013160706	picture	0		326.0	66.0	/home/egter/Projects/stimuli/pictures/R_S_ILSVRC2015_train_00165008.png	120.08296799659729	2.766587972640991
68	92.82667207717896	response	0	j		66.0	/home/egter/Projects/stimuli/pictures/R_S_ILSVRC2015_train_00165008.png	122.79138994216919	
69	92.88483810424805	picture	0		96.0	67.0	/home/egter/Projects/stimuli/pictures/n04041544_24352.JPEG	122.84955596923828	0.8500649929046631
69	93.6701250076294	response	0	k		67.0	/home/egter/Projects/stimuli/pictures/n04041544_24352.JPEG	123.63484287261963	
70	93.73490309715271	picture	0		80.0	68.0	/home/egter/Projects/stimuli/pictures/R_S_yt-Dwgpjoikt84_122.png	123.69962096214294	0.6834850311279297
70	94.39335799217224	response	0	j		68.0	/home/egter/Projects/stimuli/pictures/R_S_yt-Dwgpjoikt84_122.png	124.35807585716248	
71	94.41838812828064	picture	0		146.0	69.0	/home/egter/Projects/stimuli/pictures/S_yt-Faxdis4m3Fw_9.png	124.38310599327087	1.266502857208252
71	95.62691903114319	response	0	j		69.0	/home/egter/Projects/stimuli/pictures/S_yt-Faxdis4m3Fw_9.png	125.59163689613342	
72	95.68489098548889	picture	0		74.0	70.0	/home/egter/Projects/stimuli/pictures/R_S_OdxWh1oU8e8_1.png	125.64960885047913	0.6669051647186279
72	96.2936041355133	response	0	j		70.0	/home/egter/Projects/stimuli/pictures/R_S_OdxWh1oU8e8_1.png	126.25832200050354	
73	96.35179615020752	picture	0		74.0	71.0	/home/egter/Projects/stimuli/pictures/R_S_yt-JtR6WZXT2kU_8.png	126.31651401519775	0.6429598331451416
73	96.96023511886597	response	0	j		71.0	/home/egter/Projects/stimuli/pictures/R_S_yt-JtR6WZXT2kU_8.png	126.9249529838562	
74	96.99475598335266	picture	0		84.0	72.0	/home/egter/Projects/stimuli/pictures/S_yt-GbL63AmOIss_116.png	126.9594738483429	1.3267490863800049
74	97.68503212928772	response	0	j		72.0	/home/egter/Projects/stimuli/pictures/S_yt-GbL63AmOIss_116.png	127.64974999427795	
75	98.32150506973267	picture	0		176.0	73.0	/home/egter/Projects/stimuli/pictures/S_yt-87sgrMGL5qo_40.png	128.2862229347229	1.4717190265655518
75	99.77661514282227	response	0	k		73.0	/home/egter/Projects/stimuli/pictures/S_yt-87sgrMGL5qo_40.png	129.7413330078125	
76	99.79322409629822	picture	0		156.0	74.0	/home/egter/Projects/stimuli/pictures/S_yt-nB2WgvYt7bA_170.png	129.75794196128845	1.3083140850067139
76	101.08516001701355	response	0	k		74.0	/home/egter/Projects/stimuli/pictures/S_yt-nB2WgvYt7bA_170.png	131.04987788200378	
77	101.10153818130493	picture	0		112.0	75.0	/home/egter/Projects/stimuli/pictures/ILSVRC2012_test_00005312.JPEG	131.06625604629517	0.9349088668823242
77	102.02662301063538	response	0	k		75.0	/home/egter/Projects/stimuli/pictures/ILSVRC2012_test_00005312.JPEG	131.9913408756256	
78	102.03644704818726	picture	0		98.0	76.0	/home/egter/Projects/stimuli/pictures/ILSVRC2012_val_00022642.JPEG	132.0011649131775	0.8194339275360107
78	102.83657002449036	response	0	k		76.0	/home/egter/Projects/stimuli/pictures/ILSVRC2012_val_00022642.JPEG	132.8012878894806	
79	102.85588097572327	picture	0		95.0	77.0	/home/egter/Projects/stimuli/pictures/R_S_yt-GO26QIueqRw_385.png	132.8205988407135	0.7916882038116455
79	103.63499212265015	response	0	j		77.0	/home/egter/Projects/stimuli/pictures/R_S_yt-GO26QIueqRw_385.png	133.59970998764038	
80	103.64756917953491	picture	0		87.0	78.0	/home/egter/Projects/stimuli/pictures/n02490219_12145.JPEG	133.61228704452515	0.7222328186035156
80	104.35997915267944	response	0	k		78.0	/home/egter/Projects/stimuli/pictures/n02490219_12145.JPEG	134.32469701766968	
81	104.36980199813843	picture	0		159.0	79.0	/home/egter/Projects/stimuli/pictures/n04146614_1228.JPEG	134.33451986312866	1.3317501544952393
81	105.68493604660034	response	0	k		79.0	/home/egter/Projects/stimuli/pictures/n04146614_1228.JPEG	135.64965391159058	
82	105.70155215263367	picture	0		105.0	80.0	/home/egter/Projects/stimuli/pictures/n03445777_485.JPEG	135.6662700176239	0.8835058212280273
82	106.56831908226013	response	0	k		80.0	/home/egter/Projects/stimuli/pictures/n03445777_485.JPEG	136.53303694725037	
83	106.5850579738617	picture	0		109.0	81.0	/home/egter/Projects/stimuli/pictures/S_S006_C007_SDR_2K_AVC.png	136.54977583885193	0.9166171550750732
83	107.48496699333191	response	0	j		81.0	/home/egter/Projects/stimuli/pictures/S_S006_C007_SDR_2K_AVC.png	137.44968485832214	
84	107.50167512893677	picture	0		183.0	82.0	/home/egter/Projects/stimuli/pictures/S_yt-jovPh9BdlYI_215.png	137.466392993927	1.533167839050293
84	109.01830506324768	response	0	j		82.0	/home/egter/Projects/stimuli/pictures/S_yt-jovPh9BdlYI_215.png	138.98302292823792	
85	109.03484296798706	picture	0		98.0	83.0	/home/egter/Projects/stimuli/pictures/S_yt-o_CT2MjZ9fA_216.png	138.9995608329773	0.8249690532684326
85	109.84327507019043	response	0	j		83.0	/home/egter/Projects/stimuli/pictures/S_yt-o_CT2MjZ9fA_216.png	139.80799293518066	
86	109.8598120212555	picture	0		98.0	84.0	/home/egter/Projects/stimuli/pictures/R_S_yt-Faxdis4m3Fw_9.png	139.82452988624573	0.822396993637085
86	110.66144013404846	response	0	j		84.0	/home/egter/Projects/stimuli/pictures/R_S_yt-Faxdis4m3Fw_9.png	140.6261579990387	
87	110.68220901489258	picture	0		139.0	85.0	/home/egter/Projects/stimuli/pictures/n01692333_9591.JPEG	140.6469268798828	1.166661024093628
87	111.8350830078125	response	0	k		85.0	/home/egter/Projects/stimuli/pictures/n01692333_9591.JPEG	141.79980087280273	
88	111.8488700389862	picture	0		82.0	86.0	/home/egter/Projects/stimuli/pictures/n03873416_6663.JPEG	141.81358790397644	0.6874871253967285
88	112.52654910087585	response	0	k		86.0	/home/egter/Projects/stimuli/pictures/n03873416_6663.JPEG	142.4912669658661	
89	112.53635716438293	picture	0		156.0	87.0	/home/egter/Projects/stimuli/pictures/n09399592_87608.JPEG	142.50107502937317	1.298534870147705
89	113.82654809951782	response	0	k		87.0	/home/egter/Projects/stimuli/pictures/n09399592_87608.JPEG	143.79126596450806	
90	113.83489203453064	picture	0		200.0	88.0	/home/egter/Projects/stimuli/pictures/S_ILSVRC2015_train_00457000.png	143.79960989952087	1.6749060153961182
90	115.4864730834961	response	0	k		88.0	/home/egter/Projects/stimuli/pictures/S_ILSVRC2015_train_00457000.png	145.45119094848633	
91	115.50979804992676	picture	0		147.0	89.0	/home/egter/Projects/stimuli/pictures/n01981276_1306.JPEG	145.474515914917	1.2348849773406982
91	116.72657012939453	response	0	j		89.0	/home/egter/Projects/stimuli/pictures/n01981276_1306.JPEG	146.69128799438477	
92	116.74468302726746	picture	0		111.0	90.0	/home/egter/Projects/stimuli/pictures/R_S_yt-t-wpKypNysg_27.png	146.7094008922577	0.9235169887542725
92	117.65313410758972	response	0	j		90.0	/home/egter/Projects/stimuli/pictures/R_S_yt-t-wpKypNysg_27.png	147.61785197257996	
93	117.66820001602173	picture	0		101.0	91.0	/home/egter/Projects/stimuli/pictures/n04332243_8953.JPEG	147.63291788101196	0.849945068359375
93	118.50160312652588	response	0	k		91.0	/home/egter/Projects/stimuli/pictures/n04332243_8953.JPEG	148.4663209915161	
94	118.5181450843811	picture	0		299.0	92.0	/home/egter/Projects/stimuli/pictures/R_S_video_inspire_alabama_montgomery_countryside_00007.png	148.48286294937134	2.4972939491271973
94	121.00167417526245	response	0	j		92.0	/home/egter/Projects/stimuli/pictures/R_S_video_inspire_alabama_montgomery_countryside_00007.png	150.96639204025269	
95	121.0154390335083	picture	0		191.0	93.0	/home/egter/Projects/stimuli/pictures/S_yt-EgsLlKJmzeY_60.png	150.98015689849854	1.5971801280975342
95	122.60155916213989	response	0	k		93.0	/home/egter/Projects/stimuli/pictures/S_yt-EgsLlKJmzeY_60.png	152.56627702713013	
96	122.61261916160583	picture	0		108.0	94.0	/home/egter/Projects/stimuli/pictures/ILSVRC2012_test_00004276.JPEG	152.57733702659607	0.9097540378570557
96	123.50156307220459	response	0	k		94.0	/home/egter/Projects/stimuli/pictures/ILSVRC2012_test_00004276.JPEG	153.46628093719482	
97	123.52237319946289	picture	0		134.0	95.0	/home/egter/Projects/stimuli/pictures/R_S_ILSVRC2015_train_00405000.png	153.48709106445312	1.1249628067016602
97	124.6349241733551	response	0	k		95.0	/home/egter/Projects/stimuli/pictures/R_S_ILSVRC2015_train_00405000.png	154.59964203834534	
98	124.64733600616455	picture	0		93.0	96.0	/home/egter/Projects/stimuli/pictures/n04147183_33318.JPEG	154.61205387115479	0.7707860469818115
98	125.40987515449524	response	0	k		96.0	/home/egter/Projects/stimuli/pictures/n04147183_33318.JPEG	155.37459301948547	
99	125.41812205314636	picture	0		207.0	97.0	/home/egter/Projects/stimuli/pictures/R_S_yt-h09NHEfoKb0_8.png	155.3828399181366	1.7332890033721924
99	127.13489007949829	response	0	k		97.0	/home/egter/Projects/stimuli/pictures/R_S_yt-h09NHEfoKb0_8.png	157.09960794448853	
100	127.15141105651855	picture	0		205.0	98.0	/home/egter/Projects/stimuli/pictures/S_yt-26009GpQuUg_3.png	157.1161289215088	1.7111930847167969
100	128.8515269756317	response	0	j		98.0	/home/egter/Projects/stimuli/pictures/S_yt-26009GpQuUg_3.png	158.81624484062195	
101	128.86260414123535	picture	0		122.0	99.0	/home/egter/Projects/stimuli/pictures/n03743016_8738.JPEG	158.8273220062256	1.0137889385223389
101	129.8613040447235	response	0	k		99.0	/home/egter/Projects/stimuli/pictures/n03743016_8738.JPEG	159.82602190971375	
102	129.8763930797577	picture	0		94.0	100.0	/home/egter/Projects/stimuli/pictures/S_production_ID_4122384.png	159.84111094474792	0.7917139530181885
102	130.65153312683105	response	0	j		100.0	/home/egter/Projects/stimuli/pictures/S_production_ID_4122384.png	160.6162509918213	
103	130.66810703277588	picture	0		106.0	101.0	/home/egter/Projects/stimuli/pictures/S_yt-QFGyhhr1KSQ_9.png	160.6328248977661	0.8888821601867676
103	131.5432231426239	response	0	k		101.0	/home/egter/Projects/stimuli/pictures/S_yt-QFGyhhr1KSQ_9.png	161.50794100761414	
104	131.55698919296265	picture	0		129.0	102.0	/home/egter/Projects/stimuli/pictures/R_S_bing-www_break_com_video_like-a-cat-catching-a-fly-3131008_12.png	161.52170705795288	1.0860719680786133
104	132.62653398513794	response	0	j		102.0	/home/egter/Projects/stimuli/pictures/R_S_bing-www_break_com_video_like-a-cat-catching-a-fly-3131008_12.png	162.59125185012817	
105	132.64306116104126	picture	0		531.0	103.0	/home/egter/Projects/stimuli/pictures/S_yt-N1EsjM9gD5Q_21.png	162.6077790260315	4.4277729988098145
105	137.05981612205505	response	0	k		103.0	/home/egter/Projects/stimuli/pictures/S_yt-N1EsjM9gD5Q_21.png	167.0245339870453	
106	137.07083415985107	picture	0		131.0	104.0	/home/egter/Projects/stimuli/pictures/S_yt-TFzaqepOKQ4_13.png	167.0355520248413	1.0902550220489502
106	138.1514949798584	response	0	k		104.0	/home/egter/Projects/stimuli/pictures/S_yt-TFzaqepOKQ4_13.png	168.11621284484863	
107	138.16108918190002	picture	0		241.0	105.0	/home/egter/Projects/stimuli/pictures/S_yt-8aJDzfAaArQ_75.png	168.12580704689026	2.0069448947906494
107	140.15986013412476	response	0	k		105.0	/home/egter/Projects/stimuli/pictures/S_yt-8aJDzfAaArQ_75.png	170.124577999115	
108	140.16803407669067	picture	0		157.0	106.0	/home/egter/Projects/stimuli/pictures/n02815834_9676.JPEG	170.1327519416809	1.3125190734863281
108	141.46144104003906	response	0	k		106.0	/home/egter/Projects/stimuli/pictures/n02815834_9676.JPEG	171.4261589050293	
109	141.480553150177	picture	0		129.0	107.0	/home/egter/Projects/stimuli/pictures/S_yt--JnTDuElzXQ_121.png	171.44527101516724	1.076300859451294
109	142.5431010723114	response	0	j		107.0	/home/egter/Projects/stimuli/pictures/S_yt--JnTDuElzXQ_121.png	172.50781893730164	
110	142.5568540096283	picture	0		110.0	108.0	/home/egter/Projects/stimuli/pictures/R_S_yt-fjOsq03OC2c_188.png	172.52157187461853	0.9278030395507812
110	143.46125197410583	response	0	j		108.0	/home/egter/Projects/stimuli/pictures/R_S_yt-fjOsq03OC2c_188.png	173.42596983909607	
111	143.48465704917908	picture	0		202.0	109.0	/home/egter/Projects/stimuli/pictures/S_yt-oVS_k_9upmo_205.png	173.4493749141693	1.6833319664001465
111	145.15975499153137	response	0	j		109.0	/home/egter/Projects/stimuli/pictures/S_yt-oVS_k_9upmo_205.png	175.1244728565216	
112	145.16798901557922	picture	0		97.0	110.0	/home/egter/Projects/stimuli/pictures/ILSVRC2012_test_00053134.JPEG	175.13270688056946	0.8124639987945557
112	145.96808409690857	response	0	k		110.0	/home/egter/Projects/stimuli/pictures/ILSVRC2012_test_00053134.JPEG	175.9328019618988	
113	145.98045301437378	picture	0		130.0	111.0	/home/egter/Projects/stimuli/pictures/ILSVRC2012_val_00032171.JPEG	175.945170879364	1.0875611305236816
113	147.0514690876007	response	0	k		111.0	/home/egter/Projects/stimuli/pictures/ILSVRC2012_val_00032171.JPEG	177.01618695259094	
114	147.06801414489746	picture	0		137.0	112.0	/home/egter/Projects/stimuli/pictures/n02086240_6143.JPEG	177.0327320098877	1.1416430473327637
114	148.20140314102173	response	0	k		112.0	/home/egter/Projects/stimuli/pictures/n02086240_6143.JPEG	178.16612100601196	
115	148.20965719223022	picture	0		153.0	113.0	/home/egter/Projects/stimuli/pictures/S_yt-u0N1IsXxLM4_103.png	178.17437505722046	1.2777159214019775
115	149.46960711479187	response	0	k		113.0	/home/egter/Projects/stimuli/pictures/S_yt-u0N1IsXxLM4_103.png	179.4343249797821	
116	149.4873731136322	picture	0		131.0	114.0	/home/egter/Projects/stimuli/pictures/ILSVRC2012_test_00067400.JPEG	179.45209097862244	1.0903499126434326
116	150.5681231021881	response	0	k		114.0	/home/egter/Projects/stimuli/pictures/ILSVRC2012_test_00067400.JPEG	180.53284096717834	
117	150.57772302627563	picture	0		120.0	115.0	/home/egter/Projects/stimuli/pictures/n03868863_3429.JPEG	180.54244089126587	0.9999420642852783
117	151.56821608543396	response	0	k		115.0	/home/egter/Projects/stimuli/pictures/n03868863_3429.JPEG	181.5329339504242	
118	151.5776650905609	picture	0		95.0	116.0	/home/egter/Projects/stimuli/pictures/n02106662_31971.JPEG	181.54238295555115	0.7986440658569336
118	152.35978603363037	response	0	k		116.0	/home/egter/Projects/stimuli/pictures/n02106662_31971.JPEG	182.3245038986206	
119	152.37630915641785	picture	0		130.0	117.0	/home/egter/Projects/stimuli/pictures/R_S_yt-qYuLW5vSotM_160.png	182.34102702140808	1.091660976409912
119	153.45144605636597	response	0	j		117.0	/home/egter/Projects/stimuli/pictures/R_S_yt-qYuLW5vSotM_160.png	183.4161639213562	
120	153.46797013282776	picture	0		103.0	118.0	/home/egter/Projects/stimuli/pictures/n02361337_10879.JPEG	183.432687997818	0.859673023223877
120	154.3180811405182	response	0	k		118.0	/home/egter/Projects/stimuli/pictures/n02361337_10879.JPEG	184.28279900550842	
121	154.32764315605164	picture	0		131.0	119.0	/home/egter/Projects/stimuli/pictures/R_S_yt-mdLT282PVbE_6.png	184.29236102104187	1.0903408527374268
121	155.40996313095093	response	0	k		119.0	/home/egter/Projects/stimuli/pictures/R_S_yt-mdLT282PVbE_6.png	185.37468099594116	
122	155.41798400878906	picture	0		117.0	120.0	/home/egter/Projects/stimuli/pictures/n04118776_8799.JPEG	185.3827018737793	0.9833431243896484
122	156.38482403755188	response	0	k		120.0	/home/egter/Projects/stimuli/pictures/n04118776_8799.JPEG	186.34954190254211	
123	156.4013271331787	picture	0		116.0	121.0	/home/egter/Projects/stimuli/pictures/n09288635_4175.JPEG	186.36604499816895	0.9749820232391357
123	157.35978603363037	response	0	k		121.0	/home/egter/Projects/stimuli/pictures/n09288635_4175.JPEG	187.3245038986206	
124	157.37630915641785	picture	0		207.0	122.0	/home/egter/Projects/stimuli/pictures/R_S_comp_LA_A011_C003_DGRN_LNFIX_STAB_v57_SDR_PS_20181002_SDR_2K_AVC.png	187.34102702140808	1.7332968711853027
124	159.08637499809265	response	0	k		122.0	/home/egter/Projects/stimuli/pictures/R_S_comp_LA_A011_C003_DGRN_LNFIX_STAB_v57_SDR_PS_20181002_SDR_2K_AVC.png	189.05109286308289	
125	159.10960602760315	picture	0		170.0	123.0	/home/egter/Projects/stimuli/pictures/R_S_P005_C002_UHD_SDR_2K_AVC.png	189.07432389259338	1.4249920845031738
125	160.51805996894836	response	0	j		123.0	/home/egter/Projects/stimuli/pictures/R_S_P005_C002_UHD_SDR_2K_AVC.png	190.4827778339386	
126	160.53459811210632	picture	0		113.0	124.0	/home/egter/Projects/stimuli/pictures/n03633091_24188.JPEG	190.49931597709656	0.9457509517669678
126	161.4680609703064	response	0	k		124.0	/home/egter/Projects/stimuli/pictures/n03633091_24188.JPEG	191.43277883529663	
127	161.4803490638733	picture	0		120.0	125.0	/home/egter/Projects/stimuli/pictures/S_pexels-diva-plavalaguna-6985395_1.png	191.44506692886353	0.9999709129333496
127	162.468003988266	response	0	j		125.0	/home/egter/Projects/stimuli/pictures/S_pexels-diva-plavalaguna-6985395_1.png	192.43272185325623	
128	162.48031997680664	picture	0		104.0	126.0	/home/egter/Projects/stimuli/pictures/n03000684_10624.JPEG	192.44503784179688	0.8709490299224854
128	163.33474016189575	response	0	k		126.0	/home/egter/Projects/stimuli/pictures/n03000684_10624.JPEG	193.299458026886	
129	163.35126900672913	picture	0		107.0	127.0	/home/egter/Projects/stimuli/pictures/R_S_yt-FoO02U39gy4_398.png	193.31598687171936	0.8999409675598145
129	164.2348291873932	response	0	j		127.0	/home/egter/Projects/stimuli/pictures/R_S_yt-FoO02U39gy4_398.png	194.19954705238342	
130	164.25120997428894	picture	0		99.0	128.0	/home/egter/Projects/stimuli/pictures/n03697007_557.JPEG	194.21592783927917	0.8262920379638672
130	165.0679910182953	response	0	k		128.0	/home/egter/Projects/stimuli/pictures/n03697007_557.JPEG	195.03270888328552	
131	165.0775020122528	picture	0		100.0	129.0	/home/egter/Projects/stimuli/pictures/n02125311_38939.JPEG	195.04221987724304	0.8333361148834229
131	165.90138816833496	response	0	k		129.0	/home/egter/Projects/stimuli/pictures/n02125311_38939.JPEG	195.8661060333252	
132	165.91083812713623	picture	0		139.0	130.0	/home/egter/Projects/stimuli/pictures/n01855032_8027.JPEG	195.87555599212646	1.1597158908843994
132	167.05972003936768	response	0	k		130.0	/home/egter/Projects/stimuli/pictures/n01855032_8027.JPEG	197.0244379043579	
133	167.07055401802063	picture	0		94.0	131.0	/home/egter/Projects/stimuli/pictures/S_yt-RHPOCG1mII0_138.png	197.03527188301086	0.7847239971160889
133	167.84304904937744	response	0	j		131.0	/home/egter/Projects/stimuli/pictures/S_yt-RHPOCG1mII0_138.png	197.80776691436768	
134	167.85527801513672	picture	0		116.0	132.0	/home/egter/Projects/stimuli/pictures/n02108000_721.JPEG	197.81999588012695	0.970980167388916
134	168.80967712402344	response	0	k		132.0	/home/egter/Projects/stimuli/pictures/n02108000_721.JPEG	198.77439498901367	
135	168.82625818252563	picture	0		93.0	133.0	/home/egter/Projects/stimuli/pictures/n01664065_7098.JPEG	198.79097604751587	0.7789828777313232
135	169.59301114082336	response	0	k		133.0	/home/egter/Projects/stimuli/pictures/n01664065_7098.JPEG	199.5577290058136	
136	169.60524106025696	picture	0		99.0	134.0	/home/egter/Projects/stimuli/pictures/R_S_yt-QqSceHxY3d0_356.png	199.5699589252472	0.8264329433441162
136	170.41800904273987	response	0	j		134.0	/home/egter/Projects/stimuli/pictures/R_S_yt-QqSceHxY3d0_356.png	200.3827269077301	
137	170.43167400360107	picture	0		95.0	135.0	/home/egter/Projects/stimuli/pictures/R_S_yt-PREz5XiiXg0_107.png	200.3963918685913	0.7986330986022949
137	171.2180449962616	response	0	j		135.0	/home/egter/Projects/stimuli/pictures/R_S_yt-PREz5XiiXg0_107.png	201.18276286125183	
138	171.23030710220337	picture	0		153.0	136.0	/home/egter/Projects/stimuli/pictures/S_yt-xnEuj-JKmqQ_134.png	201.1950249671936	1.2792510986328125
138	172.4861900806427	response	0	k		136.0	/home/egter/Projects/stimuli/pictures/S_yt-xnEuj-JKmqQ_134.png	202.45090794563293	
139	172.50955820083618	picture	0		111.0	137.0	/home/egter/Projects/stimuli/pictures/R_S_yt-o0Hbe7kcPps_70.png	202.47427606582642	0.9290049076080322
139	173.42629718780518	response	0	j		137.0	/home/egter/Projects/stimuli/pictures/R_S_yt-o0Hbe7kcPps_70.png	203.3910150527954	
140	173.4385631084442	picture	0		101.0	138.0	/home/egter/Projects/stimuli/pictures/R_S_yt-HFiRYTnMZxE_338.png	203.40328097343445	0.845973014831543
140	174.26795601844788	response	0	j		138.0	/home/egter/Projects/stimuli/pictures/R_S_yt-HFiRYTnMZxE_338.png	204.2326738834381	
141	174.28453612327576	picture	0		104.0	139.0	/home/egter/Projects/stimuli/pictures/n02280649_18865.JPEG	204.249253988266	0.8762209415435791
141	175.142991065979	response	0	k		139.0	/home/egter/Projects/stimuli/pictures/n02280649_18865.JPEG	205.10770893096924	
142	175.16075706481934	picture	0		80.0	140.0	/home/egter/Projects/stimuli/pictures/S_yt-HFiRYTnMZxE_338.png	205.12547492980957	0.6666231155395508
142	175.81803107261658	response	0	j		140.0	/home/egter/Projects/stimuli/pictures/S_yt-HFiRYTnMZxE_338.png	205.7827489376068	
143	175.8273801803589	picture	0		144.0	141.0	/home/egter/Projects/stimuli/pictures/S_yt-uDDv9fXG64w_98.png	205.79209804534912	1.2071819305419922
143	177.01799702644348	response	0	k		141.0	/home/egter/Projects/stimuli/pictures/S_yt-uDDv9fXG64w_98.png	206.98271489143372	
144	177.03456211090088	picture	0		187.0	142.0	/home/egter/Projects/stimuli/pictures/R_S_yt-YyKEeu2gLrI_158.png	206.9992799758911	1.5705959796905518
144	178.58471202850342	response	0	j		142.0	/home/egter/Projects/stimuli/pictures/R_S_yt-YyKEeu2gLrI_158.png	208.54942989349365	
145	178.60515809059143	picture	0		86.0	143.0	/home/egter/Projects/stimuli/pictures/R_S_BO_A014_C023_SDR_20190717_F240F3709_SDR_2K_AVC.png	208.56987595558167	0.7152829170227051
145	179.3028199672699	response	0	j		143.0	/home/egter/Projects/stimuli/pictures/R_S_BO_A014_C023_SDR_20190717_F240F3709_SDR_2K_AVC.png	209.26753783226013	
146	179.32044100761414	picture	0		116.0	144.0	/home/egter/Projects/stimuli/pictures/R_S_yt-XbigWWtnGL4_75.png	209.28515887260437	0.9723620414733887
146	180.27628898620605	response	0	j		144.0	/home/egter/Projects/stimuli/pictures/R_S_yt-XbigWWtnGL4_75.png	210.2410068511963	
147	180.29280304908752	picture	0		90.0	145.0	/home/egter/Projects/stimuli/pictures/R_S_ILSVRC2015_train_00743001.png	210.25752091407776	0.7583479881286621
147	181.03463697433472	response	0	j		145.0	/home/egter/Projects/stimuli/pictures/R_S_ILSVRC2015_train_00743001.png	210.99935483932495	
148	181.0511510372162	picture	0		116.0	146.0	/home/egter/Projects/stimuli/pictures/n07717410_11092.JPEG	211.01586890220642	0.9706511497497559
148	182.00962805747986	response	0	k		146.0	/home/egter/Projects/stimuli/pictures/n07717410_11092.JPEG	211.9743459224701	
149	182.02180218696594	picture	0		141.0	147.0	/home/egter/Projects/stimuli/pictures/S_yt-p-ID-wUYoHY_52.png	211.98652005195618	1.1736109256744385
149	183.1846580505371	response	0	k		147.0	/home/egter/Projects/stimuli/pictures/S_yt-p-ID-wUYoHY_52.png	213.14937591552734	
150	183.19541311264038	picture	0		83.0	148.0	/home/egter/Projects/stimuli/pictures/n04458633_5045.JPEG	213.16013097763062	0.6944189071655273
150	183.8762969970703	response	0	k		148.0	/home/egter/Projects/stimuli/pictures/n04458633_5045.JPEG	213.84101486206055	
151	183.8898320198059	picture	0		95.0	149.0	/home/egter/Projects/stimuli/pictures/R_S_yt-9qXwehMoX7o_50.png	213.85454988479614	0.7985811233520508
151	184.67632818222046	response	0	j		149.0	/home/egter/Projects/stimuli/pictures/R_S_yt-9qXwehMoX7o_50.png	214.6410460472107	
152	184.68841314315796	picture	0		375.0	150.0	/home/egter/Projects/stimuli/pictures/S_b2-4.png	214.6531310081482	3.129448890686035
152	187.80134415626526	response	0	k		150.0	/home/egter/Projects/stimuli/pictures/S_b2-4.png	217.7660620212555	
153	187.817862033844	picture	0		104.0	151.0	/home/egter/Projects/stimuli/pictures/S_flickr-51283549@N02-23064904264_16.png	217.78257989883423	0.8706049919128418
153	188.67628812789917	response	0	j		151.0	/home/egter/Projects/stimuli/pictures/S_flickr-51283549@N02-23064904264_16.png	218.6410059928894	
154	188.68846702575684	picture	0		172.0	152.0	/home/egter/Projects/stimuli/pictures/ILSVRC2012_test_00016248.JPEG	218.65318489074707	1.4304649829864502
154	190.10279417037964	response	0	k		152.0	/home/egter/Projects/stimuli/pictures/ILSVRC2012_test_00016248.JPEG	220.06751203536987	
155	190.1189320087433	picture	0		167.0	153.0	/home/egter/Projects/stimuli/pictures/n02910353_15057.JPEG	220.08364987373352	1.3958311080932617
155	191.49448108673096	response	0	k		153.0	/home/egter/Projects/stimuli/pictures/n02910353_15057.JPEG	221.4591989517212	
156	191.51476311683655	picture	0		117.0	154.0	/home/egter/Projects/stimuli/pictures/R_S_yt-rlVzHENWufE_61.png	221.47948098182678	0.9791209697723389
156	192.4777090549469	response	0	k		154.0	/home/egter/Projects/stimuli/pictures/R_S_yt-rlVzHENWufE_61.png	222.44242691993713	
157	192.4938840866089	picture	0		136.0	155.0	/home/egter/Projects/stimuli/pictures/S_yt-O_4DgW-XKvA_35.png	222.45860195159912	1.1322789192199707
157	193.61794209480286	response	0	j		155.0	/home/egter/Projects/stimuli/pictures/S_yt-O_4DgW-XKvA_35.png	223.5826599597931	
158	193.62616300582886	picture	0		73.0	156.0	/home/egter/Projects/stimuli/pictures/R_S_yt-6aqg1P9YqR8_38.png	223.5908808708191	0.6108109951019287
158	194.22627115249634	response	0	j		156.0	/home/egter/Projects/stimuli/pictures/R_S_yt-6aqg1P9YqR8_38.png	224.19098901748657	
159	194.2369740009308	picture	0		254.0	157.0	/home/egter/Projects/stimuli/pictures/R_S_yt-EvKV7iY1_HM_193.png	224.20169186592102	2.1180222034454346
159	196.3428921699524	response	0	k		157.0	/home/egter/Projects/stimuli/pictures/R_S_yt-EvKV7iY1_HM_193.png	226.30761003494263	
160	196.35499620437622	picture	0		91.0	158.0	/home/egter/Projects/stimuli/pictures/n02988304_12818.JPEG	226.31971406936646	0.7639157772064209
160	197.1028311252594	response	0	k		158.0	/home/egter/Projects/stimuli/pictures/n02988304_12818.JPEG	227.06754899024963	
161	197.11891198158264	picture	0		111.0	159.0	/home/egter/Projects/stimuli/pictures/n03127925_9537.JPEG	227.08362984657288	0.9238510131835938
161	198.034588098526	response	0	k		159.0	/home/egter/Projects/stimuli/pictures/n03127925_9537.JPEG	227.99930596351624	
162	198.04276299476624	picture	0		105.0	160.0	/home/egter/Projects/stimuli/pictures/n04311004_1182.JPEG	228.00748085975647	0.88338303565979
162	198.90286302566528	response	0	k		160.0	/home/egter/Projects/stimuli/pictures/n04311004_1182.JPEG	228.86758089065552	
163	198.92614603042603	picture	0		127.0	161.0	/home/egter/Projects/stimuli/pictures/n09193705_6655.JPEG	228.89086389541626	1.060732126235962
163	199.97626209259033	response	0	k		161.0	/home/egter/Projects/stimuli/pictures/n09193705_6655.JPEG	229.94097995758057	
164	199.986878156662	picture	0		87.0	162.0	/home/egter/Projects/stimuli/pictures/n02106382_6237.JPEG	229.95159602165222	0.7292349338531494
164	200.6944351196289	response	0	k		162.0	/home/egter/Projects/stimuli/pictures/n02106382_6237.JPEG	230.65915298461914	
165	200.71611309051514	picture	0		97.0	163.0	/home/egter/Projects/stimuli/pictures/R_S_pexels-diva-plavalaguna-6985395_1.png	230.68083095550537	0.8183040618896484
165	201.5179090499878	response	0	j		163.0	/home/egter/Projects/stimuli/pictures/R_S_pexels-diva-plavalaguna-6985395_1.png	231.48262691497803	
166	201.53441715240479	picture	0		86.0	164.0	/home/egter/Projects/stimuli/pictures/R_S_yt-7WYXuBHeorw_188.png	231.49913501739502	0.7166519165039062
166	202.24289917945862	response	0	j		164.0	/home/egter/Projects/stimuli/pictures/R_S_yt-7WYXuBHeorw_188.png	232.20761704444885	
167	202.2510690689087	picture	0		130.0	165.0	/home/egter/Projects/stimuli/pictures/n01498041_7872.JPEG	232.21578693389893	1.0834989547729492
167	203.32622718811035	response	0	k		165.0	/home/egter/Projects/stimuli/pictures/n01498041_7872.JPEG	233.2909450531006	
168	203.33456802368164	picture	0		115.0	166.0	/home/egter/Projects/stimuli/pictures/R_S_wc-TAGpcap1KdAS_212.png	233.29928588867188	0.9581639766693115
168	204.28454399108887	response	0	k		166.0	/home/egter/Projects/stimuli/pictures/R_S_wc-TAGpcap1KdAS_212.png	234.2492618560791	
169	204.29273200035095	picture	0		106.0	167.0	/home/egter/Projects/stimuli/pictures/n03240683_10903.JPEG	234.2574498653412	0.88857102394104
169	205.1678900718689	response	0	k		167.0	/home/egter/Projects/stimuli/pictures/n03240683_10903.JPEG	235.13260793685913	
170	205.181303024292	picture	0		107.0	168.0	/home/egter/Projects/stimuli/pictures/S_pexels-mart-production-7279749.png	235.14602088928223	0.8958539962768555
170	206.06788802146912	response	0	j		168.0	/home/egter/Projects/stimuli/pictures/S_pexels-mart-production-7279749.png	236.03260588645935	
171	206.07715702056885	picture	0		110.0	169.0	/home/egter/Projects/stimuli/pictures/R_S_yt-2i53vKte7SA_117.png	236.04187488555908	0.9166131019592285
171	206.98457217216492	response	0	j		169.0	/home/egter/Projects/stimuli/pictures/R_S_yt-2i53vKte7SA_117.png	236.94929003715515	
172	206.99377012252808	picture	0		133.0	170.0	/home/egter/Projects/stimuli/pictures/S_I003_C011_SDR_2K_AVC.png	236.9584879875183	1.111098051071167
172	208.08598804473877	response	0	k		170.0	/home/egter/Projects/stimuli/pictures/S_I003_C011_SDR_2K_AVC.png	238.050705909729	
173	208.10486817359924	picture	0		100.0	171.0	/home/egter/Projects/stimuli/pictures/R_S_flickr-clarkstonscamp-4863427159_1.png	238.06958603858948	0.838001012802124
173	208.919429063797	response	0	j		171.0	/home/egter/Projects/stimuli/pictures/R_S_flickr-clarkstonscamp-4863427159_1.png	238.88414692878723	
174	208.94286918640137	picture	0		166.0	172.0	/home/egter/Projects/stimuli/pictures/S_ILSVRC2015_train_00696000.png	238.9075870513916	1.3915488719940186
174	210.31097602844238	response	0	j		172.0	/home/egter/Projects/stimuli/pictures/S_ILSVRC2015_train_00696000.png	240.27569389343262	
175	210.33441805839539	picture	0		108.0	173.0	/home/egter/Projects/stimuli/pictures/S_yt-Bejo5TLEpg4_36.png	240.29913592338562	0.9083049297332764
175	211.22619199752808	response	0	k		173.0	/home/egter/Projects/stimuli/pictures/S_yt-Bejo5TLEpg4_36.png	241.1909098625183	
176	211.24272298812866	picture	0		118.0	174.0	/home/egter/Projects/stimuli/pictures/n04540053_5579.JPEG	241.2074408531189	0.9871401786804199
176	212.21785402297974	response	0	k		174.0	/home/egter/Projects/stimuli/pictures/n04540053_5579.JPEG	242.18257188796997	
177	212.22986316680908	picture	0		101.0	175.0	/home/egter/Projects/stimuli/pictures/R_S_Pexels_Videos_2795737.png	242.19458103179932	0.8402378559112549
177	213.05951714515686	response	0	j		175.0	/home/egter/Projects/stimuli/pictures/R_S_Pexels_Videos_2795737.png	243.0242350101471	
178	213.07010102272034	picture	0		112.0	176.0	/home/egter/Projects/stimuli/pictures/n01950731_35808.JPEG	243.03481888771057	0.930955171585083
178	213.99289798736572	response	0	k		176.0	/home/egter/Projects/stimuli/pictures/n01950731_35808.JPEG	243.95761585235596	
179	214.00105619430542	picture	0		131.0	177.0	/home/egter/Projects/stimuli/pictures/n02704792_15460.JPEG	243.96577405929565	1.0968139171600342
179	215.08452796936035	response	0	k		177.0	/home/egter/Projects/stimuli/pictures/n02704792_15460.JPEG	245.0492458343506	
180	215.09787011146545	picture	0		131.0	178.0	/home/egter/Projects/stimuli/pictures/S_yt-FMIevUic_XY_50.png	245.0625879764557	1.103132963180542
180	216.18449211120605	response	0	j		178.0	/home/egter/Projects/stimuli/pictures/S_yt-FMIevUic_XY_50.png	246.1492099761963	
181	216.201003074646	picture	0		120.0	179.0	/home/egter/Projects/stimuli/pictures/R_S_yt-oVS_k_9upmo_205.png	246.16572093963623	1.0010390281677246
181	217.1928231716156	response	0	j		179.0	/home/egter/Projects/stimuli/pictures/R_S_yt-oVS_k_9upmo_205.png	247.15754103660583	
182	217.20204210281372	stim	0		293.0			247.16675996780396	2.4490110874176025
182	219.63448810577393	response	0	space				249.59920597076416	
