trial_nr	onset	event_type	phase	response	nr_frames	picture_index	picture_file	onset_abs	duration
0	0.016101837158203125	stim	0		723.0			34.481536865234375	6.039642095565796
0	6.039278984069824	response	0	space				40.504714012145996	
2	6.055743932723999	picture	0		387.0	0.0	/home/egter/Projects/stimuli/pictures/S_yt-LhP0mZ6xxIg_111.png	40.52117896080017	3.227357864379883
2	9.272429943084717	response	0	k		0.0	/home/egter/Projects/stimuli/pictures/S_yt-LhP0mZ6xxIg_111.png	43.73786497116089	
3	9.283101797103882	picture	0		170.0	1.0	/home/egter/Projects/stimuli/pictures/R_S_yt-2l6VKd94eAI_151.png	43.748536825180054	1.4166522026062012
3	10.689058780670166	response	0	j		1.0	/home/egter/Projects/stimuli/pictures/R_S_yt-2l6VKd94eAI_151.png	45.15449380874634	
4	10.699753999710083	picture	0		87.0	2.0	/home/egter/Projects/stimuli/pictures/S_yt-5doJmCcFL7s_3.png	45.165189027786255	0.7224819660186768
4	11.414055824279785	response	0	j		2.0	/home/egter/Projects/stimuli/pictures/S_yt-5doJmCcFL7s_3.png	45.87949085235596	
5	11.42223596572876	picture	0		100.0	3.0	/home/egter/Projects/stimuli/pictures/S_yt--v_iMUMMX6g_39.png	45.88767099380493	0.8333678245544434
5	12.24739694595337	response	0	j		3.0	/home/egter/Projects/stimuli/pictures/S_yt--v_iMUMMX6g_39.png	46.71283197402954	
6	12.255603790283203	picture	0		130.0	4.0	/home/egter/Projects/stimuli/pictures/R_S_yt-5doJmCcFL7s_3.png	46.721038818359375	1.0833220481872559
6	13.323867797851562	response	0	j		4.0	/home/egter/Projects/stimuli/pictures/R_S_yt-5doJmCcFL7s_3.png	47.789302825927734	
7	13.338925838470459	picture	0		178.0	5.0	/home/egter/Projects/stimuli/pictures/n04044716_20454.JPEG	47.80436086654663	1.4858119487762451
7	14.814059972763062	response	0	k		5.0	/home/egter/Projects/stimuli/pictures/n04044716_20454.JPEG	49.27949500083923	
8	14.824737787246704	picture	0		170.0	6.0	/home/egter/Projects/stimuli/pictures/R_S_yt-RMjo2PPEPEA_112.png	49.290172815322876	1.4166491031646729
8	16.230724811553955	response	0	j		6.0	/home/egter/Projects/stimuli/pictures/R_S_yt-RMjo2PPEPEA_112.png	50.69615983963013	
9	16.241386890411377	picture	0		152.0	7.0	/home/egter/Projects/stimuli/pictures/n02105056_4582.JPEG	50.70682191848755	1.2641479969024658
9	17.49747085571289	response	0	k		7.0	/home/egter/Projects/stimuli/pictures/n02105056_4582.JPEG	51.96290588378906	
10	17.505534887313843	picture	0		98.0	8.0	/home/egter/Projects/stimuli/pictures/S_yt-M8wvzt_BMXM_173.png	51.970969915390015	0.8191580772399902
10	18.314024925231934	response	0	j		8.0	/home/egter/Projects/stimuli/pictures/S_yt-M8wvzt_BMXM_173.png	52.779459953308105	
11	18.324692964553833	picture	0		127.0	9.0	/home/egter/Projects/stimuli/pictures/n07716358_34784.JPEG	52.790127992630005	1.0558538436889648
11	19.372354984283447	response	0	k		9.0	/home/egter/Projects/stimuli/pictures/n07716358_34784.JPEG	53.83779001235962	
12	19.380546808242798	picture	0		88.0	10.0	/home/egter/Projects/stimuli/pictures/R_S_yt-tOOaOzYvtKE_79.png	53.84598183631897	0.73580002784729
12	20.1056649684906	response	0	j		10.0	/home/egter/Projects/stimuli/pictures/R_S_yt-tOOaOzYvtKE_79.png	54.57109999656677	
13	20.116346836090088	picture	0		90.0	11.0	/home/egter/Projects/stimuli/pictures/R_S_yt-mL3MuCfKtdY_79.png	54.58178186416626	0.7500021457672119
13	20.85570192337036	response	0	j		11.0	/home/egter/Projects/stimuli/pictures/R_S_yt-mL3MuCfKtdY_79.png	55.32113695144653	
14	20.8663489818573	picture	0		94.0	12.0	/home/egter/Projects/stimuli/pictures/S_yt-2y6A9DJPsDU_65.png	55.33178400993347	0.7848708629608154
14	21.63900899887085	response	0	j		12.0	/home/egter/Projects/stimuli/pictures/S_yt-2y6A9DJPsDU_65.png	56.10444402694702	
15	21.651219844818115	picture	0		100.0	13.0	/home/egter/Projects/stimuli/pictures/R_S_yt-w5lh_rKyKtE_21.png	56.11665487289429	0.8332469463348389
15	22.47231698036194	response	0	j		13.0	/home/egter/Projects/stimuli/pictures/R_S_yt-w5lh_rKyKtE_21.png	56.93775200843811	
16	22.484466791152954	picture	0		130.0	14.0	/home/egter/Projects/stimuli/pictures/S_yt-Dj42sI_Z-kQ_38.png	56.949901819229126	1.0833539962768555
16	23.555668830871582	response	0	j		14.0	/home/egter/Projects/stimuli/pictures/S_yt-Dj42sI_Z-kQ_38.png	58.021103858947754	
17	23.56782078742981	picture	0		110.0	15.0	/home/egter/Projects/stimuli/pictures/n03933933_10972.JPEG	58.03325581550598	0.9165351390838623
17	24.472335815429688	response	0	k		15.0	/home/egter/Projects/stimuli/pictures/n03933933_10972.JPEG	58.93777084350586	
18	24.484355926513672	picture	0		113.0	16.0	/home/egter/Projects/stimuli/pictures/n02086240_4057.JPEG	58.949790954589844	0.9378280639648438
18	25.414000988006592	response	0	k		16.0	/home/egter/Projects/stimuli/pictures/n02086240_4057.JPEG	59.879436016082764	
19	25.422183990478516	picture	0		160.0	17.0	/home/egter/Projects/stimuli/pictures/R_S_yt-PREz5XiiXg0_107.png	59.88761901855469	1.3400168418884277
19	26.740604877471924	response	0	j		17.0	/home/egter/Projects/stimuli/pictures/R_S_yt-PREz5XiiXg0_107.png	61.206039905548096	
20	26.762200832366943	picture	0		108.0	18.0	/home/egter/Projects/stimuli/pictures/n03868242_4721.JPEG	61.227635860443115	0.9027190208435059
20	27.65567183494568	response	0	k		18.0	/home/egter/Projects/stimuli/pictures/n03868242_4721.JPEG	62.12110686302185	
21	27.66491985321045	picture	0		100.0	19.0	/home/egter/Projects/stimuli/pictures/R_S_ILSVRC2015_train_00569003.png	62.13035488128662	0.833341121673584
21	28.488977909088135	response	0	j		19.0	/home/egter/Projects/stimuli/pictures/R_S_ILSVRC2015_train_00569003.png	62.95441293716431	
22	28.498260974884033	picture	0		228.0	20.0	/home/egter/Projects/stimuli/pictures/S_comp_LA_A008_C004_ALTB_ED_FROM_FLAME_RETIME_v46_SDR_PS_20180917_SDR_2K_AVC.png	62.963696002960205	1.9027838706970215
22	30.388884782791138	response	0	j		20.0	/home/egter/Projects/stimuli/pictures/S_comp_LA_A008_C004_ALTB_ED_FROM_FLAME_RETIME_v46_SDR_PS_20180917_SDR_2K_AVC.png	64.85431981086731	
23	30.401044845581055	picture	0		89.0	21.0	/home/egter/Projects/stimuli/pictures/R_S_Nh81j72Utbs_5.png	64.86647987365723	0.743070125579834
23	31.130663871765137	response	0	j		21.0	/home/egter/Projects/stimuli/pictures/R_S_Nh81j72Utbs_5.png	65.59609889984131	
24	31.14411497116089	picture	0		102.0	22.0	/home/egter/Projects/stimuli/pictures/n04081281_1024.JPEG	65.60954999923706	0.8542318344116211
24	31.988921880722046	response	0	k		22.0	/home/egter/Projects/stimuli/pictures/n04081281_1024.JPEG	66.45435690879822	
25	31.99834680557251	picture	0		242.0	23.0	/home/egter/Projects/stimuli/pictures/n01728572_29539.JPEG	66.46378183364868	2.020909070968628
25	34.00576376914978	response	0	j		23.0	/home/egter/Projects/stimuli/pictures/n01728572_29539.JPEG	68.47119879722595	
26	34.01925587654114	picture	0		241.0	24.0	/home/egter/Projects/stimuli/pictures/n03777568_14302.JPEG	68.48469090461731	2.020569086074829
26	36.02234983444214	response	0	k		24.0	/home/egter/Projects/stimuli/pictures/n03777568_14302.JPEG	70.48778486251831	
27	36.03982496261597	picture	0		161.0	25.0	/home/egter/Projects/stimuli/pictures/R_S_yt-PK-Eip9wFr0_24.png	70.50525999069214	1.3406929969787598
27	37.37225389480591	response	0	j		25.0	/home/egter/Projects/stimuli/pictures/R_S_yt-PK-Eip9wFr0_24.png	71.83768892288208	
28	37.38051795959473	picture	0		170.0	26.0	/home/egter/Projects/stimuli/pictures/R_S_yt-uY5xsUKn8zU_17.png	71.8459529876709	1.4165849685668945
28	38.78897500038147	response	0	j		26.0	/home/egter/Projects/stimuli/pictures/R_S_yt-uY5xsUKn8zU_17.png	73.25441002845764	
29	38.79710292816162	picture	0		147.0	27.0	/home/egter/Projects/stimuli/pictures/n03868242_2578.JPEG	73.2625379562378	1.2287828922271729
29	40.01393485069275	response	0	k		27.0	/home/egter/Projects/stimuli/pictures/n03868242_2578.JPEG	74.47936987876892	
30	40.025885820388794	picture	0		119.0	28.0	/home/egter/Projects/stimuli/pictures/S_yt-Oxu6w0Zx9dQ_3.png	74.49132084846497	0.9931399822235107
30	41.00560998916626	response	0	k		28.0	/home/egter/Projects/stimuli/pictures/S_yt-Oxu6w0Zx9dQ_3.png	75.47104501724243	
31	41.019025802612305	picture	0		104.0	29.0	/home/egter/Projects/stimuli/pictures/n07584110_369.JPEG	75.48446083068848	0.8749551773071289
31	41.880626916885376	response	0	k		29.0	/home/egter/Projects/stimuli/pictures/n07584110_369.JPEG	76.34606194496155	
32	41.893980979919434	picture	0		101.0	30.0	/home/egter/Projects/stimuli/pictures/n02981792_21687.JPEG	76.3594160079956	0.8472409248352051
32	42.730578899383545	response	0	k		30.0	/home/egter/Projects/stimuli/pictures/n02981792_21687.JPEG	77.19601392745972	
33	42.74122190475464	picture	0		132.0	31.0	/home/egter/Projects/stimuli/pictures/n01873310_24983.JPEG	77.20665693283081	1.097532033920288
33	43.830567836761475	response	0	k		31.0	/home/egter/Projects/stimuli/pictures/n01873310_24983.JPEG	78.29600286483765	
34	43.83875393867493	picture	0		215.0	32.0	/home/egter/Projects/stimuli/pictures/n03877845_11238.JPEG	78.3041889667511	1.7916958332061768
34	45.62224984169006	response	0	k		32.0	/home/egter/Projects/stimuli/pictures/n03877845_11238.JPEG	80.08768486976624	
35	45.6304497718811	picture	0		198.0	33.0	/home/egter/Projects/stimuli/pictures/n02951358_13450.JPEG	80.09588479995728	1.6523370742797852
35	47.27223181724548	response	0	k		33.0	/home/egter/Projects/stimuli/pictures/n02951358_13450.JPEG	81.73766684532166	
36	47.28278684616089	picture	0		154.0	34.0	/home/egter/Projects/stimuli/pictures/n03461385_46206.JPEG	81.74822187423706	1.2847130298614502
36	48.54877495765686	response	0	k		34.0	/home/egter/Projects/stimuli/pictures/n03461385_46206.JPEG	83.01420998573303	
37	48.56749987602234	picture	0		208.0	35.0	/home/egter/Projects/stimuli/pictures/n02526121_11253.JPEG	83.03293490409851	1.7295880317687988
37	50.28890776634216	response	0	k		35.0	/home/egter/Projects/stimuli/pictures/n02526121_11253.JPEG	84.75434279441833	
38	50.29708790779114	picture	0		282.0	36.0	/home/egter/Projects/stimuli/pictures/n03729826_6276.JPEG	84.76252293586731	2.358337879180908
38	52.63893389701843	response	0	j		36.0	/home/egter/Projects/stimuli/pictures/n03729826_6276.JPEG	87.1043689250946	
39	52.655425786972046	picture	0		192.0	37.0	/home/egter/Projects/stimuli/pictures/S_yt-hjqjWlzPRjY_76.png	87.12086081504822	1.6000120639801025
39	54.24714183807373	response	0	k		37.0	/home/egter/Projects/stimuli/pictures/S_yt-hjqjWlzPRjY_76.png	88.7125768661499	
40	54.25543785095215	picture	0		135.0	38.0	/home/egter/Projects/stimuli/pictures/S_yt-14tjqjjjAEI_15.png	88.72087287902832	1.131511926651001
40	55.3654248714447	response	0	j		38.0	/home/egter/Projects/stimuli/pictures/S_yt-14tjqjjjAEI_15.png	89.83085989952087	
41	55.38694977760315	picture	0		175.0	39.0	/home/egter/Projects/stimuli/pictures/S_yt-osz-TXlRdXs_2.png	89.85238480567932	1.46523118019104
41	56.83887481689453	response	0	j		39.0	/home/egter/Projects/stimuli/pictures/S_yt-osz-TXlRdXs_2.png	91.3043098449707	
42	56.85218095779419	picture	0		287.0	40.0	/home/egter/Projects/stimuli/pictures/S_yt-T4GFfVaHxFY_16.png	91.31761598587036	2.3957619667053223
42	59.23886585235596	response	0	k		40.0	/home/egter/Projects/stimuli/pictures/S_yt-T4GFfVaHxFY_16.png	93.70430088043213	
43	59.24794292449951	picture	0		332.0	41.0	/home/egter/Projects/stimuli/pictures/n03792782_45780.JPEG	93.71337795257568	2.7708089351654053
43	62.00549292564392	response	0	k		41.0	/home/egter/Projects/stimuli/pictures/n03792782_45780.JPEG	96.47092795372009	
44	62.01875185966492	picture	0		92.0	42.0	/home/egter/Projects/stimuli/pictures/n03977966_801.JPEG	96.48418688774109	0.7708330154418945
44	62.7804799079895	response	0	k		42.0	/home/egter/Projects/stimuli/pictures/n03977966_801.JPEG	97.24591493606567	
45	62.78958487510681	picture	0		153.0	43.0	/home/egter/Projects/stimuli/pictures/R_S_flickr-claywakening-27928940166_2.png	97.25501990318298	1.277764081954956
45	64.05549883842468	response	0	j		43.0	/home/egter/Projects/stimuli/pictures/R_S_flickr-claywakening-27928940166_2.png	98.52093386650085	
46	64.06734895706177	picture	0		126.0	44.0	/home/egter/Projects/stimuli/pictures/R_S_yt-aiwDdJm1ek8_90.png	98.53278398513794	1.048602819442749
46	65.1055109500885	response	0	j		44.0	/home/egter/Projects/stimuli/pictures/R_S_yt-aiwDdJm1ek8_90.png	99.57094597816467	
47	65.11595177650452	picture	0		263.0	45.0	/home/egter/Projects/stimuli/pictures/S_ILSVRC2015_train_00652001.png	99.58138680458069	2.1978020668029785
47	67.2971818447113	response	0	j		45.0	/home/egter/Projects/stimuli/pictures/S_ILSVRC2015_train_00652001.png	101.76261687278748	
48	67.3137538433075	picture	0		100.0	46.0	/home/egter/Projects/stimuli/pictures/R_S_yt--wYgjXsc1XQ_106.png	101.77918887138367	0.8370180130004883
48	68.13877487182617	response	0	j		46.0	/home/egter/Projects/stimuli/pictures/R_S_yt--wYgjXsc1XQ_106.png	102.60420989990234	
49	68.15077185630798	picture	0		108.0	47.0	/home/egter/Projects/stimuli/pictures/n03868863_9214.JPEG	102.61620688438416	0.8963451385498047
49	69.03881692886353	response	0	k		47.0	/home/egter/Projects/stimuli/pictures/n03868863_9214.JPEG	103.5042519569397	
50	69.04711699485779	picture	0		336.0	48.0	/home/egter/Projects/stimuli/pictures/S_yt-Z8kKaMQMTdM_173.png	103.51255202293396	2.811908006668091
50	71.84713697433472	response	0	j		48.0	/home/egter/Projects/stimuli/pictures/S_yt-Z8kKaMQMTdM_173.png	106.31257200241089	
51	71.85902500152588	picture	0		120.0	49.0	/home/egter/Projects/stimuli/pictures/n03530642_3595.JPEG	106.32446002960205	0.9998838901519775
51	72.84710478782654	response	0	k		49.0	/home/egter/Projects/stimuli/pictures/n03530642_3595.JPEG	107.31253981590271	
52	72.85890889167786	picture	0		188.0	50.0	/home/egter/Projects/stimuli/pictures/S_yt-9T99N7Cvi_o_112.png	107.32434391975403	1.571470022201538
52	74.41378879547119	response	0	k		50.0	/home/egter/Projects/stimuli/pictures/S_yt-9T99N7Cvi_o_112.png	108.87922382354736	
53	74.4303789138794	picture	0		88.0	51.0	/home/egter/Projects/stimuli/pictures/R_S_yt-qxtmtMnUfD0_124.png	108.89581394195557	0.7341289520263672
53	75.14861989021301	response	0	j		51.0	/home/egter/Projects/stimuli/pictures/R_S_yt-qxtmtMnUfD0_124.png	109.61405491828918	
54	75.16450786590576	picture	0		87.0	52.0	/home/egter/Projects/stimuli/pictures/S_yt-kxWtOXNIsRA_329.png	109.62994289398193	0.7291231155395508
54	75.88043880462646	response	0	j		52.0	/home/egter/Projects/stimuli/pictures/S_yt-kxWtOXNIsRA_329.png	110.34587383270264	
55	75.89363098144531	picture	0		82.0	53.0	/home/egter/Projects/stimuli/pictures/S_yt-qxtmtMnUfD0_124.png	110.35906600952148	0.6876587867736816
55	76.56527876853943	response	0	j		53.0	/home/egter/Projects/stimuli/pictures/S_yt-qxtmtMnUfD0_124.png	111.0307137966156	
56	76.581289768219	picture	0		323.0	54.0	/home/egter/Projects/stimuli/pictures/n02165105_5164.JPEG	111.04672479629517	2.6942341327667236
56	79.26374387741089	response	0	j		54.0	/home/egter/Projects/stimuli/pictures/n02165105_5164.JPEG	113.72917890548706	
57	79.27552390098572	picture	0		168.0	55.0	/home/egter/Projects/stimuli/pictures/R_S_b2-4.png	113.74095892906189	1.3964369297027588
57	80.66378378868103	response	0	j		55.0	/home/egter/Projects/stimuli/pictures/R_S_b2-4.png	115.1292188167572	
58	80.67196083068848	picture	0		86.0	56.0	/home/egter/Projects/stimuli/pictures/R_S_yt-b7bIulV49DQ_81.png	115.13739585876465	0.7217409610748291
58	81.3804759979248	response	0	j		56.0	/home/egter/Projects/stimuli/pictures/R_S_yt-b7bIulV49DQ_81.png	115.84591102600098	
59	81.3937017917633	picture	0		239.0	57.0	/home/egter/Projects/stimuli/pictures/R_S_video-6.png	115.85913681983948	1.9999020099639893
59	83.37358093261719	response	0	j		57.0	/home/egter/Projects/stimuli/pictures/R_S_video-6.png	117.83901596069336	
60	83.3936038017273	picture	0		153.0	58.0	/home/egter/Projects/stimuli/pictures/n02106382_6237.JPEG	117.85903882980347	1.2847180366516113
60	84.6645278930664	response	0	k		58.0	/home/egter/Projects/stimuli/pictures/n02106382_6237.JPEG	119.12996292114258	
61	84.6783218383789	picture	0		312.0	59.0	/home/egter/Projects/stimuli/pictures/S_wc-1MzpHfRq1MUK_32.png	119.14375686645508	2.6040990352630615
61	87.27204895019531	response	0	j		59.0	/home/egter/Projects/stimuli/pictures/S_wc-1MzpHfRq1MUK_32.png	121.73748397827148	
62	87.28242087364197	picture	0		203.0	60.0	/home/egter/Projects/stimuli/pictures/R_S_yt-BiBS8EO5GPc_4.png	121.74785590171814	1.694507122039795
62	88.95760178565979	response	0	j		60.0	/home/egter/Projects/stimuli/pictures/R_S_yt-BiBS8EO5GPc_4.png	123.42303681373596	
63	88.97692799568176	picture	0		95.0	61.0	/home/egter/Projects/stimuli/pictures/S_yt-72bAjwP-nWM_30.png	123.44236302375793	0.7986388206481934
63	89.75689888000488	response	0	k		61.0	/home/egter/Projects/stimuli/pictures/S_yt-72bAjwP-nWM_30.png	124.22233390808105	
64	89.77556681632996	picture	0		90.0	62.0	/home/egter/Projects/stimuli/pictures/S_yt-PyO8-WsbaLU_43.png	124.24100184440613	0.7498769760131836
64	90.51369190216064	response	0	j		62.0	/home/egter/Projects/stimuli/pictures/S_yt-PyO8-WsbaLU_43.png	124.97912693023682	
65	90.52544379234314	picture	0		197.0	63.0	/home/egter/Projects/stimuli/pictures/S_flickr-clarkstonscamp-4863427159_1.png	124.99087882041931	1.6388239860534668
65	92.1486029624939	response	0	j		63.0	/home/egter/Projects/stimuli/pictures/S_flickr-clarkstonscamp-4863427159_1.png	126.61403799057007	
66	92.1642677783966	picture	0		213.0	64.0	/home/egter/Projects/stimuli/pictures/S_comp_GMT308_139K_142NC_CARIBBEAN_DAY_v09_SDR_FINAL_22062018_SDR_2K_AVC.png	126.62970280647278	1.7777931690216064
66	93.93042087554932	response	0	j		64.0	/home/egter/Projects/stimuli/pictures/S_comp_GMT308_139K_142NC_CARIBBEAN_DAY_v09_SDR_FINAL_22062018_SDR_2K_AVC.png	128.3958559036255	
67	93.94206094741821	picture	0		115.0	65.0	/home/egter/Projects/stimuli/pictures/n02640242_5913.JPEG	128.40749597549438	0.958305835723877
67	94.88872385025024	response	0	j		65.0	/home/egter/Projects/stimuli/pictures/n02640242_5913.JPEG	129.35415887832642	
68	94.90036678314209	picture	0		91.0	66.0	/home/egter/Projects/stimuli/pictures/n01797886_1738.JPEG	129.36580181121826	0.7569830417633057
68	95.64706182479858	response	0	k		66.0	/home/egter/Projects/stimuli/pictures/n01797886_1738.JPEG	130.11249685287476	
69	95.6573498249054	picture	0		83.0	67.0	/home/egter/Projects/stimuli/pictures/S_yt-BiBS8EO5GPc_4.png	130.12278485298157	0.6944620609283447
69	96.33255982398987	response	0	j		67.0	/home/egter/Projects/stimuli/pictures/S_yt-BiBS8EO5GPc_4.png	130.79799485206604	
70	96.35181188583374	picture	0		181.0	68.0	/home/egter/Projects/stimuli/pictures/S_b1-3.png	130.8172469139099	1.513828992843628
70	97.855388879776	response	0	k		68.0	/home/egter/Projects/stimuli/pictures/S_b1-3.png	132.32082390785217	
71	97.86564087867737	picture	0		137.0	69.0	/home/egter/Projects/stimuli/pictures/S_comp_LA_A006_C004_v01_SDR_FINAL_PS_20180730_SDR_2K_AVC.png	132.33107590675354	1.1458690166473389
71	98.99775385856628	response	0	j		69.0	/home/egter/Projects/stimuli/pictures/S_comp_LA_A006_C004_v01_SDR_FINAL_PS_20180730_SDR_2K_AVC.png	133.46318888664246	
72	99.0115098953247	picture	0		115.0	70.0	/home/egter/Projects/stimuli/pictures/R_S_yt-qE70lj3-A78_228.png	133.47694492340088	0.9652819633483887
72	99.9575548171997	response	0	j		70.0	/home/egter/Projects/stimuli/pictures/R_S_yt-qE70lj3-A78_228.png	134.42298984527588	
73	99.9767918586731	picture	0		134.0	71.0	/home/egter/Projects/stimuli/pictures/R_S_wc-sd8_iKx0t7s7_9.png	134.44222688674927	1.125
73	101.08869290351868	response	0	j		71.0	/home/egter/Projects/stimuli/pictures/R_S_wc-sd8_iKx0t7s7_9.png	135.55412793159485	
74	101.1017918586731	picture	0		230.0	72.0	/home/egter/Projects/stimuli/pictures/S_yt-NQSCGMpo-p8_118.png	135.56722688674927	1.92352294921875
74	103.01372599601746	response	0	j		72.0	/home/egter/Projects/stimuli/pictures/S_yt-NQSCGMpo-p8_118.png	137.47916102409363	
75	103.02531480789185	picture	0		117.0	73.0	/home/egter/Projects/stimuli/pictures/R_S_comp_DB_D002_C003_PSNK_v04_SDR_PS_20180914_SDR_2K_AVC.png	137.49074983596802	0.9722371101379395
75	103.98186898231506	response	0	j		73.0	/home/egter/Projects/stimuli/pictures/R_S_comp_DB_D002_C003_PSNK_v04_SDR_PS_20180914_SDR_2K_AVC.png	138.44730401039124	
76	103.99755191802979	picture	0		73.0	74.0	/home/egter/Projects/stimuli/pictures/S_yt-MEfljVFL0xw_375.png	138.46298694610596	0.6110758781433105
76	104.59699296951294	response	0	j		74.0	/home/egter/Projects/stimuli/pictures/S_yt-MEfljVFL0xw_375.png	139.0624279975891	
77	104.6086277961731	picture	0		95.0	75.0	/home/egter/Projects/stimuli/pictures/n04536866_11132.JPEG	139.07406282424927	0.7917311191558838
77	105.38867998123169	response	0	k		75.0	/home/egter/Projects/stimuli/pictures/n04536866_11132.JPEG	139.85411500930786	
78	105.40035891532898	picture	0		99.0	76.0	/home/egter/Projects/stimuli/pictures/n03970156_53124.JPEG	139.86579394340515	0.8263640403747559
78	106.21371293067932	response	0	k		76.0	/home/egter/Projects/stimuli/pictures/n03970156_53124.JPEG	140.6791479587555	
79	106.22672295570374	picture	0		86.0	77.0	/home/egter/Projects/stimuli/pictures/R_S_bing-www_dailymotion_com_video_x64hzm7_8.png	140.6921579837799	0.7152359485626221
79	106.93032789230347	response	0	j		77.0	/home/egter/Projects/stimuli/pictures/R_S_bing-www_dailymotion_com_video_x64hzm7_8.png	141.39576292037964	
80	106.94195890426636	picture	0		91.0	78.0	/home/egter/Projects/stimuli/pictures/S_ILSVRC2015_train_00547001.png	141.40739393234253	0.7569549083709717
80	107.68867492675781	response	0	j		78.0	/home/egter/Projects/stimuli/pictures/S_ILSVRC2015_train_00547001.png	142.15410995483398	
81	107.69891381263733	picture	0		110.0	79.0	/home/egter/Projects/stimuli/pictures/R_S_video_inspire_california_catalina_00005.png	142.1643488407135	0.9166390895843506
81	108.6053569316864	response	0	j		79.0	/home/egter/Projects/stimuli/pictures/R_S_video_inspire_california_catalina_00005.png	143.07079195976257	
82	108.61555290222168	picture	0		91.0	80.0	/home/egter/Projects/stimuli/pictures/n04311004_1182.JPEG	143.08098793029785	0.7569830417633057
82	109.35679793357849	response	0	k		80.0	/home/egter/Projects/stimuli/pictures/n04311004_1182.JPEG	143.82223296165466	
83	109.37253594398499	picture	0		169.0	81.0	/home/egter/Projects/stimuli/pictures/S_bing-vimeo_com_218382006_69.png	143.83797097206116	1.416031837463379
83	110.76513981819153	response	0	k		81.0	/home/egter/Projects/stimuli/pictures/S_bing-vimeo_com_218382006_69.png	145.2305748462677	
84	110.78856778144836	picture	0		86.0	82.0	/home/egter/Projects/stimuli/pictures/n03670208_7197.JPEG	145.25400280952454	0.7228271961212158
84	111.49756479263306	response	0	j		82.0	/home/egter/Projects/stimuli/pictures/n03670208_7197.JPEG	145.96299982070923	
85	111.51139497756958	picture	0		581.0	83.0	/home/egter/Projects/stimuli/pictures/n02815834_9667.JPEG	145.97683000564575	4.847134828567505
85	116.34698486328125	response	0	k		83.0	/home/egter/Projects/stimuli/pictures/n02815834_9667.JPEG	150.81241989135742	
86	116.35852980613708	picture	0		94.0	84.0	/home/egter/Projects/stimuli/pictures/S_yt-aiwDdJm1ek8_90.png	150.82396483421326	0.7848379611968994
86	117.1303198337555	response	0	j		84.0	/home/egter/Projects/stimuli/pictures/S_yt-aiwDdJm1ek8_90.png	151.59575486183167	
87	117.14336776733398	picture	0		228.0	85.0	/home/egter/Projects/stimuli/pictures/n01496331_34544.JPEG	151.60880279541016	1.895768165588379
87	119.03031897544861	response	0	j		85.0	/home/egter/Projects/stimuli/pictures/n01496331_34544.JPEG	153.49575400352478	
88	119.03913593292236	picture	0		112.0	86.0	/home/egter/Projects/stimuli/pictures/n02114712_9554.JPEG	153.50457096099854	0.9374690055847168
88	119.9574339389801	response	0	k		86.0	/home/egter/Projects/stimuli/pictures/n02114712_9554.JPEG	154.42286896705627	
89	119.97660493850708	picture	0		193.0	87.0	/home/egter/Projects/stimuli/pictures/S_yt-ZfDtalvUK5k_36.png	154.44203996658325	1.6040639877319336
89	121.56511092185974	response	0	j		87.0	/home/egter/Projects/stimuli/pictures/S_yt-ZfDtalvUK5k_36.png	156.0305459499359	
90	121.58066892623901	picture	0		114.0	88.0	/home/egter/Projects/stimuli/pictures/ILSVRC2012_test_00034453.JPEG	156.04610395431519	0.9514179229736328
90	122.5219509601593	response	0	k		88.0	/home/egter/Projects/stimuli/pictures/ILSVRC2012_test_00034453.JPEG	156.98738598823547	
91	122.53208684921265	picture	0		90.0	89.0	/home/egter/Projects/stimuli/pictures/n01798484_10194.JPEG	156.99752187728882	0.7500309944152832
91	123.27209377288818	response	0	k		89.0	/home/egter/Projects/stimuli/pictures/n01798484_10194.JPEG	157.73752880096436	
92	123.28211784362793	picture	0		78.0	90.0	/home/egter/Projects/stimuli/pictures/n13052670_922.JPEG	157.7475528717041	0.6528279781341553
92	123.92190980911255	response	0	k		90.0	/home/egter/Projects/stimuli/pictures/n13052670_922.JPEG	158.38734483718872	
93	123.93494582176208	picture	0		69.0	91.0	/home/egter/Projects/stimuli/pictures/S_ILSVRC2015_train_00569003.png	158.40038084983826	0.576289176940918
93	124.49747586250305	response	0	j		91.0	/home/egter/Projects/stimuli/pictures/S_ILSVRC2015_train_00569003.png	158.96291089057922	
94	124.511234998703	picture	0		125.0	92.0	/home/egter/Projects/stimuli/pictures/R_S_yt-alGXD2Drh_g_19.png	158.97667002677917	1.0486629009246826
94	125.5469319820404	response	0	j		92.0	/home/egter/Projects/stimuli/pictures/R_S_yt-alGXD2Drh_g_19.png	160.01236701011658	
95	125.55989789962769	picture	0		115.0	93.0	/home/egter/Projects/stimuli/pictures/n01665541_21853.JPEG	160.02533292770386	0.9582901000976562
95	126.5052878856659	response	0	k		93.0	/home/egter/Projects/stimuli/pictures/n01665541_21853.JPEG	160.97072291374207	
96	126.51818799972534	picture	0		92.0	94.0	/home/egter/Projects/stimuli/pictures/R_S_wc-zkO_omg3nTvg_5.png	160.9836230278015	0.7708148956298828
96	127.28027081489563	response	0	j		94.0	/home/egter/Projects/stimuli/pictures/R_S_wc-zkO_omg3nTvg_5.png	161.7457058429718	
97	127.28900289535522	picture	0		154.0	95.0	/home/egter/Projects/stimuli/pictures/n03857828_10829.JPEG	161.7544379234314	1.2846920490264893
97	128.56358194351196	response	0	k		95.0	/home/egter/Projects/stimuli/pictures/n03857828_10829.JPEG	163.02901697158813	
98	128.5736949443817	picture	0		188.0	96.0	/home/egter/Projects/stimuli/pictures/n01728572_6155.JPEG	163.03912997245789	1.569502830505371
98	130.13022994995117	response	0	k		96.0	/home/egter/Projects/stimuli/pictures/n01728572_6155.JPEG	164.59566497802734	
99	130.14319777488708	picture	0		96.0	97.0	/home/egter/Projects/stimuli/pictures/R_S_yt-fymgyhmYnMI_557.png	164.60863280296326	0.7985081672668457
99	130.93035888671875	response	0	j		97.0	/home/egter/Projects/stimuli/pictures/R_S_yt-fymgyhmYnMI_557.png	165.39579391479492	
100	130.94170594215393	picture	0		212.0	98.0	/home/egter/Projects/stimuli/pictures/n03218198_6372.JPEG	165.4071409702301	1.7639288902282715
100	132.69689297676086	response	0	j		98.0	/home/egter/Projects/stimuli/pictures/n03218198_6372.JPEG	167.16232800483704	
101	132.7056348323822	picture	0		93.0	99.0	/home/egter/Projects/stimuli/pictures/R_S_yt-HMAa2QbfFPI_216.png	167.17106986045837	0.7777960300445557
101	133.471932888031	response	0	j		99.0	/home/egter/Projects/stimuli/pictures/R_S_yt-HMAa2QbfFPI_216.png	167.93736791610718	
102	133.48343086242676	picture	0		73.0	100.0	/home/egter/Projects/stimuli/pictures/S_yt-mL3MuCfKtdY_79.png	167.94886589050293	0.6111400127410889
102	134.08072090148926	response	0	j		100.0	/home/egter/Projects/stimuli/pictures/S_yt-mL3MuCfKtdY_79.png	168.54615592956543	
103	134.09457087516785	picture	0		100.0	101.0	/home/egter/Projects/stimuli/pictures/n02361337_10879.JPEG	168.56000590324402	0.840203046798706
103	134.92189192771912	response	0	k		101.0	/home/egter/Projects/stimuli/pictures/n02361337_10879.JPEG	169.3873269557953	
104	134.93477392196655	picture	0		81.0	102.0	/home/egter/Projects/stimuli/pictures/n13133613_33426.JPEG	169.40020895004272	0.6735949516296387
104	135.59010195732117	response	0	k		102.0	/home/egter/Projects/stimuli/pictures/n13133613_33426.JPEG	170.05553698539734	
105	135.6083688735962	picture	0		90.0	103.0	/home/egter/Projects/stimuli/pictures/n01665541_20416.JPEG	170.07380390167236	0.7499630451202393
105	136.34690284729004	response	0	j		103.0	/home/egter/Projects/stimuli/pictures/n01665541_20416.JPEG	170.8123378753662	
106	136.35833191871643	picture	0		342.0	104.0	/home/egter/Projects/stimuli/pictures/S_yt-vOC7cBvdSw8_11.png	170.8237669467926	2.847226858139038
106	139.19003295898438	response	0	j		104.0	/home/egter/Projects/stimuli/pictures/S_yt-vOC7cBvdSw8_11.png	173.65546798706055	
107	139.20555877685547	picture	0		85.0	105.0	/home/egter/Projects/stimuli/pictures/n04597913_2395.JPEG	173.67099380493164	0.7083001136779785
107	139.90517377853394	response	0	k		105.0	/home/egter/Projects/stimuli/pictures/n04597913_2395.JPEG	174.3706088066101	
108	139.91385889053345	picture	0		121.0	106.0	/home/egter/Projects/stimuli/pictures/ILSVRC2012_test_00028014.JPEG	174.37929391860962	1.0139710903167725
108	140.9140498638153	response	0	k		106.0	/home/egter/Projects/stimuli/pictures/ILSVRC2012_test_00028014.JPEG	175.37948489189148	
109	140.92782998085022	picture	0		289.0	107.0	/home/egter/Projects/stimuli/pictures/S_yt-Ja7d2a6e5xE_279.png	175.3932650089264	2.4166259765625
109	143.33067083358765	response	0	j		107.0	/home/egter/Projects/stimuli/pictures/S_yt-Ja7d2a6e5xE_279.png	177.79610586166382	
110	143.34445595741272	picture	0		111.0	108.0	/home/egter/Projects/stimuli/pictures/R_S_production_ID_3927047.png	177.8098909854889	0.9304749965667725
110	144.26358580589294	response	0	j		108.0	/home/egter/Projects/stimuli/pictures/R_S_production_ID_3927047.png	178.72902083396912	
111	144.2749309539795	picture	0		121.0	109.0	/home/egter/Projects/stimuli/pictures/S_production_ID_4997166.png	178.74036598205566	1.0069568157196045
111	145.2718689441681	response	0	j		109.0	/home/egter/Projects/stimuli/pictures/S_production_ID_4997166.png	179.73730397224426	
112	145.2818877696991	picture	0		369.0	110.0	/home/egter/Projects/stimuli/pictures/n04428191_30274.JPEG	179.74732279777527	3.0763511657714844
112	148.34683394432068	response	0	j		110.0	/home/egter/Projects/stimuli/pictures/n04428191_30274.JPEG	182.81226897239685	
113	148.35823893547058	picture	0		76.0	111.0	/home/egter/Projects/stimuli/pictures/R_S_yt-54kx8P3L1ns_6.png	182.82367396354675	0.6319589614868164
113	148.97332191467285	response	0	j		111.0	/home/egter/Projects/stimuli/pictures/R_S_yt-54kx8P3L1ns_6.png	183.43875694274902	
114	148.9901978969574	picture	0		317.0	112.0	/home/egter/Projects/stimuli/pictures/S_yt-4-u4Fw_J_q8_45.png	183.45563292503357	2.646085023880005
114	151.62221884727478	response	0	j		112.0	/home/egter/Projects/stimuli/pictures/S_yt-4-u4Fw_J_q8_45.png	186.08765387535095	
115	151.6362829208374	picture	0		110.0	113.0	/home/egter/Projects/stimuli/pictures/S_b2-4.png	186.10171794891357	0.9234130382537842
115	152.54687190055847	response	0	j		113.0	/home/egter/Projects/stimuli/pictures/S_b2-4.png	187.01230692863464	
116	152.5596959590912	picture	0		97.0	114.0	/home/egter/Projects/stimuli/pictures/n03954731_3132.JPEG	187.02513098716736	0.8054988384246826
116	153.3551709651947	response	0	k		114.0	/home/egter/Projects/stimuli/pictures/n03954731_3132.JPEG	187.82060599327087	
117	153.36519479751587	picture	0		87.0	115.0	/home/egter/Projects/stimuli/pictures/n03788195_12678.JPEG	187.83062982559204	0.7296171188354492
117	154.0805859565735	response	0	k		115.0	/home/egter/Projects/stimuli/pictures/n03788195_12678.JPEG	188.54602098464966	
118	154.09481191635132	picture	0		82.0	116.0	/home/egter/Projects/stimuli/pictures/S_comp_A103_C002_0205DG_v12_SDR_FINAL_20180706_SDR_2K_AVC.png	188.5602469444275	0.6869978904724121
118	154.77186179161072	response	0	j		116.0	/home/egter/Projects/stimuli/pictures/S_comp_A103_C002_0205DG_v12_SDR_FINAL_20180706_SDR_2K_AVC.png	189.2372968196869	
119	154.78180980682373	picture	0		113.0	117.0	/home/egter/Projects/stimuli/pictures/S_ILSVRC2015_train_00572000.png	189.2472448348999	0.9445459842681885
119	155.71356391906738	response	0	j		117.0	/home/egter/Projects/stimuli/pictures/S_ILSVRC2015_train_00572000.png	190.17899894714355	
120	155.72635579109192	picture	0		84.0	118.0	/home/egter/Projects/stimuli/pictures/n03467068_27029.JPEG	190.1917908191681	0.7016870975494385
120	156.41384077072144	response	0	k		118.0	/home/egter/Projects/stimuli/pictures/n03467068_27029.JPEG	190.8792757987976	
121	156.42804288864136	picture	0		126.0	119.0	/home/egter/Projects/stimuli/pictures/n02098413_976.JPEG	190.89347791671753	1.055156946182251
121	157.47206282615662	response	0	k		119.0	/home/egter/Projects/stimuli/pictures/n02098413_976.JPEG	191.9374978542328	
122	157.4831998348236	picture	0		112.0	120.0	/home/egter/Projects/stimuli/pictures/R_S_yt-aSEKRE_FNaI_62.png	191.94863486289978	0.9304859638214111
122	158.39834189414978	response	0	j		120.0	/home/egter/Projects/stimuli/pictures/R_S_yt-aSEKRE_FNaI_62.png	192.86377692222595	
123	158.41368579864502	picture	0		122.0	121.0	/home/egter/Projects/stimuli/pictures/S_yt-SCzpSxzt0TA_46.png	192.8791208267212	1.020909070968628
123	159.42176389694214	response	0	j		121.0	/home/egter/Projects/stimuli/pictures/S_yt-SCzpSxzt0TA_46.png	193.8871989250183	
124	159.43459486961365	picture	0		101.0	122.0	/home/egter/Projects/stimuli/pictures/n03196217_4417.JPEG	193.90002989768982	0.8402140140533447
124	160.26346588134766	response	0	k		122.0	/home/egter/Projects/stimuli/pictures/n03196217_4417.JPEG	194.72890090942383	
125	160.274808883667	picture	0		147.0	123.0	/home/egter/Projects/stimuli/pictures/S_ILSVRC2015_train_00692001.png	194.74024391174316	1.2222239971160889
125	161.48855185508728	response	0	j		123.0	/home/egter/Projects/stimuli/pictures/S_ILSVRC2015_train_00692001.png	195.95398688316345	
126	161.49703288078308	picture	0		116.0	124.0	/home/egter/Projects/stimuli/pictures/R_S_bing-www_nytimes_com_video_dining_1247468118505_grilled-chicken-breasts-with-herb-butter_html_132.png	195.96246790885925	0.972243070602417
126	162.45550894737244	response	0	j		124.0	/home/egter/Projects/stimuli/pictures/R_S_bing-www_nytimes_com_video_dining_1247468118505_grilled-chicken-breasts-with-herb-butter_html_132.png	196.9209439754486	
127	162.4692759513855	picture	0		248.0	125.0	/home/egter/Projects/stimuli/pictures/n07590611_20876.JPEG	196.93471097946167	2.069389820098877
127	164.53012681007385	response	0	j		125.0	/home/egter/Projects/stimuli/pictures/n07590611_20876.JPEG	198.99556183815002	
128	164.53866577148438	picture	0		104.0	126.0	/home/egter/Projects/stimuli/pictures/n01641577_1379.JPEG	199.00410079956055	0.8680391311645508
128	165.38995099067688	response	0	j		126.0	/home/egter/Projects/stimuli/pictures/n01641577_1379.JPEG	199.85538601875305	
129	165.40670490264893	picture	0		84.0	127.0	/home/egter/Projects/stimuli/pictures/n02128925_74984.JPEG	199.8721399307251	0.7013869285583496
129	166.09679293632507	response	0	k		127.0	/home/egter/Projects/stimuli/pictures/n02128925_74984.JPEG	200.56222796440125	
130	166.10809183120728	picture	0		96.0	128.0	/home/egter/Projects/stimuli/pictures/S_yt-fTlJIM1TtOw_28.png	200.57352685928345	0.7985999584197998
130	166.89675378799438	response	0	k		128.0	/home/egter/Projects/stimuli/pictures/S_yt-fTlJIM1TtOw_28.png	201.36218881607056	
131	166.90669178962708	picture	0		190.0	129.0	/home/egter/Projects/stimuli/pictures/R_S_yt-mMnlzv6cfH4_134.png	201.37212681770325	1.583402156829834
131	168.48011088371277	response	0	j		129.0	/home/egter/Projects/stimuli/pictures/R_S_yt-mMnlzv6cfH4_134.png	202.94554591178894	
132	168.4900939464569	picture	0		75.0	130.0	/home/egter/Projects/stimuli/pictures/R_S_comp_DB_D001_C001_PSNK_v06_SDR_PS_20180824_SDR_2K_AVC.png	202.95552897453308	0.624932050704956
132	169.10510993003845	response	0	j		130.0	/home/egter/Projects/stimuli/pictures/R_S_comp_DB_D001_C001_PSNK_v06_SDR_PS_20180824_SDR_2K_AVC.png	203.57054495811462	
133	169.11502599716187	picture	0		100.0	131.0	/home/egter/Projects/stimuli/pictures/n02117135_13100.JPEG	203.58046102523804	0.8333339691162109
133	169.93840193748474	response	0	k		131.0	/home/egter/Projects/stimuli/pictures/n02117135_13100.JPEG	204.4038369655609	
134	169.94835996627808	picture	0		105.0	132.0	/home/egter/Projects/stimuli/pictures/n03777568_4677.JPEG	204.41379499435425	0.8749699592590332
134	170.80677795410156	response	0	k		132.0	/home/egter/Projects/stimuli/pictures/n03777568_4677.JPEG	205.27221298217773	
135	170.8233299255371	picture	0		122.0	133.0	/home/egter/Projects/stimuli/pictures/S_ILSVRC2015_train_00418004.png	205.28876495361328	1.020885944366455
135	171.83041977882385	response	0	j		133.0	/home/egter/Projects/stimuli/pictures/S_ILSVRC2015_train_00418004.png	206.29585480690002	
136	171.84421586990356	picture	0		162.0	134.0	/home/egter/Projects/stimuli/pictures/n07717556_11398.JPEG	206.30965089797974	1.361119031906128
136	173.18151092529297	response	0	k		134.0	/home/egter/Projects/stimuli/pictures/n07717556_11398.JPEG	207.64694595336914	
137	173.2053349018097	picture	0		99.0	135.0	/home/egter/Projects/stimuli/pictures/n03933933_16287.JPEG	207.67076992988586	0.8263020515441895
137	174.01490688323975	response	0	k		135.0	/home/egter/Projects/stimuli/pictures/n03933933_16287.JPEG	208.48034191131592	
138	174.03163695335388	picture	0		169.0	136.0	/home/egter/Projects/stimuli/pictures/R_S_cST9H3zu3zQ_126.png	208.49707198143005	1.4096879959106445
138	175.43005299568176	response	0	j		136.0	/home/egter/Projects/stimuli/pictures/R_S_cST9H3zu3zQ_126.png	209.89548802375793	
139	175.44132494926453	picture	0		131.0	137.0	/home/egter/Projects/stimuli/pictures/n02099849_3786.JPEG	209.9067599773407	1.090268850326538
139	176.52174997329712	response	0	k		137.0	/home/egter/Projects/stimuli/pictures/n02099849_3786.JPEG	210.9871850013733	
140	176.53159379959106	picture	0		98.0	138.0	/home/egter/Projects/stimuli/pictures/n02104029_4267.JPEG	210.99702882766724	0.8194451332092285
140	177.3384108543396	response	0	j		138.0	/home/egter/Projects/stimuli/pictures/n02104029_4267.JPEG	211.80384588241577	
141	177.3510389328003	picture	0		116.0	139.0	/home/egter/Projects/stimuli/pictures/R_S_yt-Dj42sI_Z-kQ_38.png	211.81647396087646	0.9722349643707275
141	178.31336283683777	response	0	j		139.0	/home/egter/Projects/stimuli/pictures/R_S_yt-Dj42sI_Z-kQ_38.png	212.77879786491394	
142	178.32327389717102	picture	0		160.0	140.0	/home/egter/Projects/stimuli/pictures/S_yt-GWOOQZ19-oU_331.png	212.7887089252472	1.3333308696746826
142	179.64667987823486	response	0	j		140.0	/home/egter/Projects/stimuli/pictures/S_yt-GWOOQZ19-oU_331.png	214.11211490631104	
143	179.6566047668457	picture	0		149.0	141.0	/home/egter/Projects/stimuli/pictures/S_yt-xQPKYWDRy2A_491.png	214.12203979492188	1.243021011352539
143	180.88849592208862	response	0	j		141.0	/home/egter/Projects/stimuli/pictures/S_yt-xQPKYWDRy2A_491.png	215.3539309501648	
144	180.89962577819824	picture	0		101.0	142.0	/home/egter/Projects/stimuli/pictures/R_S_yt-2IfvnrF3IV0_241.png	215.3650608062744	0.8402340412139893
144	181.7300579547882	response	0	j		142.0	/home/egter/Projects/stimuli/pictures/R_S_yt-2IfvnrF3IV0_241.png	216.19549298286438	
145	181.73985981941223	picture	0		112.0	143.0	/home/egter/Projects/stimuli/pictures/n03868863_5924.JPEG	216.2052948474884	0.9376039505004883
145	182.66357278823853	response	0	k		143.0	/home/egter/Projects/stimuli/pictures/n03868863_5924.JPEG	217.1290078163147	
146	182.67746376991272	picture	0		92.0	144.0	/home/egter/Projects/stimuli/pictures/S_yt-fymgyhmYnMI_557.png	217.1428987979889	0.7707440853118896
146	183.4383728504181	response	0	j		144.0	/home/egter/Projects/stimuli/pictures/S_yt-fymgyhmYnMI_557.png	217.90380787849426	
147	183.4482078552246	picture	0		291.0	145.0	/home/egter/Projects/stimuli/pictures/n01806567_15739.JPEG	217.91364288330078	2.423574924468994
147	185.86336183547974	response	0	j		145.0	/home/egter/Projects/stimuli/pictures/n01806567_15739.JPEG	220.3287968635559	
148	185.8717827796936	picture	0		76.0	146.0	/home/egter/Projects/stimuli/pictures/n03854065_16506.JPEG	220.33721780776978	0.6393461227416992
148	186.4968798160553	response	0	k		146.0	/home/egter/Projects/stimuli/pictures/n03854065_16506.JPEG	220.96231484413147	
149	186.5111289024353	picture	0		97.0	147.0	/home/egter/Projects/stimuli/pictures/S_flickr-thelastdon-8662706978_3.png	220.97656393051147	0.8120439052581787
149	187.31336879730225	response	0	k		147.0	/home/egter/Projects/stimuli/pictures/S_flickr-thelastdon-8662706978_3.png	221.77880382537842	
150	187.32317280769348	picture	0		108.0	148.0	/home/egter/Projects/stimuli/pictures/n02268443_26935.JPEG	221.78860783576965	0.903007984161377
150	188.2068588733673	response	0	k		148.0	/home/egter/Projects/stimuli/pictures/n02268443_26935.JPEG	222.67229390144348	
151	188.22618079185486	picture	0		119.0	149.0	/home/egter/Projects/stimuli/pictures/S_yt-xBwq6sHHF5M_21.png	222.69161581993103	0.9929599761962891
151	189.19824290275574	response	0	j		149.0	/home/egter/Projects/stimuli/pictures/S_yt-xBwq6sHHF5M_21.png	223.6636779308319	
152	189.21914076805115	picture	0		249.0	150.0	/home/egter/Projects/stimuli/pictures/S_yt-r5kRl-2lVxc_2.png	223.68457579612732	2.083214044570923
152	191.28852081298828	response	0	j		150.0	/home/egter/Projects/stimuli/pictures/S_yt-r5kRl-2lVxc_2.png	225.75395584106445	
153	191.30235481262207	picture	0		111.0	151.0	/home/egter/Projects/stimuli/pictures/n02437312_2627.JPEG	225.76778984069824	0.9304699897766113
153	192.21491599082947	response	0	k		151.0	/home/egter/Projects/stimuli/pictures/n02437312_2627.JPEG	226.68035101890564	
154	192.23282480239868	picture	0		144.0	152.0	/home/egter/Projects/stimuli/pictures/S_ILSVRC2015_train_00415007.png	226.69825983047485	1.2014820575714111
154	193.4149878025055	response	0	k		152.0	/home/egter/Projects/stimuli/pictures/S_ILSVRC2015_train_00415007.png	227.88042283058167	
155	193.4343068599701	picture	0		103.0	153.0	/home/egter/Projects/stimuli/pictures/S_yt-yzXjWakwpPs_175.png	227.89974188804626	0.8540019989013672
155	194.27998185157776	response	0	k		153.0	/home/egter/Projects/stimuli/pictures/S_yt-yzXjWakwpPs_175.png	228.74541687965393	
156	194.28830885887146	picture	0		151.0	154.0	/home/egter/Projects/stimuli/pictures/S_yt_R-3UiB_5en3gg_145.png	228.75374388694763	1.264024019241333
156	195.5384669303894	response	0	k		154.0	/home/egter/Projects/stimuli/pictures/S_yt_R-3UiB_5en3gg_145.png	230.00390195846558	
157	195.5523328781128	picture	0		77.0	155.0	/home/egter/Projects/stimuli/pictures/R_S_yt-06XMUn9DTKc_35.png	230.01776790618896	0.6457769870758057
157	196.18833184242249	response	0	j		155.0	/home/egter/Projects/stimuli/pictures/R_S_yt-06XMUn9DTKc_35.png	230.65376687049866	
158	196.1981098651886	picture	0		82.0	156.0	/home/egter/Projects/stimuli/pictures/S_ILSVRC2015_train_00584001.png	230.66354489326477	0.6901130676269531
158	196.87182092666626	response	0	j		156.0	/home/egter/Projects/stimuli/pictures/S_ILSVRC2015_train_00584001.png	231.33725595474243	
159	196.88822293281555	picture	0		85.0	157.0	/home/egter/Projects/stimuli/pictures/R_S_yt-PyO8-WsbaLU_43.png	231.35365796089172	0.7126369476318359
159	197.58830094337463	response	0	j		157.0	/home/egter/Projects/stimuli/pictures/R_S_yt-PyO8-WsbaLU_43.png	232.0537359714508	
160	197.6008598804474	picture	0		107.0	158.0	/home/egter/Projects/stimuli/pictures/S_yt-JWedZ-zeqgQ_52.png	232.06629490852356	0.8889100551605225
160	198.47998976707458	response	0	k		158.0	/home/egter/Projects/stimuli/pictures/S_yt-JWedZ-zeqgQ_52.png	232.94542479515076	
161	198.4897699356079	picture	0		161.0	159.0	/home/egter/Projects/stimuli/pictures/n04418357_25661.JPEG	232.95520496368408	1.340268850326538
161	199.8147909641266	response	0	k		159.0	/home/egter/Projects/stimuli/pictures/n04418357_25661.JPEG	234.28022599220276	
162	199.83003878593445	picture	0		111.0	160.0	/home/egter/Projects/stimuli/pictures/n01632458_798.JPEG	234.29547381401062	0.9306111335754395
162	200.74676990509033	response	0	k		160.0	/home/egter/Projects/stimuli/pictures/n01632458_798.JPEG	235.2122049331665	
163	200.7606499195099	picture	0		95.0	161.0	/home/egter/Projects/stimuli/pictures/n02981792_181.JPEG	235.22608494758606	0.7986788749694824
163	201.54667687416077	response	0	k		161.0	/home/egter/Projects/stimuli/pictures/n02981792_181.JPEG	236.01211190223694	
164	201.55932879447937	picture	0		90.0	162.0	/home/egter/Projects/stimuli/pictures/S_yt-Pc1ZlCvsPpc_5.png	236.02476382255554	0.7498440742492676
164	202.29665398597717	response	0	j		162.0	/home/egter/Projects/stimuli/pictures/S_yt-Pc1ZlCvsPpc_5.png	236.76208901405334	
165	202.30917286872864	picture	0		88.0	163.0	/home/egter/Projects/stimuli/pictures/S_yt-YykKZWKmLnQ_386.png	236.7746078968048	0.729241132736206
165	203.02996683120728	response	0	j		163.0	/home/egter/Projects/stimuli/pictures/S_yt-YykKZWKmLnQ_386.png	237.49540185928345	
166	203.03841400146484	picture	0		105.0	164.0	/home/egter/Projects/stimuli/pictures/S_yt-5DD4XtHSA9Q_171.png	237.50384902954102	0.8748519420623779
166	203.90490984916687	response	0	j		164.0	/home/egter/Projects/stimuli/pictures/S_yt-5DD4XtHSA9Q_171.png	238.37034487724304	
167	203.91326594352722	picture	0		102.0	165.0	/home/egter/Projects/stimuli/pictures/S_ILSVRC2015_train_00363000.png	238.3787009716034	0.85418701171875
167	204.7549548149109	response	0	j		165.0	/home/egter/Projects/stimuli/pictures/S_ILSVRC2015_train_00363000.png	239.22038984298706	
168	204.76745295524597	picture	0		256.0	166.0	/home/egter/Projects/stimuli/pictures/S_yt--a-d97T4Gak_75.png	239.23288798332214	2.1319119930267334
168	206.88826394081116	response	0	j		166.0	/home/egter/Projects/stimuli/pictures/S_yt--a-d97T4Gak_75.png	241.35369896888733	
169	206.8993649482727	picture	0		80.0	167.0	/home/egter/Projects/stimuli/pictures/S_yt-urJgH6tpfkU_204.png	241.36479997634888	0.6667039394378662
169	207.55486679077148	response	0	j		167.0	/home/egter/Projects/stimuli/pictures/S_yt-urJgH6tpfkU_204.png	242.02030181884766	
170	207.56606888771057	picture	0		87.0	168.0	/home/egter/Projects/stimuli/pictures/R_S_yt-GETRVzxihhM_74.png	242.03150391578674	0.7221360206604004
170	208.27993488311768	response	0	j		168.0	/home/egter/Projects/stimuli/pictures/R_S_yt-GETRVzxihhM_74.png	242.74536991119385	
171	208.28820490837097	picture	0		88.0	169.0	/home/egter/Projects/stimuli/pictures/R_S_I003_C011_SDR_2K_AVC.png	242.75363993644714	0.7361619472503662
171	209.00645184516907	response	0	j		169.0	/home/egter/Projects/stimuli/pictures/R_S_I003_C011_SDR_2K_AVC.png	243.47188687324524	
172	209.02436685562134	picture	0		82.0	170.0	/home/egter/Projects/stimuli/pictures/n07718472_31015.JPEG	243.4898018836975	0.6805150508880615
172	209.69660091400146	response	0	k		170.0	/home/egter/Projects/stimuli/pictures/n07718472_31015.JPEG	244.16203594207764	
173	209.7048819065094	picture	0		80.0	171.0	/home/egter/Projects/stimuli/pictures/n09256479_4779.JPEG	244.17031693458557	0.6666600704193115
173	210.3632469177246	response	0	k		171.0	/home/egter/Projects/stimuli/pictures/n09256479_4779.JPEG	244.82868194580078	
174	210.3715419769287	picture	0		69.0	172.0	/home/egter/Projects/stimuli/pictures/R_S_comp_A012_C014_1223PT_v53_SDR_PS_FINAL_20180709_F0F8700_SDR_2K_AVC.png	244.83697700500488	0.5832819938659668
174	210.9382839202881	response	0	j		172.0	/home/egter/Projects/stimuli/pictures/R_S_comp_A012_C014_1223PT_v53_SDR_PS_FINAL_20180709_F0F8700_SDR_2K_AVC.png	245.40371894836426	
175	210.95482397079468	picture	0		118.0	173.0	/home/egter/Projects/stimuli/pictures/R_S_yt-Xs-YKSogfak_24.png	245.42025899887085	0.9861660003662109
175	211.92995381355286	response	0	j		173.0	/home/egter/Projects/stimuli/pictures/R_S_yt-Xs-YKSogfak_24.png	246.39538884162903	
176	211.9409899711609	picture	0		111.0	174.0	/home/egter/Projects/stimuli/pictures/ILSVRC2012_test_00096632.JPEG	246.40642499923706	0.9236259460449219
176	212.8550319671631	response	0	k		174.0	/home/egter/Projects/stimuli/pictures/ILSVRC2012_test_00096632.JPEG	247.32046699523926	
177	212.8646159172058	picture	0		104.0	175.0	/home/egter/Projects/stimuli/pictures/n04328186_2567.JPEG	247.33005094528198	0.8680169582366943
177	213.72155380249023	response	0	k		175.0	/home/egter/Projects/stimuli/pictures/n04328186_2567.JPEG	248.1869888305664	
178	213.7326328754425	picture	0		169.0	176.0	/home/egter/Projects/stimuli/pictures/n02100583_20582.JPEG	248.19806790351868	1.409740924835205
178	215.12992787361145	response	0	k		176.0	/home/egter/Projects/stimuli/pictures/n02100583_20582.JPEG	249.59536290168762	
179	215.1423738002777	picture	0		102.0	177.0	/home/egter/Projects/stimuli/pictures/n04162706_12268.JPEG	249.60780882835388	0.8540880680084229
179	215.98826599121094	response	0	k		177.0	/home/egter/Projects/stimuli/pictures/n04162706_12268.JPEG	250.4537010192871	
180	215.99646186828613	picture	0		114.0	178.0	/home/egter/Projects/stimuli/pictures/S_ILSVRC2015_train_00465000.png	250.4618968963623	0.9514579772949219
180	216.9382607936859	response	0	j		178.0	/home/egter/Projects/stimuli/pictures/S_ILSVRC2015_train_00465000.png	251.40369582176208	
181	216.94791984558105	picture	0		117.0	179.0	/home/egter/Projects/stimuli/pictures/n01806567_8377.JPEG	251.41335487365723	0.9791960716247559
181	217.9132628440857	response	0	k		179.0	/home/egter/Projects/stimuli/pictures/n01806567_8377.JPEG	252.37869787216187	
182	217.9271159172058	stim	0		264.0			252.39255094528198	2.194369077682495
182	220.11324977874756	response	0	space				254.57868480682373	
