trial_nr	onset	event_type	phase	response	nr_frames	picture_index	picture_file	onset_abs	duration
0	0.013711214065551758	stim	0		1654.0			32.18135714530945	13.79255485534668
0	12.089761018753052	response	0	return				44.25740694999695	
0	13.789473056793213	response	0	space				45.95711898803711	
2	13.806266069412231	picture	0		1597.0	0.0	/home/egter/Projects/stimuli/pictures/S_yt-ja8Pmpik_ao_112.png	45.97391200065613	13.308880090713501
2	27.106209993362427	response	0	j		0.0	/home/egter/Projects/stimuli/pictures/S_yt-ja8Pmpik_ao_112.png	59.27385592460632	
3	27.115146160125732	picture	0		186.0	1.0	/home/egter/Projects/stimuli/pictures/S_yt-3JApfnMu5cU_378.png	59.28279209136963	1.5556378364562988
3	28.6569561958313	response	0	j		1.0	/home/egter/Projects/stimuli/pictures/S_yt-3JApfnMu5cU_378.png	60.824602127075195	
4	28.67078399658203	picture	0		177.0	2.0	/home/egter/Projects/stimuli/pictures/S_video_inspire_italy_como_cerano-dintelvi_006.png	60.83842992782593	1.4790871143341064
4	30.139631032943726	response	0	j		2.0	/home/egter/Projects/stimuli/pictures/S_video_inspire_italy_como_cerano-dintelvi_006.png	62.30727696418762	
5	30.149871110916138	picture	0		104.0	3.0	/home/egter/Projects/stimuli/pictures/n03733805_18502.JPEG	62.317517042160034	0.8680469989776611
5	31.006160020828247	response	0	k		3.0	/home/egter/Projects/stimuli/pictures/n03733805_18502.JPEG	63.173805952072144	
6	31.0179181098938	picture	0		276.0	4.0	/home/egter/Projects/stimuli/pictures/R_S_yt-316ecr1BT84_44.png	63.185564041137695	2.2985270023345947
6	33.30616807937622	response	0	j		4.0	/home/egter/Projects/stimuli/pictures/R_S_yt-316ecr1BT84_44.png	65.47381401062012	
7	33.316445112228394	picture	0		163.0	5.0	/home/egter/Projects/stimuli/pictures/S_ILSVRC2015_train_00682006.png	65.48409104347229	1.3612639904022217
7	34.66449809074402	response	0	j		5.0	/home/egter/Projects/stimuli/pictures/S_ILSVRC2015_train_00682006.png	66.83214402198792	
8	34.677709102630615	picture	0		181.0	6.0	/home/egter/Projects/stimuli/pictures/S_pexels-koolshooters-7327401_1.png	66.84535503387451	1.513767957687378
8	36.18112921714783	response	0	j		6.0	/home/egter/Projects/stimuli/pictures/S_pexels-koolshooters-7327401_1.png	68.34877514839172	
9	36.19147706031799	picture	0		126.0	7.0	/home/egter/Projects/stimuli/pictures/R_S_g201_WH_D004_L014_SDR_20191031_SDR_2K_AVC.png	68.35912299156189	1.048570156097412
9	37.22433519363403	response	0	k		7.0	/home/egter/Projects/stimuli/pictures/R_S_g201_WH_D004_L014_SDR_20191031_SDR_2K_AVC.png	69.39198112487793	
10	37.240047216415405	picture	0		126.0	8.0	/home/egter/Projects/stimuli/pictures/R_S_yt-hRAqAwRhmwE_58.png	69.4076931476593	1.055647850036621
10	38.281822204589844	response	0	j		8.0	/home/egter/Projects/stimuli/pictures/R_S_yt-hRAqAwRhmwE_58.png	70.44946813583374	
11	38.295695066452026	picture	0		140.0	9.0	/home/egter/Projects/stimuli/pictures/n03344393_6139.JPEG	70.46334099769592	1.1735520362854004
11	39.45609998703003	response	0	k		9.0	/home/egter/Projects/stimuli/pictures/n03344393_6139.JPEG	71.62374591827393	
12	39.46924710273743	picture	0		72.0	10.0	/home/egter/Projects/stimuli/pictures/R_S_ILSVRC2015_train_00371013.png	71.63689303398132	0.6041049957275391
12	40.06447410583496	response	0	j		10.0	/home/egter/Projects/stimuli/pictures/R_S_ILSVRC2015_train_00371013.png	72.23212003707886	
13	40.073352098464966	picture	0		106.0	11.0	/home/egter/Projects/stimuli/pictures/n03240683_10939.JPEG	72.24099802970886	0.8891420364379883
13	40.948477029800415	response	0	k		11.0	/home/egter/Projects/stimuli/pictures/n03240683_10939.JPEG	73.11612296104431	
14	40.962494134902954	picture	0		122.0	12.0	/home/egter/Projects/stimuli/pictures/S_yt-IlW1U39Dga4_5.png	73.13014006614685	1.020569086074829
14	41.972774028778076	response	0	j		12.0	/home/egter/Projects/stimuli/pictures/S_yt-IlW1U39Dga4_5.png	74.14041996002197	
15	41.98306322097778	picture	0		81.0	13.0	/home/egter/Projects/stimuli/pictures/S_yt-o_CT2MjZ9fA_216.png	74.15070915222168	0.6736278533935547
15	42.64089107513428	response	0	j		13.0	/home/egter/Projects/stimuli/pictures/S_yt-o_CT2MjZ9fA_216.png	74.80853700637817	
16	42.65669107437134	picture	0		92.0	14.0	/home/egter/Projects/stimuli/pictures/R_S_yt-FzMLLmcD1mE_19.png	74.82433700561523	0.7708699703216553
16	43.40831518173218	response	0	j		14.0	/home/egter/Projects/stimuli/pictures/R_S_yt-FzMLLmcD1mE_19.png	75.57596111297607	
17	43.42756104469299	picture	0		214.0	15.0	/home/egter/Projects/stimuli/pictures/S_ga8dBJH_qK8_765.png	75.59520697593689	1.7916290760040283
17	45.19990611076355	response	0	k		15.0	/home/egter/Projects/stimuli/pictures/S_ga8dBJH_qK8_765.png	77.36755204200745	
18	45.21919012069702	picture	0		106.0	16.0	/home/egter/Projects/stimuli/pictures/R_S_IrGYVLkWeQs_9.png	77.38683605194092	0.8888459205627441
18	46.0977520942688	response	0	j		16.0	/home/egter/Projects/stimuli/pictures/R_S_IrGYVLkWeQs_9.png	78.2653980255127	
19	46.108036041259766	picture	0		97.0	17.0	/home/egter/Projects/stimuli/pictures/R_S_yt-qxtmtMnUfD0_124.png	78.27568197250366	0.812567949295044
19	46.90686511993408	response	0	j		17.0	/home/egter/Projects/stimuli/pictures/R_S_yt-qxtmtMnUfD0_124.png	79.07451105117798	
20	46.92060399055481	picture	0		172.0	18.0	/home/egter/Projects/stimuli/pictures/R_S_yt-jbvXEFk2Gyw_12.png	79.0882499217987	1.4373791217803955
20	48.34775900840759	response	0	k		18.0	/home/egter/Projects/stimuli/pictures/R_S_yt-jbvXEFk2Gyw_12.png	80.51540493965149	
21	48.357983112335205	picture	0		111.0	19.0	/home/egter/Projects/stimuli/pictures/n02791124_2614.JPEG	80.5256290435791	0.9236240386962891
21	49.27266502380371	response	0	j		19.0	/home/egter/Projects/stimuli/pictures/n02791124_2614.JPEG	81.44031095504761	
22	49.281607151031494	picture	0		180.0	20.0	/home/egter/Projects/stimuli/pictures/R_S_yt-7W50lcw5FCo_37.png	81.44925308227539	1.4999840259552002
22	50.772847175598145	response	0	j		20.0	/home/egter/Projects/stimuli/pictures/R_S_yt-7W50lcw5FCo_37.png	82.94049310684204	
23	50.781591176986694	picture	0		130.0	21.0	/home/egter/Projects/stimuli/pictures/R_S_wc-dwTccI0TNwps_15.png	82.94923710823059	1.0833308696746826
23	51.85602903366089	response	0	j		21.0	/home/egter/Projects/stimuli/pictures/R_S_wc-dwTccI0TNwps_15.png	84.02367496490479	
24	51.86492204666138	picture	0		116.0	22.0	/home/egter/Projects/stimuli/pictures/S_yt-g_CLzrCYHoc_7.png	84.03256797790527	0.9660220146179199
24	52.81587505340576	response	0	j		22.0	/home/egter/Projects/stimuli/pictures/S_yt-g_CLzrCYHoc_7.png	84.98352098464966	
25	52.8309440612793	picture	0		290.0	23.0	/home/egter/Projects/stimuli/pictures/S_ILSVRC2015_train_00518001.png	84.9985899925232	2.4229090213775635
25	55.240230083465576	response	0	j		23.0	/home/egter/Projects/stimuli/pictures/S_ILSVRC2015_train_00518001.png	87.40787601470947	
26	55.25385308265686	picture	0		145.0	24.0	/home/egter/Projects/stimuli/pictures/S_pexels-kampus-production-6022792_1.png	87.42149901390076	1.2152540683746338
26	56.45600509643555	response	0	k		24.0	/home/egter/Projects/stimuli/pictures/S_pexels-kampus-production-6022792_1.png	88.62365102767944	
27	56.469107151031494	picture	0		121.0	25.0	/home/egter/Projects/stimuli/pictures/R_S_ILSVRC2015_train_00479001.png	88.63675308227539	1.0137848854064941
27	57.47276210784912	response	0	j		25.0	/home/egter/Projects/stimuli/pictures/R_S_ILSVRC2015_train_00479001.png	89.64040803909302	
28	57.48289203643799	picture	0		145.0	26.0	/home/egter/Projects/stimuli/pictures/S_yt-npaE4fe6A6Y_26.png	89.65053796768188	1.208359956741333
28	58.681077003479004	response	0	j		26.0	/home/egter/Projects/stimuli/pictures/S_yt-npaE4fe6A6Y_26.png	90.8487229347229	
29	58.69125199317932	picture	0		81.0	27.0	/home/egter/Projects/stimuli/pictures/n01910747_877.JPEG	90.85889792442322	0.6736030578613281
29	59.35605716705322	response	0	k		27.0	/home/egter/Projects/stimuli/pictures/n01910747_877.JPEG	91.52370309829712	
30	59.36485505104065	picture	0		78.0	28.0	/home/egter/Projects/stimuli/pictures/S_yt-GyMWMiWvuiA_237.png	91.53250098228455	0.6528220176696777
30	60.00603699684143	response	0	j		28.0	/home/egter/Projects/stimuli/pictures/S_yt-GyMWMiWvuiA_237.png	92.17368292808533	
31	60.01767706871033	picture	0		518.0	29.0	/home/egter/Projects/stimuli/pictures/R_S_yt-9t5-3Qe_t9A_591.png	92.18532299995422	4.319643974304199
31	64.32326698303223	response	0	k		29.0	/home/egter/Projects/stimuli/pictures/R_S_yt-9t5-3Qe_t9A_591.png	96.49091291427612	
32	64.33732104301453	picture	0		240.0	30.0	/home/egter/Projects/stimuli/pictures/S_yt-FhnT_42bV7M_11.png	96.50496697425842	2.0066699981689453
32	66.33100414276123	response	0	j		30.0	/home/egter/Projects/stimuli/pictures/S_yt-FhnT_42bV7M_11.png	98.49865007400513	
33	66.34399104118347	picture	0		70.0	31.0	/home/egter/Projects/stimuli/pictures/n03201208_3545.JPEG	98.51163697242737	0.5903899669647217
33	66.92265510559082	response	0	k		31.0	/home/egter/Projects/stimuli/pictures/n03201208_3545.JPEG	99.09030103683472	
34	66.9343810081482	picture	0		88.0	32.0	/home/egter/Projects/stimuli/pictures/S_production_ID_4269182.png	99.10202693939209	0.7363510131835938
34	67.64920401573181	response	0	k		32.0	/home/egter/Projects/stimuli/pictures/S_production_ID_4269182.png	99.81684994697571	
35	67.67073202133179	picture	0		96.0	33.0	/home/egter/Projects/stimuli/pictures/n02105162_2318.JPEG	99.83837795257568	0.8051540851593018
35	68.46437120437622	response	0	k		33.0	/home/egter/Projects/stimuli/pictures/n02105162_2318.JPEG	100.63201713562012	
36	68.47588610649109	picture	0		86.0	34.0	/home/egter/Projects/stimuli/pictures/R_S_yt-3JApfnMu5cU_378.png	100.64353203773499	0.7152600288391113
36	69.18098616600037	response	0	j		34.0	/home/egter/Projects/stimuli/pictures/R_S_yt-3JApfnMu5cU_378.png	101.34863209724426	
37	69.1911461353302	picture	0		99.0	35.0	/home/egter/Projects/stimuli/pictures/n02097209_5260.JPEG	101.3587920665741	0.8263740539550781
37	70.00603199005127	response	0	k		35.0	/home/egter/Projects/stimuli/pictures/n02097209_5260.JPEG	102.17367792129517	
38	70.01752018928528	picture	0		126.0	36.0	/home/egter/Projects/stimuli/pictures/S_g201_AK_A003_C014_SDR_20191113_SDR_2K_AVC.png	102.18516612052917	1.0486419200897217
38	71.05597805976868	response	0	k		36.0	/home/egter/Projects/stimuli/pictures/S_g201_AK_A003_C014_SDR_20191113_SDR_2K_AVC.png	103.22362399101257	
39	71.066162109375	picture	0		131.0	37.0	/home/egter/Projects/stimuli/pictures/S_yt-65cexqxy5lU_35.png	103.2338080406189	1.0901930332183838
39	72.14768600463867	response	0	k		37.0	/home/egter/Projects/stimuli/pictures/S_yt-65cexqxy5lU_35.png	104.31533193588257	
40	72.15635514259338	picture	0		75.0	38.0	/home/egter/Projects/stimuli/pictures/n01685808_6392.JPEG	104.32400107383728	0.6250300407409668
40	72.77266001701355	response	0	j		38.0	/home/egter/Projects/stimuli/pictures/n01685808_6392.JPEG	104.94030594825745	
41	72.78138518333435	picture	0		123.0	39.0	/home/egter/Projects/stimuli/pictures/n03633091_24188.JPEG	104.94903111457825	1.027763843536377
41	73.79766201972961	response	0	k		39.0	/home/egter/Projects/stimuli/pictures/n03633091_24188.JPEG	105.96530795097351	
42	73.80914902687073	picture	0		158.0	40.0	/home/egter/Projects/stimuli/pictures/S_yt-wCGilnAvV3s_188.png	105.97679495811462	1.322139024734497
42	75.11486721038818	response	0	j		40.0	/home/egter/Projects/stimuli/pictures/S_yt-wCGilnAvV3s_188.png	107.28251314163208	
43	75.13128805160522	picture	0		114.0	41.0	/home/egter/Projects/stimuli/pictures/n02077923_9403.JPEG	107.29893398284912	0.9626431465148926
43	76.08096098899841	response	0	j		41.0	/home/egter/Projects/stimuli/pictures/n02077923_9403.JPEG	108.24860692024231	
44	76.09393119812012	picture	0		92.0	42.0	/home/egter/Projects/stimuli/pictures/S_yt-OLDm2slgfA4_3.png	108.26157712936401	0.7638030052185059
44	76.84079813957214	response	0	j		42.0	/home/egter/Projects/stimuli/pictures/S_yt-OLDm2slgfA4_3.png	109.00844407081604	
45	76.85773420333862	picture	0		101.0	43.0	/home/egter/Projects/stimuli/pictures/n01669191_11893.JPEG	109.02538013458252	0.8402538299560547
45	77.68925714492798	response	0	j		43.0	/home/egter/Projects/stimuli/pictures/n01669191_11893.JPEG	109.85690307617188	
46	77.69798803329468	picture	0		105.0	44.0	/home/egter/Projects/stimuli/pictures/R_S_yt-11S5tcT2Tm0_254.png	109.86563396453857	0.875014066696167
46	78.56433200836182	response	0	j		44.0	/home/egter/Projects/stimuli/pictures/R_S_yt-11S5tcT2Tm0_254.png	110.73197793960571	
47	78.57300209999084	picture	0		189.0	45.0	/home/egter/Projects/stimuli/pictures/R_S_ILSVRC2015_train_00318000.png	110.74064803123474	1.5763459205627441
47	80.13929009437561	response	0	j		45.0	/home/egter/Projects/stimuli/pictures/R_S_ILSVRC2015_train_00318000.png	112.3069360256195	
48	80.14934802055359	picture	0		99.0	46.0	/home/egter/Projects/stimuli/pictures/n01641577_1298.JPEG	112.31699395179749	0.8264431953430176
48	80.96429014205933	response	0	k		46.0	/home/egter/Projects/stimuli/pictures/n01641577_1298.JPEG	113.13193607330322	
49	80.9757912158966	picture	0		167.0	47.0	/home/egter/Projects/stimuli/pictures/R_S_video-3.png	113.1434371471405	1.3888208866119385
49	82.35595512390137	response	0	j		47.0	/home/egter/Projects/stimuli/pictures/R_S_video-3.png	114.52360105514526	
50	82.36461210250854	picture	0		76.0	48.0	/home/egter/Projects/stimuli/pictures/S_IrGYVLkWeQs_9.png	114.53225803375244	0.6390299797058105
50	82.98973107337952	response	0	j		48.0	/home/egter/Projects/stimuli/pictures/S_IrGYVLkWeQs_9.png	115.15737700462341	
51	83.00364208221436	picture	0		105.0	49.0	/home/egter/Projects/stimuli/pictures/R_S_wc-Mf8SQpviaD6D_17.png	115.17128801345825	0.8818631172180176
51	83.87260508537292	response	0	j		49.0	/home/egter/Projects/stimuli/pictures/R_S_wc-Mf8SQpviaD6D_17.png	116.04025101661682	
52	83.88550519943237	picture	0		229.0	50.0	/home/egter/Projects/stimuli/pictures/n01664065_16757.JPEG	116.05315113067627	1.9097709655761719
52	85.78140020370483	response	0	k		50.0	/home/egter/Projects/stimuli/pictures/n01664065_16757.JPEG	117.94904613494873	
53	85.79527616500854	picture	0		121.0	51.0	/home/egter/Projects/stimuli/pictures/n02009912_5068.JPEG	117.96292209625244	1.0137929916381836
53	86.7975401878357	response	0	k		51.0	/home/egter/Projects/stimuli/pictures/n02009912_5068.JPEG	118.96518611907959	
54	86.80906915664673	picture	0		96.0	52.0	/home/egter/Projects/stimuli/pictures/n02101556_8367.JPEG	118.97671508789062	0.7985680103302002
54	87.59755301475525	response	0	k		52.0	/home/egter/Projects/stimuli/pictures/n02101556_8367.JPEG	119.76519894599915	
55	87.60763716697693	picture	0		80.0	53.0	/home/egter/Projects/stimuli/pictures/n01664065_7098.JPEG	119.77528309822083	0.6666488647460938
55	88.26429009437561	response	0	j		53.0	/home/egter/Projects/stimuli/pictures/n01664065_7098.JPEG	120.4319360256195	
56	88.27428603172302	picture	0		167.0	54.0	/home/egter/Projects/stimuli/pictures/R_S_yt-5fZZrdwkFx0_28.png	120.44193196296692	1.3959481716156006
56	89.6490831375122	response	0	k		54.0	/home/egter/Projects/stimuli/pictures/R_S_yt-5fZZrdwkFx0_28.png	121.8167290687561	
57	89.67023420333862	picture	0		118.0	55.0	/home/egter/Projects/stimuli/pictures/R_S_yt-hOtj2y9VWrc_354.png	121.83788013458252	0.9859888553619385
57	90.64074301719666	response	0	k		55.0	/home/egter/Projects/stimuli/pictures/R_S_yt-hOtj2y9VWrc_354.png	122.80838894844055	
58	90.65622305870056	picture	0		92.0	56.0	/home/egter/Projects/stimuli/pictures/n04366367_5814.JPEG	122.82386898994446	0.7710530757904053
58	91.41420102119446	response	0	k		56.0	/home/egter/Projects/stimuli/pictures/n04366367_5814.JPEG	123.58184695243835	
59	91.42727613449097	picture	0		123.0	57.0	/home/egter/Projects/stimuli/pictures/S_yt-e_eOzV7qMZo_374.png	123.59492206573486	1.0347280502319336
59	92.44067811965942	response	0	j		57.0	/home/egter/Projects/stimuli/pictures/S_yt-e_eOzV7qMZo_374.png	124.60832405090332	
60	92.4620041847229	picture	0		108.0	58.0	/home/egter/Projects/stimuli/pictures/n04347754_624.JPEG	124.6296501159668	0.9025378227233887
60	93.35588717460632	response	0	k		58.0	/home/egter/Projects/stimuli/pictures/n04347754_624.JPEG	125.52353310585022	
61	93.36454200744629	picture	0		110.0	59.0	/home/egter/Projects/stimuli/pictures/R_S_yt-ycfVJyrFgB4_15.png	125.53218793869019	0.9166860580444336
61	94.27250409126282	response	0	j		59.0	/home/egter/Projects/stimuli/pictures/R_S_yt-ycfVJyrFgB4_15.png	126.44015002250671	
62	94.28122806549072	picture	0		136.0	60.0	/home/egter/Projects/stimuli/pictures/S_bing-www_msn_com_en-us_video_news_tommy-lasorda-salutes-national-league-champs_vp-AAtLThQ_4.png	126.44887399673462	1.145862102508545
62	95.40632104873657	response	0	j		60.0	/home/egter/Projects/stimuli/pictures/S_bing-www_msn_com_en-us_video_news_tommy-lasorda-salutes-national-league-champs_vp-AAtLThQ_4.png	127.57396697998047	
63	95.42709016799927	picture	0		108.0	61.0	/home/egter/Projects/stimuli/pictures/S_pexels-cottonbro-10639398.png	127.59473609924316	0.9098038673400879
63	96.32293200492859	response	0	j		61.0	/home/egter/Projects/stimuli/pictures/S_pexels-cottonbro-10639398.png	128.49057793617249	
64	96.33689403533936	picture	0		193.0	62.0	/home/egter/Projects/stimuli/pictures/R_S_pexels-kampus-production-6022792.png	128.50453996658325	1.6110131740570068
64	97.93921399116516	response	0	k		62.0	/home/egter/Projects/stimuli/pictures/R_S_pexels-kampus-production-6022792.png	130.10685992240906	
65	97.94790720939636	picture	0		156.0	63.0	/home/egter/Projects/stimuli/pictures/S_ILSVRC2015_train_00415005.png	130.11555314064026	1.3078689575195312
65	99.23235201835632	response	0	k		63.0	/home/egter/Projects/stimuli/pictures/S_ILSVRC2015_train_00415005.png	131.39999794960022	
66	99.2557761669159	picture	0		107.0	64.0	/home/egter/Projects/stimuli/pictures/S_yt-A-RhzHTz38g_21.png	131.4234220981598	0.8934199810028076
66	100.1391990184784	response	0	k		64.0	/home/egter/Projects/stimuli/pictures/S_yt-A-RhzHTz38g_21.png	132.3068449497223	
67	100.1491961479187	picture	0		108.0	65.0	/home/egter/Projects/stimuli/pictures/n01924916_6827.JPEG	132.3168420791626	0.9027490615844727
67	101.03273320198059	response	0	k		65.0	/home/egter/Projects/stimuli/pictures/n01924916_6827.JPEG	133.2003791332245	
68	101.05194520950317	picture	0		130.0	66.0	/home/egter/Projects/stimuli/pictures/S_yt-Lbv4qHp0RO0_14.png	133.21959114074707	1.087155818939209
68	102.12255215644836	response	0	k		66.0	/home/egter/Projects/stimuli/pictures/S_yt-Lbv4qHp0RO0_14.png	134.29019808769226	
69	102.13910102844238	picture	0		95.0	67.0	/home/egter/Projects/stimuli/pictures/ILSVRC2012_test_00060829.JPEG	134.30674695968628	0.7947871685028076
69	102.92253708839417	response	0	k		67.0	/home/egter/Projects/stimuli/pictures/ILSVRC2012_test_00060829.JPEG	135.09018301963806	
70	102.93388819694519	picture	0		116.0	68.0	/home/egter/Projects/stimuli/pictures/R_S_flickr-seattlemcneals-996953_3.png	135.1015341281891	0.9652948379516602
70	103.88916015625	response	0	k		68.0	/home/egter/Projects/stimuli/pictures/R_S_flickr-seattlemcneals-996953_3.png	136.0568060874939	
71	103.89918303489685	picture	0		94.0	69.0	/home/egter/Projects/stimuli/pictures/R_S_g201_AK_A003_C014_SDR_20191113_SDR_2K_AVC.png	136.06682896614075	0.784682035446167
71	104.6657280921936	response	0	k		69.0	/home/egter/Projects/stimuli/pictures/R_S_g201_AK_A003_C014_SDR_20191113_SDR_2K_AVC.png	136.8333740234375	
72	104.68386507034302	picture	0		122.0	70.0	/home/egter/Projects/stimuli/pictures/n03290653_1838.JPEG	136.8515110015869	1.0139110088348389
72	105.68917417526245	response	0	k		70.0	/home/egter/Projects/stimuli/pictures/n03290653_1838.JPEG	137.85682010650635	
73	105.69777607917786	picture	0		117.0	71.0	/home/egter/Projects/stimuli/pictures/S_ILSVRC2015_train_00405000.png	137.86542201042175	0.9792189598083496
73	106.65772318840027	response	0	j		71.0	/home/egter/Projects/stimuli/pictures/S_ILSVRC2015_train_00405000.png	138.82536911964417	
74	106.6769950389862	picture	0		170.0	72.0	/home/egter/Projects/stimuli/pictures/n04335435_21811.JPEG	138.8446409702301	1.4287471771240234
74	108.08918499946594	response	0	k		72.0	/home/egter/Projects/stimuli/pictures/n04335435_21811.JPEG	140.25683093070984	
75	108.10574221611023	picture	0		164.0	73.0	/home/egter/Projects/stimuli/pictures/R_S_yt-bhiGMKSAz2g_370.png	140.27338814735413	1.3749959468841553
75	109.45741200447083	response	0	j		73.0	/home/egter/Projects/stimuli/pictures/R_S_yt-bhiGMKSAz2g_370.png	141.62505793571472	
76	109.48073816299438	picture	0		134.0	74.0	/home/egter/Projects/stimuli/pictures/n03868242_1825.JPEG	141.64838409423828	1.1197319030761719
76	110.58915305137634	response	0	k		74.0	/home/egter/Projects/stimuli/pictures/n03868242_1825.JPEG	142.75679898262024	
77	110.60047006607056	picture	0		84.0	75.0	/home/egter/Projects/stimuli/pictures/n04252225_10323.JPEG	142.76811599731445	0.7014379501342773
77	111.28914213180542	response	0	k		75.0	/home/egter/Projects/stimuli/pictures/n04252225_10323.JPEG	143.45678806304932	
78	111.30190801620483	picture	0		102.0	76.0	/home/egter/Projects/stimuli/pictures/R_S_yt-RVoC19C420Y_27.png	143.46955394744873	0.8471992015838623
78	112.13916301727295	response	0	j		76.0	/home/egter/Projects/stimuli/pictures/R_S_yt-RVoC19C420Y_27.png	144.30680894851685	
79	112.1491072177887	picture	0		121.0	77.0	/home/egter/Projects/stimuli/pictures/n04154565_4496.JPEG	144.3167531490326	1.006922960281372
79	113.14751100540161	response	0	k		77.0	/home/egter/Projects/stimuli/pictures/n04154565_4496.JPEG	145.3151569366455	
80	113.15603017807007	picture	0		109.0	78.0	/home/egter/Projects/stimuli/pictures/n01744401_6341.JPEG	145.32367610931396	0.9096858501434326
80	114.04905104637146	response	0	k		78.0	/home/egter/Projects/stimuli/pictures/n01744401_6341.JPEG	146.21669697761536	
81	114.0657160282135	picture	0		82.0	79.0	/home/egter/Projects/stimuli/pictures/R_S_yt-xNITUMXoU0g_9.png	146.2333619594574	0.6875600814819336
81	114.73951506614685	response	0	j		79.0	/home/egter/Projects/stimuli/pictures/R_S_yt-xNITUMXoU0g_9.png	146.90716099739075	
82	114.75327610969543	picture	0		125.0	80.0	/home/egter/Projects/stimuli/pictures/S_yt-a0axt7n0GuQ_19.png	146.92092204093933	1.0485448837280273
82	115.78914308547974	response	0	j		80.0	/home/egter/Projects/stimuli/pictures/S_yt-a0axt7n0GuQ_19.png	147.95678901672363	
83	115.80182099342346	picture	0		171.0	81.0	/home/egter/Projects/stimuli/pictures/n01734418_7857.JPEG	147.96946692466736	1.4236400127410889
83	117.21412515640259	response	0	k		81.0	/home/egter/Projects/stimuli/pictures/n01734418_7857.JPEG	149.38177108764648	
84	117.22546100616455	picture	0		124.0	82.0	/home/egter/Projects/stimuli/pictures/n02815834_676.JPEG	149.39310693740845	1.0385591983795166
84	118.24098205566406	response	0	k		82.0	/home/egter/Projects/stimuli/pictures/n02815834_676.JPEG	150.40862798690796	
85	118.26402020454407	picture	0		115.0	83.0	/home/egter/Projects/stimuli/pictures/S_yt-MNo__ov96eI_22.png	150.43166613578796	0.9666697978973389
85	119.2141661643982	response	0	k		83.0	/home/egter/Projects/stimuli/pictures/S_yt-MNo__ov96eI_22.png	151.3818120956421	
86	119.2306900024414	picture	0		191.0	84.0	/home/egter/Projects/stimuli/pictures/S_yt-EgsLlKJmzeY_60.png	151.3983359336853	1.59999418258667
86	120.81424403190613	response	0	j		84.0	/home/egter/Projects/stimuli/pictures/S_yt-EgsLlKJmzeY_60.png	152.98188996315002	
87	120.83068418502808	picture	0		80.0	85.0	/home/egter/Projects/stimuli/pictures/S_wc-q23aBNJMZbnZ_27.png	152.99833011627197	0.6750199794769287
87	121.48951506614685	response	0	k		85.0	/home/egter/Projects/stimuli/pictures/S_wc-q23aBNJMZbnZ_27.png	153.65716099739075	
88	121.505704164505	picture	0		123.0	86.0	/home/egter/Projects/stimuli/pictures/S_yt-Ek1jcvett9E_33.png	153.6733500957489	1.025195837020874
88	122.52248620986938	response	0	k		86.0	/home/egter/Projects/stimuli/pictures/S_yt-Ek1jcvett9E_33.png	154.69013214111328	
89	122.53090000152588	picture	0		74.0	87.0	/home/egter/Projects/stimuli/pictures/S_yt-SS7pSyb0_d0_32.png	154.69854593276978	0.6180741786956787
89	123.13915610313416	response	0	j		87.0	/home/egter/Projects/stimuli/pictures/S_yt-SS7pSyb0_d0_32.png	155.30680203437805	
90	123.14897418022156	picture	0		101.0	88.0	/home/egter/Projects/stimuli/pictures/n02233338_32737.JPEG	155.31662011146545	0.8401949405670166
90	123.98079204559326	response	0	k		88.0	/home/egter/Projects/stimuli/pictures/n02233338_32737.JPEG	156.14843797683716	
91	123.98916912078857	picture	0		87.0	89.0	/home/egter/Projects/stimuli/pictures/S_yt-qxtmtMnUfD0_124.png	156.15681505203247	0.7331500053405762
91	124.70580101013184	response	0	j		89.0	/home/egter/Projects/stimuli/pictures/S_yt-qxtmtMnUfD0_124.png	156.87344694137573	
92	124.72231912612915	picture	0		120.0	90.0	/home/egter/Projects/stimuli/pictures/S_yt-Ryb0K9lGPrg_5.png	156.88996505737305	1.0083420276641846
92	125.71409916877747	response	0	j		90.0	/home/egter/Projects/stimuli/pictures/S_yt-Ryb0K9lGPrg_5.png	157.88174510002136	
93	125.73066115379333	picture	0		112.0	91.0	/home/egter/Projects/stimuli/pictures/S_yt-bhiGMKSAz2g_370.png	157.89830708503723	0.9391398429870605
93	126.6489109992981	response	0	j		91.0	/home/egter/Projects/stimuli/pictures/S_yt-bhiGMKSAz2g_370.png	158.816556930542	
94	126.6698009967804	picture	0		354.0	92.0	/home/egter/Projects/stimuli/pictures/n03868242_13273.JPEG	158.8374469280243	2.9583420753479004
94	129.6143021583557	response	0	k		92.0	/home/egter/Projects/stimuli/pictures/n03868242_13273.JPEG	161.7819480895996	
95	129.6281430721283	picture	0		107.0	93.0	/home/egter/Projects/stimuli/pictures/n02117135_2447.JPEG	161.7957890033722	0.8957610130310059
95	130.51407313346863	response	0	k		93.0	/home/egter/Projects/stimuli/pictures/n02117135_2447.JPEG	162.68171906471252	
96	130.5239040851593	picture	0		92.0	94.0	/home/egter/Projects/stimuli/pictures/S_production_ID_3967181.png	162.6915500164032	0.770906925201416
96	131.2739541530609	response	0	j		94.0	/home/egter/Projects/stimuli/pictures/S_production_ID_3967181.png	163.4416000843048	
97	131.29481101036072	picture	0		141.0	95.0	/home/egter/Projects/stimuli/pictures/R_S_nvbAwZOKBS8_23.png	163.46245694160461	1.1805360317230225
97	132.45737218856812	response	0	j		95.0	/home/egter/Projects/stimuli/pictures/R_S_nvbAwZOKBS8_23.png	164.625018119812	
98	132.47534704208374	picture	0		128.0	96.0	/home/egter/Projects/stimuli/pictures/S_yt-q5Wp_yDLujU_108.png	164.64299297332764	1.0719311237335205
98	133.53092908859253	response	0	j		96.0	/home/egter/Projects/stimuli/pictures/S_yt-q5Wp_yDLujU_108.png	165.69857501983643	
99	133.54727816581726	picture	0		132.0	97.0	/home/egter/Projects/stimuli/pictures/R_S_ILSVRC2015_train_00363000.png	165.71492409706116	1.101590871810913
99	134.6390700340271	response	0	j		97.0	/home/egter/Projects/stimuli/pictures/R_S_ILSVRC2015_train_00363000.png	166.806715965271	
100	134.64886903762817	picture	0		94.0	98.0	/home/egter/Projects/stimuli/pictures/n02165456_15231.JPEG	166.81651496887207	0.7900769710540771
100	135.4223930835724	response	0	k		98.0	/home/egter/Projects/stimuli/pictures/n02165456_15231.JPEG	167.59003901481628	
101	135.43894600868225	picture	0		135.0	99.0	/home/egter/Projects/stimuli/pictures/n02510455_1421.JPEG	167.60659193992615	1.1265621185302734
101	136.5557301044464	response	0	k		99.0	/home/egter/Projects/stimuli/pictures/n02510455_1421.JPEG	168.7233760356903	
102	136.56550812721252	picture	0		104.0	100.0	/home/egter/Projects/stimuli/pictures/R_S_yt-P8vJa4YVcGU_488.png	168.73315405845642	0.8680400848388672
102	137.42242002487183	response	0	j		100.0	/home/egter/Projects/stimuli/pictures/R_S_yt-P8vJa4YVcGU_488.png	169.59006595611572	
103	137.4335482120514	picture	0		13.0	101.0	/home/egter/Projects/stimuli/pictures/S_yt-Wr5pSPApQDw_235.png	169.6011941432953	0.1137387752532959
103	137.53082418441772	response	0	j		101.0	/home/egter/Projects/stimuli/pictures/S_yt-Wr5pSPApQDw_235.png	169.69847011566162	
104	137.5472869873047	picture	0		104.0	102.0	/home/egter/Projects/stimuli/pictures/n04041544_59160.JPEG	169.71493291854858	0.8724751472473145
104	138.40589714050293	response	0	k		102.0	/home/egter/Projects/stimuli/pictures/n04041544_59160.JPEG	170.57354307174683	
105	138.419762134552	picture	0		112.0	103.0	/home/egter/Projects/stimuli/pictures/n03854065_8632.JPEG	170.5874080657959	0.937391996383667
105	139.34745812416077	response	0	k		103.0	/home/egter/Projects/stimuli/pictures/n03854065_8632.JPEG	171.51510405540466	
106	139.35715413093567	picture	0		115.0	104.0	/home/egter/Projects/stimuli/pictures/S_yt-t-wpKypNysg_27.png	171.52480006217957	0.9583239555358887
106	140.3057119846344	response	0	j		104.0	/home/egter/Projects/stimuli/pictures/S_yt-t-wpKypNysg_27.png	172.4733579158783	
107	140.31547808647156	picture	0		92.0	105.0	/home/egter/Projects/stimuli/pictures/n04081281_22953.JPEG	172.48312401771545	0.7712171077728271
107	141.06562519073486	response	0	k		105.0	/home/egter/Projects/stimuli/pictures/n04081281_22953.JPEG	173.23327112197876	
108	141.08669519424438	picture	0		168.0	106.0	/home/egter/Projects/stimuli/pictures/S_g201_WH_D004_L014_SDR_20191031_SDR_2K_AVC.png	173.25434112548828	1.4023349285125732
108	142.47393012046814	response	0	k		106.0	/home/egter/Projects/stimuli/pictures/S_g201_WH_D004_L014_SDR_20191031_SDR_2K_AVC.png	174.64157605171204	
109	142.48903012275696	picture	0		85.0	107.0	/home/egter/Projects/stimuli/pictures/ILSVRC2012_test_00081923.JPEG	174.65667605400085	0.7083289623260498
109	143.18902111053467	response	0	j		107.0	/home/egter/Projects/stimuli/pictures/ILSVRC2012_test_00081923.JPEG	175.35666704177856	
110	143.197359085083	picture	0		82.0	108.0	/home/egter/Projects/stimuli/pictures/S_yt-2ftSsLqRQnA_84.png	175.3650050163269	0.6876170635223389
110	143.86569809913635	response	0	k		108.0	/home/egter/Projects/stimuli/pictures/S_yt-2ftSsLqRQnA_84.png	176.03334403038025	
111	143.88497614860535	picture	0		89.0	109.0	/home/egter/Projects/stimuli/pictures/R_S_yt-jQrMcUCmAaM_44.png	176.05262207984924	0.7429928779602051
111	144.61432719230652	response	0	j		109.0	/home/egter/Projects/stimuli/pictures/R_S_yt-jQrMcUCmAaM_44.png	176.78197312355042	
112	144.62796902656555	picture	0		127.0	110.0	/home/egter/Projects/stimuli/pictures/n03372029_76011.JPEG	176.79561495780945	1.0624351501464844
112	145.67378902435303	response	0	k		110.0	/home/egter/Projects/stimuli/pictures/n03372029_76011.JPEG	177.84143495559692	
113	145.69040417671204	picture	0		204.0	111.0	/home/egter/Projects/stimuli/pictures/R_S_yt--Ra34zJ69AU_68.png	177.85805010795593	1.701361894607544
113	147.38064408302307	response	0	k		111.0	/home/egter/Projects/stimuli/pictures/R_S_yt--Ra34zJ69AU_68.png	179.54829001426697	
114	147.39176607131958	picture	0		89.0	112.0	/home/egter/Projects/stimuli/pictures/S_yt-IdhdCU1HQ30_50.png	179.55941200256348	0.7430939674377441
114	148.12237811088562	response	0	k		112.0	/home/egter/Projects/stimuli/pictures/S_yt-IdhdCU1HQ30_50.png	180.29002404212952	
115	148.13486003875732	picture	0		115.0	113.0	/home/egter/Projects/stimuli/pictures/S_ILSVRC2015_train_00753000.png	180.30250597000122	0.9583511352539062
115	149.07392716407776	response	0	k		113.0	/home/egter/Projects/stimuli/pictures/S_ILSVRC2015_train_00753000.png	181.24157309532166	
116	149.09321117401123	picture	0		181.0	114.0	/home/egter/Projects/stimuli/pictures/n04041544_2577.JPEG	181.26085710525513	1.5138258934020996
116	149.6223340034485	response	0	space		114.0	/home/egter/Projects/stimuli/pictures/n04041544_2577.JPEG	181.78997993469238	
116	150.59734416007996	response	0	k		114.0	/home/egter/Projects/stimuli/pictures/n04041544_2577.JPEG	182.76499009132385	
117	150.60703706741333	picture	0		187.0	115.0	/home/egter/Projects/stimuli/pictures/n04367480_14779.JPEG	182.77468299865723	1.5627920627593994
117	152.15572118759155	response	0	k		115.0	/home/egter/Projects/stimuli/pictures/n04367480_14779.JPEG	184.32336711883545	
118	152.16982913017273	picture	0		174.0	116.0	/home/egter/Projects/stimuli/pictures/S_yt-Tn563IPZfg4_55.png	184.33747506141663	1.4581289291381836
118	153.61413717269897	response	0	k		116.0	/home/egter/Projects/stimuli/pictures/S_yt-Tn563IPZfg4_55.png	185.78178310394287	
119	153.6279580593109	picture	0		99.0	117.0	/home/egter/Projects/stimuli/pictures/S_b8-3.png	185.7956039905548	0.8336179256439209
119	154.44739508628845	response	0	j		117.0	/home/egter/Projects/stimuli/pictures/S_b8-3.png	186.61504101753235	
120	154.46157598495483	picture	0		124.0	118.0	/home/egter/Projects/stimuli/pictures/S_CmWAkLISGyE_265.png	186.62922191619873	1.0413131713867188
120	155.48908710479736	response	0	j		118.0	/home/egter/Projects/stimuli/pictures/S_CmWAkLISGyE_265.png	187.65673303604126	
121	155.50288915634155	picture	0		118.0	119.0	/home/egter/Projects/stimuli/pictures/S_yt--RhNquKdM0M_1183.png	187.67053508758545	0.9859988689422607
121	156.47396421432495	response	0	k		119.0	/home/egter/Projects/stimuli/pictures/S_yt--RhNquKdM0M_1183.png	188.64161014556885	
122	156.4888880252838	picture	0		145.0	120.0	/home/egter/Projects/stimuli/pictures/n01877812_11873.JPEG	188.6565339565277	1.2083241939544678
122	157.6822280883789	response	0	k		120.0	/home/egter/Projects/stimuli/pictures/n01877812_11873.JPEG	189.8498740196228	
123	157.69721221923828	picture	0		178.0	121.0	/home/egter/Projects/stimuli/pictures/n03796401_3475.JPEG	189.86485815048218	1.4861629009246826
123	159.172297000885	response	0	k		121.0	/home/egter/Projects/stimuli/pictures/n03796401_3475.JPEG	191.3399429321289	
124	159.18337512016296	picture	0		121.0	122.0	/home/egter/Projects/stimuli/pictures/n04487081_5046.JPEG	191.35102105140686	1.0068800449371338
124	160.1806139945984	response	0	k		122.0	/home/egter/Projects/stimuli/pictures/n04487081_5046.JPEG	192.34825992584229	
125	160.1902551651001	picture	0		188.0	123.0	/home/egter/Projects/stimuli/pictures/ILSVRC2012_test_00062032.JPEG	192.357901096344	1.5695128440856934
125	161.74723410606384	response	0	k		123.0	/home/egter/Projects/stimuli/pictures/ILSVRC2012_test_00062032.JPEG	193.91488003730774	
126	161.7597680091858	picture	0		130.0	124.0	/home/egter/Projects/stimuli/pictures/n03126707_2346.JPEG	193.9274139404297	1.083240032196045
126	162.8306121826172	response	0	k		124.0	/home/egter/Projects/stimuli/pictures/n03126707_2346.JPEG	194.99825811386108	
127	162.84300804138184	picture	0		211.0	125.0	/home/egter/Projects/stimuli/pictures/n04141327_4278.JPEG	195.01065397262573	1.7569899559020996
127	164.58888816833496	response	0	k		125.0	/home/egter/Projects/stimuli/pictures/n04141327_4278.JPEG	196.75653409957886	
128	164.59999799728394	picture	0		172.0	126.0	/home/egter/Projects/stimuli/pictures/n03777568_12200.JPEG	196.76764392852783	1.4304912090301514
128	166.02223110198975	response	0	j		126.0	/home/egter/Projects/stimuli/pictures/n03777568_12200.JPEG	198.18987703323364	
129	166.0304892063141	picture	0		9.0	127.0	/home/egter/Projects/stimuli/pictures/n01930112_1179.JPEG	198.19813513755798	0.0764470100402832
129	166.09723210334778	response	0	k		127.0	/home/egter/Projects/stimuli/pictures/n01930112_1179.JPEG	198.26487803459167	
130	166.10693621635437	picture	0		137.0	128.0	/home/egter/Projects/stimuli/pictures/S_yt-iuqdW5OLSzc_6.png	198.27458214759827	1.1485579013824463
130	167.23894906044006	response	0	k		128.0	/home/egter/Projects/stimuli/pictures/S_yt-iuqdW5OLSzc_6.png	199.40659499168396	
131	167.25549411773682	picture	0		93.0	129.0	/home/egter/Projects/stimuli/pictures/R_S_pexels-marcus-aurelius-6785014.png	199.4231400489807	0.7749550342559814
131	168.02223110198975	response	0	j		129.0	/home/egter/Projects/stimuli/pictures/R_S_pexels-marcus-aurelius-6785014.png	200.18987703323364	
132	168.0304491519928	picture	0		105.0	130.0	/home/egter/Projects/stimuli/pictures/S_video-3.png	200.1980950832367	0.8750288486480713
132	168.89728617668152	response	0	j		130.0	/home/egter/Projects/stimuli/pictures/S_video-3.png	201.06493210792542	
133	168.90547800064087	picture	0		189.0	131.0	/home/egter/Projects/stimuli/pictures/n02106382_2644.JPEG	201.07312393188477	1.5764000415802002
133	170.46539306640625	response	0	k		131.0	/home/egter/Projects/stimuli/pictures/n02106382_2644.JPEG	202.63303899765015	
134	170.48187804222107	picture	0		192.0	132.0	/home/egter/Projects/stimuli/pictures/S_yt-c5_SFS4aaJI_1102.png	202.64952397346497	1.6041591167449951
134	172.06537199020386	response	0	k		132.0	/home/egter/Projects/stimuli/pictures/S_yt-c5_SFS4aaJI_1102.png	204.23301792144775	
135	172.08603715896606	picture	0		181.0	133.0	/home/egter/Projects/stimuli/pictures/n02687172_31394.JPEG	204.25368309020996	1.5138778686523438
135	173.58888006210327	response	0	k		133.0	/home/egter/Projects/stimuli/pictures/n02687172_31394.JPEG	205.75652599334717	
136	173.5999150276184	picture	0		93.0	134.0	/home/egter/Projects/stimuli/pictures/R_S_ioSkDvwpEaU_35.png	205.7675609588623	0.7777819633483887
136	174.3638939857483	response	0	k		134.0	/home/egter/Projects/stimuli/pictures/R_S_ioSkDvwpEaU_35.png	206.5315399169922	
137	174.3776969909668	picture	0		121.0	135.0	/home/egter/Projects/stimuli/pictures/S_yt-fT8CS1nszUE_355.png	206.5453429222107	1.0138211250305176
137	175.38049411773682	response	0	k		135.0	/home/egter/Projects/stimuli/pictures/S_yt-fT8CS1nszUE_355.png	207.5481400489807	
138	175.39151811599731	picture	0		86.0	136.0	/home/egter/Projects/stimuli/pictures/R_S_yt-Tn563IPZfg4_55.png	207.5591640472412	0.7152609825134277
138	176.09039115905762	response	0	k		136.0	/home/egter/Projects/stimuli/pictures/R_S_yt-Tn563IPZfg4_55.png	208.2580370903015	
139	176.10677909851074	picture	0		71.0	137.0	/home/egter/Projects/stimuli/pictures/R_S_ga8dBJH_qK8_765.png	208.27442502975464	0.590317964553833
139	176.68204402923584	response	0	k		137.0	/home/egter/Projects/stimuli/pictures/R_S_ga8dBJH_qK8_765.png	208.84968996047974	
140	176.69709706306458	picture	0		116.0	138.0	/home/egter/Projects/stimuli/pictures/ILSVRC2012_test_00050705.JPEG	208.86474299430847	0.9722700119018555
140	177.65557408332825	response	0	k		138.0	/home/egter/Projects/stimuli/pictures/ILSVRC2012_test_00050705.JPEG	209.82322001457214	
141	177.66936707496643	picture	0		85.0	139.0	/home/egter/Projects/stimuli/pictures/S_wc-dwTccI0TNwps_15.png	209.83701300621033	0.7152509689331055
141	178.37220311164856	response	0	j		139.0	/home/egter/Projects/stimuli/pictures/S_wc-dwTccI0TNwps_15.png	210.53984904289246	
142	178.38461804389954	picture	0		90.0	140.0	/home/egter/Projects/stimuli/pictures/n02106030_1402.JPEG	210.55226397514343	0.7499229907989502
142	179.1221752166748	response	0	j		140.0	/home/egter/Projects/stimuli/pictures/n02106030_1402.JPEG	211.2898211479187	
143	179.1345410346985	picture	0		132.0	141.0	/home/egter/Projects/stimuli/pictures/R_S_yt-074ygGXNoQ8_64.png	211.30218696594238	1.0972599983215332
143	180.22220301628113	response	0	j		141.0	/home/egter/Projects/stimuli/pictures/R_S_yt-074ygGXNoQ8_64.png	212.38984894752502	
144	180.23180103302002	picture	0		148.0	142.0	/home/egter/Projects/stimuli/pictures/R_S_yt-8aJDzfAaArQ_75.png	212.39944696426392	1.2360610961914062
144	181.45555806159973	response	0	k		142.0	/home/egter/Projects/stimuli/pictures/R_S_yt-8aJDzfAaArQ_75.png	213.62320399284363	
145	181.46786212921143	picture	0		152.0	143.0	/home/egter/Projects/stimuli/pictures/S_ILSVRC2015_train_00001009.png	213.63550806045532	1.263869047164917
145	182.7221941947937	response	0	k		143.0	/home/egter/Projects/stimuli/pictures/S_ILSVRC2015_train_00001009.png	214.8898401260376	
146	182.73173117637634	picture	0		98.0	144.0	/home/egter/Projects/stimuli/pictures/R_S_yt-wPXrAuiiRZg_1062.png	214.89937710762024	0.81951904296875
146	183.53886318206787	response	0	j		144.0	/home/egter/Projects/stimuli/pictures/R_S_yt-wPXrAuiiRZg_1062.png	215.70650911331177	
147	183.5512502193451	picture	0		82.0	145.0	/home/egter/Projects/stimuli/pictures/R_S_pexels-cottonbro-9499408.png	215.718896150589	0.6804609298706055
147	184.22232913970947	response	0	j		145.0	/home/egter/Projects/stimuli/pictures/R_S_pexels-cottonbro-9499408.png	216.38997507095337	
148	184.2317111492157	picture	0		112.0	146.0	/home/egter/Projects/stimuli/pictures/n03160309_6679.JPEG	216.3993570804596	0.9376058578491211
148	185.15556716918945	response	0	j		146.0	/home/egter/Projects/stimuli/pictures/n03160309_6679.JPEG	217.32321310043335	
149	185.16931700706482	picture	0		126.0	147.0	/home/egter/Projects/stimuli/pictures/S_yt-2l6VKd94eAI_151.png	217.33696293830872	1.0554640293121338
149	186.21388006210327	response	0	j		147.0	/home/egter/Projects/stimuli/pictures/S_yt-2l6VKd94eAI_151.png	218.38152599334717	
150	186.22478103637695	picture	0		104.0	148.0	/home/egter/Projects/stimuli/pictures/n04258138_914.JPEG	218.39242696762085	0.8681380748748779
150	187.07370519638062	response	0	k		148.0	/home/egter/Projects/stimuli/pictures/n04258138_914.JPEG	219.2413511276245	
151	187.09291911125183	picture	0		211.0	149.0	/home/egter/Projects/stimuli/pictures/n03393912_2503.JPEG	219.26056504249573	1.7568359375
151	188.83888220787048	response	0	k		149.0	/home/egter/Projects/stimuli/pictures/n03393912_2503.JPEG	221.00652813911438	
152	188.84975504875183	picture	0		153.0	150.0	/home/egter/Projects/stimuli/pictures/n03777568_10386.JPEG	221.01740097999573	1.2778310775756836
152	190.11386513710022	response	0	k		150.0	/home/egter/Projects/stimuli/pictures/n03777568_10386.JPEG	222.28151106834412	
153	190.12758612632751	picture	0		101.0	151.0	/home/egter/Projects/stimuli/pictures/n02865351_5992.JPEG	222.2952320575714	0.8471469879150391
153	190.96387100219727	response	0	k		151.0	/home/egter/Projects/stimuli/pictures/n02865351_5992.JPEG	223.13151693344116	
154	190.97473311424255	picture	0		129.0	152.0	/home/egter/Projects/stimuli/pictures/n04086273_27801.JPEG	223.14237904548645	1.0763928890228271
154	192.0388581752777	response	0	k		152.0	/home/egter/Projects/stimuli/pictures/n04086273_27801.JPEG	224.2065041065216	
155	192.05112600326538	picture	0		131.0	153.0	/home/egter/Projects/stimuli/pictures/n09399592_24758.JPEG	224.21877193450928	1.090264081954956
155	193.1305811405182	response	0	k		153.0	/home/egter/Projects/stimuli/pictures/n09399592_24758.JPEG	225.29822707176208	
156	193.14139008522034	picture	0		115.0	154.0	/home/egter/Projects/stimuli/pictures/R_S_yt-AjyR9--Mx3A_44.png	225.30903601646423	0.9583249092102051
156	194.0820050239563	response	0	j		154.0	/home/egter/Projects/stimuli/pictures/R_S_yt-AjyR9--Mx3A_44.png	226.2496509552002	
157	194.09971499443054	picture	0		273.0	155.0	/home/egter/Projects/stimuli/pictures/S_yt-cM5PvgE7aJs_243.png	226.26736092567444	2.2847800254821777
157	196.3638460636139	response	0	k		155.0	/home/egter/Projects/stimuli/pictures/S_yt-cM5PvgE7aJs_243.png	228.5314919948578	
158	196.38449501991272	picture	0		115.0	156.0	/home/egter/Projects/stimuli/pictures/S_yt-K0CzoUy_uIA_22.png	228.55214095115662	0.9583361148834229
158	197.3305060863495	response	0	j		156.0	/home/egter/Projects/stimuli/pictures/S_yt-K0CzoUy_uIA_22.png	229.49815201759338	
159	197.34283113479614	picture	0		387.0	157.0	/home/egter/Projects/stimuli/pictures/ILSVRC2012_val_00035696.JPEG	229.51047706604004	3.222090005874634
159	200.55549812316895	response	0	k		157.0	/home/egter/Projects/stimuli/pictures/ILSVRC2012_val_00035696.JPEG	232.72314405441284	
160	200.56492114067078	picture	0		245.0	158.0	/home/egter/Projects/stimuli/pictures/R_S_comp_H004_C007_PS_v02_SDR_PS_20180925_SDR_2K_AVC.png	232.73256707191467	2.0489649772644043
160	202.5971691608429	response	0	k		158.0	/home/egter/Projects/stimuli/pictures/R_S_comp_H004_C007_PS_v02_SDR_PS_20180925_SDR_2K_AVC.png	234.7648150920868	
161	202.61388611793518	picture	0		116.0	159.0	/home/egter/Projects/stimuli/pictures/n01756291_7571.JPEG	234.78153204917908	0.9719710350036621
161	203.57212901115417	response	0	k		159.0	/home/egter/Projects/stimuli/pictures/n01756291_7571.JPEG	235.73977494239807	
162	203.58585715293884	picture	0		151.0	160.0	/home/egter/Projects/stimuli/pictures/R_S_yt-k-MRlbCOzZU_163.png	235.75350308418274	1.2637419700622559
162	204.83879709243774	response	0	k		160.0	/home/egter/Projects/stimuli/pictures/R_S_yt-k-MRlbCOzZU_163.png	237.00644302368164	
163	204.8495991230011	picture	0		124.0	161.0	/home/egter/Projects/stimuli/pictures/n04141327_3623.JPEG	237.017245054245	1.034717082977295
163	205.87212204933167	response	0	k		161.0	/home/egter/Projects/stimuli/pictures/n04141327_3623.JPEG	238.03976798057556	
164	205.8843162059784	picture	0		127.0	162.0	/home/egter/Projects/stimuli/pictures/n02966193_88531.JPEG	238.0519621372223	1.0555448532104492
164	206.93043518066406	response	0	k		162.0	/home/egter/Projects/stimuli/pictures/n02966193_88531.JPEG	239.09808111190796	
165	206.93986105918884	picture	0		259.0	163.0	/home/egter/Projects/stimuli/pictures/R_S_yt-lv6mhnH7_g4_134.png	239.10750699043274	2.1596901416778564
165	209.08198499679565	response	0	k		163.0	/home/egter/Projects/stimuli/pictures/R_S_yt-lv6mhnH7_g4_134.png	241.24963092803955	
166	209.0995512008667	picture	0		219.0	164.0	/home/egter/Projects/stimuli/pictures/n01990800_4833.JPEG	241.2671971321106	1.8264999389648438
166	210.90695905685425	response	0	k		164.0	/home/egter/Projects/stimuli/pictures/n01990800_4833.JPEG	243.07460498809814	
167	210.92605113983154	picture	0		104.0	165.0	/home/egter/Projects/stimuli/pictures/S_yt-n12iRXTksXA_65.png	243.09369707107544	0.8680050373077393
167	211.78043699264526	response	0	j		165.0	/home/egter/Projects/stimuli/pictures/S_yt-n12iRXTksXA_65.png	243.94808292388916	
168	211.79405617713928	picture	0		224.0	166.0	/home/egter/Projects/stimuli/pictures/n01675722_1047.JPEG	243.96170210838318	1.8749380111694336
168	213.6554410457611	response	0	k		166.0	/home/egter/Projects/stimuli/pictures/n01675722_1047.JPEG	245.823086977005	
169	213.66899418830872	picture	0		107.0	167.0	/home/egter/Projects/stimuli/pictures/n01737021_18234.JPEG	245.8366401195526	0.8958148956298828
169	214.55542707443237	response	0	k		167.0	/home/egter/Projects/stimuli/pictures/n01737021_18234.JPEG	246.72307300567627	
170	214.5648090839386	picture	0		191.0	168.0	/home/egter/Projects/stimuli/pictures/n02417914_11649.JPEG	246.7324550151825	1.5988249778747559
170	216.14705109596252	response	0	k		168.0	/home/egter/Projects/stimuli/pictures/n02417914_11649.JPEG	248.31469702720642	
171	216.16363406181335	picture	0		220.0	169.0	/home/egter/Projects/stimuli/pictures/S_flickr-132148318@N02-26685719802_3.png	248.33127999305725	1.8386890888214111
171	217.98874402046204	response	0	k		169.0	/home/egter/Projects/stimuli/pictures/S_flickr-132148318@N02-26685719802_3.png	250.15638995170593	
172	218.00232315063477	picture	0		131.0	170.0	/home/egter/Projects/stimuli/pictures/n01728572_1170.JPEG	250.16996908187866	1.097141981124878
172	219.0818521976471	response	0	k		170.0	/home/egter/Projects/stimuli/pictures/n01728572_1170.JPEG	251.249498128891	
173	219.09946513175964	picture	0		95.0	171.0	/home/egter/Projects/stimuli/pictures/n03590841_10648.JPEG	251.26711106300354	0.7916779518127441
173	219.88049221038818	response	0	k		171.0	/home/egter/Projects/stimuli/pictures/n03590841_10648.JPEG	252.04813814163208	
174	219.8911430835724	picture	0		116.0	172.0	/home/egter/Projects/stimuli/pictures/S_yt-nEGmBw5Bn58_18.png	252.05878901481628	0.9652690887451172
174	220.84706020355225	response	0	k		172.0	/home/egter/Projects/stimuli/pictures/S_yt-nEGmBw5Bn58_18.png	253.01470613479614	
175	220.8564121723175	picture	0		147.0	173.0	/home/egter/Projects/stimuli/pictures/S_yt-I2n2eo2zoZs_133.png	253.0240581035614	1.2294039726257324
175	222.07207417488098	response	0	j		173.0	/home/egter/Projects/stimuli/pictures/S_yt-I2n2eo2zoZs_133.png	254.23972010612488	
176	222.08581614494324	picture	0		106.0	174.0	/home/egter/Projects/stimuli/pictures/S_yt-F3B1i_Yt8_o_20.png	254.25346207618713	0.8886508941650391
176	222.96368718147278	response	0	k		174.0	/home/egter/Projects/stimuli/pictures/S_yt-F3B1i_Yt8_o_20.png	255.13133311271667	
177	222.97446703910828	picture	0		119.0	175.0	/home/egter/Projects/stimuli/pictures/R_S_ILSVRC2015_train_00444000.png	255.14211297035217	0.9974780082702637
177	223.95539116859436	response	0	j		175.0	/home/egter/Projects/stimuli/pictures/R_S_ILSVRC2015_train_00444000.png	256.12303709983826	
178	223.97194504737854	picture	0		105.0	176.0	/home/egter/Projects/stimuli/pictures/n01753488_1870.JPEG	256.13959097862244	0.877453088760376
178	224.8387041091919	response	0	k		176.0	/home/egter/Projects/stimuli/pictures/n01753488_1870.JPEG	257.0063500404358	
179	224.84939813613892	picture	0		88.0	177.0	/home/egter/Projects/stimuli/pictures/S_yt-GjFQxAklviE_25.png	257.0170440673828	0.7361540794372559
179	225.57201313972473	response	0	j		177.0	/home/egter/Projects/stimuli/pictures/S_yt-GjFQxAklviE_25.png	257.7396590709686	
180	225.58555221557617	picture	0		111.0	178.0	/home/egter/Projects/stimuli/pictures/R_S_yt-OLDm2slgfA4_3.png	257.75319814682007	0.9304728507995605
180	226.4985420703888	response	0	j		178.0	/home/egter/Projects/stimuli/pictures/R_S_yt-OLDm2slgfA4_3.png	258.6661880016327	
181	226.51602506637573	picture	0		132.0	179.0	/home/egter/Projects/stimuli/pictures/S_yt-ayx4rU9bJrU_179.png	258.68367099761963	1.097532033920288
181	227.6053490638733	response	0	j		179.0	/home/egter/Projects/stimuli/pictures/S_yt-ayx4rU9bJrU_179.png	259.7729949951172	
182	227.61355710029602	stim	0		507.0			259.7812030315399	4.228852987289429
182	231.83028721809387	response	0	space				263.99793314933777	
