trial_nr	onset	event_type	phase	response	nr_frames	picture_index	picture_file	onset_abs	duration
0	0.0190279483795166	stim	0		14145.0			32.07308506965637	117.89400100708008
0	117.87995886802673	response	0	space				149.9340159893036	
2	117.9130289554596	picture	0		147.0	0.0	/home/egter/Projects/stimuli/pictures/S_yt-D_f3_HIXG2g_87.png	149.96708607673645	1.2291948795318604
2	119.12875199317932	response	0	j		0.0	/home/egter/Projects/stimuli/pictures/S_yt-D_f3_HIXG2g_87.png	151.18280911445618	
3	119.14222383499146	picture	0		102.0	1.0	/home/egter/Projects/stimuli/pictures/n02514041_13519.JPEG	151.1962809562683	0.8541271686553955
3	119.98711085319519	response	0	k		1.0	/home/egter/Projects/stimuli/pictures/n02514041_13519.JPEG	152.04116797447205	
4	119.99635100364685	picture	0		86.0	2.0	/home/egter/Projects/stimuli/pictures/n03933933_10972.JPEG	152.0504081249237	0.7239718437194824
4	120.70486283302307	response	0	k		2.0	/home/egter/Projects/stimuli/pictures/n03933933_10972.JPEG	152.75891995429993	
5	120.72032284736633	picture	0		83.0	3.0	/home/egter/Projects/stimuli/pictures/S_pexels-tima-miroshnichenko-5717005.png	152.7743799686432	0.6926729679107666
5	121.40380692481995	response	0	j		3.0	/home/egter/Projects/stimuli/pictures/S_pexels-tima-miroshnichenko-5717005.png	153.4578640460968	
6	121.4129958152771	picture	0		85.0	4.0	/home/egter/Projects/stimuli/pictures/n07684084_9211.JPEG	153.46705293655396	0.7083611488342285
6	122.11206889152527	response	0	k		4.0	/home/egter/Projects/stimuli/pictures/n07684084_9211.JPEG	154.16612601280212	
7	122.12135696411133	picture	0		88.0	5.0	/home/egter/Projects/stimuli/pictures/S_yt-fymgyhmYnMI_557.png	154.17541408538818	0.7360789775848389
7	122.84538197517395	response	0	j		5.0	/home/egter/Projects/stimuli/pictures/S_yt-fymgyhmYnMI_557.png	154.8994390964508	
8	122.85743594169617	picture	0		92.0	6.0	/home/egter/Projects/stimuli/pictures/S_yt-roThCERxVCs_133.png	154.91149306297302	0.7639429569244385
8	123.61211490631104	response	0	j		6.0	/home/egter/Projects/stimuli/pictures/S_yt-roThCERxVCs_133.png	155.6661720275879	
9	123.6213788986206	picture	0		136.0	7.0	/home/egter/Projects/stimuli/pictures/n04552348_5448.JPEG	155.67543601989746	1.1322340965270996
9	124.7454309463501	response	0	k		7.0	/home/egter/Projects/stimuli/pictures/n04552348_5448.JPEG	156.79948806762695	
10	124.7536129951477	picture	0		124.0	8.0	/home/egter/Projects/stimuli/pictures/ILSVRC2012_test_00092071.JPEG	156.80767011642456	1.034364938735962
10	125.77871298789978	response	0	k		8.0	/home/egter/Projects/stimuli/pictures/ILSVRC2012_test_00092071.JPEG	157.83277010917664	
11	125.78797793388367	picture	0		127.0	9.0	/home/egter/Projects/stimuli/pictures/R_S_yt-bwSRV1Vr21s_435.png	157.84203505516052	1.062479019165039
11	126.83714294433594	response	0	j		9.0	/home/egter/Projects/stimuli/pictures/R_S_yt-bwSRV1Vr21s_435.png	158.8912000656128	
12	126.8504569530487	picture	0		85.0	10.0	/home/egter/Projects/stimuli/pictures/R_S_ILSVRC2015_train_00364000.png	158.90451407432556	0.7152409553527832
12	127.55376195907593	response	0	j		10.0	/home/egter/Projects/stimuli/pictures/R_S_ILSVRC2015_train_00364000.png	159.60781908035278	
13	127.56569790840149	picture	0		93.0	11.0	/home/egter/Projects/stimuli/pictures/S_yt-0MB_IYX1fgo_44.png	159.61975502967834	0.7712440490722656
13	128.3287649154663	response	0	j		11.0	/home/egter/Projects/stimuli/pictures/S_yt-0MB_IYX1fgo_44.png	160.38282203674316	
14	128.33694195747375	picture	0		80.0	12.0	/home/egter/Projects/stimuli/pictures/R_S_ILSVRC2015_train_00507000.png	160.3909990787506	0.6665799617767334
14	128.99539279937744	response	0	j		12.0	/home/egter/Projects/stimuli/pictures/R_S_ILSVRC2015_train_00507000.png	161.0494499206543	
15	129.0035219192505	picture	0		78.0	13.0	/home/egter/Projects/stimuli/pictures/R_S_yt-YTQXM5ZjRgg_116.png	161.05757904052734	0.6524250507354736
15	129.64534783363342	response	0	j		13.0	/home/egter/Projects/stimuli/pictures/R_S_yt-YTQXM5ZjRgg_116.png	161.69940495491028	
16	129.65594696998596	picture	0		77.0	14.0	/home/egter/Projects/stimuli/pictures/S_yt-dESxu60Cl10_24.png	161.71000409126282	0.647662878036499
16	130.28034782409668	response	0	j		14.0	/home/egter/Projects/stimuli/pictures/S_yt-dESxu60Cl10_24.png	162.33440494537354	
17	130.30360984802246	picture	0		74.0	15.0	/home/egter/Projects/stimuli/pictures/n04149813_4677.JPEG	162.35766696929932	0.6166479587554932
17	130.91206192970276	response	0	k		15.0	/home/egter/Projects/stimuli/pictures/n04149813_4677.JPEG	162.96611905097961	
18	130.92025780677795	picture	0		83.0	16.0	/home/egter/Projects/stimuli/pictures/n01644900_6783.JPEG	162.9743149280548	0.7009720802307129
18	131.60379886627197	response	0	k		16.0	/home/egter/Projects/stimuli/pictures/n01644900_6783.JPEG	163.65785598754883	
19	131.62122988700867	picture	0		76.0	17.0	/home/egter/Projects/stimuli/pictures/S_ILSVRC2015_train_00507000.png	163.67528700828552	3.458319902420044
19	132.245365858078	response	0	j		17.0	/home/egter/Projects/stimuli/pictures/S_ILSVRC2015_train_00507000.png	164.29942297935486	
20	135.0795497894287	picture	0		1.0	18.0	/home/egter/Projects/stimuli/pictures/S_ILSVRC2015_train_00441000.png	167.13360691070557	2.8128561973571777
20	135.0737488269806	response	0	j		18.0	/home/egter/Projects/stimuli/pictures/S_ILSVRC2015_train_00441000.png	167.12780594825745	
21	137.8924059867859	picture	0		1.0	19.0	/home/egter/Projects/stimuli/pictures/S_yt-XbigWWtnGL4_75.png	169.94646310806274	1.4450290203094482
21	137.88520884513855	response	0	j		19.0	/home/egter/Projects/stimuli/pictures/S_yt-XbigWWtnGL4_75.png	169.9392659664154	
22	139.33743500709534	picture	0		1.0	20.0	/home/egter/Projects/stimuli/pictures/n03089624_55361.JPEG	171.3914921283722	0.016554832458496094
22	139.33407497406006	response	0	j		20.0	/home/egter/Projects/stimuli/pictures/n03089624_55361.JPEG	171.3881320953369	
23	139.35398983955383	picture	0		85.0	21.0	/home/egter/Projects/stimuli/pictures/n02077923_10626.JPEG	171.4080469608307	0.7166111469268799
23	140.0541868209839	response	0	k		21.0	/home/egter/Projects/stimuli/pictures/n02077923_10626.JPEG	172.10824394226074	
24	140.0706009864807	picture	0		74.0	22.0	/home/egter/Projects/stimuli/pictures/n03868242_4721.JPEG	172.12465810775757	0.6250228881835938
24	140.67918395996094	response	0	k		22.0	/home/egter/Projects/stimuli/pictures/n03868242_4721.JPEG	172.7332410812378	
25	140.6956238746643	picture	0		86.0	23.0	/home/egter/Projects/stimuli/pictures/R_S_yt-N4tt7ZhANDg_21.png	172.74968099594116	0.7245810031890869
25	141.40367484092712	response	0	j		23.0	/home/egter/Projects/stimuli/pictures/R_S_yt-N4tt7ZhANDg_21.png	173.45773196220398	
26	141.4202048778534	picture	0		74.0	24.0	/home/egter/Projects/stimuli/pictures/S_ILSVRC2015_train_00165009.png	173.47426199913025	0.6176059246063232
26	142.02866196632385	response	0	j		24.0	/home/egter/Projects/stimuli/pictures/S_ILSVRC2015_train_00165009.png	174.0827190876007	
27	142.03781080245972	picture	0		90.0	25.0	/home/egter/Projects/stimuli/pictures/R_S_yt-e9AZJKNv9ow_359.png	174.09186792373657	0.7657079696655273
27	142.77867484092712	response	0	j		25.0	/home/egter/Projects/stimuli/pictures/R_S_yt-e9AZJKNv9ow_359.png	174.83273196220398	
28	142.80351877212524	picture	0		80.0	26.0	/home/egter/Projects/stimuli/pictures/n03933933_16287.JPEG	174.8575758934021	1.099985122680664
28	143.46209979057312	response	0	k		26.0	/home/egter/Projects/stimuli/pictures/n03933933_16287.JPEG	175.51615691184998	
29	143.9035038948059	picture	0		79.0	27.0	/home/egter/Projects/stimuli/pictures/n03670208_7944.JPEG	175.95756101608276	0.6620810031890869
29	144.5536298751831	response	0	k		27.0	/home/egter/Projects/stimuli/pictures/n03670208_7944.JPEG	176.60768699645996	
30	144.565584897995	picture	0		94.0	28.0	/home/egter/Projects/stimuli/pictures/R_S_ILSVRC2015_train_00425000.png	176.61964201927185	0.7846779823303223
30	145.3370099067688	response	0	k		28.0	/home/egter/Projects/stimuli/pictures/R_S_ILSVRC2015_train_00425000.png	177.39106702804565	
31	145.35026288032532	picture	0		123.0	29.0	/home/egter/Projects/stimuli/pictures/n01675722_1047.JPEG	177.40432000160217	1.028249979019165
31	146.37036085128784	response	0	k		29.0	/home/egter/Projects/stimuli/pictures/n01675722_1047.JPEG	178.4244179725647	
32	146.37851285934448	picture	0		88.0	30.0	/home/egter/Projects/stimuli/pictures/S_yt-Oxu6w0Zx9dQ_3.png	178.43256998062134	0.7356641292572021
32	147.10365796089172	response	0	k		30.0	/home/egter/Projects/stimuli/pictures/S_yt-Oxu6w0Zx9dQ_3.png	179.15771508216858	
33	147.11417698860168	picture	0		104.0	31.0	/home/egter/Projects/stimuli/pictures/n03208938_21585.JPEG	179.16823410987854	0.8727118968963623
33	147.97033095359802	response	0	k		31.0	/home/egter/Projects/stimuli/pictures/n03208938_21585.JPEG	180.02438807487488	
34	147.98688888549805	picture	0		85.0	32.0	/home/egter/Projects/stimuli/pictures/n01675722_10934.JPEG	180.0409460067749	0.8703320026397705
34	148.68016982078552	response	0	k		32.0	/home/egter/Projects/stimuli/pictures/n01675722_10934.JPEG	180.73422694206238	
35	148.85722088813782	picture	0		130.0	33.0	/home/egter/Projects/stimuli/pictures/R_S_yt-B8Sy53C6Pxw_8.png	180.91127800941467	1.0833148956298828
35	149.92864990234375	response	0	j		33.0	/home/egter/Projects/stimuli/pictures/R_S_yt-B8Sy53C6Pxw_8.png	181.9827070236206	
36	149.9405357837677	picture	0		91.0	34.0	/home/egter/Projects/stimuli/pictures/n04589890_7773.JPEG	181.99459290504456	0.7569429874420166
36	150.68012285232544	response	0	k		34.0	/home/egter/Projects/stimuli/pictures/n04589890_7773.JPEG	182.7341799736023	
37	150.69747877120972	picture	0		103.0	35.0	/home/egter/Projects/stimuli/pictures/n02058221_203.JPEG	182.75153589248657	0.8610920906066895
37	151.54548478126526	response	0	k		35.0	/home/egter/Projects/stimuli/pictures/n02058221_203.JPEG	183.59954190254211	
38	151.5585708618164	picture	0		170.0	36.0	/home/egter/Projects/stimuli/pictures/S_yt-SGIqAi-zDpM_19.png	183.61262798309326	1.4374611377716064
38	152.97030186653137	response	0	k		36.0	/home/egter/Projects/stimuli/pictures/S_yt-SGIqAi-zDpM_19.png	185.02435898780823	
39	152.996031999588	picture	0		89.0	37.0	/home/egter/Projects/stimuli/pictures/S_yt-cILZ_cB3_so_73.png	185.05008912086487	0.9444317817687988
39	153.72862792015076	response	0	k		37.0	/home/egter/Projects/stimuli/pictures/S_yt-cILZ_cB3_so_73.png	185.7826850414276	
40	153.9404637813568	picture	0		170.0	38.0	/home/egter/Projects/stimuli/pictures/S_yt-tqxZlasEvZA_15.png	185.99452090263367	1.7296030521392822
40	155.34523582458496	response	0	k		38.0	/home/egter/Projects/stimuli/pictures/S_yt-tqxZlasEvZA_15.png	187.39929294586182	
41	155.6700668334961	picture	0		84.0	39.0	/home/egter/Projects/stimuli/pictures/n02279972_1491.JPEG	187.72412395477295	0.700922966003418
41	156.3619349002838	response	0	k		39.0	/home/egter/Projects/stimuli/pictures/n02279972_1491.JPEG	188.41599202156067	
42	156.3709897994995	picture	0		164.0	40.0	/home/egter/Projects/stimuli/pictures/R_S_yt-Ol4xuEA8xQc_776.png	188.42504692077637	1.3680381774902344
42	157.72850680351257	response	0	j		40.0	/home/egter/Projects/stimuli/pictures/R_S_yt-Ol4xuEA8xQc_776.png	189.78256392478943	
43	157.73902797698975	picture	0		75.0	41.0	/home/egter/Projects/stimuli/pictures/R_S_yt-bQRBtP9zkms_111.png	189.7930850982666	0.625032901763916
43	158.35363483428955	response	0	j		41.0	/home/egter/Projects/stimuli/pictures/R_S_yt-bQRBtP9zkms_111.png	190.4076919555664	
44	158.36406087875366	picture	0		129.0	42.0	/home/egter/Projects/stimuli/pictures/S_yt-3tsrlES3thg_81.png	190.41811800003052	1.0763719081878662
44	159.42862486839294	response	0	k		42.0	/home/egter/Projects/stimuli/pictures/S_yt-3tsrlES3thg_81.png	191.4826819896698	
45	159.44043278694153	picture	0		114.0	43.0	/home/egter/Projects/stimuli/pictures/n01798484_14483.JPEG	191.49448990821838	0.9583191871643066
45	160.3868899345398	response	0	k		43.0	/home/egter/Projects/stimuli/pictures/n01798484_14483.JPEG	192.44094705581665	
46	160.39875197410583	picture	0		106.0	44.0	/home/egter/Projects/stimuli/pictures/R_S_yt-IC62JSYpq9w_71.png	192.4528090953827	0.8819568157196045
46	161.27021098136902	response	0	j		44.0	/home/egter/Projects/stimuli/pictures/R_S_yt-IC62JSYpq9w_71.png	193.32426810264587	
47	161.28070878982544	picture	0		79.0	45.0	/home/egter/Projects/stimuli/pictures/S_yt-5AI_SyK5sg8_112.png	193.3347659111023	0.6596992015838623
47	161.92857694625854	response	0	j		45.0	/home/egter/Projects/stimuli/pictures/S_yt-5AI_SyK5sg8_112.png	193.9826340675354	
48	161.9404079914093	picture	0		111.0	46.0	/home/egter/Projects/stimuli/pictures/R_S_yt-q9kT_c9QjbQ_34.png	193.99446511268616	0.9235827922821045
48	162.8535668849945	response	0	j		46.0	/home/egter/Projects/stimuli/pictures/R_S_yt-q9kT_c9QjbQ_34.png	194.90762400627136	
49	162.8639907836914	picture	0		89.0	47.0	/home/egter/Projects/stimuli/pictures/S_yt-BG-G7m5wLZ4_94.png	194.91804790496826	0.7430460453033447
49	163.59525895118713	response	0	j		47.0	/home/egter/Projects/stimuli/pictures/S_yt-BG-G7m5wLZ4_94.png	195.649316072464	
50	163.60703682899475	picture	0		188.0	48.0	/home/egter/Projects/stimuli/pictures/S_ILSVRC2015_train_00351000.png	195.6610939502716	1.5714020729064941
50	165.16271686553955	response	0	k		48.0	/home/egter/Projects/stimuli/pictures/S_ILSVRC2015_train_00351000.png	197.2167739868164	
51	165.17843890190125	picture	0		74.0	49.0	/home/egter/Projects/stimuli/pictures/n02981792_21687.JPEG	197.2324960231781	0.616671085357666
51	165.78685092926025	response	0	k		49.0	/home/egter/Projects/stimuli/pictures/n02981792_21687.JPEG	197.8409080505371	
52	165.7951099872589	picture	0		106.0	50.0	/home/egter/Projects/stimuli/pictures/S_yt-w_e3sxIzepA_27.png	197.84916710853577	0.8882749080657959
52	166.6643087863922	response	0	j		50.0	/home/egter/Projects/stimuli/pictures/S_yt-w_e3sxIzepA_27.png	198.71836590766907	
53	166.6833848953247	picture	0		78.0	51.0	/home/egter/Projects/stimuli/pictures/n04389033_45564.JPEG	198.73744201660156	0.659722089767456
53	167.32931280136108	response	0	k		51.0	/home/egter/Projects/stimuli/pictures/n04389033_45564.JPEG	199.38336992263794	
54	167.34310698509216	picture	0		101.0	52.0	/home/egter/Projects/stimuli/pictures/S_tIpD52JAIV8_4.png	199.39716410636902	0.8472228050231934
54	168.17858695983887	response	0	k		52.0	/home/egter/Projects/stimuli/pictures/S_tIpD52JAIV8_4.png	200.23264408111572	
55	168.19032979011536	picture	0		78.0	53.0	/home/egter/Projects/stimuli/pictures/S_yt-r4st6Mt4EE8_85.png	200.2443869113922	0.6547691822052002
55	168.82948899269104	response	0	j		53.0	/home/egter/Projects/stimuli/pictures/S_yt-r4st6Mt4EE8_85.png	200.8835461139679	
56	168.84509897232056	picture	0		104.0	54.0	/home/egter/Projects/stimuli/pictures/S_yt-q9kT_c9QjbQ_34.png	200.8991560935974	0.8749909400939941
56	169.6968297958374	response	0	j		54.0	/home/egter/Projects/stimuli/pictures/S_yt-q9kT_c9QjbQ_34.png	201.75088691711426	
57	169.72008991241455	picture	0		532.0	55.0	/home/egter/Projects/stimuli/pictures/n03594945_7367.JPEG	201.7741470336914	4.435451984405518
57	174.14515495300293	response	0	k		55.0	/home/egter/Projects/stimuli/pictures/n03594945_7367.JPEG	206.19921207427979	
58	174.15554189682007	picture	0		70.0	56.0	/home/egter/Projects/stimuli/pictures/ILSVRC2012_val_00018141.JPEG	206.20959901809692	0.5833508968353271
58	174.72177982330322	response	0	k		56.0	/home/egter/Projects/stimuli/pictures/ILSVRC2012_val_00018141.JPEG	206.77583694458008	
59	174.7388927936554	picture	0		104.0	57.0	/home/egter/Projects/stimuli/pictures/S_yt-jNfXfyipaMc_155.png	206.79294991493225	0.8680181503295898
59	175.59523177146912	response	0	k		57.0	/home/egter/Projects/stimuli/pictures/S_yt-jNfXfyipaMc_155.png	207.64928889274597	
60	175.60691094398499	picture	0		93.0	58.0	/home/egter/Projects/stimuli/pictures/R_S_yt-JVhfcpV7OaY_71.png	207.66096806526184	0.7798359394073486
60	176.37093687057495	response	0	j		58.0	/home/egter/Projects/stimuli/pictures/R_S_yt-JVhfcpV7OaY_71.png	208.4249939918518	
61	176.38674688339233	picture	0		69.0	59.0	/home/egter/Projects/stimuli/pictures/S_pexels-anthony-shkraba-7569650.png	208.4408040046692	0.5833680629730225
61	176.95426082611084	response	0	j		59.0	/home/egter/Projects/stimuli/pictures/S_pexels-anthony-shkraba-7569650.png	209.0083179473877	
62	176.97011494636536	picture	0		82.0	60.0	/home/egter/Projects/stimuli/pictures/n04606251_6163.JPEG	209.0241720676422	0.6854538917541504
62	177.64519381523132	response	0	k		60.0	/home/egter/Projects/stimuli/pictures/n04606251_6163.JPEG	209.69925093650818	
63	177.6555688381195	picture	0		136.0	61.0	/home/egter/Projects/stimuli/pictures/n02134084_20875.JPEG	209.70962595939636	1.1396310329437256
63	178.77853989601135	response	0	k		61.0	/home/egter/Projects/stimuli/pictures/n02134084_20875.JPEG	210.8325970172882	
64	178.79519987106323	picture	0		71.0	62.0	/home/egter/Projects/stimuli/pictures/R_S_wc-sd8_iKx0t7s7_9.png	210.8492569923401	0.5965681076049805
64	179.3785719871521	response	0	j		62.0	/home/egter/Projects/stimuli/pictures/R_S_wc-sd8_iKx0t7s7_9.png	211.43262910842896	
65	179.3917679786682	picture	0		65.0	63.0	/home/egter/Projects/stimuli/pictures/R_S_yt-8fQ9LaF8U10_382.png	211.44582509994507	0.5484328269958496
65	179.92850494384766	response	0	j		63.0	/home/egter/Projects/stimuli/pictures/R_S_yt-8fQ9LaF8U10_382.png	211.9825620651245	
66	179.94020080566406	picture	0		86.0	64.0	/home/egter/Projects/stimuli/pictures/S_ILSVRC2015_train_00017007.png	211.99425792694092	0.7222189903259277
66	180.65351390838623	response	0	j		64.0	/home/egter/Projects/stimuli/pictures/S_ILSVRC2015_train_00017007.png	212.7075710296631	
67	180.66241979599	picture	0		84.0	65.0	/home/egter/Projects/stimuli/pictures/R_S_yt-wEbfIR14zZ8_7.png	212.71647691726685	0.7014951705932617
67	181.3534779548645	response	0	j		65.0	/home/egter/Projects/stimuli/pictures/R_S_yt-wEbfIR14zZ8_7.png	213.40753507614136	
68	181.36391496658325	picture	0		74.0	66.0	/home/egter/Projects/stimuli/pictures/ILSVRC2012_test_00088160.JPEG	213.4179720878601	0.6179568767547607
68	181.9701108932495	response	0	k		66.0	/home/egter/Projects/stimuli/pictures/ILSVRC2012_test_00088160.JPEG	214.02416801452637	
69	181.981871843338	picture	0		80.0	67.0	/home/egter/Projects/stimuli/pictures/R_S_yt-rIQoRErqnlI_17.png	214.03592896461487	0.6666901111602783
69	182.63683199882507	response	0	j		67.0	/home/egter/Projects/stimuli/pictures/R_S_yt-rIQoRErqnlI_17.png	214.69088912010193	
70	182.6485619544983	picture	0		83.0	68.0	/home/egter/Projects/stimuli/pictures/S_yt-jy96-k8drRE_1.png	214.70261907577515	0.6964879035949707
70	183.32922077178955	response	0	j		68.0	/home/egter/Projects/stimuli/pictures/S_yt-jy96-k8drRE_1.png	215.3832778930664	
71	183.34504985809326	picture	0		84.0	69.0	/home/egter/Projects/stimuli/pictures/S_comp_LA_A006_C004_v01_SDR_FINAL_PS_20180730_SDR_2K_AVC.png	215.39910697937012	0.7083520889282227
71	184.0375199317932	response	0	j		69.0	/home/egter/Projects/stimuli/pictures/S_comp_LA_A006_C004_v01_SDR_FINAL_PS_20180730_SDR_2K_AVC.png	216.09157705307007	
72	184.05340194702148	picture	0		78.0	70.0	/home/egter/Projects/stimuli/pictures/S_yt-4W224-RSCnM_15.png	216.10745906829834	0.6506779193878174
72	184.6884388923645	response	0	j		70.0	/home/egter/Projects/stimuli/pictures/S_yt-4W224-RSCnM_15.png	216.74249601364136	
73	184.7040798664093	picture	0		86.0	71.0	/home/egter/Projects/stimuli/pictures/n01797886_25818.JPEG	216.75813698768616	0.7243380546569824
73	185.41251683235168	response	0	k		71.0	/home/egter/Projects/stimuli/pictures/n01797886_25818.JPEG	217.46657395362854	
74	185.42841792106628	picture	0		90.0	72.0	/home/egter/Projects/stimuli/pictures/ILSVRC2012_test_00041371.JPEG	217.48247504234314	0.7548348903656006
74	186.17016291618347	response	0	k		72.0	/home/egter/Projects/stimuli/pictures/ILSVRC2012_test_00041371.JPEG	218.22422003746033	
75	186.18325281143188	picture	0		70.0	73.0	/home/egter/Projects/stimuli/pictures/n02113799_5388.JPEG	218.23730993270874	0.5902981758117676
75	186.76180291175842	response	0	k		73.0	/home/egter/Projects/stimuli/pictures/n02113799_5388.JPEG	218.81586003303528	
76	186.77355098724365	picture	0		85.0	74.0	/home/egter/Projects/stimuli/pictures/R_S_yt-p0buJEEKeuI_61.png	218.8276081085205	0.7082908153533936
76	187.47014594078064	response	0	j		74.0	/home/egter/Projects/stimuli/pictures/R_S_yt-p0buJEEKeuI_61.png	219.5242030620575	
77	187.48184180259705	picture	0		153.0	75.0	/home/egter/Projects/stimuli/pictures/n02454379_1740.JPEG	219.5358989238739	1.2882070541381836
77	188.74587893486023	response	0	k		75.0	/home/egter/Projects/stimuli/pictures/n02454379_1740.JPEG	220.79993605613708	
78	188.77004885673523	picture	0		86.0	76.0	/home/egter/Projects/stimuli/pictures/n04209133_3393.JPEG	220.82410597801208	5.142282962799072
78	189.47854900360107	response	0	k		76.0	/home/egter/Projects/stimuli/pictures/n04209133_3393.JPEG	221.53260612487793	
79	193.9123318195343	picture	0		1.0	77.0	/home/egter/Projects/stimuli/pictures/n01440764_13368.JPEG	225.96638894081116	0.4999430179595947
79	193.90992188453674	response	0	k		77.0	/home/egter/Projects/stimuli/pictures/n01440764_13368.JPEG	225.9639790058136	
80	194.4122748374939	picture	0		199.0	78.0	/home/egter/Projects/stimuli/pictures/S_yt-qxtmtMnUfD0_124.png	226.46633195877075	2.0346920490264893
80	196.06175184249878	response	0	j		78.0	/home/egter/Projects/stimuli/pictures/S_yt-qxtmtMnUfD0_124.png	228.11580896377563	
81	196.44696688652039	picture	0		83.0	79.0	/home/egter/Projects/stimuli/pictures/R_S_production_ID_5146014.png	228.50102400779724	0.6944749355316162
81	197.12849497795105	response	0	j		79.0	/home/egter/Projects/stimuli/pictures/R_S_production_ID_5146014.png	229.1825520992279	
82	197.141441822052	picture	0		110.0	80.0	/home/egter/Projects/stimuli/pictures/n03481172_7855.JPEG	229.19549894332886	0.9166340827941895
82	198.04509687423706	response	0	k		80.0	/home/egter/Projects/stimuli/pictures/n03481172_7855.JPEG	230.09915399551392	
83	198.0580759048462	picture	0		96.0	81.0	/home/egter/Projects/stimuli/pictures/S_yt-VabNGLL9gVc_52.png	230.11213302612305	0.7987029552459717
83	198.84509992599487	response	0	k		81.0	/home/egter/Projects/stimuli/pictures/S_yt-VabNGLL9gVc_52.png	230.89915704727173	
84	198.85677886009216	picture	0		82.0	82.0	/home/egter/Projects/stimuli/pictures/S_yt-f9iXELY0EJ0_344.png	230.91083598136902	0.6965649127960205
84	199.52843379974365	response	0	j		82.0	/home/egter/Projects/stimuli/pictures/S_yt-f9iXELY0EJ0_344.png	231.5824909210205	
85	199.55334377288818	picture	0		78.0	83.0	/home/egter/Projects/stimuli/pictures/n04465501_6154.JPEG	231.60740089416504	1.1853411197662354
85	200.19512295722961	response	0	k		83.0	/home/egter/Projects/stimuli/pictures/n04465501_6154.JPEG	232.24918007850647	
86	200.73868489265442	picture	0		94.0	84.0	/home/egter/Projects/stimuli/pictures/R_S_yt-2CWrK9nbhTk_211.png	232.79274201393127	0.7895889282226562
86	201.50497484207153	response	0	j		84.0	/home/egter/Projects/stimuli/pictures/R_S_yt-2CWrK9nbhTk_211.png	233.5590319633484	
87	201.52827382087708	picture	0		77.0	85.0	/home/egter/Projects/stimuli/pictures/R_S_ILSVRC2015_train_00219004.png	233.58233094215393	0.6500060558319092
87	202.16237497329712	response	0	j		85.0	/home/egter/Projects/stimuli/pictures/R_S_ILSVRC2015_train_00219004.png	234.21643209457397	
88	202.17827987670898	picture	0		94.0	86.0	/home/egter/Projects/stimuli/pictures/S_pexels-kampus-production-6022792_1.png	234.23233699798584	0.7916650772094727
88	202.95405197143555	response	0	k		86.0	/home/egter/Projects/stimuli/pictures/S_pexels-kampus-production-6022792_1.png	235.0081090927124	
89	202.96994495391846	picture	0		116.0	87.0	/home/egter/Projects/stimuli/pictures/n01807496_19443.JPEG	235.0240020751953	0.9700918197631836
89	203.92167782783508	response	0	k		87.0	/home/egter/Projects/stimuli/pictures/n01807496_19443.JPEG	235.97573494911194	
90	203.94003677368164	picture	0		175.0	88.0	/home/egter/Projects/stimuli/pictures/n02493509_10681.JPEG	235.9940938949585	2.03468918800354
90	205.3867199420929	response	0	k		88.0	/home/egter/Projects/stimuli/pictures/n02493509_10681.JPEG	237.44077706336975	
91	205.97472596168518	picture	0		183.0	89.0	/home/egter/Projects/stimuli/pictures/n07717410_11636.JPEG	238.02878308296204	1.5288658142089844
91	207.4870479106903	response	0	k		89.0	/home/egter/Projects/stimuli/pictures/n07717410_11636.JPEG	239.54110503196716	
92	207.50359177589417	picture	0		100.0	90.0	/home/egter/Projects/stimuli/pictures/R_S_yt-s73Xqkcq9Js_285.png	239.55764889717102	0.8391361236572266
92	208.32168984413147	response	0	j		90.0	/home/egter/Projects/stimuli/pictures/R_S_yt-s73Xqkcq9Js_285.png	240.37574696540833	
93	208.3427278995514	picture	0		80.0	91.0	/home/egter/Projects/stimuli/pictures/n03496892_29208.JPEG	240.39678502082825	0.6736140251159668
93	209.00338578224182	response	0	k		91.0	/home/egter/Projects/stimuli/pictures/n03496892_29208.JPEG	241.05744290351868	
94	209.01634192466736	picture	0		96.0	92.0	/home/egter/Projects/stimuli/pictures/S_ILSVRC2015_train_00601000.png	241.0703990459442	0.8119630813598633
94	209.8034029006958	response	0	j		92.0	/home/egter/Projects/stimuli/pictures/S_ILSVRC2015_train_00601000.png	241.85746002197266	
95	209.82830500602722	picture	0		93.0	93.0	/home/egter/Projects/stimuli/pictures/S_yt-YWfInCviN1s_126.png	241.88236212730408	1.316701889038086
95	210.5951189994812	response	0	k		93.0	/home/egter/Projects/stimuli/pictures/S_yt-YWfInCviN1s_126.png	242.64917612075806	
96	211.1450068950653	picture	0		83.0	94.0	/home/egter/Projects/stimuli/pictures/n01945685_1089.JPEG	243.19906401634216	0.6999020576477051
96	211.82893896102905	response	0	k		94.0	/home/egter/Projects/stimuli/pictures/n01945685_1089.JPEG	243.8829960823059	
97	211.844908952713	picture	0		88.0	95.0	/home/egter/Projects/stimuli/pictures/S_pexels-roman-odintsov-8232443_1.png	243.89896607398987	0.7338948249816895
97	212.5700237751007	response	0	j		95.0	/home/egter/Projects/stimuli/pictures/S_pexels-roman-odintsov-8232443_1.png	244.62408089637756	
98	212.5788037776947	picture	0		72.0	96.0	/home/egter/Projects/stimuli/pictures/R_S_yt-XBAU3cq0rZs_150.png	244.63286089897156	0.6042790412902832
98	213.16998100280762	response	0	j		96.0	/home/egter/Projects/stimuli/pictures/R_S_yt-XBAU3cq0rZs_150.png	245.22403812408447	
99	213.18308281898499	picture	0		105.0	97.0	/home/egter/Projects/stimuli/pictures/R_S_yt-Tt_LkR4iAt4_11.png	245.23713994026184	0.8750391006469727
99	214.04504084587097	response	0	j		97.0	/home/egter/Projects/stimuli/pictures/R_S_yt-Tt_LkR4iAt4_11.png	246.09909796714783	
100	214.05812191963196	picture	0		82.0	98.0	/home/egter/Projects/stimuli/pictures/n01981276_1165.JPEG	246.1121790409088	0.6874089241027832
100	214.73669695854187	response	0	k		98.0	/home/egter/Projects/stimuli/pictures/n01981276_1165.JPEG	246.79075407981873	
101	214.74553084373474	picture	0		129.0	99.0	/home/egter/Projects/stimuli/pictures/n09399592_27608.JPEG	246.7995879650116	1.0763120651245117
101	215.81168389320374	response	0	k		99.0	/home/egter/Projects/stimuli/pictures/n09399592_27608.JPEG	247.8657410144806	
102	215.82184290885925	picture	0		79.0	100.0	/home/egter/Projects/stimuli/pictures/S_8amznWxLS04_212.png	247.8759000301361	0.6596860885620117
102	216.47005200386047	response	0	j		100.0	/home/egter/Projects/stimuli/pictures/S_8amznWxLS04_212.png	248.52410912513733	
103	216.48152899742126	picture	0		71.0	101.0	/home/egter/Projects/stimuli/pictures/n03788195_12678.JPEG	248.53558611869812	0.5903158187866211
103	217.06164383888245	response	0	k		101.0	/home/egter/Projects/stimuli/pictures/n03788195_12678.JPEG	249.1157009601593	
104	217.07184481620789	picture	0		83.0	102.0	/home/egter/Projects/stimuli/pictures/S_I003_C004_SDR_2K_AVC.png	249.12590193748474	0.6944031715393066
104	217.75338983535767	response	0	k		102.0	/home/egter/Projects/stimuli/pictures/S_I003_C004_SDR_2K_AVC.png	249.80744695663452	
105	217.7662479877472	picture	0		77.0	103.0	/home/egter/Projects/stimuli/pictures/R_S_comp_C004_C003_PS_v01_SDR_PS_20180925_SDR_2K_AVC.png	249.82030510902405	0.6389179229736328
105	218.39505100250244	response	0	j		103.0	/home/egter/Projects/stimuli/pictures/R_S_comp_C004_C003_PS_v01_SDR_PS_20180925_SDR_2K_AVC.png	250.4491081237793	
106	218.40516591072083	picture	0		93.0	104.0	/home/egter/Projects/stimuli/pictures/S_yt--RhNquKdM0M_1183.png	250.45922303199768	0.7777769565582275
106	219.16998481750488	response	0	k		104.0	/home/egter/Projects/stimuli/pictures/S_yt--RhNquKdM0M_1183.png	251.22404193878174	
107	219.18294286727905	picture	0		85.0	105.0	/home/egter/Projects/stimuli/pictures/S_yt-AuQ_WxaNy4Y_255.png	251.2369999885559	0.708298921585083
107	219.87837100028992	response	0	j		105.0	/home/egter/Projects/stimuli/pictures/S_yt-AuQ_WxaNy4Y_255.png	251.93242812156677	
108	219.89124178886414	picture	0		89.0	106.0	/home/egter/Projects/stimuli/pictures/S_yt-W00vtWnXgIk_73.png	251.945298910141	0.7430720329284668
108	220.62052083015442	response	0	j		106.0	/home/egter/Projects/stimuli/pictures/S_yt-W00vtWnXgIk_73.png	252.67457795143127	
109	220.6343138217926	picture	0		106.0	107.0	/home/egter/Projects/stimuli/pictures/S_yt-tOOaOzYvtKE_79.png	252.68837094306946	0.8889009952545166
109	221.50487279891968	response	0	j		107.0	/home/egter/Projects/stimuli/pictures/S_yt-tOOaOzYvtKE_79.png	253.55892992019653	
110	221.52321481704712	picture	0		295.0	108.0	/home/egter/Projects/stimuli/pictures/S_yt-5qJf4U6lgv0_77.png	253.57727193832397	2.458250045776367
110	223.97002482414246	response	0	k		108.0	/home/egter/Projects/stimuli/pictures/S_yt-5qJf4U6lgv0_77.png	256.0240819454193	
111	223.9814648628235	picture	0		194.0	109.0	/home/egter/Projects/stimuli/pictures/n01665541_20416.JPEG	256.03552198410034	1.6181740760803223
111	225.586660861969	response	0	k		109.0	/home/egter/Projects/stimuli/pictures/n01665541_20416.JPEG	257.64071798324585	
112	225.5996389389038	picture	0		90.0	110.0	/home/egter/Projects/stimuli/pictures/R_S_ILSVRC2015_train_00599000.png	257.65369606018066	0.7500450611114502
112	226.33666586875916	response	0	j		110.0	/home/egter/Projects/stimuli/pictures/R_S_ILSVRC2015_train_00599000.png	258.390722990036	
113	226.34968400001526	picture	0		88.0	111.0	/home/egter/Projects/stimuli/pictures/n02097047_726.JPEG	258.4037411212921	0.7289469242095947
113	227.07000589370728	response	0	k		111.0	/home/egter/Projects/stimuli/pictures/n02097047_726.JPEG	259.12406301498413	
114	227.07863092422485	picture	0		192.0	112.0	/home/egter/Projects/stimuli/pictures/S_yt-zKnjBBYWe90_369.png	259.1326880455017	1.604205846786499
114	228.66994500160217	response	0	j		112.0	/home/egter/Projects/stimuli/pictures/S_yt-zKnjBBYWe90_369.png	260.724002122879	
115	228.68283677101135	picture	0		85.0	113.0	/home/egter/Projects/stimuli/pictures/S_yt-26obL-Z5obg_131.png	260.7368938922882	0.7083182334899902
115	229.37833094596863	response	0	j		113.0	/home/egter/Projects/stimuli/pictures/S_yt-26obL-Z5obg_131.png	261.4323880672455	
116	229.39115500450134	picture	0		78.0	114.0	/home/egter/Projects/stimuli/pictures/S_yt-JVhfcpV7OaY_71.png	261.4452121257782	0.6458449363708496
116	230.02828788757324	response	0	j		114.0	/home/egter/Projects/stimuli/pictures/S_yt-JVhfcpV7OaY_71.png	262.0823450088501	
117	230.0369999408722	picture	0		88.0	115.0	/home/egter/Projects/stimuli/pictures/S_bing-www_dailymotion_com_video_x64hzm7_8.png	262.09105706214905	0.7360579967498779
117	230.76162099838257	response	0	j		115.0	/home/egter/Projects/stimuli/pictures/S_bing-www_dailymotion_com_video_x64hzm7_8.png	262.8156781196594	
118	230.77305793762207	picture	0		111.0	116.0	/home/egter/Projects/stimuli/pictures/S_yt-wIZprsJwxBM_298.png	262.8271150588989	0.9236218929290771
118	231.6866250038147	response	0	j		116.0	/home/egter/Projects/stimuli/pictures/S_yt-wIZprsJwxBM_298.png	263.74068212509155	
119	231.69667983055115	picture	0		68.0	117.0	/home/egter/Projects/stimuli/pictures/n03857828_60710.JPEG	263.750736951828	0.5694820880889893
119	232.25328493118286	response	0	k		117.0	/home/egter/Projects/stimuli/pictures/n03857828_60710.JPEG	264.3073420524597	
120	232.26616191864014	picture	0		135.0	118.0	/home/egter/Projects/stimuli/pictures/S_yt-CZ2qiY-kS7Y_105.png	264.320219039917	1.1249470710754395
120	233.37833786010742	response	0	j		118.0	/home/egter/Projects/stimuli/pictures/S_yt-CZ2qiY-kS7Y_105.png	265.4323949813843	
121	233.39110898971558	picture	0		72.0	119.0	/home/egter/Projects/stimuli/pictures/n02655020_2268.JPEG	265.44516611099243	0.5972199440002441
121	233.97829699516296	response	0	k		119.0	/home/egter/Projects/stimuli/pictures/n02655020_2268.JPEG	266.0323541164398	
122	233.98832893371582	picture	0		90.0	120.0	/home/egter/Projects/stimuli/pictures/n01748264_10281.JPEG	266.0423860549927	0.7499370574951172
122	234.7215859889984	response	0	k		120.0	/home/egter/Projects/stimuli/pictures/n01748264_10281.JPEG	266.77564311027527	
123	234.73826599121094	picture	0		109.0	121.0	/home/egter/Projects/stimuli/pictures/n03661043_38938.JPEG	266.7923231124878	0.9097797870635986
123	235.6365659236908	response	0	k		121.0	/home/egter/Projects/stimuli/pictures/n03661043_38938.JPEG	267.69062304496765	
124	235.64804577827454	picture	0		91.0	122.0	/home/egter/Projects/stimuli/pictures/n01981276_1306.JPEG	267.7021028995514	0.7568871974945068
124	236.3948938846588	response	0	k		122.0	/home/egter/Projects/stimuli/pictures/n01981276_1306.JPEG	268.44895100593567	
125	236.40493297576904	picture	0		143.0	123.0	/home/egter/Projects/stimuli/pictures/R_S_yt-hekMMCluhnU_18.png	268.4589900970459	1.1945109367370605
125	237.586571931839	response	0	j		123.0	/home/egter/Projects/stimuli/pictures/R_S_yt-hekMMCluhnU_18.png	269.64062905311584	
126	237.5994439125061	picture	0		75.0	124.0	/home/egter/Projects/stimuli/pictures/R_S_yt--v_iMUMMX6g_39.png	269.65350103378296	0.6287789344787598
126	238.21161484718323	response	0	j		124.0	/home/egter/Projects/stimuli/pictures/R_S_yt--v_iMUMMX6g_39.png	270.2656719684601	
127	238.22822284698486	picture	0		85.0	125.0	/home/egter/Projects/stimuli/pictures/n02106382_2808.JPEG	270.2822799682617	0.71663498878479
127	238.92159986495972	response	0	k		125.0	/home/egter/Projects/stimuli/pictures/n02106382_2808.JPEG	270.9756569862366	
128	238.94485783576965	picture	0		89.0	126.0	/home/egter/Projects/stimuli/pictures/n02099267_5273.JPEG	270.9989149570465	0.7447690963745117
128	239.67824697494507	response	0	k		126.0	/home/egter/Projects/stimuli/pictures/n02099267_5273.JPEG	271.7323040962219	
129	239.68962693214417	picture	0		109.0	127.0	/home/egter/Projects/stimuli/pictures/n07720875_15668.JPEG	271.743684053421	0.90972900390625
129	240.58660697937012	response	0	k		127.0	/home/egter/Projects/stimuli/pictures/n07720875_15668.JPEG	272.640664100647	
130	240.59935593605042	picture	0		68.0	128.0	/home/egter/Projects/stimuli/pictures/R_S_pexels-koolshooters-7327412_1.png	272.65341305732727	0.5625150203704834
130	241.1532278060913	response	0	j		128.0	/home/egter/Projects/stimuli/pictures/R_S_pexels-koolshooters-7327412_1.png	273.20728492736816	
131	241.1618709564209	picture	0		114.0	129.0	/home/egter/Projects/stimuli/pictures/n01871265_2136.JPEG	273.21592807769775	0.9514129161834717
131	242.10323190689087	response	0	k		129.0	/home/egter/Projects/stimuli/pictures/n01871265_2136.JPEG	274.1572890281677	
132	242.11328387260437	picture	0		101.0	130.0	/home/egter/Projects/stimuli/pictures/n04467665_9941.JPEG	274.1673409938812	0.840238094329834
132	242.94495582580566	response	0	k		130.0	/home/egter/Projects/stimuli/pictures/n04467665_9941.JPEG	274.9990129470825	
133	242.9535219669342	picture	0		129.0	131.0	/home/egter/Projects/stimuli/pictures/S_yt-gOoDjhfSPj0_162.png	275.00757908821106	1.076395034790039
133	244.0199317932129	response	0	j		131.0	/home/egter/Projects/stimuli/pictures/S_yt-gOoDjhfSPj0_162.png	276.07398891448975	
134	244.02991700172424	picture	0		88.0	132.0	/home/egter/Projects/stimuli/pictures/S_yt-jgt0PVBUK1Y_580.png	276.0839741230011	0.7360799312591553
134	244.75325798988342	response	0	k		132.0	/home/egter/Projects/stimuli/pictures/S_yt-jgt0PVBUK1Y_580.png	276.8073151111603	
135	244.7659969329834	picture	0		169.0	133.0	/home/egter/Projects/stimuli/pictures/R_S_yt-452RKqKIeRU_16.png	276.82005405426025	1.8541488647460938
135	246.16194581985474	response	0	j		133.0	/home/egter/Projects/stimuli/pictures/R_S_yt-452RKqKIeRU_16.png	278.2160029411316	
136	246.6201457977295	picture	0		111.0	134.0	/home/egter/Projects/stimuli/pictures/S_pexels-c-technical-6754008.png	278.67420291900635	7.232908010482788
136	247.52984595298767	response	0	j		134.0	/home/egter/Projects/stimuli/pictures/S_pexels-c-technical-6754008.png	279.5839030742645	
137	253.85305380821228	picture	0		1.0	135.0	/home/egter/Projects/stimuli/pictures/S_yt-cgwHIb9LAFc_336.png	285.90711092948914	0.05006098747253418
137	253.84373879432678	response	0	j		135.0	/home/egter/Projects/stimuli/pictures/S_yt-cgwHIb9LAFc_336.png	285.89779591560364	
138	253.90311479568481	picture	0		159.0	136.0	/home/egter/Projects/stimuli/pictures/n01855672_4399.JPEG	285.95717191696167	1.3332700729370117
138	255.21985697746277	response	0	k		136.0	/home/egter/Projects/stimuli/pictures/n01855672_4399.JPEG	287.2739140987396	
139	255.23638486862183	picture	0		134.0	137.0	/home/egter/Projects/stimuli/pictures/n04428191_983.JPEG	287.2904419898987	1.1416800022125244
139	256.34504294395447	response	0	k		137.0	/home/egter/Projects/stimuli/pictures/n04428191_983.JPEG	288.3991000652313	
140	256.37806487083435	picture	0		99.0	138.0	/home/egter/Projects/stimuli/pictures/S_yt-ikhlUegH24c_552.png	288.4321219921112	0.8333160877227783
140	257.19489192962646	response	0	j		138.0	/home/egter/Projects/stimuli/pictures/S_yt-ikhlUegH24c_552.png	289.2489490509033	
141	257.21138095855713	picture	0		85.0	139.0	/home/egter/Projects/stimuli/pictures/n04515003_6827.JPEG	289.265438079834	1.0683629512786865
141	257.911878824234	response	0	k		139.0	/home/egter/Projects/stimuli/pictures/n04515003_6827.JPEG	289.96593594551086	
142	258.2797439098358	picture	0		103.0	140.0	/home/egter/Projects/stimuli/pictures/n01665541_2969.JPEG	290.33380103111267	0.8649890422821045
142	259.12173891067505	response	0	k		140.0	/home/egter/Projects/stimuli/pictures/n01665541_2969.JPEG	291.1757960319519	
143	259.1447329521179	picture	0		134.0	141.0	/home/egter/Projects/stimuli/pictures/R_S_8amznWxLS04_212.png	291.1987900733948	1.1211068630218506
143	260.2531328201294	response	0	j		141.0	/home/egter/Projects/stimuli/pictures/R_S_8amznWxLS04_212.png	292.30718994140625	
144	260.26583981513977	picture	0		74.0	142.0	/home/egter/Projects/stimuli/pictures/n02980441_42087.JPEG	292.3198969364166	0.6180729866027832
144	260.8701798915863	response	0	k		142.0	/home/egter/Projects/stimuli/pictures/n02980441_42087.JPEG	292.92423701286316	
145	260.88391280174255	picture	0		87.0	143.0	/home/egter/Projects/stimuli/pictures/n02167151_5835.JPEG	292.9379699230194	0.7500519752502441
145	261.6031539440155	response	0	k		143.0	/home/egter/Projects/stimuli/pictures/n02167151_5835.JPEG	293.65721106529236	
146	261.6339647769928	picture	0		171.0	144.0	/home/egter/Projects/stimuli/pictures/R_S_yt-MsSEF0krKE4_149.png	293.68802189826965	1.8273570537567139
146	263.05321288108826	response	0	j		144.0	/home/egter/Projects/stimuli/pictures/R_S_yt-MsSEF0krKE4_149.png	295.1072700023651	
147	263.4613218307495	picture	0		153.0	145.0	/home/egter/Projects/stimuli/pictures/S_yt-7e6Z9QQieAk_183.png	295.51537895202637	1.276703119277954
147	264.72145891189575	response	0	j		145.0	/home/egter/Projects/stimuli/pictures/S_yt-7e6Z9QQieAk_183.png	296.7755160331726	
148	264.73802495002747	picture	0		91.0	146.0	/home/egter/Projects/stimuli/pictures/S_yt-JXmyvkbRYk4_5.png	296.7920820713043	0.7569210529327393
148	265.4865028858185	response	0	k		146.0	/home/egter/Projects/stimuli/pictures/S_yt-JXmyvkbRYk4_5.png	297.54056000709534	
149	265.4949460029602	picture	0		171.0	147.0	/home/egter/Projects/stimuli/pictures/S_ILSVRC2015_train_00743002.png	297.54900312423706	1.4330949783325195
149	266.9117829799652	response	0	j		147.0	/home/egter/Projects/stimuli/pictures/S_ILSVRC2015_train_00743002.png	298.96584010124207	
150	266.9280409812927	picture	0		84.0	148.0	/home/egter/Projects/stimuli/pictures/R_S_yt-eF5J5Kjt6oY_23.png	298.9820981025696	0.7058248519897461
150	267.6200318336487	response	0	j		148.0	/home/egter/Projects/stimuli/pictures/R_S_yt-eF5J5Kjt6oY_23.png	299.67408895492554	
151	267.63386583328247	picture	0		74.0	149.0	/home/egter/Projects/stimuli/pictures/n03032252_77288.JPEG	299.6879229545593	0.6249790191650391
151	268.2450749874115	response	0	k		149.0	/home/egter/Projects/stimuli/pictures/n03032252_77288.JPEG	300.29913210868835	
152	268.2588448524475	picture	0		92.0	150.0	/home/egter/Projects/stimuli/pictures/R_S_yt-r7PeFd-hIp0_378.png	300.31290197372437	0.7708189487457275
152	269.01980781555176	response	0	j		150.0	/home/egter/Projects/stimuli/pictures/R_S_yt-r7PeFd-hIp0_378.png	301.0738649368286	
153	269.02966380119324	picture	0		169.0	151.0	/home/egter/Projects/stimuli/pictures/R_S_yt-fk-z6WCvjjA_3.png	301.0837209224701	1.4097230434417725
153	270.42813086509705	response	0	j		151.0	/home/egter/Projects/stimuli/pictures/R_S_yt-fk-z6WCvjjA_3.png	302.4821879863739	
154	270.439386844635	picture	0		134.0	152.0	/home/egter/Projects/stimuli/pictures/R_S_yt-BrepyEWKrPQ_20.png	302.49344396591187	1.1180460453033447
154	271.53834080696106	response	0	j		152.0	/home/egter/Projects/stimuli/pictures/R_S_yt-BrepyEWKrPQ_20.png	303.5923979282379	
155	271.55743288993835	picture	0		84.0	153.0	/home/egter/Projects/stimuli/pictures/n03733281_29174.JPEG	303.6114900112152	0.7083220481872559
155	272.2530930042267	response	0	k		153.0	/home/egter/Projects/stimuli/pictures/n03733281_29174.JPEG	304.30715012550354	
156	272.2657549381256	picture	0		83.0	154.0	/home/egter/Projects/stimuli/pictures/n04204347_12330.JPEG	304.31981205940247	0.6874468326568604
156	272.93802881240845	response	0	k		154.0	/home/egter/Projects/stimuli/pictures/n04204347_12330.JPEG	304.9920859336853	
157	272.95320177078247	picture	0		92.0	155.0	/home/egter/Projects/stimuli/pictures/S_yt-2l6VKd94eAI_151.png	305.0072588920593	0.7709431648254395
157	273.7114758491516	response	0	j		155.0	/home/egter/Projects/stimuli/pictures/S_yt-2l6VKd94eAI_151.png	305.76553297042847	
158	273.7241449356079	picture	0		79.0	156.0	/home/egter/Projects/stimuli/pictures/R_S_yt-wIZprsJwxBM_298.png	305.77820205688477	0.6596379280090332
158	274.3699939250946	response	0	j		156.0	/home/egter/Projects/stimuli/pictures/R_S_yt-wIZprsJwxBM_298.png	306.42405104637146	
159	274.38378286361694	picture	0		69.0	157.0	/home/egter/Projects/stimuli/pictures/n04435653_10830.JPEG	306.4378399848938	0.583320140838623
159	274.9533109664917	response	0	k		157.0	/home/egter/Projects/stimuli/pictures/n04435653_10830.JPEG	307.00736808776855	
160	274.96710300445557	picture	0		74.0	158.0	/home/egter/Projects/stimuli/pictures/n04238763_25524.JPEG	307.0211601257324	0.6249899864196777
160	275.57829689979553	response	0	k		158.0	/home/egter/Projects/stimuli/pictures/n04238763_25524.JPEG	307.6323540210724	
161	275.59209299087524	picture	0		94.0	159.0	/home/egter/Projects/stimuli/pictures/n03733281_28768.JPEG	307.6461501121521	0.7916607856750488
161	276.3699698448181	response	0	k		159.0	/home/egter/Projects/stimuli/pictures/n03733281_28768.JPEG	308.42402696609497	
162	276.3837537765503	picture	0		77.0	160.0	/home/egter/Projects/stimuli/pictures/R_S_flickr-slruok-8006772217_6.png	308.43781089782715	0.6458621025085449
162	277.01973390579224	response	0	j		160.0	/home/egter/Projects/stimuli/pictures/R_S_flickr-slruok-8006772217_6.png	309.0737910270691	
163	277.02961587905884	picture	0		76.0	161.0	/home/egter/Projects/stimuli/pictures/S_pexels-c-technical-6753390.png	309.0836730003357	0.631843090057373
163	277.6531128883362	response	0	j		161.0	/home/egter/Projects/stimuli/pictures/S_pexels-c-technical-6753390.png	309.70717000961304	
164	277.6614589691162	picture	0		73.0	162.0	/home/egter/Projects/stimuli/pictures/S_yt-N4tt7ZhANDg_21.png	309.71551609039307	0.6111500263214111
164	278.26149582862854	response	0	j		162.0	/home/egter/Projects/stimuli/pictures/S_yt-N4tt7ZhANDg_21.png	310.3155529499054	
165	278.2726089954376	picture	0		315.0	163.0	/home/egter/Projects/stimuli/pictures/S_yt-kINZMjys3O4_112.png	310.3266661167145	2.624980926513672
165	280.88640785217285	response	0	j		163.0	/home/egter/Projects/stimuli/pictures/S_yt-kINZMjys3O4_112.png	312.9404649734497	
166	280.8975899219513	picture	0		106.0	164.0	/home/egter/Projects/stimuli/pictures/n02051845_5052.JPEG	312.95164704322815	0.8819398880004883
166	281.76975178718567	response	0	k		164.0	/home/egter/Projects/stimuli/pictures/n02051845_5052.JPEG	313.8238089084625	
167	281.7795298099518	picture	0		121.0	165.0	/home/egter/Projects/stimuli/pictures/n02489166_9203.JPEG	313.83358693122864	1.006922960281372
167	282.77805280685425	response	0	k		165.0	/home/egter/Projects/stimuli/pictures/n02489166_9203.JPEG	314.8321099281311	
168	282.78645277023315	picture	0		75.0	166.0	/home/egter/Projects/stimuli/pictures/n02108915_1331.JPEG	314.84050989151	0.6250770092010498
168	283.40307092666626	response	0	k		166.0	/home/egter/Projects/stimuli/pictures/n02108915_1331.JPEG	315.4571280479431	
169	283.4115297794342	picture	0		64.0	167.0	/home/egter/Projects/stimuli/pictures/n03854065_16506.JPEG	315.46558690071106	0.5346791744232178
169	283.9296410083771	response	0	k		167.0	/home/egter/Projects/stimuli/pictures/n03854065_16506.JPEG	315.98369812965393	
170	283.9462089538574	picture	0		69.0	168.0	/home/egter/Projects/stimuli/pictures/n03457902_10209.JPEG	316.0002660751343	0.5763669013977051
170	284.5113949775696	response	0	k		168.0	/home/egter/Projects/stimuli/pictures/n03457902_10209.JPEG	316.56545209884644	
171	284.5225758552551	picture	0		85.0	169.0	/home/egter/Projects/stimuli/pictures/R_S_yt-tMP5WhHMtWE_55.png	316.576632976532	0.7083549499511719
171	285.21972489356995	response	0	j		169.0	/home/egter/Projects/stimuli/pictures/R_S_yt-tMP5WhHMtWE_55.png	317.2737820148468	
172	285.2309308052063	picture	0		75.0	170.0	/home/egter/Projects/stimuli/pictures/n02107142_18718.JPEG	317.28498792648315	0.6249580383300781
172	285.8447458744049	response	0	k		170.0	/home/egter/Projects/stimuli/pictures/n02107142_18718.JPEG	317.89880299568176	
173	285.8558888435364	picture	0		86.0	171.0	/home/egter/Projects/stimuli/pictures/S_ILSVRC2015_train_00001012.png	317.90994596481323	0.7153019905090332
173	286.5547318458557	response	0	k		171.0	/home/egter/Projects/stimuli/pictures/S_ILSVRC2015_train_00001012.png	318.60878896713257	
174	286.5711908340454	picture	0		76.0	172.0	/home/egter/Projects/stimuli/pictures/n02808304_2539.JPEG	318.62524795532227	0.6318831443786621
174	287.1946859359741	response	0	k		172.0	/home/egter/Projects/stimuli/pictures/n02808304_2539.JPEG	319.248743057251	
175	287.2030739784241	picture	0		164.0	173.0	/home/egter/Projects/stimuli/pictures/S_yt-cvwUZbYSd4Q_35.png	319.2571310997009	1.3680768013000488
175	288.55453991889954	response	0	j		173.0	/home/egter/Projects/stimuli/pictures/S_yt-cvwUZbYSd4Q_35.png	320.6085970401764	
176	288.5711507797241	picture	0		100.0	174.0	/home/egter/Projects/stimuli/pictures/R_S_production_ID_5020960.png	320.625207901001	0.8333292007446289
176	289.3946998119354	response	0	j		174.0	/home/egter/Projects/stimuli/pictures/R_S_production_ID_5020960.png	321.4487569332123	
177	289.40447998046875	picture	0		184.0	175.0	/home/egter/Projects/stimuli/pictures/R_S_yt-2kPrGwVmRfE_169.png	321.4585371017456	1.5346789360046387
177	290.9280059337616	response	0	j		175.0	/home/egter/Projects/stimuli/pictures/R_S_yt-2kPrGwVmRfE_169.png	322.98206305503845	
178	290.9391589164734	picture	0		100.0	176.0	/home/egter/Projects/stimuli/pictures/S_yt-SkIJvj6KNOo_33.png	322.99321603775024	0.8333520889282227
178	291.7545328140259	response	0	j		176.0	/home/egter/Projects/stimuli/pictures/S_yt-SkIJvj6KNOo_33.png	323.80858993530273	
179	291.7725110054016	picture	0		84.0	177.0	/home/egter/Projects/stimuli/pictures/S_production_ID_5020960.png	323.82656812667847	0.7013678550720215
179	292.4613997936249	response	0	j		177.0	/home/egter/Projects/stimuli/pictures/S_production_ID_5020960.png	324.51545691490173	
180	292.47387886047363	picture	0		72.0	178.0	/home/egter/Projects/stimuli/pictures/n02704792_11366.JPEG	324.5279359817505	0.5972509384155273
180	293.0613498687744	response	0	k		178.0	/home/egter/Projects/stimuli/pictures/n02704792_11366.JPEG	325.11540699005127	
181	293.07112979888916	picture	0		109.0	179.0	/home/egter/Projects/stimuli/pictures/S_yt-BrepyEWKrPQ_20.png	325.125186920166	0.9097270965576172
181	293.96304392814636	response	0	j		179.0	/home/egter/Projects/stimuli/pictures/S_yt-BrepyEWKrPQ_20.png	326.0171010494232	
182	293.9808568954468	stim	0		330.0			326.03491401672363	2.749950885772705
182	296.7196989059448	response	0	space				328.7737560272217	
