trial_nr	onset	event_type	phase	response	nr_frames	picture_index	picture_file	onset_abs	duration
0	0.012786865234375	stim	0		900.0			32.415735960006714	7.50455117225647
0	7.500998020172119	response	0	space				39.90394711494446	
2	7.517338037490845	picture	0		265.0	0.0	/home/egter/Projects/stimuli/pictures/S_G010_C026_UHD_SDR_v02_2K_AVC.png	39.920287132263184	2.209634780883789
2	9.710903882980347	response	0	j		0.0	/home/egter/Projects/stimuli/pictures/S_G010_C026_UHD_SDR_v02_2K_AVC.png	42.113852977752686	
3	9.726972818374634	picture	0		310.0	1.0	/home/egter/Projects/stimuli/pictures/n01689811_1897.JPEG	42.12992191314697	2.5830860137939453
3	12.30079698562622	response	0	k		1.0	/home/egter/Projects/stimuli/pictures/n01689811_1897.JPEG	44.70374608039856	
4	12.310058832168579	picture	0		265.0	2.0	/home/egter/Projects/stimuli/pictures/R_S_yt-6vkiJedss6g_5.png	44.71300792694092	2.208285093307495
4	14.502310991287231	response	0	k		2.0	/home/egter/Projects/stimuli/pictures/R_S_yt-6vkiJedss6g_5.png	46.90526008605957	
5	14.518343925476074	picture	0		163.0	3.0	/home/egter/Projects/stimuli/pictures/S_yt-jfPayShydzE_1233.png	46.92129302024841	1.3611021041870117
5	15.867390871047974	response	0	k		3.0	/home/egter/Projects/stimuli/pictures/S_yt-jfPayShydzE_1233.png	48.27033996582031	
6	15.879446029663086	picture	0		251.0	4.0	/home/egter/Projects/stimuli/pictures/n12998815_13883.JPEG	48.282395124435425	2.090240001678467
6	17.959142923355103	response	0	k		4.0	/home/egter/Projects/stimuli/pictures/n12998815_13883.JPEG	50.36209201812744	
7	17.969686031341553	picture	0		259.0	5.0	/home/egter/Projects/stimuli/pictures/S_yt-EgsLlKJmzeY_60.png	50.37263512611389	2.1597259044647217
7	20.110527992248535	response	0	j		5.0	/home/egter/Projects/stimuli/pictures/S_yt-EgsLlKJmzeY_60.png	52.513477087020874	
8	20.129411935806274	picture	0		139.0	6.0	/home/egter/Projects/stimuli/pictures/n02500267_8069.JPEG	52.53236103057861	1.1597208976745605
8	21.2757089138031	response	0	k		6.0	/home/egter/Projects/stimuli/pictures/n02500267_8069.JPEG	53.67865800857544	
9	21.289132833480835	picture	0		328.0	7.0	/home/egter/Projects/stimuli/pictures/n09468604_14107.JPEG	53.692081928253174	2.7364630699157715
9	24.017364978790283	response	0	k		7.0	/home/egter/Projects/stimuli/pictures/n09468604_14107.JPEG	56.42031407356262	
10	24.025595903396606	picture	0		187.0	8.0	/home/egter/Projects/stimuli/pictures/n03290653_1838.JPEG	56.428544998168945	1.5620911121368408
10	25.575644969940186	response	0	k		8.0	/home/egter/Projects/stimuli/pictures/n03290653_1838.JPEG	57.978594064712524	
11	25.587687015533447	picture	0		188.0	9.0	/home/egter/Projects/stimuli/pictures/n07875152_3661.JPEG	57.990636110305786	1.5628838539123535
11	27.142383813858032	response	0	k		9.0	/home/egter/Projects/stimuli/pictures/n07875152_3661.JPEG	59.54533290863037	
12	27.1505708694458	picture	0		152.0	10.0	/home/egter/Projects/stimuli/pictures/R_S_yt-AOP7QYQntPI_28.png	59.55351996421814	1.2703990936279297
12	28.409015893936157	response	0	j		10.0	/home/egter/Projects/stimuli/pictures/R_S_yt-AOP7QYQntPI_28.png	60.811964988708496	
13	28.42096996307373	picture	0		267.0	11.0	/home/egter/Projects/stimuli/pictures/ILSVRC2012_test_00089163.JPEG	60.82391905784607	2.222226858139038
13	30.63397789001465	response	0	k		11.0	/home/egter/Projects/stimuli/pictures/ILSVRC2012_test_00089163.JPEG	63.03692698478699	
14	30.64319682121277	picture	0		126.0	12.0	/home/egter/Projects/stimuli/pictures/R_S_yt-l_ioasf6yHg_44.png	63.04614591598511	1.0490221977233887
14	31.684032917022705	response	0	j		12.0	/home/egter/Projects/stimuli/pictures/R_S_yt-l_ioasf6yHg_44.png	64.08698201179504	
15	31.692219018936157	picture	0		119.0	13.0	/home/egter/Projects/stimuli/pictures/R_S_ILSVRC2015_test_00004002.png	64.0951681137085	0.9926958084106445
15	32.67565703392029	response	0	j		13.0	/home/egter/Projects/stimuli/pictures/R_S_ILSVRC2015_test_00004002.png	65.07860612869263	
16	32.6849148273468	picture	0		136.0	14.0	/home/egter/Projects/stimuli/pictures/R_S_yt-j-ifVbxZePQ_70.png	65.08786392211914	1.132317066192627
16	33.80902981758118	response	0	j		14.0	/home/egter/Projects/stimuli/pictures/R_S_yt-j-ifVbxZePQ_70.png	66.21197891235352	
17	33.81723189353943	picture	0		117.0	15.0	/home/egter/Projects/stimuli/pictures/R_S_yt-J_FnFAl1uL0_143.png	66.22018098831177	0.9787161350250244
17	34.784005880355835	response	0	j		15.0	/home/egter/Projects/stimuli/pictures/R_S_yt-J_FnFAl1uL0_143.png	67.18695497512817	
18	34.79594802856445	picture	0		128.0	16.0	/home/egter/Projects/stimuli/pictures/S_yt-OFnDCbW9Ebo_31.png	67.19889712333679	1.062932014465332
18	35.85069704055786	response	0	j		16.0	/home/egter/Projects/stimuli/pictures/S_yt-OFnDCbW9Ebo_31.png	68.2536461353302	
19	35.858880043029785	picture	0		134.0	17.0	/home/egter/Projects/stimuli/pictures/S_yt-FoO02U39gy4_398.png	68.26182913780212	1.1176068782806396
19	36.967347860336304	response	0	j		17.0	/home/egter/Projects/stimuli/pictures/S_yt-FoO02U39gy4_398.png	69.37029695510864	
20	36.976486921310425	picture	0		122.0	18.0	/home/egter/Projects/stimuli/pictures/n02033041_7432.JPEG	69.37943601608276	1.0208230018615723
20	37.98396301269531	response	0	k		18.0	/home/egter/Projects/stimuli/pictures/n02033041_7432.JPEG	70.38691210746765	
21	37.997309923172	picture	0		190.0	19.0	/home/egter/Projects/stimuli/pictures/n09288635_1189.JPEG	70.40025901794434	1.5902531147003174
21	39.575700998306274	response	0	k		19.0	/home/egter/Projects/stimuli/pictures/n09288635_1189.JPEG	71.97865009307861	
22	39.587563037872314	picture	0		165.0	20.0	/home/egter/Projects/stimuli/pictures/n03794056_15065.JPEG	71.99051213264465	1.3749878406524658
22	40.950652837753296	response	0	k		20.0	/home/egter/Projects/stimuli/pictures/n03794056_15065.JPEG	73.35360193252563	
23	40.96255087852478	picture	0		136.0	21.0	/home/egter/Projects/stimuli/pictures/ILSVRC2012_val_00018369.JPEG	73.36549997329712	1.1319520473480225
23	42.083977937698364	response	0	k		21.0	/home/egter/Projects/stimuli/pictures/ILSVRC2012_val_00018369.JPEG	74.4869270324707	
24	42.0945029258728	picture	0		122.0	22.0	/home/egter/Projects/stimuli/pictures/S_yt-VTNBCfQxnsk_59.png	74.49745202064514	1.0145220756530762
24	43.10063886642456	response	0	j		22.0	/home/egter/Projects/stimuli/pictures/S_yt-VTNBCfQxnsk_59.png	75.5035879611969	
25	43.10902500152588	picture	0		169.0	23.0	/home/egter/Projects/stimuli/pictures/S_ILSVRC2015_train_00601000.png	75.51197409629822	1.4090569019317627
25	44.508957862854004	response	0	j		23.0	/home/egter/Projects/stimuli/pictures/S_ILSVRC2015_train_00601000.png	76.91190695762634	
26	44.51808190345764	picture	0		130.0	24.0	/home/egter/Projects/stimuli/pictures/n01729322_7420.JPEG	76.92103099822998	1.0833120346069336
26	45.59229397773743	response	0	k		24.0	/home/egter/Projects/stimuli/pictures/n01729322_7420.JPEG	77.99524307250977	
27	45.601393938064575	picture	0		152.0	25.0	/home/egter/Projects/stimuli/pictures/n01744401_6341.JPEG	78.00434303283691	1.2708370685577393
27	46.858968019485474	response	0	k		25.0	/home/egter/Projects/stimuli/pictures/n01744401_6341.JPEG	79.26191711425781	
28	46.872231006622314	picture	0		195.0	26.0	/home/egter/Projects/stimuli/pictures/R_S_production_ID_4360158.png	79.27518010139465	1.6319949626922607
28	48.49230098724365	response	0	j		26.0	/home/egter/Projects/stimuli/pictures/R_S_production_ID_4360158.png	80.89525008201599	
29	48.504225969314575	picture	0		116.0	27.0	/home/egter/Projects/stimuli/pictures/n04037443_1901.JPEG	80.90717506408691	0.9651918411254883
29	49.458958864212036	response	0	k		27.0	/home/egter/Projects/stimuli/pictures/n04037443_1901.JPEG	81.86190795898438	
30	49.46941781044006	picture	0		123.0	28.0	/home/egter/Projects/stimuli/pictures/S_yt-JVhfcpV7OaY_71.png	81.8723669052124	1.0277791023254395
30	50.483940839767456	response	0	j		28.0	/home/egter/Projects/stimuli/pictures/S_yt-JVhfcpV7OaY_71.png	82.8868899345398	
31	50.4971969127655	picture	0		219.0	29.0	/home/egter/Projects/stimuli/pictures/R_S_yt-7lULOC_rSE0_747.png	82.90014600753784	1.8333189487457275
31	52.31727695465088	response	0	j		29.0	/home/egter/Projects/stimuli/pictures/R_S_yt-7lULOC_rSE0_747.png	84.72022604942322	
32	52.33051586151123	picture	0		118.0	30.0	/home/egter/Projects/stimuli/pictures/R_S_yt-aiDGx4AN8J0_9.png	84.73346495628357	0.9866180419921875
32	53.30901288986206	response	0	j		30.0	/home/egter/Projects/stimuli/pictures/R_S_yt-aiDGx4AN8J0_9.png	85.7119619846344	
33	53.31713390350342	picture	0		139.0	31.0	/home/egter/Projects/stimuli/pictures/S_ILSVRC2015_train_00165012.png	85.72008299827576	1.159132957458496
33	54.46720790863037	response	0	j		31.0	/home/egter/Projects/stimuli/pictures/S_ILSVRC2015_train_00165012.png	86.87015700340271	
34	54.476266860961914	picture	0		124.0	32.0	/home/egter/Projects/stimuli/pictures/S_yt-P8vJa4YVcGU_488.png	86.87921595573425	1.0347681045532227
34	55.5005099773407	response	0	j		32.0	/home/egter/Projects/stimuli/pictures/S_yt-P8vJa4YVcGU_488.png	87.90345907211304	
35	55.51103496551514	picture	0		117.0	33.0	/home/egter/Projects/stimuli/pictures/R_S_comp_L004_C011_PS_v01_SDR_PS_20180925_SDR_2K_AVC.png	87.91398406028748	0.9860749244689941
35	56.48394298553467	response	0	j		33.0	/home/egter/Projects/stimuli/pictures/R_S_comp_L004_C011_PS_v01_SDR_PS_20180925_SDR_2K_AVC.png	88.886892080307	
36	56.49710988998413	picture	0		140.0	34.0	/home/egter/Projects/stimuli/pictures/S_yt-bl9EuWKeVmY_6.png	88.90005898475647	1.1735990047454834
36	57.658928871154785	response	0	k		34.0	/home/egter/Projects/stimuli/pictures/S_yt-bl9EuWKeVmY_6.png	90.06187796592712	
37	57.670708894729614	picture	0		134.0	35.0	/home/egter/Projects/stimuli/pictures/n04366367_5814.JPEG	90.07365798950195	1.1182141304016113
37	58.77556800842285	response	0	k		35.0	/home/egter/Projects/stimuli/pictures/n04366367_5814.JPEG	91.17851710319519	
38	58.788923025131226	picture	0		129.0	36.0	/home/egter/Projects/stimuli/pictures/S_yt-UmLeGNcqouI_718.png	91.19187211990356	1.0832338333129883
38	59.858924865722656	response	0	j		36.0	/home/egter/Projects/stimuli/pictures/S_yt-UmLeGNcqouI_718.png	92.261873960495	
39	59.872156858444214	picture	0		183.0	37.0	/home/egter/Projects/stimuli/pictures/R_S_ILSVRC2015_train_00743000.png	92.27510595321655	1.5282740592956543
39	61.3922598361969	response	0	j		37.0	/home/egter/Projects/stimuli/pictures/R_S_ILSVRC2015_train_00743000.png	93.79520893096924	
40	61.40043091773987	picture	0		138.0	38.0	/home/egter/Projects/stimuli/pictures/n04310018_19995.JPEG	93.8033800125122	1.1521661281585693
40	62.53539681434631	response	0	k		38.0	/home/egter/Projects/stimuli/pictures/n04310018_19995.JPEG	94.93834590911865	
41	62.55259704589844	picture	0		115.0	39.0	/home/egter/Projects/stimuli/pictures/S_yt-c5IgOXX8YZ0_24.png	94.95554614067078	0.9583468437194824
41	63.500574827194214	response	0	j		39.0	/home/egter/Projects/stimuli/pictures/S_yt-c5IgOXX8YZ0_24.png	95.90352392196655	
42	63.51094388961792	picture	0		111.0	40.0	/home/egter/Projects/stimuli/pictures/n04389033_34247.JPEG	95.91389298439026	0.9236371517181396
42	64.42553186416626	response	0	k		40.0	/home/egter/Projects/stimuli/pictures/n04389033_34247.JPEG	96.8284809589386	
43	64.43458104133606	picture	0		156.0	41.0	/home/egter/Projects/stimuli/pictures/S_yt-GO26QIueqRw_385.png	96.8375301361084	1.299163818359375
43	65.72552490234375	response	0	j		41.0	/home/egter/Projects/stimuli/pictures/S_yt-GO26QIueqRw_385.png	98.12847399711609	
44	65.73374485969543	picture	0		122.0	42.0	/home/egter/Projects/stimuli/pictures/n03467068_27029.JPEG	98.13669395446777	1.025055170059204
44	66.73539781570435	response	0	k		42.0	/home/egter/Projects/stimuli/pictures/n03467068_27029.JPEG	99.13834691047668	
45	66.75880002975464	picture	0		117.0	43.0	/home/egter/Projects/stimuli/pictures/R_S_yt-be7r-ha8BpA_1045.png	99.16174912452698	0.9832859039306641
45	67.726322889328	response	0	j		43.0	/home/egter/Projects/stimuli/pictures/R_S_yt-be7r-ha8BpA_1045.png	100.12927198410034	
46	67.7420859336853	picture	0		163.0	44.0	/home/egter/Projects/stimuli/pictures/S_yt-hOtj2y9VWrc_354.png	100.14503502845764	1.3666338920593262
46	69.09222483634949	response	0	k		44.0	/home/egter/Projects/stimuli/pictures/S_yt-hOtj2y9VWrc_354.png	101.49517393112183	
47	69.10871982574463	picture	0		121.0	45.0	/home/egter/Projects/stimuli/pictures/S_yt-T4GFfVaHxFY_16.png	101.51166892051697	1.0132980346679688
47	70.1088809967041	response	0	k		45.0	/home/egter/Projects/stimuli/pictures/S_yt-T4GFfVaHxFY_16.png	102.51183009147644	
48	70.1220178604126	picture	0		148.0	46.0	/home/egter/Projects/stimuli/pictures/n02268853_2389.JPEG	102.52496695518494	1.2291460037231445
48	71.33543086051941	response	0	k		46.0	/home/egter/Projects/stimuli/pictures/n02268853_2389.JPEG	103.73837995529175	
49	71.35116386413574	picture	0		142.0	47.0	/home/egter/Projects/stimuli/pictures/n03447447_2895.JPEG	103.75411295890808	1.1874971389770508
49	72.51954889297485	response	0	k		47.0	/home/egter/Projects/stimuli/pictures/n03447447_2895.JPEG	104.92249798774719	
50	72.5386610031128	picture	0		116.0	48.0	/home/egter/Projects/stimuli/pictures/n01491361_8458.JPEG	104.94161009788513	0.965216875076294
50	73.49212384223938	response	0	k		48.0	/home/egter/Projects/stimuli/pictures/n01491361_8458.JPEG	105.89507293701172	
51	73.50387787818909	picture	0		109.0	49.0	/home/egter/Projects/stimuli/pictures/n03982430_519.JPEG	105.90682697296143	0.9097280502319336
51	74.40052390098572	response	0	k		49.0	/home/egter/Projects/stimuli/pictures/n03982430_519.JPEG	106.80347299575806	
52	74.41360592842102	picture	0		131.0	50.0	/home/egter/Projects/stimuli/pictures/R_S_pexels-laker-5793000.png	106.81655502319336	1.090250015258789
52	75.49216389656067	response	0	j		50.0	/home/egter/Projects/stimuli/pictures/R_S_pexels-laker-5793000.png	107.89511299133301	
53	75.50385594367981	picture	0		150.0	51.0	/home/egter/Projects/stimuli/pictures/R_S_yt-bwSRV1Vr21s_435.png	107.90680503845215	1.2500250339508057
53	76.7354040145874	response	0	j		51.0	/home/egter/Projects/stimuli/pictures/R_S_yt-bwSRV1Vr21s_435.png	109.13835310935974	
54	76.75388097763062	picture	0		130.0	52.0	/home/egter/Projects/stimuli/pictures/S_yt-9pUeQix6EW8_7.png	109.15683007240295	1.0833618640899658
54	77.82552599906921	response	0	j		52.0	/home/egter/Projects/stimuli/pictures/S_yt-9pUeQix6EW8_7.png	110.22847509384155	
55	77.83724284172058	picture	0		116.0	53.0	/home/egter/Projects/stimuli/pictures/R_S_yt-y-boY803u9A_12.png	110.24019193649292	0.9653451442718506
55	78.792151927948	response	0	j		53.0	/home/egter/Projects/stimuli/pictures/R_S_yt-y-boY803u9A_12.png	111.19510102272034	
56	78.80258798599243	picture	0		245.0	54.0	/home/egter/Projects/stimuli/pictures/S_yt-CRw9-cCQqbg_332.png	111.20553708076477	2.041543960571289
56	80.833811044693	response	0	j		54.0	/home/egter/Projects/stimuli/pictures/S_yt-CRw9-cCQqbg_332.png	113.23676013946533	
57	80.84413194656372	picture	0		159.0	55.0	/home/egter/Projects/stimuli/pictures/S_ILSVRC2015_train_00324002.png	113.24708104133606	1.3263700008392334
57	82.15199303627014	response	0	k		55.0	/home/egter/Projects/stimuli/pictures/S_ILSVRC2015_train_00324002.png	114.55494213104248	
58	82.17050194740295	picture	0		116.0	56.0	/home/egter/Projects/stimuli/pictures/ILSVRC2012_val_00028610.JPEG	114.5734510421753	0.96527099609375
58	83.12544202804565	response	0	k		56.0	/home/egter/Projects/stimuli/pictures/ILSVRC2012_val_00028610.JPEG	115.528391122818	
59	83.1357729434967	picture	0		125.0	57.0	/home/egter/Projects/stimuli/pictures/S_3y6RUJrI0j8_35.png	115.53872203826904	1.0417110919952393
59	84.1602418422699	response	0	k		57.0	/home/egter/Projects/stimuli/pictures/S_3y6RUJrI0j8_35.png	116.56319093704224	
60	84.17748403549194	picture	0		126.0	58.0	/home/egter/Projects/stimuli/pictures/S_ILSVRC2015_train_00415004.png	116.58043313026428	1.0485868453979492
60	85.2171618938446	response	0	k		58.0	/home/egter/Projects/stimuli/pictures/S_ILSVRC2015_train_00415004.png	117.62011098861694	
61	85.22607088088989	picture	0		234.0	59.0	/home/egter/Projects/stimuli/pictures/S_yt-RO4mhuXBVrY_67.png	117.62901997566223	1.9513909816741943
61	87.16714191436768	response	0	j		59.0	/home/egter/Projects/stimuli/pictures/S_yt-RO4mhuXBVrY_67.png	119.57009100914001	
62	87.17746186256409	picture	0		115.0	60.0	/home/egter/Projects/stimuli/pictures/n03692522_9753.JPEG	119.58041095733643	0.9582531452178955
62	88.12542581558228	response	0	k		60.0	/home/egter/Projects/stimuli/pictures/n03692522_9753.JPEG	120.52837491035461	
63	88.13571500778198	picture	0		123.0	61.0	/home/egter/Projects/stimuli/pictures/S_wc-dwTccI0TNwps_15.png	120.53866410255432	1.0277798175811768
63	89.1443498134613	response	0	j		61.0	/home/egter/Projects/stimuli/pictures/S_wc-dwTccI0TNwps_15.png	121.54729890823364	
64	89.16349482536316	picture	0		248.0	62.0	/home/egter/Projects/stimuli/pictures/S_yt-CEQnXB0LxQU_278.png	121.5664439201355	2.0624940395355225
64	91.21710586547852	response	0	k		62.0	/home/egter/Projects/stimuli/pictures/S_yt-CEQnXB0LxQU_278.png	123.62005496025085	
65	91.22598886489868	picture	0		119.0	63.0	/home/egter/Projects/stimuli/pictures/S_yt-nA-1mD3ky2c_37.png	123.62893795967102	0.9930269718170166
65	92.20873403549194	response	0	k		63.0	/home/egter/Projects/stimuli/pictures/S_yt-nA-1mD3ky2c_37.png	124.61168313026428	
66	92.2190158367157	picture	0		118.0	64.0	/home/egter/Projects/stimuli/pictures/S_yt-CeOZeB1LXwE_79.png	124.62196493148804	0.9861509799957275
66	93.19212698936462	response	0	j		64.0	/home/egter/Projects/stimuli/pictures/S_yt-CeOZeB1LXwE_79.png	125.59507608413696	
67	93.20516681671143	picture	0		121.0	65.0	/home/egter/Projects/stimuli/pictures/S_yt-t8NfuFA7OlM_26.png	125.60811591148376	1.0068891048431396
67	94.20042300224304	response	0	j		65.0	/home/egter/Projects/stimuli/pictures/S_yt-t8NfuFA7OlM_26.png	126.60337209701538	
68	94.21205592155457	picture	0		209.0	66.0	/home/egter/Projects/stimuli/pictures/R_S_yt-BrepyEWKrPQ_20.png	126.6150050163269	1.7430779933929443
68	95.93584394454956	response	0	j		66.0	/home/egter/Projects/stimuli/pictures/R_S_yt-BrepyEWKrPQ_20.png	128.3387930393219	
69	95.95513391494751	picture	0		112.0	67.0	/home/egter/Projects/stimuli/pictures/n02814533_211.JPEG	128.35808300971985	0.937446117401123
69	96.88375186920166	response	0	k		67.0	/home/egter/Projects/stimuli/pictures/n02814533_211.JPEG	129.286700963974	
70	96.89258003234863	picture	0		236.0	68.0	/home/egter/Projects/stimuli/pictures/S_comp_HK_B005_C011_PSNK_v16_SDR_PS_20180914_SDR_2K_AVC.png	129.29552912712097	1.9659669399261475
70	98.85102987289429	response	0	k		68.0	/home/egter/Projects/stimuli/pictures/S_comp_HK_B005_C011_PSNK_v16_SDR_PS_20180914_SDR_2K_AVC.png	131.25397896766663	
71	98.85854697227478	picture	0		121.0	69.0	/home/egter/Projects/stimuli/pictures/R_S_yt-UmLeGNcqouI_718.png	131.26149606704712	1.0132339000701904
71	99.85875201225281	response	0	j		69.0	/home/egter/Projects/stimuli/pictures/R_S_yt-UmLeGNcqouI_718.png	132.26170110702515	
72	99.87178087234497	picture	0		132.0	70.0	/home/egter/Projects/stimuli/pictures/S_yt-kXarkCFJLeg_46.png	132.2747299671173	1.0971300601959229
72	100.95187091827393	response	0	j		70.0	/home/egter/Projects/stimuli/pictures/S_yt-kXarkCFJLeg_46.png	133.35482001304626	
73	100.9689109325409	picture	0		120.0	71.0	/home/egter/Projects/stimuli/pictures/R_S_ILSVRC2015_train_00661001.png	133.37186002731323	1.000035047531128
73	101.95193982124329	response	0	j		71.0	/home/egter/Projects/stimuli/pictures/R_S_ILSVRC2015_train_00661001.png	134.35488891601562	
74	101.96894598007202	picture	0		111.0	72.0	/home/egter/Projects/stimuli/pictures/n04252077_162.JPEG	134.37189507484436	0.9235849380493164
74	102.8837628364563	response	0	k		72.0	/home/egter/Projects/stimuli/pictures/n04252077_162.JPEG	135.28671193122864	
75	102.89253091812134	picture	0		109.0	73.0	/home/egter/Projects/stimuli/pictures/n04069434_2909.JPEG	135.29548001289368	0.9097380638122559
75	103.79201793670654	response	0	k		73.0	/home/egter/Projects/stimuli/pictures/n04069434_2909.JPEG	136.19496703147888	
76	103.8022689819336	picture	0		115.0	74.0	/home/egter/Projects/stimuli/pictures/ILSVRC2012_val_00032171.JPEG	136.20521807670593	0.9582338333129883
76	104.7435610294342	response	0	k		74.0	/home/egter/Projects/stimuli/pictures/ILSVRC2012_val_00032171.JPEG	137.14651012420654	
77	104.76050281524658	picture	0		121.0	75.0	/home/egter/Projects/stimuli/pictures/n03425413_8412.JPEG	137.16345191001892	1.0070080757141113
77	105.75187397003174	response	0	k		75.0	/home/egter/Projects/stimuli/pictures/n03425413_8412.JPEG	138.15482306480408	
78	105.7675108909607	picture	0		129.0	76.0	/home/egter/Projects/stimuli/pictures/n02727426_14171.JPEG	138.17045998573303	1.076375961303711
78	106.83372902870178	response	0	k		76.0	/home/egter/Projects/stimuli/pictures/n02727426_14171.JPEG	139.23667812347412	
79	106.8438868522644	picture	0		119.0	77.0	/home/egter/Projects/stimuli/pictures/R_S_production_ID_5144823.png	139.24683594703674	0.9930591583251953
79	107.82539200782776	response	0	j		77.0	/home/egter/Projects/stimuli/pictures/R_S_production_ID_5144823.png	140.2283411026001	
80	107.8369460105896	picture	0		116.0	78.0	/home/egter/Projects/stimuli/pictures/n04146614_1228.JPEG	140.23989510536194	0.9652478694915771
80	108.79203081130981	response	0	k		78.0	/home/egter/Projects/stimuli/pictures/n04146614_1228.JPEG	141.19497990608215	
81	108.80219388008118	picture	0		122.0	79.0	/home/egter/Projects/stimuli/pictures/n02607072_208.JPEG	141.20514297485352	1.0208230018615723
81	109.8092589378357	response	0	k		79.0	/home/egter/Projects/stimuli/pictures/n02607072_208.JPEG	142.21220803260803	
82	109.82301688194275	picture	0		116.0	80.0	/home/egter/Projects/stimuli/pictures/S_yt-9PTQ4U4oPUU_243.png	142.2259659767151	0.9722449779510498
82	110.78362202644348	response	0	k		80.0	/home/egter/Projects/stimuli/pictures/S_yt-9PTQ4U4oPUU_243.png	143.18657112121582	
83	110.7952618598938	picture	0		119.0	81.0	/home/egter/Projects/stimuli/pictures/R_S_yt-FoO02U39gy4_398.png	143.19821095466614	0.9930369853973389
83	111.77532291412354	response	0	j		81.0	/home/egter/Projects/stimuli/pictures/R_S_yt-FoO02U39gy4_398.png	144.17827200889587	
84	111.78829884529114	picture	0		166.0	82.0	/home/egter/Projects/stimuli/pictures/R_S_ILSVRC2015_train_00697001.png	144.19124794006348	1.3819401264190674
84	113.15181088447571	response	0	k		82.0	/home/egter/Projects/stimuli/pictures/R_S_ILSVRC2015_train_00697001.png	145.55475997924805	
85	113.1702389717102	picture	0		114.0	83.0	/home/egter/Projects/stimuli/pictures/S_yt-GjFQxAklviE_25.png	145.57318806648254	0.9583508968353271
85	114.11701703071594	response	0	j		83.0	/home/egter/Projects/stimuli/pictures/S_yt-GjFQxAklviE_25.png	146.51996612548828	
86	114.12858986854553	picture	0		133.0	84.0	/home/egter/Projects/stimuli/pictures/S_yt-7Z6Kmp0n7L8_145.png	146.53153896331787	1.1179590225219727
86	115.23361301422119	response	0	j		84.0	/home/egter/Projects/stimuli/pictures/S_yt-7Z6Kmp0n7L8_145.png	147.63656210899353	
87	115.2465488910675	picture	0		124.0	85.0	/home/egter/Projects/stimuli/pictures/n04131690_6113.JPEG	147.64949798583984	1.0347621440887451
87	116.26752781867981	response	0	k		85.0	/home/egter/Projects/stimuli/pictures/n04131690_6113.JPEG	148.67047691345215	
88	116.28131103515625	picture	0		153.0	86.0	/home/egter/Projects/stimuli/pictures/n02641379_27089.JPEG	148.6842601299286	1.277716875076294
88	117.54350900650024	response	0	k		86.0	/home/egter/Projects/stimuli/pictures/n02641379_27089.JPEG	149.94645810127258	
89	117.55902791023254	picture	0		134.0	87.0	/home/egter/Projects/stimuli/pictures/n02100735_4545.JPEG	149.96197700500488	1.118056058883667
89	118.6669909954071	response	0	k		87.0	/home/egter/Projects/stimuli/pictures/n02100735_4545.JPEG	151.06994009017944	
90	118.67708396911621	picture	0		224.0	88.0	/home/egter/Projects/stimuli/pictures/R_S_yt-kuzdrmHa-W0_39.png	151.08003306388855	1.868222951889038
90	120.5336799621582	response	0	j		88.0	/home/egter/Projects/stimuli/pictures/R_S_yt-kuzdrmHa-W0_39.png	152.93662905693054	
91	120.54530692100525	picture	0		121.0	89.0	/home/egter/Projects/stimuli/pictures/ILSVRC2012_test_00088260.JPEG	152.9482560157776	1.0067949295043945
91	121.54198789596558	response	0	k		89.0	/home/egter/Projects/stimuli/pictures/ILSVRC2012_test_00088260.JPEG	153.94493699073792	
92	121.55210185050964	picture	0		139.0	90.0	/home/egter/Projects/stimuli/pictures/S_yt-8N5UuN5WQcY_72.png	153.95505094528198	1.1597449779510498
92	122.7003059387207	response	0	j		90.0	/home/egter/Projects/stimuli/pictures/S_yt-8N5UuN5WQcY_72.png	155.10325503349304	
93	122.7118468284607	picture	0		124.0	91.0	/home/egter/Projects/stimuli/pictures/S_video-5.png	155.11479592323303	1.0346570014953613
93	123.73359084129333	response	0	j		91.0	/home/egter/Projects/stimuli/pictures/S_video-5.png	156.13653993606567	
94	123.74650382995605	picture	0		126.0	92.0	/home/egter/Projects/stimuli/pictures/S_yt-caS_SY5WmeE_5.png	156.1494529247284	1.048586130142212
94	124.77686381340027	response	0	k		92.0	/home/egter/Projects/stimuli/pictures/S_yt-caS_SY5WmeE_5.png	157.1798129081726	
95	124.79508996009827	picture	0		148.0	93.0	/home/egter/Projects/stimuli/pictures/S_yt-hyZEDFkh49w_196.png	157.1980390548706	1.2361159324645996
95	126.01748299598694	response	0	j		93.0	/home/egter/Projects/stimuli/pictures/S_yt-hyZEDFkh49w_196.png	158.42043209075928	
96	126.03120589256287	picture	0		135.0	94.0	/home/egter/Projects/stimuli/pictures/R_S_yt-e_eOzV7qMZo_374.png	158.4341549873352	1.1319611072540283
96	127.1439368724823	response	0	j		94.0	/home/egter/Projects/stimuli/pictures/R_S_yt-e_eOzV7qMZo_374.png	159.54688596725464	
97	127.1631669998169	picture	0		131.0	95.0	/home/egter/Projects/stimuli/pictures/R_S_yt-3ohvpS42xug_184.png	159.56611609458923	1.090242862701416
97	128.24192881584167	response	0	j		95.0	/home/egter/Projects/stimuli/pictures/R_S_yt-3ohvpS42xug_184.png	160.644877910614	
98	128.2534098625183	picture	0		126.0	96.0	/home/egter/Projects/stimuli/pictures/ILSVRC2012_test_00096441.JPEG	160.65635895729065	1.0550899505615234
98	129.29195499420166	response	0	k		96.0	/home/egter/Projects/stimuli/pictures/ILSVRC2012_test_00096441.JPEG	161.694904088974	
99	129.30849981307983	picture	0		126.0	97.0	/home/egter/Projects/stimuli/pictures/R_S_yt-RHPOCG1mII0_138.png	161.71144890785217	1.055976152420044
99	130.35067987442017	response	0	j		97.0	/home/egter/Projects/stimuli/pictures/R_S_yt-RHPOCG1mII0_138.png	162.7536289691925	
100	130.36447596549988	picture	0		130.0	98.0	/home/egter/Projects/stimuli/pictures/S_yt-sIXdPhfS67U_203.png	162.76742506027222	1.090263843536377
100	131.44211792945862	response	0	j		98.0	/home/egter/Projects/stimuli/pictures/S_yt-sIXdPhfS67U_203.png	163.84506702423096	
101	131.45473980903625	picture	0		123.0	99.0	/home/egter/Projects/stimuli/pictures/R_S_comp_HK_B005_C011_PSNK_v16_SDR_PS_20180914_SDR_2K_AVC.png	163.8576889038086	1.0208690166473389
101	132.4670069217682	response	0	k		99.0	/home/egter/Projects/stimuli/pictures/R_S_comp_HK_B005_C011_PSNK_v16_SDR_PS_20180914_SDR_2K_AVC.png	164.86995601654053	
102	132.4756088256836	picture	0		235.0	100.0	/home/egter/Projects/stimuli/pictures/R_S_comp_L010_C006_PS_v01_SDR_PS_20180925_SDR_2K_AVC.png	164.87855792045593	1.9582650661468506
102	134.4252679347992	response	0	k		100.0	/home/egter/Projects/stimuli/pictures/R_S_comp_L010_C006_PS_v01_SDR_PS_20180925_SDR_2K_AVC.png	166.82821702957153	
103	134.43387389183044	picture	0		128.0	101.0	/home/egter/Projects/stimuli/pictures/S_ILSVRC2015_train_00373000.png	166.83682298660278	1.0694451332092285
103	135.49195003509521	response	0	j		101.0	/home/egter/Projects/stimuli/pictures/S_ILSVRC2015_train_00373000.png	167.89489912986755	
104	135.50331902503967	picture	0		126.0	102.0	/home/egter/Projects/stimuli/pictures/n04238763_4190.JPEG	167.906268119812	1.0486319065093994
104	136.5418930053711	response	0	k		102.0	/home/egter/Projects/stimuli/pictures/n04238763_4190.JPEG	168.94484210014343	
105	136.55195093154907	picture	0		126.0	103.0	/home/egter/Projects/stimuli/pictures/S_ILSVRC2015_train_00516000.png	168.9549000263214	1.0486409664154053
105	137.59188294410706	response	0	k		103.0	/home/egter/Projects/stimuli/pictures/S_ILSVRC2015_train_00516000.png	169.9948320388794	
106	137.60059189796448	picture	0		130.0	104.0	/home/egter/Projects/stimuli/pictures/S_yt-J4Ci5b3z4fo_4.png	170.00354099273682	1.0832970142364502
106	138.6752529144287	response	0	k		104.0	/home/egter/Projects/stimuli/pictures/S_yt-J4Ci5b3z4fo_4.png	171.07820200920105	
107	138.68388891220093	picture	0		127.0	105.0	/home/egter/Projects/stimuli/pictures/n07717410_11636.JPEG	171.08683800697327	1.0624821186065674
107	139.73357582092285	response	0	k		105.0	/home/egter/Projects/stimuli/pictures/n07717410_11636.JPEG	172.1365249156952	
108	139.7463710308075	picture	0		125.0	106.0	/home/egter/Projects/stimuli/pictures/S_yt-WrwPgZYBXlA_34.png	172.14932012557983	1.0416338443756104
108	140.7689230442047	response	0	j		106.0	/home/egter/Projects/stimuli/pictures/S_yt-WrwPgZYBXlA_34.png	173.17187213897705	
109	140.7880048751831	picture	0		176.0	107.0	/home/egter/Projects/stimuli/pictures/S_yt-Dwgpjoikt84_122.png	173.19095396995544	1.4652769565582275
109	142.24187803268433	response	0	k		107.0	/home/egter/Projects/stimuli/pictures/S_yt-Dwgpjoikt84_122.png	174.64482712745667	
110	142.25328183174133	picture	0		117.0	108.0	/home/egter/Projects/stimuli/pictures/S_yt-Pinnv3-3GFU_452.png	174.65623092651367	0.9721941947937012
110	143.21690201759338	response	0	j		108.0	/home/egter/Projects/stimuli/pictures/S_yt-Pinnv3-3GFU_452.png	175.61985111236572	
111	143.22547602653503	picture	0		128.0	109.0	/home/egter/Projects/stimuli/pictures/S_yt-9t5-3Qe_t9A_591.png	175.62842512130737	1.0694468021392822
111	144.28356504440308	response	0	j		109.0	/home/egter/Projects/stimuli/pictures/S_yt-9t5-3Qe_t9A_591.png	176.68651413917542	
112	144.29492282867432	picture	0		133.0	110.0	/home/egter/Projects/stimuli/pictures/R_S_yt-BQixB0mumIk_169.png	176.69787192344666	1.1111412048339844
112	145.38508582115173	response	0	j		110.0	/home/egter/Projects/stimuli/pictures/R_S_yt-BQixB0mumIk_169.png	177.78803491592407	
113	145.4060640335083	picture	0		125.0	111.0	/home/egter/Projects/stimuli/pictures/n04335435_3691.JPEG	177.80901312828064	1.048597812652588
113	146.44185590744019	response	0	k		111.0	/home/egter/Projects/stimuli/pictures/n04335435_3691.JPEG	178.84480500221252	
114	146.4546618461609	picture	0		150.0	112.0	/home/egter/Projects/stimuli/pictures/R_S_yt-5fZZrdwkFx0_28.png	178.85761094093323	1.2568631172180176
114	147.70018100738525	response	0	j		112.0	/home/egter/Projects/stimuli/pictures/R_S_yt-5fZZrdwkFx0_28.png	180.1031301021576	
115	147.7115249633789	picture	0		135.0	113.0	/home/egter/Projects/stimuli/pictures/S_yt-71qAAM6ryGY_32.png	180.11447405815125	1.1251559257507324
115	148.8251988887787	response	0	k		113.0	/home/egter/Projects/stimuli/pictures/S_yt-71qAAM6ryGY_32.png	181.22814798355103	
116	148.83668088912964	picture	0		354.0	114.0	/home/egter/Projects/stimuli/pictures/S_yt-ILARvS15SDQ_741.png	181.23962998390198	2.951231002807617
116	151.768700838089	response	0	k		114.0	/home/egter/Projects/stimuli/pictures/S_yt-ILARvS15SDQ_741.png	184.17164993286133	
117	151.78791189193726	picture	0		173.0	115.0	/home/egter/Projects/stimuli/pictures/n04037443_16803.JPEG	184.1908609867096	1.4375190734863281
117	153.2168469429016	response	0	k		115.0	/home/egter/Projects/stimuli/pictures/n04037443_16803.JPEG	185.61979603767395	
118	153.22543096542358	picture	0		104.0	116.0	/home/egter/Projects/stimuli/pictures/n02124075_1818.JPEG	185.62838006019592	0.8680009841918945
118	154.08351492881775	response	0	k		116.0	/home/egter/Projects/stimuli/pictures/n02124075_1818.JPEG	186.4864640235901	
119	154.09343194961548	picture	0		108.0	117.0	/home/egter/Projects/stimuli/pictures/S_ILSVRC2015_train_00415001.png	186.49638104438782	0.9029839038848877
119	154.97696685791016	response	0	k		117.0	/home/egter/Projects/stimuli/pictures/S_ILSVRC2015_train_00415001.png	187.3799159526825	
120	154.99641585350037	picture	0		121.0	118.0	/home/egter/Projects/stimuli/pictures/n01744401_3439.JPEG	187.3993649482727	1.0067050457000732
120	155.98494791984558	response	0	k		118.0	/home/egter/Projects/stimuli/pictures/n01744401_3439.JPEG	188.38789701461792	
121	156.00312089920044	picture	0		154.0	119.0	/home/egter/Projects/stimuli/pictures/S_comp_L007_C007_PS_v01_SDR_PS_20180925_SDR_2K_AVC.png	188.40606999397278	1.2847049236297607
121	157.27518796920776	response	0	k		119.0	/home/egter/Projects/stimuli/pictures/S_comp_L007_C007_PS_v01_SDR_PS_20180925_SDR_2K_AVC.png	189.6781370639801	
122	157.2878258228302	picture	0		109.0	120.0	/home/egter/Projects/stimuli/pictures/n02168699_8992.JPEG	189.69077491760254	0.9096992015838623
122	158.1769299507141	response	0	k		120.0	/home/egter/Projects/stimuli/pictures/n02168699_8992.JPEG	190.57987904548645	
123	158.19752502441406	picture	0		133.0	121.0	/home/egter/Projects/stimuli/pictures/S_yt-FhnT_42bV7M_11.png	190.6004741191864	1.1112098693847656
123	159.30015397071838	response	0	j		121.0	/home/egter/Projects/stimuli/pictures/S_yt-FhnT_42bV7M_11.png	191.70310306549072	
124	159.30873489379883	picture	0		112.0	122.0	/home/egter/Projects/stimuli/pictures/R_S_yt-LhP0mZ6xxIg_111.png	191.71168398857117	0.937391996383667
124	160.23346281051636	response	0	j		122.0	/home/egter/Projects/stimuli/pictures/R_S_yt-LhP0mZ6xxIg_111.png	192.6364119052887	
125	160.2461268901825	picture	0		123.0	123.0	/home/egter/Projects/stimuli/pictures/n03743016_8738.JPEG	192.64907598495483	1.020895004272461
125	161.2584879398346	response	0	k		123.0	/home/egter/Projects/stimuli/pictures/n03743016_8738.JPEG	193.66143703460693	
126	161.26702189445496	picture	0		112.0	124.0	/home/egter/Projects/stimuli/pictures/n01756291_12921.JPEG	193.6699709892273	0.9374561309814453
126	162.18521881103516	response	0	k		124.0	/home/egter/Projects/stimuli/pictures/n01756291_12921.JPEG	194.5881679058075	
127	162.2044780254364	picture	0		121.0	125.0	/home/egter/Projects/stimuli/pictures/n03196217_3605.JPEG	194.60742712020874	1.0069499015808105
127	163.20013999938965	response	0	k		125.0	/home/egter/Projects/stimuli/pictures/n03196217_3605.JPEG	195.603089094162	
128	163.2114279270172	picture	0		123.0	126.0	/home/egter/Projects/stimuli/pictures/S_yt-q8mfIumbHuo_84.png	195.61437702178955	1.0277509689331055
128	164.22533583641052	response	0	k		126.0	/home/egter/Projects/stimuli/pictures/S_yt-q8mfIumbHuo_84.png	196.62828493118286	
129	164.23917889595032	picture	0		113.0	127.0	/home/egter/Projects/stimuli/pictures/n01675722_3589.JPEG	196.64212799072266	0.9444079399108887
129	165.1682789325714	response	0	k		127.0	/home/egter/Projects/stimuli/pictures/n01675722_3589.JPEG	197.57122802734375	
130	165.1835868358612	picture	0		110.0	128.0	/home/egter/Projects/stimuli/pictures/n03444034_2491.JPEG	197.58653593063354	0.9166409969329834
130	166.09173703193665	response	0	k		128.0	/home/egter/Projects/stimuli/pictures/n03444034_2491.JPEG	198.49468612670898	
131	166.1002278327942	picture	0		114.0	129.0	/home/egter/Projects/stimuli/pictures/n04335435_985.JPEG	198.50317692756653	0.9514520168304443
131	167.04178285598755	response	0	k		129.0	/home/egter/Projects/stimuli/pictures/n04335435_985.JPEG	199.4447319507599	
132	167.05167984962463	picture	0		131.0	130.0	/home/egter/Projects/stimuli/pictures/S_yt-qycUhA3Isjg_67.png	199.45462894439697	1.0902020931243896
132	168.13346195220947	response	0	k		130.0	/home/egter/Projects/stimuli/pictures/S_yt-qycUhA3Isjg_67.png	200.5364110469818	
133	168.14188194274902	picture	0		118.0	131.0	/home/egter/Projects/stimuli/pictures/n02087394_6350.JPEG	200.54483103752136	0.9861619472503662
133	169.11676287651062	response	0	k		131.0	/home/egter/Projects/stimuli/pictures/n02087394_6350.JPEG	201.51971197128296	
134	169.1280438899994	picture	0		182.0	132.0	/home/egter/Projects/stimuli/pictures/n03218198_6372.JPEG	201.53099298477173	1.5138180255889893
134	170.63345789909363	response	0	k		132.0	/home/egter/Projects/stimuli/pictures/n03218198_6372.JPEG	203.03640699386597	
135	170.64186191558838	picture	0		131.0	133.0	/home/egter/Projects/stimuli/pictures/n03792972_985.JPEG	203.04481101036072	1.0972521305084229
135	171.72533988952637	response	0	k		133.0	/home/egter/Projects/stimuli/pictures/n03792972_985.JPEG	204.1282889842987	
136	171.7391140460968	picture	0		193.0	134.0	/home/egter/Projects/stimuli/pictures/S_yt-1iB2ofPY1U8_16.png	204.14206314086914	1.6110568046569824
136	173.3417420387268	response	0	j		134.0	/home/egter/Projects/stimuli/pictures/S_yt-1iB2ofPY1U8_16.png	205.74469113349915	
137	173.35017085075378	picture	0		122.0	135.0	/home/egter/Projects/stimuli/pictures/S_yt-NLfzvAJgyJ4_120.png	205.75311994552612	1.0208241939544678
137	174.35843086242676	response	0	j		135.0	/home/egter/Projects/stimuli/pictures/S_yt-NLfzvAJgyJ4_120.png	206.7613799571991	
138	174.37099504470825	picture	0		121.0	136.0	/home/egter/Projects/stimuli/pictures/S_yt-SgiTZNjCPCo_19.png	206.7739441394806	1.0069489479064941
138	175.36675596237183	response	0	j		136.0	/home/egter/Projects/stimuli/pictures/S_yt-SgiTZNjCPCo_19.png	207.76970505714417	
139	175.37794399261475	picture	0		120.0	137.0	/home/egter/Projects/stimuli/pictures/S_yt-fA0nOetbOJY_580.png	207.78089308738708	1.0000789165496826
139	176.3667278289795	response	0	j		137.0	/home/egter/Projects/stimuli/pictures/S_yt-fA0nOetbOJY_580.png	208.76967692375183	
140	176.37802290916443	picture	0		124.0	138.0	/home/egter/Projects/stimuli/pictures/n01945685_563.JPEG	208.78097200393677	1.0346250534057617
140	177.39351797103882	response	0	k		138.0	/home/egter/Projects/stimuli/pictures/n01945685_563.JPEG	209.79646706581116	
141	177.4126479625702	picture	0		123.0	139.0	/home/egter/Projects/stimuli/pictures/S_ILSVRC2015_train_00594000.png	209.81559705734253	1.0208098888397217
141	178.42504382133484	response	0	j		139.0	/home/egter/Projects/stimuli/pictures/S_ILSVRC2015_train_00594000.png	210.82799291610718	
142	178.4334578514099	picture	0		115.0	140.0	/home/egter/Projects/stimuli/pictures/n01685808_6392.JPEG	210.83640694618225	0.9583320617675781
142	179.37662196159363	response	0	k		140.0	/home/egter/Projects/stimuli/pictures/n01685808_6392.JPEG	211.77957105636597	
143	179.3917899131775	picture	0		141.0	141.0	/home/egter/Projects/stimuli/pictures/S_yt-Tt_LkR4iAt4_11.png	211.79473900794983	1.1805410385131836
143	180.5585708618164	response	0	j		141.0	/home/egter/Projects/stimuli/pictures/S_yt-Tt_LkR4iAt4_11.png	212.96151995658875	
144	180.57233095169067	picture	0		112.0	142.0	/home/egter/Projects/stimuli/pictures/n01855672_6523.JPEG	212.975280046463	0.9375078678131104
144	181.50005292892456	response	0	k		142.0	/home/egter/Projects/stimuli/pictures/n01855672_6523.JPEG	213.9030020236969	
145	181.50983881950378	picture	0		118.0	143.0	/home/egter/Projects/stimuli/pictures/S_yt-F3hhts3bwWg_25.png	213.91278791427612	0.9861512184143066
145	182.4833779335022	response	0	j		143.0	/home/egter/Projects/stimuli/pictures/S_yt-F3hhts3bwWg_25.png	214.88632702827454	
146	182.4959900379181	picture	0		114.0	144.0	/home/egter/Projects/stimuli/pictures/R_S_yt-Zn0YwrsCFOQ_44.png	214.89893913269043	0.9513177871704102
146	183.43355298042297	response	0	j		144.0	/home/egter/Projects/stimuli/pictures/R_S_yt-Zn0YwrsCFOQ_44.png	215.8365020751953	
147	183.4473078250885	picture	0		126.0	145.0	/home/egter/Projects/stimuli/pictures/S_yt-RNPFV7lgAvE_362.png	215.85025691986084	1.0555791854858398
147	184.49171996116638	response	0	k		145.0	/home/egter/Projects/stimuli/pictures/S_yt-RNPFV7lgAvE_362.png	216.89466905593872	
148	184.50288701057434	picture	0		135.0	146.0	/home/egter/Projects/stimuli/pictures/R_S_yt-9pUeQix6EW8_7.png	216.90583610534668	1.124979019165039
148	185.61674094200134	response	0	j		146.0	/home/egter/Projects/stimuli/pictures/R_S_yt-9pUeQix6EW8_7.png	218.01969003677368	
149	185.62786602973938	picture	0		119.0	147.0	/home/egter/Projects/stimuli/pictures/n04065272_12600.JPEG	218.03081512451172	0.9930408000946045
149	186.60164093971252	response	0	k		147.0	/home/egter/Projects/stimuli/pictures/n04065272_12600.JPEG	219.00459003448486	
150	186.62090682983398	picture	0		134.0	148.0	/home/egter/Projects/stimuli/pictures/S_ILSVRC2015_train_00552000.png	219.02385592460632	1.1181211471557617
150	187.7251799106598	response	0	k		148.0	/home/egter/Projects/stimuli/pictures/S_ILSVRC2015_train_00552000.png	220.12812900543213	
151	187.73902797698975	picture	0		151.0	149.0	/home/egter/Projects/stimuli/pictures/ILSVRC2012_test_00062032.JPEG	220.14197707176208	1.263800859451294
151	188.98485803604126	response	0	k		149.0	/home/egter/Projects/stimuli/pictures/ILSVRC2012_test_00062032.JPEG	221.3878071308136	
152	189.00282883644104	picture	0		417.0	150.0	/home/egter/Projects/stimuli/pictures/R_S_yt-1iB2ofPY1U8_16.png	221.40577793121338	3.4803810119628906
152	192.46666598320007	response	0	k		150.0	/home/egter/Projects/stimuli/pictures/R_S_yt-1iB2ofPY1U8_16.png	224.8696150779724	
153	192.48320984840393	picture	0		129.0	151.0	/home/egter/Projects/stimuli/pictures/S_AWfiZJsMWQg_99.png	224.88615894317627	1.075080156326294
153	193.5500190258026	response	0	k		151.0	/home/egter/Projects/stimuli/pictures/S_AWfiZJsMWQg_99.png	225.95296812057495	
154	193.55829000473022	picture	0		137.0	152.0	/home/egter/Projects/stimuli/pictures/n01984695_73026.JPEG	225.96123909950256	1.1458959579467773
154	194.69167590141296	response	0	k		152.0	/home/egter/Projects/stimuli/pictures/n01984695_73026.JPEG	227.0946249961853	
155	194.704185962677	picture	0		131.0	153.0	/home/egter/Projects/stimuli/pictures/n01729322_3734.JPEG	227.10713505744934	1.0902559757232666
155	195.77641987800598	response	0	k		153.0	/home/egter/Projects/stimuli/pictures/n01729322_3734.JPEG	228.17936897277832	
156	195.79444193840027	picture	0		117.0	154.0	/home/egter/Projects/stimuli/pictures/R_S_yt-cBCeq1NQgj0_1129.png	228.1973910331726	0.9721379280090332
156	196.75833201408386	response	0	j		154.0	/home/egter/Projects/stimuli/pictures/R_S_yt-cBCeq1NQgj0_1129.png	229.1612811088562	
157	196.7665798664093	picture	0		116.0	155.0	/home/egter/Projects/stimuli/pictures/S_ILSVRC2015_train_00560000.png	229.16952896118164	0.9723091125488281
157	197.7250509262085	response	0	k		155.0	/home/egter/Projects/stimuli/pictures/S_ILSVRC2015_train_00560000.png	230.12800002098083	
158	197.73888897895813	picture	0		137.0	156.0	/home/egter/Projects/stimuli/pictures/S_wc-_W9iefBXz8bi_23.png	230.14183807373047	1.1458048820495605
158	198.87495183944702	response	0	j		156.0	/home/egter/Projects/stimuli/pictures/S_wc-_W9iefBXz8bi_23.png	231.27790093421936	
159	198.8846938610077	picture	0		131.0	157.0	/home/egter/Projects/stimuli/pictures/R_S_yt-bZfmqTZ-d2k_112.png	231.28764295578003	1.104194164276123
159	199.97503685951233	response	0	j		157.0	/home/egter/Projects/stimuli/pictures/R_S_yt-bZfmqTZ-d2k_112.png	232.37798595428467	
160	199.9888880252838	picture	0		125.0	158.0	/home/egter/Projects/stimuli/pictures/S_yt-J_FnFAl1uL0_143.png	232.39183712005615	1.0485358238220215
160	201.02498984336853	response	0	j		158.0	/home/egter/Projects/stimuli/pictures/S_yt-J_FnFAl1uL0_143.png	233.42793893814087	
161	201.03742384910583	picture	0		128.0	159.0	/home/egter/Projects/stimuli/pictures/n04044716_899.JPEG	233.44037294387817	1.0763990879058838
161	202.100026845932	response	0	k		159.0	/home/egter/Projects/stimuli/pictures/n04044716_899.JPEG	234.50297594070435	
162	202.11382293701172	picture	0		132.0	160.0	/home/egter/Projects/stimuli/pictures/S_yt-w3c67AYl0rM_170.png	234.51677203178406	1.1041440963745117
162	203.20150685310364	response	0	k		160.0	/home/egter/Projects/stimuli/pictures/S_yt-w3c67AYl0rM_170.png	235.60445594787598	
163	203.21796703338623	picture	0		147.0	161.0	/home/egter/Projects/stimuli/pictures/ILSVRC2012_test_00022799.JPEG	235.62091612815857	1.2291688919067383
163	204.43332481384277	response	0	k		161.0	/home/egter/Projects/stimuli/pictures/ILSVRC2012_test_00022799.JPEG	236.8362739086151	
164	204.44713592529297	picture	0		124.0	162.0	/home/egter/Projects/stimuli/pictures/S_yt-xqHrTtvFFIs_3.png	236.8500850200653	1.0416619777679443
164	205.4750108718872	response	0	k		162.0	/home/egter/Projects/stimuli/pictures/S_yt-xqHrTtvFFIs_3.png	237.87795996665955	
165	205.4887979030609	picture	0		114.0	163.0	/home/egter/Projects/stimuli/pictures/S_yt-aiDGx4AN8J0_9.png	237.89174699783325	0.9583139419555664
165	206.43331789970398	response	0	j		163.0	/home/egter/Projects/stimuli/pictures/S_yt-aiDGx4AN8J0_9.png	238.83626699447632	
166	206.44711184501648	picture	0		118.0	164.0	/home/egter/Projects/stimuli/pictures/n01910747_877.JPEG	238.85006093978882	0.9860720634460449
166	207.42498087882996	response	0	k		164.0	/home/egter/Projects/stimuli/pictures/n01910747_877.JPEG	239.8279299736023	
167	207.43318390846252	picture	0		115.0	165.0	/home/egter/Projects/stimuli/pictures/S_yt-l_ioasf6yHg_44.png	239.83613300323486	0.9583230018615723
167	208.38326001167297	response	0	j		165.0	/home/egter/Projects/stimuli/pictures/S_yt-l_ioasf6yHg_44.png	240.7862091064453	
168	208.3915069103241	picture	0		105.0	166.0	/home/egter/Projects/stimuli/pictures/n03777568_17175.JPEG	240.79445600509644	0.8750350475311279
168	209.25828003883362	response	0	k		166.0	/home/egter/Projects/stimuli/pictures/n03777568_17175.JPEG	241.66122913360596	
169	209.26654195785522	picture	0		110.0	167.0	/home/egter/Projects/stimuli/pictures/n02687172_3406.JPEG	241.66949105262756	0.9166100025177002
169	210.1749620437622	response	0	k		167.0	/home/egter/Projects/stimuli/pictures/n02687172_3406.JPEG	242.57791113853455	
170	210.18315196037292	picture	0		307.0	168.0	/home/egter/Projects/stimuli/pictures/R_S_ILSVRC2015_train_00324002.png	242.58610105514526	2.5666420459747314
170	212.73325896263123	response	0	k		168.0	/home/egter/Projects/stimuli/pictures/R_S_ILSVRC2015_train_00324002.png	245.13620805740356	
171	212.74979400634766	picture	0		110.0	169.0	/home/egter/Projects/stimuli/pictures/S_yt-sGckFFOLO30_164.png	245.15274310112	0.9195888042449951
171	213.6583080291748	response	0	k		169.0	/home/egter/Projects/stimuli/pictures/S_yt-sGckFFOLO30_164.png	246.06125712394714	
172	213.66938281059265	picture	0		204.0	170.0	/home/egter/Projects/stimuli/pictures/S_yt-3TF_RGo9cLs_541.png	246.072331905365	1.7012650966644287
172	215.35826992988586	response	0	k		170.0	/home/egter/Projects/stimuli/pictures/S_yt-3TF_RGo9cLs_541.png	247.7612190246582	
173	215.37064790725708	picture	0		106.0	171.0	/home/egter/Projects/stimuli/pictures/S_yt-rlEPywo5BEQ_36.png	247.77359700202942	0.8819680213928223
173	216.24161100387573	response	0	j		171.0	/home/egter/Projects/stimuli/pictures/S_yt-rlEPywo5BEQ_36.png	248.64456009864807	
174	216.2526159286499	picture	0		109.0	172.0	/home/egter/Projects/stimuli/pictures/n01664065_22552.JPEG	248.65556502342224	0.9096870422363281
174	217.1499309539795	response	0	k		172.0	/home/egter/Projects/stimuli/pictures/n01664065_22552.JPEG	249.55288004875183	
175	217.16230297088623	picture	0		135.0	173.0	/home/egter/Projects/stimuli/pictures/n04005630_85500.JPEG	249.56525206565857	1.1250779628753662
175	218.2748899459839	response	0	k		173.0	/home/egter/Projects/stimuli/pictures/n04005630_85500.JPEG	250.67783904075623	
176	218.2873809337616	picture	0		145.0	174.0	/home/egter/Projects/stimuli/pictures/S_yt-GK83AyP3XXc_704.png	250.69033002853394	1.2151570320129395
176	219.4915850162506	response	0	k		174.0	/home/egter/Projects/stimuli/pictures/S_yt-GK83AyP3XXc_704.png	251.89453411102295	
177	219.50253796577454	picture	0		126.0	175.0	/home/egter/Projects/stimuli/pictures/n01694178_9940.JPEG	251.90548706054688	1.048658847808838
177	220.54158186912537	response	0	k		175.0	/home/egter/Projects/stimuli/pictures/n01694178_9940.JPEG	252.9445309638977	
178	220.55119681358337	picture	0		129.0	176.0	/home/egter/Projects/stimuli/pictures/R_S_yt-Gc1p5CnDbDY_22.png	252.9541459083557	1.0763311386108398
178	221.6098289489746	response	0	j		176.0	/home/egter/Projects/stimuli/pictures/R_S_yt-Gc1p5CnDbDY_22.png	254.01277804374695	
179	221.6275279521942	picture	0		128.0	177.0	/home/egter/Projects/stimuli/pictures/S_wc-AyT9mzwZsu0T_14.png	254.03047704696655	1.0694429874420166
179	222.68323302268982	response	0	j		177.0	/home/egter/Projects/stimuli/pictures/S_wc-AyT9mzwZsu0T_14.png	255.08618211746216	
180	222.69697093963623	picture	0		190.0	178.0	/home/egter/Projects/stimuli/pictures/S_yt-D9iwtEHx8M0_20.png	255.09992003440857	1.5902700424194336
180	224.27485585212708	response	0	k		178.0	/home/egter/Projects/stimuli/pictures/S_yt-D9iwtEHx8M0_20.png	256.6778049468994	
181	224.28724098205566	picture	0		121.0	179.0	/home/egter/Projects/stimuli/pictures/n03868863_4911.JPEG	256.690190076828	1.006950855255127
181	225.28322792053223	response	0	k		179.0	/home/egter/Projects/stimuli/pictures/n03868863_4911.JPEG	257.68617701530457	
182	225.2941918373108	stim	0		1525.0			257.69714093208313	12.70822811126709
182	237.99150800704956	response	0	space				270.3944571018219	
