trial_nr	onset	event_type	phase	response	nr_frames	picture_index	picture_file	onset_abs	duration
0	0.009628057479858398	stim	0		200.0			36.97936010360718	1.7047739028930664
0	1.3148300647735596	response	0	j				38.28456211090088	
0	1.6645870208740234	response	0	space				38.63431906700134	
2	1.7144019603729248	picture	0		157.0	0.0	/home/egter/Projects/stimuli/pictures/S_ILSVRC2015_train_00411001.png	38.684134006500244	1.3682141304016113
2	3.0246970653533936	response	0	j		0.0	/home/egter/Projects/stimuli/pictures/S_ILSVRC2015_train_00411001.png	39.99442911148071	
3	3.082616090774536	picture	0		103.0	1.0	/home/egter/Projects/stimuli/pictures/n04004767_2147.JPEG	40.052348136901855	0.8818230628967285
3	3.9312541484832764	response	0	k		1.0	/home/egter/Projects/stimuli/pictures/n04004767_2147.JPEG	40.900986194610596	
4	3.9644391536712646	picture	0		139.0	2.0	/home/egter/Projects/stimuli/pictures/n02910353_8726.JPEG	40.934171199798584	1.1944479942321777
4	5.114567041397095	response	0	j		2.0	/home/egter/Projects/stimuli/pictures/n02910353_8726.JPEG	42.084299087524414	
5	5.158887147903442	picture	0		152.0	3.0	/home/egter/Projects/stimuli/pictures/n02396427_1792.JPEG	42.12861919403076	1.2985429763793945
5	6.414574146270752	response	0	k		3.0	/home/egter/Projects/stimuli/pictures/n02396427_1792.JPEG	43.38430619239807	
6	6.457430124282837	picture	0		81.0	4.0	/home/egter/Projects/stimuli/pictures/S_yt-dO0OuozAgt0_225.png	43.427162170410156	0.7014620304107666
6	7.1229729652404785	response	0	j		4.0	/home/egter/Projects/stimuli/pictures/S_yt-dO0OuozAgt0_225.png	44.0927050113678	
7	7.1588921546936035	picture	0		310.0	5.0	/home/egter/Projects/stimuli/pictures/R_S_yt-QI6k6mhpxLo_453.png	44.12862420082092	2.6055099964141846
7	9.73117709159851	response	0	j		5.0	/home/egter/Projects/stimuli/pictures/R_S_yt-QI6k6mhpxLo_453.png	46.70090913772583	
8	9.764402151107788	picture	0		161.0	6.0	/home/egter/Projects/stimuli/pictures/S_yt-cu4AVz6o2eg_24.png	46.73413419723511	1.3750247955322266
8	11.097869157791138	response	0	k		6.0	/home/egter/Projects/stimuli/pictures/S_yt-cu4AVz6o2eg_24.png	48.06760120391846	
9	11.139426946640015	picture	0		106.0	7.0	/home/egter/Projects/stimuli/pictures/n01498041_2018.JPEG	48.109158992767334	0.8874092102050781
9	12.014536142349243	response	0	k		7.0	/home/egter/Projects/stimuli/pictures/n01498041_2018.JPEG	48.98426818847656	
10	12.026836156845093	picture	0		78.0	8.0	/home/egter/Projects/stimuli/pictures/n02002724_7136.JPEG	48.99656820297241	0.6875338554382324
10	12.657689094543457	response	0	k		8.0	/home/egter/Projects/stimuli/pictures/n02002724_7136.JPEG	49.627421140670776	
11	12.714370012283325	picture	0		73.0	9.0	/home/egter/Projects/stimuli/pictures/n03670208_1969.JPEG	49.684102058410645	0.6333680152893066
11	13.314584016799927	response	0	k		9.0	/home/egter/Projects/stimuli/pictures/n03670208_1969.JPEG	50.284316062927246	
12	13.347738027572632	picture	0		68.0	10.0	/home/egter/Projects/stimuli/pictures/n03344393_6139.JPEG	50.31747007369995	0.6026990413665771
12	13.906119108200073	response	0	k		10.0	/home/egter/Projects/stimuli/pictures/n03344393_6139.JPEG	50.87585115432739	
13	13.950437068939209	picture	0		72.0	11.0	/home/egter/Projects/stimuli/pictures/n02058221_8025.JPEG	50.92016911506653	0.638922929763794
13	14.539528131484985	response	0	k		11.0	/home/egter/Projects/stimuli/pictures/n02058221_8025.JPEG	51.509260177612305	
14	14.589359998703003	picture	0		80.0	12.0	/home/egter/Projects/stimuli/pictures/R_S_yt-_WFwhcmbXXY_51.png	51.55909204483032	0.7003750801086426
14	15.24118709564209	response	0	j		12.0	/home/egter/Projects/stimuli/pictures/R_S_yt-_WFwhcmbXXY_51.png	52.21091914176941	
15	15.289735078811646	picture	0		89.0	13.0	/home/egter/Projects/stimuli/pictures/n01798484_10633.JPEG	52.259467124938965	0.7662949562072754
15	16.022863149642944	response	0	k		13.0	/home/egter/Projects/stimuli/pictures/n01798484_10633.JPEG	52.992595195770264	
16	16.05603003501892	picture	0		142.0	14.0	/home/egter/Projects/stimuli/pictures/R_S_yt-s5YONFy3vb4_46.png	53.02576208114624	1.216667890548706
16	17.231182098388672	response	0	j		14.0	/home/egter/Projects/stimuli/pictures/R_S_yt-s5YONFy3vb4_46.png	54.20091414451599	
17	17.272697925567627	picture	0		67.0	15.0	/home/egter/Projects/stimuli/pictures/n13052670_10406.JPEG	54.242429971694946	0.5596380233764648
17	17.822813987731934	response	0	k		15.0	/home/egter/Projects/stimuli/pictures/n13052670_10406.JPEG	54.79254603385925	
18	17.832335948944092	picture	0		99.0	16.0	/home/egter/Projects/stimuli/pictures/S_yt-AKRjrTvvxFc_1804.png	54.80206799507141	0.8545160293579102
18	18.641305923461914	response	0	k		16.0	/home/egter/Projects/stimuli/pictures/S_yt-AKRjrTvvxFc_1804.png	55.61103796958923	
19	18.686851978302002	picture	0		69.0	17.0	/home/egter/Projects/stimuli/pictures/R_S_yt_R-JarqKC4X8nM_4.png	55.65658402442932	0.5968961715698242
19	19.249511003494263	response	0	j		17.0	/home/egter/Projects/stimuli/pictures/R_S_yt_R-JarqKC4X8nM_4.png	56.21924304962158	
20	19.283748149871826	picture	0		84.0	18.0	/home/egter/Projects/stimuli/pictures/S_yt-IDpUZ2NWBUY_60.png	56.253480195999146	0.705629825592041
20	19.972814083099365	response	0	j		18.0	/home/egter/Projects/stimuli/pictures/S_yt-IDpUZ2NWBUY_60.png	56.942546129226685	
21	19.989377975463867	picture	0		72.0	19.0	/home/egter/Projects/stimuli/pictures/S_yt-JmmyeMOFpII_29.png	56.95911002159119	0.6333451271057129
21	20.581115007400513	response	0	j		19.0	/home/egter/Projects/stimuli/pictures/S_yt-JmmyeMOFpII_29.png	57.55084705352783	
22	20.62272310256958	picture	0		66.0	20.0	/home/egter/Projects/stimuli/pictures/S_yt-bshHX6vWLtA_84.png	57.5924551486969	0.566666841506958
22	21.16443395614624	response	0	j		20.0	/home/egter/Projects/stimuli/pictures/S_yt-bshHX6vWLtA_84.png	58.13416600227356	
23	21.189389944076538	picture	0		71.0	21.0	/home/egter/Projects/stimuli/pictures/n03785016_18313.JPEG	58.15912199020386	0.6220951080322266
23	21.772804975509644	response	0	k		21.0	/home/egter/Projects/stimuli/pictures/n03785016_18313.JPEG	58.74253702163696	
24	21.811485052108765	picture	0		117.0	22.0	/home/egter/Projects/stimuli/pictures/S_yt-ORE2V_VvOpg_67.png	58.781217098236084	1.0116000175476074
24	22.781131982803345	response	0	k		22.0	/home/egter/Projects/stimuli/pictures/S_yt-ORE2V_VvOpg_67.png	59.750864028930664	
25	22.823085069656372	picture	0		68.0	23.0	/home/egter/Projects/stimuli/pictures/R_S_yt-IDpUZ2NWBUY_60.png	59.79281711578369	0.5996098518371582
25	23.38113808631897	response	0	j		23.0	/home/egter/Projects/stimuli/pictures/R_S_yt-IDpUZ2NWBUY_60.png	60.35087013244629	
26	23.42269492149353	picture	0		83.0	24.0	/home/egter/Projects/stimuli/pictures/S_wc-6or3Gl2Fif0m_13.png	60.39242696762085	0.6942720413208008
26	24.106184005737305	response	0	j		24.0	/home/egter/Projects/stimuli/pictures/S_wc-6or3Gl2Fif0m_13.png	61.075916051864624	
27	24.11696696281433	picture	0		92.0	25.0	/home/egter/Projects/stimuli/pictures/S_yt-s8Egk0W1Uck_39.png	61.08669900894165	0.7640149593353271
27	24.872810125350952	response	0	k		25.0	/home/egter/Projects/stimuli/pictures/S_yt-s8Egk0W1Uck_39.png	61.84254217147827	
28	24.880981922149658	picture	0		79.0	26.0	/home/egter/Projects/stimuli/pictures/R_S_yt-GETRVzxihhM_74.png	61.85071396827698	0.675023078918457
28	25.531147956848145	response	0	k		26.0	/home/egter/Projects/stimuli/pictures/R_S_yt-GETRVzxihhM_74.png	62.500880002975464	
29	25.556005001068115	picture	0		516.0	27.0	/home/egter/Projects/stimuli/pictures/S_yt-ChAhBD9LrsU_223.png	62.525737047195435	4.310984134674072
29	29.840925931930542	response	0	k		27.0	/home/egter/Projects/stimuli/pictures/S_yt-ChAhBD9LrsU_223.png	66.81065797805786	
30	29.866989135742188	picture	0		88.0	28.0	/home/egter/Projects/stimuli/pictures/S_yt-R9Iabv0XgOQ_80.png	66.8367211818695	0.7390179634094238
30	30.589448928833008	response	0	j		28.0	/home/egter/Projects/stimuli/pictures/S_yt-R9Iabv0XgOQ_80.png	67.55918097496033	
31	30.60600709915161	picture	0		90.0	29.0	/home/egter/Projects/stimuli/pictures/R_S_yt-OPzchvF7jO8_53.png	67.57573914527893	0.7583098411560059
31	31.347767114639282	response	0	j		29.0	/home/egter/Projects/stimuli/pictures/R_S_yt-OPzchvF7jO8_53.png	68.3174991607666	
32	31.364316940307617	picture	0		73.0	30.0	/home/egter/Projects/stimuli/pictures/S_comp_GMT329_113NC_396B_1105_CHINA_v04_SDR_FINAL_20180706_F900F2700_SDR_2K_AVC.png	68.33404898643494	0.6166670322418213
32	31.964483976364136	response	0	j		30.0	/home/egter/Projects/stimuli/pictures/S_comp_GMT329_113NC_396B_1105_CHINA_v04_SDR_FINAL_20180706_F900F2700_SDR_2K_AVC.png	68.93421602249146	
33	31.98098397254944	picture	0		85.0	31.0	/home/egter/Projects/stimuli/pictures/S_b2-2.png	68.95071601867676	0.7166481018066406
33	32.67427706718445	response	0	j		31.0	/home/egter/Projects/stimuli/pictures/S_b2-2.png	69.64400911331177	
34	32.69763207435608	picture	0		92.0	32.0	/home/egter/Projects/stimuli/pictures/n02487347_1261.JPEG	69.6673641204834	0.7750110626220703
34	33.44927501678467	response	0	k		32.0	/home/egter/Projects/stimuli/pictures/n02487347_1261.JPEG	70.41900706291199	
35	33.47264313697815	picture	0		82.0	33.0	/home/egter/Projects/stimuli/pictures/n01641577_6980.JPEG	70.44237518310547	0.6917459964752197
35	34.147769927978516	response	0	k		33.0	/home/egter/Projects/stimuli/pictures/n01641577_6980.JPEG	71.11750197410583	
36	34.16438913345337	picture	0		104.0	34.0	/home/egter/Projects/stimuli/pictures/S_ILSVRC2015_train_00251005.png	71.13412117958069	0.8748869895935059
36	35.02285099029541	response	0	j		34.0	/home/egter/Projects/stimuli/pictures/S_ILSVRC2015_train_00251005.png	71.99258303642273	
37	35.039276123046875	picture	0		129.0	35.0	/home/egter/Projects/stimuli/pictures/S_yt-Tt_LkR4iAt4_11.png	72.0090081691742	1.0916860103607178
37	36.106120109558105	response	0	j		35.0	/home/egter/Projects/stimuli/pictures/S_yt-Tt_LkR4iAt4_11.png	73.07585215568542	
38	36.13096213340759	picture	0		78.0	36.0	/home/egter/Projects/stimuli/pictures/n07693725_8087.JPEG	73.10069417953491	0.6526148319244385
38	36.77276396751404	response	0	k		36.0	/home/egter/Projects/stimuli/pictures/n07693725_8087.JPEG	73.74249601364136	
39	36.78357696533203	picture	0		125.0	37.0	/home/egter/Projects/stimuli/pictures/S_wc-lItGMdwvEd_l_7.png	73.75330901145935	1.047382116317749
39	37.81438493728638	response	0	j		37.0	/home/egter/Projects/stimuli/pictures/S_wc-lItGMdwvEd_l_7.png	74.7841169834137	
40	37.83095908164978	picture	0		193.0	38.0	/home/egter/Projects/stimuli/pictures/R_S_video_inspire_california_santa-barbara_050.png	74.8006911277771	1.6122839450836182
40	39.43109107017517	response	0	j		38.0	/home/egter/Projects/stimuli/pictures/R_S_video_inspire_california_santa-barbara_050.png	76.40082311630249	
41	39.4432430267334	picture	0		100.0	39.0	/home/egter/Projects/stimuli/pictures/S_yt-McqS-QObQbk_122.png	76.41297507286072	0.837744951248169
41	40.257641077041626	response	0	j		39.0	/home/egter/Projects/stimuli/pictures/S_yt-McqS-QObQbk_122.png	77.22737312316895	
42	40.28098797798157	picture	0		97.0	40.0	/home/egter/Projects/stimuli/pictures/n03126707_4352.JPEG	77.25072002410889	0.8166360855102539
42	41.074300050735474	response	0	k		40.0	/home/egter/Projects/stimuli/pictures/n03126707_4352.JPEG	78.0440320968628	
43	41.09762406349182	picture	0		72.0	41.0	/home/egter/Projects/stimuli/pictures/S_yt-ZfDtalvUK5k_36.png	78.06735610961914	0.6083259582519531
43	41.68937301635742	response	0	j		41.0	/home/egter/Projects/stimuli/pictures/S_yt-ZfDtalvUK5k_36.png	78.65910506248474	
44	41.705950021743774	picture	0		99.0	42.0	/home/egter/Projects/stimuli/pictures/S_yt-F3hhts3bwWg_25.png	78.6756820678711	0.8333151340484619
44	42.52267813682556	response	0	j		42.0	/home/egter/Projects/stimuli/pictures/S_yt-F3hhts3bwWg_25.png	79.49241018295288	
45	42.539265155792236	picture	0		103.0	43.0	/home/egter/Projects/stimuli/pictures/S_production_ID_4269182.png	79.50899720191956	0.8833489418029785
45	43.38938808441162	response	0	j		43.0	/home/egter/Projects/stimuli/pictures/S_production_ID_4269182.png	80.35912013053894	
46	43.422614097595215	picture	0		94.0	44.0	/home/egter/Projects/stimuli/pictures/S_bing-www_msn_com_en-us_video_news_tommy-lasorda-salutes-national-league-champs_vp-AAtLThQ_4.png	80.39234614372253	0.8000059127807617
46	44.19773602485657	response	0	j		44.0	/home/egter/Projects/stimuli/pictures/S_bing-www_msn_com_en-us_video_news_tommy-lasorda-salutes-national-league-champs_vp-AAtLThQ_4.png	81.16746807098389	
47	44.22262001037598	picture	0		123.0	45.0	/home/egter/Projects/stimuli/pictures/n02701002_1341.JPEG	81.1923520565033	1.0416169166564941
47	45.239397048950195	response	0	k		45.0	/home/egter/Projects/stimuli/pictures/n02701002_1341.JPEG	82.20912909507751	
48	45.26423692703247	picture	0		116.0	46.0	/home/egter/Projects/stimuli/pictures/S_bing-www_dailymotion_com_video_x64hzm7_8.png	82.23396897315979	0.9845130443572998
48	46.222700119018555	response	0	j		46.0	/home/egter/Projects/stimuli/pictures/S_bing-www_dailymotion_com_video_x64hzm7_8.png	83.19243216514587	
49	46.24874997138977	picture	0		77.0	47.0	/home/egter/Projects/stimuli/pictures/n04346328_4330.JPEG	83.21848201751709	0.659743070602417
49	46.874200105667114	response	0	k		47.0	/home/egter/Projects/stimuli/pictures/n04346328_4330.JPEG	83.84393215179443	
50	46.90849304199219	picture	0		75.0	48.0	/home/egter/Projects/stimuli/pictures/S_yt-loYSF41PfgI_79.png	83.8782250881195	0.6391260623931885
50	47.522680044174194	response	0	j		48.0	/home/egter/Projects/stimuli/pictures/S_yt-loYSF41PfgI_79.png	84.49241209030151	
51	47.547619104385376	picture	0		90.0	49.0	/home/egter/Projects/stimuli/pictures/n03496892_14834.JPEG	84.5173511505127	0.7582778930664062
51	48.289353132247925	response	0	k		49.0	/home/egter/Projects/stimuli/pictures/n03496892_14834.JPEG	85.25908517837524	
52	48.30589699745178	picture	0		91.0	50.0	/home/egter/Projects/stimuli/pictures/R_S_yt-kP7VNn9QIo4_53.png	85.2756290435791	0.7622709274291992
52	49.0492000579834	response	0	j		50.0	/home/egter/Projects/stimuli/pictures/R_S_yt-kP7VNn9QIo4_53.png	86.01893210411072	
53	49.06816792488098	picture	0		76.0	51.0	/home/egter/Projects/stimuli/pictures/n03485407_1212.JPEG	86.0378999710083	0.6460561752319336
53	49.68936109542847	response	0	k		51.0	/home/egter/Projects/stimuli/pictures/n03485407_1212.JPEG	86.65909314155579	
54	49.714224100112915	picture	0		160.0	52.0	/home/egter/Projects/stimuli/pictures/S_yt-mWL9DHq4eRI_501.png	86.68395614624023	1.358353853225708
54	51.039348125457764	response	0	k		52.0	/home/egter/Projects/stimuli/pictures/S_yt-mWL9DHq4eRI_501.png	88.00908017158508	
55	51.07257795333862	picture	0		77.0	53.0	/home/egter/Projects/stimuli/pictures/n02514041_4535.JPEG	88.04230999946594	0.6585249900817871
55	51.70602893829346	response	0	k		53.0	/home/egter/Projects/stimuli/pictures/n02514041_4535.JPEG	88.67576098442078	
56	51.73110294342041	picture	0		89.0	54.0	/home/egter/Projects/stimuli/pictures/n03127925_9537.JPEG	88.70083498954773	0.7676100730895996
56	52.457581996917725	response	0	k		54.0	/home/egter/Projects/stimuli/pictures/n03127925_9537.JPEG	89.42731404304504	
57	52.49871301651001	picture	0		110.0	55.0	/home/egter/Projects/stimuli/pictures/n09246464_42267.JPEG	89.46844506263733	0.9321761131286621
57	53.405925035476685	response	0	k		55.0	/home/egter/Projects/stimuli/pictures/n09246464_42267.JPEG	90.375657081604	
58	53.43088912963867	picture	0		89.0	56.0	/home/egter/Projects/stimuli/pictures/n01944390_3807.JPEG	90.40062117576599	0.7552618980407715
58	54.16434407234192	response	0	k		56.0	/home/egter/Projects/stimuli/pictures/n01944390_3807.JPEG	91.13407611846924	
59	54.18615102767944	picture	0		87.0	57.0	/home/egter/Projects/stimuli/pictures/S_yt-wPXrAuiiRZg_1062.png	91.15588307380676	0.7363901138305664
59	54.90598201751709	response	0	j		57.0	/home/egter/Projects/stimuli/pictures/S_yt-wPXrAuiiRZg_1062.png	91.87571406364441	
60	54.92254114151001	picture	0		101.0	58.0	/home/egter/Projects/stimuli/pictures/n13044778_1117.JPEG	91.89227318763733	1.4511029720306396
60	55.75602912902832	response	0	k		58.0	/home/egter/Projects/stimuli/pictures/n13044778_1117.JPEG	92.72576117515564	
61	56.37364411354065	picture	0		1.0	59.0	/home/egter/Projects/stimuli/pictures/S_yt-LdHRVIb4nIE_6.png	93.34337615966797	0.07389283180236816
61	56.36876201629639	response	0	k		59.0	/home/egter/Projects/stimuli/pictures/S_yt-LdHRVIb4nIE_6.png	93.3384940624237	
62	56.44753694534302	picture	0		522.0	60.0	/home/egter/Projects/stimuli/pictures/n04613696_7610.JPEG	93.41726899147034	4.377479076385498
62	60.79765701293945	response	0	j		60.0	/home/egter/Projects/stimuli/pictures/n04613696_7610.JPEG	97.76738905906677	
63	60.825016021728516	picture	0		77.0	61.0	/home/egter/Projects/stimuli/pictures/S_production_ID_5049072.png	97.79474806785583	0.6558561325073242
63	61.45598602294922	response	0	j		61.0	/home/egter/Projects/stimuli/pictures/S_production_ID_5049072.png	98.42571806907654	
64	61.48087215423584	picture	0		91.0	62.0	/home/egter/Projects/stimuli/pictures/ILSVRC2012_val_00013084.JPEG	98.45060420036316	0.774979829788208
64	62.23099207878113	response	0	k		62.0	/home/egter/Projects/stimuli/pictures/ILSVRC2012_val_00013084.JPEG	99.20072412490845	
65	62.25585198402405	picture	0		91.0	63.0	/home/egter/Projects/stimuli/pictures/n02363005_1800.JPEG	99.22558403015137	0.7774391174316406
65	63.0059609413147	response	0	k		63.0	/home/egter/Projects/stimuli/pictures/n02363005_1800.JPEG	99.97569298744202	
66	63.03329110145569	picture	0		91.0	64.0	/home/egter/Projects/stimuli/pictures/S_yt-jeVeQBuzbEQ_120.png	100.00302314758301	0.772554874420166
66	63.78098511695862	response	0	j		64.0	/home/egter/Projects/stimuli/pictures/S_yt-jeVeQBuzbEQ_120.png	100.75071716308594	
67	63.805845975875854	picture	0		76.0	65.0	/home/egter/Projects/stimuli/pictures/R_S_yt-Fm97IY0Z2LU_79.png	100.77557802200317	0.6583220958709717
67	64.43090415000916	response	0	j		65.0	/home/egter/Projects/stimuli/pictures/R_S_yt-Fm97IY0Z2LU_79.png	101.40063619613647	
68	64.46416807174683	picture	0		77.0	66.0	/home/egter/Projects/stimuli/pictures/R_S_comp_LA_A005_C009_PSNK_ALT_v09_SDR_PS_201809134_SDR_2K_AVC.png	101.43390011787415	0.6595098972320557
68	65.09762501716614	response	0	j		66.0	/home/egter/Projects/stimuli/pictures/R_S_comp_LA_A005_C009_PSNK_ALT_v09_SDR_PS_201809134_SDR_2K_AVC.png	102.06735706329346	
69	65.12367796897888	picture	0		86.0	67.0	/home/egter/Projects/stimuli/pictures/n03670208_1506.JPEG	102.0934100151062	0.7238149642944336
69	65.83099913597107	response	0	k		67.0	/home/egter/Projects/stimuli/pictures/n03670208_1506.JPEG	102.80073118209839	
70	65.84749293327332	picture	0		87.0	68.0	/home/egter/Projects/stimuli/pictures/S_SPNvf6JCjGw_123.png	102.81722497940063	0.7583930492401123
70	66.56428694725037	response	0	j		68.0	/home/egter/Projects/stimuli/pictures/S_SPNvf6JCjGw_123.png	103.53401899337769	
71	66.60588598251343	picture	0		88.0	69.0	/home/egter/Projects/stimuli/pictures/S_yt-xroq1qyorNo_113.png	103.57561802864075	0.7537751197814941
71	67.33094906806946	response	0	k		69.0	/home/egter/Projects/stimuli/pictures/S_yt-xroq1qyorNo_113.png	104.30068111419678	
72	67.35966110229492	picture	0		127.0	70.0	/home/egter/Projects/stimuli/pictures/R_S_yt-AbJBxqEYoMg_27.png	104.32939314842224	1.079507827758789
72	68.4059751033783	response	0	j		70.0	/home/egter/Projects/stimuli/pictures/R_S_yt-AbJBxqEYoMg_27.png	105.37570714950562	
73	68.43916893005371	picture	0		91.0	71.0	/home/egter/Projects/stimuli/pictures/R_S_yt-RNPFV7lgAvE_362.png	105.40890097618103	0.7676670551300049
73	69.1892409324646	response	0	j		71.0	/home/egter/Projects/stimuli/pictures/R_S_yt-RNPFV7lgAvE_362.png	106.15897297859192	
74	69.20683598518372	picture	0		86.0	72.0	/home/egter/Projects/stimuli/pictures/R_S_yt-dj0XQUJos38_14.png	106.17656803131104	0.7430710792541504
74	69.9142849445343	response	0	j		72.0	/home/egter/Projects/stimuli/pictures/R_S_yt-dj0XQUJos38_14.png	106.88401699066162	
75	69.94990706443787	picture	0		88.0	73.0	/home/egter/Projects/stimuli/pictures/n07747607_14017.JPEG	106.91963911056519	0.739253044128418
75	70.66580009460449	response	0	k		73.0	/home/egter/Projects/stimuli/pictures/n07747607_14017.JPEG	107.63553214073181	
76	70.68916010856628	picture	0		122.0	74.0	/home/egter/Projects/stimuli/pictures/R_S_yt-PYHK810V_n8_1375.png	107.6588921546936	1.02537202835083
76	71.69759011268616	response	0	k		74.0	/home/egter/Projects/stimuli/pictures/R_S_yt-PYHK810V_n8_1375.png	108.66732215881348	
77	71.71453213691711	picture	0		79.0	75.0	/home/egter/Projects/stimuli/pictures/S_yt-Y32yFYRmNVU_22.png	108.68426418304443	0.666254997253418
77	72.3643090724945	response	0	k		75.0	/home/egter/Projects/stimuli/pictures/S_yt-Y32yFYRmNVU_22.png	109.33404111862183	
78	72.38078713417053	picture	0		64.0	76.0	/home/egter/Projects/stimuli/pictures/R_S_ILSVRC2015_train_00628000.png	109.35051918029785	0.54168701171875
78	72.90597105026245	response	0	k		76.0	/home/egter/Projects/stimuli/pictures/R_S_ILSVRC2015_train_00628000.png	109.87570309638977	
79	72.92247414588928	picture	0		79.0	77.0	/home/egter/Projects/stimuli/pictures/n02974003_106.JPEG	109.8922061920166	0.6749889850616455
79	73.57261300086975	response	0	k		77.0	/home/egter/Projects/stimuli/pictures/n02974003_106.JPEG	110.54234504699707	
80	73.59746313095093	picture	0		76.0	78.0	/home/egter/Projects/stimuli/pictures/S_pexels-koolshooters-7689098.png	110.56719517707825	0.6416759490966797
80	74.22260093688965	response	0	j		78.0	/home/egter/Projects/stimuli/pictures/S_pexels-koolshooters-7689098.png	111.19233298301697	
81	74.23913908004761	picture	0		75.0	79.0	/home/egter/Projects/stimuli/pictures/n03014705_32336.JPEG	111.20887112617493	0.6343090534210205
81	74.85594606399536	response	0	k		79.0	/home/egter/Projects/stimuli/pictures/n03014705_32336.JPEG	111.82567811012268	
82	74.87344813346863	picture	0		79.0	80.0	/home/egter/Projects/stimuli/pictures/S_yt-AHbFln6blfE_36.png	111.84318017959595	0.6906418800354004
82	75.5225920677185	response	0	j		80.0	/home/egter/Projects/stimuli/pictures/S_yt-AHbFln6blfE_36.png	112.49232411384583	
83	75.56409001350403	picture	0		64.0	81.0	/home/egter/Projects/stimuli/pictures/n01685808_6392.JPEG	112.53382205963135	0.5454869270324707
83	76.08239197731018	response	0	k		81.0	/home/egter/Projects/stimuli/pictures/n01685808_6392.JPEG	113.0521240234375	
84	76.1095769405365	picture	0		239.0	82.0	/home/egter/Projects/stimuli/pictures/n13037406_3107.JPEG	113.07930898666382	2.0069591999053955
84	78.08243107795715	response	0	k		82.0	/home/egter/Projects/stimuli/pictures/n13037406_3107.JPEG	115.05216312408447	
85	78.1165361404419	picture	0		95.0	83.0	/home/egter/Projects/stimuli/pictures/n02655020_2268.JPEG	115.08626818656921	0.7975327968597412
85	78.8908040523529	response	0	j		83.0	/home/egter/Projects/stimuli/pictures/n02655020_2268.JPEG	115.86053609848022	
86	78.91406893730164	picture	0		94.0	84.0	/home/egter/Projects/stimuli/pictures/S_yt-n12iRXTksXA_65.png	115.88380098342896	0.7916970252990723
86	79.68240594863892	response	0	k		84.0	/home/egter/Projects/stimuli/pictures/S_yt-n12iRXTksXA_65.png	116.65213799476624	
87	79.70576596260071	picture	0		90.0	85.0	/home/egter/Projects/stimuli/pictures/n03452741_4785.JPEG	116.67549800872803	0.758303165435791
87	80.44757604598999	response	0	k		85.0	/home/egter/Projects/stimuli/pictures/n03452741_4785.JPEG	117.41730809211731	
88	80.4640691280365	picture	0		101.0	86.0	/home/egter/Projects/stimuli/pictures/R_S_yt-I2n2eo2zoZs_94.png	117.43380117416382	0.8501749038696289
88	81.29068899154663	response	0	j		86.0	/home/egter/Projects/stimuli/pictures/R_S_yt-I2n2eo2zoZs_94.png	118.26042103767395	
89	81.31424403190613	picture	0		73.0	87.0	/home/egter/Projects/stimuli/pictures/n02704792_6350.JPEG	118.28397607803345	0.6165549755096436
89	81.91421103477478	response	0	k		87.0	/home/egter/Projects/stimuli/pictures/n02704792_6350.JPEG	118.8839430809021	
90	81.93079900741577	picture	0		78.0	88.0	/home/egter/Projects/stimuli/pictures/R_S_wc-ujHd_fPVcSlX_10.png	118.90053105354309	0.6583011150360107
90	82.57257413864136	response	0	j		88.0	/home/egter/Projects/stimuli/pictures/R_S_wc-ujHd_fPVcSlX_10.png	119.54230618476868	
91	82.58910012245178	picture	0		60.0	89.0	/home/egter/Projects/stimuli/pictures/n01729322_10562.JPEG	119.5588321685791	0.5083329677581787
91	83.07402896881104	response	0	k		89.0	/home/egter/Projects/stimuli/pictures/n01729322_10562.JPEG	120.04376101493835	
92	83.09743309020996	picture	0		73.0	90.0	/home/egter/Projects/stimuli/pictures/S_ILSVRC2015_train_00661001.png	120.06716513633728	0.6093108654022217
92	83.69073605537415	response	0	j		90.0	/home/egter/Projects/stimuli/pictures/S_ILSVRC2015_train_00661001.png	120.66046810150146	
93	83.70674395561218	picture	0		80.0	91.0	/home/egter/Projects/stimuli/pictures/R_S_video_inspire_california_vineyard_sierra-mar_sunrise_110.png	120.6764760017395	0.674004077911377
93	84.36424493789673	response	0	k		91.0	/home/egter/Projects/stimuli/pictures/R_S_video_inspire_california_vineyard_sierra-mar_sunrise_110.png	121.33397698402405	
94	84.38074803352356	picture	0		69.0	92.0	/home/egter/Projects/stimuli/pictures/S_comp_LA_A005_C009_PSNK_ALT_v09_SDR_PS_201809134_SDR_2K_AVC.png	121.35048007965088	0.5917000770568848
94	84.94751596450806	response	0	j		92.0	/home/egter/Projects/stimuli/pictures/S_comp_LA_A005_C009_PSNK_ALT_v09_SDR_PS_201809134_SDR_2K_AVC.png	121.91724801063538	
95	84.97244811058044	picture	0		99.0	93.0	/home/egter/Projects/stimuli/pictures/S_video_inspire_california_santa-barbara_050.png	121.94218015670776	0.8384699821472168
95	85.78923106193542	response	0	j		93.0	/home/egter/Projects/stimuli/pictures/S_video_inspire_california_santa-barbara_050.png	122.75896310806274	
96	85.81091809272766	picture	0		184.0	94.0	/home/egter/Projects/stimuli/pictures/R_S_yt-IT741UWKVzg_34.png	122.78065013885498	1.5624549388885498
96	87.33921098709106	response	0	j		94.0	/home/egter/Projects/stimuli/pictures/R_S_yt-IT741UWKVzg_34.png	124.30894303321838	
97	87.37337303161621	picture	0		315.0	95.0	/home/egter/Projects/stimuli/pictures/ILSVRC2012_test_00002910.JPEG	124.34310507774353	2.6406679153442383
97	89.98920202255249	response	0	k		95.0	/home/egter/Projects/stimuli/pictures/ILSVRC2012_test_00002910.JPEG	126.95893406867981	
98	90.01404094696045	picture	0		103.0	96.0	/home/egter/Projects/stimuli/pictures/n04465501_10455.JPEG	126.98377299308777	0.8667080402374268
98	90.8641619682312	response	0	k		96.0	/home/egter/Projects/stimuli/pictures/n04465501_10455.JPEG	127.83389401435852	
99	90.88074898719788	picture	0		96.0	97.0	/home/egter/Projects/stimuli/pictures/S_pexels-mart-production-7698911.png	127.8504810333252	0.8189921379089355
99	91.6657440662384	response	0	j		97.0	/home/egter/Projects/stimuli/pictures/S_pexels-mart-production-7698911.png	128.63547611236572	
100	91.69974112510681	picture	0		99.0	98.0	/home/egter/Projects/stimuli/pictures/n07693725_2077.JPEG	128.66947317123413	0.8333449363708496
100	92.51421403884888	response	0	k		98.0	/home/egter/Projects/stimuli/pictures/n07693725_2077.JPEG	129.4839460849762	
101	92.53308606147766	picture	0		94.0	99.0	/home/egter/Projects/stimuli/pictures/n02454379_7320.JPEG	129.50281810760498	0.7987759113311768
101	93.29895615577698	response	0	k		99.0	/home/egter/Projects/stimuli/pictures/n02454379_7320.JPEG	130.2686882019043	
102	93.33186197280884	picture	0		93.0	100.0	/home/egter/Projects/stimuli/pictures/n07717410_10993.JPEG	130.30159401893616	0.7844810485839844
102	94.09065914154053	response	0	k		100.0	/home/egter/Projects/stimuli/pictures/n07717410_10993.JPEG	131.06039118766785	
103	94.11634302139282	picture	0		104.0	101.0	/home/egter/Projects/stimuli/pictures/n02814533_63202.JPEG	131.08607506752014	0.8726871013641357
103	94.97250294685364	response	0	k		101.0	/home/egter/Projects/stimuli/pictures/n02814533_63202.JPEG	131.94223499298096	
104	94.98903012275696	picture	0		158.0	102.0	/home/egter/Projects/stimuli/pictures/S_yt-kP7VNn9QIo4_53.png	131.95876216888428	1.3250110149383545
104	96.29072713851929	response	0	j		102.0	/home/egter/Projects/stimuli/pictures/S_yt-kP7VNn9QIo4_53.png	133.2604591846466	
105	96.31404113769531	picture	0		139.0	103.0	/home/egter/Projects/stimuli/pictures/R_S_ILSVRC2015_train_00292006.png	133.28377318382263	1.1773009300231934
105	97.46416115760803	response	0	k		103.0	/home/egter/Projects/stimuli/pictures/R_S_ILSVRC2015_train_00292006.png	134.43389320373535	
106	97.4913420677185	picture	0		77.0	104.0	/home/egter/Projects/stimuli/pictures/n02009229_5911.JPEG	134.46107411384583	0.6560359001159668
106	98.12246799468994	response	0	k		104.0	/home/egter/Projects/stimuli/pictures/n02009229_5911.JPEG	135.09220004081726	
107	98.14737796783447	picture	0		76.0	105.0	/home/egter/Projects/stimuli/pictures/R_S_P007_C027_UHD_SDR_2K_AVC.png	135.1171100139618	0.649989128112793
107	98.77250003814697	response	0	k		105.0	/home/egter/Projects/stimuli/pictures/R_S_P007_C027_UHD_SDR_2K_AVC.png	135.7422320842743	
108	98.79736709594727	picture	0		134.0	106.0	/home/egter/Projects/stimuli/pictures/n01664065_27821.JPEG	135.76709914207458	1.1333339214324951
108	99.90581202507019	response	0	k		106.0	/home/egter/Projects/stimuli/pictures/n01664065_27821.JPEG	136.8755440711975	
109	99.93070101737976	picture	0		82.0	107.0	/home/egter/Projects/stimuli/pictures/S_yt-35i8UeYXjGw_47.png	136.90043306350708	0.6916689872741699
109	100.60592699050903	response	0	k		107.0	/home/egter/Projects/stimuli/pictures/S_yt-35i8UeYXjGw_47.png	137.57565903663635	
110	100.62237000465393	picture	0		77.0	108.0	/home/egter/Projects/stimuli/pictures/S_ILSVRC2015_train_00578000.png	137.59210205078125	0.6466629505157471
110	101.25581693649292	response	0	j		108.0	/home/egter/Projects/stimuli/pictures/S_ILSVRC2015_train_00578000.png	138.22554898262024	
111	101.26903295516968	picture	0		93.0	109.0	/home/egter/Projects/stimuli/pictures/S_yt--WPE_4bqQXc_26.png	138.238765001297	0.7949481010437012
111	102.03913807868958	response	0	j		109.0	/home/egter/Projects/stimuli/pictures/S_yt--WPE_4bqQXc_26.png	139.0088701248169	
112	102.06398105621338	picture	0		76.0	110.0	/home/egter/Projects/stimuli/pictures/n02606052_2701.JPEG	139.0337131023407	0.6500458717346191
112	102.68239212036133	response	0	k		110.0	/home/egter/Projects/stimuli/pictures/n02606052_2701.JPEG	139.65212416648865	
113	102.714026927948	picture	0		153.0	111.0	/home/egter/Projects/stimuli/pictures/S_yt-fCjjH_4i8Fg_115.png	139.68375897407532	1.291640043258667
113	103.98078107833862	response	0	j		111.0	/home/egter/Projects/stimuli/pictures/S_yt-fCjjH_4i8Fg_115.png	140.95051312446594	
114	104.00566697120667	picture	0		92.0	112.0	/home/egter/Projects/stimuli/pictures/R_S_yt-kA0ybjmoiMc_284.png	140.97539901733398	0.7916719913482666
114	104.76414394378662	response	0	k		112.0	/home/egter/Projects/stimuli/pictures/R_S_yt-kA0ybjmoiMc_284.png	141.73387598991394	
115	104.79733896255493	picture	0		155.0	113.0	/home/egter/Projects/stimuli/pictures/R_S_yt-9mWz93En7Gw_97.png	141.76707100868225	1.2999920845031738
115	106.07404208183289	response	0	j		113.0	/home/egter/Projects/stimuli/pictures/R_S_yt-9mWz93En7Gw_97.png	143.0437741279602	
116	106.0973310470581	picture	0		98.0	114.0	/home/egter/Projects/stimuli/pictures/R_S_yt-McqS-QObQbk_122.png	143.06706309318542	0.8175039291381836
116	106.89890098571777	response	0	j		114.0	/home/egter/Projects/stimuli/pictures/R_S_yt-McqS-QObQbk_122.png	143.8686330318451	
117	106.91483497619629	picture	0		106.0	115.0	/home/egter/Projects/stimuli/pictures/R_S_Pexels_Videos_278654_1.png	143.8845670223236	0.8908209800720215
117	107.7891161441803	response	0	j		115.0	/home/egter/Projects/stimuli/pictures/R_S_Pexels_Videos_278654_1.png	144.75884819030762	
118	107.80565595626831	picture	0		78.0	116.0	/home/egter/Projects/stimuli/pictures/S_yt-VQtbKGzI9SE_431.png	144.77538800239563	0.6666309833526611
118	108.44744896888733	response	0	j		116.0	/home/egter/Projects/stimuli/pictures/S_yt-VQtbKGzI9SE_431.png	145.41718101501465	
119	108.47228693962097	picture	0		87.0	117.0	/home/egter/Projects/stimuli/pictures/n02480855_31588.JPEG	145.4420189857483	0.7341811656951904
119	109.18905401229858	response	0	k		117.0	/home/egter/Projects/stimuli/pictures/n02480855_31588.JPEG	146.1587860584259	
120	109.20646810531616	picture	0		175.0	118.0	/home/egter/Projects/stimuli/pictures/S_yt-fja6A_3ys_w_116.png	146.17620015144348	1.4658808708190918
120	110.65577602386475	response	0	j		118.0	/home/egter/Projects/stimuli/pictures/S_yt-fja6A_3ys_w_116.png	147.62550806999207	
121	110.67234897613525	picture	0		98.0	119.0	/home/egter/Projects/stimuli/pictures/S_pexels-rodnae-productions-5993671.png	147.64208102226257	0.8416130542755127
121	111.47392511367798	response	0	j		119.0	/home/egter/Projects/stimuli/pictures/S_pexels-rodnae-productions-5993671.png	148.4436571598053	
122	111.51396203041077	picture	0		144.0	120.0	/home/egter/Projects/stimuli/pictures/n09288635_813.JPEG	148.4836940765381	1.208298921585083
122	112.69896101951599	response	0	k		120.0	/home/egter/Projects/stimuli/pictures/n09288635_813.JPEG	149.6686930656433	
123	112.72226095199585	picture	0		120.0	121.0	/home/egter/Projects/stimuli/pictures/ILSVRC2012_val_00004898.JPEG	149.69199299812317	1.0083990097045898
123	113.70726203918457	response	0	j		121.0	/home/egter/Projects/stimuli/pictures/ILSVRC2012_val_00004898.JPEG	150.6769940853119	
124	113.73065996170044	picture	0		86.0	122.0	/home/egter/Projects/stimuli/pictures/S_yt-BIDHmbneB10_998.png	150.70039200782776	0.7416670322418213
124	114.43909096717834	response	0	j		122.0	/home/egter/Projects/stimuli/pictures/S_yt-BIDHmbneB10_998.png	151.40882301330566	
125	114.47232699394226	picture	0		114.0	123.0	/home/egter/Projects/stimuli/pictures/S_video-3.png	151.44205904006958	0.9702041149139404
125	115.4140989780426	response	0	j		123.0	/home/egter/Projects/stimuli/pictures/S_video-3.png	152.38383102416992	
126	115.4425311088562	picture	0		147.0	124.0	/home/egter/Projects/stimuli/pictures/S_yt-gmiyqQDGN78_7.png	152.41226315498352	1.2381110191345215
126	116.65573310852051	response	0	j		124.0	/home/egter/Projects/stimuli/pictures/S_yt-gmiyqQDGN78_7.png	153.62546515464783	
127	116.68064212799072	picture	0		77.0	125.0	/home/egter/Projects/stimuli/pictures/S_yt-QI6k6mhpxLo_453.png	153.65037417411804	0.6507728099822998
127	117.31428003311157	response	0	j		125.0	/home/egter/Projects/stimuli/pictures/S_yt-QI6k6mhpxLo_453.png	154.2840120792389	
128	117.33141493797302	picture	0		243.0	126.0	/home/egter/Projects/stimuli/pictures/n02018207_701.JPEG	154.30114698410034	2.034687042236328
128	119.34737205505371	response	0	k		126.0	/home/egter/Projects/stimuli/pictures/n02018207_701.JPEG	156.31710410118103	
129	119.36610198020935	picture	0		169.0	127.0	/home/egter/Projects/stimuli/pictures/S_yt-rslgzryFIGk_71.png	156.33583402633667	1.422842025756836
129	120.76411199569702	response	0	k		127.0	/home/egter/Projects/stimuli/pictures/S_yt-rslgzryFIGk_71.png	157.73384404182434	
130	120.78894400596619	picture	0		108.0	128.0	/home/egter/Projects/stimuli/pictures/n01694178_8803.JPEG	157.7586760520935	0.9250080585479736
130	121.68072605133057	response	0	k		128.0	/home/egter/Projects/stimuli/pictures/n01694178_8803.JPEG	158.65045809745789	
131	121.71395206451416	picture	0		91.0	129.0	/home/egter/Projects/stimuli/pictures/S_ILSVRC2015_train_00247001.png	158.68368411064148	0.7749779224395752
131	122.46405911445618	response	0	j		129.0	/home/egter/Projects/stimuli/pictures/S_ILSVRC2015_train_00247001.png	159.4337911605835	
132	122.48892998695374	picture	0		117.0	130.0	/home/egter/Projects/stimuli/pictures/S_AWfiZJsMWQg_99.png	159.45866203308105	1.009052038192749
132	123.45572209358215	response	0	k		130.0	/home/egter/Projects/stimuli/pictures/S_AWfiZJsMWQg_99.png	160.42545413970947	
133	123.49798202514648	picture	0		351.0	131.0	/home/egter/Projects/stimuli/pictures/R_S_yt-0xzYSBvVfYM_197.png	160.4677140712738	2.944425106048584
133	126.41399312019348	response	0	j		131.0	/home/egter/Projects/stimuli/pictures/R_S_yt-0xzYSBvVfYM_197.png	163.3837251663208	
134	126.44240713119507	picture	0		76.0	132.0	/home/egter/Projects/stimuli/pictures/R_S_yt-s2tZ2NIQrxg_175.png	163.4121391773224	0.6547958850860596
134	127.06401801109314	response	0	j		132.0	/home/egter/Projects/stimuli/pictures/R_S_yt-s2tZ2NIQrxg_175.png	164.03375005722046	
135	127.09720301628113	picture	0		147.0	133.0	/home/egter/Projects/stimuli/pictures/R_S_yt-tNCrkObhB6c_17.png	164.06693506240845	1.241697072982788
135	128.30727195739746	response	0	j		133.0	/home/egter/Projects/stimuli/pictures/R_S_yt-tNCrkObhB6c_17.png	165.27700400352478	
136	128.33890008926392	picture	0		107.0	134.0	/home/egter/Projects/stimuli/pictures/R_S_pexels-koolshooters-7327405.png	165.30863213539124	0.899960994720459
136	129.22236108779907	response	0	j		134.0	/home/egter/Projects/stimuli/pictures/R_S_pexels-koolshooters-7327405.png	166.1920931339264	
137	129.23886108398438	picture	0		161.0	135.0	/home/egter/Projects/stimuli/pictures/n03873416_17840.JPEG	166.2085931301117	1.3583168983459473
137	130.572340965271	response	0	k		135.0	/home/egter/Projects/stimuli/pictures/n03873416_17840.JPEG	167.54207301139832	
138	130.59717798233032	picture	0		120.0	136.0	/home/egter/Projects/stimuli/pictures/n01685808_3969.JPEG	167.56691002845764	1.008397102355957
138	131.58900904655457	response	0	k		136.0	/home/egter/Projects/stimuli/pictures/n01685808_3969.JPEG	168.55874109268188	
139	131.60557508468628	picture	0		385.0	137.0	/home/egter/Projects/stimuli/pictures/n03841143_108.JPEG	168.5753071308136	3.2333178520202637
139	134.8056559562683	response	0	k		137.0	/home/egter/Projects/stimuli/pictures/n03841143_108.JPEG	171.77538800239563	
140	134.83889293670654	picture	0		304.0	138.0	/home/egter/Projects/stimuli/pictures/S_video_inspire_california_vineyard_sierra-mar_sunrise_110.png	171.80862498283386	2.5499660968780518
140	137.3640079498291	response	0	j		138.0	/home/egter/Projects/stimuli/pictures/S_video_inspire_california_vineyard_sierra-mar_sunrise_110.png	174.33373999595642	
141	137.3888590335846	picture	0		98.0	139.0	/home/egter/Projects/stimuli/pictures/S_yt-deiWoIfK6vg_44.png	174.3585910797119	0.963162899017334
141	138.19728207588196	response	0	j		139.0	/home/egter/Projects/stimuli/pictures/S_yt-deiWoIfK6vg_44.png	175.16701412200928	
142	138.35202193260193	picture	0		139.0	140.0	/home/egter/Projects/stimuli/pictures/n02930766_9866.JPEG	175.32175397872925	1.1875061988830566
142	139.49044394493103	response	0	k		140.0	/home/egter/Projects/stimuli/pictures/n02930766_9866.JPEG	176.46017599105835	
143	139.53952813148499	picture	0		71.0	141.0	/home/egter/Projects/stimuli/pictures/n13052670_8369.JPEG	176.5092601776123	0.6180520057678223
143	140.1154260635376	response	0	k		141.0	/home/egter/Projects/stimuli/pictures/n13052670_8369.JPEG	177.08515810966492	
144	140.1575801372528	picture	0		77.0	142.0	/home/egter/Projects/stimuli/pictures/R_S_yt-qYuLW5vSotM_160.png	177.12731218338013	0.6479208469390869
144	140.78964614868164	response	0	j		142.0	/home/egter/Projects/stimuli/pictures/R_S_yt-qYuLW5vSotM_160.png	177.75937819480896	
145	140.8055009841919	picture	0		71.0	143.0	/home/egter/Projects/stimuli/pictures/R_S_PA_A002_C009_SDR_20190730_ALT01_SDR_2K_AVC.png	177.7752330303192	0.616642951965332
145	141.38897895812988	response	0	k		143.0	/home/egter/Projects/stimuli/pictures/R_S_PA_A002_C009_SDR_20190730_ALT01_SDR_2K_AVC.png	178.3587110042572	
146	141.42214393615723	picture	0		92.0	144.0	/home/egter/Projects/stimuli/pictures/n03041632_36235.JPEG	178.39187598228455	0.78336501121521
146	142.18062806129456	response	0	k		144.0	/home/egter/Projects/stimuli/pictures/n03041632_36235.JPEG	179.15036010742188	
147	142.20550894737244	picture	0		81.0	145.0	/home/egter/Projects/stimuli/pictures/S_yt-s2PWkCdT-TM_258.png	179.17524099349976	0.6881451606750488
147	142.8729441165924	response	0	j		145.0	/home/egter/Projects/stimuli/pictures/S_yt-s2PWkCdT-TM_258.png	179.84267616271973	
148	142.89365410804749	picture	0		78.0	146.0	/home/egter/Projects/stimuli/pictures/n01704323_5613.JPEG	179.8633861541748	0.6701889038085938
148	143.52374505996704	response	0	k		146.0	/home/egter/Projects/stimuli/pictures/n01704323_5613.JPEG	180.49347710609436	
149	143.56384301185608	picture	0		121.0	147.0	/home/egter/Projects/stimuli/pictures/S_yt-eLQydFSMGCU_75.png	180.5335750579834	1.0249810218811035
149	144.56396293640137	response	0	j		147.0	/home/egter/Projects/stimuli/pictures/S_yt-eLQydFSMGCU_75.png	181.5336949825287	
150	144.58882403373718	picture	0		101.0	148.0	/home/egter/Projects/stimuli/pictures/S_yt-jfPayShydzE_1233.png	181.5585560798645	0.8499479293823242
150	145.42229104042053	response	0	k		148.0	/home/egter/Projects/stimuli/pictures/S_yt-jfPayShydzE_1233.png	182.39202308654785	
151	145.4387719631195	picture	0		96.0	149.0	/home/egter/Projects/stimuli/pictures/S_yt-fAWPQRcrXl0_38.png	182.40850400924683	0.8167290687561035
151	146.23062109947205	response	0	k		149.0	/home/egter/Projects/stimuli/pictures/S_yt-fAWPQRcrXl0_38.png	183.20035314559937	
152	146.2555010318756	picture	0		66.0	150.0	/home/egter/Projects/stimuli/pictures/n01748264_9809.JPEG	183.22523307800293	0.5548510551452637
152	146.79726314544678	response	0	k		150.0	/home/egter/Projects/stimuli/pictures/n01748264_9809.JPEG	183.7669951915741	
153	146.81035208702087	picture	0		103.0	151.0	/home/egter/Projects/stimuli/pictures/R_S_yt-wVMhACNFF-M_154.png	183.7800841331482	0.8784680366516113
153	147.66454911231995	response	0	j		151.0	/home/egter/Projects/stimuli/pictures/R_S_yt-wVMhACNFF-M_154.png	184.63428115844727	
154	147.68882012367249	picture	0		119.0	152.0	/home/egter/Projects/stimuli/pictures/n02114712_17436.JPEG	184.6585521697998	1.0000200271606445
154	148.67221593856812	response	0	k		152.0	/home/egter/Projects/stimuli/pictures/n02114712_17436.JPEG	185.64194798469543	
155	148.68884015083313	picture	0		92.0	153.0	/home/egter/Projects/stimuli/pictures/n03998194_7441.JPEG	185.65857219696045	0.7916419506072998
155	149.44724297523499	response	0	k		153.0	/home/egter/Projects/stimuli/pictures/n03998194_7441.JPEG	186.4169750213623	
156	149.48048210144043	picture	0		81.0	154.0	/home/egter/Projects/stimuli/pictures/S_nPwtvvPgdNc_39.png	186.45021414756775	0.8923718929290771
156	150.14727401733398	response	0	j		154.0	/home/egter/Projects/stimuli/pictures/S_nPwtvvPgdNc_39.png	187.1170060634613	
157	150.3728539943695	picture	0		145.0	155.0	/home/egter/Projects/stimuli/pictures/R_S_yt-bshHX6vWLtA_84.png	187.34258604049683	1.2326180934906006
157	151.5722439289093	response	0	j		155.0	/home/egter/Projects/stimuli/pictures/R_S_yt-bshHX6vWLtA_84.png	188.54197597503662	
158	151.6054720878601	picture	0		115.0	156.0	/home/egter/Projects/stimuli/pictures/R_S_b2-2.png	188.57520413398743	0.9666628837585449
158	152.55561709403992	response	0	j		156.0	/home/egter/Projects/stimuli/pictures/R_S_b2-2.png	189.52534914016724	
159	152.57213497161865	picture	0		100.0	157.0	/home/egter/Projects/stimuli/pictures/S_ILSVRC2015_train_00185002.png	189.54186701774597	0.858483076095581
159	153.39725613594055	response	0	j		157.0	/home/egter/Projects/stimuli/pictures/S_ILSVRC2015_train_00185002.png	190.36698818206787	
160	153.43061804771423	picture	0		91.0	158.0	/home/egter/Projects/stimuli/pictures/n01728572_2672.JPEG	190.40035009384155	0.7753870487213135
160	154.18058013916016	response	0	k		158.0	/home/egter/Projects/stimuli/pictures/n01728572_2672.JPEG	191.15031218528748	
161	154.20600509643555	picture	0		102.0	159.0	/home/egter/Projects/stimuli/pictures/n09399592_16402.JPEG	191.17573714256287	0.8680849075317383
161	155.0472390651703	response	0	k		159.0	/home/egter/Projects/stimuli/pictures/n09399592_16402.JPEG	192.0169711112976	
162	155.07409000396729	picture	0		78.0	160.0	/home/egter/Projects/stimuli/pictures/n04344873_13568.JPEG	192.0438220500946	0.6666641235351562
162	155.70763111114502	response	0	k		160.0	/home/egter/Projects/stimuli/pictures/n04344873_13568.JPEG	192.67736315727234	
163	155.74075412750244	picture	0		72.0	161.0	/home/egter/Projects/stimuli/pictures/n01491361_6127.JPEG	192.71048617362976	0.6180508136749268
163	156.3236939907074	response	0	k		161.0	/home/egter/Projects/stimuli/pictures/n01491361_6127.JPEG	193.29342603683472	
164	156.35880494117737	picture	0		68.0	162.0	/home/egter/Projects/stimuli/pictures/n02280649_18865.JPEG	193.3285369873047	0.5833191871643066
164	156.91448712348938	response	0	k		162.0	/home/egter/Projects/stimuli/pictures/n02280649_18865.JPEG	193.8842191696167	
165	156.94212412834167	picture	0		72.0	163.0	/home/egter/Projects/stimuli/pictures/R_S_pexels-koolshooters-7689098.png	193.911856174469	0.6133809089660645
165	157.5306429862976	response	0	j		163.0	/home/egter/Projects/stimuli/pictures/R_S_pexels-koolshooters-7689098.png	194.50037503242493	
166	157.55550503730774	picture	0		76.0	164.0	/home/egter/Projects/stimuli/pictures/n02484975_6984.JPEG	194.52523708343506	0.6416430473327637
166	158.18058896064758	response	0	k		164.0	/home/egter/Projects/stimuli/pictures/n02484975_6984.JPEG	195.1503210067749	
167	158.1971480846405	picture	0		126.0	165.0	/home/egter/Projects/stimuli/pictures/n03000684_10624.JPEG	195.16688013076782	1.0582749843597412
167	159.23899006843567	response	0	k		165.0	/home/egter/Projects/stimuli/pictures/n03000684_10624.JPEG	196.208722114563	
168	159.25542306900024	picture	0		74.0	166.0	/home/egter/Projects/stimuli/pictures/R_S_yt-VQtbKGzI9SE_431.png	196.22515511512756	0.6250269412994385
168	159.86388611793518	response	0	j		166.0	/home/egter/Projects/stimuli/pictures/R_S_yt-VQtbKGzI9SE_431.png	196.8336181640625	
169	159.88045001029968	picture	0		92.0	167.0	/home/egter/Projects/stimuli/pictures/S_yt-IT741UWKVzg_34.png	196.850182056427	0.7838890552520752
169	160.63889408111572	response	0	j		167.0	/home/egter/Projects/stimuli/pictures/S_yt-IT741UWKVzg_34.png	197.60862612724304	
170	160.66433906555176	picture	0		85.0	168.0	/home/egter/Projects/stimuli/pictures/S_yt-7SsfOM7v3ns_56.png	197.63407111167908	0.7160868644714355
170	161.36390709877014	response	0	k		168.0	/home/egter/Projects/stimuli/pictures/S_yt-7SsfOM7v3ns_56.png	198.33363914489746	
171	161.3804259300232	picture	0		73.0	169.0	/home/egter/Projects/stimuli/pictures/n03127747_1956.JPEG	198.3501579761505	0.6249830722808838
171	161.98053908348083	response	0	k		169.0	/home/egter/Projects/stimuli/pictures/n03127747_1956.JPEG	198.95027112960815	
172	162.00540900230408	picture	0		65.0	170.0	/home/egter/Projects/stimuli/pictures/n04550184_1973.JPEG	198.9751410484314	0.554718017578125
172	162.53943300247192	response	0	k		170.0	/home/egter/Projects/stimuli/pictures/n04550184_1973.JPEG	199.50916504859924	
173	162.5601270198822	picture	0		87.0	171.0	/home/egter/Projects/stimuli/pictures/R_S_yt-wE0cEswyaaM_53.png	199.52985906600952	0.7291641235351562
173	163.2722201347351	response	0	j		171.0	/home/egter/Projects/stimuli/pictures/R_S_yt-wE0cEswyaaM_53.png	200.24195218086243	
174	163.28929114341736	picture	0		95.0	172.0	/home/egter/Projects/stimuli/pictures/R_S_production_ID_4122384.png	200.25902318954468	0.7994489669799805
174	164.07219910621643	response	0	j		172.0	/home/egter/Projects/stimuli/pictures/R_S_production_ID_4122384.png	201.04193115234375	
175	164.08874011039734	picture	0		96.0	173.0	/home/egter/Projects/stimuli/pictures/S_yt-osdlC1buTaM_4.png	201.05847215652466	0.8166708946228027
175	164.8805320262909	response	0	j		173.0	/home/egter/Projects/stimuli/pictures/S_yt-osdlC1buTaM_4.png	201.8502640724182	
176	164.90541100502014	picture	0		98.0	174.0	/home/egter/Projects/stimuli/pictures/S_yt-5C0_rps3vyM_22.png	201.87514305114746	0.8839280605316162
176	165.70763206481934	response	0	k		174.0	/home/egter/Projects/stimuli/pictures/S_yt-5C0_rps3vyM_22.png	202.67736411094666	
177	165.78933906555176	picture	0		77.0	175.0	/home/egter/Projects/stimuli/pictures/S_yt-WTxvvlP8xnw_113.png	202.75907111167908	0.6994218826293945
177	166.42216515541077	response	0	j		175.0	/home/egter/Projects/stimuli/pictures/S_yt-WTxvvlP8xnw_113.png	203.3918972015381	
178	166.48876094818115	picture	0		106.0	176.0	/home/egter/Projects/stimuli/pictures/S_ILSVRC2015_train_00351000.png	203.45849299430847	0.8999831676483154
178	167.3638870716095	response	0	k		176.0	/home/egter/Projects/stimuli/pictures/S_ILSVRC2015_train_00351000.png	204.33361911773682	
179	167.38874411582947	picture	0		84.0	177.0	/home/egter/Projects/stimuli/pictures/n01829413_7315.JPEG	204.3584761619568	0.7083430290222168
179	168.08118796348572	response	0	k		177.0	/home/egter/Projects/stimuli/pictures/n01829413_7315.JPEG	205.05092000961304	
180	168.09708714485168	picture	0		87.0	178.0	/home/egter/Projects/stimuli/pictures/S_yt-VgJZl9SddCQ_8.png	205.066819190979	0.7338588237762451
180	168.81384110450745	response	0	k		178.0	/home/egter/Projects/stimuli/pictures/S_yt-VgJZl9SddCQ_8.png	205.78357315063477	
181	168.83094596862793	picture	0		100.0	179.0	/home/egter/Projects/stimuli/pictures/S_ILSVRC2015_train_00364000.png	205.80067801475525	0.8411321640014648
181	169.65552592277527	response	0	j		179.0	/home/egter/Projects/stimuli/pictures/S_ILSVRC2015_train_00364000.png	206.6252579689026	
182	169.6720781326294	stim	0		422.0			206.6418101787567	3.5269060134887695
182	173.18049001693726	response	0	space				210.15022206306458	
