trial_nr	onset	event_type	phase	response	nr_frames	picture_index	picture_file	onset_abs	duration
0	0.01854681968688965	stim	0		930.0			34.002455949783325	7.761697053909302
0	4.556522846221924	response	0	j				38.54043197631836	
0	7.763660907745361	response	0	space				41.7475700378418	
2	7.780243873596191	picture	0		197.0	0.0	/home/egter/Projects/stimuli/pictures/R_S_yt-yPl8LcgSMjo_32.png	41.76415300369263	1.6499700546264648
2	9.413744926452637	response	0	j		0.0	/home/egter/Projects/stimuli/pictures/R_S_yt-yPl8LcgSMjo_32.png	43.39765405654907	
3	9.430213928222656	picture	0		90.0	1.0	/home/egter/Projects/stimuli/pictures/R_S_video.png	43.41412305831909	0.7509510517120361
3	10.172071933746338	response	0	j		1.0	/home/egter/Projects/stimuli/pictures/R_S_video.png	44.15598106384277	
4	10.181164979934692	picture	0		89.0	2.0	/home/egter/Projects/stimuli/pictures/R_S_yt-PltpRRYmQQk_62.png	44.16507411003113	0.7430558204650879
4	10.913693904876709	response	0	j		2.0	/home/egter/Projects/stimuli/pictures/R_S_yt-PltpRRYmQQk_62.png	44.897603034973145	
5	10.92422080039978	picture	0		407.0	3.0	/home/egter/Projects/stimuli/pictures/n01798484_6394.JPEG	44.908129930496216	3.3958001136779785
5	14.305341958999634	response	0	j		3.0	/home/egter/Projects/stimuli/pictures/n01798484_6394.JPEG	48.28925108909607	
6	14.320020914077759	picture	0		103.0	4.0	/home/egter/Projects/stimuli/pictures/n01910747_9384.JPEG	48.303930044174194	0.861083984375
6	15.171873807907104	response	0	k		4.0	/home/egter/Projects/stimuli/pictures/n01910747_9384.JPEG	49.15578293800354	
7	15.181104898452759	picture	0		124.0	5.0	/home/egter/Projects/stimuli/pictures/S_yt-IC62JSYpq9w_71.png	49.165014028549194	1.0407679080963135
7	16.205293893814087	response	0	j		5.0	/home/egter/Projects/stimuli/pictures/S_yt-IC62JSYpq9w_71.png	50.18920302391052	
8	16.221872806549072	picture	0		384.0	6.0	/home/egter/Projects/stimuli/pictures/n01843065_141.JPEG	50.20578193664551	3.2022480964660645
8	19.41363787651062	response	0	j		6.0	/home/egter/Projects/stimuli/pictures/n01843065_141.JPEG	53.397547006607056	
9	19.424120903015137	picture	0		187.0	7.0	/home/egter/Projects/stimuli/pictures/n04252077_5115.JPEG	53.40803003311157	1.564424991607666
9	20.965102910995483	response	0	k		7.0	/home/egter/Projects/stimuli/pictures/n04252077_5115.JPEG	54.94901204109192	
10	20.988545894622803	picture	0		138.0	8.0	/home/egter/Projects/stimuli/pictures/R_S_production_ID_4101242.png	54.97245502471924	1.1749579906463623
10	22.13029980659485	response	0	j		8.0	/home/egter/Projects/stimuli/pictures/R_S_production_ID_4101242.png	56.114208936691284	
11	22.163503885269165	picture	0		111.0	9.0	/home/egter/Projects/stimuli/pictures/R_S_yt-25xuzTBhwPk_109.png	56.1474130153656	0.9272520542144775
11	23.080314874649048	response	0	j		9.0	/home/egter/Projects/stimuli/pictures/R_S_yt-25xuzTBhwPk_109.png	57.06422400474548	
12	23.090755939483643	picture	0		759.0	10.0	/home/egter/Projects/stimuli/pictures/R_S_TYs22gin-EU_57.png	57.07466506958008	6.331038951873779
12	29.405260801315308	response	0	j		10.0	/home/egter/Projects/stimuli/pictures/R_S_TYs22gin-EU_57.png	63.38916993141174	
13	29.421794891357422	picture	0		114.0	11.0	/home/egter/Projects/stimuli/pictures/S_production_ID_4499960.png	63.40570402145386	0.9536259174346924
13	30.356743812561035	response	0	j		11.0	/home/egter/Projects/stimuli/pictures/S_production_ID_4499960.png	64.34065294265747	
14	30.375420808792114	picture	0		370.0	12.0	/home/egter/Projects/stimuli/pictures/n02109047_17100.JPEG	64.35932993888855	3.0832901000976562
14	33.44684886932373	response	0	k		12.0	/home/egter/Projects/stimuli/pictures/n02109047_17100.JPEG	67.43075799942017	
15	33.45871090888977	picture	0		119.0	13.0	/home/egter/Projects/stimuli/pictures/R_S_ILSVRC2015_train_00575000.png	67.4426200389862	0.9930639266967773
15	34.43852686882019	response	0	j		13.0	/home/egter/Projects/stimuli/pictures/R_S_ILSVRC2015_train_00575000.png	68.42243599891663	
16	34.45177483558655	picture	0		133.0	14.0	/home/egter/Projects/stimuli/pictures/n02980441_1842.JPEG	68.43568396568298	1.1116840839385986
16	35.54000782966614	response	0	k		14.0	/home/egter/Projects/stimuli/pictures/n02980441_1842.JPEG	69.52391695976257	
17	35.56345891952515	picture	0		104.0	15.0	/home/egter/Projects/stimuli/pictures/n04153751_5030.JPEG	69.54736804962158	0.8750169277191162
17	36.42191195487976	response	0	k		15.0	/home/egter/Projects/stimuli/pictures/n04153751_5030.JPEG	70.4058210849762	
18	36.43847584724426	picture	0		102.0	16.0	/home/egter/Projects/stimuli/pictures/S_yt-dj0XQUJos38_14.png	70.4223849773407	0.8583321571350098
18	37.280221939086914	response	0	j		16.0	/home/egter/Projects/stimuli/pictures/S_yt-dj0XQUJos38_14.png	71.26413106918335	
19	37.29680800437927	picture	0		1128.0	17.0	/home/egter/Projects/stimuli/pictures/n03908714_2453.JPEG	71.28071713447571	9.404895782470703
19	46.6885290145874	response	0	k		17.0	/home/egter/Projects/stimuli/pictures/n03908714_2453.JPEG	80.67243814468384	
20	46.701703786849976	picture	0		178.0	18.0	/home/egter/Projects/stimuli/pictures/S_yt-lzXao6Reec4_14.png	80.68561291694641	1.4790680408477783
20	48.164955854415894	response	0	j		18.0	/home/egter/Projects/stimuli/pictures/S_yt-lzXao6Reec4_14.png	82.14886498451233	
21	48.180771827697754	picture	0		126.0	19.0	/home/egter/Projects/stimuli/pictures/ILSVRC2012_val_00046975.JPEG	82.16468095779419	1.057847023010254
21	49.22256684303284	response	0	k		19.0	/home/egter/Projects/stimuli/pictures/ILSVRC2012_val_00046975.JPEG	83.20647597312927	
22	49.23861885070801	picture	0		202.0	20.0	/home/egter/Projects/stimuli/pictures/ILSVRC2012_test_00078910.JPEG	83.22252798080444	1.6914150714874268
22	50.91352295875549	response	0	k		20.0	/home/egter/Projects/stimuli/pictures/ILSVRC2012_test_00078910.JPEG	84.89743208885193	
23	50.930033922195435	picture	0		110.0	21.0	/home/egter/Projects/stimuli/pictures/n09332890_51000.JPEG	84.91394305229187	0.9250390529632568
23	51.83852481842041	response	0	k		21.0	/home/egter/Projects/stimuli/pictures/n09332890_51000.JPEG	85.82243394851685	
24	51.85507297515869	picture	0		95.0	22.0	/home/egter/Projects/stimuli/pictures/S_yt-ybH6uAiFbjc_273.png	85.83898210525513	0.7999708652496338
24	52.639235973358154	response	0	j		22.0	/home/egter/Projects/stimuli/pictures/S_yt-ybH6uAiFbjc_273.png	86.62314510345459	
25	52.655043840408325	picture	0		121.0	23.0	/home/egter/Projects/stimuli/pictures/R_S_yt-7WYXuBHeorw_188.png	86.63895297050476	1.0118060111999512
25	53.65515184402466	response	0	j		23.0	/home/egter/Projects/stimuli/pictures/R_S_yt-7WYXuBHeorw_188.png	87.6390609741211	
26	53.666849851608276	picture	0		96.0	24.0	/home/egter/Projects/stimuli/pictures/R_S_yt-nfDPFHUDq8g_136.png	87.65075898170471	0.7985811233520508
26	54.45522689819336	response	0	j		24.0	/home/egter/Projects/stimuli/pictures/R_S_yt-nfDPFHUDq8g_136.png	88.4391360282898	
27	54.46543097496033	picture	0		74.0	25.0	/home/egter/Projects/stimuli/pictures/R_S_yt-Nnt51ug6NF8_53.png	88.44934010505676	0.618088960647583
27	55.071828842163086	response	0	j		25.0	/home/egter/Projects/stimuli/pictures/R_S_yt-Nnt51ug6NF8_53.png	89.05573797225952	
28	55.08351993560791	picture	0		106.0	26.0	/home/egter/Projects/stimuli/pictures/R_S_yt-0lfSyC79n14_7.png	89.06742906570435	0.8819398880004883
28	55.94826698303223	response	0	j		26.0	/home/egter/Projects/stimuli/pictures/R_S_yt-0lfSyC79n14_7.png	89.93217611312866	
29	55.9654598236084	picture	0		106.0	27.0	/home/egter/Projects/stimuli/pictures/n02641379_2270.JPEG	89.94936895370483	0.8818840980529785
29	56.83851480484009	response	0	k		27.0	/home/egter/Projects/stimuli/pictures/n02641379_2270.JPEG	90.82242393493652	
30	56.84734392166138	picture	0		323.0	28.0	/home/egter/Projects/stimuli/pictures/S_yt-e_eOzV7qMZo_374.png	90.83125305175781	2.6944849491119385
30	59.530120849609375	response	0	j		28.0	/home/egter/Projects/stimuli/pictures/S_yt-e_eOzV7qMZo_374.png	93.51402997970581	
31	59.541828870773315	picture	0		201.0	29.0	/home/egter/Projects/stimuli/pictures/n02790996_8201.JPEG	93.52573800086975	1.6736011505126953
31	61.20517587661743	response	0	k		29.0	/home/egter/Projects/stimuli/pictures/n02790996_8201.JPEG	95.18908500671387	
32	61.21543002128601	picture	0		122.0	30.0	/home/egter/Projects/stimuli/pictures/n09428293_93110.JPEG	95.19933915138245	1.0229318141937256
32	62.22250699996948	response	0	k		30.0	/home/egter/Projects/stimuli/pictures/n09428293_93110.JPEG	96.20641613006592	
33	62.238361835479736	picture	0		153.0	31.0	/home/egter/Projects/stimuli/pictures/S_pexels-mart-production-7698911.png	96.22227096557617	1.2756240367889404
33	63.5051429271698	response	0	j		31.0	/home/egter/Projects/stimuli/pictures/S_pexels-mart-production-7698911.png	97.48905205726624	
34	63.51398587226868	picture	0		86.0	32.0	/home/egter/Projects/stimuli/pictures/n02786058_6643.JPEG	97.49789500236511	0.9166510105133057
34	64.22248792648315	response	0	k		32.0	/home/egter/Projects/stimuli/pictures/n02786058_6643.JPEG	98.20639705657959	
35	64.43063688278198	picture	0		99.0	33.0	/home/egter/Projects/stimuli/pictures/S_xq822dX6DDM_1.png	98.41454601287842	0.8327450752258301
35	65.2467999458313	response	0	j		33.0	/home/egter/Projects/stimuli/pictures/S_xq822dX6DDM_1.png	99.23070907592773	
36	65.26338195800781	picture	0		86.0	34.0	/home/egter/Projects/stimuli/pictures/S_comp_A083_C002_1130KZ_v04_SDR_PS_FINAL_20180725_SDR_2K_AVC.png	99.24729108810425	0.7249648571014404
36	65.9650468826294	response	0	j		34.0	/home/egter/Projects/stimuli/pictures/S_comp_A083_C002_1130KZ_v04_SDR_PS_FINAL_20180725_SDR_2K_AVC.png	99.94895601272583	
37	65.98834681510925	picture	0		77.0	35.0	/home/egter/Projects/stimuli/pictures/S_yt-XpM1Jtwlvvk_42.png	99.97225594520569	0.649968147277832
37	66.62174081802368	response	0	j		35.0	/home/egter/Projects/stimuli/pictures/S_yt-XpM1Jtwlvvk_42.png	100.60564994812012	
38	66.63831496238708	picture	0		96.0	36.0	/home/egter/Projects/stimuli/pictures/n04118776_8927.JPEG	100.62222409248352	0.8083348274230957
38	67.43088793754578	response	0	k		36.0	/home/egter/Projects/stimuli/pictures/n04118776_8927.JPEG	101.41479706764221	
39	67.44664978981018	picture	0		81.0	37.0	/home/egter/Projects/stimuli/pictures/S_yt-hMyqUMAbFAk_303.png	101.43055891990662	0.6783900260925293
39	68.1133918762207	response	0	j		37.0	/home/egter/Projects/stimuli/pictures/S_yt-hMyqUMAbFAk_303.png	102.09730100631714	
40	68.12503981590271	picture	0		80.0	38.0	/home/egter/Projects/stimuli/pictures/S_yt-mQESmS4uqRU_208.png	102.10894894599915	0.6736130714416504
40	68.78847479820251	response	0	j		38.0	/home/egter/Projects/stimuli/pictures/S_yt-mQESmS4uqRU_208.png	102.77238392829895	
41	68.79865288734436	picture	0		99.0	39.0	/home/egter/Projects/stimuli/pictures/n03372029_21743.JPEG	102.7825620174408	0.8263669013977051
41	69.61337780952454	response	0	k		39.0	/home/egter/Projects/stimuli/pictures/n03372029_21743.JPEG	103.59728693962097	
42	69.62501978874207	picture	0		161.0	40.0	/home/egter/Projects/stimuli/pictures/n09246464_86.JPEG	103.6089289188385	1.3472352027893066
42	70.95653200149536	response	0	k		40.0	/home/egter/Projects/stimuli/pictures/n09246464_86.JPEG	104.9404411315918	
43	70.97225499153137	picture	0		395.0	41.0	/home/egter/Projects/stimuli/pictures/S_yt-ePxv64kEqa0_177.png	104.95616412162781	3.2993249893188477
43	74.25505495071411	response	0	k		41.0	/home/egter/Projects/stimuli/pictures/S_yt-ePxv64kEqa0_177.png	108.23896408081055	
44	74.27157998085022	picture	0		303.0	42.0	/home/egter/Projects/stimuli/pictures/R_S_comp_N008_C009_PS_v01_SDR_PS_20180925_SDR_2K_AVC.png	108.25548911094666	2.8880980014801025
44	76.78844285011292	response	0	j		42.0	/home/egter/Projects/stimuli/pictures/R_S_comp_N008_C009_PS_v01_SDR_PS_20180925_SDR_2K_AVC.png	110.77235198020935	
45	77.15967798233032	picture	0		101.0	43.0	/home/egter/Projects/stimuli/pictures/n03249569_54697.JPEG	111.14358711242676	0.845261812210083
45	77.98153281211853	response	0	k		43.0	/home/egter/Projects/stimuli/pictures/n03249569_54697.JPEG	111.96544194221497	
46	78.0049397945404	picture	0		88.0	44.0	/home/egter/Projects/stimuli/pictures/S_yt-WhQMF3WM0Ig_29.png	111.98884892463684	0.7380549907684326
46	78.73008584976196	response	0	j		44.0	/home/egter/Projects/stimuli/pictures/S_yt-WhQMF3WM0Ig_29.png	112.7139949798584	
47	78.74299478530884	picture	0		96.0	45.0	/home/egter/Projects/stimuli/pictures/n03095699_25542.JPEG	112.72690391540527	0.803631067276001
47	79.53001189231873	response	0	k		45.0	/home/egter/Projects/stimuli/pictures/n03095699_25542.JPEG	113.51392102241516	
48	79.54662585258484	picture	0		73.0	46.0	/home/egter/Projects/stimuli/pictures/R_S_yt-Rybd-sKJFz0_78.png	113.53053498268127	0.6130831241607666
48	80.14039397239685	response	0	j		46.0	/home/egter/Projects/stimuli/pictures/R_S_yt-Rybd-sKJFz0_78.png	114.12430310249329	
49	80.1597089767456	picture	0		125.0	47.0	/home/egter/Projects/stimuli/pictures/n04613696_9693.JPEG	114.14361810684204	1.0416028499603271
49	81.18840599060059	response	0	k		47.0	/home/egter/Projects/stimuli/pictures/n04613696_9693.JPEG	115.17231512069702	
50	81.20131182670593	picture	0		149.0	48.0	/home/egter/Projects/stimuli/pictures/n01704323_7103.JPEG	115.18522095680237	1.2452800273895264
50	82.4305989742279	response	0	k		48.0	/home/egter/Projects/stimuli/pictures/n01704323_7103.JPEG	116.41450810432434	
51	82.44659185409546	picture	0		105.0	49.0	/home/egter/Projects/stimuli/pictures/n03459775_6721.JPEG	116.4305009841919	0.8797390460968018
51	83.31341481208801	response	0	k		49.0	/home/egter/Projects/stimuli/pictures/n03459775_6721.JPEG	117.29732394218445	
52	83.32633090019226	picture	0		72.0	50.0	/home/egter/Projects/stimuli/pictures/n02814533_11030.JPEG	117.3102400302887	0.6035768985748291
52	83.9133768081665	response	0	k		50.0	/home/egter/Projects/stimuli/pictures/n02814533_11030.JPEG	117.89728593826294	
53	83.92990779876709	picture	0		124.0	51.0	/home/egter/Projects/stimuli/pictures/S_ILSVRC2015_train_00354001.png	117.91381692886353	1.0416719913482666
53	84.9550359249115	response	0	j		51.0	/home/egter/Projects/stimuli/pictures/S_ILSVRC2015_train_00354001.png	118.93894505500793	
54	84.97157979011536	picture	0		456.0	52.0	/home/egter/Projects/stimuli/pictures/n02814860_904.JPEG	118.95548892021179	3.8083062171936035
54	88.75651597976685	response	0	k		52.0	/home/egter/Projects/stimuli/pictures/n02814860_904.JPEG	122.74042510986328	
55	88.77988600730896	picture	0		80.0	53.0	/home/egter/Projects/stimuli/pictures/S_yt--Ou506YF3mY_106.png	122.7637951374054	0.6713910102844238
55	89.43824696540833	response	0	j		53.0	/home/egter/Projects/stimuli/pictures/S_yt--Ou506YF3mY_106.png	123.42215609550476	
56	89.45127701759338	picture	0		114.0	54.0	/home/egter/Projects/stimuli/pictures/n02486261_11686.JPEG	123.43518614768982	0.9536309242248535
56	90.3888418674469	response	0	k		54.0	/home/egter/Projects/stimuli/pictures/n02486261_11686.JPEG	124.37275099754333	
57	90.40490794181824	picture	0		97.0	55.0	/home/egter/Projects/stimuli/pictures/S_pexels-kindel-media-8164443.png	124.38881707191467	0.8166968822479248
57	91.20502090454102	response	0	j		55.0	/home/egter/Projects/stimuli/pictures/S_pexels-kindel-media-8164443.png	125.18893003463745	
58	91.22160482406616	picture	0		94.0	56.0	/home/egter/Projects/stimuli/pictures/R_S_yt-2jVJb1PR2XA_16.png	125.2055139541626	0.7851881980895996
58	91.99670791625977	response	0	j		56.0	/home/egter/Projects/stimuli/pictures/R_S_yt-2jVJb1PR2XA_16.png	125.9806170463562	
59	92.00679302215576	picture	0		109.0	57.0	/home/egter/Projects/stimuli/pictures/n01753488_18261.JPEG	125.9907021522522	0.9167368412017822
59	92.9049940109253	response	0	k		57.0	/home/egter/Projects/stimuli/pictures/n01753488_18261.JPEG	126.88890314102173	
60	92.92352986335754	picture	0		75.0	58.0	/home/egter/Projects/stimuli/pictures/R_S_yt--Ou506YF3mY_106.png	126.90743899345398	0.6313381195068359
60	93.53829383850098	response	0	j		58.0	/home/egter/Projects/stimuli/pictures/R_S_yt--Ou506YF3mY_106.png	127.52220296859741	
61	93.55486798286438	picture	0		213.0	59.0	/home/egter/Projects/stimuli/pictures/n06794110_488.JPEG	127.53877711296082	1.78336501121521
61	95.32164001464844	response	0	k		59.0	/home/egter/Projects/stimuli/pictures/n06794110_488.JPEG	129.30554914474487	
62	95.33823299407959	picture	0		106.0	60.0	/home/egter/Projects/stimuli/pictures/R_S_yt-p0buJEEKeuI_61.png	129.32214212417603	0.8837969303131104
62	96.21330499649048	response	0	j		60.0	/home/egter/Projects/stimuli/pictures/R_S_yt-p0buJEEKeuI_61.png	130.1972141265869	
63	96.2220299243927	picture	0		98.0	61.0	/home/egter/Projects/stimuli/pictures/n04542943_4098.JPEG	130.20593905448914	0.8244869709014893
63	97.02998280525208	response	0	k		61.0	/home/egter/Projects/stimuli/pictures/n04542943_4098.JPEG	131.0138919353485	
64	97.04651689529419	picture	0		107.0	62.0	/home/egter/Projects/stimuli/pictures/n02692877_25486.JPEG	131.03042602539062	0.9046890735626221
64	97.93048691749573	response	0	k		62.0	/home/egter/Projects/stimuli/pictures/n02692877_25486.JPEG	131.91439604759216	
65	97.95120596885681	picture	0		391.0	63.0	/home/egter/Projects/stimuli/pictures/S_ILSVRC2015_train_00538000.png	131.93511509895325	3.2619259357452393
65	101.19661784172058	response	0	j		63.0	/home/egter/Projects/stimuli/pictures/S_ILSVRC2015_train_00538000.png	135.18052697181702	
66	101.21313190460205	picture	0		73.0	64.0	/home/egter/Projects/stimuli/pictures/S_yt-0lfSyC79n14_7.png	135.1970410346985	0.6129789352416992
66	101.81331181526184	response	0	j		64.0	/home/egter/Projects/stimuli/pictures/S_yt-0lfSyC79n14_7.png	135.79722094535828	
67	101.82611083984375	picture	0		79.0	65.0	/home/egter/Projects/stimuli/pictures/S_PA_A004_C003_SDR_20190719_SDR_2K_AVC.png	135.81001996994019	0.6704599857330322
67	102.47996687889099	response	0	j		65.0	/home/egter/Projects/stimuli/pictures/S_PA_A004_C003_SDR_20190719_SDR_2K_AVC.png	136.46387600898743	
68	102.49657082557678	picture	0		102.0	66.0	/home/egter/Projects/stimuli/pictures/R_S_yt-f9iXELY0EJ0_344.png	136.48047995567322	0.8582830429077148
68	103.3383138179779	response	0	j		66.0	/home/egter/Projects/stimuli/pictures/R_S_yt-f9iXELY0EJ0_344.png	137.32222294807434	
69	103.3548538684845	picture	0		65.0	67.0	/home/egter/Projects/stimuli/pictures/S_yt-KK6fVRAMm-c_476.png	137.33876299858093	0.5477690696716309
69	103.88872981071472	response	0	j		67.0	/home/egter/Projects/stimuli/pictures/S_yt-KK6fVRAMm-c_476.png	137.87263894081116	
70	103.90262293815613	picture	0		90.0	68.0	/home/egter/Projects/stimuli/pictures/ILSVRC2012_test_00000567.JPEG	137.88653206825256	0.7605400085449219
70	104.64660596847534	response	0	k		68.0	/home/egter/Projects/stimuli/pictures/ILSVRC2012_test_00000567.JPEG	138.63051509857178	
71	104.66316294670105	picture	0		115.0	69.0	/home/egter/Projects/stimuli/pictures/n04515003_8158.JPEG	138.64707207679749	0.9615168571472168
71	105.61326599121094	response	0	k		69.0	/home/egter/Projects/stimuli/pictures/n04515003_8158.JPEG	139.59717512130737	
72	105.62467980384827	picture	0		82.0	70.0	/home/egter/Projects/stimuli/pictures/R_S_pexels-c-technical-6753390.png	139.6085889339447	0.6805591583251953
72	106.29659581184387	response	0	j		70.0	/home/egter/Projects/stimuli/pictures/R_S_pexels-c-technical-6753390.png	140.2805049419403	
73	106.30523896217346	picture	0		104.0	71.0	/home/egter/Projects/stimuli/pictures/R_S_yt-FoO02U39gy4_398.png	140.2891480922699	0.8745930194854736
73	107.16325187683105	response	0	j		71.0	/home/egter/Projects/stimuli/pictures/R_S_yt-FoO02U39gy4_398.png	141.1471610069275	
74	107.17983198165894	picture	0		266.0	72.0	/home/egter/Projects/stimuli/pictures/n09468604_17171.JPEG	141.16374111175537	2.22261381149292
74	109.38156390190125	response	0	k		72.0	/home/egter/Projects/stimuli/pictures/n09468604_17171.JPEG	143.36547303199768	
75	109.40244579315186	picture	0		149.0	73.0	/home/egter/Projects/stimuli/pictures/n01644900_17351.JPEG	143.3863549232483	1.252364158630371
75	110.63865184783936	response	0	k		73.0	/home/egter/Projects/stimuli/pictures/n01644900_17351.JPEG	144.6225609779358	
76	110.65480995178223	picture	0		84.0	74.0	/home/egter/Projects/stimuli/pictures/S_bing-vimeo_com_161378598_22.png	144.63871908187866	0.7082929611206055
76	111.34700989723206	response	0	j		74.0	/home/egter/Projects/stimuli/pictures/S_bing-vimeo_com_161378598_22.png	145.3309190273285	
77	111.36310291290283	picture	0		106.0	75.0	/home/egter/Projects/stimuli/pictures/R_S_yt-utYnOeoj2Rw_3.png	145.34701204299927	0.8865458965301514
77	112.23821592330933	response	0	j		75.0	/home/egter/Projects/stimuli/pictures/R_S_yt-utYnOeoj2Rw_3.png	146.22212505340576	
78	112.24964880943298	picture	0		251.0	76.0	/home/egter/Projects/stimuli/pictures/R_S_yt-BrepyEWKrPQ_20.png	146.23355793952942	2.096813201904297
78	114.3299469947815	response	0	j		76.0	/home/egter/Projects/stimuli/pictures/R_S_yt-BrepyEWKrPQ_20.png	148.31385612487793	
79	114.34646201133728	picture	0		106.0	77.0	/home/egter/Projects/stimuli/pictures/R_S_yt-tX3slAQb9yY_13.png	148.33037114143372	0.8916258811950684
79	115.22199392318726	response	0	j		77.0	/home/egter/Projects/stimuli/pictures/R_S_yt-tX3slAQb9yY_13.png	149.2059030532837	
80	115.23808789253235	picture	0		185.0	78.0	/home/egter/Projects/stimuli/pictures/S_yt-wE0cEswyaaM_53.png	149.22199702262878	1.546293020248413
80	116.76508092880249	response	0	j		78.0	/home/egter/Projects/stimuli/pictures/S_yt-wE0cEswyaaM_53.png	150.74899005889893	
81	116.78438091278076	picture	0		172.0	79.0	/home/egter/Projects/stimuli/pictures/R_S_production_ID_3761571.png	150.7682900428772	1.5207560062408447
81	118.20493793487549	response	0	j		79.0	/home/egter/Projects/stimuli/pictures/R_S_production_ID_3761571.png	152.18884706497192	
82	118.3051369190216	picture	0		72.0	80.0	/home/egter/Projects/stimuli/pictures/S_yt-mDil5vGZb14_4049.png	152.28904604911804	0.6079258918762207
82	118.89657878875732	response	0	j		80.0	/home/egter/Projects/stimuli/pictures/S_yt-mDil5vGZb14_4049.png	152.88048791885376	
83	118.91306281089783	picture	0		87.0	81.0	/home/egter/Projects/stimuli/pictures/n12985857_4585.JPEG	152.89697194099426	0.7333841323852539
83	119.62988090515137	response	0	k		81.0	/home/egter/Projects/stimuli/pictures/n12985857_4585.JPEG	153.6137900352478	
84	119.64644694328308	picture	0		494.0	82.0	/home/egter/Projects/stimuli/pictures/R_S_yt-Q4edV5qiqu0_578.png	153.63035607337952	4.116931915283203
84	123.75485396385193	response	0	j		82.0	/home/egter/Projects/stimuli/pictures/R_S_yt-Q4edV5qiqu0_578.png	157.73876309394836	
85	123.76337885856628	picture	0		156.0	83.0	/home/egter/Projects/stimuli/pictures/ILSVRC2012_test_00089629.JPEG	157.74728798866272	1.3080401420593262
85	125.05521893501282	response	0	k		83.0	/home/egter/Projects/stimuli/pictures/ILSVRC2012_test_00089629.JPEG	159.03912806510925	
86	125.07141900062561	picture	0		128.0	84.0	/home/egter/Projects/stimuli/pictures/n02092002_2626.JPEG	159.05532813072205	1.074976921081543
86	126.12985181808472	response	0	k		84.0	/home/egter/Projects/stimuli/pictures/n02092002_2626.JPEG	160.11376094818115	
87	126.14639592170715	picture	0		105.0	85.0	/home/egter/Projects/stimuli/pictures/R_S_yt-hQ5pge893b4_6.png	160.1303050518036	0.8833649158477783
87	127.01351380348206	response	0	j		85.0	/home/egter/Projects/stimuli/pictures/R_S_yt-hQ5pge893b4_6.png	160.9974229335785	
88	127.02976083755493	picture	0		384.0	86.0	/home/egter/Projects/stimuli/pictures/S_yt-vDjj0EWFdIU_49.png	161.01366996765137	3.2082600593566895
88	130.2218279838562	response	0	j		86.0	/home/egter/Projects/stimuli/pictures/S_yt-vDjj0EWFdIU_49.png	164.20573711395264	
89	130.23802089691162	picture	0		76.0	87.0	/home/egter/Projects/stimuli/pictures/R_S_yt-hMyqUMAbFAk_303.png	164.22193002700806	0.6364490985870361
89	130.86315298080444	response	0	j		87.0	/home/egter/Projects/stimuli/pictures/R_S_yt-hMyqUMAbFAk_303.png	164.84706211090088	
90	130.87446999549866	picture	0		113.0	88.0	/home/egter/Projects/stimuli/pictures/n12998815_432.JPEG	164.8583791255951	0.9469249248504639
90	131.80513882637024	response	0	k		88.0	/home/egter/Projects/stimuli/pictures/n12998815_432.JPEG	165.78904795646667	
91	131.82139492034912	picture	0		115.0	89.0	/home/egter/Projects/stimuli/pictures/S_pexels-c-technical-6753390.png	165.80530405044556	0.9666619300842285
91	132.77154397964478	response	0	j		89.0	/home/egter/Projects/stimuli/pictures/S_pexels-c-technical-6753390.png	166.7554531097412	
92	132.78805685043335	picture	0		187.0	90.0	/home/egter/Projects/stimuli/pictures/S_yt-0YZTgLdw-CA_322.png	166.77196598052979	1.56666898727417
92	134.33815097808838	response	0	k		90.0	/home/egter/Projects/stimuli/pictures/S_yt-0YZTgLdw-CA_322.png	168.32206010818481	
93	134.35472583770752	picture	0		87.0	91.0	/home/egter/Projects/stimuli/pictures/n02879718_27067.JPEG	168.33863496780396	0.7280261516571045
93	135.07151293754578	response	0	k		91.0	/home/egter/Projects/stimuli/pictures/n02879718_27067.JPEG	169.0554220676422	
94	135.08275198936462	picture	0		114.0	92.0	/home/egter/Projects/stimuli/pictures/S_ILSVRC2015_train_00339000.png	169.06666111946106	0.95135498046875
94	136.02147698402405	response	0	k		92.0	/home/egter/Projects/stimuli/pictures/S_ILSVRC2015_train_00339000.png	170.00538611412048	
95	136.03410696983337	picture	0		136.0	93.0	/home/egter/Projects/stimuli/pictures/S_yt-jbvXEFk2Gyw_12.png	170.0180160999298	1.1319169998168945
95	137.15475487709045	response	0	j		93.0	/home/egter/Projects/stimuli/pictures/S_yt-jbvXEFk2Gyw_12.png	171.1386640071869	
96	137.16602396965027	picture	0		103.0	94.0	/home/egter/Projects/stimuli/pictures/n02992529_42418.JPEG	171.1499330997467	0.8636729717254639
96	138.0133409500122	response	0	k		94.0	/home/egter/Projects/stimuli/pictures/n02992529_42418.JPEG	171.99725008010864	
97	138.02969694137573	picture	0		92.0	95.0	/home/egter/Projects/stimuli/pictures/S_yt-25xuzTBhwPk_109.png	172.01360607147217	0.7684569358825684
97	138.78124594688416	response	0	j		95.0	/home/egter/Projects/stimuli/pictures/S_yt-25xuzTBhwPk_109.png	172.7651550769806	
98	138.7981538772583	picture	0		127.0	96.0	/home/egter/Projects/stimuli/pictures/n04604644_8422.JPEG	172.78206300735474	1.0649189949035645
98	139.84664678573608	response	0	k		96.0	/home/egter/Projects/stimuli/pictures/n04604644_8422.JPEG	173.83055591583252	
99	139.86307287216187	picture	0		94.0	97.0	/home/egter/Projects/stimuli/pictures/n03841143_108.JPEG	173.8469820022583	0.7916140556335449
99	140.63834691047668	response	0	k		97.0	/home/egter/Projects/stimuli/pictures/n03841143_108.JPEG	174.62225604057312	
100	140.6546869277954	picture	0		97.0	98.0	/home/egter/Projects/stimuli/pictures/R_S_yt-lv6mhnH7_g4_134.png	174.63859605789185	0.8167209625244141
100	141.45481491088867	response	0	j		98.0	/home/egter/Projects/stimuli/pictures/R_S_yt-lv6mhnH7_g4_134.png	175.4387240409851	
101	141.47140789031982	picture	0		118.0	99.0	/home/egter/Projects/stimuli/pictures/S_yt-kASuBtMK7-o_79.png	175.45531702041626	0.9915621280670166
101	142.44638991355896	response	0	k		99.0	/home/egter/Projects/stimuli/pictures/S_yt-kASuBtMK7-o_79.png	176.4302990436554	
102	142.46297001838684	picture	0		90.0	100.0	/home/egter/Projects/stimuli/pictures/n02107908_1389.JPEG	176.44687914848328	0.7516369819641113
102	143.19803881645203	response	0	k		100.0	/home/egter/Projects/stimuli/pictures/n02107908_1389.JPEG	177.18194794654846	
103	143.21460700035095	picture	0		307.0	101.0	/home/egter/Projects/stimuli/pictures/S_yt-gbDSSDcRlg4_19.png	177.1985161304474	2.56504487991333
103	145.76328086853027	response	0	k		101.0	/home/egter/Projects/stimuli/pictures/S_yt-gbDSSDcRlg4_19.png	179.7471899986267	
104	145.77965188026428	picture	0		141.0	102.0	/home/egter/Projects/stimuli/pictures/S_yt-4oacL3aXtlU_11.png	179.76356101036072	1.1833200454711914
104	146.94647192955017	response	0	k		102.0	/home/egter/Projects/stimuli/pictures/S_yt-4oacL3aXtlU_11.png	180.9303810596466	
105	146.96297192573547	picture	0		111.0	103.0	/home/egter/Projects/stimuli/pictures/S_production_ID_4269182.png	180.9468810558319	0.933319091796875
105	147.87978196144104	response	0	j		103.0	/home/egter/Projects/stimuli/pictures/S_production_ID_4269182.png	181.86369109153748	
106	147.89629101753235	picture	0		160.0	104.0	/home/egter/Projects/stimuli/pictures/n04037443_53706.JPEG	181.88020014762878	1.3417158126831055
106	149.21463894844055	response	0	k		104.0	/home/egter/Projects/stimuli/pictures/n04037443_53706.JPEG	183.198548078537	
107	149.23800683021545	picture	0		112.0	105.0	/home/egter/Projects/stimuli/pictures/R_S_video_inspire_oregon_portland_00064.png	183.2219159603119	0.941641092300415
107	150.16308188438416	response	0	k		105.0	/home/egter/Projects/stimuli/pictures/R_S_video_inspire_oregon_portland_00064.png	184.1469910144806	
108	150.17964792251587	picture	0		110.0	106.0	/home/egter/Projects/stimuli/pictures/S_yt-cu4AVz6o2eg_24.png	184.1635570526123	0.9249858856201172
108	151.08807396888733	response	0	k		106.0	/home/egter/Projects/stimuli/pictures/S_yt-cu4AVz6o2eg_24.png	185.07198309898376	
109	151.104633808136	picture	0		99.0	107.0	/home/egter/Projects/stimuli/pictures/S_ILSVRC2015_train_00572000.png	185.08854293823242	0.8251781463623047
109	151.92142987251282	response	0	j		107.0	/home/egter/Projects/stimuli/pictures/S_ILSVRC2015_train_00572000.png	185.90533900260925	
110	151.9298119544983	picture	0		99.0	108.0	/home/egter/Projects/stimuli/pictures/n02514041_13519.JPEG	185.91372108459473	0.8331718444824219
110	152.7464098930359	response	0	k		108.0	/home/egter/Projects/stimuli/pictures/n02514041_13519.JPEG	186.73031902313232	
111	152.7629837989807	picture	0		124.0	109.0	/home/egter/Projects/stimuli/pictures/S_yt-9NV8zv2Sdq4_30.png	186.74689292907715	1.0416700839996338
111	153.7880458831787	response	0	j		109.0	/home/egter/Projects/stimuli/pictures/S_yt-9NV8zv2Sdq4_30.png	187.77195501327515	
112	153.80465388298035	picture	0		106.0	110.0	/home/egter/Projects/stimuli/pictures/n02174001_3222.JPEG	187.78856301307678	0.8915960788726807
112	154.67990493774414	response	0	k		110.0	/home/egter/Projects/stimuli/pictures/n02174001_3222.JPEG	188.66381406784058	
113	154.69624996185303	picture	0		96.0	111.0	/home/egter/Projects/stimuli/pictures/n03443371_23848.JPEG	188.68015909194946	0.8029930591583252
113	155.48804879188538	response	0	k		111.0	/home/egter/Projects/stimuli/pictures/n03443371_23848.JPEG	189.4719579219818	
114	155.49924302101135	picture	0		64.0	112.0	/home/egter/Projects/stimuli/pictures/n04238763_6901.JPEG	189.4831521511078	0.5386829376220703
114	156.02141690254211	response	0	k		112.0	/home/egter/Projects/stimuli/pictures/n04238763_6901.JPEG	190.00532603263855	
115	156.03792595863342	picture	0		71.0	113.0	/home/egter/Projects/stimuli/pictures/n07714990_3116.JPEG	190.02183508872986	0.5932159423828125
115	156.62138891220093	response	0	k		113.0	/home/egter/Projects/stimuli/pictures/n07714990_3116.JPEG	190.60529804229736	
116	156.63114190101624	picture	0		101.0	114.0	/home/egter/Projects/stimuli/pictures/S_yt-BrepyEWKrPQ_20.png	190.61505103111267	0.8485069274902344
116	157.46309900283813	response	0	k		114.0	/home/egter/Projects/stimuli/pictures/S_yt-BrepyEWKrPQ_20.png	191.44700813293457	
117	157.47964882850647	picture	0		643.0	115.0	/home/egter/Projects/stimuli/pictures/n04141327_1141.JPEG	191.4635579586029	5.366588115692139
117	162.82287883758545	response	0	k		115.0	/home/egter/Projects/stimuli/pictures/n04141327_1141.JPEG	196.80678796768188	
118	162.8462369441986	picture	0		133.0	116.0	/home/egter/Projects/stimuli/pictures/R_S_yt-vDjj0EWFdIU_49.png	196.83014607429504	1.1112699508666992
118	163.9463529586792	response	0	j		116.0	/home/egter/Projects/stimuli/pictures/R_S_yt-vDjj0EWFdIU_49.png	197.93026208877563	
119	163.9575068950653	picture	0		177.0	117.0	/home/egter/Projects/stimuli/pictures/R_S_yt-b7JAHOeiTqU_44.png	197.94141602516174	1.4803900718688965
119	165.41466093063354	response	0	j		117.0	/home/egter/Projects/stimuli/pictures/R_S_yt-b7JAHOeiTqU_44.png	199.39857006072998	
120	165.4378969669342	picture	0		84.0	118.0	/home/egter/Projects/stimuli/pictures/n04146614_1829.JPEG	199.42180609703064	0.7000949382781982
120	166.12967991828918	response	0	j		118.0	/home/egter/Projects/stimuli/pictures/n04146614_1829.JPEG	200.11358904838562	
121	166.1379919052124	picture	0		242.0	119.0	/home/egter/Projects/stimuli/pictures/n02701002_3387.JPEG	200.12190103530884	2.024907112121582
121	168.14636301994324	response	0	k		119.0	/home/egter/Projects/stimuli/pictures/n02701002_3387.JPEG	202.13027215003967	
122	168.16289901733398	picture	0		121.0	120.0	/home/egter/Projects/stimuli/pictures/S_wc-jujp1kJRHrkJ_54.png	202.14680814743042	1.0097990036010742
122	169.16299700737	response	0	j		120.0	/home/egter/Projects/stimuli/pictures/S_wc-jujp1kJRHrkJ_54.png	203.14690613746643	
123	169.17269802093506	picture	0		134.0	121.0	/home/egter/Projects/stimuli/pictures/S_yt-a9bnYU0Gnxg_59.png	203.1566071510315	1.1234769821166992
123	170.2796289920807	response	0	j		121.0	/home/egter/Projects/stimuli/pictures/S_yt-a9bnYU0Gnxg_59.png	204.26353812217712	
124	170.29617500305176	picture	0		66.0	122.0	/home/egter/Projects/stimuli/pictures/S_yt-Rybd-sKJFz0_78.png	204.2800841331482	0.5584478378295898
124	170.83799481391907	response	0	j		122.0	/home/egter/Projects/stimuli/pictures/S_yt-Rybd-sKJFz0_78.png	204.8219039440155	
125	170.85462284088135	picture	0		73.0	123.0	/home/egter/Projects/stimuli/pictures/S_yt-UKrWbJEs7pw_74.png	204.83853197097778	0.6097509860992432
125	171.45464301109314	response	0	j		123.0	/home/egter/Projects/stimuli/pictures/S_yt-UKrWbJEs7pw_74.png	205.43855214118958	
126	171.4643738269806	picture	0		137.0	124.0	/home/egter/Projects/stimuli/pictures/n01924916_385.JPEG	205.44828295707703	1.1485810279846191
126	172.59637784957886	response	0	k		124.0	/home/egter/Projects/stimuli/pictures/n01924916_385.JPEG	206.5802869796753	
127	172.6129548549652	picture	0		79.0	125.0	/home/egter/Projects/stimuli/pictures/S_yt-hQ5pge893b4_6.png	206.59686398506165	0.6665921211242676
127	173.26304984092712	response	0	k		125.0	/home/egter/Projects/stimuli/pictures/S_yt-hQ5pge893b4_6.png	207.24695897102356	
128	173.27954697608948	picture	0		237.0	126.0	/home/egter/Projects/stimuli/pictures/S_yt-PvWkOmfZuSY_4.png	207.2634561061859	1.9833028316497803
128	175.24631094932556	response	0	j		126.0	/home/egter/Projects/stimuli/pictures/S_yt-PvWkOmfZuSY_4.png	209.230220079422	
129	175.26284980773926	picture	0		154.0	127.0	/home/egter/Projects/stimuli/pictures/S_production_ID_4325591.png	209.2467589378357	1.2916560173034668
129	176.5379638671875	response	0	j		127.0	/home/egter/Projects/stimuli/pictures/S_production_ID_4325591.png	210.52187299728394	
130	176.55450582504272	picture	0		209.0	128.0	/home/egter/Projects/stimuli/pictures/n04467665_9941.JPEG	210.53841495513916	1.749993085861206
130	178.28797888755798	response	0	k		128.0	/home/egter/Projects/stimuli/pictures/n04467665_9941.JPEG	212.27188801765442	
131	178.30449891090393	picture	0		84.0	129.0	/home/egter/Projects/stimuli/pictures/S_pexels-mart-production-7279749.png	212.28840804100037	0.7014338970184326
131	178.99630188941956	response	0	k		129.0	/home/egter/Projects/stimuli/pictures/S_pexels-mart-production-7279749.png	212.980211019516	
132	179.00593280792236	picture	0		80.0	130.0	/home/egter/Projects/stimuli/pictures/n04423845_5637.JPEG	212.9898419380188	0.673530101776123
132	179.66296291351318	response	0	k		130.0	/home/egter/Projects/stimuli/pictures/n04423845_5637.JPEG	213.64687204360962	
133	179.6794629096985	picture	0		113.0	131.0	/home/egter/Projects/stimuli/pictures/n03478589_13639.JPEG	213.66337203979492	0.9500100612640381
133	180.60605192184448	response	0	k		131.0	/home/egter/Projects/stimuli/pictures/n03478589_13639.JPEG	214.58996105194092	
134	180.62947297096252	picture	0		101.0	132.0	/home/egter/Projects/stimuli/pictures/n01981276_1306.JPEG	214.61338210105896	0.8499770164489746
134	181.46290493011475	response	0	k		132.0	/home/egter/Projects/stimuli/pictures/n01981276_1306.JPEG	215.44681406021118	
135	181.4794499874115	picture	0		78.0	133.0	/home/egter/Projects/stimuli/pictures/n02093256_1787.JPEG	215.46335911750793	0.6583549976348877
135	182.12128281593323	response	0	k		133.0	/home/egter/Projects/stimuli/pictures/n02093256_1787.JPEG	216.10519194602966	
136	182.1378049850464	picture	0		77.0	134.0	/home/egter/Projects/stimuli/pictures/n04118776_62273.JPEG	216.12171411514282	0.649979829788208
136	182.77130389213562	response	0	k		134.0	/home/egter/Projects/stimuli/pictures/n04118776_62273.JPEG	216.75521302223206	
137	182.7877848148346	picture	0		90.0	135.0	/home/egter/Projects/stimuli/pictures/S_yt-UZ-k4A-eD20_124.png	216.77169394493103	0.7583591938018799
137	183.5295889377594	response	0	k		135.0	/home/egter/Projects/stimuli/pictures/S_yt-UZ-k4A-eD20_124.png	217.51349806785583	
138	183.54614400863647	picture	0		117.0	136.0	/home/egter/Projects/stimuli/pictures/S_yt-J1dw4AznwmQ_7.png	217.5300531387329	0.9805598258972168
138	184.51291799545288	response	0	k		136.0	/home/egter/Projects/stimuli/pictures/S_yt-J1dw4AznwmQ_7.png	218.49682712554932	
139	184.5267038345337	picture	0		96.0	137.0	/home/egter/Projects/stimuli/pictures/n01753488_3517.JPEG	218.51061296463013	0.8111081123352051
139	185.32125186920166	response	0	k		137.0	/home/egter/Projects/stimuli/pictures/n01753488_3517.JPEG	219.3051609992981	
140	185.3378119468689	picture	0		408.0	138.0	/home/egter/Projects/stimuli/pictures/R_S_I003_C015_SDR_2K_AVC.png	219.32172107696533	3.4083070755004883
140	188.72953391075134	response	0	k		138.0	/home/egter/Projects/stimuli/pictures/R_S_I003_C015_SDR_2K_AVC.png	222.71344304084778	
141	188.74611902236938	picture	0		95.0	139.0	/home/egter/Projects/stimuli/pictures/n02966193_88531.JPEG	222.73002815246582	0.7999758720397949
141	189.52956700325012	response	0	k		139.0	/home/egter/Projects/stimuli/pictures/n02966193_88531.JPEG	223.51347613334656	
142	189.54609489440918	picture	0		95.0	140.0	/home/egter/Projects/stimuli/pictures/S_2E67nCgRCGk_75.png	223.53000402450562	0.8000190258026123
142	190.32958102226257	response	0	k		140.0	/home/egter/Projects/stimuli/pictures/S_2E67nCgRCGk_75.png	224.313490152359	
143	190.3461139202118	picture	0		88.0	141.0	/home/egter/Projects/stimuli/pictures/n02105162_1397.JPEG	224.33002305030823	0.7416729927062988
143	191.07124590873718	response	0	k		141.0	/home/egter/Projects/stimuli/pictures/n02105162_1397.JPEG	225.05515503883362	
144	191.0877869129181	picture	0		79.0	142.0	/home/egter/Projects/stimuli/pictures/n04589890_8405.JPEG	225.07169604301453	0.6666469573974609
144	191.7380678653717	response	0	k		142.0	/home/egter/Projects/stimuli/pictures/n04589890_8405.JPEG	225.72197699546814	
145	191.75443387031555	picture	0		126.0	143.0	/home/egter/Projects/stimuli/pictures/S_yt-g_RCws799LQ_52.png	225.738343000412	1.0583291053771973
145	192.79623198509216	response	0	k		143.0	/home/egter/Projects/stimuli/pictures/S_yt-g_RCws799LQ_52.png	226.7801411151886	
146	192.81276297569275	picture	0		79.0	144.0	/home/egter/Projects/stimuli/pictures/n03223299_21471.JPEG	226.79667210578918	0.6666698455810547
146	193.4628939628601	response	0	k		144.0	/home/egter/Projects/stimuli/pictures/n03223299_21471.JPEG	227.44680309295654	
147	193.4794328212738	picture	0		94.0	145.0	/home/egter/Projects/stimuli/pictures/R_S_yt-osdlC1buTaM_4.png	227.46334195137024	0.7833201885223389
147	194.25446891784668	response	0	j		145.0	/home/egter/Projects/stimuli/pictures/R_S_yt-osdlC1buTaM_4.png	228.23837804794312	
148	194.26275300979614	picture	0		92.0	146.0	/home/egter/Projects/stimuli/pictures/n02804610_3301.JPEG	228.24666213989258	0.7750089168548584
148	195.01440286636353	response	0	k		146.0	/home/egter/Projects/stimuli/pictures/n02804610_3301.JPEG	228.99831199645996	
149	195.037761926651	picture	0		409.0	147.0	/home/egter/Projects/stimuli/pictures/R_S_wc-dwTccI0TNwps_15.png	229.02167105674744	3.4124250411987305
149	198.43106198310852	response	0	j		147.0	/home/egter/Projects/stimuli/pictures/R_S_wc-dwTccI0TNwps_15.png	232.41497111320496	
150	198.45018696784973	picture	0		116.0	148.0	/home/egter/Projects/stimuli/pictures/R_S_yt-H-2Vvouw9VI_85.png	232.43409609794617	0.9708738327026367
150	199.40451002120972	response	0	j		148.0	/home/egter/Projects/stimuli/pictures/R_S_yt-H-2Vvouw9VI_85.png	233.38841915130615	
151	199.42106080055237	picture	0		326.0	149.0	/home/egter/Projects/stimuli/pictures/n07718472_31015.JPEG	233.4049699306488	2.725006103515625
151	202.12949991226196	response	0	k		149.0	/home/egter/Projects/stimuli/pictures/n07718472_31015.JPEG	236.1134090423584	
152	202.146066904068	picture	0		216.0	150.0	/home/egter/Projects/stimuli/pictures/S_yt-iuqdW5OLSzc_6.png	236.12997603416443	1.8083350658416748
152	203.9378478527069	response	0	k		150.0	/home/egter/Projects/stimuli/pictures/S_yt-iuqdW5OLSzc_6.png	237.92175698280334	
153	203.95440196990967	picture	0		172.0	151.0	/home/egter/Projects/stimuli/pictures/n02701002_502.JPEG	237.9383111000061	1.4416320323944092
153	205.37950682640076	response	0	k		151.0	/home/egter/Projects/stimuli/pictures/n02701002_502.JPEG	239.3634159564972	
154	205.39603400230408	picture	0		200.0	152.0	/home/egter/Projects/stimuli/pictures/n03933933_9411.JPEG	239.3799431324005	1.675015926361084
154	207.05449295043945	response	0	k		152.0	/home/egter/Projects/stimuli/pictures/n03933933_9411.JPEG	241.0384020805359	
155	207.07104992866516	picture	0		139.0	153.0	/home/egter/Projects/stimuli/pictures/R_S_S005_C015_SDR_2K_AVC.png	241.0549590587616	1.1637699604034424
155	208.21434593200684	response	0	k		153.0	/home/egter/Projects/stimuli/pictures/R_S_S005_C015_SDR_2K_AVC.png	242.19825506210327	
156	208.2348198890686	picture	0		121.0	154.0	/home/egter/Projects/stimuli/pictures/R_S_wc-jujp1kJRHrkJ_54.png	242.21872901916504	1.0195770263671875
156	209.23098397254944	response	0	j		154.0	/home/egter/Projects/stimuli/pictures/R_S_wc-jujp1kJRHrkJ_54.png	243.21489310264587	
157	209.2543969154358	picture	0		129.0	155.0	/home/egter/Projects/stimuli/pictures/S_yt-a_awONsLFfE_107.png	243.23830604553223	1.0832879543304443
157	210.32116079330444	response	0	k		155.0	/home/egter/Projects/stimuli/pictures/S_yt-a_awONsLFfE_107.png	244.30506992340088	
158	210.33768486976624	picture	0		158.0	156.0	/home/egter/Projects/stimuli/pictures/S_video-12.png	244.32159399986267	1.32499098777771
158	211.64611983299255	response	0	j		156.0	/home/egter/Projects/stimuli/pictures/S_video-12.png	245.630028963089	
159	211.66267585754395	picture	0		80.0	157.0	/home/egter/Projects/stimuli/pictures/S_yt-nfDPFHUDq8g_136.png	245.64658498764038	0.6750121116638184
159	212.3210790157318	response	0	j		157.0	/home/egter/Projects/stimuli/pictures/S_yt-nfDPFHUDq8g_136.png	246.30498814582825	
160	212.33768796920776	picture	0		110.0	158.0	/home/egter/Projects/stimuli/pictures/ILSVRC2012_test_00031454.JPEG	246.3215970993042	0.9179320335388184
160	213.2461588382721	response	0	k		158.0	/home/egter/Projects/stimuli/pictures/ILSVRC2012_test_00031454.JPEG	247.23006796836853	
161	213.25562000274658	picture	0		824.0	159.0	/home/egter/Projects/stimuli/pictures/n03857828_60710.JPEG	247.23952913284302	6.873690843582153
161	220.11278891563416	response	0	k		159.0	/home/egter/Projects/stimuli/pictures/n03857828_60710.JPEG	254.0966980457306	
162	220.12931084632874	picture	0		119.0	160.0	/home/egter/Projects/stimuli/pictures/n01797886_10204.JPEG	254.11321997642517	0.9999849796295166
162	221.112774848938	response	0	k		160.0	/home/egter/Projects/stimuli/pictures/n01797886_10204.JPEG	255.09668397903442	
163	221.12929582595825	picture	0		82.0	161.0	/home/egter/Projects/stimuli/pictures/ILSVRC2012_test_00016248.JPEG	255.1132049560547	0.6916589736938477
163	221.80440497398376	response	0	k		161.0	/home/egter/Projects/stimuli/pictures/ILSVRC2012_test_00016248.JPEG	255.7883141040802	
164	221.8209547996521	picture	0		113.0	162.0	/home/egter/Projects/stimuli/pictures/S_yt-PltpRRYmQQk_62.png	255.80486392974854	0.9500181674957275
164	222.7544548511505	response	0	j		162.0	/home/egter/Projects/stimuli/pictures/S_yt-PltpRRYmQQk_62.png	256.73836398124695	
165	222.77097296714783	picture	0		191.0	163.0	/home/egter/Projects/stimuli/pictures/n02930766_9866.JPEG	256.75488209724426	1.5999548435211182
165	224.35440301895142	response	0	k		163.0	/home/egter/Projects/stimuli/pictures/n02930766_9866.JPEG	258.33831214904785	
166	224.37092781066895	picture	0		85.0	164.0	/home/egter/Projects/stimuli/pictures/n03788195_4503.JPEG	258.3548369407654	0.7167181968688965
166	225.07110381126404	response	0	k		164.0	/home/egter/Projects/stimuli/pictures/n03788195_4503.JPEG	259.0550129413605	
167	225.08764600753784	picture	0		71.0	165.0	/home/egter/Projects/stimuli/pictures/n04443257_5252.JPEG	259.0715551376343	0.5999908447265625
167	225.67108988761902	response	0	k		165.0	/home/egter/Projects/stimuli/pictures/n04443257_5252.JPEG	259.65499901771545	
168	225.6876368522644	picture	0		66.0	166.0	/home/egter/Projects/stimuli/pictures/R_S_yt-UKrWbJEs7pw_74.png	259.67154598236084	0.5584011077880859
168	226.22253894805908	response	0	k		166.0	/home/egter/Projects/stimuli/pictures/R_S_yt-UKrWbJEs7pw_74.png	260.2064480781555	
169	226.2460379600525	picture	0		99.0	167.0	/home/egter/Projects/stimuli/pictures/S_yt-0n0uppNuUus_15.png	260.2299470901489	0.8333020210266113
169	227.06277799606323	response	0	j		167.0	/home/egter/Projects/stimuli/pictures/S_yt-0n0uppNuUus_15.png	261.04668712615967	
170	227.0793399810791	picture	0		84.0	168.0	/home/egter/Projects/stimuli/pictures/S_video.png	261.06324911117554	0.7082958221435547
170	227.7710738182068	response	0	j		168.0	/home/egter/Projects/stimuli/pictures/S_video.png	261.7549829483032	
171	227.78763580322266	picture	0		151.0	169.0	/home/egter/Projects/stimuli/pictures/R_S_video-5.png	261.7715449333191	1.2666630744934082
171	229.03093791007996	response	0	j		169.0	/home/egter/Projects/stimuli/pictures/R_S_video-5.png	263.0148470401764	
172	229.05429887771606	picture	0		125.0	170.0	/home/egter/Projects/stimuli/pictures/S_ILSVRC2015_train_00351000.png	263.0382080078125	1.04994797706604
172	230.08776998519897	response	0	k		170.0	/home/egter/Projects/stimuli/pictures/S_ILSVRC2015_train_00351000.png	264.0716791152954	
173	230.1042468547821	picture	0		127.0	171.0	/home/egter/Projects/stimuli/pictures/S_production_ID_4820325.png	264.08815598487854	1.0667080879211426
173	231.15453696250916	response	0	j		171.0	/home/egter/Projects/stimuli/pictures/S_production_ID_4820325.png	265.1384460926056	
174	231.17095494270325	picture	0		442.0	172.0	/home/egter/Projects/stimuli/pictures/n09468604_8572.JPEG	265.1548640727997	3.6916210651397705
174	234.83930087089539	response	0	k		172.0	/home/egter/Projects/stimuli/pictures/n09468604_8572.JPEG	268.8232100009918	
175	234.86257600784302	picture	0		128.0	173.0	/home/egter/Projects/stimuli/pictures/S_yt-7NjoFHBdP7c_102.png	268.84648513793945	1.0733768939971924
175	235.92101788520813	response	0	j		173.0	/home/egter/Projects/stimuli/pictures/S_yt-7NjoFHBdP7c_102.png	269.90492701530457	
176	235.9359529018402	picture	0		97.0	174.0	/home/egter/Projects/stimuli/pictures/S_yt-9T99N7Cvi_o_112.png	269.91986203193665	0.8182950019836426
176	236.73769187927246	response	0	j		174.0	/home/egter/Projects/stimuli/pictures/S_yt-9T99N7Cvi_o_112.png	270.7216010093689	
177	236.75424790382385	picture	0		627.0	175.0	/home/egter/Projects/stimuli/pictures/S_yt-iiGwN9FQrZo_1.png	270.7381570339203	5.230294942855835
177	240.84749579429626	response	0	space		175.0	/home/egter/Projects/stimuli/pictures/S_yt-iiGwN9FQrZo_1.png	274.8314049243927	
177	241.9710009098053	response	0	k		175.0	/home/egter/Projects/stimuli/pictures/S_yt-iiGwN9FQrZo_1.png	275.95491003990173	
178	241.9845428466797	picture	0		125.0	176.0	/home/egter/Projects/stimuli/pictures/S_production_ID_4584682.png	275.9684519767761	1.0530431270599365
178	243.02102398872375	response	0	j		176.0	/home/egter/Projects/stimuli/pictures/S_production_ID_4584682.png	277.0049331188202	
179	243.03758597373962	picture	0		106.0	177.0	/home/egter/Projects/stimuli/pictures/n03933933_10972.JPEG	277.02149510383606	0.8916189670562744
179	243.91268587112427	response	0	k		177.0	/home/egter/Projects/stimuli/pictures/n03933933_10972.JPEG	277.8965950012207	
180	243.9292049407959	picture	0		100.0	178.0	/home/egter/Projects/stimuli/pictures/R_S_DV6V38rplag_215.png	277.91311407089233	0.841649055480957
180	244.75433897972107	response	0	j		178.0	/home/egter/Projects/stimuli/pictures/R_S_DV6V38rplag_215.png	278.7382481098175	
181	244.77085399627686	picture	0		112.0	179.0	/home/egter/Projects/stimuli/pictures/S_comp_GMT026_363A_103NC_E1027_KOREA_JAPAN_NIGHT_v18_SDR_PS_20180907_SDR_2K_AVC.png	278.7547631263733	0.935870885848999
181	245.69596791267395	response	0	j		179.0	/home/egter/Projects/stimuli/pictures/S_comp_GMT026_363A_103NC_E1027_KOREA_JAPAN_NIGHT_v18_SDR_PS_20180907_SDR_2K_AVC.png	279.6798770427704	
182	245.70672488212585	stim	0		298.0			279.6906340122223	2.480799913406372
182	248.17932391166687	response	0	space				282.1632330417633	
