trial_nr	onset	event_type	phase	response	nr_frames	picture_index	picture_file	onset_abs	duration
0	0.013725042343139648	stim	0		3264.0			31.370931148529053	27.212018966674805
0	27.2001850605011	response	0	space				58.55739116668701	
2	27.225744009017944	picture	0		1767.0	0.0	/home/egter/Projects/stimuli/pictures/S_yt-GVaF4tmJBZE_253.png	58.58295011520386	14.728981018066406
2	41.94084095954895	response	0	j		0.0	/home/egter/Projects/stimuli/pictures/S_yt-GVaF4tmJBZE_253.png	73.29804706573486	
3	41.95472502708435	picture	0		220.0	1.0	/home/egter/Projects/stimuli/pictures/S_wc-zkO_omg3nTvg_5.png	73.31193113327026	1.840285062789917
3	43.77582406997681	response	0	k		1.0	/home/egter/Projects/stimuli/pictures/S_wc-zkO_omg3nTvg_5.png	75.13303017616272	
4	43.79501008987427	picture	0		123.0	2.0	/home/egter/Projects/stimuli/pictures/n02486261_18987.JPEG	75.15221619606018	1.0207099914550781
4	44.80039405822754	response	0	k		2.0	/home/egter/Projects/stimuli/pictures/n02486261_18987.JPEG	76.15760016441345	
5	44.815720081329346	picture	0		95.0	3.0	/home/egter/Projects/stimuli/pictures/R_S_yt-kA0ybjmoiMc_284.png	76.17292618751526	0.7916138172149658
5	45.59206795692444	response	0	j		3.0	/home/egter/Projects/stimuli/pictures/R_S_yt-kA0ybjmoiMc_284.png	76.94927406311035	
6	45.60733389854431	picture	0		129.0	4.0	/home/egter/Projects/stimuli/pictures/n02504458_12095.JPEG	76.96454000473022	1.0764191150665283
6	46.67388606071472	response	0	k		4.0	/home/egter/Projects/stimuli/pictures/n02504458_12095.JPEG	78.03109216690063	
7	46.68375301361084	picture	0		80.0	5.0	/home/egter/Projects/stimuli/pictures/S_wc-jujp1kJRHrkJ_54.png	78.04095911979675	0.6666560173034668
7	47.34051489830017	response	0	j		5.0	/home/egter/Projects/stimuli/pictures/S_wc-jujp1kJRHrkJ_54.png	78.69772100448608	
8	47.35040903091431	picture	0		592.0	6.0	/home/egter/Projects/stimuli/pictures/n02441942_287.JPEG	78.70761513710022	4.937505006790161
8	52.27411198616028	response	0	k		6.0	/home/egter/Projects/stimuli/pictures/n02441942_287.JPEG	83.63131809234619	
9	52.28791403770447	picture	0		98.0	7.0	/home/egter/Projects/stimuli/pictures/S_yt-X6ivH9SqGu8_306.png	83.64512014389038	0.8193318843841553
9	53.098896980285645	response	0	j		7.0	/home/egter/Projects/stimuli/pictures/S_yt-X6ivH9SqGu8_306.png	84.45610308647156	
10	53.10724592208862	picture	0		98.0	8.0	/home/egter/Projects/stimuli/pictures/n04041544_12856.JPEG	84.46445202827454	0.819465160369873
10	53.9155170917511	response	0	k		8.0	/home/egter/Projects/stimuli/pictures/n04041544_12856.JPEG	85.27272319793701	
11	53.926711082458496	picture	0		103.0	9.0	/home/egter/Projects/stimuli/pictures/S_-vPHq-7BJ70_15.png	85.28391718864441	0.8613770008087158
11	54.774035930633545	response	0	j		9.0	/home/egter/Projects/stimuli/pictures/S_-vPHq-7BJ70_15.png	86.13124203681946	
12	54.78808808326721	picture	0		223.0	10.0	/home/egter/Projects/stimuli/pictures/n03662601_1589.JPEG	86.14529418945312	1.8608078956604004
12	56.64051795005798	response	0	j		10.0	/home/egter/Projects/stimuli/pictures/n03662601_1589.JPEG	87.9977240562439	
13	56.64889597892761	picture	0		115.0	11.0	/home/egter/Projects/stimuli/pictures/n09288635_24719.JPEG	88.00610208511353	0.9583370685577393
13	57.59204411506653	response	0	k		11.0	/home/egter/Projects/stimuli/pictures/n09288635_24719.JPEG	88.94925022125244	
14	57.60723304748535	picture	0		514.0	12.0	/home/egter/Projects/stimuli/pictures/S_yt-kXarkCFJLeg_46.png	88.96443915367126	4.284703969955444
14	61.882198095321655	response	0	j		12.0	/home/egter/Projects/stimuli/pictures/S_yt-kXarkCFJLeg_46.png	93.23940420150757	
15	61.891937017440796	picture	0		120.0	13.0	/home/egter/Projects/stimuli/pictures/S_yt-RWN5qOIgqec_25.png	93.24914312362671	1.0000030994415283
15	62.882144927978516	response	0	j		13.0	/home/egter/Projects/stimuli/pictures/S_yt-RWN5qOIgqec_25.png	94.23935103416443	
16	62.891940116882324	picture	0		331.0	14.0	/home/egter/Projects/stimuli/pictures/R_S_video_inspire_sanfrancisco_castro_005.png	94.24914622306824	2.756903886795044
16	65.6405119895935	response	0	j		14.0	/home/egter/Projects/stimuli/pictures/R_S_video_inspire_sanfrancisco_castro_005.png	96.99771809577942	
17	65.64884400367737	picture	0		108.0	15.0	/home/egter/Projects/stimuli/pictures/S_yt-DmlSN7mzczI_62.png	97.00605010986328	0.9027900695800781
17	66.5404748916626	response	0	j		15.0	/home/egter/Projects/stimuli/pictures/S_yt-DmlSN7mzczI_62.png	97.89768099784851	
18	66.55163407325745	picture	0		95.0	16.0	/home/egter/Projects/stimuli/pictures/S_yt-XpM1Jtwlvvk_42.png	97.90884017944336	0.7917048931121826
18	67.33209109306335	response	0	j		16.0	/home/egter/Projects/stimuli/pictures/S_yt-XpM1Jtwlvvk_42.png	98.68929719924927	
19	67.34333896636963	picture	0		244.0	17.0	/home/egter/Projects/stimuli/pictures/S_yt--4P7Xab3nPw_304.png	98.70054507255554	2.0347540378570557
19	69.36548805236816	response	0	j		17.0	/home/egter/Projects/stimuli/pictures/S_yt--4P7Xab3nPw_304.png	100.72269415855408	
20	69.37809300422668	picture	0		124.0	18.0	/home/egter/Projects/stimuli/pictures/S_ILSVRC2015_train_00661004.png	100.7352991104126	1.0416409969329834
20	70.40040898323059	response	0	k		18.0	/home/egter/Projects/stimuli/pictures/S_ILSVRC2015_train_00661004.png	101.7576150894165	
21	70.41973400115967	picture	0		91.0	19.0	/home/egter/Projects/stimuli/pictures/S_yt-2y6A9DJPsDU_65.png	101.77694010734558	0.7569019794464111
21	71.16550397872925	response	0	j		19.0	/home/egter/Projects/stimuli/pictures/S_yt-2y6A9DJPsDU_65.png	102.52271008491516	
22	71.17663598060608	picture	0		885.0	20.0	/home/egter/Projects/stimuli/pictures/S_DL_B002_C011_SDR_20191122_SDR_2K_AVC.png	102.53384208679199	7.38043999671936
22	78.54037189483643	response	0	k		20.0	/home/egter/Projects/stimuli/pictures/S_DL_B002_C011_SDR_20191122_SDR_2K_AVC.png	109.89757800102234	
23	78.55707597732544	picture	0		296.0	21.0	/home/egter/Projects/stimuli/pictures/S_yt-un00Oks5uVc_7.png	109.91428208351135	2.4666080474853516
23	81.00862908363342	response	0	k		21.0	/home/egter/Projects/stimuli/pictures/S_yt-un00Oks5uVc_7.png	112.36583518981934	
24	81.02368402481079	picture	0		132.0	22.0	/home/egter/Projects/stimuli/pictures/S_yt-LsCCAQ8BRO8_7.png	112.3808901309967	1.1042389869689941
24	82.11537003517151	response	0	k		22.0	/home/egter/Projects/stimuli/pictures/S_yt-LsCCAQ8BRO8_7.png	113.47257614135742	
25	82.12792301177979	picture	0		95.0	23.0	/home/egter/Projects/stimuli/pictures/R_S_yt-Kwfwhd07dVo_2.png	113.4851291179657	0.7916688919067383
25	82.90706610679626	response	0	j		23.0	/home/egter/Projects/stimuli/pictures/R_S_yt-Kwfwhd07dVo_2.png	114.26427221298218	
26	82.91959190368652	picture	0		173.0	24.0	/home/egter/Projects/stimuli/pictures/S_yt-p0buJEEKeuI_61.png	114.27679800987244	1.4374010562896729
26	84.34872603416443	response	0	j		24.0	/home/egter/Projects/stimuli/pictures/S_yt-p0buJEEKeuI_61.png	115.70593214035034	
27	84.3569929599762	picture	0		135.0	25.0	/home/egter/Projects/stimuli/pictures/R_S_ILSVRC2015_train_00396000.png	115.71419906616211	1.1250381469726562
27	85.47374701499939	response	0	j		25.0	/home/egter/Projects/stimuli/pictures/R_S_ILSVRC2015_train_00396000.png	116.8309531211853	
28	85.48203110694885	picture	0		145.0	26.0	/home/egter/Projects/stimuli/pictures/n03447447_2895.JPEG	116.83923721313477	1.2082509994506836
28	86.68206405639648	response	0	k		26.0	/home/egter/Projects/stimuli/pictures/n03447447_2895.JPEG	118.0392701625824	
29	86.69028210639954	picture	0		344.0	27.0	/home/egter/Projects/stimuli/pictures/S_yt-MhW2fU45JK8_544.png	118.04748821258545	2.8751089572906494
29	89.54866003990173	response	0	j		27.0	/home/egter/Projects/stimuli/pictures/S_yt-MhW2fU45JK8_544.png	120.90586614608765	
30	89.56539106369019	picture	0		131.0	28.0	/home/egter/Projects/stimuli/pictures/n02701002_20.JPEG	120.9225971698761	1.0972180366516113
30	90.64873909950256	response	0	k		28.0	/home/egter/Projects/stimuli/pictures/n02701002_20.JPEG	122.00594520568848	
31	90.6626091003418	picture	0		75.0	29.0	/home/egter/Projects/stimuli/pictures/S_pexels-koolshooters-7327412_1.png	122.01981520652771	0.6318697929382324
31	91.28205490112305	response	0	k		29.0	/home/egter/Projects/stimuli/pictures/S_pexels-koolshooters-7327412_1.png	122.63926100730896	
32	91.29447889328003	picture	0		148.0	30.0	/home/egter/Projects/stimuli/pictures/n02092002_2626.JPEG	122.65168499946594	1.2291250228881836
32	92.5154139995575	response	0	k		30.0	/home/egter/Projects/stimuli/pictures/n02092002_2626.JPEG	123.87262010574341	
33	92.52360391616821	picture	0		197.0	31.0	/home/egter/Projects/stimuli/pictures/S_flickr-quinn3411-4569727219_1.png	123.88081002235413	1.6458160877227783
33	94.15697908401489	response	0	j		31.0	/home/egter/Projects/stimuli/pictures/S_flickr-quinn3411-4569727219_1.png	125.5141851902008	
34	94.16942000389099	picture	0		262.0	32.0	/home/egter/Projects/stimuli/pictures/n01685808_2746.JPEG	125.5266261100769	2.180514097213745
34	96.34033489227295	response	0	k		32.0	/home/egter/Projects/stimuli/pictures/n01685808_2746.JPEG	127.69754099845886	
35	96.34993410110474	picture	0		94.0	33.0	/home/egter/Projects/stimuli/pictures/R_S_nTA7B2uHaCQ_1.png	127.70714020729065	0.7847499847412109
35	97.12364411354065	response	0	j		33.0	/home/egter/Projects/stimuli/pictures/R_S_nTA7B2uHaCQ_1.png	128.48085021972656	
36	97.13468408584595	picture	0		127.0	34.0	/home/egter/Projects/stimuli/pictures/n02484975_5457.JPEG	128.49189019203186	1.0555028915405273
36	98.18200302124023	response	0	k		34.0	/home/egter/Projects/stimuli/pictures/n02484975_5457.JPEG	129.53920912742615	
37	98.19018697738647	picture	0		249.0	35.0	/home/egter/Projects/stimuli/pictures/S_yt-zr0tzAC2XHk_417.png	129.5473930835724	2.0763931274414062
37	100.25700998306274	response	0	j		35.0	/home/egter/Projects/stimuli/pictures/S_yt-zr0tzAC2XHk_417.png	131.61421608924866	
38	100.26658010482788	picture	0		177.0	36.0	/home/egter/Projects/stimuli/pictures/n13054560_2007.JPEG	131.6237862110138	1.4794399738311768
38	101.73201107978821	response	0	k		36.0	/home/egter/Projects/stimuli/pictures/n13054560_2007.JPEG	133.08921718597412	
39	101.74602007865906	picture	0		237.0	37.0	/home/egter/Projects/stimuli/pictures/n04254680_4023.JPEG	133.10322618484497	1.9789419174194336
39	103.7153389453888	response	0	k		37.0	/home/egter/Projects/stimuli/pictures/n04254680_4023.JPEG	135.0725450515747	
40	103.72496199607849	picture	0		121.0	38.0	/home/egter/Projects/stimuli/pictures/R_S_yt-RHPOCG1mII0_138.png	135.0821681022644	1.0068790912628174
40	104.72368597984314	response	0	j		38.0	/home/egter/Projects/stimuli/pictures/R_S_yt-RHPOCG1mII0_138.png	136.08089208602905	
41	104.73184108734131	picture	0		134.0	39.0	/home/egter/Projects/stimuli/pictures/S_nTA7B2uHaCQ_1.png	136.08904719352722	1.1180419921875
41	105.84030604362488	response	0	j		39.0	/home/egter/Projects/stimuli/pictures/S_nTA7B2uHaCQ_1.png	137.1975121498108	
42	105.84988307952881	picture	0		242.0	40.0	/home/egter/Projects/stimuli/pictures/n02910353_15057.JPEG	137.20708918571472	2.0209109783172607
42	107.85698390007019	response	0	k		40.0	/home/egter/Projects/stimuli/pictures/n02910353_15057.JPEG	139.2141900062561	
43	107.87079405784607	picture	0		120.0	41.0	/home/egter/Projects/stimuli/pictures/n01664065_25400.JPEG	139.22800016403198	1.0068578720092773
43	108.86546492576599	response	0	k		41.0	/home/egter/Projects/stimuli/pictures/n01664065_25400.JPEG	140.2226710319519	
44	108.87765192985535	picture	0		87.0	42.0	/home/egter/Projects/stimuli/pictures/S_wc-DcFDe419cL3d_17.png	140.23485803604126	0.7221810817718506
44	109.59026503562927	response	0	j		42.0	/home/egter/Projects/stimuli/pictures/S_wc-DcFDe419cL3d_17.png	140.94747114181519	
45	109.5998330116272	picture	0		90.0	43.0	/home/egter/Projects/stimuli/pictures/R_S_yt-XpM1Jtwlvvk_42.png	140.9570391178131	0.7500009536743164
45	110.34024500846863	response	0	j		43.0	/home/egter/Projects/stimuli/pictures/R_S_yt-XpM1Jtwlvvk_42.png	141.69745111465454	
46	110.34983396530151	picture	0		97.0	44.0	/home/egter/Projects/stimuli/pictures/R_S_yt-q9-_bG9ry3E_5.png	141.70704007148743	0.8126270771026611
46	111.14864611625671	response	0	j		44.0	/home/egter/Projects/stimuli/pictures/R_S_yt-q9-_bG9ry3E_5.png	142.50585222244263	
47	111.16246104240417	picture	0		162.0	45.0	/home/egter/Projects/stimuli/pictures/n02481823_3598.JPEG	142.5196671485901	1.3540079593658447
47	112.50697588920593	response	0	k		45.0	/home/egter/Projects/stimuli/pictures/n02481823_3598.JPEG	143.86418199539185	
48	112.51646900177002	picture	0		87.0	46.0	/home/egter/Projects/stimuli/pictures/S_bing-www_nbcnews_com_storyline_isis-terror_fall-isis-stronghold-raqqa-will-change-war-extremists-not-end-n808621_86.png	143.87367510795593	0.7292020320892334
48	113.22514796257019	response	0	j		46.0	/home/egter/Projects/stimuli/pictures/S_bing-www_nbcnews_com_storyline_isis-terror_fall-isis-stronghold-raqqa-will-change-war-extremists-not-end-n808621_86.png	144.5823540687561	
49	113.24567103385925	picture	0		230.0	47.0	/home/egter/Projects/stimuli/pictures/n04540053_5579.JPEG	144.60287714004517	1.9235930442810059
49	115.15692710876465	response	0	k		47.0	/home/egter/Projects/stimuli/pictures/n04540053_5579.JPEG	146.51413321495056	
50	115.16926407814026	picture	0		159.0	48.0	/home/egter/Projects/stimuli/pictures/n03670208_1625.JPEG	146.52647018432617	1.326429843902588
50	116.48192310333252	response	0	k		48.0	/home/egter/Projects/stimuli/pictures/n03670208_1625.JPEG	147.83912920951843	
51	116.49569392204285	picture	0		228.0	49.0	/home/egter/Projects/stimuli/pictures/S_yt-Ynol6-DKndM_497.png	147.85290002822876	1.9027869701385498
51	118.3902599811554	response	0	k		49.0	/home/egter/Projects/stimuli/pictures/S_yt-Ynol6-DKndM_497.png	149.7474660873413	
52	118.3984808921814	picture	0		164.0	50.0	/home/egter/Projects/stimuli/pictures/S_yt-qazCIJqjxUU_3.png	149.7556869983673	1.3679141998291016
52	119.75695610046387	response	0	j		50.0	/home/egter/Projects/stimuli/pictures/S_yt-qazCIJqjxUU_3.png	151.11416220664978	
53	119.7663950920105	picture	0		183.0	51.0	/home/egter/Projects/stimuli/pictures/n02106030_1402.JPEG	151.1236011981964	1.5277910232543945
53	121.28192591667175	response	0	j		51.0	/home/egter/Projects/stimuli/pictures/n02106030_1402.JPEG	152.63913202285767	
54	121.29418611526489	picture	0		95.0	52.0	/home/egter/Projects/stimuli/pictures/n03372029_57793.JPEG	152.6513922214508	0.7916619777679443
54	122.07357501983643	response	0	k		52.0	/home/egter/Projects/stimuli/pictures/n03372029_57793.JPEG	153.43078112602234	
55	122.08584809303284	picture	0		169.0	53.0	/home/egter/Projects/stimuli/pictures/R_S_yt-uX7qYKQm_pg_277.png	153.44305419921875	1.4097588062286377
55	123.48192811012268	response	0	k		53.0	/home/egter/Projects/stimuli/pictures/R_S_yt-uX7qYKQm_pg_277.png	154.8391342163086	
56	123.49560689926147	picture	0		157.0	54.0	/home/egter/Projects/stimuli/pictures/R_S_yt-9pYW_TqVpU4_43.png	154.8528130054474	1.3124032020568848
56	124.7985770702362	response	0	j		54.0	/home/egter/Projects/stimuli/pictures/R_S_yt-9pYW_TqVpU4_43.png	156.15578317642212	
57	124.80801010131836	picture	0		239.0	55.0	/home/egter/Projects/stimuli/pictures/n03127747_1956.JPEG	156.16521620750427	1.9930520057678223
57	126.79027891159058	response	0	k		55.0	/home/egter/Projects/stimuli/pictures/n03127747_1956.JPEG	158.1474850177765	
58	126.80106210708618	picture	0		87.0	56.0	/home/egter/Projects/stimuli/pictures/n02859443_670.JPEG	158.1582682132721	0.7223877906799316
58	127.51522397994995	response	0	k		56.0	/home/egter/Projects/stimuli/pictures/n02859443_670.JPEG	158.87243008613586	
59	127.52344989776611	picture	0		84.0	57.0	/home/egter/Projects/stimuli/pictures/S_production_ID_4325509.png	158.88065600395203	0.7012040615081787
59	128.21521711349487	response	0	j		57.0	/home/egter/Projects/stimuli/pictures/S_production_ID_4325509.png	159.5724232196808	
60	128.2246539592743	picture	0		102.0	58.0	/home/egter/Projects/stimuli/pictures/n04141327_1185.JPEG	159.5818600654602	0.854241132736206
60	129.06520104408264	response	0	k		58.0	/home/egter/Projects/stimuli/pictures/n04141327_1185.JPEG	160.42240715026855	
61	129.0788950920105	picture	0		104.0	59.0	/home/egter/Projects/stimuli/pictures/n04252077_162.JPEG	160.4361011981964	0.8749918937683105
61	129.9402379989624	response	0	k		59.0	/home/egter/Projects/stimuli/pictures/n04252077_162.JPEG	161.29744410514832	
62	129.9538869857788	picture	0		128.0	60.0	/home/egter/Projects/stimuli/pictures/R_S_pexels-c-technical-6763571.png	161.31109309196472	1.069533109664917
62	131.015202999115	response	0	j		60.0	/home/egter/Projects/stimuli/pictures/R_S_pexels-c-technical-6763571.png	162.3724091053009	
63	131.02342009544373	picture	0		220.0	61.0	/home/egter/Projects/stimuli/pictures/R_S_yt-82O1uT8dmv8_12.png	162.38062620162964	1.833345890045166
63	132.84176206588745	response	0	j		61.0	/home/egter/Projects/stimuli/pictures/R_S_yt-82O1uT8dmv8_12.png	164.19896817207336	
64	132.8567659854889	picture	0		113.0	62.0	/home/egter/Projects/stimuli/pictures/R_S_yt-3NMDWrZr1Z4_255.png	164.2139720916748	0.9443321228027344
64	133.79018592834473	response	0	j		62.0	/home/egter/Projects/stimuli/pictures/R_S_yt-3NMDWrZr1Z4_255.png	165.14739203453064	
65	133.80109810829163	picture	0		109.0	63.0	/home/egter/Projects/stimuli/pictures/n03529860_9960.JPEG	165.15830421447754	0.9095947742462158
65	134.6985800266266	response	0	k		63.0	/home/egter/Projects/stimuli/pictures/n03529860_9960.JPEG	166.0557861328125	
66	134.71069288253784	picture	0		177.0	64.0	/home/egter/Projects/stimuli/pictures/n02090622_1555.JPEG	166.06789898872375	1.4722020626068115
66	136.17353892326355	response	0	k		64.0	/home/egter/Projects/stimuli/pictures/n02090622_1555.JPEG	167.53074502944946	
67	136.18289494514465	picture	0		122.0	65.0	/home/egter/Projects/stimuli/pictures/R_S_yt-BAwvfRmE1LU_79.png	167.54010105133057	1.020902156829834
67	137.19020009040833	response	0	j		65.0	/home/egter/Projects/stimuli/pictures/R_S_yt-BAwvfRmE1LU_79.png	168.54740619659424	
68	137.2037971019745	picture	0		202.0	66.0	/home/egter/Projects/stimuli/pictures/n03930630_4621.JPEG	168.5610032081604	1.6874098777770996
68	138.88184690475464	response	0	k		66.0	/home/egter/Projects/stimuli/pictures/n03930630_4621.JPEG	170.23905301094055	
69	138.8912069797516	picture	0		360.0	67.0	/home/egter/Projects/stimuli/pictures/n03496892_14834.JPEG	170.2484130859375	2.999998092651367
69	141.88186192512512	response	0	k		67.0	/home/egter/Projects/stimuli/pictures/n03496892_14834.JPEG	173.23906803131104	
70	141.89120507240295	picture	0		525.0	68.0	/home/egter/Projects/stimuli/pictures/n07579787_11484.JPEG	173.24841117858887	4.374956846237183
70	146.25004601478577	response	0	k		68.0	/home/egter/Projects/stimuli/pictures/n07579787_11484.JPEG	177.60725212097168	
71	146.26616191864014	picture	0		481.0	69.0	/home/egter/Projects/stimuli/pictures/S_pexels-kampus-production-6022792_1.png	177.62336802482605	4.01558518409729
71	150.26507592201233	response	0	k		69.0	/home/egter/Projects/stimuli/pictures/S_pexels-kampus-production-6022792_1.png	181.62228202819824	
72	150.28174710273743	picture	0		162.0	70.0	/home/egter/Projects/stimuli/pictures/R_S_yt-M_ApPnq00iE_67.png	181.63895320892334	1.3524417877197266
72	151.6235809326172	response	0	j		70.0	/home/egter/Projects/stimuli/pictures/R_S_yt-M_ApPnq00iE_67.png	182.9807870388031	
73	151.63418889045715	picture	0		232.0	71.0	/home/egter/Projects/stimuli/pictures/ILSVRC2012_test_00037574.JPEG	182.99139499664307	1.9308152198791504
73	153.55675792694092	response	0	k		71.0	/home/egter/Projects/stimuli/pictures/ILSVRC2012_test_00037574.JPEG	184.91396403312683	
74	153.5650041103363	picture	0		156.0	72.0	/home/egter/Projects/stimuli/pictures/S_production_ID_4101307.png	184.92221021652222	1.3052668571472168
74	154.84996509552002	response	0	j		72.0	/home/egter/Projects/stimuli/pictures/S_production_ID_4101307.png	186.20717120170593	
75	154.87027096748352	picture	0		1913.0	73.0	/home/egter/Projects/stimuli/pictures/n02802426_20713.JPEG	186.22747707366943	15.944661140441895
75	170.80667805671692	response	0	k		73.0	/home/egter/Projects/stimuli/pictures/n02802426_20713.JPEG	202.16388416290283	
76	170.81493210792542	picture	0		132.0	74.0	/home/egter/Projects/stimuli/pictures/n01924916_385.JPEG	202.17213821411133	1.1038429737091064
76	171.90670704841614	response	0	k		74.0	/home/egter/Projects/stimuli/pictures/n01924916_385.JPEG	203.26391315460205	
77	171.91877508163452	picture	0		2175.0	75.0	/home/egter/Projects/stimuli/pictures/S_ILSVRC2015_train_00569006.png	203.27598118782043	18.124737977981567
77	190.031564950943	response	0	j		75.0	/home/egter/Projects/stimuli/pictures/S_ILSVRC2015_train_00569006.png	221.3887710571289	
78	190.0435130596161	picture	0		79.0	76.0	/home/egter/Projects/stimuli/pictures/S_yt-Iu2ZPHLqXuY_32.png	221.400719165802	0.6597988605499268
78	190.68991994857788	response	0	j		76.0	/home/egter/Projects/stimuli/pictures/S_yt-Iu2ZPHLqXuY_32.png	222.0471260547638	
79	190.70331192016602	picture	0		87.0	77.0	/home/egter/Projects/stimuli/pictures/n04090263_9064.JPEG	222.06051802635193	0.7290740013122559
79	191.42325401306152	response	0	k		77.0	/home/egter/Projects/stimuli/pictures/n04090263_9064.JPEG	222.78046011924744	
80	191.43238592147827	picture	0		93.0	78.0	/home/egter/Projects/stimuli/pictures/S_Roller_Coaster_1.png	222.78959202766418	0.7778720855712891
80	192.1982879638672	response	0	k		78.0	/home/egter/Projects/stimuli/pictures/S_Roller_Coaster_1.png	223.5554940700531	
81	192.21025800704956	picture	0		106.0	79.0	/home/egter/Projects/stimuli/pictures/R_S_yt-aiwDdJm1ek8_90.png	223.56746411323547	0.8818209171295166
81	193.08159708976746	response	0	j		79.0	/home/egter/Projects/stimuli/pictures/R_S_yt-aiwDdJm1ek8_90.png	224.43880319595337	
82	193.09207892417908	picture	0		108.0	80.0	/home/egter/Projects/stimuli/pictures/R_S_yt-26obL-Z5obg_131.png	224.449285030365	0.9028739929199219
82	193.98160910606384	response	0	j		80.0	/home/egter/Projects/stimuli/pictures/R_S_yt-26obL-Z5obg_131.png	225.33881521224976	
83	193.994952917099	picture	0		105.0	81.0	/home/egter/Projects/stimuli/pictures/S_bing-www_cnet_com_videos_amazon-wants-to-put-alexa-on-your-pc__50.png	225.3521590232849	0.8819570541381836
83	194.85809707641602	response	0	j		81.0	/home/egter/Projects/stimuli/pictures/S_bing-www_cnet_com_videos_amazon-wants-to-put-alexa-on-your-pc__50.png	226.21530318260193	
84	194.87690997123718	picture	0		580.0	82.0	/home/egter/Projects/stimuli/pictures/n02109047_19473.JPEG	226.2341160774231	4.833168029785156
84	199.69822311401367	response	0	k		82.0	/home/egter/Projects/stimuli/pictures/n02109047_19473.JPEG	231.05542922019958	
85	199.71007800102234	picture	0		378.0	83.0	/home/egter/Projects/stimuli/pictures/n02871525_19043.JPEG	231.06728410720825	3.1463849544525146
85	202.848247051239	response	0	k		83.0	/home/egter/Projects/stimuli/pictures/n02871525_19043.JPEG	234.20545315742493	
86	202.85646295547485	picture	0		1055.0	84.0	/home/egter/Projects/stimuli/pictures/S_flickr-132148318@N02-26685719802_3.png	234.21366906166077	8.800008058547974
86	211.6400179862976	response	0	k		84.0	/home/egter/Projects/stimuli/pictures/S_flickr-132148318@N02-26685719802_3.png	242.99722409248352	
87	211.65647101402283	picture	0		899.0	85.0	/home/egter/Projects/stimuli/pictures/R_S_ILSVRC2015_train_00274003.png	243.01367712020874	7.497973918914795
87	219.14064288139343	response	0	j		85.0	/home/egter/Projects/stimuli/pictures/R_S_ILSVRC2015_train_00274003.png	250.49784898757935	
88	219.15444493293762	picture	0		130.0	86.0	/home/egter/Projects/stimuli/pictures/R_S_comp_CH_C002_C005_PSNK_v05_SDR_PS_FINAL_20180709_SDR_2K_AVC.png	250.51165103912354	1.0902941226959229
88	220.23148202896118	response	0	j		86.0	/home/egter/Projects/stimuli/pictures/R_S_comp_CH_C002_C005_PSNK_v05_SDR_PS_FINAL_20180709_SDR_2K_AVC.png	251.5886881351471	
89	220.24473905563354	picture	0		97.0	87.0	/home/egter/Projects/stimuli/pictures/S_production_ID_4802712.png	251.60194516181946	0.8124029636383057
89	221.04812788963318	response	0	j		87.0	/home/egter/Projects/stimuli/pictures/S_production_ID_4802712.png	252.4053339958191	
90	221.05714201927185	picture	0		93.0	88.0	/home/egter/Projects/stimuli/pictures/S_video-8.png	252.41434812545776	0.7777500152587891
90	221.82316708564758	response	0	k		88.0	/home/egter/Projects/stimuli/pictures/S_video-8.png	253.1803731918335	
91	221.83489203453064	picture	0		97.0	89.0	/home/egter/Projects/stimuli/pictures/S_ILSVRC2015_train_00274003.png	253.19209814071655	0.8055529594421387
91	222.63147687911987	response	0	j		89.0	/home/egter/Projects/stimuli/pictures/S_ILSVRC2015_train_00274003.png	253.9886829853058	
92	222.64044499397278	picture	0		166.0	90.0	/home/egter/Projects/stimuli/pictures/n02115913_4026.JPEG	253.9976511001587	1.3909940719604492
92	224.01552605628967	response	0	k		90.0	/home/egter/Projects/stimuli/pictures/n02115913_4026.JPEG	255.3727321624756	
93	224.03143906593323	picture	0		926.0	91.0	/home/egter/Projects/stimuli/pictures/ILSVRC2012_test_00075992.JPEG	255.38864517211914	7.720041036605835
93	231.73979210853577	response	0	k		91.0	/home/egter/Projects/stimuli/pictures/ILSVRC2012_test_00075992.JPEG	263.0969982147217	
94	231.75148010253906	picture	0		161.0	92.0	/home/egter/Projects/stimuli/pictures/S_yt-fjOsq03OC2c_188.png	263.108686208725	1.3402268886566162
94	233.07466101646423	response	0	j		92.0	/home/egter/Projects/stimuli/pictures/S_yt-fjOsq03OC2c_188.png	264.43186712265015	
95	233.09170699119568	picture	0		127.0	93.0	/home/egter/Projects/stimuli/pictures/S_ILnEDG_aP1A_35.png	264.4489130973816	1.0625789165496826
95	234.14050388336182	response	0	j		93.0	/home/egter/Projects/stimuli/pictures/S_ILnEDG_aP1A_35.png	265.49770998954773	
96	234.15428590774536	picture	0		242.0	94.0	/home/egter/Projects/stimuli/pictures/n03447447_5685.JPEG	265.5114920139313	2.0208160877227783
96	236.16479897499084	response	0	k		94.0	/home/egter/Projects/stimuli/pictures/n03447447_5685.JPEG	267.52200508117676	
97	236.17510199546814	picture	0		105.0	95.0	/home/egter/Projects/stimuli/pictures/n04264628_27969.JPEG	267.53230810165405	0.8748800754547119
97	237.03975796699524	response	0	k		95.0	/home/egter/Projects/stimuli/pictures/n04264628_27969.JPEG	268.39696407318115	
98	237.04998207092285	picture	0		87.0	96.0	/home/egter/Projects/stimuli/pictures/S_yt-Fdv-V--QlR0_117.png	268.40718817710876	0.7293410301208496
98	237.7654299736023	response	0	j		96.0	/home/egter/Projects/stimuli/pictures/S_yt-Fdv-V--QlR0_117.png	269.1226360797882	
99	237.7793231010437	picture	0		91.0	97.0	/home/egter/Projects/stimuli/pictures/R_S_yt-QJ2k6vA8aco_12.png	269.1365292072296	0.7637228965759277
99	238.53138208389282	response	0	j		97.0	/home/egter/Projects/stimuli/pictures/R_S_yt-QJ2k6vA8aco_12.png	269.88858819007874	
100	238.54304599761963	picture	0		99.0	98.0	/home/egter/Projects/stimuli/pictures/n02363005_6714.JPEG	269.90025210380554	0.8264689445495605
100	239.3564009666443	response	0	k		98.0	/home/egter/Projects/stimuli/pictures/n02363005_6714.JPEG	270.7136070728302	
101	239.3695149421692	picture	0		84.0	99.0	/home/egter/Projects/stimuli/pictures/S_yt-JH6qCYAnX-I_70.png	270.7267210483551	0.7082920074462891
101	240.0585858821869	response	0	j		99.0	/home/egter/Projects/stimuli/pictures/S_yt-JH6qCYAnX-I_70.png	271.4157919883728	
102	240.07780694961548	picture	0		107.0	100.0	/home/egter/Projects/stimuli/pictures/n03697007_7401.JPEG	271.4350130558014	0.8889420032501221
102	240.9564208984375	response	0	k		100.0	/home/egter/Projects/stimuli/pictures/n03697007_7401.JPEG	272.3136270046234	
103	240.9667489528656	picture	0		325.0	101.0	/home/egter/Projects/stimuli/pictures/R_S_yt-XRQ_LSGGr3Y_712.png	272.3239550590515	2.708230972290039
103	243.66473007202148	response	0	k		101.0	/home/egter/Projects/stimuli/pictures/R_S_yt-XRQ_LSGGr3Y_712.png	275.0219361782074	
104	243.67497992515564	picture	0		86.0	102.0	/home/egter/Projects/stimuli/pictures/n03977966_2901.JPEG	275.03218603134155	0.7152700424194336
104	244.3813920021057	response	0	k		102.0	/home/egter/Projects/stimuli/pictures/n03977966_2901.JPEG	275.7385981082916	
105	244.39024996757507	picture	0		89.0	103.0	/home/egter/Projects/stimuli/pictures/S_yt-Xkx53mjgj2E_30.png	275.747456073761	0.7430460453033447
105	245.12307500839233	response	0	j		103.0	/home/egter/Projects/stimuli/pictures/S_yt-Xkx53mjgj2E_30.png	276.48028111457825	
106	245.13329601287842	picture	0		325.0	104.0	/home/egter/Projects/stimuli/pictures/R_S_yt-urJgH6tpfkU_204.png	276.49050211906433	2.708285093307495
106	247.83141207695007	response	0	j		104.0	/home/egter/Projects/stimuli/pictures/R_S_yt-urJgH6tpfkU_204.png	279.188618183136	
107	247.8415811061859	picture	0		151.0	105.0	/home/egter/Projects/stimuli/pictures/S_yt-YCjbGOPBQHw_131.png	279.1987872123718	1.2569408416748047
107	249.08299088478088	response	0	j		105.0	/home/egter/Projects/stimuli/pictures/S_yt-YCjbGOPBQHw_131.png	280.4401969909668	
108	249.09852194786072	picture	0		126.0	106.0	/home/egter/Projects/stimuli/pictures/S_P006_C002_UHD_SDR_2K_AVC.png	280.45572805404663	1.0556161403656006
108	250.140319108963	response	0	j		106.0	/home/egter/Projects/stimuli/pictures/S_P006_C002_UHD_SDR_2K_AVC.png	281.4975252151489	
109	250.15413808822632	picture	0		164.0	107.0	/home/egter/Projects/stimuli/pictures/n02120079_9615.JPEG	281.51134419441223	1.3750159740447998
109	251.515291929245	response	0	k		107.0	/home/egter/Projects/stimuli/pictures/n02120079_9615.JPEG	282.8724980354309	
110	251.52915406227112	picture	0		3455.0	108.0	/home/egter/Projects/stimuli/pictures/n03345487_16018.JPEG	282.88636016845703	28.802008867263794
110	280.31458806991577	response	0	k		108.0	/home/egter/Projects/stimuli/pictures/n03345487_16018.JPEG	311.6717941761017	
111	280.3311629295349	picture	0		78.0	109.0	/home/egter/Projects/stimuli/pictures/n02487347_9577.JPEG	311.6883690357208	0.6666510105133057
111	280.973375082016	response	0	k		109.0	/home/egter/Projects/stimuli/pictures/n02487347_9577.JPEG	312.3305811882019	
112	280.9978139400482	picture	0		122.0	110.0	/home/egter/Projects/stimuli/pictures/S_yt-2wb0b0pdSxU_59.png	312.35502004623413	1.0170681476593018
112	282.00629806518555	response	0	k		110.0	/home/egter/Projects/stimuli/pictures/S_yt-2wb0b0pdSxU_59.png	313.36350417137146	
113	282.0148820877075	picture	0		150.0	111.0	/home/egter/Projects/stimuli/pictures/n03445777_3549.JPEG	313.37208819389343	1.249992847442627
113	283.256236076355	response	0	k		111.0	/home/egter/Projects/stimuli/pictures/n03445777_3549.JPEG	314.6134421825409	
114	283.26487493515015	picture	0		107.0	112.0	/home/egter/Projects/stimuli/pictures/S_yt-4slVHFGPwEs_744.png	314.62208104133606	0.8958749771118164
114	284.1478900909424	response	0	k		112.0	/home/egter/Projects/stimuli/pictures/S_yt-4slVHFGPwEs_744.png	315.5050961971283	
115	284.16074991226196	picture	0		81.0	113.0	/home/egter/Projects/stimuli/pictures/S_yt-RHPOCG1mII0_138.png	315.5179560184479	0.6735131740570068
115	284.8229079246521	response	0	j		113.0	/home/egter/Projects/stimuli/pictures/S_yt-RHPOCG1mII0_138.png	316.180114030838	
116	284.83426308631897	picture	0		113.0	114.0	/home/egter/Projects/stimuli/pictures/n04118776_58097.JPEG	316.1914691925049	0.9447178840637207
116	285.76499700546265	response	0	k		114.0	/home/egter/Projects/stimuli/pictures/n04118776_58097.JPEG	317.12220311164856	
117	285.7789809703827	picture	0		145.0	115.0	/home/egter/Projects/stimuli/pictures/S_yt-HoRtvVuuvOs_5.png	317.1361870765686	1.215137004852295
117	286.98125100135803	response	0	j		115.0	/home/egter/Projects/stimuli/pictures/S_yt-HoRtvVuuvOs_5.png	318.33845710754395	
118	286.994117975235	picture	0		248.0	116.0	/home/egter/Projects/stimuli/pictures/S_yt-kbf7N5K5cS0_35.png	318.3513240814209	2.0786781311035156
118	289.0565800666809	response	0	k		116.0	/home/egter/Projects/stimuli/pictures/S_yt-kbf7N5K5cS0_35.png	320.4137861728668	
119	289.0727961063385	picture	0		91.0	117.0	/home/egter/Projects/stimuli/pictures/R_S_goAwcQiFu1Q_99.png	320.4300022125244	0.7666449546813965
119	289.8228690624237	response	0	j		117.0	/home/egter/Projects/stimuli/pictures/R_S_goAwcQiFu1Q_99.png	321.1800751686096	
120	289.8394410610199	picture	0		124.0	118.0	/home/egter/Projects/stimuli/pictures/n03759954_14937.JPEG	321.1966471672058	1.0364429950714111
120	290.86463689804077	response	0	k		118.0	/home/egter/Projects/stimuli/pictures/n03759954_14937.JPEG	322.2218430042267	
121	290.8758840560913	picture	0		157.0	119.0	/home/egter/Projects/stimuli/pictures/S_ILSVRC2015_train_00292006.png	322.2330901622772	1.3055689334869385
121	292.17288398742676	response	0	j		119.0	/home/egter/Projects/stimuli/pictures/S_ILSVRC2015_train_00292006.png	323.53009009361267	
122	292.18145298957825	picture	0		283.0	120.0	/home/egter/Projects/stimuli/pictures/n03188531_23390.JPEG	323.53865909576416	2.3610780239105225
122	294.5311760902405	response	0	k		120.0	/home/egter/Projects/stimuli/pictures/n03188531_23390.JPEG	325.8883821964264	
123	294.54253101348877	picture	0		128.0	121.0	/home/egter/Projects/stimuli/pictures/n03272010_549.JPEG	325.8997371196747	1.0718989372253418
123	295.5981459617615	response	0	k		121.0	/home/egter/Projects/stimuli/pictures/n03272010_549.JPEG	326.9553520679474	
124	295.6144299507141	picture	0		383.0	122.0	/home/egter/Projects/stimuli/pictures/S_ILSVRC2015_train_00762000.png	326.9716360569	3.1919729709625244
124	298.7980020046234	response	0	k		122.0	/home/egter/Projects/stimuli/pictures/S_ILSVRC2015_train_00762000.png	330.1552081108093	
125	298.80640292167664	picture	0		126.0	123.0	/home/egter/Projects/stimuli/pictures/ILSVRC2012_test_00065177.JPEG	330.16360902786255	1.0556271076202393
125	299.8482520580292	response	0	k		123.0	/home/egter/Projects/stimuli/pictures/ILSVRC2012_test_00065177.JPEG	331.2054581642151	
126	299.8620300292969	picture	0		112.0	124.0	/home/egter/Projects/stimuli/pictures/n04008634_10960.JPEG	331.2192361354828	0.9373788833618164
126	300.7895839214325	response	0	k		124.0	/home/egter/Projects/stimuli/pictures/n04008634_10960.JPEG	332.1467900276184	
127	300.7994089126587	picture	0		134.0	125.0	/home/egter/Projects/stimuli/pictures/R_S_yt-4-u4Fw_J_q8_45.png	332.1566150188446	1.1180520057678223
127	301.89946007728577	response	0	j		125.0	/home/egter/Projects/stimuli/pictures/R_S_yt-4-u4Fw_J_q8_45.png	333.2566661834717	
128	301.9174609184265	picture	0		95.0	126.0	/home/egter/Projects/stimuli/pictures/n04523525_23494.JPEG	333.2746670246124	0.7918450832366943
128	302.69092297554016	response	0	k		126.0	/home/egter/Projects/stimuli/pictures/n04523525_23494.JPEG	334.0481290817261	
129	302.7093060016632	picture	0		123.0	127.0	/home/egter/Projects/stimuli/pictures/S_G5lrDxJJzfI_2.png	334.0665121078491	1.0276710987091064
129	303.7159900665283	response	0	k		127.0	/home/egter/Projects/stimuli/pictures/S_G5lrDxJJzfI_2.png	335.07319617271423	
130	303.7369771003723	picture	0		265.0	128.0	/home/egter/Projects/stimuli/pictures/S_yt-qlR-TG7veA4_17.png	335.0941832065582	2.21549391746521
130	305.93944787979126	response	0	k		128.0	/home/egter/Projects/stimuli/pictures/S_yt-qlR-TG7veA4_17.png	337.2966539859772	
131	305.9524710178375	picture	0		100.0	129.0	/home/egter/Projects/stimuli/pictures/n04243546_27828.JPEG	337.30967712402344	0.8399519920349121
131	306.78112602233887	response	0	k		129.0	/home/egter/Projects/stimuli/pictures/n04243546_27828.JPEG	338.1383321285248	
132	306.79242300987244	picture	0		104.0	130.0	/home/egter/Projects/stimuli/pictures/S_pexels-ron-lach-8259631.png	338.14962911605835	0.86810302734375
132	307.6478168964386	response	0	j		130.0	/home/egter/Projects/stimuli/pictures/S_pexels-ron-lach-8259631.png	339.0050230026245	
133	307.6605260372162	picture	0		365.0	131.0	/home/egter/Projects/stimuli/pictures/n04252225_30744.JPEG	339.0177321434021	3.0485169887542725
133	310.6909348964691	response	0	k		131.0	/home/egter/Projects/stimuli/pictures/n04252225_30744.JPEG	342.04814100265503	
134	310.70904302597046	picture	0		98.0	132.0	/home/egter/Projects/stimuli/pictures/S_comp_HK_H004_C001_PSNK_DENOISE_v14_SDR_PS_FINAL_20180731_SDR_2K_AVC.png	342.0662491321564	0.8195130825042725
134	311.50770592689514	response	0	k		132.0	/home/egter/Projects/stimuli/pictures/S_comp_HK_H004_C001_PSNK_DENOISE_v14_SDR_PS_FINAL_20180731_SDR_2K_AVC.png	342.86491203308105	
135	311.52855610847473	picture	0		190.0	133.0	/home/egter/Projects/stimuli/pictures/S_yt-n2PnABmSpxI_115.png	342.88576221466064	1.5902187824249268
135	313.09958600997925	response	0	j		133.0	/home/egter/Projects/stimuli/pictures/S_yt-n2PnABmSpxI_115.png	344.45679211616516	
136	313.11877489089966	picture	0		90.0	134.0	/home/egter/Projects/stimuli/pictures/S_yt-GytLOB9Qjro_76.png	344.47598099708557	0.7569231986999512
136	313.8643980026245	response	0	j		134.0	/home/egter/Projects/stimuli/pictures/S_yt-GytLOB9Qjro_76.png	345.2216041088104	
137	313.8756980895996	picture	0		139.0	135.0	/home/egter/Projects/stimuli/pictures/R_S_yt-J1dw4AznwmQ_7.png	345.2329041957855	1.1598389148712158
137	315.0227630138397	response	0	j		135.0	/home/egter/Projects/stimuli/pictures/R_S_yt-J1dw4AznwmQ_7.png	346.37996912002563	
138	315.0355370044708	picture	0		90.0	136.0	/home/egter/Projects/stimuli/pictures/n09246464_16480.JPEG	346.39274311065674	0.7568120956420898
138	315.781112909317	response	0	k		136.0	/home/egter/Projects/stimuli/pictures/n09246464_16480.JPEG	347.13831901550293	
139	315.7923491001129	picture	0		84.0	137.0	/home/egter/Projects/stimuli/pictures/n04487081_5046.JPEG	347.1495552062988	0.7014977931976318
139	316.48109793663025	response	0	j		137.0	/home/egter/Projects/stimuli/pictures/n04487081_5046.JPEG	347.83830404281616	
140	316.49384689331055	picture	0		222.0	138.0	/home/egter/Projects/stimuli/pictures/S_comp_LA_A006_C008_PSNK_ALL_LOGOS_v10_SDR_PS_FINAL_20180801_SDR_2K_AVC.png	347.85105299949646	1.8540360927581787
140	318.3393929004669	response	0	j		138.0	/home/egter/Projects/stimuli/pictures/S_comp_LA_A006_C008_PSNK_ALL_LOGOS_v10_SDR_PS_FINAL_20180801_SDR_2K_AVC.png	349.69659900665283	
141	318.3478829860687	picture	0		92.0	139.0	/home/egter/Projects/stimuli/pictures/R_S_-vPHq-7BJ70_15.png	349.70508909225464	0.7709150314331055
141	319.09944701194763	response	0	j		139.0	/home/egter/Projects/stimuli/pictures/R_S_-vPHq-7BJ70_15.png	350.45665311813354	
142	319.11879801750183	picture	0		108.0	140.0	/home/egter/Projects/stimuli/pictures/n04604644_15685.JPEG	350.47600412368774	0.9097139835357666
142	320.01478600502014	response	0	k		140.0	/home/egter/Projects/stimuli/pictures/n04604644_15685.JPEG	351.37199211120605	
143	320.0285120010376	picture	0		152.0	141.0	/home/egter/Projects/stimuli/pictures/R_S_production_ID_5146014.png	351.3857181072235	1.2708079814910889
143	321.2894070148468	response	0	j		141.0	/home/egter/Projects/stimuli/pictures/R_S_production_ID_5146014.png	352.6466131210327	
144	321.2993199825287	picture	0		504.0	142.0	/home/egter/Projects/stimuli/pictures/n04311174_342.JPEG	352.6565260887146	4.201285123825073
144	325.4894149303436	response	0	k		142.0	/home/egter/Projects/stimuli/pictures/n04311174_342.JPEG	356.84662103652954	
145	325.50060510635376	picture	0		117.0	143.0	/home/egter/Projects/stimuli/pictures/n02058221_5460.JPEG	356.8578112125397	0.9721779823303223
145	326.46441292762756	response	0	j		143.0	/home/egter/Projects/stimuli/pictures/n02058221_5460.JPEG	357.8216190338135	
146	326.4727830886841	picture	0		97.0	144.0	/home/egter/Projects/stimuli/pictures/S_ILSVRC2015_train_00379000.png	357.82998919487	0.8125269412994385
146	327.2727129459381	response	0	j		144.0	/home/egter/Projects/stimuli/pictures/S_ILSVRC2015_train_00379000.png	358.629919052124	
147	327.2853100299835	picture	0		99.0	145.0	/home/egter/Projects/stimuli/pictures/n01531178_1980.JPEG	358.64251613616943	0.8264260292053223
147	328.09785890579224	response	0	k		145.0	/home/egter/Projects/stimuli/pictures/n01531178_1980.JPEG	359.45506501197815	
148	328.11173605918884	picture	0		84.0	146.0	/home/egter/Projects/stimuli/pictures/R_S_yt-qazCIJqjxUU_3.png	359.46894216537476	0.7083618640899658
148	328.80618596076965	response	0	j		146.0	/home/egter/Projects/stimuli/pictures/R_S_yt-qazCIJqjxUU_3.png	360.16339206695557	
149	328.8200979232788	picture	0		84.0	147.0	/home/egter/Projects/stimuli/pictures/S_ILSVRC2015_train_00371012.png	360.1773040294647	0.7082991600036621
149	329.50754404067993	response	0	j		147.0	/home/egter/Projects/stimuli/pictures/S_ILSVRC2015_train_00371012.png	360.86475014686584	
150	329.52839708328247	picture	0		217.0	148.0	/home/egter/Projects/stimuli/pictures/S_yt-wqdTPz0bLrM_561.png	360.8856031894684	1.8124229907989502
150	331.3310730457306	response	0	j		148.0	/home/egter/Projects/stimuli/pictures/S_yt-wqdTPz0bLrM_561.png	362.6882791519165	
151	331.3408200740814	picture	0		95.0	149.0	/home/egter/Projects/stimuli/pictures/n07697537_2918.JPEG	362.69802618026733	0.7916438579559326
151	332.11593794822693	response	0	k		149.0	/home/egter/Projects/stimuli/pictures/n07697537_2918.JPEG	363.47314405441284	
152	332.13246393203735	picture	0		91.0	150.0	/home/egter/Projects/stimuli/pictures/n03590841_2262.JPEG	363.48967003822327	0.756904125213623
152	332.88103008270264	response	0	k		150.0	/home/egter/Projects/stimuli/pictures/n03590841_2262.JPEG	364.23823618888855	
153	332.889368057251	picture	0		103.0	151.0	/home/egter/Projects/stimuli/pictures/S_yt-BIDHmbneB10_998.png	364.2465741634369	0.8611488342285156
153	333.73253297805786	response	0	j		151.0	/home/egter/Projects/stimuli/pictures/S_yt-BIDHmbneB10_998.png	365.0897390842438	
154	333.7505168914795	picture	0		159.0	152.0	/home/egter/Projects/stimuli/pictures/R_S_yt-8aJDzfAaArQ_75.png	365.1077229976654	1.3263452053070068
154	335.06436705589294	response	0	j		152.0	/home/egter/Projects/stimuli/pictures/R_S_yt-8aJDzfAaArQ_75.png	366.42157316207886	
155	335.0768620967865	picture	0		163.0	153.0	/home/egter/Projects/stimuli/pictures/n01685808_7674.JPEG	366.4340682029724	1.3541648387908936
155	336.4226710796356	response	0	k		153.0	/home/egter/Projects/stimuli/pictures/n01685808_7674.JPEG	367.77987718582153	
156	336.4310269355774	picture	0		86.0	154.0	/home/egter/Projects/stimuli/pictures/S_yt-c5IgOXX8YZ0_24.png	367.7882330417633	0.7223250865936279
156	337.13942694664	response	0	j		154.0	/home/egter/Projects/stimuli/pictures/S_yt-c5IgOXX8YZ0_24.png	368.4966330528259	
157	337.153352022171	picture	0		357.0	155.0	/home/egter/Projects/stimuli/pictures/n01632458_761.JPEG	368.51055812835693	2.979067087173462
157	340.1159300804138	response	0	k		155.0	/home/egter/Projects/stimuli/pictures/n01632458_761.JPEG	371.47313618659973	
158	340.1324191093445	picture	0		262.0	156.0	/home/egter/Projects/stimuli/pictures/S_yt-s5YONFy3vb4_46.png	371.4896252155304	2.190126895904541
158	342.306067943573	response	0	k		156.0	/home/egter/Projects/stimuli/pictures/S_yt-s5YONFy3vb4_46.png	373.6632740497589	
159	342.322546005249	picture	0		154.0	157.0	/home/egter/Projects/stimuli/pictures/R_S_yt-WRBmpC-RxIc_678.png	373.67975211143494	1.2916669845581055
159	343.59776997566223	response	0	j		157.0	/home/egter/Projects/stimuli/pictures/R_S_yt-WRBmpC-RxIc_678.png	374.95497608184814	
160	343.61421298980713	picture	0		152.0	158.0	/home/egter/Projects/stimuli/pictures/S_yt-kkbtZP78JxQ_96.png	374.97141909599304	1.2681310176849365
160	344.8726990222931	response	0	j		158.0	/home/egter/Projects/stimuli/pictures/S_yt-kkbtZP78JxQ_96.png	376.229905128479	
161	344.88234400749207	picture	0		110.0	159.0	/home/egter/Projects/stimuli/pictures/R_S_yt-GytLOB9Qjro_76.png	376.239550113678	0.9166760444641113
161	345.78925609588623	response	0	j		159.0	/home/egter/Projects/stimuli/pictures/R_S_yt-GytLOB9Qjro_76.png	377.14646220207214	
162	345.7990200519562	picture	0		233.0	160.0	/home/egter/Projects/stimuli/pictures/n03717622_12175.JPEG	377.1562261581421	1.9444239139556885
162	347.724191904068	response	0	k		160.0	/home/egter/Projects/stimuli/pictures/n03717622_12175.JPEG	379.0813980102539	
163	347.74344396591187	picture	0		152.0	161.0	/home/egter/Projects/stimuli/pictures/n04501370_376.JPEG	379.1006500720978	1.2707841396331787
163	349.00595808029175	response	0	k		161.0	/home/egter/Projects/stimuli/pictures/n04501370_376.JPEG	380.36316418647766	
164	349.01422810554504	picture	0		120.0	162.0	/home/egter/Projects/stimuli/pictures/R_S_yt-3DM_SqT4RII_10.png	380.37143421173096	0.9999909400939941
164	350.00591707229614	response	0	j		162.0	/home/egter/Projects/stimuli/pictures/R_S_yt-3DM_SqT4RII_10.png	381.36312317848206	
165	350.01421904563904	picture	0		127.0	163.0	/home/egter/Projects/stimuli/pictures/S_yt-kA0ybjmoiMc_284.png	381.37142515182495	1.062680959701538
165	351.0642991065979	response	0	j		163.0	/home/egter/Projects/stimuli/pictures/S_yt-kA0ybjmoiMc_284.png	382.4215052127838	
166	351.0769000053406	picture	0		178.0	164.0	/home/egter/Projects/stimuli/pictures/n01914609_165.JPEG	382.4341061115265	1.4789390563964844
166	352.5407838821411	response	0	k		164.0	/home/egter/Projects/stimuli/pictures/n01914609_165.JPEG	383.897989988327	
167	352.55583906173706	picture	0		288.0	165.0	/home/egter/Projects/stimuli/pictures/n04462240_2980.JPEG	383.913045167923	2.402796983718872
167	354.9476149082184	response	0	k		165.0	/home/egter/Projects/stimuli/pictures/n04462240_2980.JPEG	386.3048210144043	
168	354.95863604545593	picture	0		139.0	166.0	/home/egter/Projects/stimuli/pictures/R_S_yt-YyKEeu2gLrI_158.png	386.31584215164185	1.1597249507904053
168	356.1059260368347	response	0	j		166.0	/home/egter/Projects/stimuli/pictures/R_S_yt-YyKEeu2gLrI_158.png	387.46313214302063	
169	356.11836099624634	picture	0		140.0	167.0	/home/egter/Projects/stimuli/pictures/n01644900_14490.JPEG	387.47556710243225	1.1666209697723389
169	357.27259707450867	response	0	k		167.0	/home/egter/Projects/stimuli/pictures/n01644900_14490.JPEG	388.6298031806946	
170	357.2849819660187	picture	0		179.0	168.0	/home/egter/Projects/stimuli/pictures/n02447366_15660.JPEG	388.6421880722046	1.493124008178711
170	358.76425409317017	response	0	k		168.0	/home/egter/Projects/stimuli/pictures/n02447366_15660.JPEG	390.1214601993561	
171	358.7781059741974	picture	0		107.0	169.0	/home/egter/Projects/stimuli/pictures/n03776460_6449.JPEG	390.1353120803833	0.8958120346069336
171	359.66420698165894	response	0	k		169.0	/home/egter/Projects/stimuli/pictures/n03776460_6449.JPEG	391.02141308784485	
172	359.6739180088043	picture	0		73.0	170.0	/home/egter/Projects/stimuli/pictures/S_yt-26obL-Z5obg_131.png	391.03112411499023	0.6111929416656494
172	360.2725739479065	response	0	j		170.0	/home/egter/Projects/stimuli/pictures/S_yt-26obL-Z5obg_131.png	391.6297800540924	
173	360.28511095046997	picture	0		95.0	171.0	/home/egter/Projects/stimuli/pictures/R_S_yt-146gReE6xKw_379.png	391.6423170566559	0.7984650135040283
173	361.0725779533386	response	0	j		171.0	/home/egter/Projects/stimuli/pictures/R_S_yt-146gReE6xKw_379.png	392.42978405952454	
174	361.083575963974	picture	0		157.0	172.0	/home/egter/Projects/stimuli/pictures/n04041544_2577.JPEG	392.4407820701599	1.3055601119995117
174	362.38091588020325	response	0	k		172.0	/home/egter/Projects/stimuli/pictures/n04041544_2577.JPEG	393.73812198638916	
175	362.3891360759735	picture	0		94.0	173.0	/home/egter/Projects/stimuli/pictures/S_yt-wjBwgccZM5k_150.png	393.7463421821594	0.784747838973999
175	363.1642770767212	response	0	j		173.0	/home/egter/Projects/stimuli/pictures/S_yt-wjBwgccZM5k_150.png	394.5214831829071	
176	363.1738839149475	picture	0		91.0	174.0	/home/egter/Projects/stimuli/pictures/n04005630_26150.JPEG	394.5310900211334	0.7568621635437012
176	363.9156770706177	response	0	k		174.0	/home/egter/Projects/stimuli/pictures/n04005630_26150.JPEG	395.2728831768036	
177	363.9307460784912	picture	0		170.0	175.0	/home/egter/Projects/stimuli/pictures/n02279972_36722.JPEG	395.2879521846771	1.416693925857544
177	365.3323938846588	response	0	k		175.0	/home/egter/Projects/stimuli/pictures/n02279972_36722.JPEG	396.6895999908447	
178	365.34744000434875	picture	0		119.0	176.0	/home/egter/Projects/stimuli/pictures/S_yt-jgt0PVBUK1Y_580.png	396.70464611053467	0.9930300712585449
178	366.3240759372711	response	0	j		176.0	/home/egter/Projects/stimuli/pictures/S_yt-jgt0PVBUK1Y_580.png	397.68128204345703	
179	366.3404700756073	picture	0		91.0	177.0	/home/egter/Projects/stimuli/pictures/S_yt-STL3ejY9u_Q_73.png	397.6976761817932	0.7569549083709717
179	367.08921694755554	response	0	j		177.0	/home/egter/Projects/stimuli/pictures/S_yt-STL3ejY9u_Q_73.png	398.44642305374146	
180	367.09742498397827	picture	0		185.0	178.0	/home/egter/Projects/stimuli/pictures/S_yt-JpOBXV46TLE_124.png	398.4546310901642	1.5416440963745117
180	368.63089299201965	response	0	j		178.0	/home/egter/Projects/stimuli/pictures/S_yt-JpOBXV46TLE_124.png	399.98809909820557	
181	368.6390690803528	picture	0		115.0	179.0	/home/egter/Projects/stimuli/pictures/R_S_ILSVRC2015_train_00610000.png	399.9962751865387	0.9583969116210938
181	369.5891799926758	response	0	k		179.0	/home/egter/Projects/stimuli/pictures/R_S_ILSVRC2015_train_00610000.png	400.9463860988617	
182	369.5974659919739	stim	0		518.0			400.9546720981598	4.3193519115448
182	372.51418900489807	response	0	j				403.871395111084	
182	373.11405992507935	response	0	k				404.47126603126526	
182	373.9058289527893	response	0	space				405.2630350589752	
