trial_nr	onset	event_type	phase	response	nr_frames	picture_index	picture_file	onset_abs	duration
0	0.011491060256958008	stim	0		1977.0			33.753013134002686	16.488867044448853
0	16.483906984329224	response	0	space				50.22542905807495	
2	16.50035810470581	picture	0		257.0	0.0	/home/egter/Projects/stimuli/pictures/n01496331_34544.JPEG	50.24188017845154	2.1443779468536377
2	18.633819103240967	response	0	k		0.0	/home/egter/Projects/stimuli/pictures/n01496331_34544.JPEG	52.375341176986694	
3	18.64473605155945	picture	0		180.0	1.0	/home/egter/Projects/stimuli/pictures/R_S_yt-DmlSN7mzczI_62.png	52.386258125305176	1.499783992767334
3	20.126899003982544	response	0	j		1.0	/home/egter/Projects/stimuli/pictures/R_S_yt-DmlSN7mzczI_62.png	53.86842107772827	
4	20.144520044326782	picture	0		89.0	2.0	/home/egter/Projects/stimuli/pictures/R_S_S005_C015_SDR_2K_AVC.png	53.88604211807251	0.7430779933929443
4	20.875370979309082	response	0	j		2.0	/home/egter/Projects/stimuli/pictures/R_S_S005_C015_SDR_2K_AVC.png	54.61689305305481	
5	20.887598037719727	picture	0		90.0	3.0	/home/egter/Projects/stimuli/pictures/R_S_yt-a0axt7n0GuQ_19.png	54.629120111465454	0.7500030994415283
5	21.6253821849823	response	0	j		3.0	/home/egter/Projects/stimuli/pictures/R_S_yt-a0axt7n0GuQ_19.png	55.36690425872803	
6	21.637601137161255	picture	0		90.0	4.0	/home/egter/Projects/stimuli/pictures/n02279972_36722.JPEG	55.37912321090698	0.7499690055847168
6	22.37540316581726	response	0	k		4.0	/home/egter/Projects/stimuli/pictures/n02279972_36722.JPEG	56.11692523956299	
7	22.38757014274597	picture	0		101.0	5.0	/home/egter/Projects/stimuli/pictures/n04418357_25661.JPEG	56.1290922164917	0.8402299880981445
7	23.217074155807495	response	0	k		5.0	/home/egter/Projects/stimuli/pictures/n04418357_25661.JPEG	56.95859622955322	
8	23.227800130844116	picture	0		90.0	6.0	/home/egter/Projects/stimuli/pictures/n04346328_7408.JPEG	56.969322204589844	0.7500159740447998
8	23.967064142227173	response	0	k		6.0	/home/egter/Projects/stimuli/pictures/n04346328_7408.JPEG	57.7085862159729	
9	23.977816104888916	picture	0		94.0	7.0	/home/egter/Projects/stimuli/pictures/S_yt-xNITUMXoU0g_9.png	57.719338178634644	0.7847330570220947
9	24.750405073165894	response	0	j		7.0	/home/egter/Projects/stimuli/pictures/S_yt-xNITUMXoU0g_9.png	58.49192714691162	
10	24.76254916191101	picture	0		120.0	8.0	/home/egter/Projects/stimuli/pictures/R_S_yt-bQRBtP9zkms_111.png	58.50407123565674	0.9999778270721436
10	25.743553161621094	response	0	j		8.0	/home/egter/Projects/stimuli/pictures/R_S_yt-bQRBtP9zkms_111.png	59.48507523536682	
11	25.762526988983154	picture	0		140.0	9.0	/home/egter/Projects/stimuli/pictures/S_WO9z7lBUvOs_151.png	59.50404906272888	1.166680097579956
11	26.917081117630005	response	0	j		9.0	/home/egter/Projects/stimuli/pictures/S_WO9z7lBUvOs_151.png	60.65860319137573	
12	26.92920708656311	picture	0		132.0	10.0	/home/egter/Projects/stimuli/pictures/n02115913_3938.JPEG	60.67072916030884	1.097179889678955
12	28.017040014266968	response	0	k		10.0	/home/egter/Projects/stimuli/pictures/n02115913_3938.JPEG	61.758562088012695	
13	28.026386976242065	picture	0		111.0	11.0	/home/egter/Projects/stimuli/pictures/R_S_yt-EBuE7GbFw7U_180.png	61.76790904998779	0.9238719940185547
13	28.935250997543335	response	0	j		11.0	/home/egter/Projects/stimuli/pictures/R_S_yt-EBuE7GbFw7U_180.png	62.67677307128906	
14	28.95025897026062	picture	0		103.0	12.0	/home/egter/Projects/stimuli/pictures/S_ILSVRC2015_train_00451000.png	62.69178104400635	0.8608121871948242
14	29.80040717124939	response	0	j		12.0	/home/egter/Projects/stimuli/pictures/S_ILSVRC2015_train_00451000.png	63.54192924499512	
15	29.811071157455444	picture	0		128.0	13.0	/home/egter/Projects/stimuli/pictures/R_S_yt-wE0cEswyaaM_53.png	63.55259323120117	1.069523811340332
15	30.86706304550171	response	0	j		13.0	/home/egter/Projects/stimuli/pictures/R_S_yt-wE0cEswyaaM_53.png	64.60858511924744	
16	30.880594968795776	picture	0		188.0	14.0	/home/egter/Projects/stimuli/pictures/R_S_yt--C2DDZ7LOQA_95.png	64.6221170425415	1.569648027420044
16	32.442058086395264	response	0	k		14.0	/home/egter/Projects/stimuli/pictures/R_S_yt--C2DDZ7LOQA_95.png	66.18358016014099	
17	32.45024299621582	picture	0		100.0	15.0	/home/egter/Projects/stimuli/pictures/R_S_wc-_W9iefBXz8bi_23.png	66.19176506996155	0.8333151340484619
17	33.27536702156067	response	0	j		15.0	/home/egter/Projects/stimuli/pictures/R_S_wc-_W9iefBXz8bi_23.png	67.0168890953064	
18	33.28355813026428	picture	0		137.0	16.0	/home/egter/Projects/stimuli/pictures/n04389033_19081.JPEG	67.02508020401001	1.1456470489501953
18	34.41699695587158	response	0	k		16.0	/home/egter/Projects/stimuli/pictures/n04389033_19081.JPEG	68.15851902961731	
19	34.42920517921448	picture	0		100.0	17.0	/home/egter/Projects/stimuli/pictures/n02487347_9577.JPEG	68.1707272529602	0.8401639461517334
19	35.25866413116455	response	0	k		17.0	/home/egter/Projects/stimuli/pictures/n02487347_9577.JPEG	69.00018620491028	
20	35.26936912536621	picture	0		170.0	18.0	/home/egter/Projects/stimuli/pictures/R_S_yt-g_CLzrCYHoc_7.png	69.01089119911194	1.4166409969329834
20	36.67536115646362	response	0	k		18.0	/home/egter/Projects/stimuli/pictures/R_S_yt-g_CLzrCYHoc_7.png	70.41688323020935	
21	36.686010122299194	picture	0		127.0	19.0	/home/egter/Projects/stimuli/pictures/S_video_inspire_california_catalina_avalon_00053.png	70.42753219604492	1.0558829307556152
21	37.726885080337524	response	0	j		19.0	/home/egter/Projects/stimuli/pictures/S_video_inspire_california_catalina_avalon_00053.png	71.46840715408325	
22	37.74189305305481	picture	0		116.0	20.0	/home/egter/Projects/stimuli/pictures/R_S_yt-2lnxIdOTxog_157.png	71.48341512680054	0.9719619750976562
22	38.70031499862671	response	0	j		20.0	/home/egter/Projects/stimuli/pictures/R_S_yt-2lnxIdOTxog_157.png	72.44183707237244	
23	38.713855028152466	picture	0		99.0	21.0	/home/egter/Projects/stimuli/pictures/n06785654_17137.JPEG	72.4553771018982	0.83331298828125
23	39.52677011489868	response	0	k		21.0	/home/egter/Projects/stimuli/pictures/n06785654_17137.JPEG	73.26829218864441	
24	39.547168016433716	picture	0		122.0	22.0	/home/egter/Projects/stimuli/pictures/n09332890_44309.JPEG	73.28869009017944	1.0280461311340332
24	40.55869817733765	response	0	k		22.0	/home/egter/Projects/stimuli/pictures/n09332890_44309.JPEG	74.30022025108337	
25	40.57521414756775	picture	0		120.0	23.0	/home/egter/Projects/stimuli/pictures/ILSVRC2012_test_00064812.JPEG	74.31673622131348	1.0066628456115723
25	41.56698703765869	response	0	k		23.0	/home/egter/Projects/stimuli/pictures/ILSVRC2012_test_00064812.JPEG	75.30850911140442	
26	41.58187699317932	picture	0		103.0	24.0	/home/egter/Projects/stimuli/pictures/n03788195_12678.JPEG	75.32339906692505	0.8610761165618896
26	42.43364500999451	response	0	k		24.0	/home/egter/Projects/stimuli/pictures/n03788195_12678.JPEG	76.17516708374023	
27	42.44295310974121	picture	0		139.0	25.0	/home/egter/Projects/stimuli/pictures/S_yt-ChAhBD9LrsU_223.png	76.18447518348694	1.1596598625183105
27	43.59200716018677	response	0	k		25.0	/home/egter/Projects/stimuli/pictures/S_yt-ChAhBD9LrsU_223.png	77.3335292339325	
28	43.60261297225952	picture	0		161.0	26.0	/home/egter/Projects/stimuli/pictures/S_yt-2mjHDSH1Yvg_90.png	77.34413504600525	1.3402810096740723
28	44.926902055740356	response	0	k		26.0	/home/egter/Projects/stimuli/pictures/S_yt-2mjHDSH1Yvg_90.png	78.66842412948608	
29	44.942893981933594	picture	0		172.0	27.0	/home/egter/Projects/stimuli/pictures/R_S_production_ID_5182928.png	78.68441605567932	1.4377310276031494
29	46.36694407463074	response	0	j		27.0	/home/egter/Projects/stimuli/pictures/R_S_production_ID_5182928.png	80.10846614837646	
30	46.38062500953674	picture	0		113.0	28.0	/home/egter/Projects/stimuli/pictures/R_S_yt-UzWRbs9Syf4_7.png	80.12214708328247	0.9445650577545166
30	47.316956996917725	response	0	j		28.0	/home/egter/Projects/stimuli/pictures/R_S_yt-UzWRbs9Syf4_7.png	81.05847907066345	
31	47.32519006729126	picture	0		95.0	29.0	/home/egter/Projects/stimuli/pictures/S_yt-C0iWlRWU21o_5.png	81.06671214103699	0.7916440963745117
31	48.10863900184631	response	0	j		29.0	/home/egter/Projects/stimuli/pictures/S_yt-C0iWlRWU21o_5.png	81.85016107559204	
32	48.11683416366577	picture	0		155.0	30.0	/home/egter/Projects/stimuli/pictures/n04613696_9693.JPEG	81.8583562374115	1.29166579246521
32	49.400267124176025	response	0	k		30.0	/home/egter/Projects/stimuli/pictures/n04613696_9693.JPEG	83.14178919792175	
33	49.40849995613098	picture	0		111.0	31.0	/home/egter/Projects/stimuli/pictures/R_S_comp_A050_C004_1027V8_v16_SDR_FINAL_20180706_SDR_2K_AVC.png	83.15002202987671	0.9302401542663574
33	50.3252899646759	response	0	j		31.0	/home/egter/Projects/stimuli/pictures/R_S_comp_A050_C004_1027V8_v16_SDR_FINAL_20180706_SDR_2K_AVC.png	84.06681203842163	
34	50.33874011039734	picture	0		114.0	32.0	/home/egter/Projects/stimuli/pictures/S_yt-0n0uppNuUus_15.png	84.08026218414307	0.958319902420044
34	51.283698081970215	response	0	j		32.0	/home/egter/Projects/stimuli/pictures/S_yt-0n0uppNuUus_15.png	85.02522015571594	
35	51.29706001281738	picture	0		112.0	33.0	/home/egter/Projects/stimuli/pictures/n03838899_21453.JPEG	85.03858208656311	0.9374361038208008
35	52.225269079208374	response	0	k		33.0	/home/egter/Projects/stimuli/pictures/n03838899_21453.JPEG	85.9667911529541	
36	52.234496116638184	picture	0		113.0	34.0	/home/egter/Projects/stimuli/pictures/R_S_yt-gC3my54_ChQ_58.png	85.97601819038391	0.9444389343261719
36	53.16702699661255	response	0	j		34.0	/home/egter/Projects/stimuli/pictures/R_S_yt-gC3my54_ChQ_58.png	86.90854907035828	
37	53.178935050964355	picture	0		115.0	35.0	/home/egter/Projects/stimuli/pictures/n02134418_12959.JPEG	86.92045712471008	0.9583160877227783
37	54.12528610229492	response	0	k		35.0	/home/egter/Projects/stimuli/pictures/n02134418_12959.JPEG	87.86680817604065	
38	54.137251138687134	picture	0		112.0	36.0	/home/egter/Projects/stimuli/pictures/n02097209_5260.JPEG	87.87877321243286	0.9305498600006104
38	55.05864214897156	response	0	k		36.0	/home/egter/Projects/stimuli/pictures/n02097209_5260.JPEG	88.80016422271729	
39	55.067800998687744	picture	0		188.0	37.0	/home/egter/Projects/stimuli/pictures/n01945685_4332.JPEG	88.80932307243347	1.5693950653076172
39	56.62530708312988	response	0	k		37.0	/home/egter/Projects/stimuli/pictures/n01945685_4332.JPEG	90.36682915687561	
40	56.63719606399536	picture	0		127.0	38.0	/home/egter/Projects/stimuli/pictures/n11879895_2208.JPEG	90.37871813774109	1.0556080341339111
40	57.683562994003296	response	0	k		38.0	/home/egter/Projects/stimuli/pictures/n11879895_2208.JPEG	91.42508506774902	
41	57.69280409812927	picture	0		141.0	39.0	/home/egter/Projects/stimuli/pictures/n02106662_31971.JPEG	91.434326171875	1.1739768981933594
41	58.85854697227478	response	0	k		39.0	/home/egter/Projects/stimuli/pictures/n02106662_31971.JPEG	92.60006904602051	
42	58.86678099632263	picture	0		167.0	40.0	/home/egter/Projects/stimuli/pictures/n02134418_178.JPEG	92.60830307006836	1.3954250812530518
42	60.25021505355835	response	0	k		40.0	/home/egter/Projects/stimuli/pictures/n02134418_178.JPEG	93.99173712730408	
43	60.262206077575684	picture	0		205.0	41.0	/home/egter/Projects/stimuli/pictures/n03095699_944.JPEG	94.00372815132141	1.708427906036377
43	61.95177602767944	response	0	k		41.0	/home/egter/Projects/stimuli/pictures/n03095699_944.JPEG	95.69329810142517	
44	61.97063398361206	picture	0		129.0	42.0	/home/egter/Projects/stimuli/pictures/n04461696_16226.JPEG	95.71215605735779	1.076322078704834
44	63.03358006477356	response	0	k		42.0	/home/egter/Projects/stimuli/pictures/n04461696_16226.JPEG	96.77510213851929	
45	63.046956062316895	picture	0		106.0	43.0	/home/egter/Projects/stimuli/pictures/n02268853_582.JPEG	96.78847813606262	0.9114670753479004
45	63.92523717880249	response	0	k		43.0	/home/egter/Projects/stimuli/pictures/n02268853_582.JPEG	97.66675925254822	
46	63.958423137664795	picture	0		103.0	44.0	/home/egter/Projects/stimuli/pictures/R_S_I003_C008_SDR_2K_AVC.png	97.69994521141052	0.8592698574066162
46	64.80855703353882	response	0	j		44.0	/home/egter/Projects/stimuli/pictures/R_S_I003_C008_SDR_2K_AVC.png	98.55007910728455	
47	64.81769299507141	picture	0		187.0	45.0	/home/egter/Projects/stimuli/pictures/S_yt-OPzchvF7jO8_53.png	98.55921506881714	1.5625410079956055
47	66.36006498336792	response	0	j		45.0	/home/egter/Projects/stimuli/pictures/S_yt-OPzchvF7jO8_53.png	100.10158705711365	
48	66.38023400306702	picture	0		95.0	46.0	/home/egter/Projects/stimuli/pictures/S_yt-q9kT_c9QjbQ_34.png	100.12175607681274	0.7986531257629395
48	67.16003918647766	response	0	j		46.0	/home/egter/Projects/stimuli/pictures/S_yt-q9kT_c9QjbQ_34.png	100.90156126022339	
49	67.17888712882996	picture	0		99.0	47.0	/home/egter/Projects/stimuli/pictures/R_S_flickr-hapanine-31880782705_22.png	100.92040920257568	0.826361894607544
49	67.99189114570618	response	0	j		47.0	/home/egter/Projects/stimuli/pictures/R_S_flickr-hapanine-31880782705_22.png	101.7334132194519	
50	68.0052490234375	picture	0		148.0	48.0	/home/egter/Projects/stimuli/pictures/n02444819_23160.JPEG	101.74677109718323	1.2364981174468994
50	69.23365497589111	response	0	k		48.0	/home/egter/Projects/stimuli/pictures/n02444819_23160.JPEG	102.97517704963684	
51	69.2417471408844	picture	0		294.0	49.0	/home/egter/Projects/stimuli/pictures/S_yt-mWL9DHq4eRI_501.png	102.98326921463013	2.4509119987487793
51	71.68355917930603	response	0	k		49.0	/home/egter/Projects/stimuli/pictures/S_yt-mWL9DHq4eRI_501.png	105.42508125305176	
52	71.69265913963318	picture	0		109.0	50.0	/home/egter/Projects/stimuli/pictures/S_yt-cokedWwwYYs_136.png	105.4341812133789	0.9097309112548828
52	72.5919120311737	response	0	j		50.0	/home/egter/Projects/stimuli/pictures/S_yt-cokedWwwYYs_136.png	106.33343410491943	
53	72.60239005088806	picture	0		124.0	51.0	/home/egter/Projects/stimuli/pictures/R_S_yt-cokedWwwYYs_136.png	106.34391212463379	1.0347881317138672
53	73.62513899803162	response	0	j		51.0	/home/egter/Projects/stimuli/pictures/R_S_yt-cokedWwwYYs_136.png	107.36666107177734	
54	73.63717818260193	picture	0		120.0	52.0	/home/egter/Projects/stimuli/pictures/n02268443_26935.JPEG	107.37870025634766	0.9999439716339111
54	74.62520003318787	response	0	k		52.0	/home/egter/Projects/stimuli/pictures/n02268443_26935.JPEG	108.3667221069336	
55	74.63712215423584	picture	0		139.0	53.0	/home/egter/Projects/stimuli/pictures/S_yt-z68VLDDCFdw_93.png	108.37864422798157	1.1597168445587158
55	75.78351211547852	response	0	k		53.0	/home/egter/Projects/stimuli/pictures/S_yt-z68VLDDCFdw_93.png	109.52503418922424	
56	75.79683899879456	picture	0		154.0	54.0	/home/egter/Projects/stimuli/pictures/n03770679_25478.JPEG	109.53836107254028	1.2916359901428223
56	77.07517004013062	response	0	k		54.0	/home/egter/Projects/stimuli/pictures/n03770679_25478.JPEG	110.81669211387634	
57	77.08847498893738	picture	0		111.0	55.0	/home/egter/Projects/stimuli/pictures/n02099267_5073.JPEG	110.8299970626831	0.9304971694946289
57	78.00847005844116	response	0	k		55.0	/home/egter/Projects/stimuli/pictures/n02099267_5073.JPEG	111.74999213218689	
58	78.018972158432	picture	0		108.0	56.0	/home/egter/Projects/stimuli/pictures/n02256656_1174.JPEG	111.76049423217773	0.9029128551483154
58	78.90850114822388	response	0	k		56.0	/home/egter/Projects/stimuli/pictures/n02256656_1174.JPEG	112.6500232219696	
59	78.92188501358032	picture	0		119.0	57.0	/home/egter/Projects/stimuli/pictures/S_yt-s5YONFy3vb4_46.png	112.66340708732605	0.9999070167541504
59	79.90850710868835	response	0	j		57.0	/home/egter/Projects/stimuli/pictures/S_yt-s5YONFy3vb4_46.png	113.65002918243408	
60	79.92179203033447	picture	0		117.0	58.0	/home/egter/Projects/stimuli/pictures/n03126707_9973.JPEG	113.6633141040802	0.9790530204772949
60	80.89180207252502	response	0	k		58.0	/home/egter/Projects/stimuli/pictures/n03126707_9973.JPEG	114.63332414627075	
61	80.90084505081177	picture	0		100.0	59.0	/home/egter/Projects/stimuli/pictures/R_S_yt-ILARvS15SDQ_741.png	114.6423671245575	0.8333580493927002
61	81.72510504722595	response	0	j		59.0	/home/egter/Projects/stimuli/pictures/R_S_yt-ILARvS15SDQ_741.png	115.46662712097168	
62	81.73420310020447	picture	0		105.0	60.0	/home/egter/Projects/stimuli/pictures/R_S_g201_AK_A003_C014_SDR_20191113_SDR_2K_AVC.png	115.4757251739502	0.8750119209289551
62	82.60016703605652	response	0	j		60.0	/home/egter/Projects/stimuli/pictures/R_S_g201_AK_A003_C014_SDR_20191113_SDR_2K_AVC.png	116.34168910980225	
63	82.60921502113342	picture	0		98.0	61.0	/home/egter/Projects/stimuli/pictures/R_S_yt-nE8YJOhW4e4_171.png	116.35073709487915	0.8194200992584229
63	83.41684007644653	response	0	j		61.0	/home/egter/Projects/stimuli/pictures/R_S_yt-nE8YJOhW4e4_171.png	117.15836215019226	
64	83.42863512039185	picture	0		102.0	62.0	/home/egter/Projects/stimuli/pictures/R_S_Pexels_Videos_2795731_1.png	117.17015719413757	0.8471870422363281
64	84.26681208610535	response	0	j		62.0	/home/egter/Projects/stimuli/pictures/R_S_Pexels_Videos_2795731_1.png	118.00833415985107	
65	84.27582216262817	picture	0		94.0	63.0	/home/egter/Projects/stimuli/pictures/R_S_yt-OPzchvF7jO8_53.png	118.0173442363739	0.7847449779510498
65	85.05019497871399	response	0	j		63.0	/home/egter/Projects/stimuli/pictures/R_S_yt-OPzchvF7jO8_53.png	118.79171705245972	
66	85.06056714057922	picture	0		93.0	64.0	/home/egter/Projects/stimuli/pictures/n01530575_7135.JPEG	118.80208921432495	0.7777559757232666
66	85.82517218589783	response	0	k		64.0	/home/egter/Projects/stimuli/pictures/n01530575_7135.JPEG	119.56669425964355	
67	85.83832311630249	picture	0		114.0	65.0	/home/egter/Projects/stimuli/pictures/ILSVRC2012_val_00000725.JPEG	119.57984519004822	0.9584169387817383
67	86.78338408470154	response	0	k		65.0	/home/egter/Projects/stimuli/pictures/ILSVRC2012_val_00000725.JPEG	120.52490615844727	
68	86.79674005508423	picture	0		90.0	66.0	/home/egter/Projects/stimuli/pictures/S_pexels-c-technical-6763571.png	120.53826212882996	0.7568750381469727
68	87.54181599617004	response	0	j		66.0	/home/egter/Projects/stimuli/pictures/S_pexels-c-technical-6763571.png	121.28333806991577	
69	87.5536150932312	picture	0		108.0	67.0	/home/egter/Projects/stimuli/pictures/S_yt-Dwgpjoikt84_122.png	121.29513716697693	0.896373987197876
69	88.44181299209595	response	0	j		67.0	/home/egter/Projects/stimuli/pictures/S_yt-Dwgpjoikt84_122.png	122.18333506584167	
70	88.44998908042908	picture	0		148.0	68.0	/home/egter/Projects/stimuli/pictures/S_yt-CJeyOFsd3lg_80.png	122.1915111541748	1.241683006286621
70	89.675124168396	response	0	j		68.0	/home/egter/Projects/stimuli/pictures/S_yt-CJeyOFsd3lg_80.png	123.41664624214172	
71	89.6916720867157	picture	0		99.0	69.0	/home/egter/Projects/stimuli/pictures/R_S_yt-r2jZ0zZrqzQ_45.png	123.43319416046143	0.8272409439086914
71	90.50846600532532	response	0	j		69.0	/home/egter/Projects/stimuli/pictures/R_S_yt-r2jZ0zZrqzQ_45.png	124.24998807907104	
72	90.51891303062439	picture	0		100.0	70.0	/home/egter/Projects/stimuli/pictures/n03743016_20856.JPEG	124.26043510437012	0.8332550525665283
72	91.3418321609497	response	0	k		70.0	/home/egter/Projects/stimuli/pictures/n03743016_20856.JPEG	125.08335423469543	
73	91.35216808319092	picture	0		102.0	71.0	/home/egter/Projects/stimuli/pictures/n07697537_3054.JPEG	125.09369015693665	0.8561530113220215
73	92.19260215759277	response	0	k		71.0	/home/egter/Projects/stimuli/pictures/n07697537_3054.JPEG	125.9341242313385	
74	92.20832109451294	picture	0		120.0	72.0	/home/egter/Projects/stimuli/pictures/R_S_yt-3TF_RGo9cLs_541.png	125.94984316825867	1.0049669742584229
74	93.20013308525085	response	0	j		72.0	/home/egter/Projects/stimuli/pictures/R_S_yt-3TF_RGo9cLs_541.png	126.94165515899658	
75	93.21328806877136	picture	0		136.0	73.0	/home/egter/Projects/stimuli/pictures/n01796340_20551.JPEG	126.95481014251709	1.1389009952545166
75	94.34179401397705	response	0	k		73.0	/home/egter/Projects/stimuli/pictures/n01796340_20551.JPEG	128.08331608772278	
76	94.35218906402588	picture	0		134.0	74.0	/home/egter/Projects/stimuli/pictures/n01496331_28398.JPEG	128.0937111377716	1.1180789470672607
76	95.45847415924072	response	0	k		74.0	/home/egter/Projects/stimuli/pictures/n01496331_28398.JPEG	129.19999623298645	
77	95.47026801109314	picture	0		103.0	75.0	/home/egter/Projects/stimuli/pictures/R_S_ILSVRC2015_train_00469000.png	129.21179008483887	0.8546960353851318
77	96.31676602363586	response	0	j		75.0	/home/egter/Projects/stimuli/pictures/R_S_ILSVRC2015_train_00469000.png	130.0582880973816	
78	96.32496404647827	picture	0		102.0	76.0	/home/egter/Projects/stimuli/pictures/R_S_pexels-rodnae-productions-5617905.png	130.066486120224	0.8536279201507568
78	97.16004204750061	response	0	j		76.0	/home/egter/Projects/stimuli/pictures/R_S_pexels-rodnae-productions-5617905.png	130.90156412124634	
79	97.17859196662903	picture	0		136.0	77.0	/home/egter/Projects/stimuli/pictures/R_S_S006_C007_SDR_2K_AVC.png	130.92011404037476	1.1318440437316895
79	98.30009412765503	response	0	k		77.0	/home/egter/Projects/stimuli/pictures/R_S_S006_C007_SDR_2K_AVC.png	132.04161620140076	
80	98.31043601036072	picture	0		96.0	78.0	/home/egter/Projects/stimuli/pictures/n13054560_4503.JPEG	132.05195808410645	0.7986130714416504
80	99.10011315345764	response	0	k		78.0	/home/egter/Projects/stimuli/pictures/n13054560_4503.JPEG	132.84163522720337	
81	99.10904908180237	picture	0		241.0	79.0	/home/egter/Projects/stimuli/pictures/S_yt-ROhKDdF1gV4_21.png	132.8505711555481	2.0139000415802
81	101.10917496681213	response	0	j		79.0	/home/egter/Projects/stimuli/pictures/S_yt-ROhKDdF1gV4_21.png	134.85069704055786	
82	101.12294912338257	picture	0		102.0	80.0	/home/egter/Projects/stimuli/pictures/n01872401_20410.JPEG	134.8644711971283	0.8541309833526611
82	101.95992612838745	response	0	k		80.0	/home/egter/Projects/stimuli/pictures/n01872401_20410.JPEG	135.70144820213318	
83	101.97708010673523	picture	0		156.0	81.0	/home/egter/Projects/stimuli/pictures/S_yt-Y32yFYRmNVU_22.png	135.71860218048096	1.2986030578613281
83	103.26673007011414	response	0	j		81.0	/home/egter/Projects/stimuli/pictures/S_yt-Y32yFYRmNVU_22.png	137.00825214385986	
84	103.27568316459656	picture	0		105.0	82.0	/home/egter/Projects/stimuli/pictures/S_yt-zlbtESb7Fcw_28.png	137.01720523834229	0.8749818801879883
84	104.14173007011414	response	0	j		82.0	/home/egter/Projects/stimuli/pictures/S_yt-zlbtESb7Fcw_28.png	137.88325214385986	
85	104.15066504478455	picture	0		134.0	83.0	/home/egter/Projects/stimuli/pictures/R_S_P005_C002_UHD_SDR_2K_AVC.png	137.89218711853027	1.118067979812622
85	105.258376121521	response	0	k		83.0	/home/egter/Projects/stimuli/pictures/R_S_P005_C002_UHD_SDR_2K_AVC.png	138.99989819526672	
86	105.26873302459717	picture	0		193.0	84.0	/home/egter/Projects/stimuli/pictures/n03594945_38746.JPEG	139.0102550983429	1.6111230850219727
86	106.86667513847351	response	0	k		84.0	/home/egter/Projects/stimuli/pictures/n03594945_38746.JPEG	140.60819721221924	
87	106.87985610961914	picture	0		91.0	85.0	/home/egter/Projects/stimuli/pictures/S_yt-3ohvpS42xug_184.png	140.62137818336487	0.7638599872589111
87	107.63338112831116	response	0	j		85.0	/home/egter/Projects/stimuli/pictures/S_yt-3ohvpS42xug_184.png	141.37490320205688	
88	107.64371609687805	picture	0		102.0	86.0	/home/egter/Projects/stimuli/pictures/n02058221_5460.JPEG	141.38523817062378	0.8542249202728271
88	108.48335909843445	response	0	k		86.0	/home/egter/Projects/stimuli/pictures/n02058221_5460.JPEG	142.22488117218018	
89	108.49794101715088	picture	0		101.0	87.0	/home/egter/Projects/stimuli/pictures/ILSVRC2012_test_00021180.JPEG	142.2394630908966	0.8472120761871338
89	109.33335018157959	response	0	k		87.0	/home/egter/Projects/stimuli/pictures/ILSVRC2012_test_00021180.JPEG	143.07487225532532	
90	109.34515309333801	picture	0		264.0	88.0	/home/egter/Projects/stimuli/pictures/R_S_yt-CJeyOFsd3lg_80.png	143.08667516708374	2.201411008834839
90	111.5333890914917	response	0	j		88.0	/home/egter/Projects/stimuli/pictures/R_S_yt-CJeyOFsd3lg_80.png	145.27491116523743	
91	111.54656410217285	picture	0		87.0	89.0	/home/egter/Projects/stimuli/pictures/n01756291_12921.JPEG	145.28808617591858	0.7290060520172119
91	112.26670002937317	response	0	k		89.0	/home/egter/Projects/stimuli/pictures/n01756291_12921.JPEG	146.0082221031189	
92	112.27557015419006	picture	0		105.0	90.0	/home/egter/Projects/stimuli/pictures/n04428191_30274.JPEG	146.0170922279358	0.8750209808349609
92	113.1417031288147	response	0	k		90.0	/home/egter/Projects/stimuli/pictures/n04428191_30274.JPEG	146.88322520256042	
93	113.15059113502502	picture	0		87.0	91.0	/home/egter/Projects/stimuli/pictures/n01644900_20697.JPEG	146.89211320877075	0.7292149066925049
93	113.86669707298279	response	0	k		91.0	/home/egter/Projects/stimuli/pictures/n01644900_20697.JPEG	147.60821914672852	
94	113.87980604171753	picture	0		86.0	92.0	/home/egter/Projects/stimuli/pictures/n04487081_13086.JPEG	147.62132811546326	0.7151849269866943
94	114.57659912109375	response	0	k		92.0	/home/egter/Projects/stimuli/pictures/n04487081_13086.JPEG	148.31812119483948	
95	114.59499096870422	picture	0		86.0	93.0	/home/egter/Projects/stimuli/pictures/n04251144_16942.JPEG	148.33651304244995	0.7153091430664062
95	115.30002212524414	response	0	k		93.0	/home/egter/Projects/stimuli/pictures/n04251144_16942.JPEG	149.04154419898987	
96	115.31030011177063	picture	0		106.0	94.0	/home/egter/Projects/stimuli/pictures/R_S_yt-yPl8LcgSMjo_32.png	149.05182218551636	0.8819198608398438
96	116.17658805847168	response	0	j		94.0	/home/egter/Projects/stimuli/pictures/R_S_yt-yPl8LcgSMjo_32.png	149.9181101322174	
97	116.19221997261047	picture	0		204.0	95.0	/home/egter/Projects/stimuli/pictures/S_ILSVRC2015_test_00001002.png	149.9337420463562	1.708362102508545
97	117.88334608078003	response	0	j		95.0	/home/egter/Projects/stimuli/pictures/S_ILSVRC2015_test_00001002.png	151.62486815452576	
98	117.90058207511902	picture	0		115.0	96.0	/home/egter/Projects/stimuli/pictures/S_ILSVRC2015_train_00079001.png	151.64210414886475	0.9583148956298828
98	118.84995913505554	response	0	j		96.0	/home/egter/Projects/stimuli/pictures/S_ILSVRC2015_train_00079001.png	152.59148120880127	
99	118.8588969707489	picture	0		146.0	97.0	/home/egter/Projects/stimuli/pictures/R_S_nvbAwZOKBS8_23.png	152.60041904449463	1.2243061065673828
99	120.06730008125305	response	0	k		97.0	/home/egter/Projects/stimuli/pictures/R_S_nvbAwZOKBS8_23.png	153.80882215499878	
100	120.08320307731628	picture	0		210.0	98.0	/home/egter/Projects/stimuli/pictures/R_S_ILSVRC2015_train_00404004.png	153.824725151062	1.7549231052398682
100	121.82501816749573	response	0	j		98.0	/home/egter/Projects/stimuli/pictures/R_S_ILSVRC2015_train_00404004.png	155.56654024124146	
101	121.83812618255615	picture	0		118.0	99.0	/home/egter/Projects/stimuli/pictures/S_yt-cu4AVz6o2eg_24.png	155.57964825630188	0.9930520057678223
101	122.817312002182	response	0	k		99.0	/home/egter/Projects/stimuli/pictures/S_yt-cu4AVz6o2eg_24.png	156.55883407592773	
102	122.83117818832397	picture	0		109.0	100.0	/home/egter/Projects/stimuli/pictures/R_S_yt-fjOsq03OC2c_188.png	156.5727002620697	0.9165787696838379
102	123.733962059021	response	0	k		100.0	/home/egter/Projects/stimuli/pictures/R_S_yt-fjOsq03OC2c_188.png	157.47548413276672	
103	123.74775695800781	picture	0		87.0	101.0	/home/egter/Projects/stimuli/pictures/R_S_yt-0n0uppNuUus_15.png	157.48927903175354	0.7290990352630615
103	124.46667814254761	response	0	j		101.0	/home/egter/Projects/stimuli/pictures/R_S_yt-0n0uppNuUus_15.png	158.20820021629333	
104	124.47685599327087	picture	0		91.0	102.0	/home/egter/Projects/stimuli/pictures/n02094258_5630.JPEG	158.2183780670166	0.7569570541381836
104	125.22498202323914	response	0	k		102.0	/home/egter/Projects/stimuli/pictures/n02094258_5630.JPEG	158.96650409698486	
105	125.23381304740906	picture	0		89.0	103.0	/home/egter/Projects/stimuli/pictures/n03803284_7458.JPEG	158.97533512115479	0.7430291175842285
105	125.95982003211975	response	0	k		103.0	/home/egter/Projects/stimuli/pictures/n03803284_7458.JPEG	159.70134210586548	
106	125.97684216499329	picture	0		200.0	104.0	/home/egter/Projects/stimuli/pictures/S_yt-SRozDkhwx28_1463.png	159.718364238739	1.6730239391326904
106	127.63329195976257	response	0	j		104.0	/home/egter/Projects/stimuli/pictures/S_yt-SRozDkhwx28_1463.png	161.3748140335083	
107	127.64986610412598	picture	0		77.0	105.0	/home/egter/Projects/stimuli/pictures/n04141327_4278.JPEG	161.3913881778717	0.646522045135498
107	128.2832419872284	response	0	k		105.0	/home/egter/Projects/stimuli/pictures/n04141327_4278.JPEG	162.02476406097412	
108	128.29638814926147	picture	0		100.0	106.0	/home/egter/Projects/stimuli/pictures/n01739381_1084.JPEG	162.0379102230072	0.8401620388031006
108	129.12490606307983	response	0	k		106.0	/home/egter/Projects/stimuli/pictures/n01739381_1084.JPEG	162.86642813682556	
109	129.13655018806458	picture	0		98.0	107.0	/home/egter/Projects/stimuli/pictures/S_pexels-marcus-aurelius-6785014.png	162.8780722618103	0.8195688724517822
109	129.94224405288696	response	0	j		107.0	/home/egter/Projects/stimuli/pictures/S_pexels-marcus-aurelius-6785014.png	163.6837661266327	
110	129.95611906051636	picture	0		147.0	108.0	/home/egter/Projects/stimuli/pictures/R_S_yt-PRqnM7xDsus_24.png	163.69764113426208	1.2290339469909668
110	131.16814804077148	response	0	j		108.0	/home/egter/Projects/stimuli/pictures/R_S_yt-PRqnM7xDsus_24.png	164.9096701145172	
111	131.18515300750732	picture	0		129.0	109.0	/home/egter/Projects/stimuli/pictures/S_yt-e1RAhIW6WAs_535.png	164.92667508125305	1.0764269828796387
111	132.24996304512024	response	0	j		109.0	/home/egter/Projects/stimuli/pictures/S_yt-e1RAhIW6WAs_535.png	165.99148511886597	
112	132.26157999038696	picture	0		90.0	110.0	/home/egter/Projects/stimuli/pictures/n06794110_2840.JPEG	166.0031020641327	0.7499620914459229
112	132.99995398521423	response	0	k		110.0	/home/egter/Projects/stimuli/pictures/n06794110_2840.JPEG	166.74147605895996	
113	133.01154208183289	picture	0		128.0	111.0	/home/egter/Projects/stimuli/pictures/S_ILSVRC2015_train_00373000.png	166.7530641555786	1.069532871246338
113	134.0672149658203	response	0	j		111.0	/home/egter/Projects/stimuli/pictures/S_ILSVRC2015_train_00373000.png	167.80873703956604	
114	134.08107495307922	picture	0		99.0	112.0	/home/egter/Projects/stimuli/pictures/R_S_ILSVRC2015_train_00517000.png	167.82259702682495	0.8354461193084717
114	134.9005479812622	response	0	j		112.0	/home/egter/Projects/stimuli/pictures/R_S_ILSVRC2015_train_00517000.png	168.64207005500793	
115	134.9165210723877	picture	0		99.0	113.0	/home/egter/Projects/stimuli/pictures/R_S_pexels-koolshooters-7689098.png	168.65804314613342	0.8334610462188721
115	135.73387718200684	response	0	j		113.0	/home/egter/Projects/stimuli/pictures/R_S_pexels-koolshooters-7689098.png	169.47539925575256	
116	135.74998211860657	picture	0		117.0	114.0	/home/egter/Projects/stimuli/pictures/R_S_b6-4.png	169.4915041923523	0.9767959117889404
116	136.7166211605072	response	0	k		114.0	/home/egter/Projects/stimuli/pictures/R_S_b6-4.png	170.45814323425293	
117	136.7267780303955	picture	0		80.0	115.0	/home/egter/Projects/stimuli/pictures/S_yt-ycQy_fHCK-U_8.png	170.46830010414124	0.6666669845581055
117	137.37647700309753	response	0	j		115.0	/home/egter/Projects/stimuli/pictures/S_yt-ycQy_fHCK-U_8.png	171.11799907684326	
118	137.3934450149536	picture	0		269.0	116.0	/home/egter/Projects/stimuli/pictures/S_tIpD52JAIV8_4.png	171.13496708869934	2.2430410385131836
118	139.62495613098145	response	0	k		116.0	/home/egter/Projects/stimuli/pictures/S_tIpD52JAIV8_4.png	173.36647820472717	
119	139.6364860534668	picture	0		91.0	117.0	/home/egter/Projects/stimuli/pictures/n04008634_64.JPEG	173.37800812721252	0.75689697265625
119	140.37644505500793	response	0	k		117.0	/home/egter/Projects/stimuli/pictures/n04008634_64.JPEG	174.11796712875366	
120	140.39338302612305	picture	0		97.0	118.0	/home/egter/Projects/stimuli/pictures/S_ILnEDG_aP1A_35.png	174.13490509986877	0.814777135848999
120	141.1921410560608	response	0	j		118.0	/home/egter/Projects/stimuli/pictures/S_ILnEDG_aP1A_35.png	174.93366312980652	
121	141.20816016197205	picture	0		113.0	119.0	/home/egter/Projects/stimuli/pictures/n04335435_21811.JPEG	174.94968223571777	0.9499919414520264
121	142.1415979862213	response	0	k		119.0	/home/egter/Projects/stimuli/pictures/n04335435_21811.JPEG	175.88312005996704	
122	142.15815210342407	picture	0		105.0	120.0	/home/egter/Projects/stimuli/pictures/S_comp_A007_C017_01156B_v02_SDR_PS_20180925_SDR_2K_AVC.png	175.8996741771698	0.8833298683166504
122	143.0254521369934	response	0	k		120.0	/home/egter/Projects/stimuli/pictures/S_comp_A007_C017_01156B_v02_SDR_PS_20180925_SDR_2K_AVC.png	176.76697421073914	
123	143.04148197174072	picture	0		241.0	121.0	/home/egter/Projects/stimuli/pictures/S_yt-NNl5SiIQHsA_29.png	176.78300404548645	2.0115580558776855
123	145.04150700569153	response	0	j		121.0	/home/egter/Projects/stimuli/pictures/S_yt-NNl5SiIQHsA_29.png	178.78302907943726	
124	145.0530400276184	picture	0		91.0	122.0	/home/egter/Projects/stimuli/pictures/S_yt-HQQws1Lp_rQ_10.png	178.79456210136414	0.7569711208343506
124	145.79319500923157	response	0	j		122.0	/home/egter/Projects/stimuli/pictures/S_yt-HQQws1Lp_rQ_10.png	179.5347170829773	
125	145.81001114845276	picture	0		97.0	123.0	/home/egter/Projects/stimuli/pictures/n02871525_7061.JPEG	179.5515332221985	0.8126528263092041
125	146.60143995285034	response	0	k		123.0	/home/egter/Projects/stimuli/pictures/n02871525_7061.JPEG	180.34296202659607	
126	146.62266397476196	picture	0		131.0	124.0	/home/egter/Projects/stimuli/pictures/S_yt-GK83AyP3XXc_704.png	180.3641860485077	1.0970430374145508
126	147.70819115638733	response	0	k		124.0	/home/egter/Projects/stimuli/pictures/S_yt-GK83AyP3XXc_704.png	181.44971323013306	
127	147.7197070121765	picture	0		103.0	125.0	/home/egter/Projects/stimuli/pictures/n01775062_10173.JPEG	181.46122908592224	0.8633770942687988
127	148.56704211235046	response	0	k		125.0	/home/egter/Projects/stimuli/pictures/n01775062_10173.JPEG	182.3085641860962	
128	148.5830841064453	picture	0		111.0	126.0	/home/egter/Projects/stimuli/pictures/n01729322_9519.JPEG	182.32460618019104	0.9283859729766846
128	149.49983596801758	response	0	k		126.0	/home/egter/Projects/stimuli/pictures/n01729322_9519.JPEG	183.2413580417633	
129	149.511470079422	picture	0		103.0	127.0	/home/egter/Projects/stimuli/pictures/R_S_yt-IlW1U39Dga4_5.png	183.25299215316772	0.8633120059967041
129	150.35868906974792	response	0	j		127.0	/home/egter/Projects/stimuli/pictures/R_S_yt-IlW1U39Dga4_5.png	184.10021114349365	
130	150.3747820854187	picture	0		193.0	128.0	/home/egter/Projects/stimuli/pictures/n09468604_7800.JPEG	184.11630415916443	1.6088058948516846
130	151.9679889678955	response	0	j		128.0	/home/egter/Projects/stimuli/pictures/n09468604_7800.JPEG	185.70951104164124	
131	151.98358798027039	picture	0		99.0	129.0	/home/egter/Projects/stimuli/pictures/n02966193_6171.JPEG	185.7251100540161	0.8263311386108398
131	152.79302310943604	response	0	k		129.0	/home/egter/Projects/stimuli/pictures/n02966193_6171.JPEG	186.53454518318176	
132	152.80991911888123	picture	0		82.0	130.0	/home/egter/Projects/stimuli/pictures/n04389033_45564.JPEG	186.55144119262695	0.6875710487365723
132	153.4836151599884	response	0	k		130.0	/home/egter/Projects/stimuli/pictures/n04389033_45564.JPEG	187.22513723373413	
133	153.4974901676178	picture	0		100.0	131.0	/home/egter/Projects/stimuli/pictures/n04238763_25524.JPEG	187.23901224136353	0.8403048515319824
133	154.32480001449585	response	0	k		131.0	/home/egter/Projects/stimuli/pictures/n04238763_25524.JPEG	188.06632208824158	
134	154.33779501914978	picture	0		151.0	132.0	/home/egter/Projects/stimuli/pictures/n02114855_2425.JPEG	188.0793170928955	1.256850004196167
134	155.57635116577148	response	0	k		132.0	/home/egter/Projects/stimuli/pictures/n02114855_2425.JPEG	189.3178732395172	
135	155.59464502334595	picture	0		76.0	133.0	/home/egter/Projects/stimuli/pictures/S_ILSVRC2015_train_00469000.png	189.33616709709167	0.6319210529327393
135	156.21648716926575	response	0	j		133.0	/home/egter/Projects/stimuli/pictures/S_ILSVRC2015_train_00469000.png	189.95800924301147	
136	156.2265660762787	picture	0		89.0	134.0	/home/egter/Projects/stimuli/pictures/R_S_pexels-marcus-aurelius-6785014.png	189.9680881500244	0.7481460571289062
136	156.958172082901	response	0	j		134.0	/home/egter/Projects/stimuli/pictures/R_S_pexels-marcus-aurelius-6785014.png	190.69969415664673	
137	156.9747121334076	picture	0		104.0	135.0	/home/egter/Projects/stimuli/pictures/S_G007_C004_UHD_SDR_2K_AVC.png	190.71623420715332	0.8698840141296387
137	157.83317613601685	response	0	k		135.0	/home/egter/Projects/stimuli/pictures/S_G007_C004_UHD_SDR_2K_AVC.png	191.57469820976257	
138	157.84459614753723	picture	0		97.0	136.0	/home/egter/Projects/stimuli/pictures/n01930112_4870.JPEG	191.58611822128296	0.8055670261383057
138	158.64148998260498	response	0	k		136.0	/home/egter/Projects/stimuli/pictures/n01930112_4870.JPEG	192.3830120563507	
139	158.65016317367554	picture	0		115.0	137.0	/home/egter/Projects/stimuli/pictures/R_S_ILSVRC2015_train_00563000.png	192.39168524742126	0.966235876083374
139	159.59309697151184	response	0	j		137.0	/home/egter/Projects/stimuli/pictures/R_S_ILSVRC2015_train_00563000.png	193.33461904525757	
140	159.6163990497589	picture	0		162.0	138.0	/home/egter/Projects/stimuli/pictures/S_yt-A1XT1fT1c8w_24.png	193.35792112350464	1.3532309532165527
140	160.95812916755676	response	0	k		138.0	/home/egter/Projects/stimuli/pictures/S_yt-A1XT1fT1c8w_24.png	194.6996512413025	
141	160.96963000297546	picture	0		92.0	139.0	/home/egter/Projects/stimuli/pictures/n02484975_6984.JPEG	194.7111520767212	0.7638270854949951
141	161.72477197647095	response	0	k		139.0	/home/egter/Projects/stimuli/pictures/n02484975_6984.JPEG	195.46629405021667	
142	161.73345708847046	picture	0		100.0	140.0	/home/egter/Projects/stimuli/pictures/S_yt-5AI_SyK5sg8_112.png	195.4749791622162	0.8412139415740967
142	162.5581500530243	response	0	j		140.0	/home/egter/Projects/stimuli/pictures/S_yt-5AI_SyK5sg8_112.png	196.29967212677002	
143	162.57467103004456	picture	0		90.0	141.0	/home/egter/Projects/stimuli/pictures/n03868242_4721.JPEG	196.31619310379028	0.7560899257659912
143	163.31691598892212	response	0	k		141.0	/home/egter/Projects/stimuli/pictures/n03868242_4721.JPEG	197.05843806266785	
144	163.33076095581055	picture	0		106.0	142.0	/home/egter/Projects/stimuli/pictures/R_S_yt-y2RUPYKfBZs_12.png	197.07228302955627	0.888787031173706
144	164.20814204216003	response	0	j		142.0	/home/egter/Projects/stimuli/pictures/R_S_yt-y2RUPYKfBZs_12.png	197.94966411590576	
145	164.21954798698425	picture	0		156.0	143.0	/home/egter/Projects/stimuli/pictures/S_yt-ORE2V_VvOpg_67.png	197.96107006072998	1.2986061573028564
145	165.50811505317688	response	0	k		143.0	/home/egter/Projects/stimuli/pictures/S_yt-ORE2V_VvOpg_67.png	199.2496371269226	
146	165.5181541442871	picture	0		118.0	144.0	/home/egter/Projects/stimuli/pictures/R_S_flickr-reginahart-31964450591_23.png	199.25967621803284	0.9861040115356445
146	166.49146103858948	response	0	j		144.0	/home/egter/Projects/stimuli/pictures/R_S_flickr-reginahart-31964450591_23.png	200.2329831123352	
147	166.50425815582275	picture	0		87.0	145.0	/home/egter/Projects/stimuli/pictures/n03895866_11329.JPEG	200.24578022956848	0.7432858943939209
147	167.2247769832611	response	0	k		145.0	/home/egter/Projects/stimuli/pictures/n03895866_11329.JPEG	200.96629905700684	
148	167.24754405021667	picture	0		163.0	146.0	/home/egter/Projects/stimuli/pictures/R_S_yt-h09NHEfoKb0_8.png	200.9890661239624	1.360853910446167
148	168.59313106536865	response	0	k		146.0	/home/egter/Projects/stimuli/pictures/R_S_yt-h09NHEfoKb0_8.png	202.33465313911438	
149	168.60839796066284	picture	0		130.0	147.0	/home/egter/Projects/stimuli/pictures/R_S_yt-xCh0LI9VKeI_28.png	202.34992003440857	1.0833330154418945
149	169.6831409931183	response	0	j		147.0	/home/egter/Projects/stimuli/pictures/R_S_yt-xCh0LI9VKeI_28.png	203.424663066864	
150	169.69173097610474	picture	0		142.0	148.0	/home/egter/Projects/stimuli/pictures/R_S_yt-vjed5qyKqZw_1.png	203.43325304985046	1.2495720386505127
150	170.86640906333923	response	0	k		148.0	/home/egter/Projects/stimuli/pictures/R_S_yt-vjed5qyKqZw_1.png	204.60793113708496	
151	170.94130301475525	picture	0		176.0	149.0	/home/egter/Projects/stimuli/pictures/S_wc-3IayTPy_A3nF_17.png	204.68282508850098	1.4750690460205078
151	172.3929581642151	response	0	k		149.0	/home/egter/Projects/stimuli/pictures/S_wc-3IayTPy_A3nF_17.png	206.13448023796082	
152	172.41637206077576	picture	0		146.0	150.0	/home/egter/Projects/stimuli/pictures/S_yt-1XfKrSmjtl4_443.png	206.15789413452148	1.2249619960784912
152	173.62477707862854	response	0	j		150.0	/home/egter/Projects/stimuli/pictures/S_yt-1XfKrSmjtl4_443.png	207.36629915237427	
153	173.64133405685425	picture	0		96.0	151.0	/home/egter/Projects/stimuli/pictures/n03788195_7789.JPEG	207.38285613059998	0.8003349304199219
153	174.4330461025238	response	0	k		151.0	/home/egter/Projects/stimuli/pictures/n03788195_7789.JPEG	208.17456817626953	
154	174.44166898727417	picture	0		114.0	152.0	/home/egter/Projects/stimuli/pictures/S_flickr-hapanine-31880782705_22.png	208.1831910610199	0.9513301849365234
154	175.38309717178345	response	0	j		152.0	/home/egter/Projects/stimuli/pictures/S_flickr-hapanine-31880782705_22.png	209.12461924552917	
155	175.3929991722107	picture	0		118.0	153.0	/home/egter/Projects/stimuli/pictures/n03467068_27029.JPEG	209.13452124595642	0.986191987991333
155	176.36640906333923	response	0	k		153.0	/home/egter/Projects/stimuli/pictures/n03467068_27029.JPEG	210.10793113708496	
156	176.37919116020203	picture	0		112.0	154.0	/home/egter/Projects/stimuli/pictures/n04435653_10826.JPEG	210.12071323394775	0.9371378421783447
156	177.29973602294922	response	0	k		154.0	/home/egter/Projects/stimuli/pictures/n04435653_10826.JPEG	211.04125809669495	
157	177.31632900238037	picture	0		98.0	155.0	/home/egter/Projects/stimuli/pictures/S_yt-xrWo3lnbshw_80.png	211.0578510761261	0.8249800205230713
157	178.12474608421326	response	0	j		155.0	/home/egter/Projects/stimuli/pictures/S_yt-xrWo3lnbshw_80.png	211.86626815795898	
158	178.14130902290344	picture	0		103.0	156.0	/home/egter/Projects/stimuli/pictures/n07714571_16752.JPEG	211.88283109664917	0.8629119396209717
158	178.98506116867065	response	0	k		156.0	/home/egter/Projects/stimuli/pictures/n07714571_16752.JPEG	212.72658324241638	
159	179.0042209625244	picture	0		199.0	157.0	/home/egter/Projects/stimuli/pictures/S_yt-mmvWYAttrIw_2.png	212.74574303627014	1.6620731353759766
159	180.65007710456848	response	0	j		157.0	/home/egter/Projects/stimuli/pictures/S_yt-mmvWYAttrIw_2.png	214.3915991783142	
160	180.6662940979004	picture	0		114.0	158.0	/home/egter/Projects/stimuli/pictures/n04423845_5637.JPEG	214.40781617164612	0.9558799266815186
160	181.60135102272034	response	0	k		158.0	/home/egter/Projects/stimuli/pictures/n04423845_5637.JPEG	215.34287309646606	
161	181.6221740245819	picture	0		90.0	159.0	/home/egter/Projects/stimuli/pictures/n01773549_5947.JPEG	215.36369609832764	0.7569990158081055
161	182.36638116836548	response	0	k		159.0	/home/egter/Projects/stimuli/pictures/n01773549_5947.JPEG	216.1079032421112	
162	182.37917304039001	picture	0		92.0	160.0	/home/egter/Projects/stimuli/pictures/R_S_yt-3ohvpS42xug_184.png	216.12069511413574	0.7637801170349121
162	183.13309502601624	response	0	j		160.0	/home/egter/Projects/stimuli/pictures/R_S_yt-3ohvpS42xug_184.png	216.87461709976196	
163	183.14295315742493	picture	0		111.0	161.0	/home/egter/Projects/stimuli/pictures/R_S_yt-l_ioasf6yHg_44.png	216.88447523117065	0.923651933670044
163	184.05811405181885	response	0	j		161.0	/home/egter/Projects/stimuli/pictures/R_S_yt-l_ioasf6yHg_44.png	217.79963612556458	
164	184.06660509109497	picture	0		88.0	162.0	/home/egter/Projects/stimuli/pictures/n04335435_18507.JPEG	217.8081271648407	0.7361099720001221
164	184.78457403182983	response	0	k		162.0	/home/egter/Projects/stimuli/pictures/n04335435_18507.JPEG	218.52609610557556	
165	184.8027150630951	picture	0		129.0	163.0	/home/egter/Projects/stimuli/pictures/n02129604_5045.JPEG	218.54423713684082	1.4721670150756836
165	185.866366147995	response	0	k		163.0	/home/egter/Projects/stimuli/pictures/n02129604_5045.JPEG	219.60788822174072	
166	186.27488207817078	picture	0		93.0	164.0	/home/egter/Projects/stimuli/pictures/n04525305_19860.JPEG	220.0164041519165	0.7831270694732666
166	187.0414080619812	response	0	k		164.0	/home/egter/Projects/stimuli/pictures/n04525305_19860.JPEG	220.78293013572693	
167	187.05800914764404	picture	0		123.0	165.0	/home/egter/Projects/stimuli/pictures/n02114712_22469.JPEG	220.79953122138977	1.0780119895935059
167	188.07475399971008	response	0	k		165.0	/home/egter/Projects/stimuli/pictures/n02114712_22469.JPEG	221.8162760734558	
168	188.13602113723755	picture	0		108.0	166.0	/home/egter/Projects/stimuli/pictures/n03891251_3162.JPEG	221.87754321098328	0.9028358459472656
168	189.01786518096924	response	0	k		166.0	/home/egter/Projects/stimuli/pictures/n03891251_3162.JPEG	222.75938725471497	
169	189.03885698318481	picture	0		167.0	167.0	/home/egter/Projects/stimuli/pictures/n03868863_3429.JPEG	222.78037905693054	1.395752191543579
169	190.4178819656372	response	0	k		167.0	/home/egter/Projects/stimuli/pictures/n03868863_3429.JPEG	224.15940403938293	
170	190.4346091747284	picture	0		120.0	168.0	/home/egter/Projects/stimuli/pictures/R_S_ILSVRC2015_train_00165008.png	224.17613124847412	0.9999649524688721
170	191.4247109889984	response	0	j		168.0	/home/egter/Projects/stimuli/pictures/R_S_ILSVRC2015_train_00165008.png	225.16623306274414	
171	191.43457412719727	picture	0		99.0	169.0	/home/egter/Projects/stimuli/pictures/R_S_pexels-c-technical-6763571.png	225.176096200943	0.8264329433441162
171	192.2497329711914	response	0	j		169.0	/home/egter/Projects/stimuli/pictures/R_S_pexels-c-technical-6763571.png	225.99125504493713	
172	192.26100707054138	picture	0		141.0	170.0	/home/egter/Projects/stimuli/pictures/R_S_ILSVRC2015_train_00417000.png	226.0025291442871	1.1886019706726074
172	193.42470908164978	response	0	j		170.0	/home/egter/Projects/stimuli/pictures/R_S_ILSVRC2015_train_00417000.png	227.1662311553955	
173	193.449609041214	picture	0		119.0	171.0	/home/egter/Projects/stimuli/pictures/n09468604_17171.JPEG	227.19113111495972	0.9919049739837646
173	194.43304896354675	response	0	k		171.0	/home/egter/Projects/stimuli/pictures/n09468604_17171.JPEG	228.17457103729248	
174	194.44151401519775	picture	0		106.0	172.0	/home/egter/Projects/stimuli/pictures/S_yt-IC62JSYpq9w_71.png	228.18303608894348	0.8889570236206055
174	195.31662917137146	response	0	j		172.0	/home/egter/Projects/stimuli/pictures/S_yt-IC62JSYpq9w_71.png	229.0581512451172	
175	195.33047103881836	picture	0		184.0	173.0	/home/egter/Projects/stimuli/pictures/S_yt-tqxZlasEvZA_43.png	229.0719931125641	1.5416460037231445
175	196.8582739830017	response	0	k		173.0	/home/egter/Projects/stimuli/pictures/S_yt-tqxZlasEvZA_43.png	230.59979605674744	
176	196.8721170425415	picture	0		151.0	174.0	/home/egter/Projects/stimuli/pictures/R_S_yt-hDYtYKUsVE4_120.png	230.61363911628723	1.2692210674285889
176	198.1247260570526	response	0	j		174.0	/home/egter/Projects/stimuli/pictures/R_S_yt-hDYtYKUsVE4_120.png	231.86624813079834	
177	198.1413381099701	picture	0		175.0	175.0	/home/egter/Projects/stimuli/pictures/n02486261_14150.JPEG	231.88286018371582	1.475031852722168
177	199.59135103225708	response	0	k		175.0	/home/egter/Projects/stimuli/pictures/n02486261_14150.JPEG	233.3328731060028	
178	199.61636996269226	picture	0		87.0	176.0	/home/egter/Projects/stimuli/pictures/S_yt-lGQ3wMI5-Yg_140.png	233.357892036438	0.727851152420044
178	200.3329701423645	response	0	j		176.0	/home/egter/Projects/stimuli/pictures/S_yt-lGQ3wMI5-Yg_140.png	234.07449221611023	
179	200.3442211151123	picture	0		224.0	177.0	/home/egter/Projects/stimuli/pictures/S_ILSVRC2015_train_00447000.png	234.08574318885803	1.8680498600006104
179	202.19305515289307	response	0	k		177.0	/home/egter/Projects/stimuli/pictures/S_ILSVRC2015_train_00447000.png	235.9345772266388	
180	202.21227097511292	picture	0		134.0	178.0	/home/egter/Projects/stimuli/pictures/n02128925_35841.JPEG	235.95379304885864	1.1252100467681885
180	203.32467317581177	response	0	k		178.0	/home/egter/Projects/stimuli/pictures/n02128925_35841.JPEG	237.0661952495575	
181	203.3374810218811	picture	0		103.0	179.0	/home/egter/Projects/stimuli/pictures/S_ILSVRC2015_train_00753000.png	237.07900309562683	0.8539891242980957
181	204.18298316001892	response	0	k		179.0	/home/egter/Projects/stimuli/pictures/S_ILSVRC2015_train_00753000.png	237.92450523376465	
182	204.1914701461792	stim	0		1049.0			237.93299221992493	8.742978811264038
182	212.9246470928192	response	0	space				246.66616916656494	
