trial_nr	onset	event_type	phase	response	nr_frames	picture_index	picture_file	onset_abs	duration
0	0.015965938568115234	stim	0		925.0			37.80406594276428	7.717212915420532
0	7.712671995162964	response	0	space				45.50077199935913	
2	7.7331788539886475	picture	0		465.0	0.0	/home/egter/Projects/stimuli/pictures/R_S_G008_C015_UHD_SDR_2K_AVC.png	45.521278858184814	3.8749091625213623
2	11.595762968063354	response	0	j		0.0	/home/egter/Projects/stimuli/pictures/R_S_G008_C015_UHD_SDR_2K_AVC.png	49.38386297225952	
3	11.60808801651001	picture	0		138.0	1.0	/home/egter/Projects/stimuli/pictures/S_yt-WCT9dyz0-gQ_36.png	49.39618802070618	1.1625030040740967
3	12.754056930541992	response	0	j		1.0	/home/egter/Projects/stimuli/pictures/S_yt-WCT9dyz0-gQ_36.png	50.54215693473816	
4	12.770591020584106	picture	0		101.0	2.0	/home/egter/Projects/stimuli/pictures/n01694178_9940.JPEG	50.55869102478027	0.9083597660064697
4	13.604084014892578	response	0	k		2.0	/home/egter/Projects/stimuli/pictures/n01694178_9940.JPEG	51.392184019088745	
5	13.678950786590576	picture	0		108.0	3.0	/home/egter/Projects/stimuli/pictures/ILSVRC2012_test_00041371.JPEG	51.46705079078674	0.9083302021026611
5	14.570710897445679	response	0	k		3.0	/home/egter/Projects/stimuli/pictures/ILSVRC2012_test_00041371.JPEG	52.358810901641846	
6	14.587280988693237	picture	0		113.0	4.0	/home/egter/Projects/stimuli/pictures/R_S_yt-GWOOQZ19-oU_331.png	52.375380992889404	1.0416438579559326
6	15.52075982093811	response	0	j		4.0	/home/egter/Projects/stimuli/pictures/R_S_yt-GWOOQZ19-oU_331.png	53.30885982513428	
7	15.62892484664917	picture	0		95.0	5.0	/home/egter/Projects/stimuli/pictures/n04209133_3393.JPEG	53.41702485084534	0.799976110458374
7	16.412405014038086	response	0	k		5.0	/home/egter/Projects/stimuli/pictures/n04209133_3393.JPEG	54.20050501823425	
8	16.428900957107544	picture	0		104.0	6.0	/home/egter/Projects/stimuli/pictures/n02100236_8680.JPEG	54.21700096130371	0.8750360012054443
8	17.28072690963745	response	0	k		6.0	/home/egter/Projects/stimuli/pictures/n02100236_8680.JPEG	55.06882691383362	
9	17.30393695831299	picture	0		93.0	7.0	/home/egter/Projects/stimuli/pictures/n01667114_12296.JPEG	55.092036962509155	0.776392936706543
9	18.070873975753784	response	0	k		7.0	/home/egter/Projects/stimuli/pictures/n01667114_12296.JPEG	55.85897397994995	
10	18.08032989501953	picture	0		92.0	8.0	/home/egter/Projects/stimuli/pictures/S_production_ID_4153808.png	55.8684298992157	0.777703046798706
10	18.83759379386902	response	0	j		8.0	/home/egter/Projects/stimuli/pictures/S_production_ID_4153808.png	56.625693798065186	
11	18.858032941818237	picture	0		167.0	9.0	/home/egter/Projects/stimuli/pictures/n07717556_11398.JPEG	56.646132946014404	1.3959009647369385
11	20.2373309135437	response	0	k		9.0	/home/egter/Projects/stimuli/pictures/n07717556_11398.JPEG	58.02543091773987	
12	20.253933906555176	picture	0		103.0	10.0	/home/egter/Projects/stimuli/pictures/R_S_yt-PvWkOmfZuSY_4.png	58.04203391075134	0.8666489124298096
12	21.09726595878601	response	0	j		10.0	/home/egter/Projects/stimuli/pictures/R_S_yt-PvWkOmfZuSY_4.png	58.88536596298218	
13	21.120582818984985	picture	0		99.0	11.0	/home/egter/Projects/stimuli/pictures/n02687172_17631.JPEG	58.90868282318115	0.8277261257171631
13	21.9374098777771	response	0	k		11.0	/home/egter/Projects/stimuli/pictures/n02687172_17631.JPEG	59.72550988197327	
14	21.94830894470215	picture	0		145.0	12.0	/home/egter/Projects/stimuli/pictures/n03871628_12731.JPEG	59.736408948898315	1.2083430290222168
14	23.145718812942505	response	0	k		12.0	/home/egter/Projects/stimuli/pictures/n03871628_12731.JPEG	60.93381881713867	
15	23.156651973724365	picture	0		101.0	13.0	/home/egter/Projects/stimuli/pictures/R_S_ILSVRC2015_test_00012005.png	60.94475197792053	0.8402450084686279
15	23.987384796142578	response	0	j		13.0	/home/egter/Projects/stimuli/pictures/R_S_ILSVRC2015_test_00012005.png	61.775484800338745	
16	23.996896982192993	picture	0		102.0	14.0	/home/egter/Projects/stimuli/pictures/S_yt-2IxVZeiSv3g_28.png	61.78499698638916	0.8737058639526367
16	24.854005813598633	response	0	k		14.0	/home/egter/Projects/stimuli/pictures/S_yt-2IxVZeiSv3g_28.png	62.6421058177948	
17	24.87060284614563	picture	0		92.0	15.0	/home/egter/Projects/stimuli/pictures/n03127747_6054.JPEG	62.6587028503418	0.7750351428985596
17	25.629092931747437	response	0	k		15.0	/home/egter/Projects/stimuli/pictures/n03127747_6054.JPEG	63.4171929359436	
18	25.64563798904419	picture	0		222.0	16.0	/home/egter/Projects/stimuli/pictures/n01667778_10136.JPEG	63.433737993240356	1.8512239456176758
18	27.480525970458984	response	0	k		16.0	/home/egter/Projects/stimuli/pictures/n01667778_10136.JPEG	65.26862597465515	
19	27.496861934661865	picture	0		99.0	17.0	/home/egter/Projects/stimuli/pictures/S_yt-sZBe-xmTySc_8.png	65.28496193885803	0.832068920135498
19	28.30562686920166	response	0	k		17.0	/home/egter/Projects/stimuli/pictures/S_yt-sZBe-xmTySc_8.png	66.09372687339783	
20	28.328930854797363	picture	0		89.0	18.0	/home/egter/Projects/stimuli/pictures/S_yt-pO5SVq-9EhU_114.png	66.11703085899353	0.7443029880523682
20	29.062395811080933	response	0	j		18.0	/home/egter/Projects/stimuli/pictures/S_yt-pO5SVq-9EhU_114.png	66.8504958152771	
21	29.07323384284973	picture	0		105.0	19.0	/home/egter/Projects/stimuli/pictures/R_S_yt-Gc1p5CnDbDY_22.png	66.8613338470459	0.880634069442749
21	29.93734097480774	response	0	j		19.0	/home/egter/Projects/stimuli/pictures/R_S_yt-Gc1p5CnDbDY_22.png	67.7254409790039	
22	29.95386791229248	picture	0		119.0	20.0	/home/egter/Projects/stimuli/pictures/n07590611_18149.JPEG	67.74196791648865	0.9943890571594238
22	30.937368869781494	response	0	k		20.0	/home/egter/Projects/stimuli/pictures/n07590611_18149.JPEG	68.72546887397766	
23	30.948256969451904	picture	0		97.0	21.0	/home/egter/Projects/stimuli/pictures/n06785654_6241.JPEG	68.73635697364807	0.805609941482544
23	31.745609998703003	response	0	k		21.0	/home/egter/Projects/stimuli/pictures/n06785654_6241.JPEG	69.53371000289917	
24	31.75386691093445	picture	0		102.0	22.0	/home/egter/Projects/stimuli/pictures/R_S_ILSVRC2015_train_00538000.png	69.54196691513062	0.8583118915557861
24	32.595645904541016	response	0	j		22.0	/home/egter/Projects/stimuli/pictures/R_S_ILSVRC2015_train_00538000.png	70.38374590873718	
25	32.612178802490234	picture	0		128.0	23.0	/home/egter/Projects/stimuli/pictures/n01695060_5493.JPEG	70.4002788066864	1.0750172138214111
25	33.67057490348816	response	0	k		23.0	/home/egter/Projects/stimuli/pictures/n01695060_5493.JPEG	71.45867490768433	
26	33.687196016311646	picture	0		98.0	24.0	/home/egter/Projects/stimuli/pictures/R_S_yt-8vm83GUgYxI_1.png	71.47529602050781	0.825023889541626
26	34.489014863967896	response	0	j		24.0	/home/egter/Projects/stimuli/pictures/R_S_yt-8vm83GUgYxI_1.png	72.27711486816406	
27	34.51221990585327	picture	0		123.0	25.0	/home/egter/Projects/stimuli/pictures/S_yt-siUaw_L-hrw_116.png	72.30031991004944	1.033339023590088
27	35.529074907302856	response	0	k		25.0	/home/egter/Projects/stimuli/pictures/S_yt-siUaw_L-hrw_116.png	73.31717491149902	
28	35.54555892944336	picture	0		90.0	26.0	/home/egter/Projects/stimuli/pictures/ILSVRC2012_val_00009327.JPEG	73.33365893363953	0.7584209442138672
28	36.28058385848999	response	0	k		26.0	/home/egter/Projects/stimuli/pictures/ILSVRC2012_val_00009327.JPEG	74.06868386268616	
29	36.30397987365723	picture	0		184.0	27.0	/home/egter/Projects/stimuli/pictures/S_yt-6MAIu_hWEz0_56.png	74.0920798778534	1.5415070056915283
29	37.828919887542725	response	0	k		27.0	/home/egter/Projects/stimuli/pictures/S_yt-6MAIu_hWEz0_56.png	75.61701989173889	
30	37.845486879348755	picture	0		88.0	28.0	/home/egter/Projects/stimuli/pictures/S_yt-s2tZ2NIQrxg_175.png	75.63358688354492	0.741753101348877
30	38.570716857910156	response	0	j		28.0	/home/egter/Projects/stimuli/pictures/S_yt-s2tZ2NIQrxg_175.png	76.35881686210632	
31	38.58723998069763	picture	0		135.0	29.0	/home/egter/Projects/stimuli/pictures/S_yt-11S5tcT2Tm0_254.png	76.3753399848938	1.1249408721923828
31	39.697152853012085	response	0	j		29.0	/home/egter/Projects/stimuli/pictures/S_yt-11S5tcT2Tm0_254.png	77.48525285720825	
32	39.712180852890015	picture	0		82.0	30.0	/home/egter/Projects/stimuli/pictures/n03670208_7944.JPEG	77.50028085708618	0.6916971206665039
32	40.387420892715454	response	0	k		30.0	/home/egter/Projects/stimuli/pictures/n03670208_7944.JPEG	78.17552089691162	
33	40.40387797355652	picture	0		158.0	31.0	/home/egter/Projects/stimuli/pictures/S_yt-316ecr1BT84_44.png	78.19197797775269	1.3499510288238525
33	41.70548892021179	response	0	j		31.0	/home/egter/Projects/stimuli/pictures/S_yt-316ecr1BT84_44.png	79.49358892440796	
34	41.75382900238037	picture	0		117.0	32.0	/home/egter/Projects/stimuli/pictures/S_yt-H3EadcgKySM_58.png	79.54192900657654	0.9833838939666748
34	42.71387791633606	response	0	j		32.0	/home/egter/Projects/stimuli/pictures/S_yt-H3EadcgKySM_58.png	80.50197792053223	
35	42.737212896347046	picture	0		104.0	33.0	/home/egter/Projects/stimuli/pictures/n02444819_2454.JPEG	80.52531290054321	0.8749361038208008
35	43.595595836639404	response	0	k		33.0	/home/egter/Projects/stimuli/pictures/n02444819_2454.JPEG	81.38369584083557	
36	43.61214900016785	picture	0		107.0	34.0	/home/egter/Projects/stimuli/pictures/n07932039_6815.JPEG	81.40024900436401	0.9000728130340576
36	44.48884701728821	response	0	k		34.0	/home/egter/Projects/stimuli/pictures/n07932039_6815.JPEG	82.27694702148438	
37	44.512221813201904	picture	0		145.0	35.0	/home/egter/Projects/stimuli/pictures/n04118776_8799.JPEG	82.30032181739807	1.2167141437530518
37	45.705485820770264	response	0	k		35.0	/home/egter/Projects/stimuli/pictures/n04118776_8799.JPEG	83.49358582496643	
38	45.728935956954956	picture	0		161.0	36.0	/home/egter/Projects/stimuli/pictures/R_S_ILSVRC2015_train_00185002.png	83.51703596115112	1.3441648483276367
38	47.06230688095093	response	0	j		36.0	/home/egter/Projects/stimuli/pictures/R_S_ILSVRC2015_train_00185002.png	84.8504068851471	
39	47.07310080528259	picture	0		92.0	37.0	/home/egter/Projects/stimuli/pictures/S_1y-EvnfGO9Y_70.png	84.86120080947876	0.7723691463470459
39	47.829102993011475	response	0	j		37.0	/home/egter/Projects/stimuli/pictures/S_1y-EvnfGO9Y_70.png	85.61720299720764	
40	47.84546995162964	picture	0		154.0	38.0	/home/egter/Projects/stimuli/pictures/S_video_inspire_uk_london_hampstead-heath_003.png	85.6335699558258	1.2916300296783447
40	49.1206169128418	response	0	j		38.0	/home/egter/Projects/stimuli/pictures/S_video_inspire_uk_london_hampstead-heath_003.png	86.90871691703796	
41	49.13709998130798	picture	0		107.0	39.0	/home/egter/Projects/stimuli/pictures/S_ILSVRC2015_train_00538000.png	86.92519998550415	0.9000139236450195
41	50.020633935928345	response	0	j		39.0	/home/egter/Projects/stimuli/pictures/S_ILSVRC2015_train_00538000.png	87.80873394012451	
42	50.037113904953	picture	0		101.0	40.0	/home/egter/Projects/stimuli/pictures/R_S_yt-hvuC_2YXsTQ_73.png	87.82521390914917	0.8499979972839355
42	50.87060880661011	response	0	j		40.0	/home/egter/Projects/stimuli/pictures/R_S_yt-hvuC_2YXsTQ_73.png	88.65870881080627	
43	50.88711190223694	picture	0		107.0	41.0	/home/egter/Projects/stimuli/pictures/R_S_ILSVRC2015_train_00495000.png	88.6752119064331	0.9000089168548584
43	51.770612955093384	response	0	j		41.0	/home/egter/Projects/stimuli/pictures/R_S_ILSVRC2015_train_00495000.png	89.55871295928955	
44	51.7871208190918	picture	0		91.0	42.0	/home/egter/Projects/stimuli/pictures/n02114855_37153.JPEG	89.57522082328796	0.7666661739349365
44	52.53723883628845	response	0	k		42.0	/home/egter/Projects/stimuli/pictures/n02114855_37153.JPEG	90.32533884048462	
45	52.55378699302673	picture	0		90.0	43.0	/home/egter/Projects/stimuli/pictures/R_S_yt-BAQ3Xhm_PPE_23.png	90.3418869972229	0.7553038597106934
45	53.28890299797058	response	0	j		43.0	/home/egter/Projects/stimuli/pictures/R_S_yt-BAQ3Xhm_PPE_23.png	91.07700300216675	
46	53.30909085273743	picture	0		102.0	44.0	/home/egter/Projects/stimuli/pictures/S_pexels-koolshooters-7327401.png	91.0971908569336	0.8541820049285889
46	54.15391778945923	response	0	j		44.0	/home/egter/Projects/stimuli/pictures/S_pexels-koolshooters-7327401.png	91.9420177936554	
47	54.163272857666016	picture	0		93.0	45.0	/home/egter/Projects/stimuli/pictures/n02124075_1818.JPEG	91.95137286186218	0.7821590900421143
47	54.92887878417969	response	0	k		45.0	/home/egter/Projects/stimuli/pictures/n02124075_1818.JPEG	92.71697878837585	
48	54.94543194770813	picture	0		105.0	46.0	/home/egter/Projects/stimuli/pictures/n01924916_385.JPEG	92.7335319519043	0.8833599090576172
48	55.81221890449524	response	0	k		46.0	/home/egter/Projects/stimuli/pictures/n01924916_385.JPEG	93.6003189086914	
49	55.82879185676575	picture	0		100.0	47.0	/home/egter/Projects/stimuli/pictures/n13037406_5453.JPEG	93.61689186096191	0.8416581153869629
49	56.653908014297485	response	0	k		47.0	/home/egter/Projects/stimuli/pictures/n13037406_5453.JPEG	94.44200801849365	
50	56.67044997215271	picture	0		87.0	48.0	/home/egter/Projects/stimuli/pictures/R_S_yt-5MyvZYFlc9g_125.png	94.45854997634888	0.7333359718322754
50	57.38722586631775	response	0	j		48.0	/home/egter/Projects/stimuli/pictures/R_S_yt-5MyvZYFlc9g_125.png	95.17532587051392	
51	57.403785943984985	picture	0		237.0	49.0	/home/egter/Projects/stimuli/pictures/S_yt-giRwl4yChlw_9.png	95.19188594818115	1.983314037322998
51	59.370582818984985	response	0	j		49.0	/home/egter/Projects/stimuli/pictures/S_yt-giRwl4yChlw_9.png	97.15868282318115	
52	59.38709998130798	picture	0		108.0	50.0	/home/egter/Projects/stimuli/pictures/n03692522_12120.JPEG	97.17519998550415	0.9083149433135986
52	60.278910875320435	response	0	k		50.0	/home/egter/Projects/stimuli/pictures/n03692522_12120.JPEG	98.0670108795166	
53	60.29541492462158	picture	0		91.0	51.0	/home/egter/Projects/stimuli/pictures/n13133613_30670.JPEG	98.08351492881775	0.7666440010070801
53	61.04557490348816	response	0	k		51.0	/home/egter/Projects/stimuli/pictures/n13133613_30670.JPEG	98.83367490768433	
54	61.06205892562866	picture	0		111.0	52.0	/home/egter/Projects/stimuli/pictures/R_S_yt-VinOD6g7xEc_135.png	98.85015892982483	0.9333539009094238
54	61.97889685630798	response	0	j		52.0	/home/egter/Projects/stimuli/pictures/R_S_yt-VinOD6g7xEc_135.png	99.76699686050415	
55	61.995412826538086	picture	0		98.0	53.0	/home/egter/Projects/stimuli/pictures/R_S_yt-GfPep7IhZIU_47.png	99.78351283073425	0.8250181674957275
55	62.80385398864746	response	0	j		53.0	/home/egter/Projects/stimuli/pictures/R_S_yt-GfPep7IhZIU_47.png	100.59195399284363	
56	62.82043099403381	picture	0		121.0	54.0	/home/egter/Projects/stimuli/pictures/R_S_comp_C003_C003_PS_v01_SDR_PS_20180925_SDR_2K_AVC.png	100.60853099822998	1.0166540145874023
56	63.82059192657471	response	0	j		54.0	/home/egter/Projects/stimuli/pictures/R_S_comp_C003_C003_PS_v01_SDR_PS_20180925_SDR_2K_AVC.png	101.60869193077087	
57	63.837085008621216	picture	0		107.0	55.0	/home/egter/Projects/stimuli/pictures/S_yt-6aqg1P9YqR8_38.png	101.62518501281738	0.8955378532409668
57	64.71381402015686	response	0	j		55.0	/home/egter/Projects/stimuli/pictures/S_yt-6aqg1P9YqR8_38.png	102.50191402435303	
58	64.73262286186218	picture	0		98.0	56.0	/home/egter/Projects/stimuli/pictures/n04347754_70810.JPEG	102.52072286605835	0.8212521076202393
58	65.53727293014526	response	0	k		56.0	/home/egter/Projects/stimuli/pictures/n04347754_70810.JPEG	103.32537293434143	
59	65.55387496948242	picture	0		104.0	57.0	/home/egter/Projects/stimuli/pictures/n01735189_6431.JPEG	103.34197497367859	0.8748798370361328
59	66.41221380233765	response	0	k		57.0	/home/egter/Projects/stimuli/pictures/n01735189_6431.JPEG	104.20031380653381	
60	66.42875480651855	picture	0		188.0	58.0	/home/egter/Projects/stimuli/pictures/n03126707_32441.JPEG	104.21685481071472	1.5749890804290771
60	67.98720383644104	response	0	k		58.0	/home/egter/Projects/stimuli/pictures/n03126707_32441.JPEG	105.7753038406372	
61	68.00374388694763	picture	0		101.0	59.0	/home/egter/Projects/stimuli/pictures/n01669191_11893.JPEG	105.7918438911438	0.858314037322998
61	68.83718991279602	response	0	k		59.0	/home/egter/Projects/stimuli/pictures/n01669191_11893.JPEG	106.62528991699219	
62	68.86205792427063	picture	0		86.0	60.0	/home/egter/Projects/stimuli/pictures/n03089624_71576.JPEG	106.6501579284668	0.7250590324401855
62	69.57052397727966	response	0	k		60.0	/home/egter/Projects/stimuli/pictures/n03089624_71576.JPEG	107.35862398147583	
63	69.58711695671082	picture	0		285.0	61.0	/home/egter/Projects/stimuli/pictures/S_yt-hqp-Y6vAMeo_80.png	107.37521696090698	2.3748960494995117
63	71.95384979248047	response	0	k		61.0	/home/egter/Projects/stimuli/pictures/S_yt-hqp-Y6vAMeo_80.png	109.74194979667664	
64	71.96201300621033	picture	0		103.0	62.0	/home/egter/Projects/stimuli/pictures/n02917067_9001.JPEG	109.7501130104065	0.8750259876251221
64	72.81216382980347	response	0	k		62.0	/home/egter/Projects/stimuli/pictures/n02917067_9001.JPEG	110.60026383399963	
65	72.83703899383545	picture	0		96.0	63.0	/home/egter/Projects/stimuli/pictures/S_yt-wVMhACNFF-M_154.png	110.62513899803162	0.8083698749542236
65	73.62885189056396	response	0	j		63.0	/home/egter/Projects/stimuli/pictures/S_yt-wVMhACNFF-M_154.png	111.41695189476013	
66	73.64540886878967	picture	0		83.0	64.0	/home/egter/Projects/stimuli/pictures/n04037443_45810.JPEG	111.43350887298584	0.6999399662017822
66	74.32883787155151	response	0	k		64.0	/home/egter/Projects/stimuli/pictures/n04037443_45810.JPEG	112.11693787574768	
67	74.34534883499146	picture	0		87.0	65.0	/home/egter/Projects/stimuli/pictures/n03967562_42424.JPEG	112.13344883918762	0.7344021797180176
67	75.062166929245	response	0	k		65.0	/home/egter/Projects/stimuli/pictures/n03967562_42424.JPEG	112.85026693344116	
68	75.07975101470947	picture	0		104.0	66.0	/home/egter/Projects/stimuli/pictures/S_yt-deiWoIfK6vg_44.png	112.86785101890564	0.8906219005584717
68	75.93715286254883	response	0	j		66.0	/home/egter/Projects/stimuli/pictures/S_yt-deiWoIfK6vg_44.png	113.725252866745	
69	75.97037291526794	picture	0		106.0	67.0	/home/egter/Projects/stimuli/pictures/n12985857_4714.JPEG	113.75847291946411	0.9010260105133057
69	76.84561491012573	response	0	k		67.0	/home/egter/Projects/stimuli/pictures/n12985857_4714.JPEG	114.6337149143219	
70	76.87139892578125	picture	0		104.0	68.0	/home/egter/Projects/stimuli/pictures/S_yt-7tLvK2IEwRM_4.png	114.65949892997742	0.8680169582366943
70	77.72879385948181	response	0	k		68.0	/home/egter/Projects/stimuli/pictures/S_yt-7tLvK2IEwRM_4.png	115.51689386367798	
71	77.73941588401794	picture	0		110.0	69.0	/home/egter/Projects/stimuli/pictures/R_S_comp_A351_C001_v06_SDR_PS_20180725_SDR_2K_AVC.png	115.52751588821411	0.9236481189727783
71	78.6454529762268	response	0	j		69.0	/home/egter/Projects/stimuli/pictures/R_S_comp_A351_C001_v06_SDR_PS_20180725_SDR_2K_AVC.png	116.43355298042297	
72	78.66306400299072	picture	0		100.0	70.0	/home/egter/Projects/stimuli/pictures/R_S_yt-ROhKDdF1gV4_21.png	116.45116400718689	0.8333590030670166
72	79.48708987236023	response	0	j		70.0	/home/egter/Projects/stimuli/pictures/R_S_yt-ROhKDdF1gV4_21.png	117.2751898765564	
73	79.49642300605774	picture	0		152.0	71.0	/home/egter/Projects/stimuli/pictures/n09468604_8572.JPEG	117.2845230102539	1.2738988399505615
73	80.75376486778259	response	0	k		71.0	/home/egter/Projects/stimuli/pictures/n09468604_8572.JPEG	118.54186487197876	
74	80.7703218460083	picture	0		106.0	72.0	/home/egter/Projects/stimuli/pictures/n04523525_3143.JPEG	118.55842185020447	0.8916959762573242
74	81.64546179771423	response	0	k		72.0	/home/egter/Projects/stimuli/pictures/n04523525_3143.JPEG	119.4335618019104	
75	81.66201782226562	picture	0		85.0	73.0	/home/egter/Projects/stimuli/pictures/n03854065_10600.JPEG	119.45011782646179	0.7166399955749512
75	82.36213493347168	response	0	k		73.0	/home/egter/Projects/stimuli/pictures/n03854065_10600.JPEG	120.15023493766785	
76	82.37865781784058	picture	0		92.0	74.0	/home/egter/Projects/stimuli/pictures/n09256479_671.JPEG	120.16675782203674	0.7750279903411865
76	83.13027381896973	response	0	k		74.0	/home/egter/Projects/stimuli/pictures/n09256479_671.JPEG	120.9183738231659	
77	83.15368580818176	picture	0		101.0	75.0	/home/egter/Projects/stimuli/pictures/R_S_pexels-rodnae-productions-5993671.png	120.94178581237793	0.8499670028686523
77	83.98714399337769	response	0	j		75.0	/home/egter/Projects/stimuli/pictures/R_S_pexels-rodnae-productions-5993671.png	121.77524399757385	
78	84.00365281105042	picture	0		101.0	76.0	/home/egter/Projects/stimuli/pictures/R_S_yt-QJ2k6vA8aco_12.png	121.79175281524658	0.8500142097473145
78	84.83712100982666	response	0	j		76.0	/home/egter/Projects/stimuli/pictures/R_S_yt-QJ2k6vA8aco_12.png	122.62522101402283	
79	84.85366702079773	picture	0		135.0	77.0	/home/egter/Projects/stimuli/pictures/S_yt-M_ApPnq00iE_67.png	122.6417670249939	1.133349895477295
79	85.97046780586243	response	0	j		77.0	/home/egter/Projects/stimuli/pictures/S_yt-M_ApPnq00iE_67.png	123.7585678100586	
80	85.98701691627502	picture	0		102.0	78.0	/home/egter/Projects/stimuli/pictures/R_S_yt-T7RmOAme5dU_213.png	123.77511692047119	0.8582859039306641
80	86.82880282402039	response	0	j		78.0	/home/egter/Projects/stimuli/pictures/R_S_yt-T7RmOAme5dU_213.png	124.61690282821655	
81	86.84530282020569	picture	0		128.0	79.0	/home/egter/Projects/stimuli/pictures/S_ILSVRC2015_train_00418000.png	124.63340282440186	1.0749800205230713
81	87.89709186553955	response	0	k		79.0	/home/egter/Projects/stimuli/pictures/S_ILSVRC2015_train_00418000.png	125.68519186973572	
82	87.92028284072876	picture	0		102.0	80.0	/home/egter/Projects/stimuli/pictures/S_yt-2ftSsLqRQnA_84.png	125.70838284492493	0.8607320785522461
82	88.76207494735718	response	0	j		80.0	/home/egter/Projects/stimuli/pictures/S_yt-2ftSsLqRQnA_84.png	126.55017495155334	
83	88.781014919281	picture	0		110.0	81.0	/home/egter/Projects/stimuli/pictures/n02125311_38939.JPEG	126.56911492347717	0.9236059188842773
83	89.6871018409729	response	0	j		81.0	/home/egter/Projects/stimuli/pictures/n02125311_38939.JPEG	127.47520184516907	
84	89.70462083816528	picture	0		120.0	82.0	/home/egter/Projects/stimuli/pictures/R_S_yt-bH4nJibL4Jo_164.png	127.49272084236145	1.00736403465271
84	90.69540596008301	response	0	j		82.0	/home/egter/Projects/stimuli/pictures/R_S_yt-bH4nJibL4Jo_164.png	128.48350596427917	
85	90.711984872818	picture	0		105.0	83.0	/home/egter/Projects/stimuli/pictures/n04037443_21912.JPEG	128.50008487701416	0.8833279609680176
85	91.57876300811768	response	0	k		83.0	/home/egter/Projects/stimuli/pictures/n04037443_21912.JPEG	129.36686301231384	
86	91.59531283378601	picture	0		91.0	84.0	/home/egter/Projects/stimuli/pictures/n02174001_5336.JPEG	129.38341283798218	0.7689931392669678
86	92.34541296958923	response	0	k		84.0	/home/egter/Projects/stimuli/pictures/n02174001_5336.JPEG	130.1335129737854	
87	92.36430597305298	picture	0		89.0	85.0	/home/egter/Projects/stimuli/pictures/S_yt-GWOOQZ19-oU_331.png	130.15240597724915	0.7500848770141602
87	93.09541583061218	response	0	j		85.0	/home/egter/Projects/stimuli/pictures/S_yt-GWOOQZ19-oU_331.png	130.88351583480835	
88	93.11439085006714	picture	0		97.0	86.0	/home/egter/Projects/stimuli/pictures/n03529860_2779.JPEG	130.9024908542633	0.8142321109771729
88	93.90524387359619	response	0	k		86.0	/home/egter/Projects/stimuli/pictures/n03529860_2779.JPEG	131.69334387779236	
89	93.92862296104431	picture	0		107.0	87.0	/home/egter/Projects/stimuli/pictures/n03733281_37639.JPEG	131.71672296524048	0.9000020027160645
89	94.81207489967346	response	0	k		87.0	/home/egter/Projects/stimuli/pictures/n03733281_37639.JPEG	132.60017490386963	
90	94.82862496376038	picture	0		127.0	88.0	/home/egter/Projects/stimuli/pictures/R_S_yt-9yxWUrtQJnw_11.png	132.61672496795654	1.0666399002075195
90	95.87877893447876	response	0	j		88.0	/home/egter/Projects/stimuli/pictures/R_S_yt-9yxWUrtQJnw_11.png	133.66687893867493	
91	95.8952648639679	picture	0		119.0	89.0	/home/egter/Projects/stimuli/pictures/n02487347_1261.JPEG	133.68336486816406	1.008329153060913
91	96.87871599197388	response	0	k		89.0	/home/egter/Projects/stimuli/pictures/n02487347_1261.JPEG	134.66681599617004	
92	96.90359401702881	picture	0		87.0	90.0	/home/egter/Projects/stimuli/pictures/R_S_wc-AyT9mzwZsu0T_14.png	134.69169402122498	0.733320951461792
92	97.62040996551514	response	0	k		90.0	/home/egter/Projects/stimuli/pictures/R_S_wc-AyT9mzwZsu0T_14.png	135.4085099697113	
93	97.6369149684906	picture	0		166.0	91.0	/home/egter/Projects/stimuli/pictures/S_yt-vHS71x_O6sY_90.png	135.42501497268677	1.3916740417480469
93	99.01208281517029	response	0	k		91.0	/home/egter/Projects/stimuli/pictures/S_yt-vHS71x_O6sY_90.png	136.80018281936646	
94	99.02858901023865	picture	0		94.0	92.0	/home/egter/Projects/stimuli/pictures/n03482405_6169.JPEG	136.81668901443481	0.7870559692382812
94	99.80372500419617	response	0	k		92.0	/home/egter/Projects/stimuli/pictures/n03482405_6169.JPEG	137.59182500839233	
95	99.81564497947693	picture	0		99.0	93.0	/home/egter/Projects/stimuli/pictures/R_S_1y-EvnfGO9Y_70.png	137.6037449836731	0.8263859748840332
95	100.6287407875061	response	0	j		93.0	/home/egter/Projects/stimuli/pictures/R_S_1y-EvnfGO9Y_70.png	138.41684079170227	
96	100.64203095436096	picture	0		110.0	94.0	/home/egter/Projects/stimuli/pictures/S_yt-EcOYbXulEpI_139.png	138.43013095855713	0.9282698631286621
96	101.55371189117432	response	0	j		94.0	/home/egter/Projects/stimuli/pictures/S_yt-EcOYbXulEpI_139.png	139.34181189537048	
97	101.57030081748962	picture	0		96.0	95.0	/home/egter/Projects/stimuli/pictures/R_S_yt-11S5tcT2Tm0_254.png	139.3584008216858	0.8332719802856445
97	102.36200189590454	response	0	j		95.0	/home/egter/Projects/stimuli/pictures/R_S_yt-11S5tcT2Tm0_254.png	140.1501019001007	
98	102.40357279777527	picture	0		105.0	96.0	/home/egter/Projects/stimuli/pictures/n03481172_7855.JPEG	140.19167280197144	0.9468071460723877
98	103.27038192749023	response	0	k		96.0	/home/egter/Projects/stimuli/pictures/n03481172_7855.JPEG	141.0584819316864	
99	103.35037994384766	picture	0		114.0	97.0	/home/egter/Projects/stimuli/pictures/n02101556_5243.JPEG	141.13847994804382	0.9614949226379395
99	104.29538488388062	response	0	k		97.0	/home/egter/Projects/stimuli/pictures/n02101556_5243.JPEG	142.08348488807678	
100	104.3118748664856	picture	0		108.0	98.0	/home/egter/Projects/stimuli/pictures/ILSVRC2012_test_00062032.JPEG	142.09997487068176	0.9083409309387207
100	105.20366597175598	response	0	k		98.0	/home/egter/Projects/stimuli/pictures/ILSVRC2012_test_00062032.JPEG	142.99176597595215	
101	105.22021579742432	picture	0		102.0	99.0	/home/egter/Projects/stimuli/pictures/n04613696_11624.JPEG	143.00831580162048	0.8583691120147705
101	106.06204199790955	response	0	k		99.0	/home/egter/Projects/stimuli/pictures/n04613696_11624.JPEG	143.8501420021057	
102	106.07858490943909	picture	0		108.0	100.0	/home/egter/Projects/stimuli/pictures/n03794056_15065.JPEG	143.86668491363525	0.908358097076416
102	106.97037887573242	response	0	k		100.0	/home/egter/Projects/stimuli/pictures/n03794056_15065.JPEG	144.7584788799286	
103	106.9869430065155	picture	0		107.0	101.0	/home/egter/Projects/stimuli/pictures/S_yt-Dwgpjoikt84_122.png	144.77504301071167	0.8999698162078857
103	107.87037682533264	response	0	j		101.0	/home/egter/Projects/stimuli/pictures/S_yt-Dwgpjoikt84_122.png	145.6584768295288	
104	107.88691282272339	picture	0		104.0	102.0	/home/egter/Projects/stimuli/pictures/S_yt-GfPep7IhZIU_47.png	145.67501282691956	0.873115062713623
104	108.74540090560913	response	0	j		102.0	/home/egter/Projects/stimuli/pictures/S_yt-GfPep7IhZIU_47.png	146.5335009098053	
105	108.76002788543701	picture	0		154.0	103.0	/home/egter/Projects/stimuli/pictures/n02879718_3621.JPEG	146.54812788963318	1.293503999710083
105	110.03699588775635	response	0	k		103.0	/home/egter/Projects/stimuli/pictures/n02879718_3621.JPEG	147.82509589195251	
106	110.0535318851471	picture	0		102.0	104.0	/home/egter/Projects/stimuli/pictures/n04347754_25240.JPEG	147.84163188934326	0.8583369255065918
106	110.89536786079407	response	0	k		104.0	/home/egter/Projects/stimuli/pictures/n04347754_25240.JPEG	148.68346786499023	
107	110.91186881065369	picture	0		124.0	105.0	/home/egter/Projects/stimuli/pictures/R_S_ga8dBJH_qK8_765.png	148.69996881484985	1.0416991710662842
107	111.93032193183899	response	0	j		105.0	/home/egter/Projects/stimuli/pictures/R_S_ga8dBJH_qK8_765.png	149.71842193603516	
108	111.95356798171997	picture	0		95.0	106.0	/home/egter/Projects/stimuli/pictures/n02066245_10848.JPEG	149.74166798591614	0.7999918460845947
108	112.73037981987	response	0	k		106.0	/home/egter/Projects/stimuli/pictures/n02066245_10848.JPEG	150.51847982406616	
109	112.75355982780457	picture	0		105.0	107.0	/home/egter/Projects/stimuli/pictures/n04238763_7509.JPEG	150.54165983200073	0.883310079574585
109	113.62035894393921	response	0	k		107.0	/home/egter/Projects/stimuli/pictures/n04238763_7509.JPEG	151.40845894813538	
110	113.63686990737915	picture	0		90.0	108.0	/home/egter/Projects/stimuli/pictures/S_pexels-anthony-shkraba-production-8135459.png	151.42496991157532	0.7583189010620117
110	114.3786849975586	response	0	j		108.0	/home/egter/Projects/stimuli/pictures/S_pexels-anthony-shkraba-production-8135459.png	152.16678500175476	
111	114.39518880844116	picture	0		137.0	109.0	/home/egter/Projects/stimuli/pictures/S_yt-uDDv9fXG64w_98.png	152.18328881263733	1.1499731540679932
111	115.52188897132874	response	0	k		109.0	/home/egter/Projects/stimuli/pictures/S_yt-uDDv9fXG64w_98.png	153.3099889755249	
112	115.54516196250916	picture	0		98.0	110.0	/home/egter/Projects/stimuli/pictures/n04008634_10960.JPEG	153.33326196670532	0.8250348567962646
112	116.35365080833435	response	0	k		110.0	/home/egter/Projects/stimuli/pictures/n04008634_10960.JPEG	154.14175081253052	
113	116.37019681930542	picture	0		126.0	111.0	/home/egter/Projects/stimuli/pictures/n03208938_21585.JPEG	154.1582968235016	1.0583171844482422
113	117.41201591491699	response	0	k		111.0	/home/egter/Projects/stimuli/pictures/n03208938_21585.JPEG	155.20011591911316	
114	117.42851400375366	picture	0		131.0	112.0	/home/egter/Projects/stimuli/pictures/R_S_yt-Ol4xuEA8xQc_776.png	155.21661400794983	1.1000189781188965
114	118.51198983192444	response	0	k		112.0	/home/egter/Projects/stimuli/pictures/R_S_yt-Ol4xuEA8xQc_776.png	156.3000898361206	
115	118.52853298187256	picture	0		156.0	113.0	/home/egter/Projects/stimuli/pictures/S_yt-sC9suzTl1Y0_22.png	156.31663298606873	1.3082129955291748
115	119.82027697563171	response	0	k		113.0	/home/egter/Projects/stimuli/pictures/S_yt-sC9suzTl1Y0_22.png	157.60837697982788	
116	119.83674597740173	picture	0		100.0	114.0	/home/egter/Projects/stimuli/pictures/R_S_production_ID_5119260.png	157.6248459815979	0.8418238162994385
116	120.66293787956238	response	0	j		114.0	/home/egter/Projects/stimuli/pictures/R_S_production_ID_5119260.png	158.45103788375854	
117	120.67856979370117	picture	0		132.0	115.0	/home/egter/Projects/stimuli/pictures/S_yt-yhHs1BmQp2Y_54.png	158.46666979789734	1.1083080768585205
117	121.77032279968262	response	0	k		115.0	/home/egter/Projects/stimuli/pictures/S_yt-yhHs1BmQp2Y_54.png	159.55842280387878	
118	121.78687787055969	picture	0		101.0	116.0	/home/egter/Projects/stimuli/pictures/R_S_pexels-nkem-6237382.png	159.57497787475586	0.8665990829467773
118	122.63698697090149	response	0	j		116.0	/home/egter/Projects/stimuli/pictures/R_S_pexels-nkem-6237382.png	160.42508697509766	
119	122.65347695350647	picture	0		110.0	117.0	/home/egter/Projects/stimuli/pictures/S_yt-T1mMDOVjvrE_83.png	160.44157695770264	0.9258730411529541
119	123.56196880340576	response	0	j		117.0	/home/egter/Projects/stimuli/pictures/S_yt-T1mMDOVjvrE_83.png	161.35006880760193	
120	123.57934999465942	picture	0		148.0	118.0	/home/egter/Projects/stimuli/pictures/S_ILSVRC2015_train_00708000.png	161.3674499988556	1.240772008895874
120	124.80365586280823	response	0	j		118.0	/home/egter/Projects/stimuli/pictures/S_ILSVRC2015_train_00708000.png	162.5917558670044	
121	124.8201220035553	picture	0		143.0	119.0	/home/egter/Projects/stimuli/pictures/R_S_yt-xqjVM0Vj4mI_161.png	162.60822200775146	1.2036199569702148
121	126.00364589691162	response	0	j		119.0	/home/egter/Projects/stimuli/pictures/R_S_yt-xqjVM0Vj4mI_161.png	163.7917459011078	
122	126.02374196052551	picture	0		116.0	120.0	/home/egter/Projects/stimuli/pictures/R_S_yt-2IxVZeiSv3g_28.png	163.81184196472168	0.9713778495788574
122	126.97859692573547	response	0	k		120.0	/home/egter/Projects/stimuli/pictures/R_S_yt-2IxVZeiSv3g_28.png	164.76669692993164	
123	126.99511981010437	picture	0		96.0	121.0	/home/egter/Projects/stimuli/pictures/S_flickr-hapanine-31880782705_22.png	164.78321981430054	0.8083770275115967
123	127.7877459526062	response	0	j		121.0	/home/egter/Projects/stimuli/pictures/S_flickr-hapanine-31880782705_22.png	165.57584595680237	
124	127.80349683761597	picture	0		110.0	122.0	/home/egter/Projects/stimuli/pictures/S_ILSVRC2015_train_00654000.png	165.59159684181213	0.9249711036682129
124	128.71189785003662	response	0	j		122.0	/home/egter/Projects/stimuli/pictures/S_ILSVRC2015_train_00654000.png	166.4999978542328	
125	128.72846794128418	picture	0		104.0	123.0	/home/egter/Projects/stimuli/pictures/S_yt-T7RmOAme5dU_213.png	166.51656794548035	0.8749818801879883
125	129.58696579933167	response	0	j		123.0	/home/egter/Projects/stimuli/pictures/S_yt-T7RmOAme5dU_213.png	167.37506580352783	
126	129.60344982147217	picture	0		170.0	124.0	/home/egter/Projects/stimuli/pictures/S_yt-Tt_LkR4iAt4_11.png	167.39154982566833	1.4250221252441406
126	131.01195192337036	response	0	j		124.0	/home/egter/Projects/stimuli/pictures/S_yt-Tt_LkR4iAt4_11.png	168.80005192756653	
127	131.0284719467163	picture	0		115.0	125.0	/home/egter/Projects/stimuli/pictures/S_yt-EBuE7GbFw7U_180.png	168.81657195091248	0.9666180610656738
127	131.97861099243164	response	0	j		125.0	/home/egter/Projects/stimuli/pictures/S_yt-EBuE7GbFw7U_180.png	169.7667109966278	
128	131.99509000778198	picture	0		133.0	126.0	/home/egter/Projects/stimuli/pictures/R_S_yt-RNPFV7lgAvE_362.png	169.78319001197815	1.1167190074920654
128	133.09522986412048	response	0	j		126.0	/home/egter/Projects/stimuli/pictures/R_S_yt-RNPFV7lgAvE_362.png	170.88332986831665	
129	133.11180901527405	picture	0		101.0	127.0	/home/egter/Projects/stimuli/pictures/ILSVRC2012_test_00028723.JPEG	170.89990901947021	0.8499658107757568
129	133.9385209083557	response	0	k		127.0	/home/egter/Projects/stimuli/pictures/ILSVRC2012_test_00028723.JPEG	171.72662091255188	
130	133.9617748260498	picture	0		97.0	128.0	/home/egter/Projects/stimuli/pictures/R_S_video.png	171.74987483024597	0.8118441104888916
130	134.76184797286987	response	0	j		128.0	/home/egter/Projects/stimuli/pictures/R_S_video.png	172.54994797706604	
131	134.7736189365387	picture	0		103.0	129.0	/home/egter/Projects/stimuli/pictures/n02115913_3618.JPEG	172.56171894073486	0.8889238834381104
131	135.62100195884705	response	0	k		129.0	/home/egter/Projects/stimuli/pictures/n02115913_3618.JPEG	173.4091019630432	
132	135.6625428199768	picture	0		116.0	130.0	/home/egter/Projects/stimuli/pictures/R_S_yt-wVMhACNFF-M_154.png	173.45064282417297	0.9742381572723389
132	136.62097692489624	response	0	j		130.0	/home/egter/Projects/stimuli/pictures/R_S_yt-wVMhACNFF-M_154.png	174.4090769290924	
133	136.63678097724915	picture	0		172.0	131.0	/home/egter/Projects/stimuli/pictures/R_S_WO9z7lBUvOs_151.png	174.4248809814453	1.458310842514038
133	138.06188297271729	response	0	j		131.0	/home/egter/Projects/stimuli/pictures/R_S_WO9z7lBUvOs_151.png	175.84998297691345	
134	138.09509181976318	picture	0		103.0	132.0	/home/egter/Projects/stimuli/pictures/R_S_yt-s2tZ2NIQrxg_175.png	175.88319182395935	0.883350133895874
134	138.93874192237854	response	0	j		132.0	/home/egter/Projects/stimuli/pictures/R_S_yt-s2tZ2NIQrxg_175.png	176.7268419265747	
135	138.97844195365906	picture	0		118.0	133.0	/home/egter/Projects/stimuli/pictures/S_yt-8RmEimCI80g_35.png	176.76654195785522	1.2673089504241943
135	139.94688987731934	response	0	j		133.0	/home/egter/Projects/stimuli/pictures/S_yt-8RmEimCI80g_35.png	177.7349898815155	
136	140.24575090408325	picture	0		146.0	134.0	/home/egter/Projects/stimuli/pictures/R_S_yt-eVAlSjH8E8k_127.png	178.03385090827942	1.224308967590332
136	141.4543559551239	response	0	j		134.0	/home/egter/Projects/stimuli/pictures/R_S_yt-eVAlSjH8E8k_127.png	179.24245595932007	
137	141.47005987167358	picture	0		101.0	135.0	/home/egter/Projects/stimuli/pictures/S_yt-xBwq6sHHF5M_21.png	179.25815987586975	0.8500189781188965
137	142.30356192588806	response	0	j		135.0	/home/egter/Projects/stimuli/pictures/S_yt-xBwq6sHHF5M_21.png	180.09166193008423	
138	142.32007884979248	picture	0		99.0	136.0	/home/egter/Projects/stimuli/pictures/n03871628_14843.JPEG	180.10817885398865	0.8284580707550049
138	143.13012886047363	response	0	k		136.0	/home/egter/Projects/stimuli/pictures/n03871628_14843.JPEG	180.9182288646698	
139	143.14853692054749	picture	0		90.0	137.0	/home/egter/Projects/stimuli/pictures/S_pexels-yaroslav-shuraev-8091356.png	180.93663692474365	0.7639369964599609
139	143.8868899345398	response	0	j		137.0	/home/egter/Projects/stimuli/pictures/S_pexels-yaroslav-shuraev-8091356.png	181.67498993873596	
140	143.91247391700745	picture	0		101.0	138.0	/home/egter/Projects/stimuli/pictures/n01685808_6782.JPEG	181.7005739212036	0.8492939472198486
140	144.74587392807007	response	0	k		138.0	/home/egter/Projects/stimuli/pictures/n01685808_6782.JPEG	182.53397393226624	
141	144.7617678642273	picture	0		107.0	139.0	/home/egter/Projects/stimuli/pictures/R_S_yt-lv6mhnH7_g4_134.png	182.54986786842346	0.900001049041748
141	145.64523482322693	response	0	j		139.0	/home/egter/Projects/stimuli/pictures/R_S_yt-lv6mhnH7_g4_134.png	183.4333348274231	
142	145.66176891326904	picture	0		126.0	140.0	/home/egter/Projects/stimuli/pictures/R_S_bing-www_nbcnews_com_storyline_isis-terror_fall-isis-stronghold-raqqa-will-change-war-extremists-not-end-n808621_86.png	183.4498689174652	1.0582818984985352
142	146.70420289039612	response	0	j		140.0	/home/egter/Projects/stimuli/pictures/R_S_bing-www_nbcnews_com_storyline_isis-terror_fall-isis-stronghold-raqqa-will-change-war-extremists-not-end-n808621_86.png	184.49230289459229	
143	146.72005081176758	picture	0		102.0	141.0	/home/egter/Projects/stimuli/pictures/n09332890_2002.JPEG	184.50815081596375	0.8583710193634033
143	147.5550708770752	response	0	k		141.0	/home/egter/Projects/stimuli/pictures/n09332890_2002.JPEG	185.34317088127136	
144	147.57842183113098	picture	0		102.0	142.0	/home/egter/Projects/stimuli/pictures/n07875152_1183.JPEG	185.36652183532715	0.8584120273590088
144	148.42016983032227	response	0	k		142.0	/home/egter/Projects/stimuli/pictures/n07875152_1183.JPEG	186.20826983451843	
145	148.43683385849	picture	0		105.0	143.0	/home/egter/Projects/stimuli/pictures/R_S_cST9H3zu3zQ_126.png	186.22493386268616	0.8783349990844727
145	149.30354189872742	response	0	j		143.0	/home/egter/Projects/stimuli/pictures/R_S_cST9H3zu3zQ_126.png	187.09164190292358	
146	149.31516885757446	picture	0		94.0	144.0	/home/egter/Projects/stimuli/pictures/S_bing-www_nbcnews_com_storyline_isis-terror_fall-isis-stronghold-raqqa-will-change-war-extremists-not-end-n808621_86.png	187.10326886177063	0.7882320880889893
146	150.08685278892517	response	0	k		144.0	/home/egter/Projects/stimuli/pictures/S_bing-www_nbcnews_com_storyline_isis-terror_fall-isis-stronghold-raqqa-will-change-war-extremists-not-end-n808621_86.png	187.87495279312134	
147	150.10340094566345	picture	0		126.0	145.0	/home/egter/Projects/stimuli/pictures/n01692333_6133.JPEG	187.89150094985962	1.059013843536377
147	151.1384379863739	response	0	k		145.0	/home/egter/Projects/stimuli/pictures/n01692333_6133.JPEG	188.92653799057007	
148	151.16241478919983	picture	0		104.0	146.0	/home/egter/Projects/stimuli/pictures/n09468604_18775.JPEG	188.950514793396	0.8750150203704834
148	152.0202009677887	response	0	j		146.0	/home/egter/Projects/stimuli/pictures/n09468604_18775.JPEG	189.80830097198486	
149	152.0374298095703	picture	0		96.0	147.0	/home/egter/Projects/stimuli/pictures/S_yt-2IN85w8ptmM_51.png	189.82552981376648	0.807650089263916
149	152.82918190956116	response	0	k		147.0	/home/egter/Projects/stimuli/pictures/S_yt-2IN85w8ptmM_51.png	190.61728191375732	
150	152.84507989883423	picture	0		93.0	148.0	/home/egter/Projects/stimuli/pictures/n13052670_10406.JPEG	190.6331799030304	0.7833099365234375
150	153.6118779182434	response	0	k		148.0	/home/egter/Projects/stimuli/pictures/n13052670_10406.JPEG	191.39997792243958	
151	153.62838983535767	picture	0		79.0	149.0	/home/egter/Projects/stimuli/pictures/n02105056_4582.JPEG	191.41648983955383	0.6666259765625
151	154.2784869670868	response	0	k		149.0	/home/egter/Projects/stimuli/pictures/n02105056_4582.JPEG	192.06658697128296	
152	154.29501581192017	picture	0		96.0	150.0	/home/egter/Projects/stimuli/pictures/R_S_yt-xBwq6sHHF5M_21.png	192.08311581611633	0.8083701133728027
152	155.08686184883118	response	0	j		150.0	/home/egter/Projects/stimuli/pictures/R_S_yt-xBwq6sHHF5M_21.png	192.87496185302734	
153	155.10338592529297	picture	0		113.0	151.0	/home/egter/Projects/stimuli/pictures/R_S_yt-5rC42egLl5E_387.png	192.89148592948914	0.9500060081481934
153	156.03749680519104	response	0	j		151.0	/home/egter/Projects/stimuli/pictures/R_S_yt-5rC42egLl5E_387.png	193.8255968093872	
154	156.05339193344116	picture	0		108.0	152.0	/home/egter/Projects/stimuli/pictures/R_S_yt-TSSPDwAQLXs_158.png	193.84149193763733	0.9006428718566895
154	156.93841695785522	response	0	j		152.0	/home/egter/Projects/stimuli/pictures/R_S_yt-TSSPDwAQLXs_158.png	194.7265169620514	
155	156.95403480529785	picture	0		100.0	153.0	/home/egter/Projects/stimuli/pictures/S_pexels-rodnae-productions-5993671.png	194.74213480949402	0.8409831523895264
155	157.77846097946167	response	0	j		153.0	/home/egter/Projects/stimuli/pictures/S_pexels-rodnae-productions-5993671.png	195.56656098365784	
156	157.79501795768738	picture	0		104.0	154.0	/home/egter/Projects/stimuli/pictures/S_2RTDFkjD6vI_93.png	195.58311796188354	0.8673238754272461
156	158.65350890159607	response	0	j		154.0	/home/egter/Projects/stimuli/pictures/S_2RTDFkjD6vI_93.png	196.44160890579224	
157	158.66234183311462	picture	0		179.0	155.0	/home/egter/Projects/stimuli/pictures/R_S_yt-e9AZJKNv9ow_359.png	196.4504418373108	1.4994151592254639
157	160.13836097717285	response	0	k		155.0	/home/egter/Projects/stimuli/pictures/R_S_yt-e9AZJKNv9ow_359.png	197.92646098136902	
158	160.1617569923401	picture	0		100.0	156.0	/home/egter/Projects/stimuli/pictures/S_yt-GytLOB9Qjro_76.png	197.94985699653625	0.8416378498077393
158	160.98686289787292	response	0	j		156.0	/home/egter/Projects/stimuli/pictures/S_yt-GytLOB9Qjro_76.png	198.7749629020691	
159	161.00339484214783	picture	0		100.0	157.0	/home/egter/Projects/stimuli/pictures/S_yt-lv6mhnH7_g4_134.png	198.791494846344	0.8416731357574463
159	161.8291289806366	response	0	j		157.0	/home/egter/Projects/stimuli/pictures/S_yt-lv6mhnH7_g4_134.png	199.61722898483276	
160	161.84506797790527	picture	0		105.0	158.0	/home/egter/Projects/stimuli/pictures/S_yt-mWlx1SIXl5M_850.png	199.63316798210144	0.8832638263702393
160	162.7117178440094	response	0	j		158.0	/home/egter/Projects/stimuli/pictures/S_yt-mWlx1SIXl5M_850.png	200.49981784820557	
161	162.7283318042755	picture	0		101.0	159.0	/home/egter/Projects/stimuli/pictures/ILSVRC2012_test_00025144.JPEG	200.51643180847168	0.8506391048431396
161	163.55500984191895	response	0	k		159.0	/home/egter/Projects/stimuli/pictures/ILSVRC2012_test_00025144.JPEG	201.3431098461151	
162	163.57897090911865	picture	0		161.0	160.0	/home/egter/Projects/stimuli/pictures/R_S_ILSVRC2015_train_00689000.png	201.36707091331482	1.349397897720337
162	164.91235995292664	response	0	k		160.0	/home/egter/Projects/stimuli/pictures/R_S_ILSVRC2015_train_00689000.png	202.7004599571228	
163	164.928368806839	picture	0		103.0	161.0	/home/egter/Projects/stimuli/pictures/S_wc-lItGMdwvEd_l_7.png	202.71646881103516	0.9005680084228516
163	165.77847599983215	response	0	j		161.0	/home/egter/Projects/stimuli/pictures/S_wc-lItGMdwvEd_l_7.png	203.56657600402832	
164	165.82893681526184	picture	0		99.0	162.0	/home/egter/Projects/stimuli/pictures/n01687978_7602.JPEG	203.617036819458	0.8827550411224365
164	166.64520382881165	response	0	k		162.0	/home/egter/Projects/stimuli/pictures/n01687978_7602.JPEG	204.4333038330078	
165	166.71169185638428	picture	0		95.0	163.0	/home/egter/Projects/stimuli/pictures/S_yt-McqS-QObQbk_122.png	204.49979186058044	0.7999911308288574
165	167.49570488929749	response	0	j		163.0	/home/egter/Projects/stimuli/pictures/S_yt-McqS-QObQbk_122.png	205.28380489349365	
166	167.51168298721313	picture	0		98.0	164.0	/home/egter/Projects/stimuli/pictures/R_S_yt-2IfvnrF3IV0_241.png	205.2997829914093	0.8249399662017822
166	168.32003784179688	response	0	j		164.0	/home/egter/Projects/stimuli/pictures/R_S_yt-2IfvnrF3IV0_241.png	206.10813784599304	
167	168.33662295341492	picture	0		324.0	165.0	/home/egter/Projects/stimuli/pictures/S_yt-auGMEMsCRJI_470.png	206.12472295761108	2.7083568572998047
167	171.02853083610535	response	0	j		165.0	/home/egter/Projects/stimuli/pictures/S_yt-auGMEMsCRJI_470.png	208.8166308403015	
168	171.04497981071472	picture	0		88.0	166.0	/home/egter/Projects/stimuli/pictures/R_S_yt-PcOWc5EJbVo_39.png	208.8330798149109	0.7416770458221436
168	171.76335787773132	response	0	j		166.0	/home/egter/Projects/stimuli/pictures/R_S_yt-PcOWc5EJbVo_39.png	209.5514578819275	
169	171.78665685653687	picture	0		86.0	167.0	/home/egter/Projects/stimuli/pictures/n04275548_5825.JPEG	209.57475686073303	0.7250270843505859
169	172.49570679664612	response	0	k		167.0	/home/egter/Projects/stimuli/pictures/n04275548_5825.JPEG	210.28380680084229	
170	172.51168394088745	picture	0		102.0	168.0	/home/egter/Projects/stimuli/pictures/R_S_yt-f9iXELY0EJ0_344.png	210.29978394508362	0.8588569164276123
170	173.3466968536377	response	0	j		168.0	/home/egter/Projects/stimuli/pictures/R_S_yt-f9iXELY0EJ0_344.png	211.13479685783386	
171	173.37054085731506	picture	0		106.0	169.0	/home/egter/Projects/stimuli/pictures/n13044778_3419.JPEG	211.15864086151123	0.8911280632019043
171	174.2456488609314	response	0	k		169.0	/home/egter/Projects/stimuli/pictures/n13044778_3419.JPEG	212.03374886512756	
172	174.26166892051697	picture	0		87.0	170.0	/home/egter/Projects/stimuli/pictures/n07693725_5781.JPEG	212.04976892471313	0.7338690757751465
172	174.978444814682	response	0	k		170.0	/home/egter/Projects/stimuli/pictures/n07693725_5781.JPEG	212.76654481887817	
173	174.99553799629211	picture	0		91.0	171.0	/home/egter/Projects/stimuli/pictures/n03662601_1589.JPEG	212.78363800048828	0.7661199569702148
173	175.7383120059967	response	0	k		171.0	/home/egter/Projects/stimuli/pictures/n03662601_1589.JPEG	213.52641201019287	
174	175.76165795326233	picture	0		112.0	172.0	/home/egter/Projects/stimuli/pictures/n02641379_27089.JPEG	213.5497579574585	0.9416220188140869
174	176.6867229938507	response	0	j		172.0	/home/egter/Projects/stimuli/pictures/n02641379_27089.JPEG	214.47482299804688	
175	176.70327997207642	picture	0		100.0	173.0	/home/egter/Projects/stimuli/pictures/n04418357_402.JPEG	214.49137997627258	0.8416929244995117
175	177.52843284606934	response	0	k		173.0	/home/egter/Projects/stimuli/pictures/n04418357_402.JPEG	215.3165328502655	
176	177.54497289657593	picture	0		157.0	174.0	/home/egter/Projects/stimuli/pictures/R_S_yt-Ndwek2tpIOA_169.png	215.3330729007721	1.3166301250457764
176	178.8450767993927	response	0	j		174.0	/home/egter/Projects/stimuli/pictures/R_S_yt-Ndwek2tpIOA_169.png	216.63317680358887	
177	178.8616030216217	picture	0		95.0	175.0	/home/egter/Projects/stimuli/pictures/n01692333_3245.JPEG	216.64970302581787	0.7935419082641602
177	179.64500784873962	response	0	k		175.0	/home/egter/Projects/stimuli/pictures/n01692333_3245.JPEG	217.4331078529358	
178	179.65514492988586	picture	0		129.0	176.0	/home/egter/Projects/stimuli/pictures/n02094258_5674.JPEG	217.44324493408203	1.081510066986084
178	180.72011184692383	response	0	k		176.0	/home/egter/Projects/stimuli/pictures/n02094258_5674.JPEG	218.50821185112	
179	180.73665499687195	picture	0		96.0	177.0	/home/egter/Projects/stimuli/pictures/n02988304_1974.JPEG	218.52475500106812	0.808311939239502
179	181.52844095230103	response	0	k		177.0	/home/egter/Projects/stimuli/pictures/n02988304_1974.JPEG	219.3165409564972	
180	181.54496693611145	picture	0		83.0	178.0	/home/egter/Projects/stimuli/pictures/n06794110_5840.JPEG	219.33306694030762	0.7004990577697754
180	182.22839498519897	response	0	k		178.0	/home/egter/Projects/stimuli/pictures/n06794110_5840.JPEG	220.01649498939514	
181	182.24546599388123	picture	0		108.0	179.0	/home/egter/Projects/stimuli/pictures/n03372029_76011.JPEG	220.0335659980774	0.9077589511871338
181	183.13672280311584	response	0	k		179.0	/home/egter/Projects/stimuli/pictures/n03372029_76011.JPEG	220.924822807312	
182	183.15322494506836	stim	0		1576.0			220.94132494926453	13.141603946685791
182	191.93675780296326	response	0	escape				229.72485780715942	
182	195.13658785820007	response	0	num_enter				232.92468786239624	
182	196.27828288078308	response	0	space				234.06638288497925	
