trial_nr	onset	event_type	phase	response	nr_frames	picture_index	picture_file	onset_abs	duration
0	0.009256124496459961	stim	0		192.0			36.97742509841919	1.6048049926757812
0	1.5976951122283936	response	0	space				38.56586408615112	
2	1.6140611171722412	picture	0		930.0	0.0	/home/egter/Projects/stimuli/pictures/n02389026_2712.JPEG	38.58223009109497	7.753026008605957
2	9.348952054977417	response	0	k		0.0	/home/egter/Projects/stimuli/pictures/n02389026_2712.JPEG	46.31712102890015	
3	9.367087125778198	picture	0		143.0	1.0	/home/egter/Projects/stimuli/pictures/n04355933_2786.JPEG	46.33525609970093	1.1945488452911377
3	10.547763109207153	response	0	k		1.0	/home/egter/Projects/stimuli/pictures/n04355933_2786.JPEG	47.51593208312988	
4	10.561635971069336	picture	0		76.0	2.0	/home/egter/Projects/stimuli/pictures/S_I003_C015_SDR_2K_AVC.png	47.529804944992065	0.6387782096862793
4	11.189062118530273	response	0	j		2.0	/home/egter/Projects/stimuli/pictures/S_I003_C015_SDR_2K_AVC.png	48.157231092453	
5	11.200414180755615	picture	0		82.0	3.0	/home/egter/Projects/stimuli/pictures/R_S_comp_C001_C005_PS_v01_SDR_PS_20180925_SDR_2K_AVC.png	48.168583154678345	0.6806008815765381
5	11.872416973114014	response	0	j		3.0	/home/egter/Projects/stimuli/pictures/R_S_comp_C001_C005_PS_v01_SDR_PS_20180925_SDR_2K_AVC.png	48.84058594703674	
6	11.881015062332153	picture	0		247.0	4.0	/home/egter/Projects/stimuli/pictures/S_yt-NuZy8Rjk4d0_156.png	48.84918403625488	2.0625040531158447
6	13.92433214187622	response	0	j		4.0	/home/egter/Projects/stimuli/pictures/S_yt-NuZy8Rjk4d0_156.png	50.89250111579895	
7	13.943519115447998	picture	0		72.0	5.0	/home/egter/Projects/stimuli/pictures/R_S_yt-N7ztk2fa3Ls_137.png	50.91168808937073	0.6040849685668945
7	14.53233003616333	response	0	j		5.0	/home/egter/Projects/stimuli/pictures/R_S_yt-N7ztk2fa3Ls_137.png	51.50049901008606	
8	14.547604084014893	picture	0		80.0	6.0	/home/egter/Projects/stimuli/pictures/n01751748_9158.JPEG	51.51577305793762	0.6668500900268555
8	15.205762147903442	response	0	j		6.0	/home/egter/Projects/stimuli/pictures/n01751748_9158.JPEG	52.17393112182617	
9	15.214454174041748	picture	0		87.0	7.0	/home/egter/Projects/stimuli/pictures/n07716906_10696.JPEG	52.18262314796448	0.7289988994598389
9	15.924399137496948	response	0	k		7.0	/home/egter/Projects/stimuli/pictures/n07716906_10696.JPEG	52.89256811141968	
10	15.943453073501587	picture	0		244.0	8.0	/home/egter/Projects/stimuli/pictures/n01560419_2492.JPEG	52.911622047424316	2.037177085876465
10	17.957255125045776	response	0	k		8.0	/home/egter/Projects/stimuli/pictures/n01560419_2492.JPEG	54.925424098968506	
11	17.98063015937805	picture	0		77.0	9.0	/home/egter/Projects/stimuli/pictures/S_yt-1V0KJEc4cJ4_203.png	54.94879913330078	0.6433558464050293
11	18.614076137542725	response	0	j		9.0	/home/egter/Projects/stimuli/pictures/S_yt-1V0KJEc4cJ4_203.png	55.582245111465454	
12	18.62398600578308	picture	0		75.0	10.0	/home/egter/Projects/stimuli/pictures/S_yt-146gReE6xKw_379.png	55.59215497970581	0.6249511241912842
12	19.23907709121704	response	0	j		10.0	/home/egter/Projects/stimuli/pictures/S_yt-146gReE6xKw_379.png	56.20724606513977	
13	19.248937129974365	picture	0		101.0	11.0	/home/egter/Projects/stimuli/pictures/R_S_ILSVRC2015_train_00017007.png	56.217106103897095	0.8403079509735107
13	20.080734968185425	response	0	j		11.0	/home/egter/Projects/stimuli/pictures/R_S_ILSVRC2015_train_00017007.png	57.048903942108154	
14	20.089245080947876	picture	0		67.0	12.0	/home/egter/Projects/stimuli/pictures/S_ILSVRC2015_train_00682009.png	57.057414054870605	0.5625178813934326
14	20.639034032821655	response	0	j		12.0	/home/egter/Projects/stimuli/pictures/S_ILSVRC2015_train_00682009.png	57.607203006744385	
15	20.65176296234131	picture	0		70.0	13.0	/home/egter/Projects/stimuli/pictures/R_S_g201_TH_804_A001_8_SDR_20191031_SDR_2K_AVC.png	57.61993193626404	0.5955171585083008
15	21.230824947357178	response	0	j		13.0	/home/egter/Projects/stimuli/pictures/R_S_g201_TH_804_A001_8_SDR_20191031_SDR_2K_AVC.png	58.19899392127991	
16	21.24728012084961	picture	0		122.0	14.0	/home/egter/Projects/stimuli/pictures/n01737021_9464.JPEG	58.21544909477234	1.022510051727295
16	22.255905151367188	response	0	k		14.0	/home/egter/Projects/stimuli/pictures/n01737021_9464.JPEG	59.22407412528992	
17	22.269790172576904	picture	0		94.0	15.0	/home/egter/Projects/stimuli/pictures/n04532670_3692.JPEG	59.237959146499634	0.791658878326416
17	23.047590970993042	response	0	k		15.0	/home/egter/Projects/stimuli/pictures/n04532670_3692.JPEG	60.01575994491577	
18	23.06144905090332	picture	0		80.0	16.0	/home/egter/Projects/stimuli/pictures/n02454379_701.JPEG	60.02961802482605	0.6736459732055664
18	23.72237205505371	response	0	k		16.0	/home/egter/Projects/stimuli/pictures/n02454379_701.JPEG	60.69054102897644	
19	23.735095024108887	picture	0		79.0	17.0	/home/egter/Projects/stimuli/pictures/S_yt-n1snPiGfg0A_45.png	60.703263998031616	0.6597180366516113
19	24.38091516494751	response	0	j		17.0	/home/egter/Projects/stimuli/pictures/S_yt-n1snPiGfg0A_45.png	61.34908413887024	
20	24.394813060760498	picture	0		80.0	18.0	/home/egter/Projects/stimuli/pictures/n01773797_2883.JPEG	61.36298203468323	0.6735870838165283
20	25.05567502975464	response	0	k		18.0	/home/egter/Projects/stimuli/pictures/n01773797_2883.JPEG	62.02384400367737	
21	25.068400144577026	picture	0		337.0	19.0	/home/egter/Projects/stimuli/pictures/n04515003_10785.JPEG	62.036569118499756	2.8123810291290283
21	27.872316122055054	response	0	k		19.0	/home/egter/Projects/stimuli/pictures/n04515003_10785.JPEG	64.84048509597778	
22	27.880781173706055	picture	0		143.0	20.0	/home/egter/Projects/stimuli/pictures/n02667093_5587.JPEG	64.84895014762878	1.1944959163665771
22	29.06403112411499	response	0	k		20.0	/home/egter/Projects/stimuli/pictures/n02667093_5587.JPEG	66.03220009803772	
23	29.075277090072632	picture	0		84.0	21.0	/home/egter/Projects/stimuli/pictures/R_S_comp_A351_C001_v06_SDR_PS_20180725_SDR_2K_AVC.png	66.04344606399536	0.7013869285583496
23	29.76416301727295	response	0	j		21.0	/home/egter/Projects/stimuli/pictures/R_S_comp_A351_C001_v06_SDR_PS_20180725_SDR_2K_AVC.png	66.73233199119568	
24	29.77666401863098	picture	0		96.0	22.0	/home/egter/Projects/stimuli/pictures/R_S_ILSVRC2015_train_00479004.png	66.74483299255371	0.798551082611084
24	30.557083129882812	response	0	j		22.0	/home/egter/Projects/stimuli/pictures/R_S_ILSVRC2015_train_00479004.png	67.52525210380554	
25	30.575215101242065	picture	0		229.0	23.0	/home/egter/Projects/stimuli/pictures/ILSVRC2012_test_00075992.JPEG	67.5433840751648	1.9097669124603271
25	32.47235608100891	response	0	k		23.0	/home/egter/Projects/stimuli/pictures/ILSVRC2012_test_00075992.JPEG	69.44052505493164	
26	32.48498201370239	picture	0		109.0	24.0	/home/egter/Projects/stimuli/pictures/S_yt-33PKaLVxDC4_2703.png	69.45315098762512	0.9039881229400635
26	33.380836963653564	response	0	j		24.0	/home/egter/Projects/stimuli/pictures/S_yt-33PKaLVxDC4_2703.png	70.3490059375763	
27	33.388970136642456	picture	0		80.0	25.0	/home/egter/Projects/stimuli/pictures/R_S_yt-E8EDQCPbBeI_196.png	70.35713911056519	0.6725928783416748
27	34.04749417304993	response	0	j		25.0	/home/egter/Projects/stimuli/pictures/R_S_yt-E8EDQCPbBeI_196.png	71.01566314697266	
28	34.06156301498413	picture	0		99.0	26.0	/home/egter/Projects/stimuli/pictures/n01728572_49.JPEG	71.02973198890686	0.8331949710845947
28	34.88082408905029	response	0	j		26.0	/home/egter/Projects/stimuli/pictures/n01728572_49.JPEG	71.84899306297302	
29	34.894757986068726	picture	0		204.0	27.0	/home/egter/Projects/stimuli/pictures/S_comp_H004_C007_PS_v02_SDR_PS_20180925_SDR_2K_AVC.png	71.86292695999146	1.7082760334014893
29	36.58915996551514	response	0	j		27.0	/home/egter/Projects/stimuli/pictures/S_comp_H004_C007_PS_v02_SDR_PS_20180925_SDR_2K_AVC.png	73.55732893943787	
30	36.603034019470215	picture	0		203.0	28.0	/home/egter/Projects/stimuli/pictures/S_T98offKWxso_127.png	73.57120299339294	1.69429612159729
30	38.28894114494324	response	0	k		28.0	/home/egter/Projects/stimuli/pictures/S_T98offKWxso_127.png	75.25711011886597	
31	38.297330141067505	picture	0		131.0	29.0	/home/egter/Projects/stimuli/pictures/n01980166_1581.JPEG	75.26549911499023	1.0975639820098877
31	39.380789041519165	response	0	k		29.0	/home/egter/Projects/stimuli/pictures/n01980166_1581.JPEG	76.3489580154419	
32	39.39489412307739	picture	0		94.0	30.0	/home/egter/Projects/stimuli/pictures/R_S_yt--OkafQ5VFHs_51.png	76.36306309700012	0.7856109142303467
32	40.16551494598389	response	0	j		30.0	/home/egter/Projects/stimuli/pictures/R_S_yt--OkafQ5VFHs_51.png	77.13368391990662	
33	40.18050503730774	picture	0		91.0	31.0	/home/egter/Projects/stimuli/pictures/n02018795_3621.JPEG	77.14867401123047	0.7627129554748535
33	40.93063497543335	response	0	k		31.0	/home/egter/Projects/stimuli/pictures/n02018795_3621.JPEG	77.89880394935608	
34	40.94321799278259	picture	0		140.0	32.0	/home/egter/Projects/stimuli/pictures/n03633091_8817.JPEG	77.91138696670532	1.166701078414917
34	42.097299098968506	response	0	k		32.0	/home/egter/Projects/stimuli/pictures/n03633091_8817.JPEG	79.06546807289124	
35	42.10991907119751	picture	0		100.0	33.0	/home/egter/Projects/stimuli/pictures/n02256656_14419.JPEG	79.07808804512024	0.8332951068878174
35	42.93063712120056	response	0	k		33.0	/home/egter/Projects/stimuli/pictures/n02256656_14419.JPEG	79.89880609512329	
36	42.94321417808533	picture	0		88.0	34.0	/home/egter/Projects/stimuli/pictures/n03841143_5390.JPEG	79.91138315200806	0.7290759086608887
36	43.66394305229187	response	0	k		34.0	/home/egter/Projects/stimuli/pictures/n03841143_5390.JPEG	80.6321120262146	
37	43.672290086746216	picture	0		101.0	35.0	/home/egter/Projects/stimuli/pictures/n03131574_4612.JPEG	80.64045906066895	0.847541093826294
37	44.50574707984924	response	0	k		35.0	/home/egter/Projects/stimuli/pictures/n03131574_4612.JPEG	81.47391605377197	
38	44.51983118057251	picture	0		75.0	36.0	/home/egter/Projects/stimuli/pictures/S_yt-kQpE9L-fsNE_55.png	81.48800015449524	0.6316788196563721
38	45.13227605819702	response	0	j		36.0	/home/egter/Projects/stimuli/pictures/S_yt-kQpE9L-fsNE_55.png	82.10044503211975	
39	45.15151000022888	picture	0		76.0	37.0	/home/egter/Projects/stimuli/pictures/R_S_yt-icd9UxxxeW0_255.png	82.11967897415161	0.6388399600982666
39	45.78054404258728	response	0	j		37.0	/home/egter/Projects/stimuli/pictures/R_S_yt-icd9UxxxeW0_255.png	82.74871301651001	
40	45.79034996032715	picture	0		96.0	38.0	/home/egter/Projects/stimuli/pictures/R_S_ILSVRC2015_train_00044004.png	82.75851893424988	0.7985382080078125
40	46.58060908317566	response	0	j		38.0	/home/egter/Projects/stimuli/pictures/R_S_ILSVRC2015_train_00044004.png	83.54877805709839	
41	46.58888816833496	picture	0		94.0	39.0	/home/egter/Projects/stimuli/pictures/ILSVRC2012_val_00000725.JPEG	83.55705714225769	0.7848138809204102
41	47.35709500312805	response	0	k		39.0	/home/egter/Projects/stimuli/pictures/ILSVRC2012_val_00000725.JPEG	84.32526397705078	
42	47.37370204925537	picture	0		95.0	40.0	/home/egter/Projects/stimuli/pictures/S_pexels-koolshooters-7327412_1.png	84.3418710231781	0.7916290760040283
42	48.14880013465881	response	0	j		40.0	/home/egter/Projects/stimuli/pictures/S_pexels-koolshooters-7327412_1.png	85.11696910858154	
43	48.1653311252594	picture	0		74.0	41.0	/home/egter/Projects/stimuli/pictures/R_S_yt-qiPhBL4lBr0_44.png	85.13350009918213	0.6180229187011719
43	48.77225708961487	response	0	j		41.0	/home/egter/Projects/stimuli/pictures/R_S_yt-qiPhBL4lBr0_44.png	85.7404260635376	
44	48.78335404396057	picture	0		81.0	42.0	/home/egter/Projects/stimuli/pictures/S_ahJft-G235A_122.png	85.7515230178833	0.6736419200897217
44	49.44729208946228	response	0	j		42.0	/home/egter/Projects/stimuli/pictures/S_ahJft-G235A_122.png	86.41546106338501	
45	49.45699596405029	picture	0		104.0	43.0	/home/egter/Projects/stimuli/pictures/S_yt-d5jBQ-LOW2I_17.png	86.42516493797302	0.8681411743164062
45	50.3139009475708	response	0	j		43.0	/home/egter/Projects/stimuli/pictures/S_yt-d5jBQ-LOW2I_17.png	87.28206992149353	
46	50.3251371383667	picture	0		77.0	44.0	/home/egter/Projects/stimuli/pictures/n03527444_4185.JPEG	87.29330611228943	0.6470010280609131
46	50.94885802268982	response	0	k		44.0	/home/egter/Projects/stimuli/pictures/n03527444_4185.JPEG	87.91702699661255	
47	50.97213816642761	picture	0		72.0	45.0	/home/egter/Projects/stimuli/pictures/S_yt-VQtbKGzI9SE_431.png	87.94030714035034	0.6029009819030762
47	51.55721402168274	response	0	j		45.0	/home/egter/Projects/stimuli/pictures/S_yt-VQtbKGzI9SE_431.png	88.52538299560547	
48	51.57503914833069	picture	0		84.0	46.0	/home/egter/Projects/stimuli/pictures/n03814639_8934.JPEG	88.54320812225342	0.7014148235321045
48	52.26391005516052	response	0	k		46.0	/home/egter/Projects/stimuli/pictures/n03814639_8934.JPEG	89.23207902908325	
49	52.27645397186279	picture	0		67.0	47.0	/home/egter/Projects/stimuli/pictures/S_comp_C001_C005_PS_v01_SDR_PS_20180925_SDR_2K_AVC.png	89.24462294578552	0.5555391311645508
49	52.822230100631714	response	0	j		47.0	/home/egter/Projects/stimuli/pictures/S_comp_C001_C005_PS_v01_SDR_PS_20180925_SDR_2K_AVC.png	89.79039907455444	
50	52.831993103027344	picture	0		89.0	48.0	/home/egter/Projects/stimuli/pictures/S_yt-zQnaVApUPH0_14.png	89.80016207695007	0.7430758476257324
50	53.55716896057129	response	0	j		48.0	/home/egter/Projects/stimuli/pictures/S_yt-zQnaVApUPH0_14.png	90.52533793449402	
51	53.575068950653076	picture	0		71.0	49.0	/home/egter/Projects/stimuli/pictures/R_S_I003_C015_SDR_2K_AVC.png	90.5432379245758	0.5902211666107178
51	54.14877700805664	response	0	j		49.0	/home/egter/Projects/stimuli/pictures/R_S_I003_C015_SDR_2K_AVC.png	91.11694598197937	
52	54.165290117263794	picture	0		116.0	50.0	/home/egter/Projects/stimuli/pictures/S_yt-1VTxnf2hZ0w_675.png	91.13345909118652	0.9735980033874512
52	55.12227416038513	response	0	j		50.0	/home/egter/Projects/stimuli/pictures/S_yt-1VTxnf2hZ0w_675.png	92.09044313430786	
53	55.138888120651245	picture	0		89.0	51.0	/home/egter/Projects/stimuli/pictures/S_uMYzeAJiua0_199.png	92.10705709457397	0.741642951965332
53	55.872251987457275	response	0	k		51.0	/home/egter/Projects/stimuli/pictures/S_uMYzeAJiua0_199.png	92.84042096138	
54	55.88053107261658	picture	0		92.0	52.0	/home/egter/Projects/stimuli/pictures/R_S_BO_A012_C031_SDR_20190726_SDR_2K_AVC.png	92.8487000465393	0.7709999084472656
54	56.63891005516052	response	0	j		52.0	/home/egter/Projects/stimuli/pictures/R_S_BO_A012_C031_SDR_20190726_SDR_2K_AVC.png	93.60707902908325	
55	56.65153098106384	picture	0		132.0	53.0	/home/egter/Projects/stimuli/pictures/S_yt-lYhibsUW208_26.png	93.61969995498657	1.0970561504364014
55	57.73894000053406	response	0	k		53.0	/home/egter/Projects/stimuli/pictures/S_yt-lYhibsUW208_26.png	94.70710897445679	
56	57.748587131500244	picture	0		79.0	54.0	/home/egter/Projects/stimuli/pictures/n03982430_12070.JPEG	94.71675610542297	0.6597239971160889
56	58.39722204208374	response	0	j		54.0	/home/egter/Projects/stimuli/pictures/n03982430_12070.JPEG	95.36539101600647	
57	58.40831112861633	picture	0		140.0	55.0	/home/egter/Projects/stimuli/pictures/R_S_comp_A103_C002_0205DG_v12_SDR_FINAL_20180706_SDR_2K_AVC.png	95.37648010253906	1.1666009426116943
57	59.55714201927185	response	0	j		55.0	/home/egter/Projects/stimuli/pictures/R_S_comp_A103_C002_0205DG_v12_SDR_FINAL_20180706_SDR_2K_AVC.png	96.52531099319458	
58	59.57491207122803	picture	0		92.0	56.0	/home/egter/Projects/stimuli/pictures/S_yt-HRuCkU_kBoE_239.png	96.54308104515076	0.7639009952545166
58	60.33055114746094	response	0	j		56.0	/home/egter/Projects/stimuli/pictures/S_yt-HRuCkU_kBoE_239.png	97.29872012138367	
59	60.338813066482544	picture	0		72.0	57.0	/home/egter/Projects/stimuli/pictures/R_S_yt-yyIimWrvRyI_246.png	97.30698204040527	0.6041889190673828
59	60.9305579662323	response	0	j		57.0	/home/egter/Projects/stimuli/pictures/R_S_yt-yyIimWrvRyI_246.png	97.89872694015503	
60	60.94300198554993	picture	0		75.0	58.0	/home/egter/Projects/stimuli/pictures/S_yt-z68VLDDCFdw_93.png	97.91117095947266	0.6249921321868896
60	61.54878211021423	response	0	j		58.0	/home/egter/Projects/stimuli/pictures/S_yt-z68VLDDCFdw_93.png	98.51695108413696	
61	61.567994117736816	picture	0		77.0	59.0	/home/egter/Projects/stimuli/pictures/S_yt-OEY9O2MglQM_7.png	98.53616309165955	0.6388850212097168
61	62.19723606109619	response	0	j		59.0	/home/egter/Projects/stimuli/pictures/S_yt-OEY9O2MglQM_7.png	99.16540503501892	
62	62.20687913894653	picture	0		102.0	60.0	/home/egter/Projects/stimuli/pictures/S_pexels-rodnae-productions-5617905.png	99.17504811286926	0.8569560050964355
62	63.04724407196045	response	0	j		60.0	/home/egter/Projects/stimuli/pictures/S_pexels-rodnae-productions-5617905.png	100.01541304588318	
63	63.06383514404297	picture	0		215.0	61.0	/home/egter/Projects/stimuli/pictures/R_S_yt-O6FS0xnF0CU_106.png	100.0320041179657	1.795785903930664
63	64.84722304344177	response	0	j		61.0	/home/egter/Projects/stimuli/pictures/R_S_yt-O6FS0xnF0CU_106.png	101.8153920173645	
64	64.85962104797363	picture	0		91.0	62.0	/home/egter/Projects/stimuli/pictures/S_video_inspire_california_catalina_00005.png	101.82779002189636	0.7569060325622559
64	65.60551810264587	response	0	j		62.0	/home/egter/Projects/stimuli/pictures/S_video_inspire_california_catalina_00005.png	102.5736870765686	
65	65.61652708053589	picture	0		82.0	63.0	/home/egter/Projects/stimuli/pictures/n04254680_4023.JPEG	102.58469605445862	0.6805830001831055
65	66.28887915611267	response	0	k		63.0	/home/egter/Projects/stimuli/pictures/n04254680_4023.JPEG	103.2570481300354	
66	66.297110080719	picture	0		94.0	64.0	/home/egter/Projects/stimuli/pictures/n04389033_960.JPEG	103.26527905464172	0.7847380638122559
66	67.0721640586853	response	0	k		64.0	/home/egter/Projects/stimuli/pictures/n04389033_960.JPEG	104.04033303260803	
67	67.08184814453125	picture	0		68.0	65.0	/home/egter/Projects/stimuli/pictures/S_yt-AOP7QYQntPI_28.png	104.05001711845398	0.5694499015808105
67	67.63881397247314	response	0	j		65.0	/home/egter/Projects/stimuli/pictures/S_yt-AOP7QYQntPI_28.png	104.60698294639587	
68	67.65129804611206	picture	0		94.0	66.0	/home/egter/Projects/stimuli/pictures/S_yt-un00Oks5uVc_7.png	104.61946702003479	0.7849140167236328
68	68.42218613624573	response	0	k		66.0	/home/egter/Projects/stimuli/pictures/S_yt-un00Oks5uVc_7.png	105.39035511016846	
69	68.4362120628357	picture	0		94.0	67.0	/home/egter/Projects/stimuli/pictures/ILSVRC2012_test_00095343.JPEG	105.40438103675842	0.7918651103973389
69	69.21380996704102	response	0	k		67.0	/home/egter/Projects/stimuli/pictures/ILSVRC2012_test_00095343.JPEG	106.18197894096375	
70	69.22807717323303	picture	0		75.0	68.0	/home/egter/Projects/stimuli/pictures/n03271574_5632.JPEG	106.19624614715576	0.6316227912902832
70	69.84716415405273	response	0	k		68.0	/home/egter/Projects/stimuli/pictures/n03271574_5632.JPEG	106.81533312797546	
71	69.85969996452332	picture	0		246.0	69.0	/home/egter/Projects/stimuli/pictures/n01728572_2672.JPEG	106.82786893844604	2.055476188659668
71	71.89717698097229	response	0	j		69.0	/home/egter/Projects/stimuli/pictures/n01728572_2672.JPEG	108.86534595489502	
72	71.91517615318298	picture	0		91.0	70.0	/home/egter/Projects/stimuli/pictures/n03770679_21013.JPEG	108.88334512710571	0.7568650245666504
72	72.66380715370178	response	0	k		70.0	/home/egter/Projects/stimuli/pictures/n03770679_21013.JPEG	109.63197612762451	
73	72.67204117774963	picture	0		88.0	71.0	/home/egter/Projects/stimuli/pictures/S_production_ID_4101234.png	109.64021015167236	0.7361187934875488
73	73.39717102050781	response	0	k		71.0	/home/egter/Projects/stimuli/pictures/S_production_ID_4101234.png	110.36533999443054	
74	73.40815997123718	picture	0		113.0	72.0	/home/egter/Projects/stimuli/pictures/ILSVRC2012_val_00021857.JPEG	110.37632894515991	0.944770097732544
74	74.33881497383118	response	0	k		72.0	/home/egter/Projects/stimuli/pictures/ILSVRC2012_val_00021857.JPEG	111.3069839477539	
75	74.35293006896973	picture	0		72.0	73.0	/home/egter/Projects/stimuli/pictures/S_ILSVRC2015_train_00371010.png	111.32109904289246	0.6038069725036621
75	74.94712710380554	response	0	j		73.0	/home/egter/Projects/stimuli/pictures/S_ILSVRC2015_train_00371010.png	111.91529607772827	
76	74.95673704147339	picture	0		93.0	74.0	/home/egter/Projects/stimuli/pictures/n09835506_1681.JPEG	111.92490601539612	0.7778720855712891
76	75.72213912010193	response	0	k		74.0	/home/egter/Projects/stimuli/pictures/n09835506_1681.JPEG	112.69030809402466	
77	75.73460912704468	picture	0		133.0	75.0	/home/egter/Projects/stimuli/pictures/n02493509_13043.JPEG	112.70277810096741	1.1040239334106445
77	76.8304500579834	response	0	k		75.0	/home/egter/Projects/stimuli/pictures/n02493509_13043.JPEG	113.79861903190613	
78	76.83863306045532	picture	0		88.0	76.0	/home/egter/Projects/stimuli/pictures/S_comp_A105_C003_0212CT_FLARE_v10_SDR_PS_FINAL_20180711_SDR_2K_AVC.png	113.80680203437805	0.736159086227417
78	77.55696702003479	response	0	j		76.0	/home/egter/Projects/stimuli/pictures/S_comp_A105_C003_0212CT_FLARE_v10_SDR_PS_FINAL_20180711_SDR_2K_AVC.png	114.52513599395752	
79	77.57479214668274	picture	0		89.0	77.0	/home/egter/Projects/stimuli/pictures/R_S_yt-kuzdrmHa-W0_39.png	114.54296112060547	0.7431128025054932
79	78.30540609359741	response	0	j		77.0	/home/egter/Projects/stimuli/pictures/R_S_yt-kuzdrmHa-W0_39.png	115.27357506752014	
80	78.31790494918823	picture	0		80.0	78.0	/home/egter/Projects/stimuli/pictures/n02090379_3314.JPEG	115.28607392311096	0.6668682098388672
80	78.96524214744568	response	0	k		78.0	/home/egter/Projects/stimuli/pictures/n02090379_3314.JPEG	115.93341112136841	
81	78.9847731590271	picture	0		96.0	79.0	/home/egter/Projects/stimuli/pictures/n01687978_152.JPEG	115.95294213294983	0.7983798980712891
81	79.7654709815979	response	0	k		79.0	/home/egter/Projects/stimuli/pictures/n01687978_152.JPEG	116.73363995552063	
82	79.78315305709839	picture	0		192.0	80.0	/home/egter/Projects/stimuli/pictures/n01797886_19206.JPEG	116.75132203102112	1.5971429347991943
82	81.36527705192566	response	0	k		80.0	/home/egter/Projects/stimuli/pictures/n01797886_19206.JPEG	118.33344602584839	
83	81.38029599189758	picture	0		93.0	81.0	/home/egter/Projects/stimuli/pictures/n02100236_9096.JPEG	118.34846496582031	0.7777910232543945
83	82.1471540927887	response	0	k		81.0	/home/egter/Projects/stimuli/pictures/n02100236_9096.JPEG	119.11532306671143	
84	82.15808701515198	picture	0		77.0	82.0	/home/egter/Projects/stimuli/pictures/S_wc-NVeGRb_y_y_5_36.png	119.1262559890747	0.6389291286468506
84	82.78881406784058	response	0	j		82.0	/home/egter/Projects/stimuli/pictures/S_wc-NVeGRb_y_y_5_36.png	119.7569830417633	
85	82.79701614379883	picture	0		68.0	83.0	/home/egter/Projects/stimuli/pictures/R_S_yt-OEY9O2MglQM_7.png	119.76518511772156	0.5694019794464111
85	83.34858202934265	response	0	j		83.0	/home/egter/Projects/stimuli/pictures/R_S_yt-OEY9O2MglQM_7.png	120.31675100326538	
86	83.36641812324524	picture	0		86.0	84.0	/home/egter/Projects/stimuli/pictures/n07717556_8311.JPEG	120.33458709716797	0.715242862701416
86	84.07213401794434	response	0	k		84.0	/home/egter/Projects/stimuli/pictures/n07717556_8311.JPEG	121.04030299186707	
87	84.08166098594666	picture	0		90.0	85.0	/home/egter/Projects/stimuli/pictures/n02807133_12777.JPEG	121.04982995986938	0.7499940395355225
87	84.82213616371155	response	0	k		85.0	/home/egter/Projects/stimuli/pictures/n02807133_12777.JPEG	121.79030513763428	
88	84.83165502548218	picture	0		87.0	86.0	/home/egter/Projects/stimuli/pictures/n03903868_14924.JPEG	121.79982399940491	0.7292530536651611
88	85.5471351146698	response	0	k		86.0	/home/egter/Projects/stimuli/pictures/n03903868_14924.JPEG	122.51530408859253	
89	85.56090807914734	picture	0		57.0	87.0	/home/egter/Projects/stimuli/pictures/n02791124_7759.JPEG	122.52907705307007	0.47910308837890625
89	86.03043603897095	response	0	k		87.0	/home/egter/Projects/stimuli/pictures/n02791124_7759.JPEG	122.99860501289368	
90	86.04001116752625	picture	0		75.0	88.0	/home/egter/Projects/stimuli/pictures/R_S_yt-n1snPiGfg0A_45.png	123.00818014144897	0.6249690055847168
90	86.65542602539062	response	0	j		88.0	/home/egter/Projects/stimuli/pictures/R_S_yt-n1snPiGfg0A_45.png	123.62359499931335	
91	86.66498017311096	picture	0		73.0	89.0	/home/egter/Projects/stimuli/pictures/n03187595_8971.JPEG	123.63314914703369	0.6110858917236328
91	87.26372694969177	response	0	k		89.0	/home/egter/Projects/stimuli/pictures/n03187595_8971.JPEG	124.2318959236145	
92	87.2760660648346	picture	0		86.0	90.0	/home/egter/Projects/stimuli/pictures/n01798484_11429.JPEG	124.24423503875732	0.7152700424194336
92	87.97372603416443	response	0	k		90.0	/home/egter/Projects/stimuli/pictures/n01798484_11429.JPEG	124.94189500808716	
93	87.99133610725403	picture	0		295.0	91.0	/home/egter/Projects/stimuli/pictures/n03857828_24719.JPEG	124.95950508117676	2.4584498405456543
93	90.4387321472168	response	0	k		91.0	/home/egter/Projects/stimuli/pictures/n03857828_24719.JPEG	127.40690112113953	
94	90.44978594779968	picture	0		169.0	92.0	/home/egter/Projects/stimuli/pictures/n01914609_3143.JPEG	127.41795492172241	1.4095652103424072
94	91.84705996513367	response	0	k		92.0	/home/egter/Projects/stimuli/pictures/n01914609_3143.JPEG	128.8152289390564	
95	91.85935115814209	picture	0		90.0	93.0	/home/egter/Projects/stimuli/pictures/n04146614_1228.JPEG	128.82752013206482	0.7500247955322266
95	92.59702610969543	response	0	k		93.0	/home/egter/Projects/stimuli/pictures/n04146614_1228.JPEG	129.56519508361816	
96	92.60937595367432	picture	0		74.0	94.0	/home/egter/Projects/stimuli/pictures/R_S_ILSVRC2015_train_00155004.png	129.57754492759705	0.6181011199951172
96	93.21390008926392	response	0	j		94.0	/home/egter/Projects/stimuli/pictures/R_S_ILSVRC2015_train_00155004.png	130.18206906318665	
97	93.22747707366943	picture	0		92.0	95.0	/home/egter/Projects/stimuli/pictures/S_b1-3.png	130.19564604759216	0.7707960605621338
97	93.98196506500244	response	0	j		95.0	/home/egter/Projects/stimuli/pictures/S_b1-3.png	130.95013403892517	
98	93.99827313423157	picture	0		110.0	96.0	/home/egter/Projects/stimuli/pictures/n02687172_38456.JPEG	130.9664421081543	0.9166200160980225
98	94.90538001060486	response	0	k		96.0	/home/egter/Projects/stimuli/pictures/n02687172_38456.JPEG	131.8735489845276	
99	94.91489315032959	picture	0		116.0	97.0	/home/egter/Projects/stimuli/pictures/R_S_1y-EvnfGO9Y_70.png	131.88306212425232	0.9653739929199219
99	95.87208199501038	response	0	j		97.0	/home/egter/Projects/stimuli/pictures/R_S_1y-EvnfGO9Y_70.png	132.8402509689331	
100	95.88026714324951	picture	0		79.0	98.0	/home/egter/Projects/stimuli/pictures/R_S_yt-a0axt7n0GuQ_19.png	132.84843611717224	0.6596159934997559
100	96.5304069519043	response	0	j		98.0	/home/egter/Projects/stimuli/pictures/R_S_yt-a0axt7n0GuQ_19.png	133.49857592582703	
101	96.53988313674927	picture	0		82.0	99.0	/home/egter/Projects/stimuli/pictures/S_yt-wLylWnZs3z0_27.png	133.508052110672	0.6875638961791992
101	97.21371006965637	response	0	k		99.0	/home/egter/Projects/stimuli/pictures/S_yt-wLylWnZs3z0_27.png	134.1818790435791	
102	97.22744703292847	picture	0		111.0	100.0	/home/egter/Projects/stimuli/pictures/R_S_nTA7B2uHaCQ_1.png	134.1956160068512	0.9304389953613281
102	98.14702701568604	response	0	j		100.0	/home/egter/Projects/stimuli/pictures/R_S_nTA7B2uHaCQ_1.png	135.11519598960876	
103	98.1578860282898	picture	0		144.0	101.0	/home/egter/Projects/stimuli/pictures/S_yt-SvCjZ59S9wk_211.png	135.12605500221252	1.201401948928833
103	99.34707903862	response	0	k		101.0	/home/egter/Projects/stimuli/pictures/S_yt-SvCjZ59S9wk_211.png	136.31524801254272	
104	99.35928797721863	picture	0		119.0	102.0	/home/egter/Projects/stimuli/pictures/R_S_yt-5doJmCcFL7s_3.png	136.32745695114136	0.9936521053314209
104	100.3387041091919	response	0	k		102.0	/home/egter/Projects/stimuli/pictures/R_S_yt-5doJmCcFL7s_3.png	137.30687308311462	
105	100.35294008255005	picture	0		150.0	103.0	/home/egter/Projects/stimuli/pictures/R_S_pexels-rodnae-productions-7467585.png	137.32110905647278	1.2564289569854736
105	101.59704399108887	response	0	k		103.0	/home/egter/Projects/stimuli/pictures/R_S_pexels-rodnae-productions-7467585.png	138.5652129650116	
106	101.60936903953552	picture	0		177.0	104.0	/home/egter/Projects/stimuli/pictures/S_yt-XYULt48onn4_6.png	138.57753801345825	1.472114086151123
106	103.07206606864929	response	0	j		104.0	/home/egter/Projects/stimuli/pictures/S_yt-XYULt48onn4_6.png	140.04023504257202	
107	103.08148312568665	picture	0		68.0	105.0	/home/egter/Projects/stimuli/pictures/R_S_yt-146gReE6xKw_379.png	140.04965209960938	0.5695099830627441
107	103.63871216773987	response	0	j		105.0	/home/egter/Projects/stimuli/pictures/R_S_yt-146gReE6xKw_379.png	140.6068811416626	
108	103.65099310874939	picture	0		73.0	106.0	/home/egter/Projects/stimuli/pictures/S_pexels-marcus-aurelius-6785014.png	140.61916208267212	0.6042048931121826
108	104.2469711303711	response	0	j		106.0	/home/egter/Projects/stimuli/pictures/S_pexels-marcus-aurelius-6785014.png	141.21514010429382	
109	104.25519800186157	picture	0		90.0	107.0	/home/egter/Projects/stimuli/pictures/n01687978_7602.JPEG	141.2233669757843	0.7499980926513672
109	104.99015402793884	response	0	k		107.0	/home/egter/Projects/stimuli/pictures/n01687978_7602.JPEG	141.95832300186157	
110	105.00519609451294	picture	0		74.0	108.0	/home/egter/Projects/stimuli/pictures/n03777568_14302.JPEG	141.97336506843567	0.6180179119110107
110	105.61366200447083	response	0	k		108.0	/home/egter/Projects/stimuli/pictures/n03777568_14302.JPEG	142.58183097839355	
111	105.62321400642395	picture	0		66.0	109.0	/home/egter/Projects/stimuli/pictures/n03443371_2723.JPEG	142.59138298034668	0.5486299991607666
111	106.16370010375977	response	0	k		109.0	/home/egter/Projects/stimuli/pictures/n03443371_2723.JPEG	143.1318690776825	
112	106.17184400558472	picture	0		89.0	110.0	/home/egter/Projects/stimuli/pictures/S_yt-KC6I552mXwM_6.png	143.14001297950745	0.7429499626159668
112	106.9053270816803	response	0	k		110.0	/home/egter/Projects/stimuli/pictures/S_yt-KC6I552mXwM_6.png	143.87349605560303	
113	106.91479396820068	picture	0		77.0	111.0	/home/egter/Projects/stimuli/pictures/S_yt-CNq5mTA8oXY_176.png	143.8829629421234	0.6458640098571777
113	107.54695916175842	response	0	j		111.0	/home/egter/Projects/stimuli/pictures/S_yt-CNq5mTA8oXY_176.png	144.51512813568115	
114	107.56065797805786	picture	0		75.0	112.0	/home/egter/Projects/stimuli/pictures/S_yt-ZE8Af60eNsI_15.png	144.5288269519806	0.6320090293884277
114	108.17347002029419	response	0	j		112.0	/home/egter/Projects/stimuli/pictures/S_yt-ZE8Af60eNsI_15.png	145.14163899421692	
115	108.19266700744629	picture	0		80.0	113.0	/home/egter/Projects/stimuli/pictures/R_S_comp_H004_C009_PS_v01_SDR_PS_20180925_SDR_2K_AVC.png	145.16083598136902	0.6665151119232178
115	108.8470139503479	response	0	j		113.0	/home/egter/Projects/stimuli/pictures/R_S_comp_H004_C009_PS_v01_SDR_PS_20180925_SDR_2K_AVC.png	145.81518292427063	
116	108.8591821193695	picture	0		89.0	114.0	/home/egter/Projects/stimuli/pictures/n02437312_2627.JPEG	145.82735109329224	0.7431049346923828
116	109.58194017410278	response	0	k		114.0	/home/egter/Projects/stimuli/pictures/n02437312_2627.JPEG	146.5501091480255	
117	109.60228705406189	picture	0		76.0	115.0	/home/egter/Projects/stimuli/pictures/n02484975_6799.JPEG	146.57045602798462	0.6388769149780273
117	110.23034906387329	response	0	j		115.0	/home/egter/Projects/stimuli/pictures/n02484975_6799.JPEG	147.19851803779602	
118	110.24116396903992	picture	0		86.0	116.0	/home/egter/Projects/stimuli/pictures/R_S_yt-JPsTqfqfPIY_319.png	147.20933294296265	0.7152671813964844
118	110.947026014328	response	0	j		116.0	/home/egter/Projects/stimuli/pictures/R_S_yt-JPsTqfqfPIY_319.png	147.91519498825073	
119	110.9564311504364	picture	0		67.0	117.0	/home/egter/Projects/stimuli/pictures/n01687978_657.JPEG	147.92460012435913	0.562546968460083
119	111.50534105300903	response	0	k		117.0	/home/egter/Projects/stimuli/pictures/n01687978_657.JPEG	148.47351002693176	
120	111.51897811889648	picture	0		87.0	118.0	/home/egter/Projects/stimuli/pictures/n02113799_5388.JPEG	148.4871470928192	0.7291128635406494
120	112.23862910270691	response	0	k		118.0	/home/egter/Projects/stimuli/pictures/n02113799_5388.JPEG	149.20679807662964	
121	112.24809098243713	picture	0		61.0	119.0	/home/egter/Projects/stimuli/pictures/n04141327_6475.JPEG	149.21625995635986	0.5070750713348389
121	112.74699902534485	response	0	k		119.0	/home/egter/Projects/stimuli/pictures/n04141327_6475.JPEG	149.71516799926758	
122	112.75516605377197	picture	0		67.0	120.0	/home/egter/Projects/stimuli/pictures/n03670208_7197.JPEG	149.7233350276947	0.5623860359191895
122	113.3052270412445	response	0	k		120.0	/home/egter/Projects/stimuli/pictures/n03670208_7197.JPEG	150.27339601516724	
123	113.31755208969116	picture	0		75.0	121.0	/home/egter/Projects/stimuli/pictures/R_S_yt-IC62JSYpq9w_71.png	150.2857210636139	0.6249508857727051
123	113.93033504486084	response	0	j		121.0	/home/egter/Projects/stimuli/pictures/R_S_yt-IC62JSYpq9w_71.png	150.89850401878357	
124	113.94250297546387	picture	0		85.0	122.0	/home/egter/Projects/stimuli/pictures/S_comp_H004_C009_PS_v01_SDR_PS_20180925_SDR_2K_AVC.png	150.9106719493866	0.708320140838623
124	114.63861107826233	response	0	j		122.0	/home/egter/Projects/stimuli/pictures/S_comp_H004_C009_PS_v01_SDR_PS_20180925_SDR_2K_AVC.png	151.60678005218506	
125	114.65082311630249	picture	0		83.0	123.0	/home/egter/Projects/stimuli/pictures/R_S_yt-TZ107yBhXoA_1.png	151.61899209022522	0.6876568794250488
125	115.33029007911682	response	0	j		123.0	/home/egter/Projects/stimuli/pictures/R_S_yt-TZ107yBhXoA_1.png	152.29845905303955	
126	115.33847999572754	picture	0		123.0	124.0	/home/egter/Projects/stimuli/pictures/S_ILSVRC2015_train_00001012.png	152.30664896965027	1.0276150703430176
126	116.35531401634216	response	0	k		124.0	/home/egter/Projects/stimuli/pictures/S_ILSVRC2015_train_00001012.png	153.3234829902649	
127	116.36609506607056	picture	0		80.0	125.0	/home/egter/Projects/stimuli/pictures/S_ILSVRC2015_train_00444000.png	153.3342640399933	0.666680097579956
127	117.02197694778442	response	0	k		125.0	/home/egter/Projects/stimuli/pictures/S_ILSVRC2015_train_00444000.png	153.99014592170715	
128	117.03277516365051	picture	0		88.0	126.0	/home/egter/Projects/stimuli/pictures/R_S_yt-b29VtKvlnWE_430.png	154.00094413757324	0.7361698150634766
128	117.75533199310303	response	0	j		126.0	/home/egter/Projects/stimuli/pictures/R_S_yt-b29VtKvlnWE_430.png	154.72350096702576	
129	117.76894497871399	picture	0		76.0	127.0	/home/egter/Projects/stimuli/pictures/n03250847_11586.JPEG	154.73711395263672	0.638768196105957
129	118.39015007019043	response	0	k		127.0	/home/egter/Projects/stimuli/pictures/n03250847_11586.JPEG	155.35831904411316	
130	118.40771317481995	picture	0		87.0	128.0	/home/egter/Projects/stimuli/pictures/n07836838_948.JPEG	155.37588214874268	0.7224609851837158
130	119.12197709083557	response	0	k		128.0	/home/egter/Projects/stimuli/pictures/n07836838_948.JPEG	156.0901460647583	
131	119.13017416000366	picture	0		80.0	129.0	/home/egter/Projects/stimuli/pictures/S_yt-QxNuo4ojvz4_420.png	156.0983431339264	0.6666538715362549
131	119.78182816505432	response	0	j		129.0	/home/egter/Projects/stimuli/pictures/S_yt-QxNuo4ojvz4_420.png	156.74999713897705	
132	119.79682803153992	picture	0		73.0	130.0	/home/egter/Projects/stimuli/pictures/n02006656_7554.JPEG	156.76499700546265	0.6108839511871338
132	120.39016103744507	response	0	k		130.0	/home/egter/Projects/stimuli/pictures/n02006656_7554.JPEG	157.3583300113678	
133	120.40771198272705	picture	0		96.0	131.0	/home/egter/Projects/stimuli/pictures/R_S_g201_TH_803_A001_8_SDR_20191031_SDR_2K_AVC.png	157.37588095664978	0.798612117767334
133	121.19018697738647	response	0	j		131.0	/home/egter/Projects/stimuli/pictures/R_S_g201_TH_803_A001_8_SDR_20191031_SDR_2K_AVC.png	158.1583559513092	
134	121.20632410049438	picture	0		74.0	132.0	/home/egter/Projects/stimuli/pictures/S_yt-N7ztk2fa3Ls_137.png	158.17449307441711	0.6180579662322998
134	121.8136579990387	response	0	j		132.0	/home/egter/Projects/stimuli/pictures/S_yt-N7ztk2fa3Ls_137.png	158.78182697296143	
135	121.82438206672668	picture	0		69.0	133.0	/home/egter/Projects/stimuli/pictures/ILSVRC2012_test_00033878.JPEG	158.7925510406494	0.5764040946960449
135	122.38178300857544	response	0	k		133.0	/home/egter/Projects/stimuli/pictures/ILSVRC2012_test_00033878.JPEG	159.34995198249817	
136	122.40078616142273	picture	0		78.0	134.0	/home/egter/Projects/stimuli/pictures/n02002724_1594.JPEG	159.36895513534546	0.6460509300231934
136	123.03861808776855	response	0	k		134.0	/home/egter/Projects/stimuli/pictures/n02002724_1594.JPEG	160.00678706169128	
137	123.04683709144592	picture	0		103.0	135.0	/home/egter/Projects/stimuli/pictures/R_S_yt-aiWUhl8MCto_71.png	160.01500606536865	0.8608229160308838
137	123.89690017700195	response	0	j		135.0	/home/egter/Projects/stimuli/pictures/R_S_yt-aiWUhl8MCto_71.png	160.86506915092468	
138	123.9076600074768	picture	0		88.0	136.0	/home/egter/Projects/stimuli/pictures/S_ILSVRC2015_train_00745000.png	160.87582898139954	0.7361180782318115
138	124.63022017478943	response	0	j		136.0	/home/egter/Projects/stimuli/pictures/S_ILSVRC2015_train_00745000.png	161.59838914871216	
139	124.64377808570862	picture	0		81.0	137.0	/home/egter/Projects/stimuli/pictures/S_yt-pKl8nduxfTI_798.png	161.61194705963135	0.6805720329284668
139	125.31359314918518	response	0	j		137.0	/home/egter/Projects/stimuli/pictures/S_yt-pKl8nduxfTI_798.png	162.2817621231079	
140	125.32435011863708	picture	0		78.0	138.0	/home/egter/Projects/stimuli/pictures/n02097047_726.JPEG	162.29251909255981	0.6528129577636719
140	125.96364712715149	response	0	k		138.0	/home/egter/Projects/stimuli/pictures/n02097047_726.JPEG	162.93181610107422	
141	125.97716307640076	picture	0		76.0	139.0	/home/egter/Projects/stimuli/pictures/S_yt-SkIJvj6KNOo_33.png	162.9453320503235	0.6388158798217773
141	126.60527515411377	response	0	j		139.0	/home/egter/Projects/stimuli/pictures/S_yt-SkIJvj6KNOo_33.png	163.5734441280365	
142	126.61597895622253	picture	0		124.0	140.0	/home/egter/Projects/stimuli/pictures/S_ILSVRC2015_train_00363000.png	163.58414793014526	1.0347771644592285
142	127.63860607147217	response	0	j		140.0	/home/egter/Projects/stimuli/pictures/S_ILSVRC2015_train_00363000.png	164.6067750453949	
143	127.65075612068176	picture	0		119.0	141.0	/home/egter/Projects/stimuli/pictures/n01667114_12296.JPEG	164.6189250946045	0.9930548667907715
143	128.6302809715271	response	0	k		141.0	/home/egter/Projects/stimuli/pictures/n01667114_12296.JPEG	165.59844994544983	
144	128.64381098747253	picture	0		75.0	142.0	/home/egter/Projects/stimuli/pictures/n02091635_7646.JPEG	165.61197996139526	0.63189697265625
144	129.26368618011475	response	0	k		142.0	/home/egter/Projects/stimuli/pictures/n02091635_7646.JPEG	166.23185515403748	
145	129.27570796012878	picture	0		65.0	143.0	/home/egter/Projects/stimuli/pictures/n03089624_41889.JPEG	166.2438769340515	0.541621208190918
145	129.7984139919281	response	0	k		143.0	/home/egter/Projects/stimuli/pictures/n03089624_41889.JPEG	166.76658296585083	
146	129.8173291683197	picture	0		75.0	144.0	/home/egter/Projects/stimuli/pictures/R_S_yt-G65z8p1YNhw_16.png	166.78549814224243	0.6249978542327881
146	130.43020701408386	response	0	j		144.0	/home/egter/Projects/stimuli/pictures/R_S_yt-G65z8p1YNhw_16.png	167.3983759880066	
147	130.4423270225525	picture	0		83.0	145.0	/home/egter/Projects/stimuli/pictures/n01734418_6597.JPEG	167.41049599647522	0.6878070831298828
147	131.12189412117004	response	0	k		145.0	/home/egter/Projects/stimuli/pictures/n01734418_6597.JPEG	168.09006309509277	
148	131.13013410568237	picture	0		102.0	146.0	/home/egter/Projects/stimuli/pictures/S_ILSVRC2015_train_00708000.png	168.0983030796051	0.8538508415222168
148	131.9719340801239	response	0	j		146.0	/home/egter/Projects/stimuli/pictures/S_ILSVRC2015_train_00708000.png	168.94010305404663	
149	131.9839849472046	picture	0		83.0	147.0	/home/egter/Projects/stimuli/pictures/S_ILSVRC2015_train_00373001.png	168.95215392112732	0.687798023223877
149	132.66357898712158	response	0	j		147.0	/home/egter/Projects/stimuli/pictures/S_ILSVRC2015_train_00373001.png	169.6317479610443	
150	132.67178297042847	picture	0		79.0	148.0	/home/egter/Projects/stimuli/pictures/R_S_yt-TSSPDwAQLXs_158.png	169.6399519443512	0.6594500541687012
150	133.321918964386	response	0	j		148.0	/home/egter/Projects/stimuli/pictures/R_S_yt-TSSPDwAQLXs_158.png	170.29008793830872	
151	133.33123302459717	picture	0		73.0	149.0	/home/egter/Projects/stimuli/pictures/S_yt--OkafQ5VFHs_51.png	170.2994019985199	0.6110560894012451
151	133.9302580356598	response	0	j		149.0	/home/egter/Projects/stimuli/pictures/S_yt--OkafQ5VFHs_51.png	170.89842700958252	
152	133.9422891139984	picture	0		85.0	150.0	/home/egter/Projects/stimuli/pictures/S_yt-K0CzoUy_uIA_22.png	170.91045808792114	0.7085108757019043
152	134.63851404190063	response	0	j		150.0	/home/egter/Projects/stimuli/pictures/S_yt-K0CzoUy_uIA_22.png	171.60668301582336	
153	134.65079998970032	picture	0		93.0	151.0	/home/egter/Projects/stimuli/pictures/n02114712_6162.JPEG	171.61896896362305	0.7709741592407227
153	135.41357517242432	response	0	k		151.0	/home/egter/Projects/stimuli/pictures/n02114712_6162.JPEG	172.38174414634705	
154	135.42177414894104	picture	0		75.0	152.0	/home/egter/Projects/stimuli/pictures/n03249569_54697.JPEG	172.38994312286377	0.6250019073486328
154	136.03854703903198	response	0	k		152.0	/home/egter/Projects/stimuli/pictures/n03249569_54697.JPEG	173.0067160129547	
155	136.04677605628967	picture	0		93.0	153.0	/home/egter/Projects/stimuli/pictures/S_yt-s8Egk0W1Uck_39.png	173.0149450302124	0.7774178981781006
155	136.80685305595398	response	0	k		153.0	/home/egter/Projects/stimuli/pictures/S_yt-s8Egk0W1Uck_39.png	173.7750220298767	
156	136.82419395446777	picture	0		193.0	154.0	/home/egter/Projects/stimuli/pictures/S_yt-sC9suzTl1Y0_66.png	173.7923629283905	1.6142652034759521
156	138.42190599441528	response	0	k		154.0	/home/egter/Projects/stimuli/pictures/S_yt-sC9suzTl1Y0_66.png	175.390074968338	
157	138.43845915794373	picture	0		77.0	155.0	/home/egter/Projects/stimuli/pictures/R_S_ILSVRC2015_train_00066005.png	175.40662813186646	0.6426959037780762
157	139.07188606262207	response	0	j		155.0	/home/egter/Projects/stimuli/pictures/R_S_ILSVRC2015_train_00066005.png	176.0400550365448	
158	139.0811550617218	picture	0		87.0	156.0	/home/egter/Projects/stimuli/pictures/S_yt-pB9w3AA-woE_37.png	176.04932403564453	0.7294490337371826
158	139.79009413719177	response	0	j		156.0	/home/egter/Projects/stimuli/pictures/S_yt-pB9w3AA-woE_37.png	176.7582631111145	
159	139.81060409545898	picture	0		100.0	157.0	/home/egter/Projects/stimuli/pictures/n01496331_35603.JPEG	176.7787730693817	0.8399989604949951
159	140.6385359764099	response	0	k		157.0	/home/egter/Projects/stimuli/pictures/n01496331_35603.JPEG	177.60670495033264	
160	140.65060305595398	picture	0		67.0	158.0	/home/egter/Projects/stimuli/pictures/S_yt-fIEGqReekCM_10.png	177.6187720298767	0.5555450916290283
160	141.19008111953735	response	0	j		158.0	/home/egter/Projects/stimuli/pictures/S_yt-fIEGqReekCM_10.png	178.15825009346008	
161	141.206148147583	picture	0		109.0	159.0	/home/egter/Projects/stimuli/pictures/n04486054_9847.JPEG	178.17431712150574	0.9096968173980713
161	142.10521602630615	response	0	k		159.0	/home/egter/Projects/stimuli/pictures/n04486054_9847.JPEG	179.07338500022888	
162	142.11584496498108	picture	0		109.0	160.0	/home/egter/Projects/stimuli/pictures/R_S_ILSVRC2015_train_00471000.png	179.0840139389038	0.9096829891204834
162	143.0067000389099	response	0	j		160.0	/home/egter/Projects/stimuli/pictures/R_S_ILSVRC2015_train_00471000.png	179.97486901283264	
163	143.02552795410156	picture	0		86.0	161.0	/home/egter/Projects/stimuli/pictures/S_yt-e5ua5Pj86E4_140.png	179.9936969280243	0.7153069972991943
163	143.7301890850067	response	0	k		161.0	/home/egter/Projects/stimuli/pictures/S_yt-e5ua5Pj86E4_140.png	180.69835805892944	
164	143.74083495140076	picture	0		86.0	162.0	/home/egter/Projects/stimuli/pictures/S_yt-074ygGXNoQ8_64.png	180.7090039253235	0.7152740955352783
164	144.44687414169312	response	0	j		162.0	/home/egter/Projects/stimuli/pictures/S_yt-074ygGXNoQ8_64.png	181.41504311561584	
165	144.45610904693604	picture	0		109.0	163.0	/home/egter/Projects/stimuli/pictures/n01440764_13368.JPEG	181.42427802085876	0.9097330570220947
165	145.3552269935608	response	0	k		163.0	/home/egter/Projects/stimuli/pictures/n01440764_13368.JPEG	182.32339596748352	
166	145.36584210395813	picture	0		77.0	164.0	/home/egter/Projects/stimuli/pictures/n07720875_15668.JPEG	182.33401107788086	0.6392319202423096
166	145.99005794525146	response	0	k		164.0	/home/egter/Projects/stimuli/pictures/n07720875_15668.JPEG	182.9582269191742	
167	146.00507402420044	picture	0		71.0	165.0	/home/egter/Projects/stimuli/pictures/R_S_yt-d5jBQ-LOW2I_17.png	182.97324299812317	0.5968949794769287
167	146.58168816566467	response	0	j		165.0	/home/egter/Projects/stimuli/pictures/R_S_yt-d5jBQ-LOW2I_17.png	183.5498571395874	
168	146.60196900367737	picture	0		88.0	166.0	/home/egter/Projects/stimuli/pictures/R_S_ILSVRC2015_train_00743002.png	183.5701379776001	0.7363901138305664
168	147.3301911354065	response	0	j		166.0	/home/egter/Projects/stimuli/pictures/R_S_ILSVRC2015_train_00743002.png	184.29836010932922	
169	147.33835911750793	picture	0		108.0	167.0	/home/egter/Projects/stimuli/pictures/S_ILSVRC2015_train_00155004.png	184.30652809143066	0.9024219512939453
169	148.23016905784607	response	0	j		167.0	/home/egter/Projects/stimuli/pictures/S_ILSVRC2015_train_00155004.png	185.1983380317688	
170	148.24078106880188	picture	0		62.0	168.0	/home/egter/Projects/stimuli/pictures/n04350905_11239.JPEG	185.2089500427246	0.5142569541931152
170	148.74684405326843	response	0	k		168.0	/home/egter/Projects/stimuli/pictures/n04350905_11239.JPEG	185.71501302719116	
171	148.755038022995	picture	0		74.0	169.0	/home/egter/Projects/stimuli/pictures/R_S_ahJft-G235A_122.png	185.72320699691772	0.617656946182251
171	149.36349511146545	response	0	j		169.0	/home/egter/Projects/stimuli/pictures/R_S_ahJft-G235A_122.png	186.33166408538818	
172	149.37269496917725	picture	0		98.0	170.0	/home/egter/Projects/stimuli/pictures/n02988304_12818.JPEG	186.34086394309998	0.819533109664917
172	150.1801459789276	response	0	k		170.0	/home/egter/Projects/stimuli/pictures/n02988304_12818.JPEG	187.14831495285034	
173	150.19222807884216	picture	0		71.0	171.0	/home/egter/Projects/stimuli/pictures/R_S_yt-pB9w3AA-woE_37.png	187.1603970527649	0.5902299880981445
173	150.77190899848938	response	0	j		171.0	/home/egter/Projects/stimuli/pictures/R_S_yt-pB9w3AA-woE_37.png	187.7400779724121	
174	150.7824580669403	picture	0		76.0	172.0	/home/egter/Projects/stimuli/pictures/n01883070_6403.JPEG	187.75062704086304	0.6319200992584229
174	151.39844799041748	response	0	j		172.0	/home/egter/Projects/stimuli/pictures/n01883070_6403.JPEG	188.3666169643402	
175	151.41437816619873	picture	0		74.0	173.0	/home/egter/Projects/stimuli/pictures/S_nTA7B2uHaCQ_1.png	188.38254714012146	0.6180408000946045
175	152.0219030380249	response	0	j		173.0	/home/egter/Projects/stimuli/pictures/S_nTA7B2uHaCQ_1.png	188.99007201194763	
176	152.03241896629333	picture	0		71.0	174.0	/home/egter/Projects/stimuli/pictures/R_S_ILSVRC2015_train_00371010.png	189.00058794021606	0.5902671813964844
176	152.60682702064514	response	0	j		174.0	/home/egter/Projects/stimuli/pictures/R_S_ILSVRC2015_train_00371010.png	189.57499599456787	
177	152.62268614768982	picture	0		192.0	175.0	/home/egter/Projects/stimuli/pictures/n03871628_12731.JPEG	189.59085512161255	1.604193925857544
177	154.206778049469	response	0	k		175.0	/home/egter/Projects/stimuli/pictures/n03871628_12731.JPEG	191.17494702339172	
178	154.22688007354736	picture	0		84.0	176.0	/home/egter/Projects/stimuli/pictures/R_S_pexels-mart-production-7698911_1.png	191.1950490474701	0.7083480358123779
178	154.9218339920044	response	0	k		176.0	/home/egter/Projects/stimuli/pictures/R_S_pexels-mart-production-7698911_1.png	191.89000296592712	
179	154.93522810935974	picture	0		104.0	177.0	/home/egter/Projects/stimuli/pictures/n03743016_5447.JPEG	191.90339708328247	0.8750288486480713
179	155.79016709327698	response	0	k		177.0	/home/egter/Projects/stimuli/pictures/n03743016_5447.JPEG	192.7583360671997	
180	155.8102569580078	picture	0		195.0	178.0	/home/egter/Projects/stimuli/pictures/n04483307_11897.JPEG	192.77842593193054	1.6318631172180176
180	157.43018102645874	response	0	k		178.0	/home/egter/Projects/stimuli/pictures/n04483307_11897.JPEG	194.39835000038147	
181	157.44212007522583	picture	0		516.0	179.0	/home/egter/Projects/stimuli/pictures/n02417914_11649.JPEG	194.41028904914856	4.298568964004517
181	161.73012399673462	response	0	k		179.0	/home/egter/Projects/stimuli/pictures/n02417914_11649.JPEG	198.69829297065735	
182	161.74068903923035	stim	0		379.0			198.70885801315308	3.1597180366516113
182	164.88842916488647	response	0	space				201.8565981388092	
