trial_nr	onset	event_type	phase	response	nr_frames	picture_index	picture_file	onset_abs	duration
0	0.011399030685424805	stim	0		719.0			29.882451057434082	5.996747970581055
0	5.991797924041748	response	0	space				35.862849950790405	
2	6.0081470012664795	picture	0		202.0	0.0	/home/egter/Projects/stimuli/pictures/n02389026_2712.JPEG	35.87919902801514	1.7020330429077148
2	7.6999170780181885	response	0	k		0.0	/home/egter/Projects/stimuli/pictures/n02389026_2712.JPEG	37.570969104766846	
3	7.710180044174194	picture	0		107.0	1.0	/home/egter/Projects/stimuli/pictures/n04355933_2786.JPEG	37.58123207092285	0.8979148864746094
3	8.592290878295898	response	0	k		1.0	/home/egter/Projects/stimuli/pictures/n04355933_2786.JPEG	38.463342905044556	
4	8.608094930648804	picture	0		256.0	2.0	/home/egter/Projects/stimuli/pictures/S_I003_C015_SDR_2K_AVC.png	38.47914695739746	2.1367459297180176
4	10.726436853408813	response	0	k		2.0	/home/egter/Projects/stimuli/pictures/S_I003_C015_SDR_2K_AVC.png	40.59748888015747	
5	10.744840860366821	picture	0		114.0	3.0	/home/egter/Projects/stimuli/pictures/R_S_comp_C001_C005_PS_v01_SDR_PS_20180925_SDR_2K_AVC.png	40.61589288711548	0.951383113861084
5	11.683212041854858	response	0	k		3.0	/home/egter/Projects/stimuli/pictures/R_S_comp_C001_C005_PS_v01_SDR_PS_20180925_SDR_2K_AVC.png	41.554264068603516	
6	11.696223974227905	picture	0		100.0	4.0	/home/egter/Projects/stimuli/pictures/S_yt-NuZy8Rjk4d0_156.png	41.56727600097656	0.8333399295806885
6	12.510365009307861	response	0	j		4.0	/home/egter/Projects/stimuli/pictures/S_yt-NuZy8Rjk4d0_156.png	42.38141703605652	
7	12.529563903808594	picture	0		314.0	5.0	/home/egter/Projects/stimuli/pictures/R_S_yt-N7ztk2fa3Ls_137.png	42.40061593055725	2.6180601119995117
7	15.126326084136963	response	0	k		5.0	/home/egter/Projects/stimuli/pictures/R_S_yt-N7ztk2fa3Ls_137.png	44.99737811088562	
8	15.147624015808105	picture	0		127.0	6.0	/home/egter/Projects/stimuli/pictures/n01751748_9158.JPEG	45.01867604255676	1.0625450611114502
8	16.199838876724243	response	0	k		6.0	/home/egter/Projects/stimuli/pictures/n01751748_9158.JPEG	46.0708909034729	
9	16.210169076919556	picture	0		122.0	7.0	/home/egter/Projects/stimuli/pictures/n07716906_10696.JPEG	46.08122110366821	1.020765781402588
9	17.217095851898193	response	0	k		7.0	/home/egter/Projects/stimuli/pictures/n07716906_10696.JPEG	47.08814787864685	
10	17.230934858322144	picture	0		114.0	8.0	/home/egter/Projects/stimuli/pictures/n01560419_2492.JPEG	47.1019868850708	0.9582760334014893
10	18.175498962402344	response	0	k		8.0	/home/egter/Projects/stimuli/pictures/n01560419_2492.JPEG	48.046550989151	
11	18.189210891723633	picture	0		139.0	9.0	/home/egter/Projects/stimuli/pictures/S_yt-1V0KJEc4cJ4_203.png	48.06026291847229	1.166673183441162
11	19.342139959335327	response	0	k		9.0	/home/egter/Projects/stimuli/pictures/S_yt-1V0KJEc4cJ4_203.png	49.213191986083984	
12	19.355884075164795	picture	0		140.0	10.0	/home/egter/Projects/stimuli/pictures/S_yt-146gReE6xKw_379.png	49.22693610191345	1.1736278533935547
12	20.51029896736145	response	0	k		10.0	/home/egter/Projects/stimuli/pictures/S_yt-146gReE6xKw_379.png	50.38135099411011	
13	20.52951192855835	picture	0		297.0	11.0	/home/egter/Projects/stimuli/pictures/R_S_ILSVRC2015_train_00017007.png	50.40056395530701	2.4721970558166504
13	22.991421937942505	response	0	k		11.0	/home/egter/Projects/stimuli/pictures/R_S_ILSVRC2015_train_00017007.png	52.86247396469116	
14	23.001708984375	picture	0		217.0	12.0	/home/egter/Projects/stimuli/pictures/S_ILSVRC2015_train_00682009.png	52.87276101112366	1.8124580383300781
14	24.80036187171936	response	0	k		12.0	/home/egter/Projects/stimuli/pictures/S_ILSVRC2015_train_00682009.png	54.67141389846802	
15	24.814167022705078	picture	0		351.0	13.0	/home/egter/Projects/stimuli/pictures/R_S_g201_TH_804_A001_8_SDR_20191031_SDR_2K_AVC.png	54.685219049453735	2.9305579662323
15	27.73314905166626	response	0	j		13.0	/home/egter/Projects/stimuli/pictures/R_S_g201_TH_804_A001_8_SDR_20191031_SDR_2K_AVC.png	57.60420107841492	
16	27.744724988937378	picture	0		126.0	14.0	/home/egter/Projects/stimuli/pictures/n01737021_9464.JPEG	57.615777015686035	1.0555179119110107
16	28.791452884674072	response	0	k		14.0	/home/egter/Projects/stimuli/pictures/n01737021_9464.JPEG	58.66250491142273	
17	28.80024290084839	picture	0		98.0	15.0	/home/egter/Projects/stimuli/pictures/n04532670_3692.JPEG	58.671294927597046	0.8194630146026611
17	29.608134984970093	response	0	k		15.0	/home/egter/Projects/stimuli/pictures/n04532670_3692.JPEG	59.47918701171875	
18	29.61970591545105	picture	0		104.0	16.0	/home/egter/Projects/stimuli/pictures/n02454379_701.JPEG	59.49075794219971	0.8750190734863281
18	30.48308801651001	response	0	k		16.0	/home/egter/Projects/stimuli/pictures/n02454379_701.JPEG	60.35414004325867	
19	30.494724988937378	picture	0		100.0	17.0	/home/egter/Projects/stimuli/pictures/S_yt-n1snPiGfg0A_45.png	60.365777015686035	0.840324878692627
19	31.324765920639038	response	0	k		17.0	/home/egter/Projects/stimuli/pictures/S_yt-n1snPiGfg0A_45.png	61.195817947387695	
20	31.335049867630005	picture	0		126.0	18.0	/home/egter/Projects/stimuli/pictures/n01773797_2883.JPEG	61.20610189437866	1.0485990047454834
20	32.374743938446045	response	0	k		18.0	/home/egter/Projects/stimuli/pictures/n01773797_2883.JPEG	62.2457959651947	
21	32.38364887237549	picture	0		95.0	19.0	/home/egter/Projects/stimuli/pictures/n04515003_10785.JPEG	62.254700899124146	0.7915520668029785
21	33.15970706939697	response	0	k		19.0	/home/egter/Projects/stimuli/pictures/n04515003_10785.JPEG	63.03075909614563	
22	33.17520093917847	picture	0		240.0	20.0	/home/egter/Projects/stimuli/pictures/n02667093_5587.JPEG	63.046252965927124	1.9999489784240723
22	35.15973401069641	response	0	k		20.0	/home/egter/Projects/stimuli/pictures/n02667093_5587.JPEG	65.03078603744507	
23	35.17514991760254	picture	0		132.0	21.0	/home/egter/Projects/stimuli/pictures/R_S_comp_A351_C001_v06_SDR_PS_20180725_SDR_2K_AVC.png	65.0462019443512	1.1041791439056396
23	36.26646304130554	response	0	k		21.0	/home/egter/Projects/stimuli/pictures/R_S_comp_A351_C001_v06_SDR_PS_20180725_SDR_2K_AVC.png	66.1375150680542	
24	36.27932906150818	picture	0		115.0	22.0	/home/egter/Projects/stimuli/pictures/R_S_ILSVRC2015_train_00479004.png	66.15038108825684	0.9583590030670166
24	37.22479605674744	response	0	k		22.0	/home/egter/Projects/stimuli/pictures/R_S_ILSVRC2015_train_00479004.png	67.0958480834961	
25	37.237688064575195	picture	0		116.0	23.0	/home/egter/Projects/stimuli/pictures/ILSVRC2012_test_00075992.JPEG	67.10874009132385	0.965263843536377
25	38.19143795967102	response	0	k		23.0	/home/egter/Projects/stimuli/pictures/ILSVRC2012_test_00075992.JPEG	68.06248998641968	
26	38.20295190811157	picture	0		93.0	24.0	/home/egter/Projects/stimuli/pictures/S_yt-33PKaLVxDC4_2703.png	68.07400393486023	0.7777299880981445
26	38.96696996688843	response	0	k		24.0	/home/egter/Projects/stimuli/pictures/S_yt-33PKaLVxDC4_2703.png	68.83802199363708	
27	38.98068189620972	picture	0		108.0	25.0	/home/egter/Projects/stimuli/pictures/R_S_yt-E8EDQCPbBeI_196.png	68.85173392295837	0.9028451442718506
27	39.87476396560669	response	0	k		25.0	/home/egter/Projects/stimuli/pictures/R_S_yt-E8EDQCPbBeI_196.png	69.74581599235535	
28	39.88352704048157	picture	0		130.0	26.0	/home/egter/Projects/stimuli/pictures/n01728572_49.JPEG	69.75457906723022	1.0832760334014893
28	40.95133686065674	response	0	k		26.0	/home/egter/Projects/stimuli/pictures/n01728572_49.JPEG	70.8223888874054	
29	40.96680307388306	picture	0		596.0	27.0	/home/egter/Projects/stimuli/pictures/S_comp_H004_C007_PS_v02_SDR_PS_20180925_SDR_2K_AVC.png	70.83785510063171	4.972172975540161
29	45.925235986709595	response	0	k		27.0	/home/egter/Projects/stimuli/pictures/S_comp_H004_C007_PS_v02_SDR_PS_20180925_SDR_2K_AVC.png	75.79628801345825	
30	45.93897604942322	picture	0		78.0	28.0	/home/egter/Projects/stimuli/pictures/S_T98offKWxso_127.png	75.81002807617188	0.6527788639068604
30	46.58309602737427	response	0	k		28.0	/home/egter/Projects/stimuli/pictures/S_T98offKWxso_127.png	76.45414805412292	
31	46.59175491333008	picture	0		82.0	29.0	/home/egter/Projects/stimuli/pictures/n01980166_1581.JPEG	76.46280694007874	0.687485933303833
31	47.26637101173401	response	0	k		29.0	/home/egter/Projects/stimuli/pictures/n01980166_1581.JPEG	77.13742303848267	
32	47.27924084663391	picture	0		109.0	30.0	/home/egter/Projects/stimuli/pictures/R_S_yt--OkafQ5VFHs_51.png	77.15029287338257	0.9097352027893066
32	48.1751070022583	response	0	j		30.0	/home/egter/Projects/stimuli/pictures/R_S_yt--OkafQ5VFHs_51.png	78.04615902900696	
33	48.18897604942322	picture	0		105.0	31.0	/home/egter/Projects/stimuli/pictures/n02018795_3621.JPEG	78.06002807617188	0.8819429874420166
33	49.058125019073486	response	0	k		31.0	/home/egter/Projects/stimuli/pictures/n02018795_3621.JPEG	78.92917704582214	
34	49.070919036865234	picture	0		75.0	32.0	/home/egter/Projects/stimuli/pictures/n03633091_8817.JPEG	78.94197106361389	0.6249759197235107
34	49.6831328868866	response	0	k		32.0	/home/egter/Projects/stimuli/pictures/n03633091_8817.JPEG	79.55418491363525	
35	49.695894956588745	picture	0		92.0	33.0	/home/egter/Projects/stimuli/pictures/n02256656_14419.JPEG	79.5669469833374	0.7638180255889893
35	50.44967007637024	response	0	k		33.0	/home/egter/Projects/stimuli/pictures/n02256656_14419.JPEG	80.3207221031189	
36	50.459712982177734	picture	0		87.0	34.0	/home/egter/Projects/stimuli/pictures/n03841143_5390.JPEG	80.33076500892639	0.7292399406433105
36	51.16800498962402	response	0	k		34.0	/home/egter/Projects/stimuli/pictures/n03841143_5390.JPEG	81.03905701637268	
37	51.188952922821045	picture	0		70.0	35.0	/home/egter/Projects/stimuli/pictures/n03131574_4612.JPEG	81.0600049495697	0.5903620719909668
37	51.761045932769775	response	0	k		35.0	/home/egter/Projects/stimuli/pictures/n03131574_4612.JPEG	81.63209795951843	
38	51.77931499481201	picture	0		123.0	36.0	/home/egter/Projects/stimuli/pictures/S_yt-kQpE9L-fsNE_55.png	81.65036702156067	1.0207128524780273
38	52.79137587547302	response	0	j		36.0	/home/egter/Projects/stimuli/pictures/S_yt-kQpE9L-fsNE_55.png	82.66242790222168	
39	52.80002784729004	picture	0		162.0	37.0	/home/egter/Projects/stimuli/pictures/R_S_yt-icd9UxxxeW0_255.png	82.6710798740387	1.354175090789795
39	54.13493204116821	response	0	k		37.0	/home/egter/Projects/stimuli/pictures/R_S_yt-icd9UxxxeW0_255.png	84.00598406791687	
40	54.154202938079834	picture	0		101.0	38.0	/home/egter/Projects/stimuli/pictures/R_S_ILSVRC2015_train_00044004.png	84.02525496482849	0.8402829170227051
40	54.982975006103516	response	0	k		38.0	/home/egter/Projects/stimuli/pictures/R_S_ILSVRC2015_train_00044004.png	84.85402703285217	
41	54.99448585510254	picture	0		89.0	39.0	/home/egter/Projects/stimuli/pictures/ILSVRC2012_val_00000725.JPEG	84.8655378818512	0.7430181503295898
41	55.72460103034973	response	0	k		39.0	/home/egter/Projects/stimuli/pictures/ILSVRC2012_val_00000725.JPEG	85.59565305709839	
42	55.73750400543213	picture	0		108.0	40.0	/home/egter/Projects/stimuli/pictures/S_pexels-koolshooters-7327412_1.png	85.60855603218079	0.8958308696746826
42	56.62469005584717	response	0	k		40.0	/home/egter/Projects/stimuli/pictures/S_pexels-koolshooters-7327412_1.png	86.49574208259583	
43	56.63333487510681	picture	0		598.0	41.0	/home/egter/Projects/stimuli/pictures/R_S_yt-qiPhBL4lBr0_44.png	86.50438690185547	4.986035108566284
43	61.60789108276367	response	0	k		41.0	/home/egter/Projects/stimuli/pictures/R_S_yt-qiPhBL4lBr0_44.png	91.47894310951233	
44	61.619369983673096	picture	0		93.0	42.0	/home/egter/Projects/stimuli/pictures/S_ahJft-G235A_122.png	91.49042201042175	0.7777578830718994
44	62.376198053359985	response	0	k		42.0	/home/egter/Projects/stimuli/pictures/S_ahJft-G235A_122.png	92.24725008010864	
45	62.397127866744995	picture	0		141.0	43.0	/home/egter/Projects/stimuli/pictures/S_yt-d5jBQ-LOW2I_17.png	92.26817989349365	1.1805450916290283
45	63.55954599380493	response	0	k		43.0	/home/egter/Projects/stimuli/pictures/S_yt-d5jBQ-LOW2I_17.png	93.43059802055359	
46	63.57767295837402	picture	0		70.0	44.0	/home/egter/Projects/stimuli/pictures/n03527444_4185.JPEG	93.44872498512268	0.5833530426025391
46	64.14279794692993	response	0	k		44.0	/home/egter/Projects/stimuli/pictures/n03527444_4185.JPEG	94.01384997367859	
47	64.16102600097656	picture	0		159.0	45.0	/home/egter/Projects/stimuli/pictures/S_yt-VQtbKGzI9SE_431.png	94.03207802772522	1.3264570236206055
47	65.47464299201965	response	0	k		45.0	/home/egter/Projects/stimuli/pictures/S_yt-VQtbKGzI9SE_431.png	95.34569501876831	
48	65.48748302459717	picture	0		82.0	46.0	/home/egter/Projects/stimuli/pictures/n03814639_8934.JPEG	95.35853505134583	0.6805119514465332
48	66.15119886398315	response	0	k		46.0	/home/egter/Projects/stimuli/pictures/n03814639_8934.JPEG	96.02225089073181	
49	66.1679949760437	picture	0		84.0	47.0	/home/egter/Projects/stimuli/pictures/S_comp_C001_C005_PS_v01_SDR_PS_20180925_SDR_2K_AVC.png	96.03904700279236	0.7065479755401611
49	66.85800004005432	response	0	k		47.0	/home/egter/Projects/stimuli/pictures/S_comp_C001_C005_PS_v01_SDR_PS_20180925_SDR_2K_AVC.png	96.72905206680298	
50	66.87454295158386	picture	0		109.0	48.0	/home/egter/Projects/stimuli/pictures/S_yt-zQnaVApUPH0_14.png	96.74559497833252	0.9114880561828613
50	67.76784706115723	response	0	k		48.0	/home/egter/Projects/stimuli/pictures/S_yt-zQnaVApUPH0_14.png	97.63889908790588	
51	67.78603100776672	picture	0		95.0	49.0	/home/egter/Projects/stimuli/pictures/R_S_I003_C015_SDR_2K_AVC.png	97.65708303451538	0.7916378974914551
51	68.55955600738525	response	0	k		49.0	/home/egter/Projects/stimuli/pictures/R_S_I003_C015_SDR_2K_AVC.png	98.43060803413391	
52	68.57766890525818	picture	0		157.0	50.0	/home/egter/Projects/stimuli/pictures/S_yt-1VTxnf2hZ0w_675.png	98.44872093200684	1.3054840564727783
52	69.87464499473572	response	0	k		50.0	/home/egter/Projects/stimuli/pictures/S_yt-1VTxnf2hZ0w_675.png	99.74569702148438	
53	69.88315296173096	picture	0		80.0	51.0	/home/egter/Projects/stimuli/pictures/S_uMYzeAJiua0_199.png	99.75420498847961	0.666740894317627
53	70.54127907752991	response	0	k		51.0	/home/egter/Projects/stimuli/pictures/S_uMYzeAJiua0_199.png	100.41233110427856	
54	70.54989385604858	picture	0		76.0	52.0	/home/egter/Projects/stimuli/pictures/R_S_BO_A012_C031_SDR_20190726_SDR_2K_AVC.png	100.42094588279724	0.6388711929321289
54	71.16787600517273	response	0	k		52.0	/home/egter/Projects/stimuli/pictures/R_S_BO_A012_C031_SDR_20190726_SDR_2K_AVC.png	101.03892803192139	
55	71.18876504898071	picture	0		97.0	53.0	/home/egter/Projects/stimuli/pictures/S_yt-lYhibsUW208_26.png	101.05981707572937	0.812553882598877
55	71.9913330078125	response	0	k		53.0	/home/egter/Projects/stimuli/pictures/S_yt-lYhibsUW208_26.png	101.86238503456116	
56	72.00131893157959	picture	0		70.0	54.0	/home/egter/Projects/stimuli/pictures/n03982430_12070.JPEG	101.87237095832825	0.5832870006561279
56	72.56781697273254	response	0	k		54.0	/home/egter/Projects/stimuli/pictures/n03982430_12070.JPEG	102.4388689994812	
57	72.58460593223572	picture	0		97.0	55.0	/home/egter/Projects/stimuli/pictures/R_S_comp_A103_C002_0205DG_v12_SDR_FINAL_20180706_SDR_2K_AVC.png	102.45565795898438	0.8124790191650391
57	73.38340091705322	response	0	k		55.0	/home/egter/Projects/stimuli/pictures/R_S_comp_A103_C002_0205DG_v12_SDR_FINAL_20180706_SDR_2K_AVC.png	103.25445294380188	
58	73.39708495140076	picture	0		95.0	56.0	/home/egter/Projects/stimuli/pictures/S_yt-HRuCkU_kBoE_239.png	103.26813697814941	0.7985889911651611
58	74.18295907974243	response	0	k		56.0	/home/egter/Projects/stimuli/pictures/S_yt-HRuCkU_kBoE_239.png	104.05401110649109	
59	74.19567394256592	picture	0		132.0	57.0	/home/egter/Projects/stimuli/pictures/R_S_yt-yyIimWrvRyI_246.png	104.06672596931458	1.0971460342407227
59	75.2829179763794	response	0	k		57.0	/home/egter/Projects/stimuli/pictures/R_S_yt-yyIimWrvRyI_246.png	105.15397000312805	
60	75.29281997680664	picture	0		122.0	58.0	/home/egter/Projects/stimuli/pictures/S_yt-z68VLDDCFdw_93.png	105.1638720035553	1.0208969116210938
60	76.29994702339172	response	0	k		58.0	/home/egter/Projects/stimuli/pictures/S_yt-z68VLDDCFdw_93.png	106.17099905014038	
61	76.31371688842773	picture	0		129.0	59.0	/home/egter/Projects/stimuli/pictures/S_yt-OEY9O2MglQM_7.png	106.18476891517639	1.0832791328430176
61	77.3760449886322	response	0	j		59.0	/home/egter/Projects/stimuli/pictures/S_yt-OEY9O2MglQM_7.png	107.24709701538086	
62	77.39699602127075	picture	0		102.0	60.0	/home/egter/Projects/stimuli/pictures/S_pexels-rodnae-productions-5617905.png	107.26804804801941	0.8542318344116211
62	78.24122595787048	response	0	j		60.0	/home/egter/Projects/stimuli/pictures/S_pexels-rodnae-productions-5617905.png	108.11227798461914	
63	78.25122785568237	picture	0		105.0	61.0	/home/egter/Projects/stimuli/pictures/R_S_yt-O6FS0xnF0CU_106.png	108.12227988243103	0.8749561309814453
63	79.11623001098633	response	0	k		61.0	/home/egter/Projects/stimuli/pictures/R_S_yt-O6FS0xnF0CU_106.png	108.98728203773499	
64	79.12618398666382	picture	0		111.0	62.0	/home/egter/Projects/stimuli/pictures/S_video_inspire_california_catalina_00005.png	108.99723601341248	0.9235758781433105
64	80.0411970615387	response	0	k		62.0	/home/egter/Projects/stimuli/pictures/S_video_inspire_california_catalina_00005.png	109.91224908828735	
65	80.04975986480713	picture	0		88.0	63.0	/home/egter/Projects/stimuli/pictures/n04254680_4023.JPEG	109.92081189155579	0.7361152172088623
65	80.76778888702393	response	0	k		63.0	/home/egter/Projects/stimuli/pictures/n04254680_4023.JPEG	110.63884091377258	
66	80.78587508201599	picture	0		86.0	64.0	/home/egter/Projects/stimuli/pictures/n04389033_960.JPEG	110.65692710876465	0.7153198719024658
66	81.4912359714508	response	0	k		64.0	/home/egter/Projects/stimuli/pictures/n04389033_960.JPEG	111.36228799819946	
67	81.50119495391846	picture	0		94.0	65.0	/home/egter/Projects/stimuli/pictures/S_yt-AOP7QYQntPI_28.png	111.37224698066711	0.7846701145172119
67	82.27455806732178	response	0	k		65.0	/home/egter/Projects/stimuli/pictures/S_yt-AOP7QYQntPI_28.png	112.14561009407043	
68	82.28586506843567	picture	0		107.0	66.0	/home/egter/Projects/stimuli/pictures/S_yt-un00Oks5uVc_7.png	112.15691709518433	0.8888359069824219
68	83.15944504737854	response	0	k		66.0	/home/egter/Projects/stimuli/pictures/S_yt-un00Oks5uVc_7.png	113.0304970741272	
69	83.17470097541809	picture	0		87.0	67.0	/home/egter/Projects/stimuli/pictures/ILSVRC2012_test_00095343.JPEG	113.04575300216675	0.7291910648345947
69	83.89125990867615	response	0	k		67.0	/home/egter/Projects/stimuli/pictures/ILSVRC2012_test_00095343.JPEG	113.7623119354248	
70	83.90389204025269	picture	0		95.0	68.0	/home/egter/Projects/stimuli/pictures/n03271574_5632.JPEG	113.77494406700134	0.7916460037231445
70	84.68281602859497	response	0	k		68.0	/home/egter/Projects/stimuli/pictures/n03271574_5632.JPEG	114.55386805534363	
71	84.69553804397583	picture	0		85.0	69.0	/home/egter/Projects/stimuli/pictures/n01728572_2672.JPEG	114.56659007072449	0.7083659172058105
71	85.3913049697876	response	0	k		69.0	/home/egter/Projects/stimuli/pictures/n01728572_2672.JPEG	115.26235699653625	
72	85.40390396118164	picture	0		76.0	70.0	/home/egter/Projects/stimuli/pictures/n03770679_21013.JPEG	115.2749559879303	0.6319389343261719
72	86.0245680809021	response	0	k		70.0	/home/egter/Projects/stimuli/pictures/n03770679_21013.JPEG	115.89562010765076	
73	86.03584289550781	picture	0		75.0	71.0	/home/egter/Projects/stimuli/pictures/S_production_ID_4101234.png	115.90689492225647	0.6249761581420898
73	86.64965295791626	response	0	k		71.0	/home/egter/Projects/stimuli/pictures/S_production_ID_4101234.png	116.52070498466492	
74	86.6608190536499	picture	0		66.0	72.0	/home/egter/Projects/stimuli/pictures/ILSVRC2012_val_00021857.JPEG	116.53187108039856	0.5485939979553223
74	87.19956493377686	response	0	k		72.0	/home/egter/Projects/stimuli/pictures/ILSVRC2012_val_00021857.JPEG	117.07061696052551	
75	87.20941305160522	picture	0		266.0	73.0	/home/egter/Projects/stimuli/pictures/S_ILSVRC2015_train_00371010.png	117.08046507835388	2.215211868286133
75	89.41624808311462	response	0	j		73.0	/home/egter/Projects/stimuli/pictures/S_ILSVRC2015_train_00371010.png	119.28730010986328	
76	89.42462491989136	picture	0		164.0	74.0	/home/egter/Projects/stimuli/pictures/n09835506_1681.JPEG	119.29567694664001	1.3681011199951172
76	90.77610492706299	response	0	k		74.0	/home/egter/Projects/stimuli/pictures/n09835506_1681.JPEG	120.64715695381165	
77	90.79272603988647	picture	0		87.0	75.0	/home/egter/Projects/stimuli/pictures/n02493509_13043.JPEG	120.66377806663513	0.7291100025177002
77	91.50809407234192	response	0	k		75.0	/home/egter/Projects/stimuli/pictures/n02493509_13043.JPEG	121.37914609909058	
78	91.52183604240417	picture	0		118.0	76.0	/home/egter/Projects/stimuli/pictures/S_comp_A105_C003_0212CT_FLARE_v10_SDR_PS_FINAL_20180711_SDR_2K_AVC.png	121.39288806915283	0.9860599040985107
78	92.49954390525818	response	0	k		76.0	/home/egter/Projects/stimuli/pictures/S_comp_A105_C003_0212CT_FLARE_v10_SDR_PS_FINAL_20180711_SDR_2K_AVC.png	122.37059593200684	
79	92.50789594650269	picture	0		121.0	77.0	/home/egter/Projects/stimuli/pictures/R_S_yt-kuzdrmHa-W0_39.png	122.37894797325134	1.0139949321746826
79	93.50805687904358	response	0	k		77.0	/home/egter/Projects/stimuli/pictures/R_S_yt-kuzdrmHa-W0_39.png	123.37910890579224	
80	93.52189087867737	picture	0		81.0	78.0	/home/egter/Projects/stimuli/pictures/n02090379_3314.JPEG	123.39294290542603	0.6805109977722168
80	94.18441891670227	response	0	k		78.0	/home/egter/Projects/stimuli/pictures/n02090379_3314.JPEG	124.05547094345093	
81	94.20240187644958	picture	0		96.0	79.0	/home/egter/Projects/stimuli/pictures/n01687978_152.JPEG	124.07345390319824	0.7986161708831787
81	94.9844720363617	response	0	k		79.0	/home/egter/Projects/stimuli/pictures/n01687978_152.JPEG	124.85552406311035	
82	95.00101804733276	picture	0		82.0	80.0	/home/egter/Projects/stimuli/pictures/n01797886_19206.JPEG	124.87207007408142	0.6874938011169434
82	95.6747498512268	response	0	k		80.0	/home/egter/Projects/stimuli/pictures/n01797886_19206.JPEG	125.54580187797546	
83	95.6885118484497	picture	0		86.0	81.0	/home/egter/Projects/stimuli/pictures/n02100236_9096.JPEG	125.55956387519836	0.7222480773925781
83	96.39962100982666	response	0	k		81.0	/home/egter/Projects/stimuli/pictures/n02100236_9096.JPEG	126.27067303657532	
84	96.41075992584229	picture	0		82.0	82.0	/home/egter/Projects/stimuli/pictures/S_wc-NVeGRb_y_y_5_36.png	126.28181195259094	0.6805319786071777
84	97.08284497261047	response	0	k		82.0	/home/egter/Projects/stimuli/pictures/S_wc-NVeGRb_y_y_5_36.png	126.95389699935913	
85	97.09129190444946	picture	0		97.0	83.0	/home/egter/Projects/stimuli/pictures/R_S_yt-OEY9O2MglQM_7.png	126.96234393119812	0.812493085861206
85	97.89119100570679	response	0	j		83.0	/home/egter/Projects/stimuli/pictures/R_S_yt-OEY9O2MglQM_7.png	127.76224303245544	
86	97.90378499031067	picture	0		78.0	84.0	/home/egter/Projects/stimuli/pictures/n07717556_8311.JPEG	127.77483701705933	0.6457538604736328
86	98.54114294052124	response	0	k		84.0	/home/egter/Projects/stimuli/pictures/n07717556_8311.JPEG	128.4121949672699	
87	98.5495388507843	picture	0		100.0	85.0	/home/egter/Projects/stimuli/pictures/n02807133_12777.JPEG	128.42059087753296	0.8333601951599121
87	99.36771202087402	response	0	k		85.0	/home/egter/Projects/stimuli/pictures/n02807133_12777.JPEG	129.23876404762268	
88	99.38289904594421	picture	0		249.0	86.0	/home/egter/Projects/stimuli/pictures/n03903868_14924.JPEG	129.25395107269287	2.0763838291168213
88	101.44954085350037	response	0	k		86.0	/home/egter/Projects/stimuli/pictures/n03903868_14924.JPEG	131.32059288024902	
89	101.45928287506104	picture	0		77.0	87.0	/home/egter/Projects/stimuli/pictures/n02791124_7759.JPEG	131.3303349018097	0.6458921432495117
89	102.091304063797	response	0	k		87.0	/home/egter/Projects/stimuli/pictures/n02791124_7759.JPEG	131.96235609054565	
90	102.10517501831055	picture	0		85.0	88.0	/home/egter/Projects/stimuli/pictures/R_S_yt-n1snPiGfg0A_45.png	131.9762270450592	0.7152578830718994
90	102.80781698226929	response	0	k		88.0	/home/egter/Projects/stimuli/pictures/R_S_yt-n1snPiGfg0A_45.png	132.67886900901794	
91	102.82043290138245	picture	0		63.0	89.0	/home/egter/Projects/stimuli/pictures/n03187595_8971.JPEG	132.6914849281311	0.5347051620483398
91	103.34133887290955	response	0	k		89.0	/home/egter/Projects/stimuli/pictures/n03187595_8971.JPEG	133.2123908996582	
92	103.35513806343079	picture	0		69.0	90.0	/home/egter/Projects/stimuli/pictures/n01798484_11429.JPEG	133.22619009017944	0.5833709239959717
92	103.9246289730072	response	0	k		90.0	/home/egter/Projects/stimuli/pictures/n01798484_11429.JPEG	133.79568099975586	
93	103.93850898742676	picture	0		57.0	91.0	/home/egter/Projects/stimuli/pictures/n03857828_24719.JPEG	133.80956101417542	0.4790959358215332
93	104.40778994560242	response	0	k		91.0	/home/egter/Projects/stimuli/pictures/n03857828_24719.JPEG	134.27884197235107	
94	104.41760492324829	picture	0		56.0	92.0	/home/egter/Projects/stimuli/pictures/n01914609_3143.JPEG	134.28865694999695	0.46518397331237793
94	104.87446689605713	response	0	k		92.0	/home/egter/Projects/stimuli/pictures/n01914609_3143.JPEG	134.7455189228058	
95	104.88278889656067	picture	0		73.0	93.0	/home/egter/Projects/stimuli/pictures/n04146614_1228.JPEG	134.75384092330933	0.6111400127410889
95	105.48275995254517	response	0	k		93.0	/home/egter/Projects/stimuli/pictures/n04146614_1228.JPEG	135.35381197929382	
96	105.49392890930176	picture	0		88.0	94.0	/home/egter/Projects/stimuli/pictures/R_S_ILSVRC2015_train_00155004.png	135.36498093605042	0.7361559867858887
96	106.21639394760132	response	0	k		94.0	/home/egter/Projects/stimuli/pictures/R_S_ILSVRC2015_train_00155004.png	136.08744597434998	
97	106.23008489608765	picture	0		88.0	95.0	/home/egter/Projects/stimuli/pictures/S_b1-3.png	136.1011369228363	0.7360801696777344
97	106.95783591270447	response	0	k		95.0	/home/egter/Projects/stimuli/pictures/S_b1-3.png	136.82888793945312	
98	106.96616506576538	picture	0		66.0	96.0	/home/egter/Projects/stimuli/pictures/n02687172_38456.JPEG	136.83721709251404	0.5555598735809326
98	107.50792407989502	response	0	k		96.0	/home/egter/Projects/stimuli/pictures/n02687172_38456.JPEG	137.37897610664368	
99	107.52172493934631	picture	0		75.0	97.0	/home/egter/Projects/stimuli/pictures/R_S_1y-EvnfGO9Y_70.png	137.39277696609497	0.6319930553436279
99	108.14112401008606	response	0	k		97.0	/home/egter/Projects/stimuli/pictures/R_S_1y-EvnfGO9Y_70.png	138.01217603683472	
100	108.15371799468994	picture	0		82.0	98.0	/home/egter/Projects/stimuli/pictures/R_S_yt-a0axt7n0GuQ_19.png	138.0247700214386	0.6804618835449219
100	108.82440996170044	response	0	k		98.0	/home/egter/Projects/stimuli/pictures/R_S_yt-a0axt7n0GuQ_19.png	138.6954619884491	
101	108.83417987823486	picture	0		109.0	99.0	/home/egter/Projects/stimuli/pictures/S_yt-wLylWnZs3z0_27.png	138.70523190498352	0.9097561836242676
101	109.73290395736694	response	0	k		99.0	/home/egter/Projects/stimuli/pictures/S_yt-wLylWnZs3z0_27.png	139.6039559841156	
102	109.74393606185913	picture	0		96.0	100.0	/home/egter/Projects/stimuli/pictures/R_S_nTA7B2uHaCQ_1.png	139.6149880886078	0.7986359596252441
102	110.53275990486145	response	0	k		100.0	/home/egter/Projects/stimuli/pictures/R_S_nTA7B2uHaCQ_1.png	140.4038119316101	
103	110.54257202148438	picture	0		83.0	101.0	/home/egter/Projects/stimuli/pictures/S_yt-SvCjZ59S9wk_211.png	140.41362404823303	0.6943869590759277
103	111.22446298599243	response	0	k		101.0	/home/egter/Projects/stimuli/pictures/S_yt-SvCjZ59S9wk_211.png	141.0955150127411	
104	111.2369589805603	picture	0		73.0	102.0	/home/egter/Projects/stimuli/pictures/R_S_yt-5doJmCcFL7s_3.png	141.10801100730896	0.6040780544281006
104	111.83279800415039	response	0	k		102.0	/home/egter/Projects/stimuli/pictures/R_S_yt-5doJmCcFL7s_3.png	141.70385003089905	
105	111.8410370349884	picture	0		112.0	103.0	/home/egter/Projects/stimuli/pictures/R_S_pexels-rodnae-productions-7467585.png	141.71208906173706	0.9377210140228271
105	112.75943303108215	response	0	j		103.0	/home/egter/Projects/stimuli/pictures/R_S_pexels-rodnae-productions-7467585.png	142.6304850578308	
106	112.77875804901123	picture	0		196.0	104.0	/home/egter/Projects/stimuli/pictures/S_yt-XYULt48onn4_6.png	142.6498100757599	1.6317989826202393
106	114.39266300201416	response	0	k		104.0	/home/egter/Projects/stimuli/pictures/S_yt-XYULt48onn4_6.png	144.26371502876282	
107	114.41055703163147	picture	0		93.0	105.0	/home/egter/Projects/stimuli/pictures/R_S_yt-146gReE6xKw_379.png	144.28160905838013	0.7777769565582275
107	115.16755390167236	response	0	k		105.0	/home/egter/Projects/stimuli/pictures/R_S_yt-146gReE6xKw_379.png	145.03860592842102	
108	115.1883339881897	picture	0		105.0	106.0	/home/egter/Projects/stimuli/pictures/S_pexels-marcus-aurelius-6785014.png	145.05938601493835	0.881890058517456
108	116.05778193473816	response	0	k		106.0	/home/egter/Projects/stimuli/pictures/S_pexels-marcus-aurelius-6785014.png	145.92883396148682	
109	116.07022404670715	picture	0		94.0	107.0	/home/egter/Projects/stimuli/pictures/n01687978_7602.JPEG	145.9412760734558	0.7847669124603271
109	116.84121894836426	response	0	k		107.0	/home/egter/Projects/stimuli/pictures/n01687978_7602.JPEG	146.71227097511292	
110	116.85499095916748	picture	0		85.0	108.0	/home/egter/Projects/stimuli/pictures/n03777568_14302.JPEG	146.72604298591614	0.7152400016784668
110	117.55776500701904	response	0	k		108.0	/home/egter/Projects/stimuli/pictures/n03777568_14302.JPEG	147.4288170337677	
111	117.57023096084595	picture	0		63.0	109.0	/home/egter/Projects/stimuli/pictures/n03443371_2723.JPEG	147.4412829875946	0.5207509994506836
111	118.08276295661926	response	0	k		109.0	/home/egter/Projects/stimuli/pictures/n03443371_2723.JPEG	147.95381498336792	
112	118.09098196029663	picture	0		83.0	110.0	/home/egter/Projects/stimuli/pictures/S_yt-KC6I552mXwM_6.png	147.9620339870453	0.6945478916168213
112	118.76754808425903	response	0	k		110.0	/home/egter/Projects/stimuli/pictures/S_yt-KC6I552mXwM_6.png	148.6386001110077	
113	118.78552985191345	picture	0		153.0	111.0	/home/egter/Projects/stimuli/pictures/S_yt-CNq5mTA8oXY_176.png	148.6565818786621	1.2777481079101562
113	120.04953098297119	response	0	k		111.0	/home/egter/Projects/stimuli/pictures/S_yt-CNq5mTA8oXY_176.png	149.92058300971985	
114	120.06327795982361	picture	0		95.0	112.0	/home/egter/Projects/stimuli/pictures/S_yt-ZE8Af60eNsI_15.png	149.93432998657227	0.7986259460449219
114	120.84937000274658	response	0	j		112.0	/home/egter/Projects/stimuli/pictures/S_yt-ZE8Af60eNsI_15.png	150.72042202949524	
115	120.86190390586853	picture	0		192.0	113.0	/home/egter/Projects/stimuli/pictures/R_S_comp_H004_C009_PS_v01_SDR_PS_20180925_SDR_2K_AVC.png	150.7329559326172	1.5971250534057617
115	122.44941401481628	response	0	k		113.0	/home/egter/Projects/stimuli/pictures/R_S_comp_H004_C009_PS_v01_SDR_PS_20180925_SDR_2K_AVC.png	152.32046604156494	
116	122.45902895927429	picture	0		141.0	114.0	/home/egter/Projects/stimuli/pictures/n02437312_2627.JPEG	152.33008098602295	1.1736209392547607
116	123.62434387207031	response	0	k		114.0	/home/egter/Projects/stimuli/pictures/n02437312_2627.JPEG	153.49539589881897	
117	123.63264989852905	picture	0		87.0	115.0	/home/egter/Projects/stimuli/pictures/n02484975_6799.JPEG	153.5037019252777	0.7292160987854004
117	124.34937000274658	response	0	k		115.0	/home/egter/Projects/stimuli/pictures/n02484975_6799.JPEG	154.22042202949524	
118	124.36186599731445	picture	0		85.0	116.0	/home/egter/Projects/stimuli/pictures/R_S_yt-JPsTqfqfPIY_319.png	154.2329180240631	0.7082889080047607
118	125.05768895149231	response	0	j		116.0	/home/egter/Projects/stimuli/pictures/R_S_yt-JPsTqfqfPIY_319.png	154.92874097824097	
119	125.07015490531921	picture	0		80.0	117.0	/home/egter/Projects/stimuli/pictures/n01687978_657.JPEG	154.94120693206787	0.6666970252990723
119	125.72438502311707	response	0	k		117.0	/home/egter/Projects/stimuli/pictures/n01687978_657.JPEG	155.59543704986572	
120	125.73685193061829	picture	0		92.0	118.0	/home/egter/Projects/stimuli/pictures/n02113799_5388.JPEG	155.60790395736694	0.7638509273529053
120	126.4911880493164	response	0	k		118.0	/home/egter/Projects/stimuli/pictures/n02113799_5388.JPEG	156.36224007606506	
121	126.50070285797119	picture	0		76.0	119.0	/home/egter/Projects/stimuli/pictures/n04141327_6475.JPEG	156.37175488471985	0.6402080059051514
121	127.12432885169983	response	0	k		119.0	/home/egter/Projects/stimuli/pictures/n04141327_6475.JPEG	156.9953808784485	
122	127.14091086387634	picture	0		63.0	120.0	/home/egter/Projects/stimuli/pictures/n03670208_7197.JPEG	157.011962890625	0.5264770984649658
122	127.65780591964722	response	0	k		120.0	/home/egter/Projects/stimuli/pictures/n03670208_7197.JPEG	157.52885794639587	
123	127.66738796234131	picture	0		349.0	121.0	/home/egter/Projects/stimuli/pictures/R_S_yt-IC62JSYpq9w_71.png	157.53843998908997	2.909601926803589
123	130.5660059452057	response	0	k		121.0	/home/egter/Projects/stimuli/pictures/R_S_yt-IC62JSYpq9w_71.png	160.43705797195435	
124	130.5769898891449	picture	0		237.0	122.0	/home/egter/Projects/stimuli/pictures/S_comp_H004_C009_PS_v01_SDR_PS_20180925_SDR_2K_AVC.png	160.44804191589355	1.972203016281128
124	132.5410418510437	response	0	k		122.0	/home/egter/Projects/stimuli/pictures/S_comp_H004_C009_PS_v01_SDR_PS_20180925_SDR_2K_AVC.png	162.41209387779236	
125	132.54919290542603	picture	0		112.0	123.0	/home/egter/Projects/stimuli/pictures/R_S_yt-TZ107yBhXoA_1.png	162.42024493217468	0.9375901222229004
125	133.47433590888977	response	0	k		123.0	/home/egter/Projects/stimuli/pictures/R_S_yt-TZ107yBhXoA_1.png	163.34538793563843	
126	133.48678302764893	picture	0		110.0	124.0	/home/egter/Projects/stimuli/pictures/S_ILSVRC2015_train_00001012.png	163.35783505439758	0.9166488647460938
126	134.3842339515686	response	0	k		124.0	/home/egter/Projects/stimuli/pictures/S_ILSVRC2015_train_00001012.png	164.25528597831726	
127	134.40343189239502	picture	0		201.0	125.0	/home/egter/Projects/stimuli/pictures/S_ILSVRC2015_train_00444000.png	164.27448391914368	1.6735460758209229
127	136.066015958786	response	0	k		125.0	/home/egter/Projects/stimuli/pictures/S_ILSVRC2015_train_00444000.png	165.93706798553467	
128	136.07697796821594	picture	0		308.0	126.0	/home/egter/Projects/stimuli/pictures/R_S_yt-b29VtKvlnWE_430.png	165.9480299949646	2.569538116455078
128	138.6326868534088	response	0	k		126.0	/home/egter/Projects/stimuli/pictures/R_S_yt-b29VtKvlnWE_430.png	168.50373888015747	
129	138.64651608467102	picture	0		70.0	127.0	/home/egter/Projects/stimuli/pictures/n03250847_11586.JPEG	168.51756811141968	0.5902118682861328
129	139.22418189048767	response	0	k		127.0	/home/egter/Projects/stimuli/pictures/n03250847_11586.JPEG	169.09523391723633	
130	139.23672795295715	picture	0		71.0	128.0	/home/egter/Projects/stimuli/pictures/n07836838_948.JPEG	169.1077799797058	0.5902791023254395
130	139.81596398353577	response	0	k		128.0	/home/egter/Projects/stimuli/pictures/n07836838_948.JPEG	169.68701601028442	
131	139.8270070552826	picture	0		216.0	129.0	/home/egter/Projects/stimuli/pictures/S_yt-QxNuo4ojvz4_420.png	169.69805908203125	1.798557996749878
131	141.6092450618744	response	0	k		129.0	/home/egter/Projects/stimuli/pictures/S_yt-QxNuo4ojvz4_420.png	171.48029708862305	
132	141.62556505203247	picture	0		94.0	130.0	/home/egter/Projects/stimuli/pictures/n02006656_7554.JPEG	171.49661707878113	0.7846930027008057
132	142.39262199401855	response	0	k		130.0	/home/egter/Projects/stimuli/pictures/n02006656_7554.JPEG	172.2636740207672	
133	142.41025805473328	picture	0		145.0	131.0	/home/egter/Projects/stimuli/pictures/R_S_g201_TH_803_A001_8_SDR_20191031_SDR_2K_AVC.png	172.28131008148193	1.2083098888397217
133	143.60096502304077	response	0	k		131.0	/home/egter/Projects/stimuli/pictures/R_S_g201_TH_803_A001_8_SDR_20191031_SDR_2K_AVC.png	173.47201704978943	
134	143.618567943573	picture	0		132.0	132.0	/home/egter/Projects/stimuli/pictures/S_yt-N7ztk2fa3Ls_137.png	173.48961997032166	1.0972700119018555
134	144.70763492584229	response	0	k		132.0	/home/egter/Projects/stimuli/pictures/S_yt-N7ztk2fa3Ls_137.png	174.57868695259094	
135	144.71583795547485	picture	0		97.0	133.0	/home/egter/Projects/stimuli/pictures/ILSVRC2012_test_00033878.JPEG	174.5868899822235	0.8124690055847168
135	145.51594185829163	response	0	k		133.0	/home/egter/Projects/stimuli/pictures/ILSVRC2012_test_00033878.JPEG	175.38699388504028	
136	145.52830696105957	picture	0		102.0	134.0	/home/egter/Projects/stimuli/pictures/n02002724_1594.JPEG	175.39935898780823	0.8471579551696777
136	146.36596608161926	response	0	k		134.0	/home/egter/Projects/stimuli/pictures/n02002724_1594.JPEG	176.23701810836792	
137	146.37546491622925	picture	0		79.0	135.0	/home/egter/Projects/stimuli/pictures/R_S_yt-aiWUhl8MCto_71.png	176.2465169429779	0.6598861217498779
137	147.02428197860718	response	0	k		135.0	/home/egter/Projects/stimuli/pictures/R_S_yt-aiWUhl8MCto_71.png	176.89533400535583	
138	147.03535103797913	picture	0		103.0	136.0	/home/egter/Projects/stimuli/pictures/S_ILSVRC2015_train_00745000.png	176.90640306472778	0.8610188961029053
138	147.88259601593018	response	0	k		136.0	/home/egter/Projects/stimuli/pictures/S_ILSVRC2015_train_00745000.png	177.75364804267883	
139	147.89636993408203	picture	0		185.0	137.0	/home/egter/Projects/stimuli/pictures/S_yt-pKl8nduxfTI_798.png	177.7674219608307	1.548572063446045
139	149.4326319694519	response	0	k		137.0	/home/egter/Projects/stimuli/pictures/S_yt-pKl8nduxfTI_798.png	179.30368399620056	
140	149.44494199752808	picture	0		97.0	138.0	/home/egter/Projects/stimuli/pictures/n02097047_726.JPEG	179.31599402427673	0.8055000305175781
140	150.24093103408813	response	0	k		138.0	/home/egter/Projects/stimuli/pictures/n02097047_726.JPEG	180.1119830608368	
141	150.25044202804565	picture	0		91.0	139.0	/home/egter/Projects/stimuli/pictures/S_yt-SkIJvj6KNOo_33.png	180.1214940547943	0.7570269107818604
141	150.99254393577576	response	0	k		139.0	/home/egter/Projects/stimuli/pictures/S_yt-SkIJvj6KNOo_33.png	180.8635959625244	
142	151.00746893882751	picture	0		123.0	140.0	/home/egter/Projects/stimuli/pictures/S_ILSVRC2015_train_00363000.png	180.87852096557617	1.0277259349822998
142	152.02418899536133	response	0	k		140.0	/home/egter/Projects/stimuli/pictures/S_ILSVRC2015_train_00363000.png	181.89524102210999	
143	152.03519487380981	picture	0		129.0	141.0	/home/egter/Projects/stimuli/pictures/n01667114_12296.JPEG	181.90624690055847	1.0764200687408447
143	153.0992169380188	response	0	k		141.0	/home/egter/Projects/stimuli/pictures/n01667114_12296.JPEG	182.97026896476746	
144	153.11161494255066	picture	0		90.0	142.0	/home/egter/Projects/stimuli/pictures/n02091635_7646.JPEG	182.98266696929932	0.7499921321868896
144	153.8493628501892	response	0	k		142.0	/home/egter/Projects/stimuli/pictures/n02091635_7646.JPEG	183.72041487693787	
145	153.86160707473755	picture	0		98.0	143.0	/home/egter/Projects/stimuli/pictures/n03089624_41889.JPEG	183.7326591014862	0.8124639987945557
145	154.6659278869629	response	0	k		143.0	/home/egter/Projects/stimuli/pictures/n03089624_41889.JPEG	184.53697991371155	
146	154.6740710735321	picture	0		84.0	144.0	/home/egter/Projects/stimuli/pictures/R_S_yt-G65z8p1YNhw_16.png	184.54512310028076	0.7013998031616211
146	155.36592602729797	response	0	k		144.0	/home/egter/Projects/stimuli/pictures/R_S_yt-G65z8p1YNhw_16.png	185.23697805404663	
147	155.37547087669373	picture	0		95.0	145.0	/home/egter/Projects/stimuli/pictures/n01734418_6597.JPEG	185.24652290344238	0.7916040420532227
147	156.15760207176208	response	0	k		145.0	/home/egter/Projects/stimuli/pictures/n01734418_6597.JPEG	186.02865409851074	
148	156.16707491874695	picture	0		118.0	146.0	/home/egter/Projects/stimuli/pictures/S_ILSVRC2015_train_00708000.png	186.0381269454956	0.9861230850219727
148	157.1409740447998	response	0	k		146.0	/home/egter/Projects/stimuli/pictures/S_ILSVRC2015_train_00708000.png	187.01202607154846	
149	157.15319800376892	picture	0		131.0	147.0	/home/egter/Projects/stimuli/pictures/S_ILSVRC2015_train_00373001.png	187.02425003051758	1.0903170108795166
149	158.23258185386658	response	0	k		147.0	/home/egter/Projects/stimuli/pictures/S_ILSVRC2015_train_00373001.png	188.10363388061523	
150	158.24351501464844	picture	0		101.0	148.0	/home/egter/Projects/stimuli/pictures/R_S_yt-TSSPDwAQLXs_158.png	188.1145670413971	0.840242862701416
150	159.07424187660217	response	0	k		148.0	/home/egter/Projects/stimuli/pictures/R_S_yt-TSSPDwAQLXs_158.png	188.94529390335083	
151	159.08375787734985	picture	0		104.0	149.0	/home/egter/Projects/stimuli/pictures/S_yt--OkafQ5VFHs_51.png	188.9548099040985	0.8680269718170166
151	159.9408369064331	response	0	j		149.0	/home/egter/Projects/stimuli/pictures/S_yt--OkafQ5VFHs_51.png	189.81188893318176	
152	159.95178484916687	picture	0		131.0	150.0	/home/egter/Projects/stimuli/pictures/S_yt-K0CzoUy_uIA_22.png	189.82283687591553	1.0902721881866455
152	161.03264689445496	response	0	k		150.0	/home/egter/Projects/stimuli/pictures/S_yt-K0CzoUy_uIA_22.png	190.9036989212036	
153	161.04205703735352	picture	0		83.0	151.0	/home/egter/Projects/stimuli/pictures/n02114712_6162.JPEG	190.91310906410217	0.694464921951294
153	161.72423005104065	response	0	k		151.0	/home/egter/Projects/stimuli/pictures/n02114712_6162.JPEG	191.5952820777893	
154	161.7365219593048	picture	0		88.0	152.0	/home/egter/Projects/stimuli/pictures/n03249569_54697.JPEG	191.60757398605347	0.7430200576782227
154	162.46582102775574	response	0	k		152.0	/home/egter/Projects/stimuli/pictures/n03249569_54697.JPEG	192.3368730545044	
155	162.47954201698303	picture	0		100.0	153.0	/home/egter/Projects/stimuli/pictures/S_yt-s8Egk0W1Uck_39.png	192.3505940437317	0.8402650356292725
155	163.3075819015503	response	0	k		153.0	/home/egter/Projects/stimuli/pictures/S_yt-s8Egk0W1Uck_39.png	193.17863392829895	
156	163.3198070526123	picture	0		104.0	154.0	/home/egter/Projects/stimuli/pictures/S_yt-sC9suzTl1Y0_66.png	193.19085907936096	0.8680498600006104
156	164.17422199249268	response	0	k		154.0	/home/egter/Projects/stimuli/pictures/S_yt-sC9suzTl1Y0_66.png	194.04527401924133	
157	164.18785691261292	picture	0		115.0	155.0	/home/egter/Projects/stimuli/pictures/R_S_ILSVRC2015_train_00066005.png	194.05890893936157	0.9652650356292725
157	165.140860080719	response	0	k		155.0	/home/egter/Projects/stimuli/pictures/R_S_ILSVRC2015_train_00066005.png	195.01191210746765	
158	165.1531219482422	picture	0		90.0	156.0	/home/egter/Projects/stimuli/pictures/S_yt-pB9w3AA-woE_37.png	195.02417397499084	0.7570569515228271
158	165.89925289154053	response	0	k		156.0	/home/egter/Projects/stimuli/pictures/S_yt-pB9w3AA-woE_37.png	195.77030491828918	
159	165.91017889976501	picture	0		70.0	157.0	/home/egter/Projects/stimuli/pictures/n01496331_35603.JPEG	195.78123092651367	0.5832870006561279
159	166.4825210571289	response	0	k		157.0	/home/egter/Projects/stimuli/pictures/n01496331_35603.JPEG	196.35357308387756	
160	166.49346590042114	picture	0		114.0	158.0	/home/egter/Projects/stimuli/pictures/S_yt-fIEGqReekCM_10.png	196.3645179271698	0.9557859897613525
160	167.43256402015686	response	0	k		158.0	/home/egter/Projects/stimuli/pictures/S_yt-fIEGqReekCM_10.png	197.30361604690552	
161	167.4492518901825	picture	0		77.0	159.0	/home/egter/Projects/stimuli/pictures/n04486054_9847.JPEG	197.32030391693115	0.6415359973907471
161	168.08253693580627	response	0	k		159.0	/home/egter/Projects/stimuli/pictures/n04486054_9847.JPEG	197.95358896255493	
162	168.09078788757324	picture	0		212.0	160.0	/home/egter/Projects/stimuli/pictures/R_S_ILSVRC2015_train_00471000.png	197.9618399143219	1.7706329822540283
162	169.84924697875977	response	0	k		160.0	/home/egter/Projects/stimuli/pictures/R_S_ILSVRC2015_train_00471000.png	199.72029900550842	
163	169.86142086982727	picture	0		88.0	161.0	/home/egter/Projects/stimuli/pictures/S_yt-e5ua5Pj86E4_140.png	199.73247289657593	0.729315996170044
163	170.5824818611145	response	0	k		161.0	/home/egter/Projects/stimuli/pictures/S_yt-e5ua5Pj86E4_140.png	200.45353388786316	
164	170.59073686599731	picture	0		80.0	162.0	/home/egter/Projects/stimuli/pictures/S_yt-074ygGXNoQ8_64.png	200.46178889274597	0.6666700839996338
164	171.2492299079895	response	0	k		162.0	/home/egter/Projects/stimuli/pictures/S_yt-074ygGXNoQ8_64.png	201.12028193473816	
165	171.25740694999695	picture	0		89.0	163.0	/home/egter/Projects/stimuli/pictures/n01440764_13368.JPEG	201.1284589767456	0.7637829780578613
165	172.00075006484985	response	0	k		163.0	/home/egter/Projects/stimuli/pictures/n01440764_13368.JPEG	201.8718020915985	
166	172.0211899280548	picture	0		88.0	164.0	/home/egter/Projects/stimuli/pictures/n07720875_15668.JPEG	201.89224195480347	0.7361841201782227
166	172.74916195869446	response	0	k		164.0	/home/egter/Projects/stimuli/pictures/n07720875_15668.JPEG	202.62021398544312	
167	172.75737404823303	picture	0		100.0	165.0	/home/egter/Projects/stimuli/pictures/R_S_yt-d5jBQ-LOW2I_17.png	202.6284260749817	0.8333837985992432
167	173.58259391784668	response	0	k		165.0	/home/egter/Projects/stimuli/pictures/R_S_yt-d5jBQ-LOW2I_17.png	203.45364594459534	
168	173.59075784683228	picture	0		108.0	166.0	/home/egter/Projects/stimuli/pictures/R_S_ILSVRC2015_train_00743002.png	203.46180987358093	0.9025812149047852
168	174.48246693611145	response	0	k		166.0	/home/egter/Projects/stimuli/pictures/R_S_ILSVRC2015_train_00743002.png	204.3535189628601	
169	174.49333906173706	picture	0		72.0	167.0	/home/egter/Projects/stimuli/pictures/S_ILSVRC2015_train_00155004.png	204.36439108848572	0.5973749160766602
169	175.08256196975708	response	0	k		167.0	/home/egter/Projects/stimuli/pictures/S_ILSVRC2015_train_00155004.png	204.95361399650574	
170	175.09071397781372	picture	0		81.0	168.0	/home/egter/Projects/stimuli/pictures/n04350905_11239.JPEG	204.96176600456238	0.6803839206695557
170	175.7575900554657	response	0	k		168.0	/home/egter/Projects/stimuli/pictures/n04350905_11239.JPEG	205.62864208221436	
171	175.77109789848328	picture	0		88.0	169.0	/home/egter/Projects/stimuli/pictures/R_S_ahJft-G235A_122.png	205.64214992523193	0.7363011837005615
171	176.4991638660431	response	0	k		169.0	/home/egter/Projects/stimuli/pictures/R_S_ahJft-G235A_122.png	206.37021589279175	
172	176.50739908218384	picture	0		92.0	170.0	/home/egter/Projects/stimuli/pictures/n02988304_12818.JPEG	206.3784511089325	0.7706608772277832
172	177.2658679485321	response	0	k		170.0	/home/egter/Projects/stimuli/pictures/n02988304_12818.JPEG	207.13691997528076	
173	177.27805995941162	picture	0		90.0	171.0	/home/egter/Projects/stimuli/pictures/R_S_yt-pB9w3AA-woE_37.png	207.14911198616028	0.756904125213623
173	178.02418994903564	response	0	k		171.0	/home/egter/Projects/stimuli/pictures/R_S_yt-pB9w3AA-woE_37.png	207.8952419757843	
174	178.03496408462524	picture	0		82.0	172.0	/home/egter/Projects/stimuli/pictures/n01883070_6403.JPEG	207.9060161113739	0.6807279586791992
174	178.7074110507965	response	0	k		172.0	/home/egter/Projects/stimuli/pictures/n01883070_6403.JPEG	208.57846307754517	
175	178.71569204330444	picture	0		85.0	173.0	/home/egter/Projects/stimuli/pictures/S_nTA7B2uHaCQ_1.png	208.5867440700531	0.708319902420044
175	179.40903997421265	response	0	k		173.0	/home/egter/Projects/stimuli/pictures/S_nTA7B2uHaCQ_1.png	209.2800920009613	
176	179.4240119457245	picture	0		121.0	174.0	/home/egter/Projects/stimuli/pictures/R_S_ILSVRC2015_train_00371010.png	209.29506397247314	1.0137219429016113
176	180.4174509048462	response	0	j		174.0	/home/egter/Projects/stimuli/pictures/R_S_ILSVRC2015_train_00371010.png	210.28850293159485	
177	180.4377338886261	picture	0		77.0	175.0	/home/egter/Projects/stimuli/pictures/n03871628_12731.JPEG	210.30878591537476	0.6458160877227783
177	181.074138879776	response	0	k		175.0	/home/egter/Projects/stimuli/pictures/n03871628_12731.JPEG	210.94519090652466	
178	181.08354997634888	picture	0		91.0	176.0	/home/egter/Projects/stimuli/pictures/R_S_pexels-mart-production-7698911_1.png	210.95460200309753	0.7571380138397217
178	181.83235597610474	response	0	k		176.0	/home/egter/Projects/stimuli/pictures/R_S_pexels-mart-production-7698911_1.png	211.7034080028534	
179	181.8406879901886	picture	0		81.0	177.0	/home/egter/Projects/stimuli/pictures/n03743016_5447.JPEG	211.71174001693726	0.6803250312805176
179	182.50747108459473	response	0	k		177.0	/home/egter/Projects/stimuli/pictures/n03743016_5447.JPEG	212.37852311134338	
180	182.52101302146912	picture	0		77.0	178.0	/home/egter/Projects/stimuli/pictures/n04483307_11897.JPEG	212.39206504821777	0.6458759307861328
180	183.15747094154358	response	0	k		178.0	/home/egter/Projects/stimuli/pictures/n04483307_11897.JPEG	213.02852296829224	
181	183.16688895225525	picture	0		172.0	179.0	/home/egter/Projects/stimuli/pictures/n02417914_11649.JPEG	213.0379409790039	1.4374639987945557
181	184.59082102775574	response	0	k		179.0	/home/egter/Projects/stimuli/pictures/n02417914_11649.JPEG	214.4618730545044	
182	184.6043529510498	stim	0		600.0			214.47540497779846	4.999924898147583
182	185.4168438911438	response	0	k				215.28789591789246	
182	189.59074687957764	response	0	space				219.4617989063263	
