trial_nr	onset	event_type	phase	response	nr_frames	picture_index	picture_file	onset_abs	duration
0	0.016012907028198242	stim	0		419.0			55.012516021728516	3.5239651203155518
0	0.006258964538574219	response	0	j				55.00276207923889	
0	2.2138290405273438	response	0	j				57.21033215522766	
0	3.4970638751983643	response	0	space				58.49356698989868	
2	3.53997802734375	picture	0		187.0	0.0	/home/egter/Projects/stimuli/pictures/n09288635_1535.JPEG	58.53648114204407	1.5653619766235352
2	5.088871955871582	response	0	k		0.0	/home/egter/Projects/stimuli/pictures/n09288635_1535.JPEG	60.0853750705719	
3	5.105340003967285	picture	0		101.0	1.0	/home/egter/Projects/stimuli/pictures/S_wc-ZZxbTv7oc5DQ_10.png	60.1018431186676	0.8443830013275146
3	5.938767910003662	response	0	j		1.0	/home/egter/Projects/stimuli/pictures/S_wc-ZZxbTv7oc5DQ_10.png	60.93527102470398	
4	5.9497230052948	picture	0		175.0	2.0	/home/egter/Projects/stimuli/pictures/R_S_production_ID_5020960.png	60.94622611999512	1.465296983718872
4	7.39708685874939	response	0	k		2.0	/home/egter/Projects/stimuli/pictures/R_S_production_ID_5020960.png	62.39358997344971	
5	7.415019989013672	picture	0		121.0	3.0	/home/egter/Projects/stimuli/pictures/n02480495_26877.JPEG	62.41152310371399	1.015246868133545
5	8.413755893707275	response	0	k		3.0	/home/egter/Projects/stimuli/pictures/n02480495_26877.JPEG	63.41025900840759	
6	8.430266857147217	picture	0		127.0	4.0	/home/egter/Projects/stimuli/pictures/n01990800_8997.JPEG	63.426769971847534	1.0667212009429932
6	9.480411052703857	response	0	k		4.0	/home/egter/Projects/stimuli/pictures/n01990800_8997.JPEG	64.47691416740417	
7	9.49698805809021	picture	0		212.0	5.0	/home/egter/Projects/stimuli/pictures/R_S_video_inspire_oregon_lone-ranch-beach_00015.png	64.49349117279053	1.779047966003418
7	11.255454063415527	response	0	k		5.0	/home/egter/Projects/stimuli/pictures/R_S_video_inspire_oregon_lone-ranch-beach_00015.png	66.25195717811584	
8	11.276036024093628	picture	0		114.0	6.0	/home/egter/Projects/stimuli/pictures/n01704323_5613.JPEG	66.27253913879395	0.9542558193206787
8	12.213753938674927	response	0	k		6.0	/home/egter/Projects/stimuli/pictures/n01704323_5613.JPEG	67.21025705337524	
9	12.230291843414307	picture	0		90.0	7.0	/home/egter/Projects/stimuli/pictures/S_yt-Gc1p5CnDbDY_22.png	67.22679495811462	0.7833352088928223
9	12.965255975723267	response	0	j		7.0	/home/egter/Projects/stimuli/pictures/S_yt-Gc1p5CnDbDY_22.png	67.96175909042358	
10	13.013627052307129	picture	0		92.0	8.0	/home/egter/Projects/stimuli/pictures/R_S_yt-LdHRVIb4nIE_6.png	68.01013016700745	0.7833449840545654
10	13.765389919281006	response	0	j		8.0	/home/egter/Projects/stimuli/pictures/R_S_yt-LdHRVIb4nIE_6.png	68.76189303398132	
11	13.796972036361694	picture	0		85.0	9.0	/home/egter/Projects/stimuli/pictures/n02835271_9551.JPEG	68.79347515106201	0.7429399490356445
11	14.497047901153564	response	0	k		9.0	/home/egter/Projects/stimuli/pictures/n02835271_9551.JPEG	69.49355101585388	
12	14.539911985397339	picture	0		96.0	10.0	/home/egter/Projects/stimuli/pictures/n07711569_9703.JPEG	69.53641510009766	0.8153200149536133
12	15.330384969711304	response	0	k		10.0	/home/egter/Projects/stimuli/pictures/n07711569_9703.JPEG	70.32688808441162	
13	15.355232000350952	picture	0		124.0	11.0	/home/egter/Projects/stimuli/pictures/n07716906_8909.JPEG	70.35173511505127	1.075212001800537
13	16.373743057250977	response	0	k		11.0	/home/egter/Projects/stimuli/pictures/n07716906_8909.JPEG	71.3702461719513	
14	16.43044400215149	picture	0		91.0	12.0	/home/egter/Projects/stimuli/pictures/n02114855_37153.JPEG	71.4269471168518	0.803865909576416
14	17.18040704727173	response	0	k		12.0	/home/egter/Projects/stimuli/pictures/n02114855_37153.JPEG	72.17691016197205	
15	17.234309911727905	picture	0		114.0	13.0	/home/egter/Projects/stimuli/pictures/S_comp_GMT307_136NC_134K_8277_NY_NIGHT_01_v25_SDR_PS_20180907_SDR_2K_AVC.png	72.23081302642822	0.9583399295806885
15	18.180423974990845	response	0	k		13.0	/home/egter/Projects/stimuli/pictures/S_comp_GMT307_136NC_134K_8277_NY_NIGHT_01_v25_SDR_PS_20180907_SDR_2K_AVC.png	73.17692708969116	
16	18.192649841308594	picture	0		151.0	14.0	/home/egter/Projects/stimuli/pictures/S_yt-_F8eDDKtvJ0_82.png	73.18915295600891	1.2985692024230957
16	19.447070837020874	response	0	k		14.0	/home/egter/Projects/stimuli/pictures/S_yt-_F8eDDKtvJ0_82.png	74.44357395172119	
17	19.49121904373169	picture	0		84.0	15.0	/home/egter/Projects/stimuli/pictures/R_S_video-12.png	74.487722158432	0.7361688613891602
17	20.17354702949524	response	0	j		15.0	/home/egter/Projects/stimuli/pictures/R_S_video-12.png	75.17005014419556	
18	20.22738790512085	picture	0		97.0	16.0	/home/egter/Projects/stimuli/pictures/S_ILSVRC2015_train_00408000.png	75.22389101982117	0.8333470821380615
18	21.030632972717285	response	0	j		16.0	/home/egter/Projects/stimuli/pictures/S_ILSVRC2015_train_00408000.png	76.0271360874176	
19	21.06073498725891	picture	0		89.0	17.0	/home/egter/Projects/stimuli/pictures/n03873416_9232.JPEG	76.05723810195923	0.7949340343475342
19	21.79705286026001	response	0	k		17.0	/home/egter/Projects/stimuli/pictures/n03873416_9232.JPEG	76.79355597496033	
20	21.855669021606445	picture	0		96.0	18.0	/home/egter/Projects/stimuli/pictures/n01737021_16424.JPEG	76.85217213630676	0.8161849975585938
20	22.647023916244507	response	0	k		18.0	/home/egter/Projects/stimuli/pictures/n01737021_16424.JPEG	77.64352703094482	
21	22.67185401916504	picture	0		97.0	19.0	/home/egter/Projects/stimuli/pictures/S_yt-xnEuj-JKmqQ_134.png	77.66835713386536	0.8583810329437256
21	23.4720139503479	response	0	k		19.0	/home/egter/Projects/stimuli/pictures/S_yt-xnEuj-JKmqQ_134.png	78.46851706504822	
22	23.530235052108765	picture	0		80.0	20.0	/home/egter/Projects/stimuli/pictures/R_S_yt-Gc1p5CnDbDY_22.png	78.52673816680908	0.703967809677124
22	24.181834936141968	response	0	j		20.0	/home/egter/Projects/stimuli/pictures/R_S_yt-Gc1p5CnDbDY_22.png	79.17833805084229	
23	24.23420286178589	picture	0		125.0	21.0	/home/egter/Projects/stimuli/pictures/n02109525_32141.JPEG	79.2307059764862	1.0464251041412354
23	25.263774871826172	response	0	k		21.0	/home/egter/Projects/stimuli/pictures/n02109525_32141.JPEG	80.26027798652649	
24	25.280627965927124	picture	0		87.0	22.0	/home/egter/Projects/stimuli/pictures/S_ILSVRC2015_train_00371006.png	80.27713108062744	0.7521910667419434
24	25.997026920318604	response	0	j		22.0	/home/egter/Projects/stimuli/pictures/S_ILSVRC2015_train_00371006.png	80.99353003501892	
25	26.032819032669067	picture	0		89.0	23.0	/home/egter/Projects/stimuli/pictures/R_S_yt-2OoHcgS8sss_7.png	81.02932214736938	0.7807509899139404
25	26.75694704055786	response	0	j		23.0	/home/egter/Projects/stimuli/pictures/R_S_yt-2OoHcgS8sss_7.png	81.75345015525818	
26	26.813570022583008	picture	0		68.0	24.0	/home/egter/Projects/stimuli/pictures/S_yt-lkpfs_4qAGE_50.png	81.81007313728333	0.5749869346618652
26	27.365270853042603	response	0	j		24.0	/home/egter/Projects/stimuli/pictures/S_yt-lkpfs_4qAGE_50.png	82.36177396774292	
27	27.388556957244873	picture	0		184.0	25.0	/home/egter/Projects/stimuli/pictures/n01665541_18105.JPEG	82.38506007194519	1.5666680335998535
27	28.91360092163086	response	0	k		25.0	/home/egter/Projects/stimuli/pictures/n01665541_18105.JPEG	83.91010403633118	
28	28.955224990844727	picture	0		79.0	26.0	/home/egter/Projects/stimuli/pictures/S_yt-4r-oovk9JWg_85.png	83.95172810554504	0.6999669075012207
28	29.60536003112793	response	0	j		26.0	/home/egter/Projects/stimuli/pictures/S_yt-4r-oovk9JWg_85.png	84.60186314582825	
29	29.655191898345947	picture	0		95.0	27.0	/home/egter/Projects/stimuli/pictures/n04259630_16135.JPEG	84.65169501304626	0.8083391189575195
29	30.438705921173096	response	0	k		27.0	/home/egter/Projects/stimuli/pictures/n04259630_16135.JPEG	85.43520903587341	
30	30.463531017303467	picture	0		77.0	28.0	/home/egter/Projects/stimuli/pictures/S_yt-ybH6uAiFbjc_273.png	85.46003413200378	0.6502909660339355
30	31.097033977508545	response	0	j		28.0	/home/egter/Projects/stimuli/pictures/S_yt-ybH6uAiFbjc_273.png	86.09353709220886	
31	31.113821983337402	picture	0		97.0	29.0	/home/egter/Projects/stimuli/pictures/n01756291_7815.JPEG	86.11032509803772	0.8080408573150635
31	31.913672924041748	response	0	k		29.0	/home/egter/Projects/stimuli/pictures/n01756291_7815.JPEG	86.91017603874207	
32	31.921862840652466	picture	0		211.0	30.0	/home/egter/Projects/stimuli/pictures/n03843555_13818.JPEG	86.91836595535278	1.7916860580444336
32	33.67197895050049	response	0	k		30.0	/home/egter/Projects/stimuli/pictures/n03843555_13818.JPEG	88.6684820652008	
33	33.7135488986969	picture	0		93.0	31.0	/home/egter/Projects/stimuli/pictures/n04596742_23019.JPEG	88.71005201339722	0.8261771202087402
33	34.48027586936951	response	0	k		31.0	/home/egter/Projects/stimuli/pictures/n04596742_23019.JPEG	89.47677898406982	
34	34.53972601890564	picture	0		135.0	32.0	/home/egter/Projects/stimuli/pictures/n03692522_9753.JPEG	89.53622913360596	1.1666169166564941
34	35.65534806251526	response	0	k		32.0	/home/egter/Projects/stimuli/pictures/n03692522_9753.JPEG	90.65185117721558	
35	35.706342935562134	picture	0		89.0	33.0	/home/egter/Projects/stimuli/pictures/S_pexels-mikhail-nilov-8410088.png	90.70284605026245	0.7654929161071777
35	36.43859601020813	response	0	j		33.0	/home/egter/Projects/stimuli/pictures/S_pexels-mikhail-nilov-8410088.png	91.43509912490845	
36	36.47183585166931	picture	0		84.0	34.0	/home/egter/Projects/stimuli/pictures/n02229544_23678.JPEG	91.46833896636963	0.7503550052642822
36	37.15682291984558	response	0	k		34.0	/home/egter/Projects/stimuli/pictures/n02229544_23678.JPEG	92.1533260345459	
37	37.222190856933594	picture	0		105.0	35.0	/home/egter/Projects/stimuli/pictures/n01914609_785.JPEG	92.21869397163391	0.883234977722168
37	38.08859300613403	response	0	k		35.0	/home/egter/Projects/stimuli/pictures/n01914609_785.JPEG	93.08509612083435	
38	38.10542583465576	picture	0		82.0	36.0	/home/egter/Projects/stimuli/pictures/R_S_ILSVRC2015_train_00364000.png	93.10192894935608	0.7163820266723633
38	38.77358603477478	response	0	j		36.0	/home/egter/Projects/stimuli/pictures/R_S_ILSVRC2015_train_00364000.png	93.7700891494751	
39	38.821807861328125	picture	0		83.0	37.0	/home/egter/Projects/stimuli/pictures/S_yt-OTNdgakSIJE_97.png	93.81831097602844	0.7250330448150635
39	39.5052969455719	response	0	j		37.0	/home/egter/Projects/stimuli/pictures/S_yt-OTNdgakSIJE_97.png	94.50180006027222	
40	39.54684090614319	picture	0		78.0	38.0	/home/egter/Projects/stimuli/pictures/n01443537_2772.JPEG	94.5433440208435	0.674968957901001
40	40.18195199966431	response	0	k		38.0	/home/egter/Projects/stimuli/pictures/n01443537_2772.JPEG	95.17845511436462	
41	40.22180986404419	picture	0		77.0	39.0	/home/egter/Projects/stimuli/pictures/R_S_yt-H-qQ0oE1kwM_6.png	95.2183129787445	0.6833221912384033
41	40.85530090332031	response	0	j		39.0	/home/egter/Projects/stimuli/pictures/R_S_yt-H-qQ0oE1kwM_6.png	95.85180401802063	
42	40.90513205528259	picture	0		80.0	40.0	/home/egter/Projects/stimuli/pictures/S_yt-ph1AkIToO4E_46.png	95.90163516998291	0.7108519077301025
42	41.55678200721741	response	0	j		40.0	/home/egter/Projects/stimuli/pictures/S_yt-ph1AkIToO4E_46.png	96.55328512191772	
43	41.615983963012695	picture	0		89.0	41.0	/home/egter/Projects/stimuli/pictures/R_S_yt-nlfwzxlwRfk_12.png	96.61248707771301	0.7810730934143066
43	42.34695601463318	response	0	j		41.0	/home/egter/Projects/stimuli/pictures/R_S_yt-nlfwzxlwRfk_12.png	97.3434591293335	
44	42.397057056427	picture	0		103.0	42.0	/home/egter/Projects/stimuli/pictures/n02086079_15865.JPEG	97.39356017112732	0.8925628662109375
44	43.24697184562683	response	0	k		42.0	/home/egter/Projects/stimuli/pictures/n02086079_15865.JPEG	98.24347496032715	
45	43.28961992263794	picture	0		75.0	43.0	/home/egter/Projects/stimuli/pictures/S_ILSVRC2015_train_00682003.png	98.28612303733826	0.6249580383300781
45	43.90526795387268	response	0	j		43.0	/home/egter/Projects/stimuli/pictures/S_ILSVRC2015_train_00682003.png	98.901771068573	
46	43.91457796096802	picture	0		100.0	44.0	/home/egter/Projects/stimuli/pictures/S_yt-G_eNNzNB-hU_1.png	98.91108107566833	0.8333098888397217
46	44.7385778427124	response	0	k		44.0	/home/egter/Projects/stimuli/pictures/S_yt-G_eNNzNB-hU_1.png	99.73508095741272	
47	44.74788784980774	picture	0		294.0	45.0	/home/egter/Projects/stimuli/pictures/n02437616_6933.JPEG	99.74439096450806	2.49061918258667
47	47.18183398246765	response	0	k		45.0	/home/egter/Projects/stimuli/pictures/n02437616_6933.JPEG	102.17833709716797	
48	47.23850703239441	picture	0		87.0	46.0	/home/egter/Projects/stimuli/pictures/n03196217_4417.JPEG	102.23501014709473	0.7524569034576416
48	47.95527100563049	response	0	k		46.0	/home/egter/Projects/stimuli/pictures/n03196217_4417.JPEG	102.95177412033081	
49	47.99096393585205	picture	0		72.0	47.0	/home/egter/Projects/stimuli/pictures/S_yt-BiBS8EO5GPc_4.png	102.98746705055237	0.6320030689239502
49	48.57347083091736	response	0	j		47.0	/home/egter/Projects/stimuli/pictures/S_yt-BiBS8EO5GPc_4.png	103.56997394561768	
50	48.622967004776	picture	0		92.0	48.0	/home/egter/Projects/stimuli/pictures/S_yt-vHS71x_O6sY_90.png	103.61947011947632	0.798792839050293
50	49.373430013656616	response	0	k		48.0	/home/egter/Projects/stimuli/pictures/S_yt-vHS71x_O6sY_90.png	104.36993312835693	
51	49.421759843826294	picture	0		96.0	49.0	/home/egter/Projects/stimuli/pictures/n02500267_8073.JPEG	104.41826295852661	0.8336100578308105
51	50.21359205245972	response	0	k		49.0	/home/egter/Projects/stimuli/pictures/n02500267_8073.JPEG	105.21009516716003	
52	50.255369901657104	picture	0		83.0	50.0	/home/egter/Projects/stimuli/pictures/n01807496_28363.JPEG	105.25187301635742	0.7000789642333984
52	50.938602924346924	response	0	k		50.0	/home/egter/Projects/stimuli/pictures/n01807496_28363.JPEG	105.93510603904724	
53	50.9554488658905	picture	0		92.0	51.0	/home/egter/Projects/stimuli/pictures/S_pexels-koolshooters-7691440.png	105.95195198059082	0.7749900817871094
53	51.71357798576355	response	0	j		51.0	/home/egter/Projects/stimuli/pictures/S_pexels-koolshooters-7691440.png	106.71008110046387	
54	51.73043894767761	picture	0		88.0	52.0	/home/egter/Projects/stimuli/pictures/R_S_yt-G_eNNzNB-hU_1.png	106.72694206237793	0.8021659851074219
54	52.48025584220886	response	0	j		52.0	/home/egter/Projects/stimuli/pictures/R_S_yt-G_eNNzNB-hU_1.png	107.47675895690918	
55	52.532604932785034	picture	0		212.0	53.0	/home/egter/Projects/stimuli/pictures/S_ILSVRC2015_train_00682009.png	107.52910804748535	1.805807113647461
55	54.28854703903198	response	0	j		53.0	/home/egter/Projects/stimuli/pictures/S_ILSVRC2015_train_00682009.png	109.2850501537323	
56	54.338412046432495	picture	0		85.0	54.0	/home/egter/Projects/stimuli/pictures/S_yt-zKnjBBYWe90_369.png	109.33491516113281	0.7357969284057617
56	55.03852295875549	response	0	j		54.0	/home/egter/Projects/stimuli/pictures/S_yt-zKnjBBYWe90_369.png	110.03502607345581	
57	55.07420897483826	picture	0		83.0	55.0	/home/egter/Projects/stimuli/pictures/n04238763_5156.JPEG	110.07071208953857	0.7083649635314941
57	55.75521802902222	response	0	k		55.0	/home/egter/Projects/stimuli/pictures/n04238763_5156.JPEG	110.75172114372253	
58	55.78257393836975	picture	0		92.0	56.0	/home/egter/Projects/stimuli/pictures/S_ILSVRC2015_train_00044004.png	110.77907705307007	0.8142030239105225
58	56.53851389884949	response	0	j		56.0	/home/egter/Projects/stimuli/pictures/S_ILSVRC2015_train_00044004.png	111.5350170135498	
59	56.59677696228027	picture	0		92.0	57.0	/home/egter/Projects/stimuli/pictures/n03977966_2901.JPEG	111.59328007698059	0.7752499580383301
59	57.35523796081543	response	0	k		57.0	/home/egter/Projects/stimuli/pictures/n03977966_2901.JPEG	112.35174107551575	
60	57.3720269203186	picture	0		96.0	58.0	/home/egter/Projects/stimuli/pictures/n04311174_8810.JPEG	112.36853003501892	0.8080711364746094
60	58.16353702545166	response	0	k		58.0	/home/egter/Projects/stimuli/pictures/n04311174_8810.JPEG	113.16004014015198	
61	58.18009805679321	picture	0		145.0	59.0	/home/egter/Projects/stimuli/pictures/S_production_ID_5020960.png	113.17660117149353	1.249992847442627
61	59.373414039611816	response	0	k		59.0	/home/egter/Projects/stimuli/pictures/S_production_ID_5020960.png	114.36991715431213	
62	59.43009090423584	picture	0		202.0	60.0	/home/egter/Projects/stimuli/pictures/n02087046_6361.JPEG	114.42659401893616	1.7204711437225342
62	61.10518789291382	response	0	k		60.0	/home/egter/Projects/stimuli/pictures/n02087046_6361.JPEG	116.10169100761414	
63	61.150562047958374	picture	0		81.0	61.0	/home/egter/Projects/stimuli/pictures/S_pexels-rodnae-productions-5993671.png	116.14706516265869	0.7044928073883057
63	61.813551902770996	response	0	j		61.0	/home/egter/Projects/stimuli/pictures/S_pexels-rodnae-productions-5993671.png	116.81005501747131	
64	61.85505485534668	picture	0		199.0	62.0	/home/egter/Projects/stimuli/pictures/S_ILSVRC2015_train_00447000.png	116.851557970047	1.7000231742858887
64	63.50515794754028	response	0	j		62.0	/home/egter/Projects/stimuli/pictures/S_ILSVRC2015_train_00447000.png	118.5016610622406	
65	63.55507802963257	picture	0		79.0	63.0	/home/egter/Projects/stimuli/pictures/R_S_cST9H3zu3zQ_126.png	118.55158114433289	0.6666698455810547
65	64.19837498664856	response	0	j		63.0	/home/egter/Projects/stimuli/pictures/R_S_cST9H3zu3zQ_126.png	119.19487810134888	
66	64.22174787521362	picture	0		108.0	64.0	/home/egter/Projects/stimuli/pictures/R_S_pexels-kindel-media-7147375.png	119.21825098991394	0.9082880020141602
66	65.11356997489929	response	0	j		64.0	/home/egter/Projects/stimuli/pictures/R_S_pexels-kindel-media-7147375.png	120.11007308959961	
67	65.13003587722778	picture	0		77.0	65.0	/home/egter/Projects/stimuli/pictures/R_S_pexels-koolshooters-7327401_1.png	120.1265389919281	0.645449161529541
67	65.7635178565979	response	0	j		65.0	/home/egter/Projects/stimuli/pictures/R_S_pexels-koolshooters-7327401_1.png	120.76002097129822	
68	65.77548503875732	picture	0		107.0	66.0	/home/egter/Projects/stimuli/pictures/R_S_yt-z5rxY-WhFNw_15.png	120.77198815345764	0.9236018657684326
68	66.65512490272522	response	0	j		66.0	/home/egter/Projects/stimuli/pictures/R_S_yt-z5rxY-WhFNw_15.png	121.65162801742554	
69	66.69908690452576	picture	0		92.0	67.0	/home/egter/Projects/stimuli/pictures/n04005630_119931.JPEG	121.69559001922607	0.8059499263763428
69	67.45520496368408	response	0	k		67.0	/home/egter/Projects/stimuli/pictures/n04005630_119931.JPEG	122.4517080783844	
70	67.5050368309021	picture	0		79.0	68.0	/home/egter/Projects/stimuli/pictures/n01530575_7135.JPEG	122.50153994560242	0.6752071380615234
70	68.15515995025635	response	0	k		68.0	/home/egter/Projects/stimuli/pictures/n01530575_7135.JPEG	123.15166306495667	
71	68.18024396896362	picture	0		245.0	69.0	/home/egter/Projects/stimuli/pictures/R_S_yt-V4ptcLegCiw_161.png	123.17674708366394	2.067478895187378
71	70.21350383758545	response	0	j		69.0	/home/egter/Projects/stimuli/pictures/R_S_yt-V4ptcLegCiw_161.png	125.21000695228577	
72	70.247722864151	picture	0		86.0	70.0	/home/egter/Projects/stimuli/pictures/R_S_ILSVRC2015_train_00044004.png	125.24422597885132	0.7499420642852783
72	70.95518088340759	response	0	j		70.0	/home/egter/Projects/stimuli/pictures/R_S_ILSVRC2015_train_00044004.png	125.95168399810791	
73	70.99766492843628	picture	0		86.0	71.0	/home/egter/Projects/stimuli/pictures/n01744401_1517.JPEG	125.9941680431366	0.7223861217498779
73	71.70520186424255	response	0	k		71.0	/home/egter/Projects/stimuli/pictures/n01744401_1517.JPEG	126.70170497894287	
74	71.72005105018616	picture	0		88.0	72.0	/home/egter/Projects/stimuli/pictures/n04467665_83611.JPEG	126.71655416488647	0.7516279220581055
74	72.44683289527893	response	0	k		72.0	/home/egter/Projects/stimuli/pictures/n04467665_83611.JPEG	127.44333600997925	
75	72.47167897224426	picture	0		86.0	73.0	/home/egter/Projects/stimuli/pictures/n02119022_31789.JPEG	127.46818208694458	0.7500360012054443
75	73.17329001426697	response	0	k		73.0	/home/egter/Projects/stimuli/pictures/n02119022_31789.JPEG	128.16979312896729	
76	73.2217149734497	picture	0		76.0	74.0	/home/egter/Projects/stimuli/pictures/n02114712_17436.JPEG	128.21821808815002	0.6583099365234375
76	73.84681701660156	response	0	k		74.0	/home/egter/Projects/stimuli/pictures/n02114712_17436.JPEG	128.84332013130188	
77	73.88002490997314	picture	0		99.0	75.0	/home/egter/Projects/stimuli/pictures/S_yt-sTBOjPxix5c_1072.png	128.87652802467346	0.8606541156768799
77	74.69680595397949	response	0	j		75.0	/home/egter/Projects/stimuli/pictures/S_yt-sTBOjPxix5c_1072.png	129.6933090686798	
78	74.74067902565002	picture	0		296.0	76.0	/home/egter/Projects/stimuli/pictures/n02114712_9554.JPEG	129.73718214035034	2.499990940093994
78	77.19002795219421	response	0	j		76.0	/home/egter/Projects/stimuli/pictures/n02114712_9554.JPEG	132.18653106689453	
79	77.24066996574402	picture	0		85.0	77.0	/home/egter/Projects/stimuli/pictures/R_S_yt-ol2u_-gd0-o_13.png	132.23717308044434	0.7361280918121338
79	77.93845891952515	response	0	j		77.0	/home/egter/Projects/stimuli/pictures/R_S_yt-ol2u_-gd0-o_13.png	132.93496203422546	
80	77.97679805755615	picture	0		124.0	78.0	/home/egter/Projects/stimuli/pictures/n03134739_6728.JPEG	132.97330117225647	1.0416409969329834
80	78.99836206436157	response	0	k		78.0	/home/egter/Projects/stimuli/pictures/n03134739_6728.JPEG	133.9948651790619	
81	79.01843905448914	picture	0		145.0	79.0	/home/egter/Projects/stimuli/pictures/S_yt-B7ZRYVhfW2U_52.png	134.01494216918945	1.249997854232788
81	80.22181105613708	response	0	j		79.0	/home/egter/Projects/stimuli/pictures/S_yt-B7ZRYVhfW2U_52.png	135.2183141708374	
82	80.26843690872192	picture	0		133.0	80.0	/home/egter/Projects/stimuli/pictures/S_flickr-132148318@N02-26685719802_3.png	135.26494002342224	1.1458239555358887
82	81.37178087234497	response	0	k		80.0	/home/egter/Projects/stimuli/pictures/S_flickr-132148318@N02-26685719802_3.png	136.3682839870453	
83	81.41426086425781	picture	0		93.0	81.0	/home/egter/Projects/stimuli/pictures/n04179913_7268.JPEG	136.41076397895813	0.8195760250091553
83	82.17331004142761	response	0	k		81.0	/home/egter/Projects/stimuli/pictures/n04179913_7268.JPEG	137.16981315612793	
84	82.23383688926697	picture	0		88.0	82.0	/home/egter/Projects/stimuli/pictures/R_S_yt-FhnT_42bV7M_11.png	137.23034000396729	0.771414041519165
84	82.95510792732239	response	0	j		82.0	/home/egter/Projects/stimuli/pictures/R_S_yt-FhnT_42bV7M_11.png	137.9516110420227	
85	83.00525093078613	picture	0		130.0	83.0	/home/egter/Projects/stimuli/pictures/R_S_yt--_ZMybcaUOw_254.png	138.00175404548645	1.117276906967163
85	84.08005690574646	response	0	j		83.0	/home/egter/Projects/stimuli/pictures/R_S_yt--_ZMybcaUOw_254.png	139.07656002044678	
86	84.1225278377533	picture	0		86.0	84.0	/home/egter/Projects/stimuli/pictures/R_S_yt-5AI_SyK5sg8_112.png	139.1190309524536	0.7241551876068115
86	84.83009099960327	response	0	j		84.0	/home/egter/Projects/stimuli/pictures/R_S_yt-5AI_SyK5sg8_112.png	139.8265941143036	
87	84.84668302536011	picture	0		100.0	85.0	/home/egter/Projects/stimuli/pictures/n07871810_4559.JPEG	139.84318614006042	0.8416290283203125
87	85.67178201675415	response	0	k		85.0	/home/egter/Projects/stimuli/pictures/n07871810_4559.JPEG	140.66828513145447	
88	85.68831205368042	picture	0		102.0	86.0	/home/egter/Projects/stimuli/pictures/R_S_yt-TSSPDwAQLXs_158.png	140.68481516838074	0.8786509037017822
88	86.53009486198425	response	0	j		86.0	/home/egter/Projects/stimuli/pictures/R_S_yt-TSSPDwAQLXs_158.png	141.52659797668457	
89	86.5669629573822	picture	0		93.0	87.0	/home/egter/Projects/stimuli/pictures/n04259630_685.JPEG	141.56346607208252	0.8130190372467041
89	87.3300850391388	response	0	k		87.0	/home/egter/Projects/stimuli/pictures/n04259630_685.JPEG	142.3265881538391	
90	87.3799819946289	picture	0		146.0	88.0	/home/egter/Projects/stimuli/pictures/n03633091_24188.JPEG	142.37648510932922	1.3082728385925293
90	88.5815999507904	response	0	k		88.0	/home/egter/Projects/stimuli/pictures/n03633091_24188.JPEG	143.57810306549072	
91	88.68825483322144	picture	0		167.0	89.0	/home/egter/Projects/stimuli/pictures/n04599235_4899.JPEG	143.68475794792175	1.4342451095581055
91	90.0717339515686	response	0	k		89.0	/home/egter/Projects/stimuli/pictures/n04599235_4899.JPEG	145.06823706626892	
92	90.12249994277954	picture	0		65.0	90.0	/home/egter/Projects/stimuli/pictures/n02168699_151.JPEG	145.11900305747986	0.5833549499511719
92	90.65512895584106	response	0	k		90.0	/home/egter/Projects/stimuli/pictures/n02168699_151.JPEG	145.65163207054138	
93	90.70585489273071	picture	0		79.0	91.0	/home/egter/Projects/stimuli/pictures/S_pexels-koolshooters-7327401.png	145.70235800743103	0.6906850337982178
93	91.3550660610199	response	0	j		91.0	/home/egter/Projects/stimuli/pictures/S_pexels-koolshooters-7327401.png	146.35156917572021	
94	91.39653992652893	picture	0		79.0	92.0	/home/egter/Projects/stimuli/pictures/S_yt-nlfwzxlwRfk_12.png	146.39304304122925	0.6919820308685303
94	92.04673790931702	response	0	j		92.0	/home/egter/Projects/stimuli/pictures/S_yt-nlfwzxlwRfk_12.png	147.04324102401733	
95	92.08852195739746	picture	0		90.0	93.0	/home/egter/Projects/stimuli/pictures/S_production_ID_3944248.png	147.08502507209778	0.7839460372924805
95	92.83009004592896	response	0	j		93.0	/home/egter/Projects/stimuli/pictures/S_production_ID_3944248.png	147.82659316062927	
96	92.87246799468994	picture	0		81.0	94.0	/home/egter/Projects/stimuli/pictures/n04146614_1829.JPEG	147.86897110939026	0.7014179229736328
96	93.53840398788452	response	0	k		94.0	/home/egter/Projects/stimuli/pictures/n04146614_1829.JPEG	148.53490710258484	
97	93.57388591766357	picture	0		74.0	95.0	/home/egter/Projects/stimuli/pictures/R_S_yt-CR86bVrRwfo_13.png	148.5703890323639	0.6477410793304443
97	94.18007183074951	response	0	j		95.0	/home/egter/Projects/stimuli/pictures/R_S_yt-CR86bVrRwfo_13.png	149.17657494544983	
98	94.22162699699402	picture	0		90.0	96.0	/home/egter/Projects/stimuli/pictures/n02492660_5738.JPEG	149.21813011169434	0.7754189968109131
98	94.9633469581604	response	0	k		96.0	/home/egter/Projects/stimuli/pictures/n02492660_5738.JPEG	149.95985007286072	
99	94.99704599380493	picture	0		94.0	97.0	/home/egter/Projects/stimuli/pictures/R_S_bing-www_dailymotion_com_video_x64c56w_164.png	149.99354910850525	0.791424036026001
99	95.77170491218567	response	0	j		97.0	/home/egter/Projects/stimuli/pictures/R_S_bing-www_dailymotion_com_video_x64c56w_164.png	150.768208026886	
100	95.78847002983093	picture	0		244.0	98.0	/home/egter/Projects/stimuli/pictures/n02423022_7831.JPEG	150.78497314453125	2.0581369400024414
100	97.80658006668091	response	0	j		98.0	/home/egter/Projects/stimuli/pictures/n02423022_7831.JPEG	152.80308318138123	
101	97.84660696983337	picture	0		132.0	99.0	/home/egter/Projects/stimuli/pictures/S_ILSVRC2015_train_00661004.png	152.8431100845337	1.1166369915008545
101	98.93839383125305	response	0	k		99.0	/home/egter/Projects/stimuli/pictures/S_ILSVRC2015_train_00661004.png	153.93489694595337	
102	98.96324396133423	picture	0		121.0	100.0	/home/egter/Projects/stimuli/pictures/S_ILSVRC2015_train_00247001.png	153.95974707603455	1.110581874847412
102	99.9635899066925	response	0	k		100.0	/home/egter/Projects/stimuli/pictures/S_ILSVRC2015_train_00247001.png	154.96009302139282	
103	100.07382583618164	picture	0		91.0	101.0	/home/egter/Projects/stimuli/pictures/S_yt-tQ-hgwTcMqU_43.png	155.07032895088196	0.7985730171203613
103	100.82172584533691	response	0	j		101.0	/home/egter/Projects/stimuli/pictures/S_yt-tQ-hgwTcMqU_43.png	155.81822896003723	
104	100.872398853302	picture	0		87.0	102.0	/home/egter/Projects/stimuli/pictures/S_yt-Gam0NeyyG8w_22.png	155.86890196800232	0.7658400535583496
104	101.58152794837952	response	0	j		102.0	/home/egter/Projects/stimuli/pictures/S_yt-Gam0NeyyG8w_22.png	156.57803106307983	
105	101.63823890686035	picture	0		231.0	103.0	/home/egter/Projects/stimuli/pictures/R_S_ILSVRC2015_train_00574000.png	156.63474202156067	1.9333300590515137
105	103.55501890182495	response	0	j		103.0	/home/egter/Projects/stimuli/pictures/R_S_ILSVRC2015_train_00574000.png	158.55152201652527	
106	103.57156896591187	picture	0		91.0	104.0	/home/egter/Projects/stimuli/pictures/n04335435_7886.JPEG	158.56807208061218	0.7666270732879639
106	104.32171702384949	response	0	k		104.0	/home/egter/Projects/stimuli/pictures/n04335435_7886.JPEG	159.3182201385498	
107	104.33819603919983	picture	0		150.0	105.0	/home/egter/Projects/stimuli/pictures/R_S_yt-QJ2k6vA8aco_12.png	159.33469915390015	1.2833609580993652
107	105.58004403114319	response	0	k		105.0	/home/egter/Projects/stimuli/pictures/R_S_yt-QJ2k6vA8aco_12.png	160.5765471458435	
108	105.6215569972992	picture	0		80.0	106.0	/home/egter/Projects/stimuli/pictures/R_S_yt-Jro_TRE8NUQ_234.png	160.6180601119995	0.6999950408935547
108	106.28002095222473	response	0	j		106.0	/home/egter/Projects/stimuli/pictures/R_S_yt-Jro_TRE8NUQ_234.png	161.27652406692505	
109	106.32155203819275	picture	0		123.0	107.0	/home/egter/Projects/stimuli/pictures/S_yt-w5lh_rKyKtE_21.png	161.31805515289307	1.05830979347229
109	107.33832597732544	response	0	j		107.0	/home/egter/Projects/stimuli/pictures/S_yt-w5lh_rKyKtE_21.png	162.33482909202576	
110	107.37986183166504	picture	0		336.0	108.0	/home/egter/Projects/stimuli/pictures/S_yt-49utbRVtx1U_16.png	162.37636494636536	2.8083012104034424
110	110.1716558933258	response	0	k		108.0	/home/egter/Projects/stimuli/pictures/S_yt-49utbRVtx1U_16.png	165.16815900802612	
111	110.18816304206848	picture	0		77.0	109.0	/home/egter/Projects/stimuli/pictures/R_S_yt-PyO8-WsbaLU_43.png	165.1846661567688	0.6425678730010986
111	110.81478500366211	response	0	j		109.0	/home/egter/Projects/stimuli/pictures/R_S_yt-PyO8-WsbaLU_43.png	165.81128811836243	
112	110.83073091506958	picture	0		103.0	110.0	/home/egter/Projects/stimuli/pictures/n01737021_211.JPEG	165.8272340297699	0.865800142288208
112	111.68000602722168	response	0	k		110.0	/home/egter/Projects/stimuli/pictures/n01737021_211.JPEG	166.676509141922	
113	111.69653105735779	picture	0		136.0	111.0	/home/egter/Projects/stimuli/pictures/S_yt-QJ2k6vA8aco_12.png	166.6930341720581	1.1583409309387207
113	112.82165503501892	response	0	k		111.0	/home/egter/Projects/stimuli/pictures/S_yt-QJ2k6vA8aco_12.png	167.81815814971924	
114	112.85487198829651	picture	0		128.0	112.0	/home/egter/Projects/stimuli/pictures/n09288635_1011.JPEG	167.85137510299683	1.0938289165496826
114	113.91405296325684	response	0	k		112.0	/home/egter/Projects/stimuli/pictures/n09288635_1011.JPEG	168.91055607795715	
115	113.94870090484619	picture	0		132.0	113.0	/home/egter/Projects/stimuli/pictures/S_production_ID_4325503.png	168.9452040195465	1.1395530700683594
115	115.03832006454468	response	0	k		113.0	/home/egter/Projects/stimuli/pictures/S_production_ID_4325503.png	170.034823179245	
116	115.08825397491455	picture	0		183.0	114.0	/home/egter/Projects/stimuli/pictures/S_yt-D99Pp5JlUQI_47.png	170.08475708961487	1.5687189102172852
116	116.59817099571228	response	0	k		114.0	/home/egter/Projects/stimuli/pictures/S_yt-D99Pp5JlUQI_47.png	171.5946741104126	
117	116.65697288513184	picture	0		247.0	115.0	/home/egter/Projects/stimuli/pictures/n04326547_7194.JPEG	171.65347599983215	2.064497947692871
117	118.70572805404663	response	0	j		115.0	/home/egter/Projects/stimuli/pictures/n04326547_7194.JPEG	173.70223116874695	
118	118.7214708328247	picture	0		91.0	116.0	/home/egter/Projects/stimuli/pictures/S_yt-YxVIDs9oN50_3.png	173.71797394752502	0.7666611671447754
118	119.47163891792297	response	0	k		116.0	/home/egter/Projects/stimuli/pictures/S_yt-YxVIDs9oN50_3.png	174.4681420326233	
119	119.48813199996948	picture	0		92.0	117.0	/home/egter/Projects/stimuli/pictures/S_yt-1RGHXtepryM_44.png	174.4846351146698	0.8250219821929932
119	120.24730706214905	response	0	j		117.0	/home/egter/Projects/stimuli/pictures/S_yt-1RGHXtepryM_44.png	175.24381017684937	
120	120.31315398216248	picture	0		87.0	118.0	/home/egter/Projects/stimuli/pictures/n02484975_6799.JPEG	175.3096570968628	0.7604708671569824
120	121.02320694923401	response	0	k		118.0	/home/egter/Projects/stimuli/pictures/n02484975_6799.JPEG	176.01971006393433	
121	121.07362484931946	picture	0		95.0	119.0	/home/egter/Projects/stimuli/pictures/n02099267_5073.JPEG	176.07012796401978	0.8263661861419678
121	121.85495901107788	response	0	k		119.0	/home/egter/Projects/stimuli/pictures/n02099267_5073.JPEG	176.8514621257782	
122	121.89999103546143	picture	0		89.0	120.0	/home/egter/Projects/stimuli/pictures/R_S_pexels-rodnae-productions-5993671.png	176.89649415016174	0.7714529037475586
122	122.62988901138306	response	0	j		120.0	/home/egter/Projects/stimuli/pictures/R_S_pexels-rodnae-productions-5993671.png	177.62639212608337	
123	122.67144393920898	picture	0		70.0	121.0	/home/egter/Projects/stimuli/pictures/n04238763_7509.JPEG	177.6679470539093	0.6104469299316406
123	123.24734497070312	response	0	k		121.0	/home/egter/Projects/stimuli/pictures/n04238763_7509.JPEG	178.24384808540344	
124	123.28189086914062	picture	0		81.0	122.0	/home/egter/Projects/stimuli/pictures/S_yt-Jro_TRE8NUQ_234.png	178.27839398384094	0.7152771949768066
124	123.94661498069763	response	0	j		122.0	/home/egter/Projects/stimuli/pictures/S_yt-Jro_TRE8NUQ_234.png	178.94311809539795	
125	123.99716806411743	picture	0		113.0	123.0	/home/egter/Projects/stimuli/pictures/S_yt-ol2u_-gd0-o_13.png	178.99367117881775	0.9444489479064941
125	124.92995500564575	response	0	j		123.0	/home/egter/Projects/stimuli/pictures/S_yt-ol2u_-gd0-o_13.png	179.92645812034607	
126	124.94161701202393	picture	0		98.0	124.0	/home/egter/Projects/stimuli/pictures/R_S_yt--Ra34zJ69AU_68.png	179.93812012672424	0.8215279579162598
126	125.74734592437744	response	0	j		124.0	/home/egter/Projects/stimuli/pictures/R_S_yt--Ra34zJ69AU_68.png	180.74384903907776	
127	125.76314496994019	picture	0		120.0	125.0	/home/egter/Projects/stimuli/pictures/S_yt-vOC7cBvdSw8_11.png	180.7596480846405	1.0187640190124512
127	126.7549500465393	response	0	k		125.0	/home/egter/Projects/stimuli/pictures/S_yt-vOC7cBvdSw8_11.png	181.75145316123962	
128	126.78190898895264	picture	0		96.0	126.0	/home/egter/Projects/stimuli/pictures/S_yt-ChAhBD9LrsU_223.png	181.77841210365295	0.8263928890228271
128	127.57158994674683	response	0	k		126.0	/home/egter/Projects/stimuli/pictures/S_yt-ChAhBD9LrsU_223.png	182.56809306144714	
129	127.60830187797546	picture	0		221.0	127.0	/home/egter/Projects/stimuli/pictures/S_yt-gzjV6YoK6X0_3.png	182.60480499267578	1.8548181056976318
129	129.438325881958	response	0	j		127.0	/home/egter/Projects/stimuli/pictures/S_yt-gzjV6YoK6X0_3.png	184.43482899665833	
130	129.4631199836731	picture	0		138.0	128.0	/home/egter/Projects/stimuli/pictures/S_ILSVRC2015_train_00479003.png	184.4596230983734	1.1937320232391357
130	130.5981650352478	response	0	j		128.0	/home/egter/Projects/stimuli/pictures/S_ILSVRC2015_train_00479003.png	185.59466814994812	
131	130.65685200691223	picture	0		83.0	129.0	/home/egter/Projects/stimuli/pictures/R_S_yt-HMAa2QbfFPI_216.png	185.65335512161255	0.7228858470916748
131	131.33826303482056	response	0	j		129.0	/home/egter/Projects/stimuli/pictures/R_S_yt-HMAa2QbfFPI_216.png	186.33476614952087	
132	131.3797378540039	picture	0		109.0	130.0	/home/egter/Projects/stimuli/pictures/n02134418_178.JPEG	186.37624096870422	0.9089970588684082
132	132.27990198135376	response	0	k		130.0	/home/egter/Projects/stimuli/pictures/n02134418_178.JPEG	187.27640509605408	
133	132.28873491287231	picture	0		154.0	131.0	/home/egter/Projects/stimuli/pictures/R_S_yt-XY1n_Oze1kQ_9.png	187.28523802757263	1.2916910648345947
133	133.56323385238647	response	0	j		131.0	/home/egter/Projects/stimuli/pictures/R_S_yt-XY1n_Oze1kQ_9.png	188.5597369670868	
134	133.5804259777069	picture	0		79.0	132.0	/home/egter/Projects/stimuli/pictures/S_yt-KK6fVRAMm-c_476.png	188.57692909240723	0.6743459701538086
134	134.22986793518066	response	0	j		132.0	/home/egter/Projects/stimuli/pictures/S_yt-KK6fVRAMm-c_476.png	189.22637104988098	
135	134.25477194786072	picture	0		96.0	133.0	/home/egter/Projects/stimuli/pictures/n04613696_7610.JPEG	189.25127506256104	0.8082900047302246
135	135.0465030670166	response	0	k		133.0	/home/egter/Projects/stimuli/pictures/n04613696_7610.JPEG	190.04300618171692	
136	135.06306195259094	picture	0		140.0	134.0	/home/egter/Projects/stimuli/pictures/n04204347_12330.JPEG	190.05956506729126	1.170093059539795
136	136.2146668434143	response	0	k		134.0	/home/egter/Projects/stimuli/pictures/n04204347_12330.JPEG	191.21116995811462	
137	136.23315501213074	picture	0		83.0	135.0	/home/egter/Projects/stimuli/pictures/R_S_ILSVRC2015_train_00743000.png	191.22965812683105	0.6965980529785156
137	136.91387391090393	response	0	j		135.0	/home/egter/Projects/stimuli/pictures/R_S_ILSVRC2015_train_00743000.png	191.91037702560425	
138	136.92975306510925	picture	0		146.0	136.0	/home/egter/Projects/stimuli/pictures/n01641577_2633.JPEG	191.92625617980957	1.22005295753479
138	138.13820600509644	response	0	k		136.0	/home/egter/Projects/stimuli/pictures/n01641577_2633.JPEG	193.13470911979675	
139	138.14980602264404	picture	0		102.0	137.0	/home/egter/Projects/stimuli/pictures/R_S_yt-NuZy8Rjk4d0_156.png	193.14630913734436	0.8799459934234619
139	138.98822283744812	response	0	j		137.0	/home/egter/Projects/stimuli/pictures/R_S_yt-NuZy8Rjk4d0_156.png	193.98472595214844	
140	139.0297520160675	picture	0		76.0	138.0	/home/egter/Projects/stimuli/pictures/R_S_ILSVRC2015_train_00447000.png	194.02625513076782	0.6686768531799316
140	139.65483498573303	response	0	j		138.0	/home/egter/Projects/stimuli/pictures/R_S_ILSVRC2015_train_00447000.png	194.65133810043335	
141	139.69842886924744	picture	0		71.0	139.0	/home/egter/Projects/stimuli/pictures/R_S_yt-tQ-hgwTcMqU_43.png	194.69493198394775	0.6146230697631836
141	140.2798719406128	response	0	j		139.0	/home/egter/Projects/stimuli/pictures/R_S_yt-tQ-hgwTcMqU_43.png	195.2763750553131	
142	140.31305193901062	picture	0		104.0	140.0	/home/egter/Projects/stimuli/pictures/S_yt-aSEKRE_FNaI_62.png	195.30955505371094	0.8923499584197998
142	141.171550989151	response	0	j		140.0	/home/egter/Projects/stimuli/pictures/S_yt-aSEKRE_FNaI_62.png	196.16805410385132	
143	141.20540189743042	picture	0		86.0	141.0	/home/egter/Projects/stimuli/pictures/R_S_yt-7Ya-rGPO8cM_159.png	196.20190501213074	0.7410011291503906
143	141.91378903388977	response	0	j		141.0	/home/egter/Projects/stimuli/pictures/R_S_yt-7Ya-rGPO8cM_159.png	196.9102921485901	
144	141.9464030265808	picture	0		109.0	142.0	/home/egter/Projects/stimuli/pictures/n02268853_14231.JPEG	196.94290614128113	0.9333460330963135
144	142.84651899337769	response	0	k		142.0	/home/egter/Projects/stimuli/pictures/n02268853_14231.JPEG	197.843022108078	
145	142.87974905967712	picture	0		87.0	143.0	/home/egter/Projects/stimuli/pictures/n03201208_3545.JPEG	197.87625217437744	0.7332899570465088
145	143.5965280532837	response	0	k		143.0	/home/egter/Projects/stimuli/pictures/n03201208_3545.JPEG	198.593031167984	
146	143.61303901672363	picture	0		141.0	144.0	/home/egter/Projects/stimuli/pictures/S_yt-U38nodRpSOA_54.png	198.60954213142395	1.2167019844055176
146	144.77986788749695	response	0	k		144.0	/home/egter/Projects/stimuli/pictures/S_yt-U38nodRpSOA_54.png	199.77637100219727	
147	144.82974100112915	picture	0		89.0	145.0	/home/egter/Projects/stimuli/pictures/n02804610_3301.JPEG	199.82624411582947	0.7749738693237305
147	145.5631968975067	response	0	k		145.0	/home/egter/Projects/stimuli/pictures/n02804610_3301.JPEG	200.55970001220703	
148	145.60471487045288	picture	0		213.0	146.0	/home/egter/Projects/stimuli/pictures/S_yt-hekMMCluhnU_18.png	200.6012179851532	1.8083200454711914
148	147.37213397026062	response	0	j		146.0	/home/egter/Projects/stimuli/pictures/S_yt-hekMMCluhnU_18.png	202.36863708496094	
149	147.41303491592407	picture	0		66.0	147.0	/home/egter/Projects/stimuli/pictures/R_S_yt-B7ZRYVhfW2U_52.png	202.4095380306244	0.5833499431610107
149	147.95542287826538	response	0	j		147.0	/home/egter/Projects/stimuli/pictures/R_S_yt-B7ZRYVhfW2U_52.png	202.9519259929657	
150	147.99638485908508	picture	0		102.0	148.0	/home/egter/Projects/stimuli/pictures/n02704792_13530.JPEG	202.9928879737854	0.8547379970550537
150	148.83815097808838	response	0	k		148.0	/home/egter/Projects/stimuli/pictures/n02704792_13530.JPEG	203.8346540927887	
151	148.85112285614014	picture	0		121.0	149.0	/home/egter/Projects/stimuli/pictures/S_yt-ORE2V_VvOpg_67.png	203.84762597084045	1.0208220481872559
151	149.84648990631104	response	0	k		149.0	/home/egter/Projects/stimuli/pictures/S_yt-ORE2V_VvOpg_67.png	204.84299302101135	
152	149.8719449043274	picture	0		109.0	150.0	/home/egter/Projects/stimuli/pictures/S_flickr-thelastdon-8662706978_3.png	204.8684480190277	0.9513530731201172
152	150.77143788337708	response	0	k		150.0	/home/egter/Projects/stimuli/pictures/S_flickr-thelastdon-8662706978_3.png	205.7679409980774	
153	150.8232979774475	picture	0		255.0	151.0	/home/egter/Projects/stimuli/pictures/ILSVRC2012_val_00021857.JPEG	205.81980109214783	2.1480519771575928
153	152.9381639957428	response	0	k		151.0	/home/egter/Projects/stimuli/pictures/ILSVRC2012_val_00021857.JPEG	207.93466711044312	
154	152.9713499546051	picture	0		76.0	152.0	/home/egter/Projects/stimuli/pictures/S_yt-54kx8P3L1ns_6.png	207.96785306930542	0.6833388805389404
154	153.5964870452881	response	0	j		152.0	/home/egter/Projects/stimuli/pictures/S_yt-54kx8P3L1ns_6.png	208.5929901599884	
155	153.65468883514404	picture	0		135.0	153.0	/home/egter/Projects/stimuli/pictures/n09468604_3861.JPEG	208.65119194984436	1.1894190311431885
155	154.77147793769836	response	0	j		153.0	/home/egter/Projects/stimuli/pictures/n09468604_3861.JPEG	209.76798105239868	
156	154.84410786628723	picture	0		73.0	154.0	/home/egter/Projects/stimuli/pictures/n01773797_2883.JPEG	209.84061098098755	0.6605770587921143
156	155.446457862854	response	0	k		154.0	/home/egter/Projects/stimuli/pictures/n01773797_2883.JPEG	210.44296097755432	
157	155.50468492507935	picture	0		96.0	155.0	/home/egter/Projects/stimuli/pictures/n13037406_3364.JPEG	210.50118803977966	0.8165950775146484
157	156.2964780330658	response	0	k		155.0	/home/egter/Projects/stimuli/pictures/n13037406_3364.JPEG	211.2929811477661	
158	156.321280002594	picture	0		96.0	156.0	/home/egter/Projects/stimuli/pictures/R_S_ILSVRC2015_train_00165009.png	211.3177831172943	0.8352959156036377
158	157.11314606666565	response	0	j		156.0	/home/egter/Projects/stimuli/pictures/R_S_ILSVRC2015_train_00165009.png	212.10964918136597	
159	157.15657591819763	picture	0		73.0	157.0	/home/egter/Projects/stimuli/pictures/n01728572_2672.JPEG	212.15307903289795	0.6980941295623779
159	157.7547628879547	response	0	k		157.0	/home/egter/Projects/stimuli/pictures/n01728572_2672.JPEG	212.75126600265503	
160	157.85467004776	picture	0		88.0	158.0	/home/egter/Projects/stimuli/pictures/n03841143_108.JPEG	212.85117316246033	0.7833278179168701
160	158.58032703399658	response	0	k		158.0	/home/egter/Projects/stimuli/pictures/n03841143_108.JPEG	213.5768301486969	
161	158.63799786567688	picture	0		88.0	159.0	/home/egter/Projects/stimuli/pictures/S_yt-6MwA-jx56AQ_612.png	213.6345009803772	0.7499761581420898
161	159.36312985420227	response	0	j		159.0	/home/egter/Projects/stimuli/pictures/S_yt-6MwA-jx56AQ_612.png	214.3596329689026	
162	159.38797402381897	picture	0		84.0	160.0	/home/egter/Projects/stimuli/pictures/n02917067_10163.JPEG	214.3844771385193	0.8000779151916504
162	160.08022904396057	response	0	k		160.0	/home/egter/Projects/stimuli/pictures/n02917067_10163.JPEG	215.0767321586609	
163	160.18805193901062	picture	0		96.0	161.0	/home/egter/Projects/stimuli/pictures/R_S_production_ID_4835060.png	215.18455505371094	1.0795879364013672
163	160.97971606254578	response	0	j		161.0	/home/egter/Projects/stimuli/pictures/R_S_production_ID_4835060.png	215.9762191772461	
164	161.267639875412	picture	0		22.0	162.0	/home/egter/Projects/stimuli/pictures/S_pexels-kindel-media-7147375.png	216.2641429901123	0.20364713668823242
164	161.4312620162964	response	0	j		162.0	/home/egter/Projects/stimuli/pictures/S_pexels-kindel-media-7147375.png	216.4277651309967	
165	161.47128701210022	picture	0		118.0	163.0	/home/egter/Projects/stimuli/pictures/S_yt-4W224-RSCnM_15.png	216.46779012680054	1.067168951034546
165	162.4464089870453	response	0	j		163.0	/home/egter/Projects/stimuli/pictures/S_yt-4W224-RSCnM_15.png	217.4429121017456	
166	162.53845596313477	picture	0		73.0	164.0	/home/egter/Projects/stimuli/pictures/S_yt-z5rxY-WhFNw_15.png	217.53495907783508	0.641165018081665
166	163.1381540298462	response	0	j		164.0	/home/egter/Projects/stimuli/pictures/S_yt-z5rxY-WhFNw_15.png	218.1346571445465	
167	163.17962098121643	picture	0		181.0	165.0	/home/egter/Projects/stimuli/pictures/S_yt-v1PFy5uHQp0_14.png	218.17612409591675	1.594951868057251
167	164.6797800064087	response	0	j		165.0	/home/egter/Projects/stimuli/pictures/S_yt-v1PFy5uHQp0_14.png	219.676283121109	
168	164.77457284927368	picture	0		80.0	166.0	/home/egter/Projects/stimuli/pictures/ILSVRC2012_test_00088260.JPEG	219.771075963974	0.8467071056365967
168	165.43137788772583	response	0	k		166.0	/home/egter/Projects/stimuli/pictures/ILSVRC2012_test_00088260.JPEG	220.42788100242615	
169	165.62127995491028	picture	0		90.0	167.0	/home/egter/Projects/stimuli/pictures/n03982430_519.JPEG	220.6177830696106	0.785322904586792
169	166.36306405067444	response	0	k		167.0	/home/egter/Projects/stimuli/pictures/n03982430_519.JPEG	221.35956716537476	
170	166.40660285949707	picture	0		72.0	168.0	/home/egter/Projects/stimuli/pictures/n02268853_2189.JPEG	221.4031059741974	0.6396579742431641
170	166.99688696861267	response	0	k		168.0	/home/egter/Projects/stimuli/pictures/n02268853_2189.JPEG	221.993390083313	
171	167.04626083374023	picture	0		110.0	169.0	/home/egter/Projects/stimuli/pictures/R_S_yt-xqjVM0Vj4mI_161.png	222.04276394844055	1.0083751678466797
171	167.95533394813538	response	0	j		169.0	/home/egter/Projects/stimuli/pictures/R_S_yt-xqjVM0Vj4mI_161.png	222.9518370628357	
172	168.0546360015869	picture	0		92.0	170.0	/home/egter/Projects/stimuli/pictures/R_S_ILSVRC2015_train_00654000.png	223.05113911628723	0.8583259582519531
172	168.8130910396576	response	0	j		170.0	/home/egter/Projects/stimuli/pictures/R_S_ILSVRC2015_train_00654000.png	223.8095941543579	
173	168.91296195983887	picture	0		123.0	171.0	/home/egter/Projects/stimuli/pictures/S_yt-F1vQ5nZWhDg_21.png	223.90946507453918	1.1249890327453613
173	169.92974185943604	response	0	j		171.0	/home/egter/Projects/stimuli/pictures/S_yt-F1vQ5nZWhDg_21.png	224.92624497413635	
174	170.03795099258423	picture	0		73.0	172.0	/home/egter/Projects/stimuli/pictures/n02410509_7709.JPEG	225.03445410728455	0.6949059963226318
174	170.63123297691345	response	0	k		172.0	/home/egter/Projects/stimuli/pictures/n02410509_7709.JPEG	225.62773609161377	
175	170.73285698890686	picture	0		127.0	173.0	/home/egter/Projects/stimuli/pictures/R_S_comp_LA_A009_C009_PSNK_v02_SDR_PS_FINAL_20180709_SDR_2K_AVC.png	225.72936010360718	1.0717730522155762
175	171.78853106498718	response	0	j		173.0	/home/egter/Projects/stimuli/pictures/R_S_comp_LA_A009_C009_PSNK_v02_SDR_PS_FINAL_20180709_SDR_2K_AVC.png	226.7850341796875	
176	171.80463004112244	picture	0		78.0	174.0	/home/egter/Projects/stimuli/pictures/ILSVRC2012_val_00038396.JPEG	226.80113315582275	0.6583659648895264
176	172.4464089870453	response	0	k		174.0	/home/egter/Projects/stimuli/pictures/ILSVRC2012_val_00038396.JPEG	227.4429121017456	
177	172.46299600601196	picture	0		112.0	175.0	/home/egter/Projects/stimuli/pictures/R_S_ILSVRC2015_train_00479003.png	227.45949912071228	0.9364879131317139
177	173.38806295394897	response	0	j		175.0	/home/egter/Projects/stimuli/pictures/R_S_ILSVRC2015_train_00479003.png	228.3845660686493	
178	173.39948391914368	picture	0		78.0	176.0	/home/egter/Projects/stimuli/pictures/R_S_yt-hekMMCluhnU_18.png	228.395987033844	0.6634180545806885
178	174.0312328338623	response	0	j		176.0	/home/egter/Projects/stimuli/pictures/R_S_yt-hekMMCluhnU_18.png	229.02773594856262	
179	174.06290197372437	picture	0		75.0	177.0	/home/egter/Projects/stimuli/pictures/S_wc-16LozRfhUGea_49.png	229.05940508842468	0.6666779518127441
179	174.67971205711365	response	0	j		177.0	/home/egter/Projects/stimuli/pictures/S_wc-16LozRfhUGea_49.png	229.67621517181396	
180	174.7295799255371	picture	0		82.0	178.0	/home/egter/Projects/stimuli/pictures/n03670208_7197.JPEG	229.72608304023743	0.7115530967712402
180	175.404718875885	response	0	k		178.0	/home/egter/Projects/stimuli/pictures/n03670208_7197.JPEG	230.40122199058533	
181	175.44113302230835	picture	0		81.0	179.0	/home/egter/Projects/stimuli/pictures/R_S_yt-54kx8P3L1ns_6.png	230.43763613700867	0.7134978771209717
181	176.10470485687256	response	0	j		179.0	/home/egter/Projects/stimuli/pictures/R_S_yt-54kx8P3L1ns_6.png	231.10120797157288	
182	176.15463089942932	stim	0		671.0			231.15113401412964	5.616568088531494
182	181.7380130290985	response	0	space				236.73451614379883	
