trial_nr	onset	event_type	phase	response	nr_frames	picture_index	picture_file	onset_abs	duration
0	0.013199090957641602	stim	0		3861.0			34.863609075546265	32.18899583816528
0	31.76692008972168	response	0	j				66.6173300743103	
0	32.18343901634216	response	0	space				67.03384900093079	
2	32.202194929122925	picture	0		210.0	0.0	/home/egter/Projects/stimuli/pictures/n09256479_4779.JPEG	67.05260491371155	1.7571210861206055
2	33.95022106170654	response	0	j		0.0	/home/egter/Projects/stimuli/pictures/n09256479_4779.JPEG	68.80063104629517	
3	33.95931601524353	picture	0		120.0	1.0	/home/egter/Projects/stimuli/pictures/R_S_yt-b7JAHOeiTqU_44.png	68.80972599983215	0.9998641014099121
3	34.95030093193054	response	0	j		1.0	/home/egter/Projects/stimuli/pictures/R_S_yt-b7JAHOeiTqU_44.png	69.80071091651917	
4	34.95918011665344	picture	0		93.0	2.0	/home/egter/Projects/stimuli/pictures/R_S_yt-O4wUEZwHLyI_114.png	69.80959010124207	0.7777669429779053
4	35.71830201148987	response	0	j		2.0	/home/egter/Projects/stimuli/pictures/R_S_yt-O4wUEZwHLyI_114.png	70.56871199607849	
5	35.73694705963135	picture	0		165.0	3.0	/home/egter/Projects/stimuli/pictures/S_yt-vHS71x_O6sY_90.png	70.58735704421997	1.374979019165039
5	37.100192070007324	response	0	k		3.0	/home/egter/Projects/stimuli/pictures/S_yt-vHS71x_O6sY_90.png	71.95060205459595	
6	37.11192607879639	picture	0		245.0	4.0	/home/egter/Projects/stimuli/pictures/n01669191_10959.JPEG	71.96233606338501	2.0416250228881836
6	39.14179611206055	response	0	k		4.0	/home/egter/Projects/stimuli/pictures/n01669191_10959.JPEG	73.99220609664917	
7	39.15355110168457	picture	0		76.0	5.0	/home/egter/Projects/stimuli/pictures/S_3WAnGcPubBY_143.png	74.0039610862732	0.6318869590759277
7	39.7751579284668	response	0	j		5.0	/home/egter/Projects/stimuli/pictures/S_3WAnGcPubBY_143.png	74.62556791305542	
8	39.7854380607605	picture	0		112.0	6.0	/home/egter/Projects/stimuli/pictures/R_S_yt-3V8US8ZD3NU_229.png	74.63584804534912	0.9312069416046143
8	40.70163297653198	response	0	j		6.0	/home/egter/Projects/stimuli/pictures/R_S_yt-3V8US8ZD3NU_229.png	75.5520429611206	
9	40.71664500236511	picture	0		105.0	7.0	/home/egter/Projects/stimuli/pictures/R_S_ILSVRC2015_train_00155004.png	75.56705498695374	0.8834280967712402
9	41.584187030792236	response	0	j		7.0	/home/egter/Projects/stimuli/pictures/R_S_ILSVRC2015_train_00155004.png	76.43459701538086	
10	41.60007309913635	picture	0		86.0	8.0	/home/egter/Projects/stimuli/pictures/S_production_ID_4124475.png	76.45048308372498	0.720128059387207
10	42.30162596702576	response	0	j		8.0	/home/egter/Projects/stimuli/pictures/S_production_ID_4124475.png	77.15203595161438	
11	42.32020115852356	picture	0		99.0	9.0	/home/egter/Projects/stimuli/pictures/n01687978_8543.JPEG	77.17061114311218	0.8264429569244385
11	43.133553981781006	response	0	k		9.0	/home/egter/Projects/stimuli/pictures/n01687978_8543.JPEG	77.98396396636963	
12	43.146644115448	picture	0		124.0	10.0	/home/egter/Projects/stimuli/pictures/R_S_yt-Xq6uX1jfFRk_21.png	77.99705410003662	1.041834831237793
12	44.175228118896484	response	0	j		10.0	/home/egter/Projects/stimuli/pictures/R_S_yt-Xq6uX1jfFRk_21.png	79.02563810348511	
13	44.18847894668579	picture	0		111.0	11.0	/home/egter/Projects/stimuli/pictures/n04275548_5825.JPEG	79.03888893127441	0.9302899837493896
13	45.10847997665405	response	0	k		11.0	/home/egter/Projects/stimuli/pictures/n04275548_5825.JPEG	79.95888996124268	
14	45.11876893043518	picture	0		122.0	12.0	/home/egter/Projects/stimuli/pictures/R_S_yt-m8HxO_-RRq0_127.png	79.9691789150238	1.0145800113677979
14	46.11829614639282	response	0	j		12.0	/home/egter/Projects/stimuli/pictures/R_S_yt-m8HxO_-RRq0_127.png	80.96870613098145	
15	46.13334894180298	picture	0		100.0	13.0	/home/egter/Projects/stimuli/pictures/n01622779_66.JPEG	80.9837589263916	0.8399720191955566
15	46.95923209190369	response	0	k		13.0	/home/egter/Projects/stimuli/pictures/n01622779_66.JPEG	81.80964207649231	
16	46.973320960998535	picture	0		204.0	14.0	/home/egter/Projects/stimuli/pictures/S_yt-S6N5FyjSFZE_4.png	81.82373094558716	1.7080011367797852
16	48.667482137680054	response	0	k		14.0	/home/egter/Projects/stimuli/pictures/S_yt-S6N5FyjSFZE_4.png	83.51789212226868	
17	48.68132209777832	picture	0		129.0	15.0	/home/egter/Projects/stimuli/pictures/S_comp_LA_A009_C009_PSNK_v02_SDR_PS_FINAL_20180709_SDR_2K_AVC.png	83.53173208236694	1.0834579467773438
17	49.75082802772522	response	0	j		15.0	/home/egter/Projects/stimuli/pictures/S_comp_LA_A009_C009_PSNK_v02_SDR_PS_FINAL_20180709_SDR_2K_AVC.png	84.60123801231384	
18	49.764780044555664	picture	0		86.0	16.0	/home/egter/Projects/stimuli/pictures/R_S_yt-tOOaOzYvtKE_79.png	84.61519002914429	0.7220048904418945
18	50.475095987319946	response	0	j		16.0	/home/egter/Projects/stimuli/pictures/R_S_yt-tOOaOzYvtKE_79.png	85.32550597190857	
19	50.48678493499756	picture	0		73.0	17.0	/home/egter/Projects/stimuli/pictures/S_pexels-artem-podrez-5457692.png	85.33719491958618	0.6111681461334229
19	51.084144115448	response	0	j		17.0	/home/egter/Projects/stimuli/pictures/S_pexels-artem-podrez-5457692.png	85.93455410003662	
20	51.09795308113098	picture	0		179.0	18.0	/home/egter/Projects/stimuli/pictures/n02493509_13738.JPEG	85.9483630657196	1.5002050399780273
20	52.58412003517151	response	0	j		18.0	/home/egter/Projects/stimuli/pictures/n02493509_13738.JPEG	87.43453001976013	
21	52.59815812110901	picture	0		122.0	19.0	/home/egter/Projects/stimuli/pictures/n03868242_2578.JPEG	87.44856810569763	1.020570993423462
21	53.60843300819397	response	0	j		19.0	/home/egter/Projects/stimuli/pictures/n03868242_2578.JPEG	88.45884299278259	
22	53.61872911453247	picture	0		311.0	20.0	/home/egter/Projects/stimuli/pictures/S_ILSVRC2015_train_00042002.png	88.4691390991211	2.590211868286133
22	56.20011615753174	response	0	j		20.0	/home/egter/Projects/stimuli/pictures/S_ILSVRC2015_train_00042002.png	91.05052614212036	
23	56.2089409828186	picture	0		111.0	21.0	/home/egter/Projects/stimuli/pictures/S_yt-LdHRVIb4nIE_6.png	91.05935096740723	0.9306700229644775
23	57.11827993392944	response	0	j		21.0	/home/egter/Projects/stimuli/pictures/S_yt-LdHRVIb4nIE_6.png	91.96868991851807	
24	57.13961100578308	picture	0		127.0	22.0	/home/egter/Projects/stimuli/pictures/R_S_ILSVRC2015_train_00484001.png	91.9900209903717	1.0623841285705566
24	58.19175601005554	response	0	j		22.0	/home/egter/Projects/stimuli/pictures/R_S_ILSVRC2015_train_00484001.png	93.04216599464417	
25	58.20199513435364	picture	0		148.0	23.0	/home/egter/Projects/stimuli/pictures/S_ILSVRC2015_train_00652001.png	93.05240511894226	1.2361929416656494
25	59.42505407333374	response	0	j		23.0	/home/egter/Projects/stimuli/pictures/S_ILSVRC2015_train_00652001.png	94.27546405792236	
26	59.43818807601929	picture	0		127.0	24.0	/home/egter/Projects/stimuli/pictures/S_yt-lGQ3wMI5-Yg_140.png	94.28859806060791	1.0623729228973389
26	60.49173903465271	response	0	j		24.0	/home/egter/Projects/stimuli/pictures/S_yt-lGQ3wMI5-Yg_140.png	95.34214901924133	
27	60.500560998916626	picture	0		142.0	25.0	/home/egter/Projects/stimuli/pictures/n04238763_1084.JPEG	95.35097098350525	1.1875710487365723
27	61.67509913444519	response	0	k		25.0	/home/egter/Projects/stimuli/pictures/n04238763_1084.JPEG	96.52550911903381	
28	61.6881320476532	picture	0		133.0	26.0	/home/egter/Projects/stimuli/pictures/n03014705_32336.JPEG	96.53854203224182	1.1179990768432617
28	62.792360067367554	response	0	k		26.0	/home/egter/Projects/stimuli/pictures/n03014705_32336.JPEG	97.64277005195618	
29	62.80613112449646	picture	0		93.0	27.0	/home/egter/Projects/stimuli/pictures/n03095699_944.JPEG	97.65654110908508	0.7776949405670166
29	63.57510995864868	response	0	k		27.0	/home/egter/Projects/stimuli/pictures/n03095699_944.JPEG	98.4255199432373	
30	63.58382606506348	picture	0		186.0	28.0	/home/egter/Projects/stimuli/pictures/S_ILSVRC2015_train_00628000.png	98.4342360496521	1.5494039058685303
30	65.11822605133057	response	0	k		28.0	/home/egter/Projects/stimuli/pictures/S_ILSVRC2015_train_00628000.png	99.96863603591919	
31	65.133229970932	picture	0		80.0	29.0	/home/egter/Projects/stimuli/pictures/R_S_flickr-reginahart-31964450591_23.png	99.98363995552063	0.6730420589447021
31	65.79228615760803	response	0	j		29.0	/home/egter/Projects/stimuli/pictures/R_S_flickr-reginahart-31964450591_23.png	100.64269614219666	
32	65.80627202987671	picture	0		159.0	30.0	/home/egter/Projects/stimuli/pictures/R_S_yt-QI6k6mhpxLo_453.png	100.65668201446533	1.3269779682159424
32	67.11812806129456	response	0	k		30.0	/home/egter/Projects/stimuli/pictures/R_S_yt-QI6k6mhpxLo_453.png	101.96853804588318	
33	67.13324999809265	picture	0		205.0	31.0	/home/egter/Projects/stimuli/pictures/n04483307_9389.JPEG	101.98365998268127	1.7145209312438965
33	68.83397507667542	response	0	k		31.0	/home/egter/Projects/stimuli/pictures/n04483307_9389.JPEG	103.68438506126404	
34	68.84777092933655	picture	0		193.0	32.0	/home/egter/Projects/stimuli/pictures/S_yt-YFl_NAWBFAw_166.png	103.69818091392517	1.6110341548919678
34	70.45009899139404	response	0	k		32.0	/home/egter/Projects/stimuli/pictures/S_yt-YFl_NAWBFAw_166.png	105.30050897598267	
35	70.45880508422852	picture	0		107.0	33.0	/home/egter/Projects/stimuli/pictures/S_yt-BAwvfRmE1LU_79.png	105.30921506881714	0.895866870880127
35	71.33537411689758	response	0	j		33.0	/home/egter/Projects/stimuli/pictures/S_yt-BAwvfRmE1LU_79.png	106.1857841014862	
36	71.35467195510864	picture	0		129.0	34.0	/home/egter/Projects/stimuli/pictures/n02018207_7932.JPEG	106.20508193969727	1.08331298828125
36	72.42501997947693	response	0	k		34.0	/home/egter/Projects/stimuli/pictures/n02018207_7932.JPEG	107.27542996406555	
37	72.43798494338989	picture	0		82.0	35.0	/home/egter/Projects/stimuli/pictures/S_-IkGMlLHrOI_108.png	107.28839492797852	0.6805391311645508
37	73.1083710193634	response	0	j		35.0	/home/egter/Projects/stimuli/pictures/S_-IkGMlLHrOI_108.png	107.95878100395203	
38	73.11852407455444	picture	0		77.0	36.0	/home/egter/Projects/stimuli/pictures/S_flickr-reginahart-31964450591_23.png	107.96893405914307	0.645906925201416
38	73.74313306808472	response	0	j		36.0	/home/egter/Projects/stimuli/pictures/S_flickr-reginahart-31964450591_23.png	108.59354305267334	
39	73.76443099975586	picture	0		119.0	37.0	/home/egter/Projects/stimuli/pictures/R_S_yt-X6ivH9SqGu8_306.png	108.61484098434448	0.9999611377716064
39	74.74310398101807	response	0	j		37.0	/home/egter/Projects/stimuli/pictures/R_S_yt-X6ivH9SqGu8_306.png	109.59351396560669	
40	74.76439213752747	picture	0		116.0	38.0	/home/egter/Projects/stimuli/pictures/n01798484_7199.JPEG	109.61480212211609	0.9721388816833496
40	75.71808195114136	response	0	k		38.0	/home/egter/Projects/stimuli/pictures/n01798484_7199.JPEG	110.56849193572998	
41	75.73653101921082	picture	0		121.0	39.0	/home/egter/Projects/stimuli/pictures/S_T98offKWxso_127.png	110.58694100379944	1.0069141387939453
41	76.72659611701965	response	0	k		39.0	/home/egter/Projects/stimuli/pictures/S_T98offKWxso_127.png	111.57700610160828	
42	76.74344515800476	picture	0		153.0	40.0	/home/egter/Projects/stimuli/pictures/R_S_production_ID_5139371.png	111.59385514259338	1.2778308391571045
42	78.00825595855713	response	0	j		40.0	/home/egter/Projects/stimuli/pictures/R_S_production_ID_5139371.png	112.85866594314575	
43	78.02127599716187	picture	0		185.0	41.0	/home/egter/Projects/stimuli/pictures/n03095699_3846.JPEG	112.87168598175049	1.5485401153564453
43	79.55144214630127	response	0	j		41.0	/home/egter/Projects/stimuli/pictures/n03095699_3846.JPEG	114.40185213088989	
44	79.56981611251831	picture	0		108.0	42.0	/home/egter/Projects/stimuli/pictures/R_S_ILSVRC2015_train_00318000.png	114.42022609710693	0.9029569625854492
44	80.45879197120667	response	0	j		42.0	/home/egter/Projects/stimuli/pictures/R_S_ILSVRC2015_train_00318000.png	115.30920195579529	
45	80.47277307510376	picture	0		115.0	43.0	/home/egter/Projects/stimuli/pictures/n02640242_5740.JPEG	115.32318305969238	0.9651260375976562
45	81.42510199546814	response	0	k		43.0	/home/egter/Projects/stimuli/pictures/n02640242_5740.JPEG	116.27551198005676	
46	81.43789911270142	picture	0		127.0	44.0	/home/egter/Projects/stimuli/pictures/n03933933_10972.JPEG	116.28830909729004	1.0624639987945557
46	82.49159002304077	response	0	k		44.0	/home/egter/Projects/stimuli/pictures/n03933933_10972.JPEG	117.3420000076294	
47	82.50036311149597	picture	0		140.0	45.0	/home/egter/Projects/stimuli/pictures/n01728572_17118.JPEG	117.3507730960846	1.1666359901428223
47	83.65824794769287	response	0	k		45.0	/home/egter/Projects/stimuli/pictures/n01728572_17118.JPEG	118.5086579322815	
48	83.6669991016388	picture	0		159.0	46.0	/home/egter/Projects/stimuli/pictures/n01685808_2019.JPEG	118.51740908622742	1.3264288902282715
48	84.98326110839844	response	0	j		46.0	/home/egter/Projects/stimuli/pictures/n01685808_2019.JPEG	119.83367109298706	
49	84.99342799186707	picture	0		122.0	47.0	/home/egter/Projects/stimuli/pictures/R_S_yt-HwGg4-zeWi8_364.png	119.84383797645569	1.0147149562835693
49	86.00042510032654	response	0	j		47.0	/home/egter/Projects/stimuli/pictures/R_S_yt-HwGg4-zeWi8_364.png	120.85083508491516	
50	86.00814294815063	picture	0		193.0	48.0	/home/egter/Projects/stimuli/pictures/R_S_yt-EKPrSw5xF7k_112.png	120.85855293273926	1.6102471351623535
50	87.6082911491394	response	0	j		48.0	/home/egter/Projects/stimuli/pictures/R_S_yt-EKPrSw5xF7k_112.png	122.45870113372803	
51	87.61839008331299	picture	0		230.0	49.0	/home/egter/Projects/stimuli/pictures/n03249569_54697.JPEG	122.46880006790161	1.9166359901428223
51	89.52496004104614	response	0	j		49.0	/home/egter/Projects/stimuli/pictures/n03249569_54697.JPEG	124.37537002563477	
52	89.53502607345581	picture	0		253.0	50.0	/home/egter/Projects/stimuli/pictures/n01667778_22337.JPEG	124.38543605804443	2.1112020015716553
52	91.63326001167297	response	0	j		50.0	/home/egter/Projects/stimuli/pictures/n01667778_22337.JPEG	126.4836699962616	
53	91.64622807502747	picture	0		88.0	51.0	/home/egter/Projects/stimuli/pictures/n03697007_25120.JPEG	126.49663805961609	0.743009090423584
53	92.37530899047852	response	0	k		51.0	/home/egter/Projects/stimuli/pictures/n03697007_25120.JPEG	127.22571897506714	
54	92.38923716545105	picture	0		93.0	52.0	/home/egter/Projects/stimuli/pictures/R_S_yt-zpoIiHGRm5k_296.png	127.23964715003967	0.7857677936553955
54	93.15832114219666	response	0	j		52.0	/home/egter/Projects/stimuli/pictures/R_S_yt-zpoIiHGRm5k_296.png	128.00873112678528	
55	93.17500495910645	picture	0		114.0	53.0	/home/egter/Projects/stimuli/pictures/n01748264_1593.JPEG	128.02541494369507	0.9502301216125488
55	94.11652708053589	response	0	k		53.0	/home/egter/Projects/stimuli/pictures/n01748264_1593.JPEG	128.9669370651245	
56	94.125235080719	picture	0		377.0	54.0	/home/egter/Projects/stimuli/pictures/S_ILSVRC2015_train_00451000.png	128.97564506530762	3.1458730697631836
56	97.25824308395386	response	0	j		54.0	/home/egter/Projects/stimuli/pictures/S_ILSVRC2015_train_00451000.png	132.10865306854248	
57	97.27110815048218	picture	0		160.0	55.0	/home/egter/Projects/stimuli/pictures/R_S_yt-zh2yLr-o_8A_953.png	132.1215181350708	1.3333117961883545
57	98.59159994125366	response	0	j		55.0	/home/egter/Projects/stimuli/pictures/R_S_yt-zh2yLr-o_8A_953.png	133.44200992584229	
58	98.60441994667053	picture	0		146.0	56.0	/home/egter/Projects/stimuli/pictures/S_yt-NqyG4Ar2JWo_10.png	133.45482993125916	1.2222402095794678
58	99.81660008430481	response	0	j		56.0	/home/egter/Projects/stimuli/pictures/S_yt-NqyG4Ar2JWo_10.png	134.66701006889343	
59	99.82666015625	picture	0		271.0	57.0	/home/egter/Projects/stimuli/pictures/n07716358_34784.JPEG	134.67707014083862	2.2568068504333496
59	102.07489204406738	response	0	k		57.0	/home/egter/Projects/stimuli/pictures/n07716358_34784.JPEG	136.925302028656	
60	102.08346700668335	picture	0		175.0	58.0	/home/egter/Projects/stimuli/pictures/n04310018_11476.JPEG	136.93387699127197	1.4583539962768555
60	103.52642798423767	response	0	j		58.0	/home/egter/Projects/stimuli/pictures/n04310018_11476.JPEG	138.3768379688263	
61	103.5418210029602	picture	0		79.0	59.0	/home/egter/Projects/stimuli/pictures/S_yt-XPRNMelf5Fs_235.png	138.39223098754883	0.6597471237182617
61	104.19157195091248	response	0	j		59.0	/home/egter/Projects/stimuli/pictures/S_yt-XPRNMelf5Fs_235.png	139.0419819355011	
62	104.20156812667847	picture	0		72.0	60.0	/home/egter/Projects/stimuli/pictures/R_S_production_ID_4124475.png	139.0519781112671	0.6065278053283691
62	104.79219698905945	response	0	j		60.0	/home/egter/Projects/stimuli/pictures/R_S_production_ID_4124475.png	139.64260697364807	
63	104.80809593200684	picture	0		127.0	61.0	/home/egter/Projects/stimuli/pictures/n04008634_64.JPEG	139.65850591659546	1.0600621700286865
63	105.85825610160828	response	0	k		61.0	/home/egter/Projects/stimuli/pictures/n04008634_64.JPEG	140.7086660861969	
64	105.86815810203552	picture	0		115.0	62.0	/home/egter/Projects/stimuli/pictures/R_S_pexels-polina-tankilevitch-8203088.png	140.71856808662415	0.9583859443664551
64	106.81656193733215	response	0	j		62.0	/home/egter/Projects/stimuli/pictures/R_S_pexels-polina-tankilevitch-8203088.png	141.66697192192078	
65	106.82654404640198	picture	0		137.0	63.0	/home/egter/Projects/stimuli/pictures/n03982430_935.JPEG	141.6769540309906	1.1459739208221436
65	107.95135307312012	response	0	k		63.0	/home/egter/Projects/stimuli/pictures/n03982430_935.JPEG	142.80176305770874	
66	107.97251796722412	picture	0		100.0	64.0	/home/egter/Projects/stimuli/pictures/n04417672_16396.JPEG	142.82292795181274	0.8402211666107178
66	108.79984712600708	response	0	k		64.0	/home/egter/Projects/stimuli/pictures/n04417672_16396.JPEG	143.6502571105957	
67	108.81273913383484	picture	0		101.0	65.0	/home/egter/Projects/stimuli/pictures/S_ILSVRC2015_train_00569007.png	143.66314911842346	0.8401479721069336
67	109.64152503013611	response	0	j		65.0	/home/egter/Projects/stimuli/pictures/S_ILSVRC2015_train_00569007.png	144.49193501472473	
68	109.65288710594177	picture	0		131.0	66.0	/home/egter/Projects/stimuli/pictures/S_yt-n2sJadTbuxo_10.png	144.5032970905304	1.0902578830718994
68	110.73320293426514	response	0	j		66.0	/home/egter/Projects/stimuli/pictures/S_yt-n2sJadTbuxo_10.png	145.58361291885376	
69	110.74314498901367	picture	0		101.0	67.0	/home/egter/Projects/stimuli/pictures/n02009912_11557.JPEG	145.5935549736023	0.840264081954956
69	111.57474899291992	response	0	k		67.0	/home/egter/Projects/stimuli/pictures/n02009912_11557.JPEG	146.42515897750854	
70	111.58340907096863	picture	0		91.0	68.0	/home/egter/Projects/stimuli/pictures/R_S_yt-PaxmJhMoP3w_87.png	146.43381905555725	0.7639238834381104
70	112.33353614807129	response	0	k		68.0	/home/egter/Projects/stimuli/pictures/R_S_yt-PaxmJhMoP3w_87.png	147.1839461326599	
71	112.34733295440674	picture	0		81.0	69.0	/home/egter/Projects/stimuli/pictures/S_yt-sC9suzTl1Y0_22.png	147.19774293899536	0.6804780960083008
71	113.01659393310547	response	0	k		69.0	/home/egter/Projects/stimuli/pictures/S_yt-sC9suzTl1Y0_22.png	147.8670039176941	
72	113.02781105041504	picture	0		153.0	70.0	/home/egter/Projects/stimuli/pictures/n01914609_1649.JPEG	147.87822103500366	1.2802588939666748
72	114.29187798500061	response	0	j		70.0	/home/egter/Projects/stimuli/pictures/n01914609_1649.JPEG	149.14228796958923	
73	114.30806994438171	picture	0		189.0	71.0	/home/egter/Projects/stimuli/pictures/S_pexels-rodnae-productions-5993654.png	149.15847992897034	1.5810551643371582
73	115.87532997131348	response	0	j		71.0	/home/egter/Projects/stimuli/pictures/S_pexels-rodnae-productions-5993654.png	150.7257399559021	
74	115.88912510871887	picture	0		223.0	72.0	/home/egter/Projects/stimuli/pictures/S_yt-iuqdW5OLSzc_6.png	150.7395350933075	1.8608739376068115
74	117.73461699485779	response	0	j		72.0	/home/egter/Projects/stimuli/pictures/S_yt-iuqdW5OLSzc_6.png	152.5850269794464	
75	117.74999904632568	picture	0		92.0	73.0	/home/egter/Projects/stimuli/pictures/n04251144_16942.JPEG	152.6004090309143	0.7709999084472656
75	118.50819396972656	response	0	k		73.0	/home/egter/Projects/stimuli/pictures/n04251144_16942.JPEG	153.35860395431519	
76	118.52099895477295	picture	0		97.0	74.0	/home/egter/Projects/stimuli/pictures/R_S_comp_LA_A009_C009_PSNK_v02_SDR_PS_FINAL_20180709_SDR_2K_AVC.png	153.37140893936157	0.8054201602935791
76	119.31650495529175	response	0	j		74.0	/home/egter/Projects/stimuli/pictures/R_S_comp_LA_A009_C009_PSNK_v02_SDR_PS_FINAL_20180709_SDR_2K_AVC.png	154.16691493988037	
77	119.32641911506653	picture	0		78.0	75.0	/home/egter/Projects/stimuli/pictures/S_pexels-vlada-karpovich-8044792.png	154.17682909965515	0.6527988910675049
77	119.96649312973022	response	0	j		75.0	/home/egter/Projects/stimuli/pictures/S_pexels-vlada-karpovich-8044792.png	154.81690311431885	
78	119.97921800613403	picture	0		101.0	76.0	/home/egter/Projects/stimuli/pictures/S_yt-ieA3XwoSko4_98.png	154.82962799072266	0.8402209281921387
78	120.80812001228333	response	0	j		76.0	/home/egter/Projects/stimuli/pictures/S_yt-ieA3XwoSko4_98.png	155.65852999687195	
79	120.81943893432617	picture	0		111.0	77.0	/home/egter/Projects/stimuli/pictures/n03529860_10326.JPEG	155.6698489189148	0.9236171245574951
79	121.73314213752747	response	0	k		77.0	/home/egter/Projects/stimuli/pictures/n03529860_10326.JPEG	156.5835521221161	
80	121.74305605888367	picture	0		133.0	78.0	/home/egter/Projects/stimuli/pictures/n02704792_13530.JPEG	156.5934660434723	1.1111690998077393
80	122.84153294563293	response	0	k		78.0	/home/egter/Projects/stimuli/pictures/n02704792_13530.JPEG	157.69194293022156	
81	122.8542251586914	picture	0		149.0	79.0	/home/egter/Projects/stimuli/pictures/n01797886_10204.JPEG	157.70463514328003	1.243384838104248
81	124.08349394798279	response	0	k		79.0	/home/egter/Projects/stimuli/pictures/n01797886_10204.JPEG	158.9339039325714	
82	124.09760999679565	picture	0		360.0	80.0	/home/egter/Projects/stimuli/pictures/R_S_video_inspire_oregon_lone-ranch-beach_00001.png	158.94801998138428	3.00656795501709
82	127.09146499633789	response	0	j		80.0	/home/egter/Projects/stimuli/pictures/R_S_video_inspire_oregon_lone-ranch-beach_00001.png	161.9418749809265	
83	127.10417795181274	picture	0		94.0	81.0	/home/egter/Projects/stimuli/pictures/R_S_yt-BFA07F4L4S0_22.png	161.95458793640137	0.7847030162811279
83	127.87504315376282	response	0	j		81.0	/home/egter/Projects/stimuli/pictures/R_S_yt-BFA07F4L4S0_22.png	162.72545313835144	
84	127.88888096809387	picture	0		82.0	82.0	/home/egter/Projects/stimuli/pictures/S_yt-zhQ32_OayBQ_39.png	162.7392909526825	0.6874470710754395
84	128.55958914756775	response	0	j		82.0	/home/egter/Projects/stimuli/pictures/S_yt-zhQ32_OayBQ_39.png	163.40999913215637	
85	128.5763280391693	picture	0		145.0	83.0	/home/egter/Projects/stimuli/pictures/S_yt-7Ya-rGPO8cM_159.png	163.42673802375793	1.208287000656128
85	129.77483415603638	response	0	k		83.0	/home/egter/Projects/stimuli/pictures/S_yt-7Ya-rGPO8cM_159.png	164.625244140625	
86	129.78461503982544	picture	0		101.0	84.0	/home/egter/Projects/stimuli/pictures/R_S_Pexels_Videos_2795731.png	164.63502502441406	0.8402459621429443
86	130.61636304855347	response	0	j		84.0	/home/egter/Projects/stimuli/pictures/R_S_Pexels_Videos_2795731.png	165.4667730331421	
87	130.62486100196838	picture	0		172.0	85.0	/home/egter/Projects/stimuli/pictures/S_yt-hyZEDFkh49w_196.png	165.475270986557	1.4375500679016113
87	132.0497829914093	response	0	j		85.0	/home/egter/Projects/stimuli/pictures/S_yt-hyZEDFkh49w_196.png	166.90019297599792	
88	132.06241106987	picture	0		139.0	86.0	/home/egter/Projects/stimuli/pictures/n02916936_3698.JPEG	166.91282105445862	1.1597449779510498
88	133.20834612846375	response	0	k		86.0	/home/egter/Projects/stimuli/pictures/n02916936_3698.JPEG	168.05875611305237	
89	133.22215604782104	picture	0		331.0	87.0	/home/egter/Projects/stimuli/pictures/n01688243_3064.JPEG	168.07256603240967	2.7637898921966553
89	135.96788001060486	response	0	k		87.0	/home/egter/Projects/stimuli/pictures/n01688243_3064.JPEG	170.81828999519348	
90	135.9859459400177	picture	0		93.0	88.0	/home/egter/Projects/stimuli/pictures/S_yt-omUwZYZrWy0_375.png	170.83635592460632	0.7778890132904053
90	136.74289107322693	response	0	j		88.0	/home/egter/Projects/stimuli/pictures/S_yt-omUwZYZrWy0_375.png	171.59330105781555	
91	136.7638349533081	picture	0		115.0	89.0	/home/egter/Projects/stimuli/pictures/n03891251_3162.JPEG	171.61424493789673	0.965264081954956
91	137.71637511253357	response	0	k		89.0	/home/egter/Projects/stimuli/pictures/n03891251_3162.JPEG	172.5667850971222	
92	137.72909903526306	picture	0		155.0	90.0	/home/egter/Projects/stimuli/pictures/ILSVRC2012_test_00031454.JPEG	172.57950901985168	1.2915849685668945
92	139.00807094573975	response	0	k		90.0	/home/egter/Projects/stimuli/pictures/ILSVRC2012_test_00031454.JPEG	173.85848093032837	
93	139.02068400382996	picture	0		168.0	91.0	/home/egter/Projects/stimuli/pictures/n02013706_7042.JPEG	173.87109398841858	1.3957500457763672
93	140.40808606147766	response	0	k		91.0	/home/egter/Projects/stimuli/pictures/n02013706_7042.JPEG	175.25849604606628	
94	140.41643404960632	picture	0		114.0	92.0	/home/egter/Projects/stimuli/pictures/S_comp_GL_G004_C010_PSNK_v04_SDR_PS_FINAL_20180709_SDR_2K_AVC.png	175.26684403419495	0.9514260292053223
94	141.3512101173401	response	0	j		92.0	/home/egter/Projects/stimuli/pictures/S_comp_GL_G004_C010_PSNK_v04_SDR_PS_FINAL_20180709_SDR_2K_AVC.png	176.2016201019287	
95	141.36786007881165	picture	0		92.0	93.0	/home/egter/Projects/stimuli/pictures/S_yt-3V8US8ZD3NU_229.png	176.21827006340027	0.7708718776702881
95	142.1248710155487	response	0	j		93.0	/home/egter/Projects/stimuli/pictures/S_yt-3V8US8ZD3NU_229.png	176.97528100013733	
96	142.13873195648193	picture	0		89.0	94.0	/home/egter/Projects/stimuli/pictures/S_yt-wIZprsJwxBM_298.png	176.98914194107056	0.7503480911254883
96	142.8748381137848	response	0	j		94.0	/home/egter/Projects/stimuli/pictures/S_yt-wIZprsJwxBM_298.png	177.7252480983734	
97	142.88908004760742	picture	0		116.0	95.0	/home/egter/Projects/stimuli/pictures/n04154565_4496.JPEG	177.73949003219604	0.9718270301818848
97	143.84970498085022	response	0	j		95.0	/home/egter/Projects/stimuli/pictures/n04154565_4496.JPEG	178.70011496543884	
98	143.8609070777893	picture	0		117.0	96.0	/home/egter/Projects/stimuli/pictures/n01685808_6392.JPEG	178.71131706237793	0.9721479415893555
98	144.82468605041504	response	0	k		96.0	/home/egter/Projects/stimuli/pictures/n01685808_6392.JPEG	179.67509603500366	
99	144.83305501937866	picture	0		144.0	97.0	/home/egter/Projects/stimuli/pictures/n03529860_9960.JPEG	179.68346500396729	1.2014269828796387
99	146.02473711967468	response	0	k		97.0	/home/egter/Projects/stimuli/pictures/n03529860_9960.JPEG	180.8751471042633	
100	146.0344820022583	picture	0		113.0	98.0	/home/egter/Projects/stimuli/pictures/S_comp_A009_C001_010181A_v09_SDR_PS_FINAL_20180725_SDR_2K_AVC.png	180.88489198684692	0.9444761276245117
100	146.9597909450531	response	0	j		98.0	/home/egter/Projects/stimuli/pictures/S_comp_A009_C001_010181A_v09_SDR_PS_FINAL_20180725_SDR_2K_AVC.png	181.81020092964172	
101	146.9789581298828	picture	0		176.0	99.0	/home/egter/Projects/stimuli/pictures/n02116738_5048.JPEG	181.82936811447144	1.4652349948883057
101	148.433030128479	response	0	j		99.0	/home/egter/Projects/stimuli/pictures/n02116738_5048.JPEG	183.28344011306763	
102	148.44419312477112	picture	0		181.0	100.0	/home/egter/Projects/stimuli/pictures/n02415577_735.JPEG	183.29460310935974	1.5069239139556885
102	149.941339969635	response	0	k		100.0	/home/egter/Projects/stimuli/pictures/n02415577_735.JPEG	184.79174995422363	
103	149.9511170387268	picture	0		105.0	101.0	/home/egter/Projects/stimuli/pictures/S_yt-T1mMDOVjvrE_83.png	184.80152702331543	0.8749759197235107
103	150.8163571357727	response	0	j		101.0	/home/egter/Projects/stimuli/pictures/S_yt-T1mMDOVjvrE_83.png	185.66676712036133	
104	150.82609295845032	picture	0		116.0	102.0	/home/egter/Projects/stimuli/pictures/S_yt-EcOYbXulEpI_139.png	185.67650294303894	0.96527099609375
104	151.78302693367004	response	0	j		102.0	/home/egter/Projects/stimuli/pictures/S_yt-EcOYbXulEpI_139.png	186.63343691825867	
105	151.79136395454407	picture	0		91.0	103.0	/home/egter/Projects/stimuli/pictures/S_yt-5zcm2aYFYHw_49.png	186.6417739391327	0.763944149017334
105	152.54148602485657	response	0	k		103.0	/home/egter/Projects/stimuli/pictures/S_yt-5zcm2aYFYHw_49.png	187.3918960094452	
106	152.5553081035614	picture	0		112.0	104.0	/home/egter/Projects/stimuli/pictures/R_S_ILSVRC2015_train_00652001.png	187.40571808815002	0.9442460536956787
106	153.48299312591553	response	0	j		104.0	/home/egter/Projects/stimuli/pictures/R_S_ILSVRC2015_train_00652001.png	188.33340311050415	
107	153.49955415725708	picture	0		206.0	105.0	/home/egter/Projects/stimuli/pictures/ILSVRC2012_test_00080857.JPEG	188.3499641418457	1.7224059104919434
107	155.2080910205841	response	0	k		105.0	/home/egter/Projects/stimuli/pictures/ILSVRC2012_test_00080857.JPEG	190.05850100517273	
108	155.22196006774902	picture	0		93.0	106.0	/home/egter/Projects/stimuli/pictures/R_S_yt-fIEGqReekCM_10.png	190.07237005233765	0.7776539325714111
108	155.99128794670105	response	0	j		106.0	/home/egter/Projects/stimuli/pictures/R_S_yt-fIEGqReekCM_10.png	190.84169793128967	
109	155.99961400032043	picture	0		140.0	107.0	/home/egter/Projects/stimuli/pictures/n09288635_4568.JPEG	190.85002398490906	1.1666409969329834
109	157.1510980129242	response	0	k		107.0	/home/egter/Projects/stimuli/pictures/n09288635_4568.JPEG	192.00150799751282	
110	157.16625499725342	picture	0		103.0	108.0	/home/egter/Projects/stimuli/pictures/R_S_yt-H2ce6U0SbVA_542.png	192.01666498184204	0.8611609935760498
110	158.01634311676025	response	0	j		108.0	/home/egter/Projects/stimuli/pictures/R_S_yt-H2ce6U0SbVA_542.png	192.86675310134888	
111	158.02741599082947	picture	0		161.0	109.0	/home/egter/Projects/stimuli/pictures/S_yt-2mjHDSH1Yvg_90.png	192.8778259754181	1.3403019905090332
111	159.35108304023743	response	0	j		109.0	/home/egter/Projects/stimuli/pictures/S_yt-2mjHDSH1Yvg_90.png	194.20149302482605	
112	159.3677179813385	picture	0		88.0	110.0	/home/egter/Projects/stimuli/pictures/R_S_production_ID_5049072.png	194.21812796592712	0.736253023147583
112	160.0913119316101	response	0	j		110.0	/home/egter/Projects/stimuli/pictures/R_S_production_ID_5049072.png	194.94172191619873	
113	160.10397100448608	picture	0		193.0	111.0	/home/egter/Projects/stimuli/pictures/S_yt-aqrdb6BiFx4_12.png	194.9543809890747	1.6039280891418457
113	161.6996569633484	response	0	j		111.0	/home/egter/Projects/stimuli/pictures/S_yt-aqrdb6BiFx4_12.png	196.550066947937	
114	161.70789909362793	picture	0		278.0	112.0	/home/egter/Projects/stimuli/pictures/n02097209_435.JPEG	196.55830907821655	2.319427967071533
114	164.01630306243896	response	0	k		112.0	/home/egter/Projects/stimuli/pictures/n02097209_435.JPEG	198.8667130470276	
115	164.02732706069946	picture	0		120.0	113.0	/home/egter/Projects/stimuli/pictures/ILSVRC2012_test_00080599.JPEG	198.8777370452881	1.0000219345092773
115	165.01629209518433	response	0	j		113.0	/home/egter/Projects/stimuli/pictures/ILSVRC2012_test_00080599.JPEG	199.86670207977295	
116	165.02734899520874	picture	0		165.0	114.0	/home/egter/Projects/stimuli/pictures/S_SAiA2MWgCWE_5.png	199.87775897979736	1.375089168548584
116	166.38442611694336	response	0	k		114.0	/home/egter/Projects/stimuli/pictures/S_SAiA2MWgCWE_5.png	201.23483610153198	
117	166.40243816375732	picture	0		209.0	115.0	/home/egter/Projects/stimuli/pictures/R_S_g201_CA_A016_C002_SDR_20191114_SDR_2K_AVC.png	201.25284814834595	1.7429718971252441
117	168.1329460144043	response	0	j		115.0	/home/egter/Projects/stimuli/pictures/R_S_g201_CA_A016_C002_SDR_20191114_SDR_2K_AVC.png	202.98335599899292	
118	168.14541006088257	picture	0		117.0	116.0	/home/egter/Projects/stimuli/pictures/R_S_yt-lazG9z4VQAw_99.png	202.9958200454712	0.9791440963745117
118	169.11624193191528	response	0	j		116.0	/home/egter/Projects/stimuli/pictures/R_S_yt-lazG9z4VQAw_99.png	203.9666519165039	
119	169.12455415725708	picture	0		98.0	117.0	/home/egter/Projects/stimuli/pictures/S_yt-Ul81y6R9YbE_12.png	203.9749641418457	0.8193848133087158
119	169.93293809890747	response	0	j		117.0	/home/egter/Projects/stimuli/pictures/S_yt-Ul81y6R9YbE_12.png	204.7833480834961	
120	169.9439389705658	picture	0		170.0	118.0	/home/egter/Projects/stimuli/pictures/n04540053_5579.JPEG	204.79434895515442	1.416640043258667
120	171.34956312179565	response	0	k		118.0	/home/egter/Projects/stimuli/pictures/n04540053_5579.JPEG	206.19997310638428	
121	171.36057901382446	picture	0		120.0	119.0	/home/egter/Projects/stimuli/pictures/S_yt-FDMROdv8N0A_118.png	206.2109889984131	1.0000710487365723
121	172.3495810031891	response	0	k		119.0	/home/egter/Projects/stimuli/pictures/S_yt-FDMROdv8N0A_118.png	207.1999909877777	
122	172.36065006256104	picture	0		87.0	120.0	/home/egter/Projects/stimuli/pictures/ILSVRC2012_test_00043194.JPEG	207.21106004714966	0.7221479415893555
122	173.07456707954407	response	0	k		120.0	/home/egter/Projects/stimuli/pictures/ILSVRC2012_test_00043194.JPEG	207.9249770641327	
123	173.0827980041504	picture	0		195.0	121.0	/home/egter/Projects/stimuli/pictures/R_S_yt-z16pdVTZK1o_3.png	207.933207988739	1.624993085861206
123	174.69959497451782	response	0	j		121.0	/home/egter/Projects/stimuli/pictures/R_S_yt-z16pdVTZK1o_3.png	209.55000495910645	
124	174.7077910900116	picture	0		157.0	122.0	/home/egter/Projects/stimuli/pictures/R_S_yt-J_FnFAl1uL0_143.png	209.55820107460022	1.3125848770141602
124	176.00789093971252	response	0	j		122.0	/home/egter/Projects/stimuli/pictures/R_S_yt-J_FnFAl1uL0_143.png	210.85830092430115	
125	176.02037596702576	picture	0		247.0	123.0	/home/egter/Projects/stimuli/pictures/R_S_yt-JpOBXV46TLE_124.png	210.87078595161438	2.055497169494629
125	178.0662181377411	response	0	j		123.0	/home/egter/Projects/stimuli/pictures/R_S_yt-JpOBXV46TLE_124.png	212.9166281223297	
126	178.07587313652039	picture	0		110.0	124.0	/home/egter/Projects/stimuli/pictures/S_yt-N1EsjM9gD5Q_21.png	212.926283121109	0.9166150093078613
126	178.9760639667511	response	0	k		124.0	/home/egter/Projects/stimuli/pictures/S_yt-N1EsjM9gD5Q_21.png	213.82647395133972	
127	178.99248814582825	picture	0		109.0	125.0	/home/egter/Projects/stimuli/pictures/R_S_yt-YyKEeu2gLrI_158.png	213.84289813041687	0.9097208976745605
127	179.89119410514832	response	0	j		125.0	/home/egter/Projects/stimuli/pictures/R_S_yt-YyKEeu2gLrI_158.png	214.74160408973694	
128	179.9022090435028	picture	0		196.0	126.0	/home/egter/Projects/stimuli/pictures/n04371774_10510.JPEG	214.75261902809143	1.6318910121917725
128	181.5245499610901	response	0	k		126.0	/home/egter/Projects/stimuli/pictures/n04371774_10510.JPEG	216.3749599456787	
129	181.53410005569458	picture	0		73.0	127.0	/home/egter/Projects/stimuli/pictures/R_S_yt-zhQ32_OayBQ_39.png	216.3845100402832	0.6111419200897217
129	182.13286995887756	response	0	j		127.0	/home/egter/Projects/stimuli/pictures/R_S_yt-zhQ32_OayBQ_39.png	216.9832799434662	
130	182.1452419757843	picture	0		155.0	128.0	/home/egter/Projects/stimuli/pictures/S_nTA7B2uHaCQ_1.png	216.99565196037292	1.291707992553711
130	183.42455196380615	response	0	j		128.0	/home/egter/Projects/stimuli/pictures/S_nTA7B2uHaCQ_1.png	218.27496194839478	
131	183.436949968338	picture	0		129.0	129.0	/home/egter/Projects/stimuli/pictures/S_yt-aVKIgTiQp9A_29.png	218.28735995292664	1.0763881206512451
131	184.49953413009644	response	0	j		129.0	/home/egter/Projects/stimuli/pictures/S_yt-aVKIgTiQp9A_29.png	219.34994411468506	
132	184.51333808898926	picture	0		228.0	130.0	/home/egter/Projects/stimuli/pictures/n01917289_1636.JPEG	219.36374807357788	1.9026598930358887
132	186.40785002708435	response	0	k		130.0	/home/egter/Projects/stimuli/pictures/n01917289_1636.JPEG	221.25826001167297	
133	186.41599798202515	picture	0		104.0	131.0	/home/egter/Projects/stimuli/pictures/n02389026_2712.JPEG	221.26640796661377	0.8680820465087891
133	187.2745840549469	response	0	k		131.0	/home/egter/Projects/stimuli/pictures/n02389026_2712.JPEG	222.12499403953552	
134	187.28408002853394	picture	0		117.0	132.0	/home/egter/Projects/stimuli/pictures/R_S_Y004_C015_SDR_2K_AVC.png	222.13449001312256	0.9792249202728271
134	188.24946999549866	response	0	j		132.0	/home/egter/Projects/stimuli/pictures/R_S_Y004_C015_SDR_2K_AVC.png	223.09987998008728	
135	188.26330494880676	picture	0		108.0	133.0	/home/egter/Projects/stimuli/pictures/n02606052_2701.JPEG	223.11371493339539	0.9027650356292725
135	189.15789794921875	response	0	k		133.0	/home/egter/Projects/stimuli/pictures/n02606052_2701.JPEG	224.00830793380737	
136	189.16606998443604	picture	0		263.0	134.0	/home/egter/Projects/stimuli/pictures/n03743016_20856.JPEG	224.01647996902466	2.1943721771240234
136	191.3494999408722	response	0	k		134.0	/home/egter/Projects/stimuli/pictures/n03743016_20856.JPEG	226.19990992546082	
137	191.36044216156006	picture	0		285.0	135.0	/home/egter/Projects/stimuli/pictures/n02356798_5587.JPEG	226.21085214614868	2.3749358654022217
137	193.72447896003723	response	0	k		135.0	/home/egter/Projects/stimuli/pictures/n02356798_5587.JPEG	228.57488894462585	
138	193.73537802696228	picture	0		239.0	136.0	/home/egter/Projects/stimuli/pictures/R_S_yt-SCzpSxzt0TA_46.png	228.5857880115509	1.9932029247283936
138	195.7161581516266	response	0	j		136.0	/home/egter/Projects/stimuli/pictures/R_S_yt-SCzpSxzt0TA_46.png	230.5665681362152	
139	195.72858095169067	picture	0		128.0	137.0	/home/egter/Projects/stimuli/pictures/n04461696_16226.JPEG	230.5789909362793	1.0763661861419678
139	196.7843210697174	response	0	k		137.0	/home/egter/Projects/stimuli/pictures/n04461696_16226.JPEG	231.63473105430603	
140	196.80494713783264	picture	0		73.0	138.0	/home/egter/Projects/stimuli/pictures/n01773549_6756.JPEG	231.65535712242126	0.6110517978668213
140	197.40775799751282	response	0	j		138.0	/home/egter/Projects/stimuli/pictures/n01773549_6756.JPEG	232.25816798210144	
141	197.41599893569946	picture	0		143.0	139.0	/home/egter/Projects/stimuli/pictures/n04311174_8810.JPEG	232.2664089202881	1.194350004196167
141	198.59264612197876	response	0	j		139.0	/home/egter/Projects/stimuli/pictures/n04311174_8810.JPEG	233.44305610656738	
142	198.61034893989563	picture	0		114.0	140.0	/home/egter/Projects/stimuli/pictures/n02815834_9667.JPEG	233.46075892448425	0.9513950347900391
142	199.54948115348816	response	0	k		140.0	/home/egter/Projects/stimuli/pictures/n02815834_9667.JPEG	234.39989113807678	
143	199.56174397468567	picture	0		93.0	141.0	/home/egter/Projects/stimuli/pictures/R_S_yt-fryIS5Itzig_124.png	234.4121539592743	0.7709331512451172
143	200.3244650363922	response	0	j		141.0	/home/egter/Projects/stimuli/pictures/R_S_yt-fryIS5Itzig_124.png	235.17487502098083	
144	200.3326771259308	picture	0		91.0	142.0	/home/egter/Projects/stimuli/pictures/R_S_yt-Tn563IPZfg4_55.png	235.1830871105194	0.7641680240631104
144	201.0827920436859	response	0	j		142.0	/home/egter/Projects/stimuli/pictures/R_S_yt-Tn563IPZfg4_55.png	235.93320202827454	
145	201.0968451499939	picture	0		197.0	143.0	/home/egter/Projects/stimuli/pictures/n04389033_44942.JPEG	235.94725513458252	1.645378828048706
145	202.73279213905334	response	0	k		143.0	/home/egter/Projects/stimuli/pictures/n04389033_44942.JPEG	237.58320212364197	
146	202.7422239780426	picture	0		286.0	144.0	/home/egter/Projects/stimuli/pictures/n04536866_12208.JPEG	237.59263396263123	2.382073163986206
146	205.11616110801697	response	0	k		144.0	/home/egter/Projects/stimuli/pictures/n04536866_12208.JPEG	239.9665710926056	
147	205.1242971420288	picture	0		123.0	145.0	/home/egter/Projects/stimuli/pictures/R_S_yt-YFl_NAWBFAw_166.png	239.97470712661743	1.0276517868041992
147	206.14121508598328	response	0	j		145.0	/home/egter/Projects/stimuli/pictures/R_S_yt-YFl_NAWBFAw_166.png	240.9916250705719	
148	206.151948928833	picture	0		172.0	146.0	/home/egter/Projects/stimuli/pictures/n03777568_10386.JPEG	241.00235891342163	1.4306690692901611
148	207.56778812408447	response	0	k		146.0	/home/egter/Projects/stimuli/pictures/n03777568_10386.JPEG	242.4181981086731	
149	207.58261799812317	picture	0		76.0	147.0	/home/egter/Projects/stimuli/pictures/S_ILSVRC2015_train_00484001.png	242.4330279827118	0.6388370990753174
149	208.207759141922	response	0	j		147.0	/home/egter/Projects/stimuli/pictures/S_ILSVRC2015_train_00484001.png	243.05816912651062	
150	208.2214550971985	picture	0		210.0	148.0	/home/egter/Projects/stimuli/pictures/n01755581_11008.JPEG	243.0718650817871	1.756969928741455
150	209.96615505218506	response	0	k		148.0	/home/egter/Projects/stimuli/pictures/n01755581_11008.JPEG	244.81656503677368	
151	209.97842502593994	picture	0		171.0	149.0	/home/egter/Projects/stimuli/pictures/n02092002_2626.JPEG	244.82883501052856	1.4235260486602783
151	211.3842761516571	response	0	k		149.0	/home/egter/Projects/stimuli/pictures/n02092002_2626.JPEG	246.23468613624573	
152	211.40195107460022	picture	0		109.0	150.0	/home/egter/Projects/stimuli/pictures/R_S_yt-Ul81y6R9YbE_12.png	246.25236105918884	0.9096848964691162
152	212.2994110584259	response	0	j		150.0	/home/egter/Projects/stimuli/pictures/R_S_yt-Ul81y6R9YbE_12.png	247.14982104301453	
153	212.31163597106934	picture	0		132.0	151.0	/home/egter/Projects/stimuli/pictures/n02808304_2539.JPEG	247.16204595565796	1.0971720218658447
153	213.3926191329956	response	0	k		151.0	/home/egter/Projects/stimuli/pictures/n02808304_2539.JPEG	248.24302911758423	
154	213.40880799293518	picture	0		123.0	152.0	/home/egter/Projects/stimuli/pictures/S_yt-fq7m668hqZo_39.png	248.2592179775238	1.027817964553833
154	214.42444515228271	response	0	j		152.0	/home/egter/Projects/stimuli/pictures/S_yt-fq7m668hqZo_39.png	249.27485513687134	
155	214.436625957489	picture	0		147.0	153.0	/home/egter/Projects/stimuli/pictures/S_yt-FE5srhxadno_73.png	249.28703594207764	1.2222661972045898
155	215.64941811561584	response	0	j		153.0	/home/egter/Projects/stimuli/pictures/S_yt-FE5srhxadno_73.png	250.49982810020447	
156	215.6588921546936	picture	0		155.0	154.0	/home/egter/Projects/stimuli/pictures/R_S_production_ID_3735542.png	250.50930213928223	1.2915380001068115
156	216.9410719871521	response	0	j		154.0	/home/egter/Projects/stimuli/pictures/R_S_production_ID_3735542.png	251.79148197174072	
157	216.95043015480042	picture	0		102.0	155.0	/home/egter/Projects/stimuli/pictures/n03201208_3545.JPEG	251.80084013938904	0.8542659282684326
157	217.78419709205627	response	0	k		155.0	/home/egter/Projects/stimuli/pictures/n03201208_3545.JPEG	252.6346070766449	
158	217.80469608306885	picture	0		192.0	156.0	/home/egter/Projects/stimuli/pictures/S_yt--7-rH4IBKLE_19.png	252.65510606765747	1.6041018962860107
158	219.39258909225464	response	0	k		156.0	/home/egter/Projects/stimuli/pictures/S_yt--7-rH4IBKLE_19.png	254.24299907684326	
159	219.40879797935486	picture	0		147.0	157.0	/home/egter/Projects/stimuli/pictures/R_S_ILSVRC2015_train_00303005.png	254.25920796394348	1.229222059249878
159	220.62440609931946	response	0	k		157.0	/home/egter/Projects/stimuli/pictures/R_S_ILSVRC2015_train_00303005.png	255.47481608390808	
160	220.63802003860474	picture	0		158.0	158.0	/home/egter/Projects/stimuli/pictures/n02708093_159.JPEG	255.48843002319336	1.3195669651031494
160	221.949392080307	response	0	k		158.0	/home/egter/Projects/stimuli/pictures/n02708093_159.JPEG	256.79980206489563	
161	221.95758700370789	picture	0		97.0	159.0	/home/egter/Projects/stimuli/pictures/n01753488_14720.JPEG	256.8079969882965	0.8123140335083008
161	222.75773096084595	response	0	k		159.0	/home/egter/Projects/stimuli/pictures/n01753488_14720.JPEG	257.60814094543457	
162	222.7699010372162	picture	0		87.0	160.0	/home/egter/Projects/stimuli/pictures/R_S_comp_GL_G004_C010_PSNK_v04_SDR_PS_FINAL_20180709_SDR_2K_AVC.png	257.6203110218048	0.7222340106964111
162	223.48267197608948	response	0	j		160.0	/home/egter/Projects/stimuli/pictures/R_S_comp_GL_G004_C010_PSNK_v04_SDR_PS_FINAL_20180709_SDR_2K_AVC.png	258.3330819606781	
163	223.4921350479126	picture	0		88.0	161.0	/home/egter/Projects/stimuli/pictures/R_S_yt-_7HJhRPVmHw_255.png	258.3425450325012	0.7360520362854004
163	224.20921397209167	response	0	j		161.0	/home/egter/Projects/stimuli/pictures/R_S_yt-_7HJhRPVmHw_255.png	259.0596239566803	
164	224.228187084198	picture	0		102.0	162.0	/home/egter/Projects/stimuli/pictures/R_S_pexels-cottonbro-9063801.png	259.0785970687866	0.847221851348877
164	225.06616497039795	response	0	j		162.0	/home/egter/Projects/stimuli/pictures/R_S_pexels-cottonbro-9063801.png	259.9165749549866	
165	225.07540893554688	picture	0		115.0	163.0	/home/egter/Projects/stimuli/pictures/R_S_wc-sd8_iKx0t7s7_9.png	259.9258189201355	0.9583070278167725
165	226.0243260860443	response	0	j		163.0	/home/egter/Projects/stimuli/pictures/R_S_wc-sd8_iKx0t7s7_9.png	260.87473607063293	
166	226.03371596336365	picture	0		88.0	164.0	/home/egter/Projects/stimuli/pictures/R_S_yt-hDYtYKUsVE4_120.png	260.88412594795227	0.7361900806427002
166	226.7577030658722	response	0	j		164.0	/home/egter/Projects/stimuli/pictures/R_S_yt-hDYtYKUsVE4_120.png	261.6081130504608	
167	226.76990604400635	picture	0		292.0	165.0	/home/egter/Projects/stimuli/pictures/n01855032_2578.JPEG	261.62031602859497	2.4304819107055664
167	229.1841881275177	response	0	k		165.0	/home/egter/Projects/stimuli/pictures/n01855032_2578.JPEG	264.0345981121063	
168	229.2003879547119	picture	0		137.0	166.0	/home/egter/Projects/stimuli/pictures/n04259630_685.JPEG	264.05079793930054	1.1458420753479004
168	230.33267498016357	response	0	k		166.0	/home/egter/Projects/stimuli/pictures/n04259630_685.JPEG	265.1830849647522	
169	230.34623003005981	picture	0		139.0	167.0	/home/egter/Projects/stimuli/pictures/S_fHdEaNT0gA0_35.png	265.19664001464844	1.1666810512542725
169	231.49934196472168	response	0	k		167.0	/home/egter/Projects/stimuli/pictures/S_fHdEaNT0gA0_35.png	266.3497519493103	
170	231.5129110813141	picture	0		76.0	168.0	/home/egter/Projects/stimuli/pictures/S_yt-hDYtYKUsVE4_120.png	266.3633210659027	0.6388709545135498
170	232.14101099967957	response	0	j		168.0	/home/egter/Projects/stimuli/pictures/S_yt-hDYtYKUsVE4_120.png	266.9914209842682	
171	232.15178203582764	picture	0		70.0	169.0	/home/egter/Projects/stimuli/pictures/S_yt-Tn563IPZfg4_55.png	267.00219202041626	0.5890951156616211
171	232.72435808181763	response	0	j		169.0	/home/egter/Projects/stimuli/pictures/S_yt-Tn563IPZfg4_55.png	267.57476806640625	
172	232.74087715148926	picture	0		79.0	170.0	/home/egter/Projects/stimuli/pictures/S_yt-HwGg4-zeWi8_364.png	267.5912871360779	0.6608138084411621
172	233.38410902023315	response	0	j		170.0	/home/egter/Projects/stimuli/pictures/S_yt-HwGg4-zeWi8_364.png	268.2345190048218	
173	233.40169095993042	picture	0		111.0	171.0	/home/egter/Projects/stimuli/pictures/R_S_yt-GFcuvjHJmS4_86.png	268.25210094451904	0.9236540794372559
173	234.31598711013794	response	0	j		171.0	/home/egter/Projects/stimuli/pictures/R_S_yt-GFcuvjHJmS4_86.png	269.16639709472656	
174	234.32534503936768	picture	0		153.0	172.0	/home/egter/Projects/stimuli/pictures/n04335435_13691.JPEG	269.1757550239563	1.277703046798706
174	235.5841031074524	response	0	k		172.0	/home/egter/Projects/stimuli/pictures/n04335435_13691.JPEG	270.434513092041	
175	235.60304808616638	picture	0		160.0	173.0	/home/egter/Projects/stimuli/pictures/S_video_inspire_oregon_portland_00064.png	270.453458070755	1.3333399295806885
175	236.92431712150574	response	0	k		173.0	/home/egter/Projects/stimuli/pictures/S_video_inspire_oregon_portland_00064.png	271.77472710609436	
176	236.93638801574707	picture	0		117.0	174.0	/home/egter/Projects/stimuli/pictures/n02443114_19873.JPEG	271.7867980003357	0.9722089767456055
176	237.89927506446838	response	0	k		174.0	/home/egter/Projects/stimuli/pictures/n02443114_19873.JPEG	272.749685049057	
177	237.90859699249268	picture	0		109.0	175.0	/home/egter/Projects/stimuli/pictures/n04552348_9124.JPEG	272.7590069770813	0.9097311496734619
177	238.8007390499115	response	0	k		175.0	/home/egter/Projects/stimuli/pictures/n04552348_9124.JPEG	273.6511490345001	
178	238.81832814216614	picture	0		165.0	176.0	/home/egter/Projects/stimuli/pictures/n02268853_852.JPEG	273.66873812675476	1.3750338554382324
178	240.1826250553131	response	0	k		176.0	/home/egter/Projects/stimuli/pictures/n02268853_852.JPEG	275.03303503990173	
179	240.19336199760437	picture	0		93.0	177.0	/home/egter/Projects/stimuli/pictures/n02981792_21687.JPEG	275.043771982193	0.777752161026001
179	240.9576289653778	response	0	k		177.0	/home/egter/Projects/stimuli/pictures/n02981792_21687.JPEG	275.80803894996643	
180	240.97111415863037	picture	0		78.0	178.0	/home/egter/Projects/stimuli/pictures/R_S_ILSVRC2015_train_00569004.png	275.821524143219	0.6530389785766602
180	241.60911798477173	response	0	j		178.0	/home/egter/Projects/stimuli/pictures/R_S_ILSVRC2015_train_00569004.png	276.45952796936035	
181	241.62415313720703	picture	0		219.0	179.0	/home/egter/Projects/stimuli/pictures/n03788195_9019.JPEG	276.47456312179565	1.8260729312896729
181	243.44098210334778	response	0	j		179.0	/home/egter/Projects/stimuli/pictures/n03788195_9019.JPEG	278.2913920879364	
182	243.4502260684967	stim	0		105.0			278.3006360530853	0.8750090599060059
182	244.31583905220032	response	0	space				279.16624903678894	
