trial_nr	onset	event_type	phase	response	nr_frames	picture_index	picture_file	onset_abs	duration
0	0.011631011962890625	stim	0		348.0			26.260550022125244	2.9069430828094482
0	2.9067561626434326	response	0	space				29.155675172805786	
2	2.918574094772339	picture	0		279.0	0.0	/home/egter/Projects/stimuli/pictures/S_yt-ZE8Af60eNsI_15.png	29.167493104934692	2.340235948562622
2	5.2482359409332275	response	0	j		0.0	/home/egter/Projects/stimuli/pictures/S_yt-ZE8Af60eNsI_15.png	31.49715495109558	
3	5.258810043334961	picture	0		842.0	1.0	/home/egter/Projects/stimuli/pictures/R_S_ILSVRC2015_train_00638001.png	31.507729053497314	7.01421594619751
3	12.264837980270386	response	0	j		1.0	/home/egter/Projects/stimuli/pictures/R_S_ILSVRC2015_train_00638001.png	38.51375699043274	
4	12.27302598953247	picture	0		143.0	2.0	/home/egter/Projects/stimuli/pictures/n04243546_27828.JPEG	38.521944999694824	1.194025993347168
4	13.456511974334717	response	0	k		2.0	/home/egter/Projects/stimuli/pictures/n04243546_27828.JPEG	39.70543098449707	
5	13.467051982879639	picture	0		166.0	3.0	/home/egter/Projects/stimuli/pictures/S_yt-XRQ_LSGGr3Y_712.png	39.71597099304199	1.3819301128387451
5	14.839807987213135	response	0	j		3.0	/home/egter/Projects/stimuli/pictures/S_yt-XRQ_LSGGr3Y_712.png	41.08872699737549	
6	14.848982095718384	picture	0		82.0	4.0	/home/egter/Projects/stimuli/pictures/n07684084_9211.JPEG	41.09790110588074	0.6875019073486328
6	15.51631498336792	response	0	k		4.0	/home/egter/Projects/stimuli/pictures/n07684084_9211.JPEG	41.76523399353027	
7	15.536484003067017	picture	0		86.0	5.0	/home/egter/Projects/stimuli/pictures/S_yt-IT741UWKVzg_34.png	41.78540301322937	0.7222371101379395
7	16.248141050338745	response	0	j		5.0	/home/egter/Projects/stimuli/pictures/S_yt-IT741UWKVzg_34.png	42.4970600605011	
8	16.258721113204956	picture	0		79.0	6.0	/home/egter/Projects/stimuli/pictures/n02704792_11366.JPEG	42.50764012336731	0.6597239971160889
8	16.89970111846924	response	0	k		6.0	/home/egter/Projects/stimuli/pictures/n02704792_11366.JPEG	43.14862012863159	
9	16.918445110321045	picture	0		125.0	7.0	/home/egter/Projects/stimuli/pictures/R_S_yt-4r-oovk9JWg_85.png	43.1673641204834	1.0416579246520996
9	17.94812297821045	response	0	j		7.0	/home/egter/Projects/stimuli/pictures/R_S_yt-4r-oovk9JWg_85.png	44.1970419883728	
10	17.960103034973145	picture	0		159.0	8.0	/home/egter/Projects/stimuli/pictures/S_wc-dwTccI0TNwps_15.png	44.2090220451355	1.3263630867004395
10	19.273152112960815	response	0	j		8.0	/home/egter/Projects/stimuli/pictures/S_wc-dwTccI0TNwps_15.png	45.52207112312317	
11	19.286466121673584	picture	0		78.0	9.0	/home/egter/Projects/stimuli/pictures/n03977966_43623.JPEG	45.53538513183594	0.6532299518585205
11	19.92475914955139	response	0	j		9.0	/home/egter/Projects/stimuli/pictures/n03977966_43623.JPEG	46.173678159713745	
12	19.939696073532104	picture	0		136.0	10.0	/home/egter/Projects/stimuli/pictures/S_yt-CeOZeB1LXwE_79.png	46.18861508369446	1.138401985168457
12	21.064768075942993	response	0	j		10.0	/home/egter/Projects/stimuli/pictures/S_yt-CeOZeB1LXwE_79.png	47.31368708610535	
13	21.07809805870056	picture	0		71.0	11.0	/home/egter/Projects/stimuli/pictures/S_yt-9Q7SZR0mgMA_155.png	47.327017068862915	0.5971980094909668
13	21.66475510597229	response	0	j		11.0	/home/egter/Projects/stimuli/pictures/S_yt-9Q7SZR0mgMA_155.png	47.913674116134644	
14	21.67529606819153	picture	0		172.0	12.0	/home/egter/Projects/stimuli/pictures/S_yt-JG2OY_7B-gI_537.png	47.92421507835388	1.431015968322754
14	23.098119974136353	response	0	j		12.0	/home/egter/Projects/stimuli/pictures/S_yt-JG2OY_7B-gI_537.png	49.347038984298706	
15	23.106312036514282	picture	0		105.0	13.0	/home/egter/Projects/stimuli/pictures/S_yt-Jcmf9XyBdMk_119.png	49.355231046676636	0.8750030994415283
15	23.973101139068604	response	0	k		13.0	/home/egter/Projects/stimuli/pictures/S_yt-Jcmf9XyBdMk_119.png	50.22202014923096	
16	23.98131513595581	picture	0		106.0	14.0	/home/egter/Projects/stimuli/pictures/S_comp_CH_C007_C011_PSNK_v02_SDR_PS_FINAL_20180709_SDR_2K_AVC.png	50.230234146118164	0.8884449005126953
16	24.85646104812622	response	0	j		14.0	/home/egter/Projects/stimuli/pictures/S_comp_CH_C007_C011_PSNK_v02_SDR_PS_FINAL_20180709_SDR_2K_AVC.png	51.105380058288574	
17	24.869760036468506	picture	0		95.0	15.0	/home/egter/Projects/stimuli/pictures/S_yt-FH07OivQGOM_30.png	51.11867904663086	0.7986390590667725
17	25.656442165374756	response	0	k		15.0	/home/egter/Projects/stimuli/pictures/S_yt-FH07OivQGOM_30.png	51.90536117553711	
18	25.66839909553528	picture	0		323.0	16.0	/home/egter/Projects/stimuli/pictures/S_yt-4BAsE47kJNk_88.png	51.91731810569763	2.6943109035491943
18	28.34808897972107	response	0	k		16.0	/home/egter/Projects/stimuli/pictures/S_yt-4BAsE47kJNk_88.png	54.59700798988342	
19	28.362709999084473	picture	0		78.0	17.0	/home/egter/Projects/stimuli/pictures/S_yt-fryIS5Itzig_124.png	54.611629009246826	0.6528520584106445
19	29.006384134292603	response	0	j		17.0	/home/egter/Projects/stimuli/pictures/S_yt-fryIS5Itzig_124.png	55.255303144454956	
20	29.015562057495117	picture	0		88.0	18.0	/home/egter/Projects/stimuli/pictures/S_yt-O6W6CZPXvlA_15.png	55.26448106765747	0.7360260486602783
20	29.739717960357666	response	0	j		18.0	/home/egter/Projects/stimuli/pictures/S_yt-O6W6CZPXvlA_15.png	55.98863697052002	
21	29.751588106155396	picture	0		218.0	19.0	/home/egter/Projects/stimuli/pictures/n03776460_3015.JPEG	56.00050711631775	1.813040018081665
21	31.55641007423401	response	0	k		19.0	/home/egter/Projects/stimuli/pictures/n03776460_3015.JPEG	57.80532908439636	
22	31.56462812423706	picture	0		84.0	20.0	/home/egter/Projects/stimuli/pictures/n01748264_1593.JPEG	57.813547134399414	0.7008788585662842
22	32.25643706321716	response	0	k		20.0	/home/egter/Projects/stimuli/pictures/n01748264_1593.JPEG	58.50535607337952	
23	32.265506982803345	picture	0		116.0	21.0	/home/egter/Projects/stimuli/pictures/R_S_yt-Id-f63kUHsE_20.png	58.5144259929657	0.9657011032104492
23	33.223111152648926	response	0	j		21.0	/home/egter/Projects/stimuli/pictures/R_S_yt-Id-f63kUHsE_20.png	59.47203016281128	
24	33.231208086013794	picture	0		284.0	22.0	/home/egter/Projects/stimuli/pictures/n02776631_14631.JPEG	59.48012709617615	2.36757493019104
24	35.589900970458984	response	0	k		22.0	/home/egter/Projects/stimuli/pictures/n02776631_14631.JPEG	61.83881998062134	
25	35.598783016204834	picture	0		108.0	23.0	/home/egter/Projects/stimuli/pictures/R_S_pexels-anastasia-shuraeva-6014070.png	61.84770202636719	0.9027440547943115
25	36.48973608016968	response	0	j		23.0	/home/egter/Projects/stimuli/pictures/R_S_pexels-anastasia-shuraeva-6014070.png	62.73865509033203	
26	36.501527070999146	picture	0		253.0	24.0	/home/egter/Projects/stimuli/pictures/n03000134_1013.JPEG	62.7504460811615	2.104710102081299
26	38.598090171813965	response	0	k		24.0	/home/egter/Projects/stimuli/pictures/n03000134_1013.JPEG	64.84700918197632	
27	38.606237173080444	picture	0		172.0	25.0	/home/egter/Projects/stimuli/pictures/S_yt-kASuBtMK7-o_79.png	64.8551561832428	1.4369559288024902
27	40.03133201599121	response	0	k		25.0	/home/egter/Projects/stimuli/pictures/S_yt-kASuBtMK7-o_79.png	66.28025102615356	
28	40.043193101882935	picture	0		138.0	26.0	/home/egter/Projects/stimuli/pictures/S_yt-e9AZJKNv9ow_359.png	66.29211211204529	1.1463899612426758
28	41.18138599395752	response	0	j		26.0	/home/egter/Projects/stimuli/pictures/S_yt-e9AZJKNv9ow_359.png	67.43030500411987	
29	41.18958306312561	picture	0		417.0	27.0	/home/egter/Projects/stimuli/pictures/n01739381_5593.JPEG	67.43850207328796	3.4787509441375732
29	44.65636897087097	response	0	k		27.0	/home/egter/Projects/stimuli/pictures/n01739381_5593.JPEG	70.90528798103333	
30	44.668334007263184	picture	0		144.0	28.0	/home/egter/Projects/stimuli/pictures/n03873416_17840.JPEG	70.91725301742554	1.2011890411376953
30	45.85636901855469	response	0	k		28.0	/home/egter/Projects/stimuli/pictures/n03873416_17840.JPEG	72.10528802871704	
31	45.86952304840088	picture	0		86.0	29.0	/home/egter/Projects/stimuli/pictures/R_S_yt-e9AZJKNv9ow_359.png	72.11844205856323	0.7222239971160889
31	46.58135008811951	response	0	k		29.0	/home/egter/Projects/stimuli/pictures/R_S_yt-e9AZJKNv9ow_359.png	72.83026909828186	
32	46.59174704551697	picture	0		95.0	30.0	/home/egter/Projects/stimuli/pictures/n09288635_1189.JPEG	72.84066605567932	0.7916960716247559
32	47.37305498123169	response	0	k		30.0	/home/egter/Projects/stimuli/pictures/n09288635_1189.JPEG	73.62197399139404	
33	47.383443117141724	picture	0		498.0	31.0	/home/egter/Projects/stimuli/pictures/R_S_yt-0n0uppNuUus_15.png	73.63236212730408	4.152713060379028
33	51.51707196235657	response	0	j		31.0	/home/egter/Projects/stimuli/pictures/R_S_yt-0n0uppNuUus_15.png	77.76599097251892	
34	51.53615617752075	picture	0		440.0	32.0	/home/egter/Projects/stimuli/pictures/R_S_yt-4W224-RSCnM_15.png	77.7850751876831	3.6735949516296387
34	55.19805407524109	response	0	j		32.0	/home/egter/Projects/stimuli/pictures/R_S_yt-4W224-RSCnM_15.png	81.44697308540344	
35	55.20975112915039	picture	0		106.0	33.0	/home/egter/Projects/stimuli/pictures/R_S_yt-fk-z6WCvjjA_3.png	81.45867013931274	0.8819079399108887
35	56.08131694793701	response	0	j		33.0	/home/egter/Projects/stimuli/pictures/R_S_yt-fk-z6WCvjjA_3.png	82.33023595809937	
36	56.09165906906128	picture	0		257.0	34.0	/home/egter/Projects/stimuli/pictures/S_yt-Jo6PxivsTOg_247.png	82.34057807922363	2.145843982696533
36	58.22368502616882	response	0	j		34.0	/home/egter/Projects/stimuli/pictures/S_yt-Jo6PxivsTOg_247.png	84.47260403633118	
37	58.23750305175781	picture	0		159.0	35.0	/home/egter/Projects/stimuli/pictures/S_yt-DpLc4e4bpu0_1467.png	84.48642206192017	1.3269569873809814
37	59.549498081207275	response	0	k		35.0	/home/egter/Projects/stimuli/pictures/S_yt-DpLc4e4bpu0_1467.png	85.79841709136963	
38	59.564460039138794	picture	0		264.0	36.0	/home/egter/Projects/stimuli/pictures/S_yt-VfASxEzDrvc_145.png	85.81337904930115	2.2007129192352295
38	61.75633096694946	response	0	j		36.0	/home/egter/Projects/stimuli/pictures/S_yt-VfASxEzDrvc_145.png	88.00524997711182	
39	61.76517295837402	picture	0		122.0	37.0	/home/egter/Projects/stimuli/pictures/n01667778_4157.JPEG	88.01409196853638	1.020867109298706
39	62.772956132888794	response	0	k		37.0	/home/egter/Projects/stimuli/pictures/n01667778_4157.JPEG	89.02187514305115	
40	62.78604006767273	picture	0		111.0	38.0	/home/egter/Projects/stimuli/pictures/R_S_comp_LA_A005_C009_PSNK_ALT_v09_SDR_PS_201809134_SDR_2K_AVC.png	89.03495907783508	0.928459882736206
40	63.69794511795044	response	0	j		38.0	/home/egter/Projects/stimuli/pictures/R_S_comp_LA_A005_C009_PSNK_ALT_v09_SDR_PS_201809134_SDR_2K_AVC.png	89.9468641281128	
41	63.714499950408936	picture	0		168.0	39.0	/home/egter/Projects/stimuli/pictures/n02607072_1442.JPEG	89.96341896057129	1.4048471450805664
41	65.10625100135803	response	0	k		39.0	/home/egter/Projects/stimuli/pictures/n02607072_1442.JPEG	91.35517001152039	
42	65.1193470954895	picture	0		417.0	40.0	/home/egter/Projects/stimuli/pictures/n02701002_23190.JPEG	91.36826610565186	3.472249984741211
42	68.58122897148132	response	0	k		40.0	/home/egter/Projects/stimuli/pictures/n02701002_23190.JPEG	94.83014798164368	
43	68.59159708023071	picture	0		89.0	41.0	/home/egter/Projects/stimuli/pictures/n03792782_72443.JPEG	94.84051609039307	0.7429890632629395
43	69.32292103767395	response	0	k		41.0	/home/egter/Projects/stimuli/pictures/n03792782_72443.JPEG	95.5718400478363	
44	69.33458614349365	picture	0		82.0	42.0	/home/egter/Projects/stimuli/pictures/n03131574_4227.JPEG	95.583505153656	0.6805520057678223
44	70.00630307197571	response	0	k		42.0	/home/egter/Projects/stimuli/pictures/n03131574_4227.JPEG	96.25522208213806	
45	70.01513814926147	picture	0		103.0	43.0	/home/egter/Projects/stimuli/pictures/S_ILSVRC2015_train_00610000.png	96.26405715942383	0.8610708713531494
45	70.8645920753479	response	0	j		43.0	/home/egter/Projects/stimuli/pictures/S_ILSVRC2015_train_00610000.png	97.11351108551025	
46	70.87620902061462	picture	0		107.0	44.0	/home/egter/Projects/stimuli/pictures/R_S_yt-sWJc_Do8EaI_32.png	97.12512803077698	0.8889119625091553
46	71.75623202323914	response	0	j		44.0	/home/egter/Projects/stimuli/pictures/R_S_yt-sWJc_Do8EaI_32.png	98.00515103340149	
47	71.76512098312378	picture	0		131.0	45.0	/home/egter/Projects/stimuli/pictures/R_S_yt-4BAsE47kJNk_88.png	98.01403999328613	1.0910630226135254
47	72.84850716590881	response	0	j		45.0	/home/egter/Projects/stimuli/pictures/R_S_yt-4BAsE47kJNk_88.png	99.09742617607117	
48	72.8561840057373	picture	0		85.0	46.0	/home/egter/Projects/stimuli/pictures/S_yt-1_xoCNmTn3Y_1.png	99.10510301589966	0.7082960605621338
48	73.54946613311768	response	0	k		46.0	/home/egter/Projects/stimuli/pictures/S_yt-1_xoCNmTn3Y_1.png	99.79838514328003	
49	73.56448006629944	picture	0		87.0	47.0	/home/egter/Projects/stimuli/pictures/R_S_yt-XRQ_LSGGr3Y_712.png	99.81339907646179	0.7283990383148193
49	74.28123116493225	response	0	j		47.0	/home/egter/Projects/stimuli/pictures/R_S_yt-XRQ_LSGGr3Y_712.png	100.5301501750946	
50	74.29287910461426	picture	0		232.0	48.0	/home/egter/Projects/stimuli/pictures/n04275548_2334.JPEG	100.54179811477661	1.9382379055023193
50	76.21461200714111	response	0	k		48.0	/home/egter/Projects/stimuli/pictures/n04275548_2334.JPEG	102.46353101730347	
51	76.23111701011658	picture	0		218.0	49.0	/home/egter/Projects/stimuli/pictures/n02859443_1727.JPEG	102.48003602027893	1.8186910152435303
51	78.03963017463684	response	0	k		49.0	/home/egter/Projects/stimuli/pictures/n02859443_1727.JPEG	104.2885491847992	
52	78.04980802536011	picture	0		135.0	50.0	/home/egter/Projects/stimuli/pictures/S_yt-5hgLXyLw82w_23.png	104.29872703552246	1.1249449253082275
52	79.16457009315491	response	0	j		50.0	/home/egter/Projects/stimuli/pictures/S_yt-5hgLXyLw82w_23.png	105.41348910331726	
53	79.17475295066833	picture	0		150.0	51.0	/home/egter/Projects/stimuli/pictures/n07697537_3054.JPEG	105.42367196083069	1.2500030994415283
53	80.41455507278442	response	0	j		51.0	/home/egter/Projects/stimuli/pictures/n07697537_3054.JPEG	106.66347408294678	
54	80.42475605010986	picture	0		75.0	52.0	/home/egter/Projects/stimuli/pictures/R_S_yt-ycQy_fHCK-U_8.png	106.67367506027222	0.6249980926513672
54	81.03955602645874	response	0	j		52.0	/home/egter/Projects/stimuli/pictures/R_S_yt-ycQy_fHCK-U_8.png	107.2884750366211	
55	81.04975414276123	picture	0		76.0	53.0	/home/egter/Projects/stimuli/pictures/R_S_yt-JPsTqfqfPIY_319.png	107.29867315292358	0.6319358348846436
55	81.67291617393494	response	0	j		53.0	/home/egter/Projects/stimuli/pictures/R_S_yt-JPsTqfqfPIY_319.png	107.92183518409729	
56	81.68168997764587	picture	0		178.0	54.0	/home/egter/Projects/stimuli/pictures/n02708093_159.JPEG	107.93060898780823	1.4861271381378174
56	83.1495189666748	response	0	k		54.0	/home/egter/Projects/stimuli/pictures/n02708093_159.JPEG	109.39843797683716	
57	83.16781711578369	picture	0		119.0	55.0	/home/egter/Projects/stimuli/pictures/R_S_yt-fryIS5Itzig_124.png	109.41673612594604	0.9930448532104492
57	84.14162111282349	response	0	j		55.0	/home/egter/Projects/stimuli/pictures/R_S_yt-fryIS5Itzig_124.png	110.39054012298584	
58	84.16086196899414	picture	0		630.0	56.0	/home/egter/Projects/stimuli/pictures/S_yt-7XDVHp75fu4_93.png	110.4097809791565	5.24996018409729
58	89.39784598350525	response	0	j		56.0	/home/egter/Projects/stimuli/pictures/S_yt-7XDVHp75fu4_93.png	115.6467649936676	
59	89.41082215309143	picture	0		123.0	57.0	/home/egter/Projects/stimuli/pictures/n04540053_11902.JPEG	115.65974116325378	1.0207929611206055
59	90.4228720664978	response	0	k		57.0	/home/egter/Projects/stimuli/pictures/n04540053_11902.JPEG	116.67179107666016	
60	90.43161511421204	picture	0		125.0	58.0	/home/egter/Projects/stimuli/pictures/S_yt-zam74qlzGtQ_122.png	116.68053412437439	1.0416789054870605
60	91.46450304985046	response	0	j		58.0	/home/egter/Projects/stimuli/pictures/S_yt-zam74qlzGtQ_122.png	117.71342206001282	
61	91.4732940196991	picture	0		178.0	59.0	/home/egter/Projects/stimuli/pictures/S_yt-hjqjWlzPRjY_76.png	117.72221302986145	1.4860939979553223
61	92.94099307060242	response	0	k		59.0	/home/egter/Projects/stimuli/pictures/S_yt-hjqjWlzPRjY_76.png	119.18991208076477	
62	92.95938801765442	picture	0		77.0	60.0	/home/egter/Projects/stimuli/pictures/ILSVRC2012_val_00039441.JPEG	119.20830702781677	0.6388740539550781
62	93.58946394920349	response	0	k		60.0	/home/egter/Projects/stimuli/pictures/ILSVRC2012_val_00039441.JPEG	119.83838295936584	
63	93.5982620716095	picture	0		88.0	61.0	/home/egter/Projects/stimuli/pictures/S_yt-Id-f63kUHsE_20.png	119.84718108177185	0.7361350059509277
63	94.32279801368713	response	0	j		61.0	/home/egter/Projects/stimuli/pictures/S_yt-Id-f63kUHsE_20.png	120.57171702384949	
64	94.33439707756042	picture	0		211.0	62.0	/home/egter/Projects/stimuli/pictures/R_S_yt-PRqnM7xDsus_24.png	120.58331608772278	1.756882905960083
64	96.08113694190979	response	0	j		62.0	/home/egter/Projects/stimuli/pictures/R_S_yt-PRqnM7xDsus_24.png	122.33005595207214	
65	96.09127998352051	picture	0		154.0	63.0	/home/egter/Projects/stimuli/pictures/S_video-12.png	122.34019899368286	1.284684181213379
65	97.35781502723694	response	0	j		63.0	/home/egter/Projects/stimuli/pictures/S_video-12.png	123.60673403739929	
66	97.37596416473389	picture	0		93.0	64.0	/home/egter/Projects/stimuli/pictures/R_S_yt-KVB49z48sZU_55.png	123.62488317489624	0.7778229713439941
66	98.13272595405579	response	0	j		64.0	/home/egter/Projects/stimuli/pictures/R_S_yt-KVB49z48sZU_55.png	124.38164496421814	
67	98.15378713607788	picture	0		278.0	65.0	/home/egter/Projects/stimuli/pictures/n07831146_8710.JPEG	124.40270614624023	2.319408893585205
67	100.46442294120789	response	0	k		65.0	/home/egter/Projects/stimuli/pictures/n07831146_8710.JPEG	126.71334195137024	
68	100.47319602966309	picture	0		382.0	66.0	/home/egter/Projects/stimuli/pictures/S_yt-Z0nfPTEEOLo_85.png	126.72211503982544	3.187448024749756
68	103.6477780342102	response	0	j		66.0	/home/egter/Projects/stimuli/pictures/S_yt-Z0nfPTEEOLo_85.png	129.89669704437256	
69	103.66064405441284	picture	0		282.0	67.0	/home/egter/Projects/stimuli/pictures/R_S_yt-mdLT282PVbE_6.png	129.9095630645752	2.347212076187134
69	105.99793195724487	response	0	j		67.0	/home/egter/Projects/stimuli/pictures/R_S_yt-mdLT282PVbE_6.png	132.24685096740723	
70	106.00785613059998	picture	0		83.0	68.0	/home/egter/Projects/stimuli/pictures/S_yt-JtR6WZXT2kU_8.png	132.25677514076233	0.6944668292999268
70	106.68943810462952	response	0	j		68.0	/home/egter/Projects/stimuli/pictures/S_yt-JtR6WZXT2kU_8.png	132.93835711479187	
71	106.7023229598999	picture	0		236.0	69.0	/home/egter/Projects/stimuli/pictures/n04162706_47898.JPEG	132.95124197006226	1.9652531147003174
71	108.65605902671814	response	0	k		69.0	/home/egter/Projects/stimuli/pictures/n04162706_47898.JPEG	134.9049780368805	
72	108.66757607460022	picture	0		148.0	70.0	/home/egter/Projects/stimuli/pictures/S_yt-2CWrK9nbhTk_211.png	134.91649508476257	1.2360799312591553
72	109.88987612724304	response	0	j		70.0	/home/egter/Projects/stimuli/pictures/S_yt-2CWrK9nbhTk_211.png	136.1387951374054	
73	109.90365600585938	picture	0		388.0	71.0	/home/egter/Projects/stimuli/pictures/R_S_ILSVRC2015_train_00652001.png	136.15257501602173	3.236152172088623
73	113.13110017776489	response	0	k		71.0	/home/egter/Projects/stimuli/pictures/R_S_ILSVRC2015_train_00652001.png	139.38001918792725	
74	113.139808177948	picture	0		135.0	72.0	/home/egter/Projects/stimuli/pictures/S_ILSVRC2015_train_00369002.png	139.38872718811035	1.1248779296875
74	114.25610494613647	response	0	j		72.0	/home/egter/Projects/stimuli/pictures/S_ILSVRC2015_train_00369002.png	140.50502395629883	
75	114.2646861076355	picture	0		98.0	73.0	/home/egter/Projects/stimuli/pictures/n03482405_6169.JPEG	140.51360511779785	0.826416015625
75	115.07272815704346	response	0	k		73.0	/home/egter/Projects/stimuli/pictures/n03482405_6169.JPEG	141.3216471672058	
76	115.0911021232605	picture	0		113.0	74.0	/home/egter/Projects/stimuli/pictures/R_S_yt-ibDaDIEazxg_3.png	141.34002113342285	0.9444608688354492
76	116.02270102500916	response	0	j		74.0	/home/egter/Projects/stimuli/pictures/R_S_yt-ibDaDIEazxg_3.png	142.2716200351715	
77	116.03556299209595	picture	0		440.0	75.0	/home/egter/Projects/stimuli/pictures/S_I004_C014_SDR_2K_AVC.png	142.2844820022583	3.670366048812866
77	119.6893789768219	response	0	j		75.0	/home/egter/Projects/stimuli/pictures/S_I004_C014_SDR_2K_AVC.png	145.93829798698425	
78	119.70592904090881	picture	0		130.0	76.0	/home/egter/Projects/stimuli/pictures/S_yt-Y-8d31A9JXg_12.png	145.95484805107117	1.0865111351013184
78	120.77421617507935	response	0	j		76.0	/home/egter/Projects/stimuli/pictures/S_yt-Y-8d31A9JXg_12.png	147.0231351852417	
79	120.79244017601013	picture	0		121.0	77.0	/home/egter/Projects/stimuli/pictures/R_S_yt-7NjoFHBdP7c_102.png	147.04135918617249	1.0135488510131836
79	121.78943514823914	response	0	j		77.0	/home/egter/Projects/stimuli/pictures/R_S_yt-7NjoFHBdP7c_102.png	148.0383541584015	
80	121.80598902702332	picture	0		69.0	78.0	/home/egter/Projects/stimuli/pictures/n02814533_17866.JPEG	148.05490803718567	0.5767109394073486
80	122.365895986557	response	0	k		78.0	/home/egter/Projects/stimuli/pictures/n02814533_17866.JPEG	148.61481499671936	
81	122.38269996643066	picture	0		71.0	79.0	/home/egter/Projects/stimuli/pictures/n04525305_19860.JPEG	148.63161897659302	0.5902931690216064
81	122.95759201049805	response	0	k		79.0	/home/egter/Projects/stimuli/pictures/n04525305_19860.JPEG	149.2065110206604	
82	122.97299313545227	picture	0		77.0	80.0	/home/egter/Projects/stimuli/pictures/S_yt-ILARvS15SDQ_741.png	149.22191214561462	0.6458430290222168
82	123.60599994659424	response	0	j		80.0	/home/egter/Projects/stimuli/pictures/S_yt-ILARvS15SDQ_741.png	149.8549189567566	
83	123.61883616447449	picture	0		135.0	81.0	/home/egter/Projects/stimuli/pictures/S_yt-TqVe93JCGmM_12.png	149.86775517463684	1.125072956085205
83	124.73105096817017	response	0	k		81.0	/home/egter/Projects/stimuli/pictures/S_yt-TqVe93JCGmM_12.png	150.97996997833252	
84	124.74390912055969	picture	0		129.0	82.0	/home/egter/Projects/stimuli/pictures/R_S_yt-RWN5qOIgqec_25.png	150.99282813072205	1.0762848854064941
84	125.80641102790833	response	0	j		82.0	/home/egter/Projects/stimuli/pictures/R_S_yt-RWN5qOIgqec_25.png	152.05533003807068	
85	125.82019400596619	picture	0		92.0	83.0	/home/egter/Projects/stimuli/pictures/ILSVRC2012_test_00053134.JPEG	152.06911301612854	0.7708661556243896
85	126.57419514656067	response	0	k		83.0	/home/egter/Projects/stimuli/pictures/ILSVRC2012_test_00053134.JPEG	152.82311415672302	
86	126.59106016159058	picture	0		123.0	84.0	/home/egter/Projects/stimuli/pictures/S_yt-8gaLZxx-q50_142.png	152.83997917175293	1.0277328491210938
86	127.60601615905762	response	0	k		84.0	/home/egter/Projects/stimuli/pictures/S_yt-8gaLZxx-q50_142.png	153.85493516921997	
87	127.61879301071167	picture	0		93.0	85.0	/home/egter/Projects/stimuli/pictures/S_production_ID_4802712.png	153.86771202087402	0.770794153213501
87	128.37423515319824	response	0	j		85.0	/home/egter/Projects/stimuli/pictures/S_production_ID_4802712.png	154.6231541633606	
88	128.38958716392517	picture	0		77.0	86.0	/home/egter/Projects/stimuli/pictures/n03759954_11657.JPEG	154.63850617408752	0.6458179950714111
88	129.02269101142883	response	0	k		86.0	/home/egter/Projects/stimuli/pictures/n03759954_11657.JPEG	155.2716100215912	
89	129.03540515899658	picture	0		112.0	87.0	/home/egter/Projects/stimuli/pictures/n02093859_359.JPEG	155.28432416915894	0.9305698871612549
89	129.94918298721313	response	0	k		87.0	/home/egter/Projects/stimuli/pictures/n02093859_359.JPEG	156.1981019973755	
90	129.96597504615784	picture	0		82.0	88.0	/home/egter/Projects/stimuli/pictures/ILSVRC2012_test_00047787.JPEG	156.2148940563202	0.6874589920043945
90	130.6396939754486	response	0	k		88.0	/home/egter/Projects/stimuli/pictures/ILSVRC2012_test_00047787.JPEG	156.88861298561096	
91	130.65343403816223	picture	0		72.0	89.0	/home/egter/Projects/stimuli/pictures/n03496892_13891.JPEG	156.90235304832458	0.604180097579956
91	131.2476110458374	response	0	k		89.0	/home/egter/Projects/stimuli/pictures/n03496892_13891.JPEG	157.49653005599976	
92	131.2576141357422	picture	0		94.0	90.0	/home/egter/Projects/stimuli/pictures/n02009229_5911.JPEG	157.50653314590454	0.7846918106079102
92	132.0309510231018	response	0	k		90.0	/home/egter/Projects/stimuli/pictures/n02009229_5911.JPEG	158.27987003326416	
93	132.0423059463501	picture	0		91.0	91.0	/home/egter/Projects/stimuli/pictures/R_S_video_inspire_sanfrancisco_castro_005.png	158.29122495651245	0.7569801807403564
93	132.78931713104248	response	0	j		91.0	/home/egter/Projects/stimuli/pictures/R_S_video_inspire_sanfrancisco_castro_005.png	159.03823614120483	
94	132.79928612709045	picture	0		119.0	92.0	/home/egter/Projects/stimuli/pictures/n02086079_15865.JPEG	159.0482051372528	0.9930059909820557
94	133.7742850780487	response	0	k		92.0	/home/egter/Projects/stimuli/pictures/n02086079_15865.JPEG	160.02320408821106	
95	133.7922921180725	picture	0		132.0	93.0	/home/egter/Projects/stimuli/pictures/n09332890_51810.JPEG	160.04121112823486	1.0972168445587158
95	134.8809950351715	response	0	k		93.0	/home/egter/Projects/stimuli/pictures/n09332890_51810.JPEG	161.12991404533386	
96	134.88950896263123	picture	0		198.0	94.0	/home/egter/Projects/stimuli/pictures/n02326432_10454.JPEG	161.13842797279358	1.652778148651123
96	136.53100109100342	response	0	k		94.0	/home/egter/Projects/stimuli/pictures/n02326432_10454.JPEG	162.77992010116577	
97	136.54228711128235	picture	0		536.0	95.0	/home/egter/Projects/stimuli/pictures/R_S_yt-ebylvieB_4g_16.png	162.7912061214447	4.465246915817261
97	140.99764013290405	response	0	j		95.0	/home/egter/Projects/stimuli/pictures/R_S_yt-ebylvieB_4g_16.png	167.2465591430664	
98	141.0075340270996	picture	0		213.0	96.0	/home/egter/Projects/stimuli/pictures/R_S_yt-OEY9O2MglQM_7.png	167.25645303726196	1.7777390480041504
98	142.76618194580078	response	0	j		96.0	/home/egter/Projects/stimuli/pictures/R_S_yt-OEY9O2MglQM_7.png	169.01510095596313	
99	142.78527307510376	picture	0		186.0	97.0	/home/egter/Projects/stimuli/pictures/R_S_yt-PvWkOmfZuSY_4.png	169.0341920852661	1.548604965209961
99	144.32260513305664	response	0	j		97.0	/home/egter/Projects/stimuli/pictures/R_S_yt-PvWkOmfZuSY_4.png	170.571524143219	
100	144.33387804031372	picture	0		130.0	98.0	/home/egter/Projects/stimuli/pictures/R_S_yt-35i8UeYXjGw_47.png	170.58279705047607	1.0833039283752441
100	145.40585494041443	response	0	j		98.0	/home/egter/Projects/stimuli/pictures/R_S_yt-35i8UeYXjGw_47.png	171.65477395057678	
101	145.41718196868896	picture	0		276.0	99.0	/home/egter/Projects/stimuli/pictures/n02106382_2644.JPEG	171.66610097885132	2.298582077026367
101	147.7059371471405	response	0	k		99.0	/home/egter/Projects/stimuli/pictures/n02106382_2644.JPEG	173.95485615730286	
102	147.71576404571533	picture	0		123.0	100.0	/home/egter/Projects/stimuli/pictures/n02815834_9667.JPEG	173.96468305587769	1.027785062789917
102	148.73092007637024	response	0	k		100.0	/home/egter/Projects/stimuli/pictures/n02815834_9667.JPEG	174.9798390865326	
103	148.74354910850525	picture	0		141.0	101.0	/home/egter/Projects/stimuli/pictures/n02037110_3698.JPEG	174.9924681186676	1.1735880374908447
103	149.90592503547668	response	0	k		101.0	/home/egter/Projects/stimuli/pictures/n02037110_3698.JPEG	176.15484404563904	
104	149.9171371459961	picture	0		82.0	102.0	/home/egter/Projects/stimuli/pictures/R_S_yt-giRwl4yChlw_9.png	176.16605615615845	0.6805398464202881
104	150.58930611610413	response	0	j		102.0	/home/egter/Projects/stimuli/pictures/R_S_yt-giRwl4yChlw_9.png	176.83822512626648	
105	150.59767699241638	picture	0		96.0	103.0	/home/egter/Projects/stimuli/pictures/n02256656_14419.JPEG	176.84659600257874	0.8056190013885498
105	151.38251113891602	response	0	k		103.0	/home/egter/Projects/stimuli/pictures/n02256656_14419.JPEG	177.63143014907837	
106	151.40329599380493	picture	0		224.0	104.0	/home/egter/Projects/stimuli/pictures/n01924916_8864.JPEG	177.65221500396729	1.875075101852417
106	153.26453399658203	response	0	k		104.0	/home/egter/Projects/stimuli/pictures/n01924916_8864.JPEG	179.51345300674438	
107	153.27837109565735	picture	0		75.0	105.0	/home/egter/Projects/stimuli/pictures/n02091635_7646.JPEG	179.5272901058197	0.6317870616912842
107	153.8975579738617	response	0	k		105.0	/home/egter/Projects/stimuli/pictures/n02091635_7646.JPEG	180.14647698402405	
108	153.91015815734863	picture	0		72.0	106.0	/home/egter/Projects/stimuli/pictures/R_S_yt-O6W6CZPXvlA_15.png	180.159077167511	0.6041100025177002
108	154.5058970451355	response	0	j		106.0	/home/egter/Projects/stimuli/pictures/R_S_yt-O6W6CZPXvlA_15.png	180.75481605529785	
109	154.51426815986633	picture	0		94.0	107.0	/home/egter/Projects/stimuli/pictures/n02489166_9203.JPEG	180.7631871700287	0.7848069667816162
109	155.28921914100647	response	0	k		107.0	/home/egter/Projects/stimuli/pictures/n02489166_9203.JPEG	181.53813815116882	
110	155.29907512664795	picture	0		124.0	108.0	/home/egter/Projects/stimuli/pictures/n03764736_10366.JPEG	181.5479941368103	1.0346808433532715
110	156.32270312309265	response	0	k		108.0	/home/egter/Projects/stimuli/pictures/n03764736_10366.JPEG	182.571622133255	
111	156.33375597000122	picture	0		111.0	109.0	/home/egter/Projects/stimuli/pictures/S_yt-4r-oovk9JWg_85.png	182.58267498016357	0.9236299991607666
111	157.24757313728333	response	0	j		109.0	/home/egter/Projects/stimuli/pictures/S_yt-4r-oovk9JWg_85.png	183.49649214744568	
112	157.257385969162	picture	0		87.0	110.0	/home/egter/Projects/stimuli/pictures/ILSVRC2012_test_00028394.JPEG	183.50630497932434	0.7291569709777832
112	157.9658181667328	response	0	k		110.0	/home/egter/Projects/stimuli/pictures/ILSVRC2012_test_00028394.JPEG	184.21473717689514	
113	157.98654294013977	picture	0		112.0	111.0	/home/egter/Projects/stimuli/pictures/S_yt-z46eFYG950M_222.png	184.23546195030212	0.9374740123748779
113	158.91423296928406	response	0	k		111.0	/home/egter/Projects/stimuli/pictures/S_yt-z46eFYG950M_222.png	185.1631519794464	
114	158.92401695251465	picture	0		134.0	112.0	/home/egter/Projects/stimuli/pictures/R_S_ILSVRC2015_train_00723001.png	185.172935962677	1.1180570125579834
114	160.03084707260132	response	0	j		112.0	/home/egter/Projects/stimuli/pictures/R_S_ILSVRC2015_train_00723001.png	186.27976608276367	
115	160.04207396507263	picture	0		196.0	113.0	/home/egter/Projects/stimuli/pictures/n09246464_42267.JPEG	186.29099297523499	1.63191819190979
115	161.6642129421234	response	0	k		113.0	/home/egter/Projects/stimuli/pictures/n09246464_42267.JPEG	187.91313195228577	
116	161.67399215698242	picture	0		125.0	114.0	/home/egter/Projects/stimuli/pictures/S_yt-NuZy8Rjk4d0_156.png	187.92291116714478	1.041693925857544
116	162.70591497421265	response	0	j		114.0	/home/egter/Projects/stimuli/pictures/S_yt-NuZy8Rjk4d0_156.png	188.954833984375	
117	162.71568608283997	picture	0		181.0	115.0	/home/egter/Projects/stimuli/pictures/n02114855_15185.JPEG	188.96460509300232	1.5068669319152832
117	164.21422696113586	response	0	k		115.0	/home/egter/Projects/stimuli/pictures/n02114855_15185.JPEG	190.46314597129822	
118	164.22255301475525	picture	0		133.0	116.0	/home/egter/Projects/stimuli/pictures/R_S__9v_wUywaAA_35.png	190.4714720249176	1.1111030578613281
118	165.32259702682495	response	0	j		116.0	/home/egter/Projects/stimuli/pictures/R_S__9v_wUywaAA_35.png	191.5715160369873	
119	165.33365607261658	picture	0		78.0	117.0	/home/egter/Projects/stimuli/pictures/n02704792_22524.JPEG	191.58257508277893	0.6527791023254395
119	165.96588706970215	response	0	k		117.0	/home/egter/Projects/stimuli/pictures/n02704792_22524.JPEG	192.2148060798645	
120	165.98643517494202	picture	0		112.0	118.0	/home/egter/Projects/stimuli/pictures/n03868242_1209.JPEG	192.23535418510437	0.9375219345092773
120	166.9142360687256	response	0	k		118.0	/home/egter/Projects/stimuli/pictures/n03868242_1209.JPEG	193.16315507888794	
121	166.9239571094513	picture	0		82.0	119.0	/home/egter/Projects/stimuli/pictures/S_comp_HK_H004_C013_t9_6M_HB_tag0.png	193.17287611961365	0.6874940395355225
121	167.59074902534485	response	0	j		119.0	/home/egter/Projects/stimuli/pictures/S_comp_HK_H004_C013_t9_6M_HB_tag0.png	193.8396680355072	
122	167.61145114898682	picture	0		97.0	120.0	/home/egter/Projects/stimuli/pictures/S_wc-q23aBNJMZbnZ_27.png	193.86037015914917	0.8124949932098389
122	168.41418194770813	response	0	j		120.0	/home/egter/Projects/stimuli/pictures/S_wc-q23aBNJMZbnZ_27.png	194.66310095787048	
123	168.42394614219666	picture	0		94.0	121.0	/home/egter/Projects/stimuli/pictures/S_yt-25xuzTBhwPk_109.png	194.672865152359	0.7846770286560059
123	169.19073104858398	response	0	j		121.0	/home/egter/Projects/stimuli/pictures/S_yt-25xuzTBhwPk_109.png	195.43965005874634	
124	169.20862317085266	picture	0		336.0	122.0	/home/egter/Projects/stimuli/pictures/S_yt-tkUGDrn-XYg_2.png	195.45754218101501	2.80549693107605
124	171.9906461238861	response	0	k		122.0	/home/egter/Projects/stimuli/pictures/S_yt-tkUGDrn-XYg_2.png	198.23956513404846	
125	172.0141201019287	picture	0		83.0	123.0	/home/egter/Projects/stimuli/pictures/R_S_yt-xlHdGsXVZFU_83.png	198.26303911209106	0.6944940090179443
125	172.69746112823486	response	0	j		123.0	/home/egter/Projects/stimuli/pictures/R_S_yt-xlHdGsXVZFU_83.png	198.94638013839722	
126	172.70861411094666	picture	0		78.0	124.0	/home/egter/Projects/stimuli/pictures/n01978455_4302.JPEG	198.957533121109	0.6527650356292725
126	173.34759902954102	response	0	k		124.0	/home/egter/Projects/stimuli/pictures/n01978455_4302.JPEG	199.59651803970337	
127	173.36137914657593	picture	0		134.0	125.0	/home/egter/Projects/stimuli/pictures/n02134418_12959.JPEG	199.61029815673828	1.1250629425048828
127	174.47254300117493	response	0	k		125.0	/home/egter/Projects/stimuli/pictures/n02134418_12959.JPEG	200.72146201133728	
128	174.4864420890808	picture	0		99.0	126.0	/home/egter/Projects/stimuli/pictures/n01737021_11056.JPEG	200.73536109924316	0.8332729339599609
128	175.3059220314026	response	0	k		126.0	/home/egter/Projects/stimuli/pictures/n01737021_11056.JPEG	201.55484104156494	
129	175.31971502304077	picture	0		80.0	127.0	/home/egter/Projects/stimuli/pictures/n06794110_2069.JPEG	201.56863403320312	0.6735830307006836
129	175.9741780757904	response	0	k		127.0	/home/egter/Projects/stimuli/pictures/n06794110_2069.JPEG	202.22309708595276	
130	175.99329805374146	picture	0		75.0	128.0	/home/egter/Projects/stimuli/pictures/R_S_yt-eVAlSjH8E8k_127.png	202.2422170639038	0.6251111030578613
130	176.59910798072815	response	0	k		128.0	/home/egter/Projects/stimuli/pictures/R_S_yt-eVAlSjH8E8k_127.png	202.8480269908905	
131	176.61840915679932	picture	0		112.0	129.0	/home/egter/Projects/stimuli/pictures/S_wc-ZGCMbPfXQ71L_31.png	202.86732816696167	0.9304749965667725
131	177.53917503356934	response	0	j		129.0	/home/egter/Projects/stimuli/pictures/S_wc-ZGCMbPfXQ71L_31.png	203.7880940437317	
132	177.5488841533661	picture	0		60.0	130.0	/home/egter/Projects/stimuli/pictures/n02058221_203.JPEG	203.79780316352844	0.4999828338623047
132	178.03921794891357	response	0	k		130.0	/home/egter/Projects/stimuli/pictures/n02058221_203.JPEG	204.28813695907593	
133	178.0488669872284	picture	0		67.0	131.0	/home/egter/Projects/stimuli/pictures/n02229544_23678.JPEG	204.29778599739075	0.5624971389770508
133	178.59066200256348	response	0	k		131.0	/home/egter/Projects/stimuli/pictures/n02229544_23678.JPEG	204.83958101272583	
134	178.61136412620544	picture	0		101.0	132.0	/home/egter/Projects/stimuli/pictures/R_S_yt-kQpE9L-fsNE_55.png	204.8602831363678	0.8471930027008057
134	179.4474971294403	response	0	j		132.0	/home/egter/Projects/stimuli/pictures/R_S_yt-kQpE9L-fsNE_55.png	205.69641613960266	
135	179.45855712890625	picture	0		92.0	133.0	/home/egter/Projects/stimuli/pictures/S_yt-X6ivH9SqGu8_306.png	205.7074761390686	0.7638559341430664
135	180.21411609649658	response	0	j		133.0	/home/egter/Projects/stimuli/pictures/S_yt-X6ivH9SqGu8_306.png	206.46303510665894	
136	180.22241306304932	picture	0		94.0	134.0	/home/egter/Projects/stimuli/pictures/n02782093_18095.JPEG	206.47133207321167	0.7847518920898438
136	180.99078917503357	response	0	k		134.0	/home/egter/Projects/stimuli/pictures/n02782093_18095.JPEG	207.23970818519592	
137	181.00716495513916	picture	0		81.0	135.0	/home/egter/Projects/stimuli/pictures/S_yt-wUqpCtBOFBA_89.png	207.2560839653015	0.6735730171203613
137	181.6724181175232	response	0	j		135.0	/home/egter/Projects/stimuli/pictures/S_yt-wUqpCtBOFBA_89.png	207.92133712768555	
138	181.68073797225952	picture	0		90.0	136.0	/home/egter/Projects/stimuli/pictures/n01917289_1596.JPEG	207.92965698242188	0.75
138	182.4225571155548	response	0	k		136.0	/home/egter/Projects/stimuli/pictures/n01917289_1596.JPEG	208.67147612571716	
139	182.43073797225952	picture	0		75.0	137.0	/home/egter/Projects/stimuli/pictures/n02130308_3978.JPEG	208.67965698242188	0.625
139	183.04744815826416	response	0	k		137.0	/home/egter/Projects/stimuli/pictures/n02130308_3978.JPEG	209.2963671684265	
140	183.05573797225952	picture	0		81.0	138.0	/home/egter/Projects/stimuli/pictures/R_S_ILSVRC2015_train_00495000.png	209.30465698242188	0.6805582046508789
140	183.7225329875946	response	0	k		138.0	/home/egter/Projects/stimuli/pictures/R_S_ILSVRC2015_train_00495000.png	209.97145199775696	
141	183.7362961769104	picture	0		179.0	139.0	/home/egter/Projects/stimuli/pictures/n01914609_2978.JPEG	209.98521518707275	1.4999809265136719
141	185.22252202033997	response	0	k		139.0	/home/egter/Projects/stimuli/pictures/n01914609_2978.JPEG	211.47144103050232	
142	185.23627710342407	picture	0		83.0	140.0	/home/egter/Projects/stimuli/pictures/R_S_wc-q23aBNJMZbnZ_27.png	211.48519611358643	0.6944069862365723
142	185.92242312431335	response	0	j		140.0	/home/egter/Projects/stimuli/pictures/R_S_wc-q23aBNJMZbnZ_27.png	212.1713421344757	
143	185.93068408966064	picture	0		97.0	141.0	/home/egter/Projects/stimuli/pictures/S_8osH5dThnZY_116.png	212.179603099823	0.812493085861206
143	186.73079013824463	response	0	k		141.0	/home/egter/Projects/stimuli/pictures/S_8osH5dThnZY_116.png	212.97970914840698	
144	186.74317717552185	picture	0		100.0	142.0	/home/egter/Projects/stimuli/pictures/n03240683_10939.JPEG	212.9920961856842	0.8333449363708496
144	187.56415104866028	response	0	k		142.0	/home/egter/Projects/stimuli/pictures/n03240683_10939.JPEG	213.81307005882263	
145	187.5765221118927	picture	0		86.0	143.0	/home/egter/Projects/stimuli/pictures/R_S_yt-ybH6uAiFbjc_273.png	213.82544112205505	0.7152938842773438
145	188.28088212013245	response	0	j		143.0	/home/egter/Projects/stimuli/pictures/R_S_yt-ybH6uAiFbjc_273.png	214.5298011302948	
146	188.29181599617004	picture	0		75.0	144.0	/home/egter/Projects/stimuli/pictures/n02167151_5835.JPEG	214.5407350063324	0.6249940395355225
146	188.90578413009644	response	0	k		144.0	/home/egter/Projects/stimuli/pictures/n02167151_5835.JPEG	215.1547031402588	
147	188.91681003570557	picture	0		82.0	145.0	/home/egter/Projects/stimuli/pictures/n02793495_16179.JPEG	215.16572904586792	0.6805081367492676
147	189.58229899406433	response	0	k		145.0	/home/egter/Projects/stimuli/pictures/n02793495_16179.JPEG	215.83121800422668	
148	189.59731817245483	picture	0		114.0	146.0	/home/egter/Projects/stimuli/pictures/n13052670_528.JPEG	215.8462371826172	0.9514129161834717
148	190.53906416893005	response	0	k		146.0	/home/egter/Projects/stimuli/pictures/n13052670_528.JPEG	216.7879831790924	
149	190.5487310886383	picture	0		80.0	147.0	/home/egter/Projects/stimuli/pictures/S_yt-IyxCMODHSSE_29.png	216.79765009880066	0.6666748523712158
149	191.19895100593567	response	0	j		147.0	/home/egter/Projects/stimuli/pictures/S_yt-IyxCMODHSSE_29.png	217.44787001609802	
150	191.21540594100952	picture	0		116.0	148.0	/home/egter/Projects/stimuli/pictures/ILSVRC2012_test_00081119.JPEG	217.46432495117188	0.9652340412139893
150	192.1723940372467	response	0	k		148.0	/home/egter/Projects/stimuli/pictures/ILSVRC2012_test_00081119.JPEG	218.42131304740906	
151	192.1806399822235	picture	0		101.0	149.0	/home/egter/Projects/stimuli/pictures/R_S_yt-Fdv-V--QlR0_117.png	218.42955899238586	0.8472540378570557
151	193.0140781402588	response	0	j		149.0	/home/egter/Projects/stimuli/pictures/R_S_yt-Fdv-V--QlR0_117.png	219.26299715042114	
152	193.02789402008057	picture	0		182.0	150.0	/home/egter/Projects/stimuli/pictures/R_S_yt-sIXdPhfS67U_203.png	219.27681303024292	1.5208301544189453
152	194.53908610343933	response	0	j		150.0	/home/egter/Projects/stimuli/pictures/R_S_yt-sIXdPhfS67U_203.png	220.78800511360168	
153	194.5487241744995	picture	0		105.0	151.0	/home/egter/Projects/stimuli/pictures/S_yt-s73Xqkcq9Js_285.png	220.79764318466187	0.874957799911499
153	195.4072070121765	response	0	j		151.0	/home/egter/Projects/stimuli/pictures/S_yt-s73Xqkcq9Js_285.png	221.65612602233887	
154	195.423681974411	picture	0		157.0	152.0	/home/egter/Projects/stimuli/pictures/R_S_yt-CZ2qiY-kS7Y_105.png	221.67260098457336	1.3124661445617676
154	196.7224199771881	response	0	j		152.0	/home/egter/Projects/stimuli/pictures/R_S_yt-CZ2qiY-kS7Y_105.png	222.97133898735046	
155	196.73614811897278	picture	0		90.0	153.0	/home/egter/Projects/stimuli/pictures/n04141327_8918.JPEG	222.98506712913513	0.7569530010223389
155	197.48076009750366	response	0	k		153.0	/home/egter/Projects/stimuli/pictures/n04141327_8918.JPEG	223.72967910766602	
156	197.49310111999512	picture	0		83.0	154.0	/home/egter/Projects/stimuli/pictures/S_ILSVRC2015_train_00495000.png	223.74202013015747	0.6874918937683105
156	198.17241406440735	response	0	j		154.0	/home/egter/Projects/stimuli/pictures/S_ILSVRC2015_train_00495000.png	224.4213330745697	
157	198.18059301376343	picture	0		134.0	155.0	/home/egter/Projects/stimuli/pictures/n03733281_29174.JPEG	224.42951202392578	1.1180500984191895
157	199.28907299041748	response	0	k		155.0	/home/egter/Projects/stimuli/pictures/n03733281_29174.JPEG	225.53799200057983	
158	199.29864311218262	picture	0		87.0	156.0	/home/egter/Projects/stimuli/pictures/n01514859_5574.JPEG	225.54756212234497	0.7291748523712158
158	200.014142036438	response	0	k		156.0	/home/egter/Projects/stimuli/pictures/n01514859_5574.JPEG	226.26306104660034	
159	200.02781796455383	picture	0		122.0	157.0	/home/egter/Projects/stimuli/pictures/n02099849_1496.JPEG	226.2767369747162	1.0208110809326172
159	201.039155960083	response	0	k		157.0	/home/egter/Projects/stimuli/pictures/n02099849_1496.JPEG	227.28807497024536	
160	201.04862904548645	picture	0		111.0	158.0	/home/egter/Projects/stimuli/pictures/n01685808_7674.JPEG	227.2975480556488	0.9236171245574951
160	201.96404600143433	response	0	k		158.0	/home/egter/Projects/stimuli/pictures/n01685808_7674.JPEG	228.21296501159668	
161	201.97224617004395	picture	0		121.0	159.0	/home/egter/Projects/stimuli/pictures/R_S_ILSVRC2015_train_00441000.png	228.2211651802063	1.0138838291168213
161	202.97235894203186	response	0	k		159.0	/home/egter/Projects/stimuli/pictures/R_S_ILSVRC2015_train_00441000.png	229.2212779521942	
162	202.98612999916077	picture	0		79.0	160.0	/home/egter/Projects/stimuli/pictures/ILSVRC2012_val_00035696.JPEG	229.23504900932312	0.6666550636291504
162	203.6390540599823	response	0	k		160.0	/home/egter/Projects/stimuli/pictures/ILSVRC2012_val_00035696.JPEG	229.88797307014465	
163	203.65278506278992	picture	0		84.0	161.0	/home/egter/Projects/stimuli/pictures/R_S_pexels-mart-production-7698693.png	229.90170407295227	0.7083089351654053
163	204.3473551273346	response	0	j		161.0	/home/egter/Projects/stimuli/pictures/R_S_pexels-mart-production-7698693.png	230.59627413749695	
164	204.36109399795532	picture	0		103.0	162.0	/home/egter/Projects/stimuli/pictures/S_yt-xnqqB-leeaQ_128.png	230.61001300811768	0.861138105392456
164	205.21404910087585	response	0	j		162.0	/home/egter/Projects/stimuli/pictures/S_yt-xnqqB-leeaQ_128.png	231.4629681110382	
165	205.22223210334778	picture	0		137.0	163.0	/home/egter/Projects/stimuli/pictures/R_S_yt-ThT8utBaywI_68.png	231.47115111351013	1.1500089168548584
165	206.3557629585266	response	0	j		163.0	/home/egter/Projects/stimuli/pictures/R_S_yt-ThT8utBaywI_68.png	232.60468196868896	
166	206.37224102020264	picture	0		429.0	164.0	/home/egter/Projects/stimuli/pictures/n03792782_20071.JPEG	232.621160030365	3.579113006591797
166	209.93900299072266	response	0	k		164.0	/home/egter/Projects/stimuli/pictures/n03792782_20071.JPEG	236.187922000885	
167	209.95135402679443	picture	0		134.0	165.0	/home/egter/Projects/stimuli/pictures/S_ILSVRC2015_train_00723001.png	236.2002730369568	1.1180050373077393
167	211.0557041168213	response	0	j		165.0	/home/egter/Projects/stimuli/pictures/S_ILSVRC2015_train_00723001.png	237.30462312698364	
168	211.06935906410217	picture	0		215.0	166.0	/home/egter/Projects/stimuli/pictures/n01685808_184.JPEG	237.31827807426453	1.7985920906066895
168	212.85565900802612	response	0	k		166.0	/home/egter/Projects/stimuli/pictures/n01685808_184.JPEG	239.10457801818848	
169	212.86795115470886	picture	0		68.0	167.0	/home/egter/Projects/stimuli/pictures/n01669191_1457.JPEG	239.11687016487122	0.5625870227813721
169	213.4222800731659	response	0	k		167.0	/home/egter/Projects/stimuli/pictures/n01669191_1457.JPEG	239.67119908332825	
170	213.43053817749023	picture	0		104.0	168.0	/home/egter/Projects/stimuli/pictures/ILSVRC2012_test_00024649.JPEG	239.6794571876526	0.8679349422454834
170	214.28899908065796	response	0	k		168.0	/home/egter/Projects/stimuli/pictures/ILSVRC2012_test_00024649.JPEG	240.5379180908203	
171	214.29847311973572	picture	0		102.0	169.0	/home/egter/Projects/stimuli/pictures/S_yt-NqyG4Ar2JWo_10.png	240.54739212989807	0.8542029857635498
171	215.13892102241516	response	0	j		169.0	/home/egter/Projects/stimuli/pictures/S_yt-NqyG4Ar2JWo_10.png	241.38784003257751	
172	215.15267610549927	picture	0		183.0	170.0	/home/egter/Projects/stimuli/pictures/n03594945_3969.JPEG	241.40159511566162	1.5278289318084717
172	216.67233610153198	response	0	k		170.0	/home/egter/Projects/stimuli/pictures/n03594945_3969.JPEG	242.92125511169434	
173	216.68050503730774	picture	0		77.0	171.0	/home/egter/Projects/stimuli/pictures/S_yt-XpM1Jtwlvvk_42.png	242.9294240474701	0.6457879543304443
173	217.31405401229858	response	0	j		171.0	/home/egter/Projects/stimuli/pictures/S_yt-XpM1Jtwlvvk_42.png	243.56297302246094	
174	217.32629299163818	picture	0		181.0	172.0	/home/egter/Projects/stimuli/pictures/S_ILSVRC2015_train_00292006.png	243.57521200180054	1.5068671703338623
174	218.8155071735382	response	0	j		172.0	/home/egter/Projects/stimuli/pictures/S_ILSVRC2015_train_00292006.png	245.06442618370056	
175	218.83316016197205	picture	0		79.0	173.0	/home/egter/Projects/stimuli/pictures/n01914609_165.JPEG	245.0820791721344	0.6597499847412109
175	219.4806170463562	response	0	k		173.0	/home/egter/Projects/stimuli/pictures/n01914609_165.JPEG	245.72953605651855	
176	219.49291014671326	picture	0		69.0	174.0	/home/egter/Projects/stimuli/pictures/n01756291_17125.JPEG	245.7418291568756	0.5763587951660156
176	220.0556411743164	response	0	k		174.0	/home/egter/Projects/stimuli/pictures/n01756291_17125.JPEG	246.30456018447876	
177	220.06926894187927	picture	0		128.0	175.0	/home/egter/Projects/stimuli/pictures/R_S_ILSVRC2015_train_00463000.png	246.31818795204163	1.0695891380310059
177	221.13061904907227	response	0	k		175.0	/home/egter/Projects/stimuli/pictures/R_S_ILSVRC2015_train_00463000.png	247.37953805923462	
178	221.13885807991028	picture	0		71.0	176.0	/home/egter/Projects/stimuli/pictures/n02085782_12325.JPEG	247.38777709007263	0.5971059799194336
178	221.72230195999146	response	0	k		176.0	/home/egter/Projects/stimuli/pictures/n02085782_12325.JPEG	247.9712209701538	
179	221.7359640598297	picture	0		90.0	177.0	/home/egter/Projects/stimuli/pictures/R_S_comp_DB_D002_C003_PSNK_v04_SDR_PS_20180914_SDR_2K_AVC.png	247.98488306999207	0.7611989974975586
179	222.4806571006775	response	0	j		177.0	/home/egter/Projects/stimuli/pictures/R_S_comp_DB_D002_C003_PSNK_v04_SDR_PS_20180914_SDR_2K_AVC.png	248.72957611083984	
180	222.49716305732727	picture	0		123.0	178.0	/home/egter/Projects/stimuli/pictures/n03482405_9580.JPEG	248.74608206748962	1.0304269790649414
180	223.51391100883484	response	0	k		178.0	/home/egter/Projects/stimuli/pictures/n03482405_9580.JPEG	249.7628300189972	
181	223.5275900363922	picture	0		225.0	179.0	/home/egter/Projects/stimuli/pictures/n02704792_15460.JPEG	249.77650904655457	1.8819489479064941
181	225.39050602912903	response	0	k		179.0	/home/egter/Projects/stimuli/pictures/n02704792_15460.JPEG	251.63942503929138	
182	225.4095389842987	stim	0		1717.0			251.65845799446106	14.305428981781006
