trial_nr	onset	event_type	phase	response	nr_frames	picture_index	picture_file	onset_abs	duration
0	0.01178288459777832	stim	0		162.0			31.18022894859314	1.3710901737213135
0	1.357409954071045	response	0	space				32.525856018066406	
2	1.3828730583190918	picture	0		333.0	0.0	/home/egter/Projects/stimuli/pictures/R_S_yt-lCb_efvJcdE_5.png	32.55131912231445	2.798621892929077
2	4.148265838623047	response	0	j		0.0	/home/egter/Projects/stimuli/pictures/R_S_yt-lCb_efvJcdE_5.png	35.31671190261841	
3	4.181494951248169	picture	0		113.0	1.0	/home/egter/Projects/stimuli/pictures/S_yt-tqxZlasEvZA_15.png	35.34994101524353	0.9441649913787842
3	5.114944934844971	response	0	k		1.0	/home/egter/Projects/stimuli/pictures/S_yt-tqxZlasEvZA_15.png	36.28339099884033	
4	5.125659942626953	picture	0		144.0	2.0	/home/egter/Projects/stimuli/pictures/n06785654_17137.JPEG	36.294106006622314	1.201348066329956
4	6.314985036849976	response	0	k		2.0	/home/egter/Projects/stimuli/pictures/n06785654_17137.JPEG	37.48343110084534	
5	6.327008008956909	picture	0		86.0	3.0	/home/egter/Projects/stimuli/pictures/R_S_yt-zam74qlzGtQ_122.png	37.49545407295227	0.7222268581390381
5	7.033243894577026	response	0	j		3.0	/home/egter/Projects/stimuli/pictures/R_S_yt-zam74qlzGtQ_122.png	38.20168995857239	
6	7.049234867095947	picture	0		91.0	4.0	/home/egter/Projects/stimuli/pictures/n02447366_33293.JPEG	38.21768093109131	0.7655501365661621
6	7.799330949783325	response	0	k		4.0	/home/egter/Projects/stimuli/pictures/n02447366_33293.JPEG	38.96777701377869	
7	7.814785003662109	picture	0		115.0	5.0	/home/egter/Projects/stimuli/pictures/S_yt-_6j2NXrB-zE_28.png	38.98323106765747	0.9635398387908936
7	8.764899969100952	response	0	j		5.0	/home/egter/Projects/stimuli/pictures/S_yt-_6j2NXrB-zE_28.png	39.93334603309631	
8	8.778324842453003	picture	0		76.0	6.0	/home/egter/Projects/stimuli/pictures/R_S_comp_A001_C001_120530_v04_SDR_FINAL_20180706_SDR_2K_AVC.png	39.946770906448364	0.6389520168304443
8	9.406543016433716	response	0	j		6.0	/home/egter/Projects/stimuli/pictures/R_S_comp_A001_C001_120530_v04_SDR_FINAL_20180706_SDR_2K_AVC.png	40.57498908042908	
9	9.417276859283447	picture	0		77.0	7.0	/home/egter/Projects/stimuli/pictures/n02799071_1517.JPEG	40.58572292327881	0.6475100517272949
9	10.041538000106812	response	0	k		7.0	/home/egter/Projects/stimuli/pictures/n02799071_1517.JPEG	41.20998406410217	
10	10.064786911010742	picture	0		91.0	8.0	/home/egter/Projects/stimuli/pictures/S_pexels-nkem-6237382.png	41.2332329750061	0.7621619701385498
10	10.814982891082764	response	0	j		8.0	/home/egter/Projects/stimuli/pictures/S_pexels-nkem-6237382.png	41.983428955078125	
11	10.826948881149292	picture	0		91.0	9.0	/home/egter/Projects/stimuli/pictures/n03777568_18178.JPEG	41.99539494514465	0.7568910121917725
11	11.573204040527344	response	0	k		9.0	/home/egter/Projects/stimuli/pictures/n03777568_18178.JPEG	42.741650104522705	
12	11.583839893341064	picture	0		155.0	10.0	/home/egter/Projects/stimuli/pictures/S_yt-HsiWrFBbUuU_10.png	42.752285957336426	1.29168701171875
12	12.858120918273926	response	0	k		10.0	/home/egter/Projects/stimuli/pictures/S_yt-HsiWrFBbUuU_10.png	44.02656698226929	
13	12.875526905059814	picture	0		162.0	11.0	/home/egter/Projects/stimuli/pictures/n01753488_9363.JPEG	44.043972969055176	1.3475520610809326
13	14.214905977249146	response	0	k		11.0	/home/egter/Projects/stimuli/pictures/n01753488_9363.JPEG	45.38335204124451	
14	14.223078966140747	picture	0		112.0	12.0	/home/egter/Projects/stimuli/pictures/S_yt-f9iXELY0EJ0_344.png	45.39152503013611	0.937129020690918
14	15.148200988769531	response	0	j		12.0	/home/egter/Projects/stimuli/pictures/S_yt-f9iXELY0EJ0_344.png	46.31664705276489	
15	15.160207986831665	picture	0		148.0	13.0	/home/egter/Projects/stimuli/pictures/S_Y005_C003_SDR_2K_AVC.png	46.328654050827026	1.2295398712158203
15	16.381528854370117	response	0	j		13.0	/home/egter/Projects/stimuli/pictures/S_Y005_C003_SDR_2K_AVC.png	47.54997491836548	
16	16.389747858047485	picture	0		365.0	14.0	/home/egter/Projects/stimuli/pictures/S_ILnEDG_aP1A_35.png	47.55819392204285	3.0416290760040283
16	19.423130989074707	response	0	j		14.0	/home/egter/Projects/stimuli/pictures/S_ILnEDG_aP1A_35.png	50.59157705307007	
17	19.431376934051514	picture	0		145.0	15.0	/home/egter/Projects/stimuli/pictures/R_S_ILSVRC2015_train_00745000.png	50.599822998046875	1.2083570957183838
17	20.631557941436768	response	0	j		15.0	/home/egter/Projects/stimuli/pictures/R_S_ILSVRC2015_train_00745000.png	51.80000400543213	
18	20.639734029769897	picture	0		117.0	16.0	/home/egter/Projects/stimuli/pictures/n03457902_25660.JPEG	51.80818009376526	0.9787778854370117
18	21.606497049331665	response	0	k		16.0	/home/egter/Projects/stimuli/pictures/n03457902_25660.JPEG	52.774943113327026	
19	21.61851191520691	picture	0		197.0	17.0	/home/egter/Projects/stimuli/pictures/n02815834_676.JPEG	52.78695797920227	1.6388850212097168
19	23.241435050964355	response	0	k		17.0	/home/egter/Projects/stimuli/pictures/n02815834_676.JPEG	54.40988111495972	
20	23.257396936416626	picture	0		83.0	18.0	/home/egter/Projects/stimuli/pictures/n01667778_16183.JPEG	54.42584300041199	0.6944561004638672
20	23.939805030822754	response	0	k		18.0	/home/egter/Projects/stimuli/pictures/n01667778_16183.JPEG	55.108251094818115	
21	23.951853036880493	picture	0		114.0	19.0	/home/egter/Projects/stimuli/pictures/n02058221_7560.JPEG	55.120299100875854	0.9513468742370605
21	24.889827966690063	response	0	k		19.0	/home/egter/Projects/stimuli/pictures/n02058221_7560.JPEG	56.058274030685425	
22	24.903199911117554	picture	0		111.0	20.0	/home/egter/Projects/stimuli/pictures/R_S_yt-GbL63AmOIss_116.png	56.071645975112915	0.9305300712585449
22	25.823155879974365	response	0	j		20.0	/home/egter/Projects/stimuli/pictures/R_S_yt-GbL63AmOIss_116.png	56.99160194396973	
23	25.8337299823761	picture	0		202.0	21.0	/home/egter/Projects/stimuli/pictures/R_S_yt-yB7mPODPTVw_74.png	57.00217604637146	1.6809618473052979
23	27.506531953811646	response	0	j		21.0	/home/egter/Projects/stimuli/pictures/R_S_yt-yB7mPODPTVw_74.png	58.67497801780701	
24	27.514691829681396	picture	0		176.0	22.0	/home/egter/Projects/stimuli/pictures/n02279972_3612.JPEG	58.68313789367676	1.47178316116333
24	28.97313094139099	response	0	k		22.0	/home/egter/Projects/stimuli/pictures/n02279972_3612.JPEG	60.14157700538635	
25	28.986474990844727	picture	0		108.0	23.0	/home/egter/Projects/stimuli/pictures/ILSVRC2012_test_00088160.JPEG	60.15492105484009	0.9031689167022705
25	29.88148593902588	response	0	k		23.0	/home/egter/Projects/stimuli/pictures/ILSVRC2012_test_00088160.JPEG	61.04993200302124	
26	29.889643907546997	picture	0		151.0	24.0	/home/egter/Projects/stimuli/pictures/n01753488_11684.JPEG	61.05808997154236	1.2635059356689453
26	31.139782905578613	response	0	k		24.0	/home/egter/Projects/stimuli/pictures/n01753488_11684.JPEG	62.308228969573975	
27	31.153149843215942	picture	0		104.0	25.0	/home/egter/Projects/stimuli/pictures/R_S_yt-IT741UWKVzg_34.png	62.321595907211304	0.8749921321868896
27	32.014771938323975	response	0	j		25.0	/home/egter/Projects/stimuli/pictures/R_S_yt-IT741UWKVzg_34.png	63.183218002319336	
28	32.02814197540283	picture	0		76.0	26.0	/home/egter/Projects/stimuli/pictures/n02027492_4942.JPEG	63.19658803939819	0.6389598846435547
28	32.64969801902771	response	0	k		26.0	/home/egter/Projects/stimuli/pictures/n02027492_4942.JPEG	63.81814408302307	
29	32.66710186004639	picture	0		131.0	27.0	/home/egter/Projects/stimuli/pictures/n02701002_3387.JPEG	63.83554792404175	1.090203046798706
29	33.74817204475403	response	0	k		27.0	/home/egter/Projects/stimuli/pictures/n02701002_3387.JPEG	64.91661810874939	
30	33.75730490684509	picture	0		113.0	28.0	/home/egter/Projects/stimuli/pictures/R_S_yt-9NV8zv2Sdq4_30.png	64.92575097084045	0.9444620609283447
30	34.68977093696594	response	0	j		28.0	/home/egter/Projects/stimuli/pictures/R_S_yt-9NV8zv2Sdq4_30.png	65.8582170009613	
31	34.70176696777344	picture	0		122.0	29.0	/home/egter/Projects/stimuli/pictures/S_yt-dWF89kq2JIA_13.png	65.8702130317688	1.0137999057769775
31	35.7064528465271	response	0	j		29.0	/home/egter/Projects/stimuli/pictures/S_yt-dWF89kq2JIA_13.png	66.87489891052246	
32	35.715566873550415	picture	0		91.0	30.0	/home/egter/Projects/stimuli/pictures/n01770081_19110.JPEG	66.88401293754578	0.7657921314239502
32	36.45796203613281	response	0	k		30.0	/home/egter/Projects/stimuli/pictures/n01770081_19110.JPEG	67.62640810012817	
33	36.481359004974365	picture	0		81.0	31.0	/home/egter/Projects/stimuli/pictures/R_S_yt-STL3ejY9u_Q_73.png	67.64980506896973	0.6787090301513672
33	37.14814901351929	response	0	j		31.0	/home/egter/Projects/stimuli/pictures/R_S_yt-STL3ejY9u_Q_73.png	68.31659507751465	
34	37.16006803512573	picture	0		117.0	32.0	/home/egter/Projects/stimuli/pictures/S_video_inspire_oregon_lone-ranch-beach_00015.png	68.3285140991211	0.9722030162811279
34	38.12314200401306	response	0	k		32.0	/home/egter/Projects/stimuli/pictures/S_video_inspire_oregon_lone-ranch-beach_00015.png	69.29158806800842	
35	38.13227105140686	picture	0		93.0	33.0	/home/egter/Projects/stimuli/pictures/R_S_yt-xqHrTtvFFIs_3.png	69.30071711540222	0.7777209281921387
35	38.89810085296631	response	0	j		33.0	/home/egter/Projects/stimuli/pictures/R_S_yt-xqHrTtvFFIs_3.png	70.06654691696167	
36	38.909991979599	picture	0		118.0	34.0	/home/egter/Projects/stimuli/pictures/S_T98offKWxso_127.png	70.07843804359436	0.9880039691925049
36	39.87456488609314	response	0	k		34.0	/home/egter/Projects/stimuli/pictures/S_T98offKWxso_127.png	71.0430109500885	
37	39.897995948791504	picture	0		80.0	35.0	/home/egter/Projects/stimuli/pictures/R_S_yt-2y6A9DJPsDU_65.png	71.06644201278687	0.6717479228973389
37	40.556463956832886	response	0	j		35.0	/home/egter/Projects/stimuli/pictures/R_S_yt-2y6A9DJPsDU_65.png	71.72491002082825	
38	40.56974387168884	picture	0		86.0	36.0	/home/egter/Projects/stimuli/pictures/n03126707_6906.JPEG	71.7381899356842	0.7221939563751221
38	41.274576902389526	response	0	k		36.0	/home/egter/Projects/stimuli/pictures/n03126707_6906.JPEG	72.44302296638489	
39	41.291937828063965	picture	0		76.0	37.0	/home/egter/Projects/stimuli/pictures/R_S_comp_DB_D001_C005_COMP_PSNK_v12_SDR_PS_20180912_SDR_2K_AVC.png	72.46038389205933	0.6320271492004395
39	41.914737939834595	response	0	j		37.0	/home/egter/Projects/stimuli/pictures/R_S_comp_DB_D001_C005_COMP_PSNK_v12_SDR_PS_20180912_SDR_2K_AVC.png	73.08318400382996	
40	41.923964977264404	picture	0		81.0	38.0	/home/egter/Projects/stimuli/pictures/n03042490_1870.JPEG	73.09241104125977	0.674004077911377
40	42.58974003791809	response	0	k		38.0	/home/egter/Projects/stimuli/pictures/n03042490_1870.JPEG	73.75818610191345	
41	42.59796905517578	picture	0		102.0	39.0	/home/egter/Projects/stimuli/pictures/R_S_yt-QQPv17nfR_E_2.png	73.76641511917114	0.8536679744720459
41	43.43974685668945	response	0	j		39.0	/home/egter/Projects/stimuli/pictures/R_S_yt-QQPv17nfR_E_2.png	74.60819292068481	
42	43.45163702964783	picture	0		73.0	40.0	/home/egter/Projects/stimuli/pictures/n03788195_3188.JPEG	74.62008309364319	0.6111648082733154
42	44.04124903678894	response	0	k		40.0	/home/egter/Projects/stimuli/pictures/n03788195_3188.JPEG	75.2096951007843	
43	44.06280183792114	picture	0		75.0	41.0	/home/egter/Projects/stimuli/pictures/S_1y-EvnfGO9Y_70.png	75.2312479019165	0.631878137588501
43	44.6813759803772	response	0	j		41.0	/home/egter/Projects/stimuli/pictures/S_1y-EvnfGO9Y_70.png	75.84982204437256	
44	44.694679975509644	picture	0		80.0	42.0	/home/egter/Projects/stimuli/pictures/R_S_yt-JQOHHL30Y54_101.png	75.863126039505	0.678286075592041
44	45.35655188560486	response	0	j		42.0	/home/egter/Projects/stimuli/pictures/R_S_yt-JQOHHL30Y54_101.png	76.52499794960022	
45	45.372966051101685	picture	0		70.0	43.0	/home/egter/Projects/stimuli/pictures/S_pexels-laker-5793000.png	76.54141211509705	0.5925209522247314
45	45.94810199737549	response	0	j		43.0	/home/egter/Projects/stimuli/pictures/S_pexels-laker-5793000.png	77.11654806137085	
46	45.965487003326416	picture	0		78.0	44.0	/home/egter/Projects/stimuli/pictures/n03709823_25233.JPEG	77.13393306732178	0.6528630256652832
46	46.60660696029663	response	0	k		44.0	/home/egter/Projects/stimuli/pictures/n03709823_25233.JPEG	77.77505302429199	
47	46.6183500289917	picture	0		77.0	45.0	/home/egter/Projects/stimuli/pictures/R_S_yt-zgkJCgcT1s4_300.png	77.78679609298706	0.6388068199157715
47	47.241339921951294	response	0	j		45.0	/home/egter/Projects/stimuli/pictures/R_S_yt-zgkJCgcT1s4_300.png	78.40978598594666	
48	47.25715684890747	picture	0		77.0	46.0	/home/egter/Projects/stimuli/pictures/n01950731_1335.JPEG	78.42560291290283	0.6458570957183838
48	47.88970685005188	response	0	k		46.0	/home/egter/Projects/stimuli/pictures/n01950731_1335.JPEG	79.05815291404724	
49	47.903013944625854	picture	0		94.0	47.0	/home/egter/Projects/stimuli/pictures/n03874293_1567.JPEG	79.07146000862122	0.7916159629821777
49	48.681376934051514	response	0	k		47.0	/home/egter/Projects/stimuli/pictures/n03874293_1567.JPEG	79.84982299804688	
50	48.69462990760803	picture	0		99.0	48.0	/home/egter/Projects/stimuli/pictures/ILSVRC2012_val_00031258.JPEG	79.8630759716034	0.8334000110626221
50	49.5146918296814	response	0	k		48.0	/home/egter/Projects/stimuli/pictures/ILSVRC2012_val_00031258.JPEG	80.68313789367676	
51	49.528029918670654	picture	0		73.0	49.0	/home/egter/Projects/stimuli/pictures/R_S_yt-VxTTEZNJWjs_110.png	80.69647598266602	0.6117339134216309
51	50.131407022476196	response	0	j		49.0	/home/egter/Projects/stimuli/pictures/R_S_yt-VxTTEZNJWjs_110.png	81.29985308647156	
52	50.139763832092285	picture	0		81.0	50.0	/home/egter/Projects/stimuli/pictures/S_yt-yB7mPODPTVw_74.png	81.30820989608765	0.6831920146942139
52	50.80635595321655	response	0	j		50.0	/home/egter/Projects/stimuli/pictures/S_yt-yB7mPODPTVw_74.png	81.97480201721191	
53	50.8229558467865	picture	0		87.0	51.0	/home/egter/Projects/stimuli/pictures/R_S_yt-vQ-rd-1gwH4_238.png	81.99140191078186	0.7258360385894775
53	51.53973388671875	response	0	j		51.0	/home/egter/Projects/stimuli/pictures/R_S_yt-vQ-rd-1gwH4_238.png	82.70817995071411	
54	51.54879188537598	picture	0		84.0	52.0	/home/egter/Projects/stimuli/pictures/S_yt-VxTTEZNJWjs_110.png	82.71723794937134	0.7013931274414062
54	52.239704847335815	response	0	j		52.0	/home/egter/Projects/stimuli/pictures/S_yt-VxTTEZNJWjs_110.png	83.40815091133118	
55	52.25018501281738	picture	0		75.0	53.0	/home/egter/Projects/stimuli/pictures/R_S_b3TCugtX0h0_108.png	83.41863107681274	0.6250138282775879
55	52.85790991783142	response	0	j		53.0	/home/egter/Projects/stimuli/pictures/R_S_b3TCugtX0h0_108.png	84.02635598182678	
56	52.87519884109497	picture	0		80.0	54.0	/home/egter/Projects/stimuli/pictures/R_S_comp_CH_C002_C005_PSNK_v05_SDR_PS_FINAL_20180709_SDR_2K_AVC.png	84.04364490509033	0.6666250228881836
56	53.531415939331055	response	0	j		54.0	/home/egter/Projects/stimuli/pictures/R_S_comp_CH_C002_C005_PSNK_v05_SDR_PS_FINAL_20180709_SDR_2K_AVC.png	84.69986200332642	
57	53.541823863983154	picture	0		81.0	55.0	/home/egter/Projects/stimuli/pictures/R_S_production_ID_3943334.png	84.71026992797852	0.6736140251159668
57	54.20641493797302	response	0	j		55.0	/home/egter/Projects/stimuli/pictures/R_S_production_ID_3943334.png	85.37486100196838	
58	54.21543788909912	picture	0		75.0	56.0	/home/egter/Projects/stimuli/pictures/R_S_yt-BFA07F4L4S0_22.png	85.38388395309448	0.6250021457672119
58	54.83139705657959	response	0	j		56.0	/home/egter/Projects/stimuli/pictures/R_S_yt-BFA07F4L4S0_22.png	85.99984312057495	
59	54.84044003486633	picture	0		75.0	57.0	/home/egter/Projects/stimuli/pictures/R_S_yt-wnQFgNEnHUI_109.png	86.0088860988617	0.6250579357147217
59	55.44954991340637	response	0	j		57.0	/home/egter/Projects/stimuli/pictures/R_S_yt-wnQFgNEnHUI_109.png	86.61799597740173	
60	55.465497970581055	picture	0		74.0	58.0	/home/egter/Projects/stimuli/pictures/S_pexels-mart-production-7698693.png	86.63394403457642	0.6180438995361328
60	56.06625294685364	response	0	j		58.0	/home/egter/Projects/stimuli/pictures/S_pexels-mart-production-7698693.png	87.234699010849	
61	56.08354187011719	picture	0		83.0	59.0	/home/egter/Projects/stimuli/pictures/S_yt-XUnZ7FbBtvk_162.png	87.25198793411255	0.6944160461425781
61	56.764694929122925	response	0	j		59.0	/home/egter/Projects/stimuli/pictures/S_yt-XUnZ7FbBtvk_162.png	87.93314099311829	
62	56.777957916259766	picture	0		103.0	60.0	/home/egter/Projects/stimuli/pictures/n04332243_3493.JPEG	87.94640398025513	0.8699829578399658
62	57.63141489028931	response	0	k		60.0	/home/egter/Projects/stimuli/pictures/n04332243_3493.JPEG	88.79986095428467	
63	57.64794087409973	picture	0		77.0	61.0	/home/egter/Projects/stimuli/pictures/S_yt-Mjm5smrurQI_125.png	88.81638693809509	0.6438500881195068
63	58.27458596229553	response	0	j		61.0	/home/egter/Projects/stimuli/pictures/S_yt-Mjm5smrurQI_125.png	89.4430320262909	
64	58.29179096221924	picture	0		86.0	62.0	/home/egter/Projects/stimuli/pictures/R_S_yt--JnTDuElzXQ_121.png	89.4602370262146	0.7152838706970215
64	58.99801993370056	response	0	j		62.0	/home/egter/Projects/stimuli/pictures/R_S_yt--JnTDuElzXQ_121.png	90.16646599769592	
65	59.00707483291626	picture	0		77.0	63.0	/home/egter/Projects/stimuli/pictures/S_yt-lCb_efvJcdE_5.png	90.17552089691162	0.6458170413970947
65	59.639689922332764	response	0	j		63.0	/home/egter/Projects/stimuli/pictures/S_yt-lCb_efvJcdE_5.png	90.80813598632812	
66	59.652891874313354	picture	0		76.0	64.0	/home/egter/Projects/stimuli/pictures/n01667778_22618.JPEG	90.82133793830872	0.6450309753417969
66	60.281404972076416	response	0	k		64.0	/home/egter/Projects/stimuli/pictures/n01667778_22618.JPEG	91.44985103607178	
67	60.29792284965515	picture	0		89.0	65.0	/home/egter/Projects/stimuli/pictures/S_yt-PDNWrJ2bZ6I_79.png	91.46636891365051	0.7438480854034424
67	61.03140687942505	response	0	k		65.0	/home/egter/Projects/stimuli/pictures/S_yt-PDNWrJ2bZ6I_79.png	92.19985294342041	
68	61.041770935058594	picture	0		87.0	66.0	/home/egter/Projects/stimuli/pictures/S_yt-STL3ejY9u_Q_73.png	92.21021699905396	0.7311270236968994
68	61.75721192359924	response	0	j		66.0	/home/egter/Projects/stimuli/pictures/S_yt-STL3ejY9u_Q_73.png	92.9256579875946	
69	61.77289795875549	picture	0		95.0	67.0	/home/egter/Projects/stimuli/pictures/n01818515_4196.JPEG	92.94134402275085	0.7966179847717285
69	62.556401014328	response	0	k		67.0	/home/egter/Projects/stimuli/pictures/n01818515_4196.JPEG	93.72484707832336	
70	62.56951594352722	picture	0		96.0	68.0	/home/egter/Projects/stimuli/pictures/n02492035_9172.JPEG	93.73796200752258	0.798590898513794
70	63.35630798339844	response	0	k		68.0	/home/egter/Projects/stimuli/pictures/n02492035_9172.JPEG	94.5247540473938	
71	63.368106842041016	picture	0		81.0	69.0	/home/egter/Projects/stimuli/pictures/n03447721_6651.JPEG	94.53655290603638	0.673652172088623
71	64.03128099441528	response	0	k		69.0	/home/egter/Projects/stimuli/pictures/n03447721_6651.JPEG	95.19972705841064	
72	64.04175901412964	picture	0		87.0	70.0	/home/egter/Projects/stimuli/pictures/n01694178_8754.JPEG	95.210205078125	0.7227029800415039
72	64.75635004043579	response	0	k		70.0	/home/egter/Projects/stimuli/pictures/n01694178_8754.JPEG	95.92479610443115	
73	64.76446199417114	picture	0		113.0	71.0	/home/egter/Projects/stimuli/pictures/S_yt-oxUpc8I5wWQ_238.png	95.9329080581665	0.9439349174499512
73	65.69793701171875	response	0	j		71.0	/home/egter/Projects/stimuli/pictures/S_yt-oxUpc8I5wWQ_238.png	96.86638307571411	
74	65.7083969116211	picture	0		88.0	72.0	/home/egter/Projects/stimuli/pictures/n12768682_34361.JPEG	96.87684297561646	0.7430341243743896
74	66.43130493164062	response	0	k		72.0	/home/egter/Projects/stimuli/pictures/n12768682_34361.JPEG	97.59975099563599	
75	66.45143103599548	picture	0		86.0	73.0	/home/egter/Projects/stimuli/pictures/n02978881_9617.JPEG	97.61987709999084	0.7152328491210938
75	67.15635204315186	response	0	k		73.0	/home/egter/Projects/stimuli/pictures/n02978881_9617.JPEG	98.32479810714722	
76	67.16666388511658	picture	0		90.0	74.0	/home/egter/Projects/stimuli/pictures/S_yt-jUGt_Byqczw_599.png	98.33510994911194	0.7562191486358643
76	67.90634202957153	response	0	j		74.0	/home/egter/Projects/stimuli/pictures/S_yt-jUGt_Byqczw_599.png	99.0747880935669	
77	67.92288303375244	picture	0		88.0	75.0	/home/egter/Projects/stimuli/pictures/S_yt-KLInd-KrK_w_19.png	99.0913290977478	0.7368729114532471
77	68.64794898033142	response	0	j		75.0	/home/egter/Projects/stimuli/pictures/S_yt-KLInd-KrK_w_19.png	99.81639504432678	
78	68.65975594520569	picture	0		78.0	76.0	/home/egter/Projects/stimuli/pictures/R_S_yt-lEPoNlKWibA_1.png	99.82820200920105	0.6527791023254395
78	69.29798293113708	response	0	j		76.0	/home/egter/Projects/stimuli/pictures/R_S_yt-lEPoNlKWibA_1.png	100.46642899513245	
79	69.31253504753113	picture	0		81.0	77.0	/home/egter/Projects/stimuli/pictures/n03496892_7861.JPEG	100.48098111152649	0.6805160045623779
79	69.98131394386292	response	0	k		77.0	/home/egter/Projects/stimuli/pictures/n03496892_7861.JPEG	101.14976000785828	
80	69.9930510520935	picture	0		91.0	78.0	/home/egter/Projects/stimuli/pictures/R_S_pexels-koolshooters-7327412.png	101.16149711608887	0.7569358348846436
80	70.73965501785278	response	0	j		78.0	/home/egter/Projects/stimuli/pictures/R_S_pexels-koolshooters-7327412.png	101.90810108184814	
81	70.74998688697815	picture	0		87.0	79.0	/home/egter/Projects/stimuli/pictures/n01768244_4120.JPEG	101.91843295097351	0.7311990261077881
81	71.45786094665527	response	0	k		79.0	/home/egter/Projects/stimuli/pictures/n01768244_4120.JPEG	102.62630701065063	
82	71.48118591308594	picture	0		88.0	80.0	/home/egter/Projects/stimuli/pictures/S_yt-Tt_LkR4iAt4_11.png	102.6496319770813	0.7340540885925293
82	72.20631003379822	response	0	j		80.0	/home/egter/Projects/stimuli/pictures/S_yt-Tt_LkR4iAt4_11.png	103.37475609779358	
83	72.21524000167847	picture	0		97.0	81.0	/home/egter/Projects/stimuli/pictures/S_ILSVRC2015_train_00067005.png	103.38368606567383	0.8125598430633545
83	73.01466488838196	response	0	j		81.0	/home/egter/Projects/stimuli/pictures/S_ILSVRC2015_train_00067005.png	104.18311095237732	
84	73.02779984474182	picture	0		81.0	82.0	/home/egter/Projects/stimuli/pictures/S_yt-gzjV6YoK6X0_3.png	104.19624590873718	0.6735820770263672
84	73.68281984329224	response	0	j		82.0	/home/egter/Projects/stimuli/pictures/S_yt-gzjV6YoK6X0_3.png	104.8512659072876	
85	73.70138192176819	picture	0		74.0	83.0	/home/egter/Projects/stimuli/pictures/R_S_yt-wUqpCtBOFBA_89.png	104.86982798576355	0.6180150508880615
85	74.30623984336853	response	0	j		83.0	/home/egter/Projects/stimuli/pictures/R_S_yt-wUqpCtBOFBA_89.png	105.47468590736389	
86	74.31939697265625	picture	0		88.0	84.0	/home/egter/Projects/stimuli/pictures/n03891251_1488.JPEG	105.48784303665161	0.7430820465087891
86	75.04870700836182	response	0	k		84.0	/home/egter/Projects/stimuli/pictures/n03891251_1488.JPEG	106.21715307235718	
87	75.06247901916504	picture	0		105.0	85.0	/home/egter/Projects/stimuli/pictures/n01742172_7834.JPEG	106.2309250831604	0.8819220066070557
87	75.9313850402832	response	0	k		85.0	/home/egter/Projects/stimuli/pictures/n01742172_7834.JPEG	107.09983110427856	
88	75.9444010257721	picture	0		88.0	86.0	/home/egter/Projects/stimuli/pictures/n03496892_5197.JPEG	107.11284708976746	0.7450878620147705
88	76.67369389533997	response	0	k		86.0	/home/egter/Projects/stimuli/pictures/n03496892_5197.JPEG	107.84213995933533	
89	76.68948888778687	picture	0		98.0	87.0	/home/egter/Projects/stimuli/pictures/S_yt-NqZHX-eOVUA_35.png	107.85793495178223	0.8173999786376953
89	77.49795293807983	response	0	k		87.0	/home/egter/Projects/stimuli/pictures/S_yt-NqZHX-eOVUA_35.png	108.6663990020752	
90	77.50688886642456	picture	0		93.0	88.0	/home/egter/Projects/stimuli/pictures/n04086273_8492.JPEG	108.67533493041992	0.7777400016784668
90	78.26618695259094	response	0	k		88.0	/home/egter/Projects/stimuli/pictures/n04086273_8492.JPEG	109.4346330165863	
91	78.28462886810303	picture	0		141.0	89.0	/home/egter/Projects/stimuli/pictures/S_comp_GMT306_139NC_139J_3066_CALI_TO_VEGAS_v08_SDR_PS_20180824_SDR_2K_AVC.png	109.45307493209839	1.1736371517181396
91	79.44794988632202	response	0	j		89.0	/home/egter/Projects/stimuli/pictures/S_comp_GMT306_139NC_139J_3066_CALI_TO_VEGAS_v08_SDR_PS_20180824_SDR_2K_AVC.png	110.61639595031738	
92	79.45826601982117	picture	0		88.0	90.0	/home/egter/Projects/stimuli/pictures/n02092339_211.JPEG	110.62671208381653	0.7361159324645996
92	80.18127489089966	response	0	k		90.0	/home/egter/Projects/stimuli/pictures/n02092339_211.JPEG	111.34972095489502	
93	80.19438195228577	picture	0		91.0	91.0	/home/egter/Projects/stimuli/pictures/ILSVRC2012_test_00080274.JPEG	111.36282801628113	0.7569088935852051
93	80.93967390060425	response	0	k		91.0	/home/egter/Projects/stimuli/pictures/ILSVRC2012_test_00080274.JPEG	112.10811996459961	
94	80.95129084587097	picture	0		87.0	92.0	/home/egter/Projects/stimuli/pictures/R_S_yt-C0iWlRWU21o_5.png	112.11973690986633	0.7222130298614502
94	81.6577320098877	response	0	j		92.0	/home/egter/Projects/stimuli/pictures/R_S_yt-C0iWlRWU21o_5.png	112.82617807388306	
95	81.67350387573242	picture	0		91.0	93.0	/home/egter/Projects/stimuli/pictures/R_S_yt-_68FWLGgPYE_25.png	112.84194993972778	0.7659649848937988
95	82.42361187934875	response	0	j		93.0	/home/egter/Projects/stimuli/pictures/R_S_yt-_68FWLGgPYE_25.png	113.59205794334412	
96	82.43946886062622	picture	0		72.0	94.0	/home/egter/Projects/stimuli/pictures/S_yt-3EZOeAbiMQE_10.png	113.60791492462158	0.6021111011505127
96	83.0312728881836	response	0	j		94.0	/home/egter/Projects/stimuli/pictures/S_yt-3EZOeAbiMQE_10.png	114.19971895217896	
97	83.04157996177673	picture	0		78.0	95.0	/home/egter/Projects/stimuli/pictures/n02268853_407.JPEG	114.2100260257721	0.6527490615844727
97	83.67514491081238	response	0	k		95.0	/home/egter/Projects/stimuli/pictures/n02268853_407.JPEG	114.84359097480774	
98	83.6943290233612	picture	0		93.0	96.0	/home/egter/Projects/stimuli/pictures/n01753488_3517.JPEG	114.86277508735657	0.7708268165588379
98	84.45625495910645	response	0	k		96.0	/home/egter/Projects/stimuli/pictures/n01753488_3517.JPEG	115.6247010231018	
99	84.46515583992004	picture	0		76.0	97.0	/home/egter/Projects/stimuli/pictures/n07590611_16771.JPEG	115.6336019039154	0.6388731002807617
99	85.09023904800415	response	0	k		97.0	/home/egter/Projects/stimuli/pictures/n07590611_16771.JPEG	116.25868511199951	
100	85.1040289402008	picture	0		80.0	98.0	/home/egter/Projects/stimuli/pictures/n01737021_9851.JPEG	116.27247500419617	0.6736159324645996
100	85.76457285881042	response	0	k		98.0	/home/egter/Projects/stimuli/pictures/n01737021_9851.JPEG	116.93301892280579	
101	85.7776448726654	picture	0		91.0	99.0	/home/egter/Projects/stimuli/pictures/R_S_yt-4Qz0m5IYh10_167.png	116.94609093666077	0.7569031715393066
101	86.52293992042542	response	0	j		99.0	/home/egter/Projects/stimuli/pictures/R_S_yt-4Qz0m5IYh10_167.png	117.69138598442078	
102	86.53454804420471	picture	0		74.0	100.0	/home/egter/Projects/stimuli/pictures/R_S_ILSVRC2015_train_00001011.png	117.70299410820007	0.6180648803710938
102	87.13957405090332	response	0	k		100.0	/home/egter/Projects/stimuli/pictures/R_S_ILSVRC2015_train_00001011.png	118.30802011489868	
103	87.1526129245758	picture	0		117.0	101.0	/home/egter/Projects/stimuli/pictures/S_yt-BFA07F4L4S0_22.png	118.32105898857117	0.9723019599914551
103	88.11457896232605	response	0	j		101.0	/home/egter/Projects/stimuli/pictures/S_yt-BFA07F4L4S0_22.png	119.28302502632141	
104	88.12491488456726	picture	0		135.0	102.0	/home/egter/Projects/stimuli/pictures/n01744401_7320.JPEG	119.29336094856262	1.1249260902404785
104	89.23957300186157	response	0	k		102.0	/home/egter/Projects/stimuli/pictures/n01744401_7320.JPEG	120.40801906585693	
105	89.24984097480774	picture	0		103.0	103.0	/home/egter/Projects/stimuli/pictures/n03841143_17620.JPEG	120.4182870388031	0.8610858917236328
105	90.09786486625671	response	0	k		103.0	/home/egter/Projects/stimuli/pictures/n03841143_17620.JPEG	121.26631093025208	
106	90.11092686653137	picture	0		86.0	104.0	/home/egter/Projects/stimuli/pictures/n04461696_16226.JPEG	121.27937293052673	0.7291631698608398
106	90.81458306312561	response	0	k		104.0	/home/egter/Projects/stimuli/pictures/n04461696_16226.JPEG	121.98302912712097	
107	90.84009003639221	picture	0		146.0	105.0	/home/egter/Projects/stimuli/pictures/S_yt-Bejo5TLEpg4_36.png	122.00853610038757	1.2243289947509766
107	92.04856896400452	response	0	k		105.0	/home/egter/Projects/stimuli/pictures/S_yt-Bejo5TLEpg4_36.png	123.21701502799988	
108	92.06441903114319	picture	0		348.0	106.0	/home/egter/Projects/stimuli/pictures/R_S_video_inspire_oregon_lone-ranch-beach_00015.png	123.23286509513855	2.9006659984588623
108	94.95624494552612	response	0	j		106.0	/home/egter/Projects/stimuli/pictures/R_S_video_inspire_oregon_lone-ranch-beach_00015.png	126.12469100952148	
109	94.96508502960205	picture	0		166.0	107.0	/home/egter/Projects/stimuli/pictures/S_yt-NQSCGMpo-p8_118.png	126.13353109359741	1.388890027999878
109	96.34027791023254	response	0	j		107.0	/home/egter/Projects/stimuli/pictures/S_yt-NQSCGMpo-p8_118.png	127.5087239742279	
110	96.35397505760193	picture	0		99.0	108.0	/home/egter/Projects/stimuli/pictures/ILSVRC2012_test_00088583.JPEG	127.52242112159729	0.8332819938659668
110	97.17353796958923	response	0	k		108.0	/home/egter/Projects/stimuli/pictures/ILSVRC2012_test_00088583.JPEG	128.3419840335846	
111	97.1872570514679	picture	0		132.0	109.0	/home/egter/Projects/stimuli/pictures/R_S_ILSVRC2015_train_00087003.png	128.35570311546326	1.1041948795318604
111	98.27445197105408	response	0	j		109.0	/home/egter/Projects/stimuli/pictures/R_S_ILSVRC2015_train_00087003.png	129.44289803504944	
112	98.29145193099976	picture	0		91.0	110.0	/home/egter/Projects/stimuli/pictures/S_yt-dQRqGgpS9mE_288.png	129.45989799499512	0.7569420337677002
112	99.03958487510681	response	0	j		110.0	/home/egter/Projects/stimuli/pictures/S_yt-dQRqGgpS9mE_288.png	130.20803093910217	
113	99.04839396476746	picture	0		80.0	111.0	/home/egter/Projects/stimuli/pictures/R_S_yt-NQSCGMpo-p8_118.png	130.21684002876282	0.6665959358215332
113	99.70621705055237	response	0	j		111.0	/home/egter/Projects/stimuli/pictures/R_S_yt-NQSCGMpo-p8_118.png	130.87466311454773	
114	99.71498990058899	picture	0		78.0	112.0	/home/egter/Projects/stimuli/pictures/n04238763_3478.JPEG	130.88343596458435	0.6528141498565674
114	100.35618591308594	response	0	k		112.0	/home/egter/Projects/stimuli/pictures/n04238763_3478.JPEG	131.5246319770813	
115	100.36780405044556	picture	0		108.0	113.0	/home/egter/Projects/stimuli/pictures/S_yt-l_ioasf6yHg_44.png	131.53625011444092	0.9027888774871826
115	101.25681400299072	response	0	j		113.0	/home/egter/Projects/stimuli/pictures/S_yt-l_ioasf6yHg_44.png	132.42526006698608	
116	101.27059292793274	picture	0		105.0	114.0	/home/egter/Projects/stimuli/pictures/n03447447_7930.JPEG	132.4390389919281	0.8819470405578613
116	102.13954401016235	response	0	k		114.0	/home/egter/Projects/stimuli/pictures/n03447447_7930.JPEG	133.30799007415771	
117	102.1525399684906	picture	0		77.0	115.0	/home/egter/Projects/stimuli/pictures/n04192698_11944.JPEG	133.32098603248596	0.6388540267944336
117	102.78120994567871	response	0	k		115.0	/home/egter/Projects/stimuli/pictures/n04192698_11944.JPEG	133.94965600967407	
118	102.79139399528503	picture	0		97.0	116.0	/home/egter/Projects/stimuli/pictures/n02099849_3786.JPEG	133.9598400592804	0.8124558925628662
118	103.59005689620972	response	0	k		116.0	/home/egter/Projects/stimuli/pictures/n02099849_3786.JPEG	134.75850296020508	
119	103.6038498878479	picture	0		96.0	117.0	/home/egter/Projects/stimuli/pictures/n02116738_10530.JPEG	134.77229595184326	0.8055450916290283
119	104.39783501625061	response	0	k		117.0	/home/egter/Projects/stimuli/pictures/n02116738_10530.JPEG	135.56628108024597	
120	104.40939497947693	picture	0		76.0	118.0	/home/egter/Projects/stimuli/pictures/S_yt-jcuaf9iSEkI_169.png	135.5778410434723	0.6319620609283447
120	105.03119802474976	response	0	j		118.0	/home/egter/Projects/stimuli/pictures/S_yt-jcuaf9iSEkI_169.png	136.19964408874512	
121	105.04135704040527	picture	0		69.0	119.0	/home/egter/Projects/stimuli/pictures/n04238763_2372.JPEG	136.20980310440063	0.5764617919921875
121	105.60622882843018	response	0	k		119.0	/home/egter/Projects/stimuli/pictures/n04238763_2372.JPEG	136.77467489242554	
122	105.61781883239746	picture	0		105.0	120.0	/home/egter/Projects/stimuli/pictures/S_comp_N008_C009_PS_v01_SDR_PS_20180925_SDR_2K_AVC.png	136.78626489639282	0.8749639987945557
122	106.47430801391602	response	0	j		120.0	/home/egter/Projects/stimuli/pictures/S_comp_N008_C009_PS_v01_SDR_PS_20180925_SDR_2K_AVC.png	137.64275407791138	
123	106.49278283119202	picture	0		101.0	121.0	/home/egter/Projects/stimuli/pictures/S_yt-BG-G7m5wLZ4_94.png	137.66122889518738	0.840238094329834
123	107.32286095619202	response	0	k		121.0	/home/egter/Projects/stimuli/pictures/S_yt-BG-G7m5wLZ4_94.png	138.49130702018738	
124	107.33302092552185	picture	0		140.0	122.0	/home/egter/Projects/stimuli/pictures/n02859443_32287.JPEG	138.5014669895172	1.1666760444641113
124	108.48287105560303	response	0	k		122.0	/home/egter/Projects/stimuli/pictures/n02859443_32287.JPEG	139.6513171195984	
125	108.49969696998596	picture	0		88.0	123.0	/home/egter/Projects/stimuli/pictures/n02326432_5125.JPEG	139.66814303398132	0.7360498905181885
125	109.22279000282288	response	0	k		123.0	/home/egter/Projects/stimuli/pictures/n02326432_5125.JPEG	140.39123606681824	
126	109.23574686050415	picture	0		98.0	124.0	/home/egter/Projects/stimuli/pictures/R_S_yt-BqJHT4K7Qf8_127.png	140.4041929244995	0.8125321865081787
126	110.03956699371338	response	0	j		124.0	/home/egter/Projects/stimuli/pictures/R_S_yt-BqJHT4K7Qf8_127.png	141.20801305770874	
127	110.04827904701233	picture	0		83.0	125.0	/home/egter/Projects/stimuli/pictures/S_ILSVRC2015_train_00689000.png	141.2167251110077	0.7014188766479492
127	110.73119401931763	response	0	j		125.0	/home/egter/Projects/stimuli/pictures/S_ILSVRC2015_train_00689000.png	141.899640083313	
128	110.74969792366028	picture	0		75.0	126.0	/home/egter/Projects/stimuli/pictures/R_S_1y-EvnfGO9Y_70.png	141.91814398765564	0.6313550472259521
128	111.36450791358948	response	0	j		126.0	/home/egter/Projects/stimuli/pictures/R_S_1y-EvnfGO9Y_70.png	142.53295397758484	
129	111.38105297088623	picture	0		124.0	127.0	/home/egter/Projects/stimuli/pictures/S_yt-zrCOCNRc2cY_254.png	142.5494990348816	1.0352489948272705
129	112.40614700317383	response	0	k		127.0	/home/egter/Projects/stimuli/pictures/S_yt-zrCOCNRc2cY_254.png	143.5745930671692	
130	112.4163019657135	picture	0		95.0	128.0	/home/egter/Projects/stimuli/pictures/n07684084_6374.JPEG	143.58474802970886	0.7916529178619385
130	113.19782400131226	response	0	k		128.0	/home/egter/Projects/stimuli/pictures/n07684084_6374.JPEG	144.36627006530762	
131	113.20795488357544	picture	0		87.0	129.0	/home/egter/Projects/stimuli/pictures/n01695060_4884.JPEG	144.3764009475708	0.7291650772094727
131	113.92336702346802	response	0	k		129.0	/home/egter/Projects/stimuli/pictures/n01695060_4884.JPEG	145.09181308746338	
132	113.93711996078491	picture	0		93.0	130.0	/home/egter/Projects/stimuli/pictures/R_S_Pexels_Videos_278654_1.png	145.10556602478027	0.7777309417724609
132	114.70618796348572	response	0	j		130.0	/home/egter/Projects/stimuli/pictures/R_S_Pexels_Videos_278654_1.png	145.87463402748108	
133	114.71485090255737	picture	0		101.0	131.0	/home/egter/Projects/stimuli/pictures/S_yt-iT6jsSikmGM_4.png	145.88329696655273	0.8495490550994873
133	115.54833388328552	response	0	j		131.0	/home/egter/Projects/stimuli/pictures/S_yt-iT6jsSikmGM_4.png	146.71677994728088	
134	115.56439995765686	picture	0		138.0	132.0	/home/egter/Projects/stimuli/pictures/R_S_video_inspire_oregon_portland_00064.png	146.73284602165222	1.1504600048065186
134	116.70617604255676	response	0	j		132.0	/home/egter/Projects/stimuli/pictures/R_S_video_inspire_oregon_portland_00064.png	147.87462210655212	
135	116.71485996246338	picture	0		85.0	133.0	/home/egter/Projects/stimuli/pictures/ILSVRC2012_test_00038027.JPEG	147.88330602645874	0.7083148956298828
135	117.41445684432983	response	0	k		133.0	/home/egter/Projects/stimuli/pictures/ILSVRC2012_test_00038027.JPEG	148.5829029083252	
136	117.42317485809326	picture	0		80.0	134.0	/home/egter/Projects/stimuli/pictures/ILSVRC2012_test_00030050.JPEG	148.59162092208862	0.6666769981384277
136	118.07427883148193	response	0	k		134.0	/home/egter/Projects/stimuli/pictures/ILSVRC2012_test_00030050.JPEG	149.2427248954773	
137	118.08985185623169	picture	0		146.0	135.0	/home/egter/Projects/stimuli/pictures/n01692333_9591.JPEG	149.25829792022705	1.2221870422363281
137	119.29832100868225	response	0	k		135.0	/home/egter/Projects/stimuli/pictures/n01692333_9591.JPEG	150.4667670726776	
138	119.31203889846802	picture	0		75.0	136.0	/home/egter/Projects/stimuli/pictures/S_yt-Hs5HF3mTQ7A_9.png	150.48048496246338	0.6319880485534668
138	119.93109583854675	response	0	k		136.0	/home/egter/Projects/stimuli/pictures/S_yt-Hs5HF3mTQ7A_9.png	151.09954190254211	
139	119.94402694702148	picture	0		87.0	137.0	/home/egter/Projects/stimuli/pictures/n13133613_36128.JPEG	151.11247301101685	0.7222719192504883
139	120.65612697601318	response	0	k		137.0	/home/egter/Projects/stimuli/pictures/n13133613_36128.JPEG	151.82457304000854	
140	120.66629886627197	picture	0		73.0	138.0	/home/egter/Projects/stimuli/pictures/n04266014_6986.JPEG	151.83474493026733	0.6110391616821289
140	121.2644510269165	response	0	k		138.0	/home/egter/Projects/stimuli/pictures/n04266014_6986.JPEG	152.43289709091187	
141	121.2773380279541	picture	0		91.0	139.0	/home/egter/Projects/stimuli/pictures/n04613696_9693.JPEG	152.44578409194946	0.756915807723999
141	122.02271699905396	response	0	k		139.0	/home/egter/Projects/stimuli/pictures/n04613696_9693.JPEG	153.19116306304932	
142	122.0342538356781	picture	0		80.0	140.0	/home/egter/Projects/stimuli/pictures/R_S_bing-www_msn_com_en-us_video_news_tommy-lasorda-salutes-national-league-champs_vp-AAtLThQ_4.png	153.20269989967346	0.666619062423706
142	122.68262004852295	response	0	j		140.0	/home/egter/Projects/stimuli/pictures/R_S_bing-www_msn_com_en-us_video_news_tommy-lasorda-salutes-national-league-champs_vp-AAtLThQ_4.png	153.8510661125183	
143	122.7008728981018	picture	0		97.0	141.0	/home/egter/Projects/stimuli/pictures/S_yt--v_iMUMMX6g_39.png	153.86931896209717	0.805556058883667
143	123.4909999370575	response	0	j		141.0	/home/egter/Projects/stimuli/pictures/S_yt--v_iMUMMX6g_39.png	154.65944600105286	
144	123.50642895698547	picture	0		90.0	142.0	/home/egter/Projects/stimuli/pictures/R_S_yt-tX3slAQb9yY_13.png	154.67487502098083	0.7500438690185547
144	124.24771690368652	response	0	j		142.0	/home/egter/Projects/stimuli/pictures/R_S_yt-tX3slAQb9yY_13.png	155.41616296768188	
145	124.25647282600403	picture	0		83.0	143.0	/home/egter/Projects/stimuli/pictures/n02094258_5630.JPEG	155.4249188899994	0.694411039352417
145	124.93945288658142	response	0	k		143.0	/home/egter/Projects/stimuli/pictures/n02094258_5630.JPEG	156.10789895057678	
146	124.95088386535645	picture	0		124.0	144.0	/home/egter/Projects/stimuli/pictures/n09468604_18775.JPEG	156.1193299293518	1.0346829891204834
146	125.97276091575623	response	0	j		144.0	/home/egter/Projects/stimuli/pictures/n09468604_18775.JPEG	157.1412069797516	
147	125.98556685447693	picture	0		80.0	145.0	/home/egter/Projects/stimuli/pictures/n02109525_32141.JPEG	157.1540129184723	0.6667079925537109
147	126.63933491706848	response	0	k		145.0	/home/egter/Projects/stimuli/pictures/n02109525_32141.JPEG	157.80778098106384	
148	126.65227484703064	picture	0		91.0	146.0	/home/egter/Projects/stimuli/pictures/R_S_ILSVRC2015_train_00067005.png	157.820720911026	0.770341157913208
148	127.39772486686707	response	0	j		146.0	/home/egter/Projects/stimuli/pictures/R_S_ILSVRC2015_train_00067005.png	158.56617093086243	
149	127.42261600494385	picture	0		73.0	147.0	/home/egter/Projects/stimuli/pictures/n03670208_1625.JPEG	158.5910620689392	0.6116340160369873
149	128.02276492118835	response	0	k		147.0	/home/egter/Projects/stimuli/pictures/n03670208_1625.JPEG	159.19121098518372	
150	128.03425002098083	picture	0		84.0	148.0	/home/egter/Projects/stimuli/pictures/n03770679_10833.JPEG	159.2026960849762	0.7013528347015381
150	128.7227020263672	response	0	k		148.0	/home/egter/Projects/stimuli/pictures/n03770679_10833.JPEG	159.89114809036255	
151	128.73560285568237	picture	0		84.0	149.0	/home/egter/Projects/stimuli/pictures/n03594945_7367.JPEG	159.90404891967773	0.7036910057067871
151	129.42321586608887	response	0	k		149.0	/home/egter/Projects/stimuli/pictures/n03594945_7367.JPEG	160.59166193008423	
152	129.43929386138916	picture	0		88.0	150.0	/home/egter/Projects/stimuli/pictures/S_ILSVRC2015_train_00323000.png	160.60773992538452	0.7754120826721191
152	130.16441082954407	response	0	j		150.0	/home/egter/Projects/stimuli/pictures/S_ILSVRC2015_train_00323000.png	161.33285689353943	
153	130.21470594406128	picture	0		92.0	151.0	/home/egter/Projects/stimuli/pictures/S_yt-EApB0DJ3ECg_66.png	161.38315200805664	0.7709369659423828
153	130.9727439880371	response	0	j		151.0	/home/egter/Projects/stimuli/pictures/S_yt-EApB0DJ3ECg_66.png	162.14119005203247	
154	130.98564291000366	picture	0		81.0	152.0	/home/egter/Projects/stimuli/pictures/S_yt-QQPv17nfR_E_2.png	162.15408897399902	0.6737351417541504
154	131.64770197868347	response	0	j		152.0	/home/egter/Projects/stimuli/pictures/S_yt-QQPv17nfR_E_2.png	162.81614804267883	
155	131.6593780517578	picture	0		116.0	153.0	/home/egter/Projects/stimuli/pictures/n01751748_9158.JPEG	162.82782411575317	0.9715437889099121
155	132.6143980026245	response	0	k		153.0	/home/egter/Projects/stimuli/pictures/n01751748_9158.JPEG	163.78284406661987	
156	132.63092184066772	picture	0		86.0	154.0	/home/egter/Projects/stimuli/pictures/n01440764_13368.JPEG	163.7993679046631	0.7226431369781494
156	133.33980298042297	response	0	k		154.0	/home/egter/Projects/stimuli/pictures/n01440764_13368.JPEG	164.50824904441833	
157	133.35356497764587	picture	0		101.0	155.0	/home/egter/Projects/stimuli/pictures/S_yt-WGxmmrlfdgI_10.png	164.52201104164124	0.8472380638122559
157	134.18936896324158	response	0	k		155.0	/home/egter/Projects/stimuli/pictures/S_yt-WGxmmrlfdgI_10.png	165.35781502723694	
158	134.20080304145813	picture	0		97.0	156.0	/home/egter/Projects/stimuli/pictures/S_yt-ZTAaH5XbtfE_3.png	165.3692491054535	0.805560827255249
158	134.99768900871277	response	0	j		156.0	/home/egter/Projects/stimuli/pictures/S_yt-ZTAaH5XbtfE_3.png	166.16613507270813	
159	135.00636386871338	picture	0		99.0	157.0	/home/egter/Projects/stimuli/pictures/R_S_yt-osz-TXlRdXs_2.png	166.17480993270874	0.8263230323791504
159	135.82273292541504	response	0	j		157.0	/home/egter/Projects/stimuli/pictures/R_S_yt-osz-TXlRdXs_2.png	166.9911789894104	
160	135.83268690109253	picture	0		107.0	158.0	/home/egter/Projects/stimuli/pictures/R_S_bing-www_break_com_video_like-a-cat-catching-a-fly-3131008_12.png	167.0011329650879	0.8958351612091064
160	136.70762491226196	response	0	j		158.0	/home/egter/Projects/stimuli/pictures/R_S_bing-www_break_com_video_like-a-cat-catching-a-fly-3131008_12.png	167.87607097625732	
161	136.72852206230164	picture	0		83.0	159.0	/home/egter/Projects/stimuli/pictures/n07695742_10824.JPEG	167.896968126297	0.6944577693939209
161	137.41450691223145	response	0	k		159.0	/home/egter/Projects/stimuli/pictures/n07695742_10824.JPEG	168.5829529762268	
162	137.42297983169556	picture	0		99.0	160.0	/home/egter/Projects/stimuli/pictures/R_S_pexels-kampus-production-6022792.png	168.59142589569092	0.826383113861084
162	138.23938989639282	response	0	j		160.0	/home/egter/Projects/stimuli/pictures/R_S_pexels-kampus-production-6022792.png	169.40783596038818	
163	138.24936294555664	picture	0		88.0	161.0	/home/egter/Projects/stimuli/pictures/R_S_ILSVRC2015_train_00515000.png	169.417809009552	0.73614501953125
163	138.97268199920654	response	0	j		161.0	/home/egter/Projects/stimuli/pictures/R_S_ILSVRC2015_train_00515000.png	170.1411280632019	
164	138.9855079650879	picture	0		95.0	162.0	/home/egter/Projects/stimuli/pictures/S_yt-oM9oaz2ytSY_140.png	170.15395402908325	0.7917220592498779
164	139.76437997817993	response	0	k		162.0	/home/egter/Projects/stimuli/pictures/S_yt-oM9oaz2ytSY_140.png	170.9328260421753	
165	139.77723002433777	picture	0		100.0	163.0	/home/egter/Projects/stimuli/pictures/n03042490_2350.JPEG	170.94567608833313	0.8332359790802002
165	140.59766483306885	response	0	k		163.0	/home/egter/Projects/stimuli/pictures/n03042490_2350.JPEG	171.7661108970642	
166	140.61046600341797	picture	0		97.0	164.0	/home/egter/Projects/stimuli/pictures/n02107908_11245.JPEG	171.77891206741333	0.8055629730224609
166	141.4060399532318	response	0	k		164.0	/home/egter/Projects/stimuli/pictures/n02107908_11245.JPEG	172.57448601722717	
167	141.41602897644043	picture	0		88.0	165.0	/home/egter/Projects/stimuli/pictures/n02018795_6999.JPEG	172.5844750404358	0.7360990047454834
167	142.13947105407715	response	0	k		165.0	/home/egter/Projects/stimuli/pictures/n02018795_6999.JPEG	173.3079171180725	
168	142.1521279811859	picture	0		94.0	166.0	/home/egter/Projects/stimuli/pictures/R_S_yt-F1vQ5nZWhDg_21.png	173.32057404518127	0.784700870513916
168	142.9159140586853	response	0	j		166.0	/home/egter/Projects/stimuli/pictures/R_S_yt-F1vQ5nZWhDg_21.png	174.08436012268066	
169	142.93682885169983	picture	0		85.0	167.0	/home/egter/Projects/stimuli/pictures/n01667778_22337.JPEG	174.1052749156952	0.7152681350708008
169	143.63933300971985	response	0	k		167.0	/home/egter/Projects/stimuli/pictures/n01667778_22337.JPEG	174.8077790737152	
170	143.65209698677063	picture	0		88.0	168.0	/home/egter/Projects/stimuli/pictures/S_yt-osz-TXlRdXs_2.png	174.820543050766	0.7292568683624268
170	144.37265300750732	response	0	j		168.0	/home/egter/Projects/stimuli/pictures/S_yt-osz-TXlRdXs_2.png	175.54109907150269	
171	144.38135385513306	picture	0		83.0	169.0	/home/egter/Projects/stimuli/pictures/n02641379_39329.JPEG	175.54979991912842	0.6943531036376953
171	145.06432390213013	response	0	k		169.0	/home/egter/Projects/stimuli/pictures/n02641379_39329.JPEG	176.2327699661255	
172	145.07570695877075	picture	0		90.0	170.0	/home/egter/Projects/stimuli/pictures/R_S_yt-yQrDeFlFmfM_138.png	176.2441530227661	0.7499690055847168
172	145.81432485580444	response	0	j		170.0	/home/egter/Projects/stimuli/pictures/R_S_yt-yQrDeFlFmfM_138.png	176.9827709197998	
173	145.82567596435547	picture	0		96.0	171.0	/home/egter/Projects/stimuli/pictures/S_yt-wnQFgNEnHUI_109.png	176.99412202835083	0.7986159324645996
173	146.61434388160706	response	0	j		171.0	/home/egter/Projects/stimuli/pictures/S_yt-wnQFgNEnHUI_109.png	177.78278994560242	
174	146.62429189682007	picture	0		119.0	172.0	/home/egter/Projects/stimuli/pictures/n03670208_7944.JPEG	177.79273796081543	0.9930200576782227
174	147.60596299171448	response	0	k		172.0	/home/egter/Projects/stimuli/pictures/n03670208_7944.JPEG	178.77440905570984	
175	147.6173119544983	picture	0		107.0	173.0	/home/egter/Projects/stimuli/pictures/R_S_yt-FbCVXEJicis_5.png	178.78575801849365	0.8889141082763672
175	148.49084401130676	response	0	j		173.0	/home/egter/Projects/stimuli/pictures/R_S_yt-FbCVXEJicis_5.png	179.65929007530212	
176	148.50622606277466	picture	0		110.0	174.0	/home/egter/Projects/stimuli/pictures/S_yt-ChAhBD9LrsU_223.png	179.67467212677002	0.9166457653045654
176	149.41431593894958	response	0	k		174.0	/home/egter/Projects/stimuli/pictures/S_yt-ChAhBD9LrsU_223.png	180.58276200294495	
177	149.42287182807922	picture	0		112.0	175.0	/home/egter/Projects/stimuli/pictures/n03673027_12357.JPEG	180.59131789207458	0.9374940395355225
177	150.34765005111694	response	0	k		175.0	/home/egter/Projects/stimuli/pictures/n03673027_12357.JPEG	181.5160961151123	
178	150.36036586761475	picture	0		92.0	176.0	/home/egter/Projects/stimuli/pictures/n02120505_16648.JPEG	181.5288119316101	0.7639141082763672
178	151.1075119972229	response	0	k		176.0	/home/egter/Projects/stimuli/pictures/n02120505_16648.JPEG	182.27595806121826	
179	151.1242799758911	picture	0		92.0	177.0	/home/egter/Projects/stimuli/pictures/S_yt-feTWuKPZA_k_34.png	182.29272603988647	0.7707948684692383
179	151.88136982917786	response	0	j		177.0	/home/egter/Projects/stimuli/pictures/S_yt-feTWuKPZA_k_34.png	183.04981589317322	
180	151.89507484436035	picture	0		91.0	178.0	/home/egter/Projects/stimuli/pictures/S_production_ID_4510883.png	183.0635209083557	0.7638790607452393
180	152.64765095710754	response	0	j		178.0	/home/egter/Projects/stimuli/pictures/S_production_ID_4510883.png	183.8160970211029	
181	152.6589539051056	picture	0		124.0	179.0	/home/egter/Projects/stimuli/pictures/S_ILSVRC2015_train_00001011.png	183.82739996910095	1.0347840785980225
181	153.68095684051514	response	0	j		179.0	/home/egter/Projects/stimuli/pictures/S_ILSVRC2015_train_00001011.png	184.8494029045105	
182	153.6937379837036	stim	0		302.0			184.86218404769897	2.513813018798828
182	156.1976158618927	response	0	space				187.36606192588806	
