trial_nr	onset	event_type	phase	response	nr_frames	picture_index	picture_file	onset_abs	duration
0	0.00857996940612793	stim	0		684.0			33.50380992889404	5.705754995346069
0	5.697978973388672	response	0	space				39.19320893287659	
2	5.714334964752197	picture	0		224.0	0.0	/home/egter/Projects/stimuli/pictures/S_production_ID_4325509.png	39.20956492424011	1.8673579692840576
2	7.572762966156006	response	0	j		0.0	/home/egter/Projects/stimuli/pictures/S_production_ID_4325509.png	41.06799292564392	
3	7.581692934036255	picture	0		106.0	1.0	/home/egter/Projects/stimuli/pictures/R_S_yt_R-JarqKC4X8nM_4.png	41.07692289352417	0.8887801170349121
3	8.456725120544434	response	0	j		1.0	/home/egter/Projects/stimuli/pictures/R_S_yt_R-JarqKC4X8nM_4.png	41.95195508003235	
4	8.470473051071167	picture	0		249.0	2.0	/home/egter/Projects/stimuli/pictures/n09193705_48757.JPEG	41.96570301055908	2.0833358764648438
4	10.5399649143219	response	0	k		2.0	/home/egter/Projects/stimuli/pictures/n09193705_48757.JPEG	44.035194873809814	
5	10.55380892753601	picture	0		153.0	3.0	/home/egter/Projects/stimuli/pictures/n03788195_42393.JPEG	44.049038887023926	1.2777721881866455
5	11.8227059841156	response	0	k		3.0	/home/egter/Projects/stimuli/pictures/n03788195_42393.JPEG	45.317935943603516	
6	11.831581115722656	picture	0		132.0	4.0	/home/egter/Projects/stimuli/pictures/R_S_ILSVRC2015_train_00185002.png	45.32681107521057	1.1041247844696045
6	12.916783094406128	response	0	j		4.0	/home/egter/Projects/stimuli/pictures/R_S_ILSVRC2015_train_00185002.png	46.41201305389404	
7	12.93570590019226	picture	0		105.0	5.0	/home/egter/Projects/stimuli/pictures/S_ILSVRC2015_train_00572000.png	46.430935859680176	0.8750090599060059
7	13.79772400856018	response	0	j		5.0	/home/egter/Projects/stimuli/pictures/S_ILSVRC2015_train_00572000.png	47.292953968048096	
8	13.810714960098267	picture	0		87.0	6.0	/home/egter/Projects/stimuli/pictures/S_yt-YTQXM5ZjRgg_116.png	47.30594491958618	0.7291769981384277
8	14.524274110794067	response	0	j		6.0	/home/egter/Projects/stimuli/pictures/S_yt-YTQXM5ZjRgg_116.png	48.01950407028198	
9	14.539891958236694	picture	0		79.0	7.0	/home/egter/Projects/stimuli/pictures/S_ILSVRC2015_train_00569002.png	48.03512191772461	0.6596710681915283
9	15.189345121383667	response	0	j		7.0	/home/egter/Projects/stimuli/pictures/S_ILSVRC2015_train_00569002.png	48.68457508087158	
10	15.199563026428223	picture	0		90.0	8.0	/home/egter/Projects/stimuli/pictures/R_S_yt-iO0efV_PV-k_102.png	48.69479298591614	0.7499809265136719
10	15.932560920715332	response	0	j		8.0	/home/egter/Projects/stimuli/pictures/R_S_yt-iO0efV_PV-k_102.png	49.42779088020325	
11	15.949543952941895	picture	0		118.0	9.0	/home/egter/Projects/stimuli/pictures/n03496892_5197.JPEG	49.44477391242981	0.9861180782318115
11	16.916587114334106	response	0	k		9.0	/home/egter/Projects/stimuli/pictures/n03496892_5197.JPEG	50.41181707382202	
12	16.935662031173706	picture	0		74.0	10.0	/home/egter/Projects/stimuli/pictures/R_S_yt-HQQws1Lp_rQ_10.png	50.43089199066162	0.6180310249328613
12	17.53998899459839	response	0	j		10.0	/home/egter/Projects/stimuli/pictures/R_S_yt-HQQws1Lp_rQ_10.png	51.035218954086304	
13	17.553693056106567	picture	0		99.0	11.0	/home/egter/Projects/stimuli/pictures/R_S_yt-82O1uT8dmv8_12.png	51.04892301559448	0.8333320617675781
13	18.373291015625	response	0	j		11.0	/home/egter/Projects/stimuli/pictures/R_S_yt-82O1uT8dmv8_12.png	51.868520975112915	
14	18.387025117874146	picture	0		89.0	12.0	/home/egter/Projects/stimuli/pictures/R_S_yt-uSHBdUi8_V0_24.png	51.88225507736206	0.749992847442627
14	19.123284101486206	response	0	j		12.0	/home/egter/Projects/stimuli/pictures/R_S_yt-uSHBdUi8_V0_24.png	52.61851406097412	
15	19.137017965316772	picture	0		87.0	13.0	/home/egter/Projects/stimuli/pictures/R_S_yt-9T99N7Cvi_o_112.png	52.63224792480469	0.7292020320892334
15	19.856049060821533	response	0	j		13.0	/home/egter/Projects/stimuli/pictures/R_S_yt-9T99N7Cvi_o_112.png	53.35127902030945	
16	19.866219997406006	picture	0		101.0	14.0	/home/egter/Projects/stimuli/pictures/n04037443_5182.JPEG	53.36144995689392	0.8403160572052002
16	20.697717905044556	response	0	k		14.0	/home/egter/Projects/stimuli/pictures/n04037443_5182.JPEG	54.19294786453247	
17	20.706536054611206	picture	0		90.0	15.0	/home/egter/Projects/stimuli/pictures/R_S_yt-qjg6kRxNXK8_217.png	54.20176601409912	0.7500288486480713
17	21.447711944580078	response	0	j		15.0	/home/egter/Projects/stimuli/pictures/R_S_yt-qjg6kRxNXK8_217.png	54.94294190406799	
18	21.456564903259277	picture	0		161.0	16.0	/home/egter/Projects/stimuli/pictures/S_yt-3HpAmr5BApU_35.png	54.95179486274719	1.3471240997314453
18	22.789902925491333	response	0	k		16.0	/home/egter/Projects/stimuli/pictures/S_yt-3HpAmr5BApU_35.png	56.28513288497925	
19	22.803689002990723	picture	0		88.0	17.0	/home/egter/Projects/stimuli/pictures/R_S_yt-K_gHa2x2OQA_319.png	56.29891896247864	0.7360439300537109
19	23.524385929107666	response	0	j		17.0	/home/egter/Projects/stimuli/pictures/R_S_yt-K_gHa2x2OQA_319.png	57.01961588859558	
20	23.539732933044434	picture	0		125.0	18.0	/home/egter/Projects/stimuli/pictures/S_yt-AJypa57HKqM_28.png	57.03496289253235	1.0416901111602783
20	24.572684049606323	response	0	k		18.0	/home/egter/Projects/stimuli/pictures/S_yt-AJypa57HKqM_28.png	58.06791400909424	
21	24.581423044204712	picture	0		91.0	19.0	/home/egter/Projects/stimuli/pictures/n03594945_3969.JPEG	58.07665300369263	0.7638909816741943
21	25.32417607307434	response	0	k		19.0	/home/egter/Projects/stimuli/pictures/n03594945_3969.JPEG	58.819406032562256	
22	25.345314025878906	picture	0		146.0	20.0	/home/egter/Projects/stimuli/pictures/n03982430_2636.JPEG	58.84054398536682	1.2222139835357666
22	26.54918098449707	response	0	k		20.0	/home/egter/Projects/stimuli/pictures/n03982430_2636.JPEG	60.044410943984985	
23	26.567528009414673	picture	0		110.0	21.0	/home/egter/Projects/stimuli/pictures/n04428191_983.JPEG	60.06275796890259	0.9166829586029053
23	27.472651958465576	response	0	k		21.0	/home/egter/Projects/stimuli/pictures/n04428191_983.JPEG	60.96788191795349	
24	27.484210968017578	picture	0		221.0	22.0	/home/egter/Projects/stimuli/pictures/S_yt-hqp-Y6vAMeo_80.png	60.97944092750549	1.8401989936828613
24	29.314325094223022	response	0	k		22.0	/home/egter/Projects/stimuli/pictures/S_yt-hqp-Y6vAMeo_80.png	62.80955505371094	
25	29.32440996170044	picture	0		82.0	23.0	/home/egter/Projects/stimuli/pictures/S_yt-e_eOzV7qMZo_374.png	62.819639921188354	0.6875200271606445
25	29.998210906982422	response	0	j		23.0	/home/egter/Projects/stimuli/pictures/S_yt-e_eOzV7qMZo_374.png	63.49344086647034	
26	30.011929988861084	picture	0		164.0	24.0	/home/egter/Projects/stimuli/pictures/n02701002_3387.JPEG	63.507159948349	1.3750360012054443
26	31.373203992843628	response	0	k		24.0	/home/egter/Projects/stimuli/pictures/n02701002_3387.JPEG	64.86843395233154	
27	31.38696599006653	picture	0		87.0	25.0	/home/egter/Projects/stimuli/pictures/n04238763_1676.JPEG	64.88219594955444	0.7291080951690674
27	32.10601806640625	response	0	k		25.0	/home/egter/Projects/stimuli/pictures/n04238763_1676.JPEG	65.60124802589417	
28	32.116074085235596	picture	0		102.0	26.0	/home/egter/Projects/stimuli/pictures/n02363005_6714.JPEG	65.61130404472351	0.8541808128356934
28	32.95647311210632	response	0	k		26.0	/home/egter/Projects/stimuli/pictures/n02363005_6714.JPEG	66.45170307159424	
29	32.97025489807129	picture	0		145.0	27.0	/home/egter/Projects/stimuli/pictures/n02106662_31971.JPEG	66.4654848575592	1.2152881622314453
29	34.1726291179657	response	0	k		27.0	/home/egter/Projects/stimuli/pictures/n02106662_31971.JPEG	67.66785907745361	
30	34.185543060302734	picture	0		93.0	28.0	/home/egter/Projects/stimuli/pictures/S_ILSVRC2015_train_00457000.png	67.68077301979065	0.7847018241882324
30	34.9491810798645	response	0	j		28.0	/home/egter/Projects/stimuli/pictures/S_ILSVRC2015_train_00457000.png	68.44441103935242	
31	34.97024488449097	picture	0		158.0	29.0	/home/egter/Projects/stimuli/pictures/S_yt-5doJmCcFL7s_3.png	68.46547484397888	1.3194282054901123
31	36.28099489212036	response	0	j		29.0	/home/egter/Projects/stimuli/pictures/S_yt-5doJmCcFL7s_3.png	69.77622485160828	
32	36.28967308998108	picture	0		242.0	30.0	/home/egter/Projects/stimuli/pictures/S_Y004_C015_SDR_2K_AVC.png	69.784903049469	2.0208489894866943
32	38.29765200614929	response	0	j		30.0	/home/egter/Projects/stimuli/pictures/S_Y004_C015_SDR_2K_AVC.png	71.7928819656372	
33	38.31052207946777	picture	0		133.0	31.0	/home/egter/Projects/stimuli/pictures/n03777568_8332.JPEG	71.80575203895569	1.1180739402770996
33	39.41482090950012	response	0	k		31.0	/home/egter/Projects/stimuli/pictures/n03777568_8332.JPEG	72.91005086898804	
34	39.42859601974487	picture	0		141.0	32.0	/home/egter/Projects/stimuli/pictures/n01692333_9591.JPEG	72.92382597923279	1.1805598735809326
34	40.59772491455078	response	0	k		32.0	/home/egter/Projects/stimuli/pictures/n01692333_9591.JPEG	74.0929548740387	
35	40.609155893325806	picture	0		132.0	33.0	/home/egter/Projects/stimuli/pictures/R_S_yt-Xegmd8whqBs_230.png	74.10438585281372	1.1050682067871094
35	41.69776892662048	response	0	j		33.0	/home/egter/Projects/stimuli/pictures/R_S_yt-Xegmd8whqBs_230.png	75.1929988861084	
36	41.714224100112915	picture	0		106.0	34.0	/home/egter/Projects/stimuli/pictures/ILSVRC2012_test_00043194.JPEG	75.20945405960083	0.894859790802002
36	42.59767508506775	response	0	k		34.0	/home/egter/Projects/stimuli/pictures/ILSVRC2012_test_00043194.JPEG	76.09290504455566	
37	42.60908389091492	picture	0		214.0	35.0	/home/egter/Projects/stimuli/pictures/S_yt-JXmyvkbRYk4_5.png	76.10431385040283	1.7917051315307617
37	44.389228105545044	response	0	k		35.0	/home/egter/Projects/stimuli/pictures/S_yt-JXmyvkbRYk4_5.png	77.88445806503296	
38	44.40078902244568	picture	0		154.0	36.0	/home/egter/Projects/stimuli/pictures/R_S_ILSVRC2015_train_00457000.png	77.8960189819336	1.2846269607543945
38	45.67262101173401	response	0	j		36.0	/home/egter/Projects/stimuli/pictures/R_S_ILSVRC2015_train_00457000.png	79.16785097122192	
39	45.68541598320007	picture	0		378.0	37.0	/home/egter/Projects/stimuli/pictures/S_AWfiZJsMWQg_99.png	79.18064594268799	3.1457810401916504
39	48.82259011268616	response	0	k		37.0	/home/egter/Projects/stimuli/pictures/S_AWfiZJsMWQg_99.png	82.31782007217407	
40	48.831197023391724	picture	0		85.0	38.0	/home/egter/Projects/stimuli/pictures/R_S_yt-bH4nJibL4Jo_164.png	82.32642698287964	0.7082810401916504
40	49.530869007110596	response	0	j		38.0	/home/egter/Projects/stimuli/pictures/R_S_yt-bH4nJibL4Jo_164.png	83.02609896659851	
41	49.539478063583374	picture	0		96.0	39.0	/home/egter/Projects/stimuli/pictures/n04523525_3143.JPEG	83.03470802307129	0.8055729866027832
41	50.331310987472534	response	0	k		39.0	/home/egter/Projects/stimuli/pictures/n04523525_3143.JPEG	83.82654094696045	
42	50.34505105018616	picture	0		111.0	40.0	/home/egter/Projects/stimuli/pictures/n02978881_9598.JPEG	83.84028100967407	0.930534839630127
42	51.26424789428711	response	0	k		40.0	/home/egter/Projects/stimuli/pictures/n02978881_9598.JPEG	84.75947785377502	
43	51.275585889816284	picture	0		83.0	41.0	/home/egter/Projects/stimuli/pictures/S_yt-0aHV3uU8xFY_75.png	84.7708158493042	0.6944551467895508
43	51.94905495643616	response	0	j		41.0	/home/egter/Projects/stimuli/pictures/S_yt-0aHV3uU8xFY_75.png	85.44428491592407	
44	51.970041036605835	picture	0		107.0	42.0	/home/egter/Projects/stimuli/pictures/ILSVRC2012_val_00037655.JPEG	85.46527099609375	0.8958370685577393
44	52.85587811470032	response	0	k		42.0	/home/egter/Projects/stimuli/pictures/ILSVRC2012_val_00037655.JPEG	86.35110807418823	
45	52.865878105163574	picture	0		98.0	43.0	/home/egter/Projects/stimuli/pictures/R_S_yt-xgqx7tH92-c_6.png	86.36110806465149	0.81943678855896
45	53.67254900932312	response	0	j		43.0	/home/egter/Projects/stimuli/pictures/R_S_yt-xgqx7tH92-c_6.png	87.16777896881104	
46	53.685314893722534	picture	0		110.0	44.0	/home/egter/Projects/stimuli/pictures/n04310018_19995.JPEG	87.18054485321045	0.9166769981384277
46	54.589272022247314	response	0	k		44.0	/home/egter/Projects/stimuli/pictures/n04310018_19995.JPEG	88.08450198173523	
47	54.60199189186096	picture	0		244.0	45.0	/home/egter/Projects/stimuli/pictures/n02326432_10454.JPEG	88.09722185134888	2.03470516204834
47	56.622917890548706	response	0	k		45.0	/home/egter/Projects/stimuli/pictures/n02326432_10454.JPEG	90.11814785003662	
48	56.6366970539093	picture	0		72.0	46.0	/home/egter/Projects/stimuli/pictures/R_S_video-9.png	90.13192701339722	0.6041669845581055
48	57.23087692260742	response	0	j		46.0	/home/egter/Projects/stimuli/pictures/R_S_video-9.png	90.72610688209534	
49	57.24086403846741	picture	0		185.0	47.0	/home/egter/Projects/stimuli/pictures/S_yt-vOC7cBvdSw8_11.png	90.73609399795532	1.5416069030761719
49	58.7725510597229	response	0	k		47.0	/home/egter/Projects/stimuli/pictures/S_yt-vOC7cBvdSw8_11.png	92.26778101921082	
50	58.78247094154358	picture	0		139.0	48.0	/home/egter/Projects/stimuli/pictures/S_ILSVRC2015_train_00373001.png	92.2777009010315	1.1597120761871338
50	59.93088388442993	response	0	j		48.0	/home/egter/Projects/stimuli/pictures/S_ILSVRC2015_train_00373001.png	93.42611384391785	
51	59.94218301773071	picture	0		212.0	49.0	/home/egter/Projects/stimuli/pictures/S_yt-qX2KH8RLnKs_50.png	93.43741297721863	1.7638750076293945
51	61.697537899017334	response	0	k		49.0	/home/egter/Projects/stimuli/pictures/S_yt-qX2KH8RLnKs_50.png	95.19276785850525	
52	61.70605802536011	picture	0		157.0	50.0	/home/egter/Projects/stimuli/pictures/n01632458_3551.JPEG	95.20128798484802	1.312520980834961
52	63.005861043930054	response	0	k		50.0	/home/egter/Projects/stimuli/pictures/n01632458_3551.JPEG	96.50109100341797	
53	63.01857900619507	picture	0		429.0	51.0	/home/egter/Projects/stimuli/pictures/n03220513_39485.JPEG	96.51380896568298	3.578885078430176
53	66.57407402992249	response	0	k		51.0	/home/egter/Projects/stimuli/pictures/n03220513_39485.JPEG	100.0693039894104	
54	66.59746408462524	picture	0		84.0	52.0	/home/egter/Projects/stimuli/pictures/S_ILSVRC2015_train_00303005.png	100.09269404411316	0.7057888507843018
54	67.28949403762817	response	0	j		52.0	/home/egter/Projects/stimuli/pictures/S_ILSVRC2015_train_00303005.png	100.78472399711609	
55	67.30325293540955	picture	0		92.0	53.0	/home/egter/Projects/stimuli/pictures/R_S_yt-XY1n_Oze1kQ_9.png	100.79848289489746	0.7707891464233398
55	68.06418299674988	response	0	j		53.0	/home/egter/Projects/stimuli/pictures/R_S_yt-XY1n_Oze1kQ_9.png	101.5594129562378	
56	68.07404208183289	picture	0		117.0	54.0	/home/egter/Projects/stimuli/pictures/n01798484_4501.JPEG	101.5692720413208	0.9791648387908936
56	69.03942799568176	response	0	k		54.0	/home/egter/Projects/stimuli/pictures/n01798484_4501.JPEG	102.53465795516968	
57	69.05320692062378	picture	0		85.0	55.0	/home/egter/Projects/stimuli/pictures/S_yt-GWlwb2QsxIA_48.png	102.5484368801117	0.7153000831604004
57	69.74935603141785	response	0	j		55.0	/home/egter/Projects/stimuli/pictures/S_yt-GWlwb2QsxIA_48.png	103.24458599090576	
58	69.76850700378418	picture	0		129.0	56.0	/home/egter/Projects/stimuli/pictures/ILSVRC2012_test_00069056.JPEG	103.2637369632721	1.0763790607452393
58	70.8311710357666	response	0	k		56.0	/home/egter/Projects/stimuli/pictures/ILSVRC2012_test_00069056.JPEG	104.32640099525452	
59	70.84488606452942	picture	0		125.0	57.0	/home/egter/Projects/stimuli/pictures/S_ILSVRC2015_train_00594001.png	104.34011602401733	1.0486290454864502
59	71.88089108467102	response	0	j		57.0	/home/egter/Projects/stimuli/pictures/S_ILSVRC2015_train_00594001.png	105.37612104415894	
60	71.89351511001587	picture	0		89.0	58.0	/home/egter/Projects/stimuli/pictures/S_yt-8y7Xhp2_2e0_168.png	105.38874506950378	0.7430248260498047
60	72.62275409698486	response	0	j		58.0	/home/egter/Projects/stimuli/pictures/S_yt-8y7Xhp2_2e0_168.png	106.11798405647278	
61	72.63653993606567	picture	0		86.0	59.0	/home/egter/Projects/stimuli/pictures/R_S_yt-54kx8P3L1ns_6.png	106.13176989555359	0.7221901416778564
61	73.34071207046509	response	0	j		59.0	/home/egter/Projects/stimuli/pictures/R_S_yt-54kx8P3L1ns_6.png	106.835942029953	
62	73.35873007774353	picture	0		79.0	60.0	/home/egter/Projects/stimuli/pictures/R_S_WCwb-DeQOSg_85.png	106.85396003723145	0.659735918045044
62	74.00575494766235	response	0	j		60.0	/home/egter/Projects/stimuli/pictures/R_S_WCwb-DeQOSg_85.png	107.50098490715027	
63	74.01846599578857	picture	0		179.0	61.0	/home/egter/Projects/stimuli/pictures/R_S_bing-www_dailymotion_com_video_x64c56w_164.png	107.51369595527649	1.4930388927459717
63	75.49772191047668	response	0	j		61.0	/home/egter/Projects/stimuli/pictures/R_S_bing-www_dailymotion_com_video_x64c56w_164.png	108.9929518699646	
64	75.51150488853455	picture	0		153.0	62.0	/home/egter/Projects/stimuli/pictures/n03424325_482.JPEG	109.00673484802246	1.277738094329834
64	76.78085494041443	response	0	k		62.0	/home/egter/Projects/stimuli/pictures/n03424325_482.JPEG	110.27608489990234	
65	76.78924298286438	picture	0		91.0	63.0	/home/egter/Projects/stimuli/pictures/R_S_pexels-kampus-production-5991896.png	110.2844729423523	0.7638900279998779
65	77.53938698768616	response	0	j		63.0	/home/egter/Projects/stimuli/pictures/R_S_pexels-kampus-production-5991896.png	111.03461694717407	
66	77.55313301086426	picture	0		168.0	64.0	/home/egter/Projects/stimuli/pictures/n02447366_15660.JPEG	111.04836297035217	1.4027090072631836
66	78.94743609428406	response	0	k		64.0	/home/egter/Projects/stimuli/pictures/n02447366_15660.JPEG	112.44266605377197	
67	78.95584201812744	picture	0		133.0	65.0	/home/egter/Projects/stimuli/pictures/n03720891_15866.JPEG	112.45107197761536	1.1111650466918945
67	80.05576395988464	response	0	k		65.0	/home/egter/Projects/stimuli/pictures/n03720891_15866.JPEG	113.55099391937256	
68	80.06700706481934	picture	0		81.0	66.0	/home/egter/Projects/stimuli/pictures/S_ILSVRC2015_train_00423000.png	113.56223702430725	0.6736290454864502
68	80.73074889183044	response	0	j		66.0	/home/egter/Projects/stimuli/pictures/S_ILSVRC2015_train_00423000.png	114.22597885131836	
69	80.74063611030579	picture	0		139.0	67.0	/home/egter/Projects/stimuli/pictures/n13052670_528.JPEG	114.2358660697937	1.15970778465271
69	81.8890860080719	response	0	k		67.0	/home/egter/Projects/stimuli/pictures/n13052670_528.JPEG	115.38431596755981	
70	81.9003438949585	picture	0		104.0	68.0	/home/egter/Projects/stimuli/pictures/n04311174_8810.JPEG	115.39557385444641	0.868035078048706
70	82.74926209449768	response	0	k		68.0	/home/egter/Projects/stimuli/pictures/n04311174_8810.JPEG	116.2444920539856	
71	82.7683789730072	picture	0		81.0	69.0	/home/egter/Projects/stimuli/pictures/S_yt-BQixB0mumIk_169.png	116.26360893249512	0.6737229824066162
71	83.4307849407196	response	0	j		69.0	/home/egter/Projects/stimuli/pictures/S_yt-BQixB0mumIk_169.png	116.92601490020752	
72	83.44210195541382	picture	0		111.0	70.0	/home/egter/Projects/stimuli/pictures/S_production_ID_4360158.png	116.93733191490173	0.9235141277313232
72	84.34898090362549	response	0	j		70.0	/home/egter/Projects/stimuli/pictures/S_production_ID_4360158.png	117.8442108631134	
73	84.36561608314514	picture	0		83.0	71.0	/home/egter/Projects/stimuli/pictures/S_yt-thmqgEV-sYY_91.png	117.86084604263306	0.6944339275360107
73	85.04741406440735	response	0	j		71.0	/home/egter/Projects/stimuli/pictures/S_yt-thmqgEV-sYY_91.png	118.54264402389526	
74	85.06005001068115	picture	0		91.0	72.0	/home/egter/Projects/stimuli/pictures/n03394916_61934.JPEG	118.55527997016907	0.7639970779418945
74	85.81408405303955	response	0	k		72.0	/home/egter/Projects/stimuli/pictures/n03394916_61934.JPEG	119.30931401252747	
75	85.82404708862305	picture	0		132.0	73.0	/home/egter/Projects/stimuli/pictures/n03954731_3132.JPEG	119.31927704811096	1.1040208339691162
75	86.91429805755615	response	0	k		73.0	/home/egter/Projects/stimuli/pictures/n03954731_3132.JPEG	120.40952801704407	
76	86.92806792259216	picture	0		68.0	74.0	/home/egter/Projects/stimuli/pictures/S_yt-54kx8P3L1ns_6.png	120.42329788208008	0.5694210529327393
76	87.4890809059143	response	0	j		74.0	/home/egter/Projects/stimuli/pictures/S_yt-54kx8P3L1ns_6.png	120.98431086540222	
77	87.4974889755249	picture	0		111.0	75.0	/home/egter/Projects/stimuli/pictures/R_S_ILSVRC2015_train_00743005.png	120.99271893501282	0.930588960647583
77	88.41429305076599	response	0	j		75.0	/home/egter/Projects/stimuli/pictures/R_S_ILSVRC2015_train_00743005.png	121.9095230102539	
78	88.42807793617249	picture	0		94.0	76.0	/home/egter/Projects/stimuli/pictures/n02974003_100.JPEG	121.9233078956604	0.7916500568389893
78	89.2059440612793	response	0	k		76.0	/home/egter/Projects/stimuli/pictures/n02974003_100.JPEG	122.70117402076721	
79	89.21972799301147	picture	0		99.0	77.0	/home/egter/Projects/stimuli/pictures/R_S_ILSVRC2015_train_00547001.png	122.71495795249939	0.8333160877227783
79	90.03920412063599	response	0	j		77.0	/home/egter/Projects/stimuli/pictures/R_S_ILSVRC2015_train_00547001.png	123.5344340801239	
80	90.05304408073425	picture	0		92.0	78.0	/home/egter/Projects/stimuli/pictures/R_S_comp_L010_C006_PS_v01_SDR_PS_20180925_SDR_2K_AVC.png	123.54827404022217	0.7708408832550049
80	90.81411409378052	response	0	j		78.0	/home/egter/Projects/stimuli/pictures/R_S_comp_L010_C006_PS_v01_SDR_PS_20180925_SDR_2K_AVC.png	124.30934405326843	
81	90.82388496398926	picture	0		168.0	79.0	/home/egter/Projects/stimuli/pictures/n01737021_18234.JPEG	124.31911492347717	1.4027690887451172
81	92.21406412124634	response	0	k		79.0	/home/egter/Projects/stimuli/pictures/n01737021_18234.JPEG	125.70929408073425	
82	92.22665405273438	picture	0		83.0	80.0	/home/egter/Projects/stimuli/pictures/R_S_yt-4x2eUikn9rw_212.png	125.72188401222229	0.6874468326568604
82	92.90576505661011	response	0	j		80.0	/home/egter/Projects/stimuli/pictures/R_S_yt-4x2eUikn9rw_212.png	126.40099501609802	
83	92.91410088539124	picture	0		111.0	81.0	/home/egter/Projects/stimuli/pictures/S_yt-qycUhA3Isjg_67.png	126.40933084487915	0.9306180477142334
83	93.83090305328369	response	0	k		81.0	/home/egter/Projects/stimuli/pictures/S_yt-qycUhA3Isjg_67.png	127.3261330127716	
84	93.84471893310547	picture	0		84.0	82.0	/home/egter/Projects/stimuli/pictures/n03126707_9973.JPEG	127.33994889259338	0.7083110809326172
84	94.53933501243591	response	0	j		82.0	/home/egter/Projects/stimuli/pictures/n03126707_9973.JPEG	128.03456497192383	
85	94.55303001403809	picture	0		217.0	83.0	/home/egter/Projects/stimuli/pictures/R_S_yt-1n1jTroiwJs_163.png	128.048259973526	1.8124709129333496
85	96.3489899635315	response	0	j		83.0	/home/egter/Projects/stimuli/pictures/R_S_yt-1n1jTroiwJs_163.png	129.8442199230194	
86	96.36550092697144	picture	0		157.0	84.0	/home/egter/Projects/stimuli/pictures/n01729322_16009.JPEG	129.86073088645935	1.312502145767212
86	97.66425108909607	response	0	k		84.0	/home/egter/Projects/stimuli/pictures/n01729322_16009.JPEG	131.15948104858398	
87	97.67800307273865	picture	0		249.0	85.0	/home/egter/Projects/stimuli/pictures/n04086273_8492.JPEG	131.17323303222656	2.083326816558838
87	99.74750804901123	response	0	k		85.0	/home/egter/Projects/stimuli/pictures/n04086273_8492.JPEG	133.24273800849915	
88	99.76132988929749	picture	0		103.0	86.0	/home/egter/Projects/stimuli/pictures/R_S_pexels-yaroslav-shuraev-8091356.png	133.2565598487854	0.8610842227935791
88	100.61408996582031	response	0	j		86.0	/home/egter/Projects/stimuli/pictures/R_S_pexels-yaroslav-shuraev-8091356.png	134.10931992530823	
89	100.62241411209106	picture	0		95.0	87.0	/home/egter/Projects/stimuli/pictures/R_S_yt-l_ioasf6yHg_44.png	134.11764407157898	0.7916738986968994
89	101.40573811531067	response	0	j		87.0	/home/egter/Projects/stimuli/pictures/R_S_yt-l_ioasf6yHg_44.png	134.90096807479858	
90	101.41408801078796	picture	0		90.0	88.0	/home/egter/Projects/stimuli/pictures/S_yt-Rsfo57AlpLA_332.png	134.90931797027588	0.7499470710754395
90	102.15565204620361	response	0	j		88.0	/home/egter/Projects/stimuli/pictures/S_yt-Rsfo57AlpLA_332.png	135.65088200569153	
91	102.1640350818634	picture	0		111.0	89.0	/home/egter/Projects/stimuli/pictures/S_wc-rs31_SV1Opy__6.png	135.65926504135132	0.9305839538574219
91	103.0808219909668	response	0	j		89.0	/home/egter/Projects/stimuli/pictures/S_wc-rs31_SV1Opy__6.png	136.5760519504547	
92	103.09461903572083	picture	0		251.0	90.0	/home/egter/Projects/stimuli/pictures/n07714990_3116.JPEG	136.58984899520874	2.0972139835357666
92	105.1738669872284	response	0	k		90.0	/home/egter/Projects/stimuli/pictures/n07714990_3116.JPEG	138.6690969467163	
93	105.19183301925659	picture	0		125.0	91.0	/home/egter/Projects/stimuli/pictures/S_yt-NFb0SUCeiro_158.png	138.6870629787445	1.0417230129241943
93	106.2223711013794	response	0	j		91.0	/home/egter/Projects/stimuli/pictures/S_yt-NFb0SUCeiro_158.png	139.7176010608673	
94	106.23355603218079	picture	0		181.0	92.0	/home/egter/Projects/stimuli/pictures/S_ILSVRC2015_train_00411000.png	139.7287859916687	1.5068550109863281
94	107.73071694374084	response	0	j		92.0	/home/egter/Projects/stimuli/pictures/S_ILSVRC2015_train_00411000.png	141.22594690322876	
95	107.74041104316711	picture	0		99.0	93.0	/home/egter/Projects/stimuli/pictures/S_pexels-cottonbro-5780808.png	141.23564100265503	0.8263719081878662
95	108.5557029247284	response	0	j		93.0	/home/egter/Projects/stimuli/pictures/S_pexels-cottonbro-5780808.png	142.0509328842163	
96	108.56678295135498	picture	0		162.0	94.0	/home/egter/Projects/stimuli/pictures/n02346627_989.JPEG	142.0620129108429	1.347193956375122
96	109.90568900108337	response	0	k		94.0	/home/egter/Projects/stimuli/pictures/n02346627_989.JPEG	143.4009189605713	
97	109.9139769077301	picture	0		124.0	95.0	/home/egter/Projects/stimuli/pictures/n01688243_3064.JPEG	143.40920686721802	1.0347340106964111
97	110.93903994560242	response	0	k		95.0	/home/egter/Projects/stimuli/pictures/n01688243_3064.JPEG	144.43426990509033	
98	110.94871091842651	picture	0		85.0	96.0	/home/egter/Projects/stimuli/pictures/S_I003_C008_SDR_2K_AVC.png	144.44394087791443	0.7083120346069336
98	111.64734601974487	response	0	j		96.0	/home/egter/Projects/stimuli/pictures/S_I003_C008_SDR_2K_AVC.png	145.1425759792328	
99	111.65702295303345	picture	0		153.0	97.0	/home/egter/Projects/stimuli/pictures/R_S_ILSVRC2015_train_00473000.png	145.15225291252136	1.277799129486084
99	112.92237710952759	response	0	j		97.0	/home/egter/Projects/stimuli/pictures/R_S_ILSVRC2015_train_00473000.png	146.4176070690155	
100	112.93482208251953	picture	0		75.0	98.0	/home/egter/Projects/stimuli/pictures/R_S_yt-yQrDeFlFmfM_138.png	146.43005204200745	0.6319329738616943
100	113.55568408966064	response	0	j		98.0	/home/egter/Projects/stimuli/pictures/R_S_yt-yQrDeFlFmfM_138.png	147.05091404914856	
101	113.56675505638123	picture	0		124.0	99.0	/home/egter/Projects/stimuli/pictures/n04310018_1024.JPEG	147.06198501586914	1.0346899032592773
101	114.58230805397034	response	0	k		99.0	/home/egter/Projects/stimuli/pictures/n04310018_1024.JPEG	148.07753801345825	
102	114.6014449596405	picture	0		118.0	100.0	/home/egter/Projects/stimuli/pictures/S_yt-T_qmGKyeKNU_32.png	148.09667491912842	0.9790880680084229
102	115.56562304496765	response	0	j		100.0	/home/egter/Projects/stimuli/pictures/S_yt-T_qmGKyeKNU_32.png	149.06085300445557	
103	115.58053302764893	picture	0		134.0	101.0	/home/egter/Projects/stimuli/pictures/R_S_wc-NzEeGIXLxvwp_19.png	149.07576298713684	1.1180880069732666
103	116.68893909454346	response	0	j		101.0	/home/egter/Projects/stimuli/pictures/R_S_wc-NzEeGIXLxvwp_19.png	150.18416905403137	
104	116.69862103462219	picture	0		108.0	102.0	/home/egter/Projects/stimuli/pictures/n01751748_3296.JPEG	150.1938509941101	0.9027900695800781
104	117.58223295211792	response	0	k		102.0	/home/egter/Projects/stimuli/pictures/n01751748_3296.JPEG	151.07746291160583	
105	117.60141110420227	picture	0		142.0	103.0	/home/egter/Projects/stimuli/pictures/n01753488_16616.JPEG	151.09664106369019	1.1805109977722168
105	118.76549100875854	response	0	k		103.0	/home/egter/Projects/stimuli/pictures/n01753488_16616.JPEG	152.26072096824646	
106	118.78192210197449	picture	0		183.0	104.0	/home/egter/Projects/stimuli/pictures/n03100240_2683.JPEG	152.2771520614624	1.5278220176696777
106	120.29725503921509	response	0	k		104.0	/home/egter/Projects/stimuli/pictures/n03100240_2683.JPEG	153.792484998703	
107	120.30974411964417	picture	0		109.0	105.0	/home/egter/Projects/stimuli/pictures/n03777754_6455.JPEG	153.80497407913208	0.9096708297729492
107	121.20559406280518	response	0	k		105.0	/home/egter/Projects/stimuli/pictures/n03777754_6455.JPEG	154.7008240222931	
108	121.21941494941711	picture	0		155.0	106.0	/home/egter/Projects/stimuli/pictures/R_S_ILSVRC2015_train_00042003.png	154.71464490890503	1.2986130714416504
108	122.50556707382202	response	0	j		106.0	/home/egter/Projects/stimuli/pictures/R_S_ILSVRC2015_train_00042003.png	156.00079703330994	
109	122.51802802085876	picture	0		87.0	107.0	/home/egter/Projects/stimuli/pictures/R_S_yt-4-u4Fw_J_q8_45.png	156.01325798034668	0.7222058773040771
109	123.23060393333435	response	0	j		107.0	/home/egter/Projects/stimuli/pictures/R_S_yt-4-u4Fw_J_q8_45.png	156.72583389282227	
110	123.24023389816284	picture	0		83.0	108.0	/home/egter/Projects/stimuli/pictures/R_S_yt-hvuC_2YXsTQ_159.png	156.73546385765076	0.6944470405578613
110	123.92220902442932	response	0	j		108.0	/home/egter/Projects/stimuli/pictures/R_S_yt-hvuC_2YXsTQ_159.png	157.41743898391724	
111	123.9346809387207	picture	0		101.0	109.0	/home/egter/Projects/stimuli/pictures/S_yt-4wYTkhggZNM_90.png	157.42991089820862	0.8402559757232666
111	124.76394391059875	response	0	j		109.0	/home/egter/Projects/stimuli/pictures/S_yt-4wYTkhggZNM_90.png	158.25917387008667	
112	124.77493691444397	picture	0		112.0	110.0	/home/egter/Projects/stimuli/pictures/R_S_yt-AHbFln6blfE_36.png	158.27016687393188	0.9305281639099121
112	125.69739508628845	response	0	j		110.0	/home/egter/Projects/stimuli/pictures/R_S_yt-AHbFln6blfE_36.png	159.19262504577637	
113	125.70546507835388	picture	0		76.0	111.0	/home/egter/Projects/stimuli/pictures/R_S_yt-aiWUhl8MCto_71.png	159.2006950378418	0.6388909816741943
113	126.33061504364014	response	0	j		111.0	/home/egter/Projects/stimuli/pictures/R_S_yt-aiWUhl8MCto_71.png	159.82584500312805	
114	126.34435606002808	picture	0		100.0	112.0	/home/egter/Projects/stimuli/pictures/S_yt-be7r-ha8BpA_1045.png	159.839586019516	0.8403189182281494
114	127.16539192199707	response	0	j		112.0	/home/egter/Projects/stimuli/pictures/S_yt-be7r-ha8BpA_1045.png	160.66062188148499	
115	127.18467497825623	picture	0		90.0	113.0	/home/egter/Projects/stimuli/pictures/n02814533_87572.JPEG	160.67990493774414	0.7499411106109619
115	127.92222905158997	response	0	k		113.0	/home/egter/Projects/stimuli/pictures/n02814533_87572.JPEG	161.41745901107788	
116	127.93461608886719	picture	0		178.0	114.0	/home/egter/Projects/stimuli/pictures/R_S_b2-4.png	161.4298460483551	1.4930469989776611
116	129.41404390335083	response	0	j		114.0	/home/egter/Projects/stimuli/pictures/R_S_b2-4.png	162.90927386283875	
117	129.42766308784485	picture	0		116.0	115.0	/home/egter/Projects/stimuli/pictures/S_ILSVRC2015_train_00547001.png	162.92289304733276	0.9722349643707275
117	130.3821520805359	response	0	j		115.0	/home/egter/Projects/stimuli/pictures/S_ILSVRC2015_train_00547001.png	163.8773820400238	
118	130.39989805221558	picture	0		98.0	116.0	/home/egter/Projects/stimuli/pictures/R_S_yt-pB9w3AA-woE_37.png	163.8951280117035	0.8194119930267334
118	131.19873905181885	response	0	j		116.0	/home/egter/Projects/stimuli/pictures/R_S_yt-pB9w3AA-woE_37.png	164.69396901130676	
119	131.2193100452423	picture	0		102.0	117.0	/home/egter/Projects/stimuli/pictures/S_yt-ayx4rU9bJrU_179.png	164.71454000473022	0.8541860580444336
119	132.0639989376068	response	0	j		117.0	/home/egter/Projects/stimuli/pictures/S_yt-ayx4rU9bJrU_179.png	165.55922889709473	
120	132.07349610328674	picture	0		170.0	118.0	/home/egter/Projects/stimuli/pictures/n09256479_808.JPEG	165.56872606277466	1.4166159629821777
120	133.4805610179901	response	0	k		118.0	/home/egter/Projects/stimuli/pictures/n09256479_808.JPEG	166.97579097747803	
121	133.49011206626892	picture	0		117.0	119.0	/home/egter/Projects/stimuli/pictures/S_yt-3JApfnMu5cU_378.png	166.98534202575684	0.979140043258667
121	134.45553588867188	response	0	j		119.0	/home/egter/Projects/stimuli/pictures/S_yt-3JApfnMu5cU_378.png	167.9507658481598	
122	134.4692521095276	picture	0		92.0	120.0	/home/egter/Projects/stimuli/pictures/R_S_wc-Mf8SQpviaD6D_17.png	167.9644820690155	0.7708590030670166
122	135.2305669784546	response	0	j		120.0	/home/egter/Projects/stimuli/pictures/R_S_wc-Mf8SQpviaD6D_17.png	168.7257969379425	
123	135.2401111125946	picture	0		88.0	121.0	/home/egter/Projects/stimuli/pictures/R_S_ILSVRC2015_train_00460000.png	168.73534107208252	0.7361178398132324
123	135.96388792991638	response	0	j		121.0	/home/egter/Projects/stimuli/pictures/R_S_ILSVRC2015_train_00460000.png	169.4591178894043	
124	135.97622895240784	picture	0		86.0	122.0	/home/egter/Projects/stimuli/pictures/n02910353_8726.JPEG	169.47145891189575	0.7209410667419434
124	136.68052411079407	response	0	k		122.0	/home/egter/Projects/stimuli/pictures/n02910353_8726.JPEG	170.17575407028198	
125	136.69717001914978	picture	0		159.0	123.0	/home/egter/Projects/stimuli/pictures/n03485407_16761.JPEG	170.1923999786377	1.3276550769805908
125	138.01386308670044	response	0	k		123.0	/home/egter/Projects/stimuli/pictures/n03485407_16761.JPEG	171.50909304618835	
126	138.02482509613037	picture	0		91.0	124.0	/home/egter/Projects/stimuli/pictures/S_ILSVRC2015_train_00355000.png	171.5200550556183	0.7569499015808105
126	138.77215194702148	response	0	k		124.0	/home/egter/Projects/stimuli/pictures/S_ILSVRC2015_train_00355000.png	172.2673819065094	
127	138.78177499771118	picture	0		116.0	125.0	/home/egter/Projects/stimuli/pictures/n02109047_17100.JPEG	172.2770049571991	0.9653229713439941
127	139.73884391784668	response	0	k		125.0	/home/egter/Projects/stimuli/pictures/n02109047_17100.JPEG	173.2340738773346	
128	139.74709796905518	picture	0		79.0	126.0	/home/egter/Projects/stimuli/pictures/R_S_comp_GMT308_139K_142NC_CARIBBEAN_DAY_v09_SDR_FINAL_22062018_SDR_2K_AVC.png	173.2423279285431	0.659635066986084
128	140.3904778957367	response	0	j		126.0	/home/egter/Projects/stimuli/pictures/R_S_comp_GMT308_139K_142NC_CARIBBEAN_DAY_v09_SDR_FINAL_22062018_SDR_2K_AVC.png	173.8857078552246	
129	140.40673303604126	picture	0		100.0	127.0	/home/egter/Projects/stimuli/pictures/n03792972_985.JPEG	173.90196299552917	0.8333370685577393
129	141.23052096366882	response	0	k		127.0	/home/egter/Projects/stimuli/pictures/n03792972_985.JPEG	174.72575092315674	
130	141.240070104599	picture	0		109.0	128.0	/home/egter/Projects/stimuli/pictures/S_yt-11VGDAOVEag_8.png	174.7353000640869	0.9097278118133545
130	142.1388499736786	response	0	j		128.0	/home/egter/Projects/stimuli/pictures/S_yt-11VGDAOVEag_8.png	175.6340799331665	
131	142.14979791641235	picture	0		99.0	129.0	/home/egter/Projects/stimuli/pictures/n01735189_1313.JPEG	175.64502787590027	0.8263840675354004
131	142.96382808685303	response	0	k		129.0	/home/egter/Projects/stimuli/pictures/n01735189_1313.JPEG	176.45905804634094	
132	142.97618198394775	picture	0		95.0	130.0	/home/egter/Projects/stimuli/pictures/n01753488_4752.JPEG	176.47141194343567	0.7916231155395508
132	143.7555069923401	response	0	k		130.0	/home/egter/Projects/stimuli/pictures/n01753488_4752.JPEG	177.250736951828	
133	143.7678050994873	picture	0		283.0	131.0	/home/egter/Projects/stimuli/pictures/n03417042_4761.JPEG	177.26303505897522	2.354235887527466
133	146.1138219833374	response	0	k		131.0	/home/egter/Projects/stimuli/pictures/n03417042_4761.JPEG	179.60905194282532	
134	146.12204098701477	picture	0		85.0	132.0	/home/egter/Projects/stimuli/pictures/n01689811_1897.JPEG	179.61727094650269	0.7083339691162109
134	146.82217693328857	response	0	k		132.0	/home/egter/Projects/stimuli/pictures/n01689811_1897.JPEG	180.3174068927765	
135	146.83037495613098	picture	0		82.0	133.0	/home/egter/Projects/stimuli/pictures/R_S_ILSVRC2015_train_00599000.png	180.3256049156189	0.6873769760131836
135	147.50550389289856	response	0	j		133.0	/home/egter/Projects/stimuli/pictures/R_S_ILSVRC2015_train_00599000.png	181.00073385238647	
136	147.51775193214417	picture	0		158.0	134.0	/home/egter/Projects/stimuli/pictures/n02128757_28707.JPEG	181.01298189163208	1.312572956085205
136	148.8221309185028	response	0	k		134.0	/home/egter/Projects/stimuli/pictures/n02128757_28707.JPEG	182.31736087799072	
137	148.83032488822937	picture	0		92.0	135.0	/home/egter/Projects/stimuli/pictures/n04435653_10830.JPEG	182.32555484771729	0.7707850933074951
137	149.58203601837158	response	0	k		135.0	/home/egter/Projects/stimuli/pictures/n04435653_10830.JPEG	183.0772659778595	
138	149.60110998153687	picture	0		104.0	136.0	/home/egter/Projects/stimuli/pictures/n02672831_16367.JPEG	183.09633994102478	0.8680179119110107
138	150.45562601089478	response	0	k		136.0	/home/egter/Projects/stimuli/pictures/n02672831_16367.JPEG	183.9508559703827	
139	150.46912789344788	picture	0		85.0	137.0	/home/egter/Projects/stimuli/pictures/n04146614_1228.JPEG	183.9643578529358	0.71529221534729
139	151.17209696769714	response	0	k		137.0	/home/egter/Projects/stimuli/pictures/n04146614_1228.JPEG	184.66732692718506	
140	151.18442010879517	picture	0		79.0	138.0	/home/egter/Projects/stimuli/pictures/R_S_yt-bWXohhodbjg_98.png	184.67965006828308	0.6596767902374268
140	151.83040308952332	response	0	j		138.0	/home/egter/Projects/stimuli/pictures/R_S_yt-bWXohhodbjg_98.png	185.32563304901123	
141	151.8440968990326	picture	0		200.0	139.0	/home/egter/Projects/stimuli/pictures/n02966193_86998.JPEG	185.3393268585205	1.6736431121826172
141	153.5054759979248	response	0	k		139.0	/home/egter/Projects/stimuli/pictures/n02966193_86998.JPEG	187.00070595741272	
142	153.5177400112152	picture	0		197.0	140.0	/home/egter/Projects/stimuli/pictures/n02492660_5738.JPEG	187.01296997070312	1.6388709545135498
142	155.1470229625702	response	0	k		140.0	/home/egter/Projects/stimuli/pictures/n02492660_5738.JPEG	188.6422529220581	
143	155.15661096572876	picture	0		88.0	141.0	/home/egter/Projects/stimuli/pictures/S_ILSVRC2015_train_00599000.png	188.65184092521667	0.7361049652099609
143	155.8804349899292	response	0	j		141.0	/home/egter/Projects/stimuli/pictures/S_ILSVRC2015_train_00599000.png	189.37566494941711	
144	155.89271593093872	picture	0		91.0	142.0	/home/egter/Projects/stimuli/pictures/R_S_yt-rY_ra5Tb9XU_51.png	189.38794589042664	0.7569200992584229
144	156.63879895210266	response	0	j		142.0	/home/egter/Projects/stimuli/pictures/R_S_yt-rY_ra5Tb9XU_51.png	190.13402891159058	
145	156.64963603019714	picture	0		107.0	143.0	/home/egter/Projects/stimuli/pictures/ILSVRC2012_val_00021857.JPEG	190.14486598968506	0.8890280723571777
145	157.53040194511414	response	0	k		143.0	/home/egter/Projects/stimuli/pictures/ILSVRC2012_val_00021857.JPEG	191.02563190460205	
146	157.53866410255432	picture	0		96.0	144.0	/home/egter/Projects/stimuli/pictures/n03240683_10903.JPEG	191.03389406204224	0.8053798675537109
146	158.33046197891235	response	0	k		144.0	/home/egter/Projects/stimuli/pictures/n03240683_10903.JPEG	191.82569193840027	
147	158.34404397010803	picture	0		82.0	145.0	/home/egter/Projects/stimuli/pictures/n02058221_203.JPEG	191.83927392959595	0.6875479221343994
147	159.02213191986084	response	0	k		145.0	/home/egter/Projects/stimuli/pictures/n02058221_203.JPEG	192.51736187934875	
148	159.03159189224243	picture	0		103.0	146.0	/home/egter/Projects/stimuli/pictures/n02687172_27488.JPEG	192.52682185173035	0.8610601425170898
148	159.8804190158844	response	0	k		146.0	/home/egter/Projects/stimuli/pictures/n02687172_27488.JPEG	193.37564897537231	
149	159.89265203475952	picture	0		75.0	147.0	/home/egter/Projects/stimuli/pictures/S_yt-TxU1H5A6BaQ_52.png	193.38788199424744	0.6250159740447998
149	160.5054349899292	response	0	j		147.0	/home/egter/Projects/stimuli/pictures/S_yt-TxU1H5A6BaQ_52.png	194.00066494941711	
150	160.51766800880432	picture	0		102.0	148.0	/home/egter/Projects/stimuli/pictures/S_yt-iO0efV_PV-k_102.png	194.01289796829224	0.84722900390625
150	161.3554310798645	response	0	j		148.0	/home/egter/Projects/stimuli/pictures/S_yt-iO0efV_PV-k_102.png	194.85066103935242	
151	161.36489701271057	picture	0		76.0	149.0	/home/egter/Projects/stimuli/pictures/R_S_comp_CH_C007_C011_PSNK_v02_SDR_PS_FINAL_20180709_SDR_2K_AVC.png	194.8601269721985	0.6320788860321045
151	161.98209309577942	response	0	j		149.0	/home/egter/Projects/stimuli/pictures/R_S_comp_CH_C007_C011_PSNK_v02_SDR_PS_FINAL_20180709_SDR_2K_AVC.png	195.47732305526733	
152	161.99697589874268	picture	0		99.0	150.0	/home/egter/Projects/stimuli/pictures/S_ILSVRC2015_train_00087003.png	195.4922058582306	0.8262350559234619
152	162.80699706077576	response	0	j		150.0	/home/egter/Projects/stimuli/pictures/S_ILSVRC2015_train_00087003.png	196.30222702026367	
153	162.82321095466614	picture	0		84.0	151.0	/home/egter/Projects/stimuli/pictures/R_S_yt--koo4FOfZE0_86.png	196.31844091415405	0.7013170719146729
153	163.51374197006226	response	0	j		151.0	/home/egter/Projects/stimuli/pictures/R_S_yt--koo4FOfZE0_86.png	197.00897192955017	
154	163.5245280265808	picture	0		85.0	152.0	/home/egter/Projects/stimuli/pictures/n04428191_7588.JPEG	197.01975798606873	0.7083990573883057
154	164.22206807136536	response	0	k		152.0	/home/egter/Projects/stimuli/pictures/n04428191_7588.JPEG	197.71729803085327	
155	164.23292708396912	picture	0		80.0	153.0	/home/egter/Projects/stimuli/pictures/S_yt-rY_ra5Tb9XU_51.png	197.72815704345703	0.6666409969329834
155	164.88874888420105	response	0	j		153.0	/home/egter/Projects/stimuli/pictures/S_yt-rY_ra5Tb9XU_51.png	198.38397884368896	
156	164.8995680809021	picture	0		99.0	154.0	/home/egter/Projects/stimuli/pictures/n01924916_8864.JPEG	198.39479804039001	0.8264918327331543
156	165.7137529850006	response	0	k		154.0	/home/egter/Projects/stimuli/pictures/n01924916_8864.JPEG	199.20898294448853	
157	165.72605991363525	picture	0		103.0	155.0	/home/egter/Projects/stimuli/pictures/S_yt-IC62JSYpq9w_71.png	199.22128987312317	0.8541491031646729
157	166.57209300994873	response	0	j		155.0	/home/egter/Projects/stimuli/pictures/S_yt-IC62JSYpq9w_71.png	200.06732296943665	
158	166.58020901679993	picture	0		96.0	156.0	/home/egter/Projects/stimuli/pictures/R_S_video-11.png	200.07543897628784	0.8054609298706055
158	167.37209296226501	response	0	j		156.0	/home/egter/Projects/stimuli/pictures/R_S_video-11.png	200.86732292175293	
159	167.38566994667053	picture	0		84.0	157.0	/home/egter/Projects/stimuli/pictures/S_b8-2.png	200.88089990615845	0.7083251476287842
159	168.0804250240326	response	0	j		157.0	/home/egter/Projects/stimuli/pictures/S_b8-2.png	201.5756549835205	
160	168.09399509429932	picture	0		116.0	158.0	/home/egter/Projects/stimuli/pictures/S_yt-T2CzKcU8pHo_17.png	201.58922505378723	0.972153902053833
160	169.0553560256958	response	0	k		158.0	/home/egter/Projects/stimuli/pictures/S_yt-T2CzKcU8pHo_17.png	202.55058598518372	
161	169.06614899635315	picture	0		93.0	159.0	/home/egter/Projects/stimuli/pictures/n03126707_1819.JPEG	202.56137895584106	0.7778398990631104
161	169.83038091659546	response	0	k		159.0	/home/egter/Projects/stimuli/pictures/n03126707_1819.JPEG	203.32561087608337	
162	169.84398889541626	picture	0		89.0	160.0	/home/egter/Projects/stimuli/pictures/R_S_yt-ZYrQIw9VUok_111.png	203.33921885490417	0.7499902248382568
162	170.5804100036621	response	0	j		160.0	/home/egter/Projects/stimuli/pictures/R_S_yt-ZYrQIw9VUok_111.png	204.07563996315002	
163	170.59397912025452	picture	0		110.0	161.0	/home/egter/Projects/stimuli/pictures/n03891251_5330.JPEG	204.08920907974243	0.9236578941345215
163	171.50540208816528	response	0	k		161.0	/home/egter/Projects/stimuli/pictures/n03891251_5330.JPEG	205.0006320476532	
164	171.51763701438904	picture	0		71.0	162.0	/home/egter/Projects/stimuli/pictures/S_yt-ZYrQIw9VUok_111.png	205.01286697387695	0.5901949405670166
164	172.09703588485718	response	0	j		162.0	/home/egter/Projects/stimuli/pictures/S_yt-ZYrQIw9VUok_111.png	205.5922658443451	
165	172.10783195495605	picture	0		111.0	163.0	/home/egter/Projects/stimuli/pictures/n03873416_9232.JPEG	205.60306191444397	0.9236230850219727
165	173.02206897735596	response	0	k		163.0	/home/egter/Projects/stimuli/pictures/n03873416_9232.JPEG	206.51729893684387	
166	173.03145503997803	picture	0		142.0	164.0	/home/egter/Projects/stimuli/pictures/n03873416_6703.JPEG	206.52668499946594	1.1874959468841553
166	174.1985890865326	response	0	k		164.0	/home/egter/Projects/stimuli/pictures/n03873416_6703.JPEG	207.6938190460205	
167	174.21895098686218	picture	0		336.0	165.0	/home/egter/Projects/stimuli/pictures/n02134084_2844.JPEG	207.7141809463501	2.8055059909820557
167	177.00687503814697	response	0	k		165.0	/home/egter/Projects/stimuli/pictures/n02134084_2844.JPEG	210.5021049976349	
168	177.02445697784424	picture	0		96.0	166.0	/home/egter/Projects/stimuli/pictures/n04326547_7634.JPEG	210.51968693733215	0.7986299991607666
168	177.80701398849487	response	0	k		166.0	/home/egter/Projects/stimuli/pictures/n04326547_7634.JPEG	211.3022439479828	
169	177.823086977005	picture	0		77.0	167.0	/home/egter/Projects/stimuli/pictures/ILSVRC2012_test_00064812.JPEG	211.31831693649292	0.6458549499511719
169	178.4553370475769	response	0	k		167.0	/home/egter/Projects/stimuli/pictures/ILSVRC2012_test_00064812.JPEG	211.95056700706482	
170	178.46894192695618	picture	0		79.0	168.0	/home/egter/Projects/stimuli/pictures/R_S_flickr-51283549@N02-23064904264_16.png	211.9641718864441	0.6666281223297119
170	179.12209296226501	response	0	j		168.0	/home/egter/Projects/stimuli/pictures/R_S_flickr-51283549@N02-23064904264_16.png	212.61732292175293	
171	179.1355700492859	picture	0		107.0	169.0	/home/egter/Projects/stimuli/pictures/S_flickr-132148318@N02-26685719802_3.png	212.6308000087738	0.8957719802856445
171	180.0152349472046	response	0	k		169.0	/home/egter/Projects/stimuli/pictures/S_flickr-132148318@N02-26685719802_3.png	213.5104649066925	
172	180.03134202957153	picture	0		103.0	170.0	/home/egter/Projects/stimuli/pictures/n03388549_41.JPEG	213.52657198905945	0.8611838817596436
172	180.88038802146912	response	0	k		170.0	/home/egter/Projects/stimuli/pictures/n03388549_41.JPEG	214.37561798095703	
173	180.89252591133118	picture	0		108.0	171.0	/home/egter/Projects/stimuli/pictures/R_S_yt-146gReE6xKw_379.png	214.3877558708191	0.9097201824188232
173	181.7887361049652	response	0	j		171.0	/home/egter/Projects/stimuli/pictures/R_S_yt-146gReE6xKw_379.png	215.28396606445312	
174	181.80224609375	picture	0		82.0	172.0	/home/egter/Projects/stimuli/pictures/S_yt_R-JarqKC4X8nM_4.png	215.29747605323792	0.6874468326568604
174	182.48038005828857	response	0	j		172.0	/home/egter/Projects/stimuli/pictures/S_yt_R-JarqKC4X8nM_4.png	215.9756100177765	
175	182.48969292640686	picture	0		329.0	173.0	/home/egter/Projects/stimuli/pictures/S_yt-z8fEOmzDlD4_21.png	215.98492288589478	2.7430930137634277
175	185.21517896652222	response	0	k		173.0	/home/egter/Projects/stimuli/pictures/S_yt-z8fEOmzDlD4_21.png	218.71040892601013	
176	185.2327859401703	picture	0		180.0	174.0	/home/egter/Projects/stimuli/pictures/n03095699_3680.JPEG	218.7280158996582	1.5057880878448486
176	186.7220799922943	response	0	k		174.0	/home/egter/Projects/stimuli/pictures/n03095699_3680.JPEG	220.21730995178223	
177	186.73857402801514	picture	0		111.0	175.0	/home/egter/Projects/stimuli/pictures/ILSVRC2012_test_00037574.JPEG	220.23380398750305	0.9249899387359619
177	187.6553659439087	response	0	k		175.0	/home/egter/Projects/stimuli/pictures/ILSVRC2012_test_00037574.JPEG	221.1505959033966	
178	187.6635639667511	picture	0		124.0	176.0	/home/egter/Projects/stimuli/pictures/R_S_yt-pO5SVq-9EhU_114.png	221.158793926239	1.0344181060791016
178	188.68867897987366	response	0	j		176.0	/home/egter/Projects/stimuli/pictures/R_S_yt-pO5SVq-9EhU_114.png	222.18390893936157	
179	188.6979820728302	picture	0		162.0	177.0	/home/egter/Projects/stimuli/pictures/ILSVRC2012_test_00008659.JPEG	222.19321203231812	1.3541488647460938
179	190.03867888450623	response	0	k		177.0	/home/egter/Projects/stimuli/pictures/ILSVRC2012_test_00008659.JPEG	223.53390884399414	
180	190.0521309375763	picture	0		235.0	178.0	/home/egter/Projects/stimuli/pictures/S_yt-xBhTD9mVR7s_90.png	223.5473608970642	1.9653780460357666
180	191.99848103523254	response	0	k		178.0	/home/egter/Projects/stimuli/pictures/S_yt-xBhTD9mVR7s_90.png	225.49371099472046	
181	192.01750898361206	picture	0		117.0	179.0	/home/egter/Projects/stimuli/pictures/S_yt-zrCOCNRc2cY_254.png	225.51273894309998	0.9721109867095947
181	192.98036694526672	response	0	k		179.0	/home/egter/Projects/stimuli/pictures/S_yt-zrCOCNRc2cY_254.png	226.47559690475464	
182	192.98961997032166	stim	0		341.0			226.48484992980957	2.8405921459198
182	195.81466794013977	response	0	space				229.30989789962769	
