trial_nr	onset	event_type	phase	response	nr_frames	picture_index	picture_file	onset_abs	duration
0	0.013998031616210938	stim	0		571.0			35.130133867263794	4.767956972122192
0	4.765704154968262	response	0	space				39.881839990615845	
2	4.781955003738403	picture	0		456.0	0.0	/home/egter/Projects/stimuli/pictures/S_comp_A009_C001_010181A_v09_SDR_PS_FINAL_20180725_SDR_2K_AVC.png	39.898090839385986	3.8054001331329346
2	8.573744058609009	response	0	k		0.0	/home/egter/Projects/stimuli/pictures/S_comp_A009_C001_010181A_v09_SDR_PS_FINAL_20180725_SDR_2K_AVC.png	43.68987989425659	
3	8.587355136871338	picture	0		747.0	1.0	/home/egter/Projects/stimuli/pictures/R_S_yt-JG2OY_7B-gI_537.png	43.70349097251892	6.229061841964722
3	14.80017614364624	response	0	k		1.0	/home/egter/Projects/stimuli/pictures/R_S_yt-JG2OY_7B-gI_537.png	49.91631197929382	
4	14.81641697883606	picture	0		263.0	2.0	/home/egter/Projects/stimuli/pictures/n01697457_5941.JPEG	49.93255281448364	2.2360641956329346
4	16.998656034469604	response	0	j		2.0	/home/egter/Projects/stimuli/pictures/n01697457_5941.JPEG	52.11479187011719	
5	17.052481174468994	picture	0		274.0	3.0	/home/egter/Projects/stimuli/pictures/n04476259_714.JPEG	52.16861701011658	2.2847368717193604
5	19.323698043823242	response	0	k		3.0	/home/egter/Projects/stimuli/pictures/n04476259_714.JPEG	54.439833879470825	
6	19.337218046188354	picture	0		233.0	4.0	/home/egter/Projects/stimuli/pictures/n01580077_5054.JPEG	54.45335388183594	1.9447081089019775
6	21.273741006851196	response	0	k		4.0	/home/egter/Projects/stimuli/pictures/n01580077_5054.JPEG	56.38987684249878	
7	21.281926155090332	picture	0		132.0	5.0	/home/egter/Projects/stimuli/pictures/S_yt-OEY9O2MglQM_7.png	56.398061990737915	1.1038188934326172
7	22.37364912033081	response	0	j		5.0	/home/egter/Projects/stimuli/pictures/S_yt-OEY9O2MglQM_7.png	57.489784955978394	
8	22.38574504852295	picture	0		103.0	6.0	/home/egter/Projects/stimuli/pictures/S_yt-dO0OuozAgt0_225.png	57.50188088417053	0.8544321060180664
8	23.225213050842285	response	0	j		6.0	/home/egter/Projects/stimuli/pictures/S_yt-dO0OuozAgt0_225.png	58.34134888648987	
9	23.240177154541016	picture	0		466.0	7.0	/home/egter/Projects/stimuli/pictures/n02640242_3189.JPEG	58.3563129901886	3.888737916946411
9	27.11538600921631	response	0	k		7.0	/home/egter/Projects/stimuli/pictures/n02640242_3189.JPEG	62.23152184486389	
10	27.128915071487427	picture	0		294.0	8.0	/home/egter/Projects/stimuli/pictures/S_yt-GBqXIFjZf8w_28.png	62.24505090713501	2.4582269191741943
10	29.573668003082275	response	0	k		8.0	/home/egter/Projects/stimuli/pictures/S_yt-GBqXIFjZf8w_28.png	64.68980383872986	
11	29.58714199066162	picture	0		87.0	9.0	/home/egter/Projects/stimuli/pictures/R_S_yt-UBqUhu-GEVg_6.png	64.7032778263092	0.7291460037231445
11	30.30696415901184	response	0	j		9.0	/home/egter/Projects/stimuli/pictures/R_S_yt-UBqUhu-GEVg_6.png	65.42309999465942	
12	30.316287994384766	picture	0		141.0	10.0	/home/egter/Projects/stimuli/pictures/n02815834_9667.JPEG	65.43242383003235	1.1738910675048828
12	31.481991052627563	response	0	k		10.0	/home/egter/Projects/stimuli/pictures/n02815834_9667.JPEG	66.59812688827515	
13	31.49017906188965	picture	0		245.0	11.0	/home/egter/Projects/stimuli/pictures/n13044778_8711.JPEG	66.60631489753723	2.041714906692505
13	33.52359700202942	response	0	j		11.0	/home/egter/Projects/stimuli/pictures/n13044778_8711.JPEG	68.639732837677	
14	33.53189396858215	picture	0		99.0	12.0	/home/egter/Projects/stimuli/pictures/R_S_yt-c5KPuyzO-50_4.png	68.64802980422974	0.8260011672973633
14	34.348628997802734	response	0	j		12.0	/home/egter/Projects/stimuli/pictures/R_S_yt-c5KPuyzO-50_4.png	69.46476483345032	
15	34.35789513587952	picture	0		158.0	13.0	/home/egter/Projects/stimuli/pictures/R_S_yt-GI8BEHw2Lq8_3.png	69.4740309715271	1.3194630146026611
15	35.66530203819275	response	0	j		13.0	/home/egter/Projects/stimuli/pictures/R_S_yt-GI8BEHw2Lq8_3.png	70.78143787384033	
16	35.67735815048218	picture	0		94.0	14.0	/home/egter/Projects/stimuli/pictures/S_yt-2l6VKd94eAI_151.png	70.79349398612976	0.7847030162811279
16	36.44865703582764	response	0	j		14.0	/home/egter/Projects/stimuli/pictures/S_yt-2l6VKd94eAI_151.png	71.56479287147522	
17	36.462061166763306	picture	0		95.0	15.0	/home/egter/Projects/stimuli/pictures/R_S_yt-nn-8LZcafGs_25.png	71.57819700241089	0.7986400127410889
17	37.24185299873352	response	0	j		15.0	/home/egter/Projects/stimuli/pictures/R_S_yt-nn-8LZcafGs_25.png	72.3579888343811	
18	37.260701179504395	picture	0		123.0	16.0	/home/egter/Projects/stimuli/pictures/n04266014_6986.JPEG	72.37683701515198	1.0210750102996826
18	38.273619174957275	response	0	k		16.0	/home/egter/Projects/stimuli/pictures/n04266014_6986.JPEG	73.38975501060486	
19	38.28177618980408	picture	0		229.0	17.0	/home/egter/Projects/stimuli/pictures/n07742313_413.JPEG	73.39791202545166	1.9093689918518066
19	40.18192505836487	response	0	k		17.0	/home/egter/Projects/stimuli/pictures/n07742313_413.JPEG	75.29806089401245	
20	40.191145181655884	picture	0		152.0	18.0	/home/egter/Projects/stimuli/pictures/R_S_ILSVRC2015_train_00479000.png	75.30728101730347	1.2709088325500488
20	41.44178795814514	response	0	j		18.0	/home/egter/Projects/stimuli/pictures/R_S_ILSVRC2015_train_00479000.png	76.55792379379272	
21	41.46205401420593	picture	0		118.0	19.0	/home/egter/Projects/stimuli/pictures/n03891251_7811.JPEG	76.57818984985352	0.9930291175842285
21	42.4334990978241	response	0	k		19.0	/home/egter/Projects/stimuli/pictures/n03891251_7811.JPEG	77.54963493347168	
22	42.45508313179016	picture	0		102.0	20.0	/home/egter/Projects/stimuli/pictures/R_S_yt-OTNdgakSIJE_97.png	77.57121896743774	0.854111909866333
22	43.298622131347656	response	0	j		20.0	/home/egter/Projects/stimuli/pictures/R_S_yt-OTNdgakSIJE_97.png	78.41475796699524	
23	43.309195041656494	picture	0		229.0	21.0	/home/egter/Projects/stimuli/pictures/S_ILSVRC2015_train_00682006.png	78.42533087730408	1.9142560958862305
23	45.20693302154541	response	0	j		21.0	/home/egter/Projects/stimuli/pictures/S_ILSVRC2015_train_00682006.png	80.323068857193	
24	45.223451137542725	picture	0		105.0	22.0	/home/egter/Projects/stimuli/pictures/n13054560_2007.JPEG	80.33958697319031	0.8774030208587646
24	46.090211153030396	response	0	k		22.0	/home/egter/Projects/stimuli/pictures/n13054560_2007.JPEG	81.20634698867798	
25	46.10085415840149	picture	0		313.0	23.0	/home/egter/Projects/stimuli/pictures/n04141327_9449.JPEG	81.21698999404907	2.6110999584198
25	48.69855809211731	response	0	j		23.0	/home/egter/Projects/stimuli/pictures/n04141327_9449.JPEG	83.81469392776489	
26	48.71195411682129	picture	0		297.0	24.0	/home/egter/Projects/stimuli/pictures/n01695060_5493.JPEG	83.82808995246887	2.4791269302368164
26	51.1818950176239	response	0	j		24.0	/home/egter/Projects/stimuli/pictures/n01695060_5493.JPEG	86.29803085327148	
27	51.191081047058105	picture	0		182.0	25.0	/home/egter/Projects/stimuli/pictures/S_yt-aSEKRE_FNaI_62.png	86.30721688270569	1.5208289623260498
27	52.69856905937195	response	0	j		25.0	/home/egter/Projects/stimuli/pictures/S_yt-aSEKRE_FNaI_62.png	87.81470489501953	
28	52.711910009384155	picture	0		198.0	26.0	/home/egter/Projects/stimuli/pictures/n02105162_237.JPEG	87.82804584503174	1.661534070968628
28	54.35690498352051	response	0	k		26.0	/home/egter/Projects/stimuli/pictures/n02105162_237.JPEG	89.47304081916809	
29	54.37344408035278	picture	0		221.0	27.0	/home/egter/Projects/stimuli/pictures/n07579787_11484.JPEG	89.48957991600037	1.8499860763549805
29	56.20687913894653	response	0	k		27.0	/home/egter/Projects/stimuli/pictures/n07579787_11484.JPEG	91.32301497459412	
30	56.223430156707764	picture	0		92.0	28.0	/home/egter/Projects/stimuli/pictures/R_S_yt-KQq7vTlXUiQ_173.png	91.33956599235535	0.7666239738464355
30	56.981866121292114	response	0	j		28.0	/home/egter/Projects/stimuli/pictures/R_S_yt-KQq7vTlXUiQ_173.png	92.0980019569397	
31	56.9900541305542	picture	0		316.0	29.0	/home/egter/Projects/stimuli/pictures/n01729322_17476.JPEG	92.10618996620178	2.6384639739990234
31	59.61518907546997	response	0	j		29.0	/home/egter/Projects/stimuli/pictures/n01729322_17476.JPEG	94.73132491111755	
32	59.62851810455322	picture	0		198.0	30.0	/home/egter/Projects/stimuli/pictures/S_ILSVRC2015_test_00004002.png	94.7446539402008	1.6698789596557617
32	61.27352213859558	response	0	k		30.0	/home/egter/Projects/stimuli/pictures/S_ILSVRC2015_test_00004002.png	96.38965797424316	
33	61.298397064208984	picture	0		146.0	31.0	/home/egter/Projects/stimuli/pictures/R_S_yt-QD74nNliDvI_10.png	96.41453289985657	1.2259190082550049
33	62.506860971450806	response	0	j		31.0	/home/egter/Projects/stimuli/pictures/R_S_yt-QD74nNliDvI_10.png	97.62299680709839	
34	62.52431607246399	picture	0		106.0	32.0	/home/egter/Projects/stimuli/pictures/R_S_ILSVRC2015_train_00404003.png	97.64045190811157	0.8907349109649658
34	63.39850401878357	response	0	j		32.0	/home/egter/Projects/stimuli/pictures/R_S_ILSVRC2015_train_00404003.png	98.51463985443115	
35	63.415050983428955	picture	0		79.0	33.0	/home/egter/Projects/stimuli/pictures/S_ILSVRC2015_train_00405001.png	98.53118681907654	0.6750020980834961
35	64.06510710716248	response	0	j		33.0	/home/egter/Projects/stimuli/pictures/S_ILSVRC2015_train_00405001.png	99.18124294281006	
36	64.09005308151245	picture	0		166.0	34.0	/home/egter/Projects/stimuli/pictures/n01685808_7674.JPEG	99.20618891716003	1.392529010772705
36	65.46519613265991	response	0	j		34.0	/home/egter/Projects/stimuli/pictures/n01685808_7674.JPEG	100.5813319683075	
37	65.48258209228516	picture	0		201.0	35.0	/home/egter/Projects/stimuli/pictures/n01806567_14571.JPEG	100.59871792793274	1.6824629306793213
37	67.14849019050598	response	0	j		35.0	/home/egter/Projects/stimuli/pictures/n01806567_14571.JPEG	102.26462602615356	
38	67.16504502296448	picture	0		161.0	36.0	/home/egter/Projects/stimuli/pictures/R_S_ILSVRC2015_train_00574004.png	102.28118085861206	1.3499791622161865
38	68.49850010871887	response	0	j		36.0	/home/egter/Projects/stimuli/pictures/R_S_ILSVRC2015_train_00574004.png	103.61463594436646	
39	68.51502418518066	picture	0		165.0	37.0	/home/egter/Projects/stimuli/pictures/S_yt-qycUhA3Isjg_67.png	103.63116002082825	1.3833258152008057
39	69.88177013397217	response	0	j		37.0	/home/egter/Projects/stimuli/pictures/S_yt-qycUhA3Isjg_67.png	104.99790596961975	
40	69.89835000038147	picture	0		113.0	38.0	/home/egter/Projects/stimuli/pictures/S_ILSVRC2015_train_00518001.png	105.01448583602905	0.9500629901885986
40	70.82503914833069	response	0	j		38.0	/home/egter/Projects/stimuli/pictures/S_ILSVRC2015_train_00518001.png	105.94117498397827	
41	70.84841299057007	picture	0		135.0	39.0	/home/egter/Projects/stimuli/pictures/R_S_yt-LQrnLKP5tiQ_48.png	105.96454882621765	1.1332440376281738
41	71.96514916419983	response	0	j		39.0	/home/egter/Projects/stimuli/pictures/R_S_yt-LQrnLKP5tiQ_48.png	107.08128499984741	
42	71.98165702819824	picture	0		153.0	40.0	/home/egter/Projects/stimuli/pictures/S_yt-yXJr3FR2xrM_27.png	107.09779286384583	1.6082749366760254
42	73.24175310134888	response	0	j		40.0	/home/egter/Projects/stimuli/pictures/S_yt-yXJr3FR2xrM_27.png	108.35788893699646	
43	73.58993196487427	picture	0		105.0	41.0	/home/egter/Projects/stimuli/pictures/ILSVRC2012_test_00094818.JPEG	108.70606780052185	0.8787000179290771
43	74.4500081539154	response	0	k		41.0	/home/egter/Projects/stimuli/pictures/ILSVRC2012_test_00094818.JPEG	109.56614398956299	
44	74.46863198280334	picture	0		114.0	42.0	/home/egter/Projects/stimuli/pictures/S_yt-g_CLzrCYHoc_7.png	109.58476781845093	0.9653081893920898
44	75.41516304016113	response	0	j		42.0	/home/egter/Projects/stimuli/pictures/S_yt-g_CLzrCYHoc_7.png	110.53129887580872	
45	75.43394017219543	picture	0		111.0	43.0	/home/egter/Projects/stimuli/pictures/R_S_yt-o_CT2MjZ9fA_216.png	110.55007600784302	0.9310529232025146
45	76.34855604171753	response	0	j		43.0	/home/egter/Projects/stimuli/pictures/R_S_yt-o_CT2MjZ9fA_216.png	111.46469187736511	
46	76.36499309539795	picture	0		122.0	44.0	/home/egter/Projects/stimuli/pictures/n09193705_57741.JPEG	111.48112893104553	1.0272328853607178
46	77.37346005439758	response	0	k		44.0	/home/egter/Projects/stimuli/pictures/n09193705_57741.JPEG	112.48959589004517	
47	77.39222598075867	picture	0		139.0	45.0	/home/egter/Projects/stimuli/pictures/S_OdxWh1oU8e8_1.png	112.50836181640625	1.1667590141296387
47	78.54006314277649	response	0	j		45.0	/home/egter/Projects/stimuli/pictures/S_OdxWh1oU8e8_1.png	113.65619897842407	
48	78.5589849948883	picture	0		132.0	46.0	/home/egter/Projects/stimuli/pictures/S_yt-Y32yFYRmNVU_22.png	113.67512083053589	1.1059839725494385
48	79.64158511161804	response	0	k		46.0	/home/egter/Projects/stimuli/pictures/S_yt-Y32yFYRmNVU_22.png	114.75772094726562	
49	79.66496896743774	picture	0		156.0	47.0	/home/egter/Projects/stimuli/pictures/ILSVRC2012_val_00042220.JPEG	114.78110480308533	1.3083550930023193
49	80.95674896240234	response	0	j		47.0	/home/egter/Projects/stimuli/pictures/ILSVRC2012_val_00042220.JPEG	116.07288479804993	
50	80.97332406044006	picture	0		131.0	48.0	/home/egter/Projects/stimuli/pictures/S_comp_GMT329_113NC_396B_1105_ITALY_v03_SDR_FINAL_20180706_SDR_2K_AVC.png	116.08945989608765	1.0999999046325684
50	82.04996514320374	response	0	j		48.0	/home/egter/Projects/stimuli/pictures/S_comp_GMT329_113NC_396B_1105_ITALY_v03_SDR_FINAL_20180706_SDR_2K_AVC.png	117.16610097885132	
51	82.07332396507263	picture	0		206.0	49.0	/home/egter/Projects/stimuli/pictures/n07717410_11092.JPEG	117.18945980072021	1.7249820232391357
51	83.78172302246094	response	0	k		49.0	/home/egter/Projects/stimuli/pictures/n07717410_11092.JPEG	118.89785885810852	
52	83.79830598831177	picture	0		443.0	50.0	/home/egter/Projects/stimuli/pictures/n03527444_17699.JPEG	118.91444182395935	3.6999549865722656
52	87.48167514801025	response	0	j		50.0	/home/egter/Projects/stimuli/pictures/n03527444_17699.JPEG	122.59781098365784	
53	87.49826097488403	picture	0		197.0	51.0	/home/egter/Projects/stimuli/pictures/n01685808_6392.JPEG	122.61439681053162	1.8667421340942383
53	89.13166904449463	response	0	k		51.0	/home/egter/Projects/stimuli/pictures/n01685808_6392.JPEG	124.24780488014221	
54	89.36500310897827	picture	0		399.0	52.0	/home/egter/Projects/stimuli/pictures/n02123045_15494.JPEG	124.48113894462585	3.341562032699585
54	92.681715965271	response	0	k		52.0	/home/egter/Projects/stimuli/pictures/n02123045_15494.JPEG	127.79785180091858	
55	92.70656514167786	picture	0		179.0	53.0	/home/egter/Projects/stimuli/pictures/R_S_yt-I9uf7kAccFA_229.png	127.82270097732544	1.5083298683166504
55	94.19005703926086	response	0	k		53.0	/home/egter/Projects/stimuli/pictures/R_S_yt-I9uf7kAccFA_229.png	129.30619287490845	
56	94.2148950099945	picture	0		785.0	54.0	/home/egter/Projects/stimuli/pictures/n03126707_1277.JPEG	129.3310308456421	6.552119016647339
56	100.7483639717102	response	0	k		54.0	/home/egter/Projects/stimuli/pictures/n03126707_1277.JPEG	135.8644998073578	
57	100.76701402664185	picture	0		468.0	55.0	/home/egter/Projects/stimuli/pictures/n01873310_18435.JPEG	135.88314986228943	3.906217098236084
57	104.65053796768188	response	0	j		55.0	/home/egter/Projects/stimuli/pictures/n01873310_18435.JPEG	139.76667380332947	
58	104.67323112487793	picture	0		132.0	56.0	/home/egter/Projects/stimuli/pictures/n01530575_6375.JPEG	139.7893669605255	1.1006278991699219
58	105.7650260925293	response	0	k		56.0	/home/egter/Projects/stimuli/pictures/n01530575_6375.JPEG	140.88116192817688	
59	105.77385902404785	picture	0		391.0	57.0	/home/egter/Projects/stimuli/pictures/n04461696_16226.JPEG	140.88999485969543	3.2576470375061035
59	109.02330207824707	response	0	j		57.0	/home/egter/Projects/stimuli/pictures/n04461696_16226.JPEG	144.13943791389465	
60	109.03150606155396	picture	0		133.0	58.0	/home/egter/Projects/stimuli/pictures/n02974003_106.JPEG	144.14764189720154	1.1104230880737305
60	110.13165497779846	response	0	k		58.0	/home/egter/Projects/stimuli/pictures/n02974003_106.JPEG	145.24779081344604	
61	110.14192914962769	picture	0		956.0	59.0	/home/egter/Projects/stimuli/pictures/n03697007_7401.JPEG	145.25806498527527	7.965205907821655
61	118.09825897216797	response	0	j		59.0	/home/egter/Projects/stimuli/pictures/n03697007_7401.JPEG	153.21439480781555	
62	118.10713505744934	picture	0		155.0	60.0	/home/egter/Projects/stimuli/pictures/n09332890_10045.JPEG	153.22327089309692	1.2916059494018555
62	119.38997316360474	response	0	k		60.0	/home/egter/Projects/stimuli/pictures/n09332890_10045.JPEG	154.50610899925232	
63	119.3987410068512	picture	0		127.0	61.0	/home/egter/Projects/stimuli/pictures/R_S_yt-wrfAMDCg93Y_8.png	154.51487684249878	1.0764241218566895
63	120.44203209877014	response	0	j		61.0	/home/egter/Projects/stimuli/pictures/R_S_yt-wrfAMDCg93Y_8.png	155.55816793441772	
64	120.47516512870789	picture	0		124.0	62.0	/home/egter/Projects/stimuli/pictures/n02606052_2701.JPEG	155.59130096435547	1.0416760444641113
64	121.49823307991028	response	0	k		62.0	/home/egter/Projects/stimuli/pictures/n02606052_2701.JPEG	156.61436891555786	
65	121.516841173172	picture	0		108.0	63.0	/home/egter/Projects/stimuli/pictures/S_comp_LA_A011_C003_DGRN_LNFIX_STAB_v57_SDR_PS_20181002_SDR_2K_AVC.png	156.63297700881958	0.9063007831573486
65	122.4066059589386	response	0	j		63.0	/home/egter/Projects/stimuli/pictures/S_comp_LA_A011_C003_DGRN_LNFIX_STAB_v57_SDR_PS_20181002_SDR_2K_AVC.png	157.52274179458618	
66	122.42314195632935	picture	0		96.0	64.0	/home/egter/Projects/stimuli/pictures/S_pexels-koolshooters-7327401.png	157.53927779197693	1.6005690097808838
66	123.21485304832458	response	0	j		64.0	/home/egter/Projects/stimuli/pictures/S_pexels-koolshooters-7327401.png	158.33098888397217	
67	124.02371096611023	picture	0		104.0	65.0	/home/egter/Projects/stimuli/pictures/n04141327_3581.JPEG	159.1398468017578	0.8680801391601562
67	124.88159799575806	response	0	k		65.0	/home/egter/Projects/stimuli/pictures/n04141327_3581.JPEG	159.99773383140564	
68	124.89179110527039	picture	0		325.0	66.0	/home/egter/Projects/stimuli/pictures/R_S_yt-Gam0NeyyG8w_22.png	160.00792694091797	2.714674949645996
68	127.58988809585571	response	0	j		66.0	/home/egter/Projects/stimuli/pictures/R_S_yt-Gam0NeyyG8w_22.png	162.7060239315033	
69	127.60646605491638	picture	0		355.0	67.0	/home/egter/Projects/stimuli/pictures/n04467665_77937.JPEG	162.72260189056396	2.958894968032837
69	130.5565700531006	response	0	k		67.0	/home/egter/Projects/stimuli/pictures/n04467665_77937.JPEG	165.67270588874817	
70	130.56536102294922	picture	0		313.0	68.0	/home/egter/Projects/stimuli/pictures/R_S_yt-ObT9gF8E_tU_250.png	165.6814968585968	2.616044044494629
70	133.1648871898651	response	0	j		68.0	/home/egter/Projects/stimuli/pictures/R_S_yt-ObT9gF8E_tU_250.png	168.2810230255127	
71	133.18140506744385	picture	0		115.0	69.0	/home/egter/Projects/stimuli/pictures/R_S_yt-l_pvPAznG1A_20.png	168.29754090309143	0.9602680206298828
71	134.13154911994934	response	0	j		69.0	/home/egter/Projects/stimuli/pictures/R_S_yt-l_pvPAznG1A_20.png	169.24768495559692	
72	134.14167308807373	picture	0		316.0	70.0	/home/egter/Projects/stimuli/pictures/S_yt-ZPRkoZyAmfg_35.png	169.2578089237213	2.6319921016693115
72	136.76488304138184	response	0	k		70.0	/home/egter/Projects/stimuli/pictures/S_yt-ZPRkoZyAmfg_35.png	171.88101887702942	
73	136.77366518974304	picture	0		351.0	71.0	/home/egter/Projects/stimuli/pictures/n07875152_931.JPEG	171.88980102539062	2.932734966278076
73	139.68298506736755	response	0	k		71.0	/home/egter/Projects/stimuli/pictures/n07875152_931.JPEG	174.79912090301514	
74	139.70640015602112	picture	0		148.0	72.0	/home/egter/Projects/stimuli/pictures/n04228054_11703.JPEG	174.8225359916687	1.2338669300079346
74	140.93154501914978	response	0	k		72.0	/home/egter/Projects/stimuli/pictures/n04228054_11703.JPEG	176.04768085479736	
75	140.94026708602905	picture	0		321.0	73.0	/home/egter/Projects/stimuli/pictures/n02107574_933.JPEG	176.05640292167664	2.680483102798462
75	143.60700607299805	response	0	k		73.0	/home/egter/Projects/stimuli/pictures/n02107574_933.JPEG	178.72314190864563	
76	143.62075018882751	picture	0		121.0	74.0	/home/egter/Projects/stimuli/pictures/S_yt-SS7pSyb0_d0_32.png	178.7368860244751	1.0138728618621826
76	144.623202085495	response	0	j		74.0	/home/egter/Projects/stimuli/pictures/S_yt-SS7pSyb0_d0_32.png	179.73933792114258	
77	144.6346230506897	picture	0		113.0	75.0	/home/egter/Projects/stimuli/pictures/n03661043_38938.JPEG	179.75075888633728	0.9444780349731445
77	145.56534004211426	response	0	k		75.0	/home/egter/Projects/stimuli/pictures/n03661043_38938.JPEG	180.68147587776184	
78	145.57910108566284	picture	0		236.0	76.0	/home/egter/Projects/stimuli/pictures/S_BO_A014_C023_SDR_20190717_F240F3709_SDR_2K_AVC.png	180.69523692131042	1.9723119735717773
78	147.53984308242798	response	0	j		76.0	/home/egter/Projects/stimuli/pictures/S_BO_A014_C023_SDR_20190717_F240F3709_SDR_2K_AVC.png	182.65597891807556	
79	147.55141305923462	picture	0		112.0	77.0	/home/egter/Projects/stimuli/pictures/S_JApTAOdfunE_1251.png	182.6675488948822	0.9304299354553223
79	148.46624517440796	response	0	j		77.0	/home/egter/Projects/stimuli/pictures/S_JApTAOdfunE_1251.png	183.58238101005554	
80	148.48184299468994	picture	0		121.0	78.0	/home/egter/Projects/stimuli/pictures/S_yt-I9uf7kAccFA_229.png	183.59797883033752	1.0138561725616455
80	149.4746060371399	response	0	j		78.0	/home/egter/Projects/stimuli/pictures/S_yt-I9uf7kAccFA_229.png	184.59074187278748	
81	149.4956991672516	picture	0		361.0	79.0	/home/egter/Projects/stimuli/pictures/n02786058_2296.JPEG	184.61183500289917	3.018948793411255
81	152.49126815795898	response	0	k		79.0	/home/egter/Projects/stimuli/pictures/n02786058_2296.JPEG	187.60740399360657	
82	152.51464796066284	picture	0		136.0	80.0	/home/egter/Projects/stimuli/pictures/R_S_Pexels_Videos_2795731.png	187.63078379631042	1.1616120338439941
82	153.63982701301575	response	0	j		80.0	/home/egter/Projects/stimuli/pictures/R_S_Pexels_Videos_2795731.png	188.75596284866333	
83	153.67625999450684	picture	0		1274.0	81.0	/home/egter/Projects/stimuli/pictures/n04597913_2077.JPEG	188.79239583015442	10.61794400215149
83	164.27497100830078	response	0	k		81.0	/home/egter/Projects/stimuli/pictures/n04597913_2077.JPEG	199.39110684394836	
84	164.29420399665833	picture	0		223.0	82.0	/home/egter/Projects/stimuli/pictures/ILSVRC2012_test_00080382.JPEG	199.4103398323059	1.8541290760040283
84	166.13971209526062	response	0	k		82.0	/home/egter/Projects/stimuli/pictures/ILSVRC2012_test_00080382.JPEG	201.2558479309082	
85	166.14833307266235	picture	0		683.0	83.0	/home/egter/Projects/stimuli/pictures/n03388549_41.JPEG	201.26446890830994	5.69438099861145
85	171.83134412765503	response	0	k		83.0	/home/egter/Projects/stimuli/pictures/n03388549_41.JPEG	206.9474799633026	
86	171.8427140712738	picture	0		126.0	84.0	/home/egter/Projects/stimuli/pictures/n03733131_1945.JPEG	206.9588499069214	1.0555620193481445
86	172.87467312812805	response	0	k		84.0	/home/egter/Projects/stimuli/pictures/n03733131_1945.JPEG	207.99080896377563	
87	172.89827609062195	picture	0		180.0	85.0	/home/egter/Projects/stimuli/pictures/S_yt-HQQws1Lp_rQ_10.png	208.01441192626953	1.4999659061431885
87	174.3897020816803	response	0	j		85.0	/home/egter/Projects/stimuli/pictures/S_yt-HQQws1Lp_rQ_10.png	209.50583791732788	
88	174.39824199676514	picture	0		111.0	86.0	/home/egter/Projects/stimuli/pictures/S_yt-zydTlQGCUjQ_277.png	209.51437783241272	0.9305801391601562
88	175.31500816345215	response	0	j		86.0	/home/egter/Projects/stimuli/pictures/S_yt-zydTlQGCUjQ_277.png	210.43114399909973	
89	175.3288221359253	picture	0		1189.0	87.0	/home/egter/Projects/stimuli/pictures/S_yt-Rqwi-Fk9IJQ_114.png	210.44495797157288	9.919005870819092
89	185.2316620349884	response	0	j		87.0	/home/egter/Projects/stimuli/pictures/S_yt-Rqwi-Fk9IJQ_114.png	220.347797870636	
90	185.24782800674438	picture	0		123.0	88.0	/home/egter/Projects/stimuli/pictures/S_comp_GMT060_117NC_363D_1034_AUSTRALIA_v35_SDR_PS_FINAL_20180731_SDR_2K_AVC.png	220.36396384239197	1.0253050327301025
90	186.26470112800598	response	0	j		88.0	/home/egter/Projects/stimuli/pictures/S_comp_GMT060_117NC_363D_1034_AUSTRALIA_v35_SDR_PS_FINAL_20180731_SDR_2K_AVC.png	221.38083696365356	
91	186.2731330394745	picture	0		257.0	89.0	/home/egter/Projects/stimuli/pictures/S_ILSVRC2015_train_00756000.png	221.38926887512207	2.1497650146484375
91	188.40634417533875	response	0	j		89.0	/home/egter/Projects/stimuli/pictures/S_ILSVRC2015_train_00756000.png	223.52248001098633	
92	188.42289805412292	picture	0		376.0	90.0	/home/egter/Projects/stimuli/pictures/S_yt-TFzaqepOKQ4_13.png	223.5390338897705	3.1349270343780518
92	191.5479700565338	response	0	k		90.0	/home/egter/Projects/stimuli/pictures/S_yt-TFzaqepOKQ4_13.png	226.6641058921814	
93	191.55782508850098	picture	0		235.0	91.0	/home/egter/Projects/stimuli/pictures/n02814533_17866.JPEG	226.67396092414856	1.9583449363708496
93	193.49963116645813	response	0	k		91.0	/home/egter/Projects/stimuli/pictures/n02814533_17866.JPEG	228.6157670021057	
94	193.51617002487183	picture	0		505.0	92.0	/home/egter/Projects/stimuli/pictures/n01984695_30354.JPEG	228.6323058605194	4.215013027191162
94	197.71467900276184	response	0	j		92.0	/home/egter/Projects/stimuli/pictures/n01984695_30354.JPEG	232.83081483840942	
95	197.731183052063	picture	0		125.0	93.0	/home/egter/Projects/stimuli/pictures/n07875152_3661.JPEG	232.84731888771057	1.041821002960205
95	198.76459002494812	response	0	k		93.0	/home/egter/Projects/stimuli/pictures/n07875152_3661.JPEG	233.8807258605957	
96	198.7730040550232	picture	0		290.0	94.0	/home/egter/Projects/stimuli/pictures/S_yt-gbDSSDcRlg4_31.png	233.88913989067078	2.4166829586029053
96	201.18126916885376	response	0	j		94.0	/home/egter/Projects/stimuli/pictures/S_yt-gbDSSDcRlg4_31.png	236.29740500450134	
97	201.1896870136261	picture	0		103.0	95.0	/home/egter/Projects/stimuli/pictures/n03443371_2723.JPEG	236.30582284927368	0.8680310249328613
97	202.0395951271057	response	0	k		95.0	/home/egter/Projects/stimuli/pictures/n03443371_2723.JPEG	237.1557309627533	
98	202.05771803855896	picture	0		419.0	96.0	/home/egter/Projects/stimuli/pictures/n04146614_6375.JPEG	237.17385387420654	3.4930269718170166
98	205.53956508636475	response	0	k		96.0	/home/egter/Projects/stimuli/pictures/n04146614_6375.JPEG	240.65570092201233	
99	205.55074501037598	picture	0		139.0	97.0	/home/egter/Projects/stimuli/pictures/R_S_yt-q9kT_c9QjbQ_34.png	240.66688084602356	1.159764051437378
99	206.69134497642517	response	0	j		97.0	/home/egter/Projects/stimuli/pictures/R_S_yt-q9kT_c9QjbQ_34.png	241.80748081207275	
100	206.71050906181335	picture	0		161.0	98.0	/home/egter/Projects/stimuli/pictures/S_yt-RnVxAv3aIoc_20.png	241.82664489746094	1.340217113494873
100	208.03955602645874	response	0	j		98.0	/home/egter/Projects/stimuli/pictures/S_yt-RnVxAv3aIoc_20.png	243.15569186210632	
101	208.05072617530823	picture	0		151.0	99.0	/home/egter/Projects/stimuli/pictures/n07590611_18149.JPEG	243.1668620109558	1.2569468021392822
101	209.29123401641846	response	0	k		99.0	/home/egter/Projects/stimuli/pictures/n07590611_18149.JPEG	244.40736985206604	
102	209.3076729774475	picture	0		112.0	100.0	/home/egter/Projects/stimuli/pictures/S_yt-fk-z6WCvjjA_3.png	244.4238088130951	0.9375691413879395
102	210.23138999938965	response	0	j		100.0	/home/egter/Projects/stimuli/pictures/S_yt-fk-z6WCvjjA_3.png	245.34752583503723	
103	210.24524211883545	picture	0		131.0	101.0	/home/egter/Projects/stimuli/pictures/S_ILSVRC2015_train_00601000.png	245.36137795448303	1.0971040725708008
103	211.33121514320374	response	0	j		101.0	/home/egter/Projects/stimuli/pictures/S_ILSVRC2015_train_00601000.png	246.44735097885132	
104	211.34234619140625	picture	0		210.0	102.0	/home/egter/Projects/stimuli/pictures/n07684084_3175.JPEG	246.45848202705383	1.750004768371582
104	213.08123803138733	response	0	k		102.0	/home/egter/Projects/stimuli/pictures/n07684084_3175.JPEG	248.1973738670349	
105	213.09235095977783	picture	0		379.0	103.0	/home/egter/Projects/stimuli/pictures/S_yt-yk3vAySVlDw_30.png	248.20848679542542	3.159863233566284
105	216.2395691871643	response	0	k		103.0	/home/egter/Projects/stimuli/pictures/S_yt-yk3vAySVlDw_30.png	251.3557050228119	
106	216.25221419334412	picture	0		127.0	104.0	/home/egter/Projects/stimuli/pictures/R_S_yt-35i8UeYXjGw_47.png	251.3683500289917	1.0553758144378662
106	217.29109001159668	response	0	j		104.0	/home/egter/Projects/stimuli/pictures/R_S_yt-35i8UeYXjGw_47.png	252.40722584724426	
107	217.30759000778198	picture	0		127.0	105.0	/home/egter/Projects/stimuli/pictures/R_S_yt-HMAa2QbfFPI_216.png	252.42372584342957	1.0624990463256836
107	218.3562569618225	response	0	j		105.0	/home/egter/Projects/stimuli/pictures/R_S_yt-HMAa2QbfFPI_216.png	253.4723927974701	
108	218.37008905410767	picture	0		160.0	106.0	/home/egter/Projects/stimuli/pictures/S_yt-22c5eZ1UNME_76.png	253.48622488975525	1.3402519226074219
108	219.69124603271484	response	0	j		106.0	/home/egter/Projects/stimuli/pictures/S_yt-22c5eZ1UNME_76.png	254.80738186836243	
109	219.7103409767151	picture	0		119.0	107.0	/home/egter/Projects/stimuli/pictures/S_ILSVRC2015_train_00532000.png	254.82647681236267	0.9930570125579834
109	220.68958115577698	response	0	j		107.0	/home/egter/Projects/stimuli/pictures/S_ILSVRC2015_train_00532000.png	255.80571699142456	
110	220.70339798927307	picture	0		194.0	108.0	/home/egter/Projects/stimuli/pictures/ILSVRC2012_test_00042583.JPEG	255.81953382492065	1.624993085861206
110	222.30770206451416	response	0	k		108.0	/home/egter/Projects/stimuli/pictures/ILSVRC2012_test_00042583.JPEG	257.42383790016174	
111	222.32839107513428	picture	0		453.0	109.0	/home/egter/Projects/stimuli/pictures/R_S_yt-B7ZRYVhfW2U_52.png	257.44452691078186	3.777703046798706
111	226.09107613563538	response	0	j		109.0	/home/egter/Projects/stimuli/pictures/R_S_yt-B7ZRYVhfW2U_52.png	261.20721197128296	
112	226.10609412193298	picture	0		158.0	110.0	/home/egter/Projects/stimuli/pictures/S_yt-0RBWX9VRzaU_141.png	261.22222995758057	1.3194580078125
112	227.41452813148499	response	0	j		110.0	/home/egter/Projects/stimuli/pictures/S_yt-0RBWX9VRzaU_141.png	262.53066396713257	
113	227.42555212974548	picture	0		110.0	111.0	/home/egter/Projects/stimuli/pictures/R_S_ILSVRC2015_train_00323000.png	262.54168796539307	0.9166789054870605
113	228.3311710357666	response	0	j		111.0	/home/egter/Projects/stimuli/pictures/R_S_ILSVRC2015_train_00323000.png	263.4473068714142	
114	228.34223103523254	picture	0		388.0	112.0	/home/egter/Projects/stimuli/pictures/ILSVRC2012_test_00021180.JPEG	263.4583668708801	3.2360451221466064
114	231.56456208229065	response	0	k		112.0	/home/egter/Projects/stimuli/pictures/ILSVRC2012_test_00021180.JPEG	266.68069791793823	
115	231.57827615737915	picture	0		145.0	113.0	/home/egter/Projects/stimuli/pictures/n03478589_9338.JPEG	266.69441199302673	1.2152798175811768
115	232.78115010261536	response	0	k		113.0	/home/egter/Projects/stimuli/pictures/n03478589_9338.JPEG	267.89728593826294	
116	232.79355597496033	picture	0		98.0	114.0	/home/egter/Projects/stimuli/pictures/R_S_yt-TxU1H5A6BaQ_52.png	267.9096918106079	0.8124852180480957
116	233.59784698486328	response	0	j		114.0	/home/egter/Projects/stimuli/pictures/R_S_yt-TxU1H5A6BaQ_52.png	268.71398282051086	
117	233.60604119300842	picture	0		273.0	115.0	/home/egter/Projects/stimuli/pictures/n07684084_4317.JPEG	268.722177028656	2.2777528762817383
117	235.8727731704712	response	0	k		115.0	/home/egter/Projects/stimuli/pictures/n07684084_4317.JPEG	270.9889090061188	
118	235.88379406929016	picture	0		199.0	116.0	/home/egter/Projects/stimuli/pictures/n03000134_1013.JPEG	270.99992990493774	1.6736180782318115
118	237.531152009964	response	0	k		116.0	/home/egter/Projects/stimuli/pictures/n03000134_1013.JPEG	272.6472878456116	
119	237.55741214752197	picture	0		158.0	117.0	/home/egter/Projects/stimuli/pictures/S_yt-bmGWhOCsvJo_128.png	272.67354798316956	1.3194270133972168
119	238.86448097229004	response	0	j		117.0	/home/egter/Projects/stimuli/pictures/S_yt-bmGWhOCsvJo_128.png	273.9806168079376	
120	238.8768391609192	picture	0		911.0	118.0	/home/egter/Projects/stimuli/pictures/R_S_ILSVRC2015_train_00756000.png	273.9929749965668	7.590216875076294
120	246.45612215995789	response	0	j		118.0	/home/egter/Projects/stimuli/pictures/R_S_ILSVRC2015_train_00756000.png	281.57225799560547	
121	246.46705603599548	picture	0		183.0	119.0	/home/egter/Projects/stimuli/pictures/S_yt-XtzmBXKYEWk_60.png	281.58319187164307	1.5305900573730469
121	247.9810609817505	response	0	j		119.0	/home/egter/Projects/stimuli/pictures/S_yt-XtzmBXKYEWk_60.png	283.09719681739807	
122	247.99764609336853	picture	0		130.0	120.0	/home/egter/Projects/stimuli/pictures/S_yt-Bejo5TLEpg4_36.png	283.1137819290161	1.0916340351104736
122	249.07275700569153	response	0	k		120.0	/home/egter/Projects/stimuli/pictures/S_yt-Bejo5TLEpg4_36.png	284.1888928413391	
123	249.089280128479	picture	0		101.0	121.0	/home/egter/Projects/stimuli/pictures/S_flickr-reginahart-31964450591_23.png	284.2054159641266	0.8430290222167969
123	249.91589498519897	response	0	j		121.0	/home/egter/Projects/stimuli/pictures/S_flickr-reginahart-31964450591_23.png	285.03203082084656	
124	249.9323091506958	picture	0		332.0	122.0	/home/egter/Projects/stimuli/pictures/n03141823_3814.JPEG	285.0484449863434	2.77079701423645
124	252.68943119049072	response	0	j		122.0	/home/egter/Projects/stimuli/pictures/n03141823_3814.JPEG	287.8055670261383	
125	252.70310616493225	picture	0		221.0	123.0	/home/egter/Projects/stimuli/pictures/S_yt-kINZMjys3O4_112.png	287.81924200057983	1.8472318649291992
125	254.53937911987305	response	0	k		123.0	/home/egter/Projects/stimuli/pictures/S_yt-kINZMjys3O4_112.png	289.65551495552063	
126	254.55033802986145	picture	0		116.0	124.0	/home/egter/Projects/stimuli/pictures/S_yt-wE0cEswyaaM_53.png	289.66647386550903	0.9723870754241943
126	255.50607800483704	response	0	j		124.0	/home/egter/Projects/stimuli/pictures/S_yt-wE0cEswyaaM_53.png	290.6222138404846	
127	255.52272510528564	picture	0		265.0	125.0	/home/egter/Projects/stimuli/pictures/S_yt-Gam0NeyyG8w_22.png	290.6388609409332	2.2082529067993164
127	257.7159581184387	response	0	j		125.0	/home/egter/Projects/stimuli/pictures/S_yt-Gam0NeyyG8w_22.png	292.8320939540863	
128	257.73097801208496	picture	0		121.0	126.0	/home/egter/Projects/stimuli/pictures/S_ILSVRC2015_train_00704000.png	292.84711384773254	1.0137579441070557
128	258.72433710098267	response	0	j		126.0	/home/egter/Projects/stimuli/pictures/S_ILSVRC2015_train_00704000.png	293.84047293663025	
129	258.744735956192	picture	0		162.0	127.0	/home/egter/Projects/stimuli/pictures/R_S_yt-i3-YlGenYmk_411.png	293.8608717918396	1.3541340827941895
129	260.0893449783325	response	0	j		127.0	/home/egter/Projects/stimuli/pictures/R_S_yt-i3-YlGenYmk_411.png	295.2054808139801	
130	260.0988700389862	picture	0		140.0	128.0	/home/egter/Projects/stimuli/pictures/R_S_ILSVRC2015_train_00551000.png	295.2150058746338	1.1666641235351562
130	261.25604796409607	response	0	k		128.0	/home/egter/Projects/stimuli/pictures/R_S_ILSVRC2015_train_00551000.png	296.37218379974365	
131	261.26553416252136	picture	0		94.0	129.0	/home/egter/Projects/stimuli/pictures/R_S_yt-HQQws1Lp_rQ_10.png	296.38166999816895	0.7849528789520264
131	262.03936314582825	response	0	j		129.0	/home/egter/Projects/stimuli/pictures/R_S_yt-HQQws1Lp_rQ_10.png	297.15549898147583	
132	262.0504870414734	picture	0		168.0	130.0	/home/egter/Projects/stimuli/pictures/R_S_yt-6mRpmfIvdew_1435.png	297.166622877121	1.402557134628296
132	263.43937516212463	response	0	j		130.0	/home/egter/Projects/stimuli/pictures/R_S_yt-6mRpmfIvdew_1435.png	298.5555109977722	
133	263.4530441761017	picture	0		224.0	131.0	/home/egter/Projects/stimuli/pictures/n02802426_23812.JPEG	298.56918001174927	1.8749349117279053
133	265.3075671195984	response	0	k		131.0	/home/egter/Projects/stimuli/pictures/n02802426_23812.JPEG	300.423702955246	
134	265.3279790878296	picture	0		244.0	132.0	/home/egter/Projects/stimuli/pictures/R_S_yt-HRuCkU_kBoE_239.png	300.4441149234772	2.041635036468506
134	267.35601902008057	response	0	j		132.0	/home/egter/Projects/stimuli/pictures/R_S_yt-HRuCkU_kBoE_239.png	302.47215485572815	
135	267.3696141242981	picture	0		123.0	133.0	/home/egter/Projects/stimuli/pictures/R_S_pexels-kelly-lacy-6756531.png	302.4857499599457	1.0278990268707275
135	268.3893070220947	response	0	j		133.0	/home/egter/Projects/stimuli/pictures/R_S_pexels-kelly-lacy-6756531.png	303.5054428577423	
136	268.3975131511688	picture	0		119.0	134.0	/home/egter/Projects/stimuli/pictures/S_comp_GL_G010_C006_PSNK_NOSUN_v12_SDR_PS_FINAL_20180709_SDR_2K_AVC.png	303.5136489868164	0.9929690361022949
136	269.38100600242615	response	0	j		134.0	/home/egter/Projects/stimuli/pictures/S_comp_GL_G010_C006_PSNK_NOSUN_v12_SDR_PS_FINAL_20180709_SDR_2K_AVC.png	304.49714183807373	
137	269.3904821872711	picture	0		143.0	135.0	/home/egter/Projects/stimuli/pictures/R_S_yt-_BvMLZo0MG0_1226.png	304.5066180229187	1.1944148540496826
137	270.5726971626282	response	0	j		135.0	/home/egter/Projects/stimuli/pictures/R_S_yt-_BvMLZo0MG0_1226.png	305.68883299827576	
138	270.5848970413208	picture	0		171.0	136.0	/home/egter/Projects/stimuli/pictures/R_S_ILSVRC2015_train_00415005.png	305.7010328769684	1.4235889911651611
138	271.99765706062317	response	0	j		136.0	/home/egter/Projects/stimuli/pictures/R_S_ILSVRC2015_train_00415005.png	307.11379289627075	
139	272.00848603248596	picture	0		116.0	137.0	/home/egter/Projects/stimuli/pictures/n01704323_3004.JPEG	307.12462186813354	0.9652841091156006
139	272.96433997154236	response	0	k		137.0	/home/egter/Projects/stimuli/pictures/n01704323_3004.JPEG	308.08047580718994	
140	272.97377014160156	picture	0		109.0	138.0	/home/egter/Projects/stimuli/pictures/n02490219_12145.JPEG	308.08990597724915	0.9097089767456055
140	273.872670173645	response	0	k		138.0	/home/egter/Projects/stimuli/pictures/n02490219_12145.JPEG	308.9888060092926	
141	273.88347911834717	picture	0		249.0	139.0	/home/egter/Projects/stimuli/pictures/n04371774_5887.JPEG	308.99961495399475	2.0763978958129883
141	275.9407751560211	response	0	k		139.0	/home/egter/Projects/stimuli/pictures/n04371774_5887.JPEG	311.0569109916687	
142	275.95987701416016	picture	0		786.0	140.0	/home/egter/Projects/stimuli/pictures/n01644373_7812.JPEG	311.07601284980774	6.548491954803467
142	282.4976170063019	response	0	j		140.0	/home/egter/Projects/stimuli/pictures/n01644373_7812.JPEG	317.61375284194946	
143	282.5083689689636	picture	0		140.0	141.0	/home/egter/Projects/stimuli/pictures/n02027492_4942.JPEG	317.6245048046112	1.16668701171875
143	283.66430616378784	response	0	k		141.0	/home/egter/Projects/stimuli/pictures/n02027492_4942.JPEG	318.7804419994354	
144	283.6750559806824	picture	0		381.0	142.0	/home/egter/Projects/stimuli/pictures/n02749479_4783.JPEG	318.79119181632996	3.1735711097717285
144	286.8392810821533	response	0	k		142.0	/home/egter/Projects/stimuli/pictures/n02749479_4783.JPEG	321.9554169178009	
145	286.8486270904541	picture	0		99.0	143.0	/home/egter/Projects/stimuli/pictures/S_yt-jUGt_Byqczw_599.png	321.9647629261017	0.8263819217681885
145	287.66422295570374	response	0	j		143.0	/home/egter/Projects/stimuli/pictures/S_yt-jUGt_Byqczw_599.png	322.7803587913513	
146	287.6750090122223	picture	0		116.0	144.0	/home/egter/Projects/stimuli/pictures/n02099267_5073.JPEG	322.7911448478699	0.9653029441833496
146	288.63093614578247	response	0	k		144.0	/home/egter/Projects/stimuli/pictures/n02099267_5073.JPEG	323.74707198143005	
147	288.64031195640564	picture	0		171.0	145.0	/home/egter/Projects/stimuli/pictures/n04252225_5024.JPEG	323.7564477920532	1.4237761497497559
147	290.05590295791626	response	0	k		145.0	/home/egter/Projects/stimuli/pictures/n04252225_5024.JPEG	325.17203879356384	
148	290.0640881061554	picture	0		107.0	146.0	/home/egter/Projects/stimuli/pictures/R_S_ILSVRC2015_train_00601000.png	325.180223941803	0.8955709934234619
148	290.94758796691895	response	0	j		146.0	/home/egter/Projects/stimuli/pictures/R_S_ILSVRC2015_train_00601000.png	326.0637238025665	
149	290.95965909957886	picture	0		231.0	147.0	/home/egter/Projects/stimuli/pictures/R_S_yt-7Fyu2vr7zbA_31.png	326.07579493522644	1.923609972000122
149	292.8726861476898	response	0	j		147.0	/home/egter/Projects/stimuli/pictures/R_S_yt-7Fyu2vr7zbA_31.png	327.9888219833374	
150	292.883269071579	picture	0		163.0	148.0	/home/egter/Projects/stimuli/pictures/S_yt-3ohvpS42xug_184.png	327.99940490722656	1.3611359596252441
150	294.23093605041504	response	0	j		148.0	/home/egter/Projects/stimuli/pictures/S_yt-3ohvpS42xug_184.png	329.3470718860626	
151	294.2444050312042	picture	0		138.0	149.0	/home/egter/Projects/stimuli/pictures/ILSVRC2012_test_00090401.JPEG	329.3605408668518	1.152994155883789
151	295.3892300128937	response	0	j		149.0	/home/egter/Projects/stimuli/pictures/ILSVRC2012_test_00090401.JPEG	330.50536584854126	
152	295.397399187088	picture	0		236.0	150.0	/home/egter/Projects/stimuli/pictures/n02687172_14814.JPEG	330.5135350227356	1.9719758033752441
152	297.34904408454895	response	0	k		150.0	/home/egter/Projects/stimuli/pictures/n02687172_14814.JPEG	332.46517992019653	
153	297.36937499046326	picture	0		192.0	151.0	/home/egter/Projects/stimuli/pictures/n04418357_9604.JPEG	332.48551082611084	1.7221591472625732
153	298.9641830921173	response	0	k		151.0	/home/egter/Projects/stimuli/pictures/n04418357_9604.JPEG	334.0803189277649	
154	299.09153413772583	picture	0		146.0	152.0	/home/egter/Projects/stimuli/pictures/S_yt-fQgLKiz2tuM_14.png	334.2076699733734	1.2225940227508545
154	300.29758310317993	response	0	j		152.0	/home/egter/Projects/stimuli/pictures/S_yt-fQgLKiz2tuM_14.png	335.4137189388275	
155	300.3141281604767	picture	0		250.0	153.0	/home/egter/Projects/stimuli/pictures/n03594945_13386.JPEG	335.43026399612427	2.0915799140930176
155	302.38923597335815	response	0	k		153.0	/home/egter/Projects/stimuli/pictures/n03594945_13386.JPEG	337.50537180900574	
156	302.4057080745697	picture	0		131.0	154.0	/home/egter/Projects/stimuli/pictures/n01945685_22020.JPEG	337.5218439102173	1.0955150127410889
156	303.4892101287842	response	0	k		154.0	/home/egter/Projects/stimuli/pictures/n01945685_22020.JPEG	338.60534596443176	
157	303.5012230873108	picture	0		148.0	155.0	/home/egter/Projects/stimuli/pictures/n01694178_8064.JPEG	338.6173589229584	1.2378618717193604
157	304.72252917289734	response	0	k		155.0	/home/egter/Projects/stimuli/pictures/n01694178_8064.JPEG	339.8386650085449	
158	304.73908495903015	picture	0		154.0	156.0	/home/egter/Projects/stimuli/pictures/R_S_comp_LA_A005_C009_PSNK_ALT_v09_SDR_PS_201809134_SDR_2K_AVC.png	339.85522079467773	1.2916500568389893
158	306.0141999721527	response	0	j		156.0	/home/egter/Projects/stimuli/pictures/R_S_comp_LA_A005_C009_PSNK_ALT_v09_SDR_PS_201809134_SDR_2K_AVC.png	341.1303358078003	
159	306.03073501586914	picture	0		91.0	157.0	/home/egter/Projects/stimuli/pictures/S_yt-LQrnLKP5tiQ_48.png	341.1468708515167	0.7691011428833008
159	306.78082299232483	response	0	j		157.0	/home/egter/Projects/stimuli/pictures/S_yt-LQrnLKP5tiQ_48.png	341.8969588279724	
160	306.79983615875244	picture	0		154.0	158.0	/home/egter/Projects/stimuli/pictures/S_yt-G65z8p1YNhw_16.png	341.9159719944	1.289233922958374
160	308.07254695892334	response	0	j		158.0	/home/egter/Projects/stimuli/pictures/S_yt-G65z8p1YNhw_16.png	343.1886827945709	
161	308.0890700817108	picture	0		179.0	159.0	/home/egter/Projects/stimuli/pictures/R_S_yt-JpOBXV46TLE_124.png	343.2052059173584	1.502410888671875
161	309.57249999046326	response	0	j		159.0	/home/egter/Projects/stimuli/pictures/R_S_yt-JpOBXV46TLE_124.png	344.68863582611084	
162	309.5914809703827	picture	0		1759.0	160.0	/home/egter/Projects/stimuli/pictures/ILSVRC2012_test_00096441.JPEG	344.7076168060303	14.659576177597046
162	324.2390651702881	response	0	k		160.0	/home/egter/Projects/stimuli/pictures/ILSVRC2012_test_00096441.JPEG	359.35520100593567	
163	324.25105714797974	picture	0		261.0	161.0	/home/egter/Projects/stimuli/pictures/S_yt-rNjnYLsk32k_1172.png	359.3671929836273	2.173624038696289
163	326.4141080379486	response	0	k		161.0	/home/egter/Projects/stimuli/pictures/S_yt-rNjnYLsk32k_1172.png	361.5302438735962	
164	326.424681186676	picture	0		138.0	162.0	/home/egter/Projects/stimuli/pictures/S_ILSVRC2015_train_00363000.png	361.5408170223236	1.1527509689331055
164	327.56408500671387	response	0	j		162.0	/home/egter/Projects/stimuli/pictures/S_ILSVRC2015_train_00363000.png	362.68022084236145	
165	327.57743215560913	picture	0		158.0	163.0	/home/egter/Projects/stimuli/pictures/S_yt-qBPDvSQD0XY_5.png	362.6935679912567	1.3281769752502441
165	328.8890781402588	response	0	j		163.0	/home/egter/Projects/stimuli/pictures/S_yt-qBPDvSQD0XY_5.png	364.0052139759064	
166	328.9056091308594	picture	0		148.0	164.0	/home/egter/Projects/stimuli/pictures/R_S_BO_A014_C023_SDR_20190717_F240F3709_SDR_2K_AVC.png	364.02174496650696	1.4167139530181885
166	330.13075017929077	response	0	j		164.0	/home/egter/Projects/stimuli/pictures/R_S_BO_A014_C023_SDR_20190717_F240F3709_SDR_2K_AVC.png	365.24688601493835	
167	330.32232308387756	picture	0		113.0	165.0	/home/egter/Projects/stimuli/pictures/R_S_yt-zhQ32_OayBQ_39.png	365.43845891952515	0.9500010013580322
167	331.25579714775085	response	0	j		165.0	/home/egter/Projects/stimuli/pictures/R_S_yt-zhQ32_OayBQ_39.png	366.37193298339844	
168	331.2723240852356	picture	0		176.0	166.0	/home/egter/Projects/stimuli/pictures/n03670208_1625.JPEG	366.3884599208832	1.4717049598693848
168	332.7307720184326	response	0	k		166.0	/home/egter/Projects/stimuli/pictures/n03670208_1625.JPEG	367.8469078540802	
169	332.744029045105	picture	0		105.0	167.0	/home/egter/Projects/stimuli/pictures/S_production_ID_4468823.png	367.86016488075256	0.8819401264190674
169	333.6140751838684	response	0	k		167.0	/home/egter/Projects/stimuli/pictures/S_production_ID_4468823.png	368.730211019516	
170	333.62596917152405	picture	0		122.0	168.0	/home/egter/Projects/stimuli/pictures/S_yt-he_RSdeVinA_68.png	368.74210500717163	1.0138709545135498
170	334.63074111938477	response	0	j		168.0	/home/egter/Projects/stimuli/pictures/S_yt-he_RSdeVinA_68.png	369.74687695503235	
171	334.6398401260376	picture	0		252.0	169.0	/home/egter/Projects/stimuli/pictures/S_yt-XRQ_LSGGr3Y_712.png	369.7559759616852	2.104174852371216
171	336.7307221889496	response	0	k		169.0	/home/egter/Projects/stimuli/pictures/S_yt-XRQ_LSGGr3Y_712.png	371.84685802459717	
172	336.7440149784088	picture	0		160.0	170.0	/home/egter/Projects/stimuli/pictures/S_yt-qX2KH8RLnKs_50.png	371.8601508140564	1.3403351306915283
172	338.07238507270813	response	0	k		170.0	/home/egter/Projects/stimuli/pictures/S_yt-qX2KH8RLnKs_50.png	373.1885209083557	
173	338.08435010910034	picture	0		124.0	171.0	/home/egter/Projects/stimuli/pictures/n02111277_3754.JPEG	373.2004859447479	1.0346450805664062
173	339.10567712783813	response	0	k		171.0	/home/egter/Projects/stimuli/pictures/n02111277_3754.JPEG	374.2218129634857	
174	339.11899518966675	picture	0		113.0	172.0	/home/egter/Projects/stimuli/pictures/R_S_yt-7VVzNnp36DM_62.png	374.23513102531433	0.93747878074646
174	340.047394990921	response	0	j		172.0	/home/egter/Projects/stimuli/pictures/R_S_yt-7VVzNnp36DM_62.png	375.1635308265686	
175	340.0564739704132	picture	0		102.0	173.0	/home/egter/Projects/stimuli/pictures/R_S_ILSVRC2015_train_00405001.png	375.1726098060608	0.85418701171875
175	340.89741611480713	response	0	j		173.0	/home/egter/Projects/stimuli/pictures/R_S_ILSVRC2015_train_00405001.png	376.0135519504547	
176	340.91066098213196	picture	0		136.0	174.0	/home/egter/Projects/stimuli/pictures/S_yt-KpOAdMtPGFs_17.png	376.02679681777954	1.138857126235962
176	342.0390250682831	response	0	j		174.0	/home/egter/Projects/stimuli/pictures/S_yt-KpOAdMtPGFs_17.png	377.15516090393066	
177	342.0495181083679	picture	0		307.0	175.0	/home/egter/Projects/stimuli/pictures/S_yt-lkpfs_4qAGE_50.png	377.1656539440155	2.555961847305298
177	344.5974111557007	response	0	j		175.0	/home/egter/Projects/stimuli/pictures/S_yt-lkpfs_4qAGE_50.png	379.71354699134827	
178	344.6054799556732	picture	0		104.0	176.0	/home/egter/Projects/stimuli/pictures/R_S_yt-2cwARrUMj40_67.png	379.7216157913208	0.8676161766052246
178	345.46405506134033	response	0	j		176.0	/home/egter/Projects/stimuli/pictures/R_S_yt-2cwARrUMj40_67.png	380.5801908969879	
179	345.47309613227844	picture	0		140.0	177.0	/home/egter/Projects/stimuli/pictures/R_S_yt-fymgyhmYnMI_76.png	380.589231967926	1.1666078567504883
179	346.63071513175964	response	0	j		177.0	/home/egter/Projects/stimuli/pictures/R_S_yt-fymgyhmYnMI_76.png	381.7468509674072	
180	346.63970398902893	picture	0		224.0	178.0	/home/egter/Projects/stimuli/pictures/n07717410_11636.JPEG	381.7558398246765	1.868067979812622
180	348.49729895591736	response	0	j		178.0	/home/egter/Projects/stimuli/pictures/n07717410_11636.JPEG	383.61343479156494	
181	348.50777196884155	picture	0		86.0	179.0	/home/egter/Projects/stimuli/pictures/S_yt-q9kT_c9QjbQ_34.png	383.62390780448914	0.715278148651123
181	349.2140431404114	response	0	j		179.0	/home/egter/Projects/stimuli/pictures/S_yt-q9kT_c9QjbQ_34.png	384.33017897605896	
182	349.2230501174927	stim	0		683.0			384.33918595314026	5.699173927307129
182	354.9055850505829	response	0	space				390.02172088623047	
