trial_nr	onset	event_type	phase	response	nr_frames	picture_index	picture_file	onset_abs	duration
0	0.015531063079833984	stim	0		1068.0			23.717651844024658	8.906063079833984
0	8.905174016952515	response	0	space				32.60729479789734	
2	8.921594142913818	picture	0		451.0	0.0	/home/egter/Projects/stimuli/pictures/S_yt-fymgyhmYnMI_557.png	32.62371492385864	3.7616689205169678
2	12.671679019927979	response	0	j		0.0	/home/egter/Projects/stimuli/pictures/S_yt-fymgyhmYnMI_557.png	36.3737998008728	
3	12.683263063430786	picture	0		974.0	1.0	/home/egter/Projects/stimuli/pictures/S_yt-Dj42sI_Z-kQ_38.png	36.38538384437561	8.118106126785278
3	20.788295030593872	response	0	j		1.0	/home/egter/Projects/stimuli/pictures/S_yt-Dj42sI_Z-kQ_38.png	44.490415811538696	
4	20.801369190216064	picture	0		94.0	2.0	/home/egter/Projects/stimuli/pictures/R_S_yt-RMjo2PPEPEA_112.png	44.50348997116089	0.791571855545044
4	21.57997703552246	response	0	j		2.0	/home/egter/Projects/stimuli/pictures/R_S_yt-RMjo2PPEPEA_112.png	45.282097816467285	
5	21.59294104576111	picture	0		116.0	3.0	/home/egter/Projects/stimuli/pictures/R_S_pexels-mart-production-7698911_1.png	45.29506182670593	0.9721641540527344
5	22.555222034454346	response	0	j		3.0	/home/egter/Projects/stimuli/pictures/R_S_pexels-mart-production-7698911_1.png	46.25734281539917	
6	22.565105199813843	picture	0		84.0	4.0	/home/egter/Projects/stimuli/pictures/R_S_production_ID_3735542.png	46.26722598075867	0.7014198303222656
6	23.254963159561157	response	0	j		4.0	/home/egter/Projects/stimuli/pictures/R_S_production_ID_3735542.png	46.95708394050598	
7	23.26652503013611	picture	0		86.0	5.0	/home/egter/Projects/stimuli/pictures/S_yt-Tt_LkR4iAt4_11.png	46.96864581108093	0.7152321338653564
7	23.97157311439514	response	0	j		5.0	/home/egter/Projects/stimuli/pictures/S_yt-Tt_LkR4iAt4_11.png	47.673693895339966	
8	23.981757164001465	picture	0		145.0	6.0	/home/egter/Projects/stimuli/pictures/S_yt-KQq7vTlXUiQ_173.png	47.68387794494629	1.2083208560943604
8	25.179858207702637	response	0	k		6.0	/home/egter/Projects/stimuli/pictures/S_yt-KQq7vTlXUiQ_173.png	48.88197898864746	
9	25.190078020095825	picture	0		105.0	7.0	/home/egter/Projects/stimuli/pictures/R_S_yt-PYHK810V_n8_1375.png	48.89219880104065	0.8750040531158447
9	26.05489206314087	response	0	k		7.0	/home/egter/Projects/stimuli/pictures/R_S_yt-PYHK810V_n8_1375.png	49.75701284408569	
10	26.06508207321167	picture	0		108.0	8.0	/home/egter/Projects/stimuli/pictures/n01677366_23706.JPEG	49.767202854156494	0.9027650356292725
10	26.95494318008423	response	0	k		8.0	/home/egter/Projects/stimuli/pictures/n01677366_23706.JPEG	50.65706396102905	
11	26.967847108840942	picture	0		63.0	9.0	/home/egter/Projects/stimuli/pictures/n04041544_24352.JPEG	50.66996788978577	0.5286509990692139
11	27.48877501487732	response	0	k		9.0	/home/egter/Projects/stimuli/pictures/n04041544_24352.JPEG	51.190895795822144	
12	27.496498107910156	picture	0		93.0	10.0	/home/egter/Projects/stimuli/pictures/S_yt-1_xoCNmTn3Y_1.png	51.19861888885498	0.776871919631958
12	28.26327109336853	response	0	j		10.0	/home/egter/Projects/stimuli/pictures/S_yt-1_xoCNmTn3Y_1.png	51.965391874313354	
13	28.273370027542114	picture	0		100.0	11.0	/home/egter/Projects/stimuli/pictures/n01795545_14217.JPEG	51.97549080848694	0.8333160877227783
13	29.096641063690186	response	0	k		11.0	/home/egter/Projects/stimuli/pictures/n01795545_14217.JPEG	52.79876184463501	
14	29.106686115264893	picture	0		289.0	12.0	/home/egter/Projects/stimuli/pictures/n02487347_1261.JPEG	52.80880689620972	2.414918899536133
14	31.504873991012573	response	0	k		12.0	/home/egter/Projects/stimuli/pictures/n02487347_1261.JPEG	55.2069947719574	
15	31.521605014801025	picture	0		105.0	13.0	/home/egter/Projects/stimuli/pictures/n02114712_9554.JPEG	55.22372579574585	0.8767261505126953
15	32.38824510574341	response	0	k		13.0	/home/egter/Projects/stimuli/pictures/n02114712_9554.JPEG	56.09036588668823	
16	32.39833116531372	picture	0		93.0	14.0	/home/egter/Projects/stimuli/pictures/n02268853_582.JPEG	56.100451946258545	0.7777888774871826
16	33.16325616836548	response	0	k		14.0	/home/egter/Projects/stimuli/pictures/n02268853_582.JPEG	56.8653769493103	
17	33.1761200428009	picture	0		90.0	15.0	/home/egter/Projects/stimuli/pictures/n03895866_38388.JPEG	56.87824082374573	0.7500700950622559
17	33.9068820476532	response	0	k		15.0	/home/egter/Projects/stimuli/pictures/n03895866_38388.JPEG	57.60900282859802	
18	33.92619013786316	picture	0		81.0	16.0	/home/egter/Projects/stimuli/pictures/n01930112_1639.JPEG	57.62831091880798	0.6734979152679443
18	34.588234186172485	response	0	k		16.0	/home/egter/Projects/stimuli/pictures/n01930112_1639.JPEG	58.29035496711731	
19	34.5996880531311	picture	0		111.0	17.0	/home/egter/Projects/stimuli/pictures/n07717410_11636.JPEG	58.30180883407593	0.9236481189727783
19	35.50643801689148	response	0	k		17.0	/home/egter/Projects/stimuli/pictures/n07717410_11636.JPEG	59.208558797836304	
20	35.52333617210388	picture	0		445.0	18.0	/home/egter/Projects/stimuli/pictures/S_ILSVRC2015_train_00415004.png	59.225456953048706	3.731472969055176
20	39.22166419029236	response	0	k		18.0	/home/egter/Projects/stimuli/pictures/S_ILSVRC2015_train_00415004.png	62.92378497123718	
21	39.25480914115906	picture	0		92.0	19.0	/home/egter/Projects/stimuli/pictures/S_yt-kxWtOXNIsRA_329.png	62.95692992210388	0.7684788703918457
21	40.01320219039917	response	0	j		19.0	/home/egter/Projects/stimuli/pictures/S_yt-kxWtOXNIsRA_329.png	63.715322971343994	
22	40.0232880115509	picture	0		705.0	20.0	/home/egter/Projects/stimuli/pictures/n02106382_2012.JPEG	63.72540879249573	5.874937057495117
22	45.888203144073486	response	0	k		20.0	/home/egter/Projects/stimuli/pictures/n02106382_2012.JPEG	69.59032392501831	
23	45.89822506904602	picture	0		122.0	21.0	/home/egter/Projects/stimuli/pictures/S_bing-vimeo_com_161378598_22.png	69.60034584999084	1.0236239433288574
23	46.905328035354614	response	0	j		21.0	/home/egter/Projects/stimuli/pictures/S_bing-vimeo_com_161378598_22.png	70.60744881629944	
24	46.92184901237488	picture	0		87.0	22.0	/home/egter/Projects/stimuli/pictures/S_yt-VQtbKGzI9SE_431.png	70.6239697933197	0.7263782024383545
24	47.63818311691284	response	0	j		22.0	/home/egter/Projects/stimuli/pictures/S_yt-VQtbKGzI9SE_431.png	71.34030389785767	
25	47.64822721481323	picture	0		107.0	23.0	/home/egter/Projects/stimuli/pictures/R_S_ILSVRC2015_train_00565000.png	71.35034799575806	0.8981809616088867
25	48.530325174331665	response	0	j		23.0	/home/egter/Projects/stimuli/pictures/R_S_ILSVRC2015_train_00565000.png	72.23244595527649	
26	48.54640817642212	picture	0		140.0	24.0	/home/egter/Projects/stimuli/pictures/R_S_yt-xqjVM0Vj4mI_161.png	72.24852895736694	1.1712989807128906
26	49.698501110076904	response	0	j		24.0	/home/egter/Projects/stimuli/pictures/R_S_yt-xqjVM0Vj4mI_161.png	73.40062189102173	
27	49.71770715713501	picture	0		125.0	25.0	/home/egter/Projects/stimuli/pictures/S_yt-fA0nOetbOJY_580.png	73.41982793807983	1.041611909866333
27	50.74649906158447	response	0	j		25.0	/home/egter/Projects/stimuli/pictures/S_yt-fA0nOetbOJY_580.png	74.4486198425293	
28	50.75931906700134	picture	0		86.0	26.0	/home/egter/Projects/stimuli/pictures/n01990800_4494.JPEG	74.46143984794617	0.7222981452941895
28	51.47149205207825	response	0	k		26.0	/home/egter/Projects/stimuli/pictures/n01990800_4494.JPEG	75.17361283302307	
29	51.48161721229553	picture	0		119.0	27.0	/home/egter/Projects/stimuli/pictures/S_yt-qBPDvSQD0XY_5.png	75.18373799324036	0.9928967952728271
29	52.4632031917572	response	0	j		27.0	/home/egter/Projects/stimuli/pictures/S_yt-qBPDvSQD0XY_5.png	76.16532397270203	
30	52.47451400756836	picture	0		87.0	28.0	/home/egter/Projects/stimuli/pictures/S_yt-xqjVM0Vj4mI_161.png	76.17663478851318	0.7222781181335449
30	53.188178062438965	response	0	j		28.0	/home/egter/Projects/stimuli/pictures/S_yt-xqjVM0Vj4mI_161.png	76.89029884338379	
31	53.196792125701904	picture	0		546.0	29.0	/home/egter/Projects/stimuli/pictures/n13037406_5057.JPEG	76.89891290664673	4.55562686920166
31	57.73131203651428	response	0	k		29.0	/home/egter/Projects/stimuli/pictures/n13037406_5057.JPEG	81.4334328174591	
32	57.752418994903564	picture	0		154.0	30.0	/home/egter/Projects/stimuli/pictures/R_S_yt-1H8sfkZGZK8_3.png	81.45453977584839	1.2917661666870117
32	59.030264139175415	response	0	k		30.0	/home/egter/Projects/stimuli/pictures/R_S_yt-1H8sfkZGZK8_3.png	82.73238492012024	
33	59.044185161590576	picture	0		83.0	31.0	/home/egter/Projects/stimuli/pictures/n01978455_12022.JPEG	82.7463059425354	0.6942028999328613
33	59.72296404838562	response	0	k		31.0	/home/egter/Projects/stimuli/pictures/n01978455_12022.JPEG	83.42508482933044	
34	59.73838806152344	picture	0		89.0	32.0	/home/egter/Projects/stimuli/pictures/n04335435_18507.JPEG	83.44050884246826	0.7430441379547119
34	60.47145700454712	response	0	k		32.0	/home/egter/Projects/stimuli/pictures/n04335435_18507.JPEG	84.17357778549194	
35	60.48143219947815	picture	0		118.0	33.0	/home/egter/Projects/stimuli/pictures/S_yt-PQYnj2BR17I_16.png	84.18355298042297	0.9861350059509277
35	61.454817056655884	response	0	k		33.0	/home/egter/Projects/stimuli/pictures/S_yt-PQYnj2BR17I_16.png	85.15693783760071	
36	61.46756720542908	picture	0		98.0	34.0	/home/egter/Projects/stimuli/pictures/R_S_yt-YEiNSML5iiQ_18.png	85.1696879863739	0.8124639987945557
36	62.27149200439453	response	0	k		34.0	/home/egter/Projects/stimuli/pictures/R_S_yt-YEiNSML5iiQ_18.png	85.97361278533936	
37	62.28003120422363	picture	0		69.0	35.0	/home/egter/Projects/stimuli/pictures/n13044778_3419.JPEG	85.98215198516846	0.5763850212097168
37	62.84643220901489	response	0	k		35.0	/home/egter/Projects/stimuli/pictures/n13044778_3419.JPEG	86.54855298995972	
38	62.85641622543335	picture	0		82.0	36.0	/home/egter/Projects/stimuli/pictures/R_S_yt-iKe-0YNR5Eo_164.png	86.55853700637817	0.6816139221191406
38	63.52292203903198	response	0	k		36.0	/home/egter/Projects/stimuli/pictures/R_S_yt-iKe-0YNR5Eo_164.png	87.2250428199768	
39	63.53803014755249	picture	0		90.0	37.0	/home/egter/Projects/stimuli/pictures/R_S_yt-MEfljVFL0xw_375.png	87.24015092849731	0.756289005279541
39	64.28014421463013	response	0	j		37.0	/home/egter/Projects/stimuli/pictures/R_S_yt-MEfljVFL0xw_375.png	87.98226499557495	
40	64.29431915283203	picture	0		183.0	38.0	/home/egter/Projects/stimuli/pictures/n04141327_8918.JPEG	87.99643993377686	1.5273540019989014
40	65.8130431175232	response	0	k		38.0	/home/egter/Projects/stimuli/pictures/n04141327_8918.JPEG	89.51516389846802	
41	65.82167315483093	picture	0		97.0	39.0	/home/egter/Projects/stimuli/pictures/R_S_yt-fA0nOetbOJY_580.png	89.52379393577576	0.812492847442627
41	66.62139320373535	response	0	j		39.0	/home/egter/Projects/stimuli/pictures/R_S_yt-fA0nOetbOJY_580.png	90.32351398468018	
42	66.63416600227356	picture	0		125.0	40.0	/home/egter/Projects/stimuli/pictures/S_ILSVRC2015_test_00001002.png	90.33628678321838	1.0416831970214844
42	67.66313409805298	response	0	j		40.0	/home/egter/Projects/stimuli/pictures/S_ILSVRC2015_test_00001002.png	91.3652548789978	
43	67.67584919929504	picture	0		79.0	41.0	/home/egter/Projects/stimuli/pictures/S_flickr-hapanine-31880782705_22.png	91.37796998023987	0.6597228050231934
43	68.32178807258606	response	0	j		41.0	/home/egter/Projects/stimuli/pictures/S_flickr-hapanine-31880782705_22.png	92.02390885353088	
44	68.33557200431824	picture	0		117.0	42.0	/home/egter/Projects/stimuli/pictures/n03598930_3498.JPEG	92.03769278526306	0.9791312217712402
44	69.30476307868958	response	0	k		42.0	/home/egter/Projects/stimuli/pictures/n03598930_3498.JPEG	93.0068838596344	
45	69.31470322608948	picture	0		70.0	43.0	/home/egter/Projects/stimuli/pictures/n04532670_3310.JPEG	93.0168240070343	0.5832939147949219
45	69.88810300827026	response	0	k		43.0	/home/egter/Projects/stimuli/pictures/n04532670_3310.JPEG	93.59022378921509	
46	69.8979971408844	picture	0		115.0	44.0	/home/egter/Projects/stimuli/pictures/S_ILSVRC2015_train_00044004.png	93.60011792182922	0.9583480358123779
46	70.84639620780945	response	0	j		44.0	/home/egter/Projects/stimuli/pictures/S_ILSVRC2015_train_00044004.png	94.54851698875427	
47	70.85634517669678	picture	0		164.0	45.0	/home/egter/Projects/stimuli/pictures/n01728920_7310.JPEG	94.5584659576416	1.3680129051208496
47	72.21306204795837	response	0	k		45.0	/home/egter/Projects/stimuli/pictures/n01728920_7310.JPEG	95.9151828289032	
48	72.22435808181763	picture	0		328.0	46.0	/home/egter/Projects/stimuli/pictures/n02087394_6010.JPEG	95.92647886276245	2.7360780239105225
48	74.93960404396057	response	0	k		46.0	/home/egter/Projects/stimuli/pictures/n02087394_6010.JPEG	98.6417248249054	
49	74.96043610572815	picture	0		84.0	47.0	/home/egter/Projects/stimuli/pictures/n02966687_1449.JPEG	98.66255688667297	0.7083740234375
49	75.65497207641602	response	0	k		47.0	/home/egter/Projects/stimuli/pictures/n02966687_1449.JPEG	99.35709285736084	
50	75.66881012916565	picture	0		107.0	48.0	/home/egter/Projects/stimuli/pictures/S_yt-fTlJIM1TtOw_28.png	99.37093091011047	0.8957939147949219
50	76.54800200462341	response	0	k		48.0	/home/egter/Projects/stimuli/pictures/S_yt-fTlJIM1TtOw_28.png	100.25012278556824	
51	76.56460404396057	picture	0		147.0	49.0	/home/egter/Projects/stimuli/pictures/S_ILSVRC2015_train_00536000.png	100.2667248249054	1.2293040752410889
51	77.77998900413513	response	0	k		49.0	/home/egter/Projects/stimuli/pictures/S_ILSVRC2015_train_00536000.png	101.48210978507996	
52	77.79390811920166	picture	0		73.0	50.0	/home/egter/Projects/stimuli/pictures/n02116738_10530.JPEG	101.49602890014648	0.6108920574188232
52	78.39640522003174	response	0	k		50.0	/home/egter/Projects/stimuli/pictures/n02116738_10530.JPEG	102.09852600097656	
53	78.40480017662048	picture	0		50.0	51.0	/home/egter/Projects/stimuli/pictures/S_video_inspire_texas_pecos_foggy-landscape_00018.png	102.10692095756531	0.4166989326477051
53	78.81306910514832	response	0	k		51.0	/home/egter/Projects/stimuli/pictures/S_video_inspire_texas_pecos_foggy-landscape_00018.png	102.51518988609314	
54	78.82149910926819	picture	0		109.0	52.0	/home/egter/Projects/stimuli/pictures/R_S_yt-1_xoCNmTn3Y_1.png	102.52361989021301	0.909743070602417
54	79.72146916389465	response	0	j		52.0	/home/egter/Projects/stimuli/pictures/R_S_yt-1_xoCNmTn3Y_1.png	103.42358994483948	
55	79.7312421798706	picture	0		94.0	53.0	/home/egter/Projects/stimuli/pictures/S_yt-_F8eDDKtvJ0_82.png	103.43336296081543	0.7848479747772217
55	80.5047070980072	response	0	k		53.0	/home/egter/Projects/stimuli/pictures/S_yt-_F8eDDKtvJ0_82.png	104.20682787895203	
56	80.51609015464783	picture	0		86.0	54.0	/home/egter/Projects/stimuli/pictures/n02687172_40216.JPEG	104.21821093559265	0.7151010036468506
56	81.22139811515808	response	0	k		54.0	/home/egter/Projects/stimuli/pictures/n02687172_40216.JPEG	104.9235188961029	
57	81.23119115829468	picture	0		151.0	55.0	/home/egter/Projects/stimuli/pictures/n03661043_8671.JPEG	104.9333119392395	1.2570488452911377
57	82.47973918914795	response	0	k		55.0	/home/egter/Projects/stimuli/pictures/n03661043_8671.JPEG	106.18185997009277	
58	82.48824000358582	picture	0		90.0	56.0	/home/egter/Projects/stimuli/pictures/n03527444_4185.JPEG	106.19036078453064	0.7498571872711182
58	83.22970604896545	response	0	k		56.0	/home/egter/Projects/stimuli/pictures/n03527444_4185.JPEG	106.93182682991028	
59	83.23809719085693	picture	0		82.0	57.0	/home/egter/Projects/stimuli/pictures/n01914609_2978.JPEG	106.94021797180176	0.6875848770141602
59	83.91299414634705	response	0	k		57.0	/home/egter/Projects/stimuli/pictures/n01914609_2978.JPEG	107.61511492729187	
60	83.9256820678711	picture	0		83.0	58.0	/home/egter/Projects/stimuli/pictures/n03777568_12200.JPEG	107.62780284881592	0.6874179840087891
60	84.60469698905945	response	0	k		58.0	/home/egter/Projects/stimuli/pictures/n03777568_12200.JPEG	108.30681777000427	
61	84.61310005187988	picture	0		118.0	59.0	/home/egter/Projects/stimuli/pictures/R_S_pexels-c-technical-6754008.png	108.3152208328247	0.986138105392456
61	85.58806610107422	response	0	j		59.0	/home/egter/Projects/stimuli/pictures/R_S_pexels-c-technical-6754008.png	109.29018688201904	
62	85.59923815727234	picture	0		143.0	60.0	/home/egter/Projects/stimuli/pictures/R_S_yt-kKRGgUhVRzc_74.png	109.30135893821716	1.1946220397949219
62	86.77985215187073	response	0	j		60.0	/home/egter/Projects/stimuli/pictures/R_S_yt-kKRGgUhVRzc_74.png	110.48197293281555	
63	86.79386019706726	picture	0		105.0	61.0	/home/egter/Projects/stimuli/pictures/n02099601_7692.JPEG	110.49598097801208	0.8817598819732666
63	87.6629810333252	response	0	k		61.0	/home/egter/Projects/stimuli/pictures/n02099601_7692.JPEG	111.36510181427002	
64	87.67562007904053	picture	0		96.0	62.0	/home/egter/Projects/stimuli/pictures/R_S_yt-BW6jWEVbxxk_4.png	111.37774085998535	0.798591136932373
64	88.4630081653595	response	0	j		62.0	/home/egter/Projects/stimuli/pictures/R_S_yt-BW6jWEVbxxk_4.png	112.16512894630432	
65	88.4742112159729	picture	0		144.0	63.0	/home/egter/Projects/stimuli/pictures/n02489166_12291.JPEG	112.17633199691772	1.2014148235321045
65	89.66302418708801	response	0	k		63.0	/home/egter/Projects/stimuli/pictures/n02489166_12291.JPEG	113.36514496803284	
66	89.675626039505	picture	0		86.0	64.0	/home/egter/Projects/stimuli/pictures/n01981276_16172.JPEG	113.37774682044983	0.7151889801025391
66	90.37964105606079	response	0	k		64.0	/home/egter/Projects/stimuli/pictures/n01981276_16172.JPEG	114.08176183700562	
67	90.39081501960754	picture	0		164.0	65.0	/home/egter/Projects/stimuli/pictures/S_yt-mRvsz7x-q9g_90.png	114.09293580055237	1.3720970153808594
67	91.73966312408447	response	0	j		65.0	/home/egter/Projects/stimuli/pictures/S_yt-mRvsz7x-q9g_90.png	115.4417839050293	
68	91.7629120349884	picture	0		96.0	66.0	/home/egter/Projects/stimuli/pictures/R_S_ILSVRC2015_train_00538001.png	115.46503281593323	0.8015320301055908
68	92.54786705970764	response	0	j		66.0	/home/egter/Projects/stimuli/pictures/R_S_ILSVRC2015_train_00538001.png	116.24998784065247	
69	92.564444065094	picture	0		92.0	67.0	/home/egter/Projects/stimuli/pictures/ILSVRC2012_test_00031052.JPEG	116.26656484603882	0.7708981037139893
69	93.32148599624634	response	0	k		67.0	/home/egter/Projects/stimuli/pictures/ILSVRC2012_test_00031052.JPEG	117.02360677719116	
70	93.33534216880798	picture	0		80.0	68.0	/home/egter/Projects/stimuli/pictures/n03482405_6169.JPEG	117.03746294975281	0.6737680435180664
70	93.99632811546326	response	0	k		68.0	/home/egter/Projects/stimuli/pictures/n03482405_6169.JPEG	117.69844889640808	
71	94.00911021232605	picture	0		129.0	69.0	/home/egter/Projects/stimuli/pictures/S_yt-fEIplXEqgCc_14.png	117.71123099327087	1.0762438774108887
71	95.07144212722778	response	0	k		69.0	/home/egter/Projects/stimuli/pictures/S_yt-fEIplXEqgCc_14.png	118.77356290817261	
72	95.08535408973694	picture	0		72.0	70.0	/home/egter/Projects/stimuli/pictures/R_S_ILSVRC2015_train_00652001.png	118.78747487068176	0.6040310859680176
72	95.67964720726013	response	0	k		70.0	/home/egter/Projects/stimuli/pictures/R_S_ILSVRC2015_train_00652001.png	119.38176798820496	
73	95.68938517570496	picture	0		128.0	71.0	/home/egter/Projects/stimuli/pictures/S_ILSVRC2015_train_00652001.png	119.39150595664978	1.069511890411377
73	96.73961114883423	response	0	j		71.0	/home/egter/Projects/stimuli/pictures/S_ILSVRC2015_train_00652001.png	120.44173192977905	
74	96.75889706611633	picture	0		264.0	72.0	/home/egter/Projects/stimuli/pictures/R_S_b3TCugtX0h0_108.png	120.46101784706116	2.208249092102051
74	98.94794201850891	response	0	j		72.0	/home/egter/Projects/stimuli/pictures/R_S_b3TCugtX0h0_108.png	122.65006279945374	
75	98.96714615821838	picture	0		89.0	73.0	/home/egter/Projects/stimuli/pictures/n02066245_10848.JPEG	122.66926693916321	0.7432999610900879
75	99.69655799865723	response	0	k		73.0	/home/egter/Projects/stimuli/pictures/n02066245_10848.JPEG	123.39867877960205	
76	99.71044611930847	picture	0		94.0	74.0	/home/egter/Projects/stimuli/pictures/R_S_yt-pbFpqAQJCJo_149.png	123.4125669002533	0.7914988994598389
76	100.4880599975586	response	0	j		74.0	/home/egter/Projects/stimuli/pictures/R_S_yt-pbFpqAQJCJo_149.png	124.19018077850342	
77	100.50194501876831	picture	0		72.0	75.0	/home/egter/Projects/stimuli/pictures/n01629819_3106.JPEG	124.20406579971313	0.6041240692138672
77	101.0962700843811	response	0	k		75.0	/home/egter/Projects/stimuli/pictures/n01629819_3106.JPEG	124.79839086532593	
78	101.10606908798218	picture	0		108.0	76.0	/home/egter/Projects/stimuli/pictures/n02835271_1055.JPEG	124.808189868927	0.9028310775756836
78	101.9963150024414	response	0	k		76.0	/home/egter/Projects/stimuli/pictures/n02835271_1055.JPEG	125.69843578338623	
79	102.00890016555786	picture	0		123.0	77.0	/home/egter/Projects/stimuli/pictures/R_S_ILSVRC2015_train_00044004.png	125.71102094650269	1.0372729301452637
79	103.0212721824646	response	0	j		77.0	/home/egter/Projects/stimuli/pictures/R_S_ILSVRC2015_train_00044004.png	126.72339296340942	
80	103.04617309570312	picture	0		122.0	78.0	/home/egter/Projects/stimuli/pictures/S_yt-roThCERxVCs_133.png	126.74829387664795	1.0181300640106201
80	104.05464220046997	response	0	j		78.0	/home/egter/Projects/stimuli/pictures/S_yt-roThCERxVCs_133.png	127.7567629814148	
81	104.06430315971375	picture	0		802.0	79.0	/home/egter/Projects/stimuli/pictures/ILSVRC2012_val_00038396.JPEG	127.76642394065857	6.687528848648071
81	110.73800110816956	response	0	k		79.0	/home/egter/Projects/stimuli/pictures/ILSVRC2012_val_00038396.JPEG	134.44012188911438	
82	110.75183200836182	picture	0		509.0	80.0	/home/egter/Projects/stimuli/pictures/n02655020_9351.JPEG	134.45395278930664	4.250010013580322
82	114.98809909820557	response	0	k		80.0	/home/egter/Projects/stimuli/pictures/n02655020_9351.JPEG	138.6902198791504	
83	115.00184202194214	picture	0		128.0	81.0	/home/egter/Projects/stimuli/pictures/R_S_yt-83nimFMNhrM_131.png	138.70396280288696	1.0693039894104004
83	116.06287503242493	response	0	j		81.0	/home/egter/Projects/stimuli/pictures/R_S_yt-83nimFMNhrM_131.png	139.76499581336975	
84	116.07114601135254	picture	0		299.0	82.0	/home/egter/Projects/stimuli/pictures/n03670208_1506.JPEG	139.77326679229736	2.493054151535034
84	118.54773020744324	response	0	k		82.0	/home/egter/Projects/stimuli/pictures/n03670208_1506.JPEG	142.24985098838806	
85	118.56420016288757	picture	0		561.0	83.0	/home/egter/Projects/stimuli/pictures/S_yt-Ryb0K9lGPrg_5.png	142.2663209438324	4.6735968589782715
85	123.2294750213623	response	0	k		83.0	/home/egter/Projects/stimuli/pictures/S_yt-Ryb0K9lGPrg_5.png	146.93159580230713	
86	123.23779702186584	picture	0		166.0	84.0	/home/egter/Projects/stimuli/pictures/ILSVRC2012_test_00080382.JPEG	146.93991780281067	1.3891031742095947
86	124.61283206939697	response	0	k		84.0	/home/egter/Projects/stimuli/pictures/ILSVRC2012_test_00080382.JPEG	148.3149528503418	
87	124.62690019607544	picture	0		104.0	85.0	/home/egter/Projects/stimuli/pictures/S_production_ID_3735542.png	148.32902097702026	0.8750278949737549
87	125.48786211013794	response	0	j		85.0	/home/egter/Projects/stimuli/pictures/S_production_ID_3735542.png	149.18998289108276	
88	125.5019280910492	picture	0		171.0	86.0	/home/egter/Projects/stimuli/pictures/S_yt-YEiNSML5iiQ_18.png	149.20404887199402	1.4302380084991455
88	126.92118406295776	response	0	j		86.0	/home/egter/Projects/stimuli/pictures/S_yt-YEiNSML5iiQ_18.png	150.6233048439026	
89	126.93216609954834	picture	0		240.0	87.0	/home/egter/Projects/stimuli/pictures/S_comp_N008_C003_PS_v01_SDR_PS_20180925_SDR_2K_AVC.png	150.63428688049316	1.9999959468841553
89	128.92119312286377	response	0	j		87.0	/home/egter/Projects/stimuli/pictures/S_comp_N008_C003_PS_v01_SDR_PS_20180925_SDR_2K_AVC.png	152.6233139038086	
90	128.9321620464325	picture	0		96.0	88.0	/home/egter/Projects/stimuli/pictures/S_yt-urJgH6tpfkU_204.png	152.63428282737732	0.7986199855804443
90	129.72114300727844	response	0	j		88.0	/home/egter/Projects/stimuli/pictures/S_yt-urJgH6tpfkU_204.png	153.42326378822327	
91	129.73078203201294	picture	0		101.0	89.0	/home/egter/Projects/stimuli/pictures/S_yt-6DJulOrg2-8_122.png	153.43290281295776	0.8402609825134277
91	130.55599117279053	response	0	k		89.0	/home/egter/Projects/stimuli/pictures/S_yt-6DJulOrg2-8_122.png	154.25811195373535	
92	130.57104301452637	picture	0		75.0	90.0	/home/egter/Projects/stimuli/pictures/S_b3TCugtX0h0_108.png	154.2731637954712	0.6249899864196777
92	131.18779516220093	response	0	j		90.0	/home/egter/Projects/stimuli/pictures/S_b3TCugtX0h0_108.png	154.88991594314575	
93	131.19603300094604	picture	0		76.0	91.0	/home/egter/Projects/stimuli/pictures/S_yt-XpM1Jtwlvvk_42.png	154.89815378189087	0.638944149017334
93	131.82120203971863	response	0	j		91.0	/home/egter/Projects/stimuli/pictures/S_yt-XpM1Jtwlvvk_42.png	155.52332282066345	
94	131.83497714996338	picture	0		89.0	92.0	/home/egter/Projects/stimuli/pictures/S_Y005_C003_SDR_2K_AVC.png	155.5370979309082	0.750359058380127
94	132.56435799598694	response	0	k		92.0	/home/egter/Projects/stimuli/pictures/S_Y005_C003_SDR_2K_AVC.png	156.26647877693176	
95	132.5853362083435	picture	0		1174.0	93.0	/home/egter/Projects/stimuli/pictures/n02097209_5260.JPEG	156.28745698928833	9.79115891456604
95	142.35593104362488	response	0	k		93.0	/home/egter/Projects/stimuli/pictures/n02097209_5260.JPEG	166.0580518245697	
96	142.37649512290955	picture	0		112.0	94.0	/home/egter/Projects/stimuli/pictures/R_S_yt-0lfSyC79n14_7.png	166.07861590385437	0.9374630451202393
96	143.3044240474701	response	0	k		94.0	/home/egter/Projects/stimuli/pictures/R_S_yt-0lfSyC79n14_7.png	167.00654482841492	
97	143.31395816802979	picture	0		80.0	95.0	/home/egter/Projects/stimuli/pictures/n03590841_2262.JPEG	167.0160789489746	0.6666760444641113
97	143.96424412727356	response	0	k		95.0	/home/egter/Projects/stimuli/pictures/n03590841_2262.JPEG	167.66636490821838	
98	143.9806342124939	picture	0		154.0	96.0	/home/egter/Projects/stimuli/pictures/n04467665_77937.JPEG	167.68275499343872	1.2847719192504883
98	145.25446820259094	response	0	k		96.0	/home/egter/Projects/stimuli/pictures/n04467665_77937.JPEG	168.95658898353577	
99	145.26540613174438	picture	0		135.0	97.0	/home/egter/Projects/stimuli/pictures/n03196217_6249.JPEG	168.9675269126892	1.124927043914795
99	146.37257599830627	response	0	k		97.0	/home/egter/Projects/stimuli/pictures/n03196217_6249.JPEG	170.0746967792511	
100	146.39033317565918	picture	0		89.0	98.0	/home/egter/Projects/stimuli/pictures/S_ILSVRC2015_train_00532000.png	170.092453956604	0.7430498600006104
100	147.1213150024414	response	0	k		98.0	/home/egter/Projects/stimuli/pictures/S_ILSVRC2015_train_00532000.png	170.82343578338623	
101	147.1333830356598	picture	0		98.0	99.0	/home/egter/Projects/stimuli/pictures/n01685808_8425.JPEG	170.83550381660461	0.8125591278076172
101	147.93776607513428	response	0	k		99.0	/home/egter/Projects/stimuli/pictures/n01685808_8425.JPEG	171.6398868560791	
102	147.9459421634674	picture	0		82.0	100.0	/home/egter/Projects/stimuli/pictures/n03781244_819.JPEG	171.64806294441223	0.6874608993530273
102	148.62115621566772	response	0	k		100.0	/home/egter/Projects/stimuli/pictures/n03781244_819.JPEG	172.32327699661255	
103	148.63340306282043	picture	0		133.0	101.0	/home/egter/Projects/stimuli/pictures/n07697537_3054.JPEG	172.33552384376526	1.104222059249878
103	149.7293951511383	response	0	k		101.0	/home/egter/Projects/stimuli/pictures/n07697537_3054.JPEG	173.43151593208313	
104	149.7376251220703	picture	0		95.0	102.0	/home/egter/Projects/stimuli/pictures/n01756291_7571.JPEG	173.43974590301514	0.7916679382324219
104	150.52105712890625	response	0	k		102.0	/home/egter/Projects/stimuli/pictures/n01756291_7571.JPEG	174.22317790985107	
105	150.52929306030273	picture	0		96.0	103.0	/home/egter/Projects/stimuli/pictures/R_S_yt-H45g6700wbc_159.png	174.23141384124756	0.8055620193481445
105	151.3210871219635	response	0	j		103.0	/home/egter/Projects/stimuli/pictures/R_S_yt-H45g6700wbc_159.png	175.02320790290833	
106	151.33485507965088	picture	0		111.0	104.0	/home/egter/Projects/stimuli/pictures/R_S_comp_H004_C007_PS_v02_SDR_PS_20180925_SDR_2K_AVC.png	175.0369758605957	0.9361979961395264
106	152.25442910194397	response	0	k		104.0	/home/egter/Projects/stimuli/pictures/R_S_comp_H004_C007_PS_v02_SDR_PS_20180925_SDR_2K_AVC.png	175.9565498828888	
107	152.2710530757904	picture	0		79.0	105.0	/home/egter/Projects/stimuli/pictures/n01980166_2746.JPEG	175.97317385673523	0.6608481407165527
107	152.9210500717163	response	0	k		105.0	/home/egter/Projects/stimuli/pictures/n01980166_2746.JPEG	176.62317085266113	
108	152.93190121650696	picture	0		96.0	106.0	/home/egter/Projects/stimuli/pictures/n04613696_11624.JPEG	176.63402199745178	0.7985959053039551
108	153.72109603881836	response	0	k		106.0	/home/egter/Projects/stimuli/pictures/n04613696_11624.JPEG	177.42321681976318	
109	153.7304971218109	picture	0		439.0	107.0	/home/egter/Projects/stimuli/pictures/n03633091_18671.JPEG	177.43261790275574	3.65972900390625
109	157.3725471496582	response	0	k		107.0	/home/egter/Projects/stimuli/pictures/n03633091_18671.JPEG	181.07466793060303	
110	157.39022612571716	picture	0		95.0	108.0	/home/egter/Projects/stimuli/pictures/R_S_yt-PreGL81PEP4_61.png	181.092346906662	0.7916219234466553
110	158.16416716575623	response	0	j		108.0	/home/egter/Projects/stimuli/pictures/R_S_yt-PreGL81PEP4_61.png	181.86628794670105	
111	158.18184804916382	picture	0		135.0	109.0	/home/egter/Projects/stimuli/pictures/n02484975_8390.JPEG	181.88396883010864	1.125025987625122
111	159.2960650920868	response	0	k		109.0	/home/egter/Projects/stimuli/pictures/n02484975_8390.JPEG	182.99818587303162	
112	159.30687403678894	picture	0		140.0	110.0	/home/egter/Projects/stimuli/pictures/S_yt-GfPep7IhZIU_47.png	183.00899481773376	1.1666250228881836
112	160.46268820762634	response	0	k		110.0	/home/egter/Projects/stimuli/pictures/S_yt-GfPep7IhZIU_47.png	184.16480898857117	
113	160.47349905967712	picture	0		410.0	111.0	/home/egter/Projects/stimuli/pictures/S_yt-Ul81y6R9YbE_12.png	184.17561984062195	3.416654109954834
113	163.8793821334839	response	0	j		111.0	/home/egter/Projects/stimuli/pictures/S_yt-Ul81y6R9YbE_12.png	187.5815029144287	
114	163.89015316963196	picture	0		110.0	112.0	/home/egter/Projects/stimuli/pictures/R_S_yt-BAwvfRmE1LU_79.png	187.59227395057678	0.9166510105133057
114	164.78930521011353	response	0	k		112.0	/home/egter/Projects/stimuli/pictures/R_S_yt-BAwvfRmE1LU_79.png	188.49142599105835	
115	164.80680418014526	picture	0		381.0	113.0	/home/egter/Projects/stimuli/pictures/S_yt-g_RCws799LQ_52.png	188.5089249610901	3.173585891723633
115	167.9641010761261	response	0	k		113.0	/home/egter/Projects/stimuli/pictures/S_yt-g_RCws799LQ_52.png	191.66622185707092	
116	167.9803900718689	picture	0		286.0	114.0	/home/egter/Projects/stimuli/pictures/R_S_pexels-pavel-danilyuk-8057714.png	191.68251085281372	2.382154941558838
116	170.35433721542358	response	0	j		114.0	/home/egter/Projects/stimuli/pictures/R_S_pexels-pavel-danilyuk-8057714.png	194.0564579963684	
117	170.36254501342773	picture	0		174.0	115.0	/home/egter/Projects/stimuli/pictures/R_S_yt-CeOZeB1LXwE_79.png	194.06466579437256	1.4511430263519287
117	171.80423521995544	response	0	j		115.0	/home/egter/Projects/stimuli/pictures/R_S_yt-CeOZeB1LXwE_79.png	195.50635600090027	
118	171.81368803977966	picture	0		434.0	116.0	/home/egter/Projects/stimuli/pictures/S_yt-cJ7-H1Dckpk_33.png	195.5158088207245	3.6180269718170166
118	175.42098021507263	response	0	k		116.0	/home/egter/Projects/stimuli/pictures/S_yt-cJ7-H1Dckpk_33.png	199.12310099601746	
119	175.43171501159668	picture	0		225.0	117.0	/home/egter/Projects/stimuli/pictures/S_pexels-mart-production-7698911_1.png	199.1338357925415	1.8749570846557617
119	177.29597210884094	response	0	j		117.0	/home/egter/Projects/stimuli/pictures/S_pexels-mart-production-7698911_1.png	200.99809288978577	
120	177.30667209625244	picture	0		105.0	118.0	/home/egter/Projects/stimuli/pictures/n03527444_24818.JPEG	201.00879287719727	0.8750391006469727
120	178.16409015655518	response	0	k		118.0	/home/egter/Projects/stimuli/pictures/n03527444_24818.JPEG	201.8662109375	
121	178.1817111968994	picture	0		102.0	119.0	/home/egter/Projects/stimuli/pictures/ILSVRC2012_val_00000725.JPEG	201.88383197784424	0.8474929332733154
121	179.02107405662537	response	0	k		119.0	/home/egter/Projects/stimuli/pictures/ILSVRC2012_val_00000725.JPEG	202.7231948375702	
122	179.02920413017273	picture	0		151.0	120.0	/home/egter/Projects/stimuli/pictures/R_S_pexels-roman-odintsov-8231493.png	202.73132491111755	1.2636330127716064
122	180.27929401397705	response	0	j		120.0	/home/egter/Projects/stimuli/pictures/R_S_pexels-roman-odintsov-8231493.png	203.98141479492188	
123	180.29283714294434	picture	0		95.0	121.0	/home/egter/Projects/stimuli/pictures/n04476259_12267.JPEG	203.99495792388916	0.7985599040985107
123	181.07923412322998	response	0	k		121.0	/home/egter/Projects/stimuli/pictures/n04476259_12267.JPEG	204.7813549041748	
124	181.09139704704285	picture	0		907.0	122.0	/home/egter/Projects/stimuli/pictures/S_JApTAOdfunE_1251.png	204.79351782798767	7.555500030517578
124	188.63757705688477	response	0	j		122.0	/home/egter/Projects/stimuli/pictures/S_JApTAOdfunE_1251.png	212.3396978378296	
125	188.64689707756042	picture	0		107.0	123.0	/home/egter/Projects/stimuli/pictures/R_S_ILSVRC2015_train_00521000.png	212.34901785850525	0.8958261013031006
125	189.5291941165924	response	0	j		123.0	/home/egter/Projects/stimuli/pictures/R_S_ILSVRC2015_train_00521000.png	213.23131489753723	
126	189.54272317886353	picture	0		189.0	124.0	/home/egter/Projects/stimuli/pictures/n02790996_8201.JPEG	213.24484395980835	1.5833380222320557
126	191.11255311965942	response	0	k		124.0	/home/egter/Projects/stimuli/pictures/n02790996_8201.JPEG	214.81467390060425	
127	191.12606120109558	picture	0		110.0	125.0	/home/egter/Projects/stimuli/pictures/R_S_ILSVRC2015_train_00460000.png	214.8281819820404	0.9235508441925049
127	192.03759717941284	response	0	k		125.0	/home/egter/Projects/stimuli/pictures/R_S_ILSVRC2015_train_00460000.png	215.73971796035767	
128	192.0496120452881	picture	0		244.0	126.0	/home/egter/Projects/stimuli/pictures/S_yt--a-d97T4Gak_75.png	215.7517328262329	2.034701108932495
128	194.0709421634674	response	0	k		126.0	/home/egter/Projects/stimuli/pictures/S_yt--a-d97T4Gak_75.png	217.77306294441223	
129	194.08431315422058	picture	0		102.0	127.0	/home/egter/Projects/stimuli/pictures/S_yt-MWX0EtpWIs8_286.png	217.7864339351654	0.8541679382324219
129	194.92924904823303	response	0	j		127.0	/home/egter/Projects/stimuli/pictures/S_yt-MWX0EtpWIs8_286.png	218.63136982917786	
130	194.938481092453	picture	0		101.0	128.0	/home/egter/Projects/stimuli/pictures/R_S_yt-qxtmtMnUfD0_124.png	218.64060187339783	0.8406150341033936
130	195.7708580493927	response	0	k		128.0	/home/egter/Projects/stimuli/pictures/R_S_yt-qxtmtMnUfD0_124.png	219.47297883033752	
131	195.7790961265564	picture	0		137.0	129.0	/home/egter/Projects/stimuli/pictures/n02281787_6585.JPEG	219.48121690750122	1.1455419063568115
131	196.91256308555603	response	0	k		129.0	/home/egter/Projects/stimuli/pictures/n02281787_6585.JPEG	220.61468386650085	
132	196.9246380329132	picture	0		78.0	130.0	/home/egter/Projects/stimuli/pictures/R_S_Y005_C003_SDR_2K_AVC.png	220.62675881385803	0.6461441516876221
132	197.56252217292786	response	0	k		130.0	/home/egter/Projects/stimuli/pictures/R_S_Y005_C003_SDR_2K_AVC.png	221.26464295387268	
133	197.57078218460083	picture	0		98.0	131.0	/home/egter/Projects/stimuli/pictures/R_S_yt-t-wpKypNysg_27.png	221.27290296554565	0.8190310001373291
133	198.37242221832275	response	0	j		131.0	/home/egter/Projects/stimuli/pictures/R_S_yt-t-wpKypNysg_27.png	222.07454299926758	
134	198.38981318473816	picture	0		112.0	132.0	/home/egter/Projects/stimuli/pictures/n12267677_19328.JPEG	222.09193396568298	0.9308559894561768
134	199.31253218650818	response	0	k		132.0	/home/egter/Projects/stimuli/pictures/n12267677_19328.JPEG	223.014652967453	
135	199.32066917419434	picture	0		133.0	133.0	/home/egter/Projects/stimuli/pictures/R_S_ILSVRC2015_train_00363000.png	223.02278995513916	1.11083984375
135	200.4208221435547	response	0	j		133.0	/home/egter/Projects/stimuli/pictures/R_S_ILSVRC2015_train_00363000.png	224.1229429244995	
136	200.43150901794434	picture	0		76.0	134.0	/home/egter/Projects/stimuli/pictures/S_pexels-anastasia-shuraeva-6014070.png	224.13362979888916	0.63185715675354
136	201.05418705940247	response	0	j		134.0	/home/egter/Projects/stimuli/pictures/S_pexels-anastasia-shuraeva-6014070.png	224.7563078403473	
137	201.06336617469788	picture	0		85.0	135.0	/home/egter/Projects/stimuli/pictures/n13052670_8369.JPEG	224.7654869556427	0.7083628177642822
137	201.76251101493835	response	0	k		135.0	/home/egter/Projects/stimuli/pictures/n13052670_8369.JPEG	225.46463179588318	
138	201.77172899246216	picture	0		74.0	136.0	/home/egter/Projects/stimuli/pictures/n04522168_8034.JPEG	225.47384977340698	0.618084192276001
138	202.37230110168457	response	0	k		136.0	/home/egter/Projects/stimuli/pictures/n04522168_8034.JPEG	226.0744218826294	
139	202.38981318473816	picture	0		63.0	137.0	/home/egter/Projects/stimuli/pictures/n04347754_15521.JPEG	226.09193396568298	0.5278348922729492
139	202.90426516532898	response	0	k		137.0	/home/egter/Projects/stimuli/pictures/n04347754_15521.JPEG	226.6063859462738	
140	202.9176480770111	picture	0		143.0	138.0	/home/egter/Projects/stimuli/pictures/R_S_yt-STL3ejY9u_Q_73.png	226.61976885795593	1.194749116897583
140	204.1041281223297	response	0	j		138.0	/home/egter/Projects/stimuli/pictures/R_S_yt-STL3ejY9u_Q_73.png	227.80624890327454	
141	204.1123971939087	picture	0		87.0	139.0	/home/egter/Projects/stimuli/pictures/R_S_yt-kxWtOXNIsRA_329.png	227.81451797485352	0.7287919521331787
141	204.82918119430542	response	0	j		139.0	/home/egter/Projects/stimuli/pictures/R_S_yt-kxWtOXNIsRA_329.png	228.53130197525024	
142	204.84118914604187	picture	0		100.0	140.0	/home/egter/Projects/stimuli/pictures/S_tIpD52JAIV8_4.png	228.5433099269867	0.833298921585083
142	205.6624631881714	response	0	k		140.0	/home/egter/Projects/stimuli/pictures/S_tIpD52JAIV8_4.png	229.3645839691162	
143	205.67448806762695	picture	0		158.0	141.0	/home/egter/Projects/stimuli/pictures/R_S_WO9z7lBUvOs_151.png	229.37660884857178	1.3264551162719727
143	206.98066902160645	response	0	j		141.0	/home/egter/Projects/stimuli/pictures/R_S_WO9z7lBUvOs_151.png	230.68278980255127	
144	207.00094318389893	picture	0		77.0	142.0	/home/egter/Projects/stimuli/pictures/S_ILSVRC2015_train_00692001.png	230.70306396484375	0.6457538604736328
144	207.63759303092957	response	0	k		142.0	/home/egter/Projects/stimuli/pictures/S_ILSVRC2015_train_00692001.png	231.3397138118744	
145	207.64669704437256	picture	0		64.0	143.0	/home/egter/Projects/stimuli/pictures/n01641577_2633.JPEG	231.34881782531738	0.5346841812133789
145	208.17079305648804	response	0	k		143.0	/home/egter/Projects/stimuli/pictures/n01641577_2633.JPEG	231.87291383743286	
146	208.18138122558594	picture	0		94.0	144.0	/home/egter/Projects/stimuli/pictures/R_S_wc-DgBY_btLlgBC_19.png	231.88350200653076	0.7847278118133545
146	208.95419120788574	response	0	k		144.0	/home/egter/Projects/stimuli/pictures/R_S_wc-DgBY_btLlgBC_19.png	232.65631198883057	
147	208.9661090373993	picture	0		152.0	145.0	/home/egter/Projects/stimuli/pictures/n02823750_3762.JPEG	232.66822981834412	1.2639660835266113
147	210.22083401679993	response	0	k		145.0	/home/egter/Projects/stimuli/pictures/n02823750_3762.JPEG	233.92295479774475	
148	210.2300751209259	picture	0		96.0	146.0	/home/egter/Projects/stimuli/pictures/R_S_DV6V38rplag_215.png	233.93219590187073	0.7989330291748047
148	211.02078413963318	response	0	j		146.0	/home/egter/Projects/stimuli/pictures/R_S_DV6V38rplag_215.png	234.722904920578	
149	211.0290081501007	picture	0		73.0	147.0	/home/egter/Projects/stimuli/pictures/n01984695_26933.JPEG	234.73112893104553	0.6107139587402344
149	211.6291379928589	response	0	k		147.0	/home/egter/Projects/stimuli/pictures/n01984695_26933.JPEG	235.3312587738037	
150	211.63972210884094	picture	0		74.0	148.0	/home/egter/Projects/stimuli/pictures/R_S_yt-IX6uxR5DSKk_2.png	235.34184288978577	0.6180338859558105
150	212.24582314491272	response	0	j		148.0	/home/egter/Projects/stimuli/pictures/R_S_yt-IX6uxR5DSKk_2.png	235.94794392585754	
151	212.25775599479675	picture	0		62.0	149.0	/home/egter/Projects/stimuli/pictures/n01751748_3296.JPEG	235.95987677574158	0.5212891101837158
151	212.76243710517883	response	0	k		149.0	/home/egter/Projects/stimuli/pictures/n01751748_3296.JPEG	236.46455788612366	
152	212.77904510498047	picture	0		84.0	150.0	/home/egter/Projects/stimuli/pictures/S_yt-uSHBdUi8_V0_24.png	236.4811658859253	0.7009129524230957
152	213.47074699401855	response	0	j		150.0	/home/egter/Projects/stimuli/pictures/S_yt-uSHBdUi8_V0_24.png	237.17286777496338	
153	213.47995805740356	picture	0		73.0	151.0	/home/egter/Projects/stimuli/pictures/n04428191_30274.JPEG	237.1820788383484	0.6111230850219727
153	214.07910799980164	response	0	k		151.0	/home/egter/Projects/stimuli/pictures/n04428191_30274.JPEG	237.78122878074646	
154	214.09108114242554	picture	0		97.0	152.0	/home/egter/Projects/stimuli/pictures/n01955084_2525.JPEG	237.79320192337036	0.812985897064209
154	214.88749504089355	response	0	k		152.0	/home/egter/Projects/stimuli/pictures/n01955084_2525.JPEG	238.58961582183838	
155	214.90406703948975	picture	0		72.0	153.0	/home/egter/Projects/stimuli/pictures/R_S_yt-GfPep7IhZIU_47.png	238.60618782043457	0.6036381721496582
155	215.49576020240784	response	0	j		153.0	/home/egter/Projects/stimuli/pictures/R_S_yt-GfPep7IhZIU_47.png	239.19788098335266	
156	215.5077052116394	picture	0		65.0	154.0	/home/egter/Projects/stimuli/pictures/n04404412_8578.JPEG	239.20982599258423	0.5486099720001221
156	216.04581022262573	response	0	j		154.0	/home/egter/Projects/stimuli/pictures/n04404412_8578.JPEG	239.74793100357056	
157	216.05631518363953	picture	0		82.0	155.0	/home/egter/Projects/stimuli/pictures/R_S_yt-UBqUhu-GEVg_6.png	239.75843596458435	0.6810309886932373
157	216.7290961742401	response	0	j		155.0	/home/egter/Projects/stimuli/pictures/R_S_yt-UBqUhu-GEVg_6.png	240.43121695518494	
158	216.73734617233276	picture	0		110.0	156.0	/home/egter/Projects/stimuli/pictures/S_yt-HuU5L5dVpdY_112.png	240.4394669532776	0.9233419895172119
158	217.64579820632935	response	0	j		156.0	/home/egter/Projects/stimuli/pictures/S_yt-HuU5L5dVpdY_112.png	241.34791898727417	
159	217.66068816184998	picture	0		73.0	157.0	/home/egter/Projects/stimuli/pictures/n02814860_904.JPEG	241.3628089427948	0.61086106300354
159	218.26244020462036	response	0	k		157.0	/home/egter/Projects/stimuli/pictures/n02814860_904.JPEG	241.96456098556519	
160	218.27154922485352	picture	0		76.0	158.0	/home/egter/Projects/stimuli/pictures/S_yt-b7bIulV49DQ_81.png	241.97367000579834	0.6389758586883545
160	218.8957920074463	response	0	j		158.0	/home/egter/Projects/stimuli/pictures/S_yt-b7bIulV49DQ_81.png	242.5979127883911	
161	218.91052508354187	picture	0		72.0	159.0	/home/egter/Projects/stimuli/pictures/R_S_video_inspire_texas_pecos_foggy-landscape_00018.png	242.6126458644867	0.6041431427001953
161	219.50411820411682	response	0	k		159.0	/home/egter/Projects/stimuli/pictures/R_S_video_inspire_texas_pecos_foggy-landscape_00018.png	243.20623898506165	
162	219.51466822624207	picture	0		97.0	160.0	/home/egter/Projects/stimuli/pictures/R_S_yt-MXLxcvKZDHw_22.png	243.2167890071869	0.8059577941894531
162	220.31247115135193	response	0	k		160.0	/home/egter/Projects/stimuli/pictures/R_S_yt-MXLxcvKZDHw_22.png	244.01459193229675	
163	220.32062602043152	picture	0		113.0	161.0	/home/egter/Projects/stimuli/pictures/R_S_yt-AOP7QYQntPI_28.png	244.02274680137634	0.9439990520477295
163	221.2540261745453	response	0	j		161.0	/home/egter/Projects/stimuli/pictures/R_S_yt-AOP7QYQntPI_28.png	244.9561469554901	
164	221.26462507247925	picture	0		1088.0	162.0	/home/egter/Projects/stimuli/pictures/n03777568_8332.JPEG	244.96674585342407	9.069329977035522
164	230.32072401046753	response	0	k		162.0	/home/egter/Projects/stimuli/pictures/n03777568_8332.JPEG	254.02284479141235	
165	230.33395504951477	picture	0		69.0	163.0	/home/egter/Projects/stimuli/pictures/n07802026_48200.JPEG	254.0360758304596	0.583449125289917
165	230.90406918525696	response	0	k		163.0	/home/egter/Projects/stimuli/pictures/n07802026_48200.JPEG	254.60618996620178	
166	230.9174041748047	picture	0		116.0	164.0	/home/egter/Projects/stimuli/pictures/R_S_ILSVRC2015_train_00415003.png	254.6195249557495	0.9782350063323975
166	231.87912607192993	response	0	j		164.0	/home/egter/Projects/stimuli/pictures/R_S_ILSVRC2015_train_00415003.png	255.58124685287476	
167	231.89563918113708	picture	0		87.0	165.0	/home/egter/Projects/stimuli/pictures/S_yt-Zn0YwrsCFOQ_44.png	255.5977599620819	0.7300360202789307
167	232.6055290699005	response	0	j		165.0	/home/egter/Projects/stimuli/pictures/S_yt-Zn0YwrsCFOQ_44.png	256.30764985084534	
168	232.62567520141602	picture	0		464.0	166.0	/home/egter/Projects/stimuli/pictures/n03841143_17620.JPEG	256.32779598236084	3.874894857406616
168	236.4873731136322	response	0	k		166.0	/home/egter/Projects/stimuli/pictures/n03841143_17620.JPEG	260.189493894577	
169	236.50057005882263	picture	0		107.0	167.0	/home/egter/Projects/stimuli/pictures/S_yt-2ftSsLqRQnA_84.png	260.20269083976746	0.8958499431610107
169	237.38732600212097	response	0	j		167.0	/home/egter/Projects/stimuli/pictures/S_yt-2ftSsLqRQnA_84.png	261.0894467830658	
170	237.39642000198364	picture	0		113.0	168.0	/home/egter/Projects/stimuli/pictures/R_S_yt-JVhfcpV7OaY_71.png	261.09854078292847	0.9443931579589844
170	238.3290309906006	response	0	j		168.0	/home/egter/Projects/stimuli/pictures/R_S_yt-JVhfcpV7OaY_71.png	262.0311517715454	
171	238.34081315994263	picture	0		128.0	169.0	/home/egter/Projects/stimuli/pictures/R_S_ILSVRC2015_train_00369000.png	262.04293394088745	1.0695359706878662
171	239.3888280391693	response	0	j		169.0	/home/egter/Projects/stimuli/pictures/R_S_ILSVRC2015_train_00369000.png	263.09094882011414	
172	239.4103491306305	picture	0		491.0	170.0	/home/egter/Projects/stimuli/pictures/R_S_yt-Ryb0K9lGPrg_5.png	263.1124699115753	4.0970940589904785
172	243.49571204185486	response	0	k		170.0	/home/egter/Projects/stimuli/pictures/R_S_yt-Ryb0K9lGPrg_5.png	267.1978328227997	
173	243.50744318962097	picture	0		181.0	171.0	/home/egter/Projects/stimuli/pictures/n03874293_7077.JPEG	267.2095639705658	1.5069048404693604
173	244.99715614318848	response	0	k		171.0	/home/egter/Projects/stimuli/pictures/n03874293_7077.JPEG	268.6992769241333	
174	245.01434803009033	picture	0		65.0	172.0	/home/egter/Projects/stimuli/pictures/n04428191_7588.JPEG	268.71646881103516	0.5417141914367676
174	245.54567313194275	response	0	k		172.0	/home/egter/Projects/stimuli/pictures/n04428191_7588.JPEG	269.2477939128876	
175	245.5560622215271	picture	0		54.0	173.0	/home/egter/Projects/stimuli/pictures/n04310018_19995.JPEG	269.2581830024719	0.45134592056274414
175	245.98883605003357	response	0	k		173.0	/home/egter/Projects/stimuli/pictures/n04310018_19995.JPEG	269.6909568309784	
176	246.00740814208984	picture	0		110.0	174.0	/home/egter/Projects/stimuli/pictures/R_S_yt-2pRKCSgdXXU_30.png	269.70952892303467	0.9167540073394775
176	246.91234922409058	response	0	j		174.0	/home/egter/Projects/stimuli/pictures/R_S_yt-2pRKCSgdXXU_30.png	270.6144700050354	
177	246.92416214942932	picture	0		99.0	175.0	/home/egter/Projects/stimuli/pictures/R_S_production_ID_4584682.png	270.62628293037415	0.8263418674468994
177	247.73735809326172	response	0	j		175.0	/home/egter/Projects/stimuli/pictures/R_S_production_ID_4584682.png	271.43947887420654	
178	247.75050401687622	picture	0		155.0	176.0	/home/egter/Projects/stimuli/pictures/n02009912_11557.JPEG	271.45262479782104	1.2985479831695557
178	249.03735518455505	response	0	k		176.0	/home/egter/Projects/stimuli/pictures/n02009912_11557.JPEG	272.7394759654999	
179	249.04905200004578	picture	0		72.0	177.0	/home/egter/Projects/stimuli/pictures/R_S_yt-qiPhBL4lBr0_44.png	272.7511727809906	0.5972530841827393
179	249.63729619979858	response	0	j		177.0	/home/egter/Projects/stimuli/pictures/R_S_yt-qiPhBL4lBr0_44.png	273.3394169807434	
180	249.64630508422852	picture	0		74.0	178.0	/home/egter/Projects/stimuli/pictures/n12998815_13883.JPEG	273.34842586517334	0.6180539131164551
180	250.25393199920654	response	0	k		178.0	/home/egter/Projects/stimuli/pictures/n12998815_13883.JPEG	273.95605278015137	
181	250.26435899734497	picture	0		63.0	179.0	/home/egter/Projects/stimuli/pictures/n01729322_7420.JPEG	273.9664797782898	0.527839183807373
181	250.772803068161	response	0	k		179.0	/home/egter/Projects/stimuli/pictures/n01729322_7420.JPEG	274.47492384910583	
182	250.79219818115234	stim	0		420.0			274.49431896209717	3.49491286277771
182	254.2789831161499	response	0	space				277.9811038970947	
