trial_nr	onset	event_type	phase	response	nr_frames	picture_index	picture_file	onset_abs	duration
0	0.020978927612304688	stim	0		126.0			33.4373140335083	1.0589990615844727
0	1.0639219284057617	response	0	space				34.48025703430176	
2	1.0799779891967773	picture	0		2737.0	0.0	/home/egter/Projects/stimuli/pictures/S_comp_A001_C004_1207W5_v23_SDR_FINAL_20180706_SDR_2K_AVC.png	34.49631309509277	22.816919088363647
2	23.880080938339233	response	0	j		0.0	/home/egter/Projects/stimuli/pictures/S_comp_A001_C004_1207W5_v23_SDR_FINAL_20180706_SDR_2K_AVC.png	57.29641604423523	
3	23.896897077560425	picture	0		213.0	1.0	/home/egter/Projects/stimuli/pictures/n03160309_6679.JPEG	57.31323218345642	1.7746169567108154
3	25.663330078125	response	0	j		1.0	/home/egter/Projects/stimuli/pictures/n03160309_6679.JPEG	59.079665184020996	
4	25.67151403427124	picture	0		10.0	2.0	/home/egter/Projects/stimuli/pictures/S_yt-jUGt_Byqczw_599.png	59.087849140167236	0.0833430290222168
4	25.7465980052948	response	0	j		2.0	/home/egter/Projects/stimuli/pictures/S_yt-jUGt_Byqczw_599.png	59.162933111190796	
5	25.754857063293457	picture	0		148.0	3.0	/home/egter/Projects/stimuli/pictures/n03355925_24884.JPEG	59.17119216918945	1.235666036605835
5	26.97323703765869	response	0	k		3.0	/home/egter/Projects/stimuli/pictures/n03355925_24884.JPEG	60.38957214355469	
6	26.990523099899292	picture	0		115.0	4.0	/home/egter/Projects/stimuli/pictures/S_yt-ZtS7ZrJ_rtk_525.png	60.40685820579529	0.9583628177642822
6	27.93830394744873	response	0	j		4.0	/home/egter/Projects/stimuli/pictures/S_yt-ZtS7ZrJ_rtk_525.png	61.35463905334473	
7	27.948885917663574	picture	0		96.0	5.0	/home/egter/Projects/stimuli/pictures/n04458633_5045.JPEG	61.36522102355957	0.7985641956329346
7	28.738285064697266	response	0	k		5.0	/home/egter/Projects/stimuli/pictures/n04458633_5045.JPEG	62.15462017059326	
8	28.74745011329651	picture	0		552.0	6.0	/home/egter/Projects/stimuli/pictures/n04335435_21811.JPEG	62.163785219192505	4.60424280166626
8	33.338396072387695	response	0	k		6.0	/home/egter/Projects/stimuli/pictures/n04335435_21811.JPEG	66.75473117828369	
9	33.35169291496277	picture	0		95.0	7.0	/home/egter/Projects/stimuli/pictures/n02442845_17769.JPEG	66.76802802085876	0.7984681129455566
9	34.13824105262756	response	0	k		7.0	/home/egter/Projects/stimuli/pictures/n02442845_17769.JPEG	67.55457615852356	
10	34.150161027908325	picture	0		107.0	8.0	/home/egter/Projects/stimuli/pictures/S_Roller_Coaster_1.png	67.56649613380432	0.8889188766479492
10	35.02995491027832	response	0	k		8.0	/home/egter/Projects/stimuli/pictures/S_Roller_Coaster_1.png	68.44629001617432	
11	35.039079904556274	picture	0		99.0	9.0	/home/egter/Projects/stimuli/pictures/S_yt-uX7qYKQm_pg_277.png	68.45541501045227	0.8263840675354004
11	35.854928970336914	response	0	j		9.0	/home/egter/Projects/stimuli/pictures/S_yt-uX7qYKQm_pg_277.png	69.27126407623291	
12	35.865463972091675	picture	0		93.0	10.0	/home/egter/Projects/stimuli/pictures/R_S_yt-l_ioasf6yHg_44.png	69.28179907798767	0.778048038482666
12	36.62987494468689	response	0	j		10.0	/home/egter/Projects/stimuli/pictures/R_S_yt-l_ioasf6yHg_44.png	70.04621005058289	
13	36.64351201057434	picture	0		131.0	11.0	/home/egter/Projects/stimuli/pictures/n02013706_2213.JPEG	70.05984711647034	1.0968799591064453
13	37.7299439907074	response	0	j		11.0	/home/egter/Projects/stimuli/pictures/n02013706_2213.JPEG	71.1462790966034	
14	37.740391969680786	picture	0		102.0	12.0	/home/egter/Projects/stimuli/pictures/R_S_yt-pB9w3AA-woE_37.png	71.15672707557678	0.8542280197143555
14	38.57309293746948	response	0	k		12.0	/home/egter/Projects/stimuli/pictures/R_S_yt-pB9w3AA-woE_37.png	71.98942804336548	
15	38.59461998939514	picture	0		88.0	13.0	/home/egter/Projects/stimuli/pictures/n03530642_10128.JPEG	72.01095509529114	0.7360630035400391
15	39.321572065353394	response	0	k		13.0	/home/egter/Projects/stimuli/pictures/n03530642_10128.JPEG	72.73790717124939	
16	39.33068299293518	picture	0		195.0	14.0	/home/egter/Projects/stimuli/pictures/n02669723_14711.JPEG	72.74701809883118	1.6250019073486328
16	40.946633100509644	response	0	k		14.0	/home/egter/Projects/stimuli/pictures/n02669723_14711.JPEG	74.36296820640564	
17	40.95568490028381	picture	0		98.0	15.0	/home/egter/Projects/stimuli/pictures/S_yt-rPYBHkUEwwc_10.png	74.37202000617981	0.8193972110748291
17	41.75641989707947	response	0	j		15.0	/home/egter/Projects/stimuli/pictures/S_yt-rPYBHkUEwwc_10.png	75.17275500297546	
18	41.77508211135864	picture	0		109.0	16.0	/home/egter/Projects/stimuli/pictures/S_yt-1PJ1RZ0bfls_4.png	75.19141721725464	0.909796953201294
18	42.671555042266846	response	0	k		16.0	/home/egter/Projects/stimuli/pictures/S_yt-1PJ1RZ0bfls_4.png	76.08789014816284	
19	42.68487906455994	picture	0		101.0	17.0	/home/egter/Projects/stimuli/pictures/n01685808_2746.JPEG	76.10121417045593	0.8471519947052002
19	43.52159404754639	response	0	k		17.0	/home/egter/Projects/stimuli/pictures/n01685808_2746.JPEG	76.93792915344238	
20	43.53203105926514	picture	0		155.0	18.0	/home/egter/Projects/stimuli/pictures/n02256656_14419.JPEG	76.94836616516113	1.2916748523712158
20	44.81312799453735	response	0	k		18.0	/home/egter/Projects/stimuli/pictures/n02256656_14419.JPEG	78.22946310043335	
21	44.82370591163635	picture	0		388.0	19.0	/home/egter/Projects/stimuli/pictures/S_yt-BG-G7m5wLZ4_94.png	78.24004101753235	3.2361350059509277
21	48.046541929244995	response	0	k		19.0	/home/egter/Projects/stimuli/pictures/S_yt-BG-G7m5wLZ4_94.png	81.46287703514099	
22	48.05984091758728	picture	0		90.0	20.0	/home/egter/Projects/stimuli/pictures/n03000134_1013.JPEG	81.47617602348328	0.756843090057373
22	48.804868936538696	response	0	k		20.0	/home/egter/Projects/stimuli/pictures/n03000134_1013.JPEG	82.22120404243469	
23	48.81668400764465	picture	0		84.0	21.0	/home/egter/Projects/stimuli/pictures/R_S_yt-roThCERxVCs_133.png	82.23301911354065	0.70169997215271
23	49.50482201576233	response	0	j		21.0	/home/egter/Projects/stimuli/pictures/R_S_yt-roThCERxVCs_133.png	82.92115712165833	
24	49.51838397979736	picture	0		95.0	22.0	/home/egter/Projects/stimuli/pictures/n04081281_113723.JPEG	82.93471908569336	0.7983860969543457
24	50.30507493019104	response	0	k		22.0	/home/egter/Projects/stimuli/pictures/n04081281_113723.JPEG	83.72141003608704	
25	50.31677007675171	picture	0		112.0	23.0	/home/egter/Projects/stimuli/pictures/S_yt-Ndwek2tpIOA_169.png	83.7331051826477	0.9304280281066895
25	51.238210916519165	response	0	j		23.0	/home/egter/Projects/stimuli/pictures/S_yt-Ndwek2tpIOA_169.png	84.65454602241516	
26	51.2471981048584	picture	0		88.0	24.0	/home/egter/Projects/stimuli/pictures/n03717622_12175.JPEG	84.6635332107544	0.7361998558044434
26	51.96470093727112	response	0	k		24.0	/home/egter/Projects/stimuli/pictures/n03717622_12175.JPEG	85.38103604316711	
27	51.98339796066284	picture	0		101.0	25.0	/home/egter/Projects/stimuli/pictures/S_pexels-mikael-blomkvist-8689852.png	85.39973306655884	0.8402750492095947
27	52.8131799697876	response	0	j		25.0	/home/egter/Projects/stimuli/pictures/S_pexels-mikael-blomkvist-8689852.png	86.2295150756836	
28	52.82367300987244	picture	0		80.0	26.0	/home/egter/Projects/stimuli/pictures/R_S_yt-YTQXM5ZjRgg_116.png	86.24000811576843	0.6666100025177002
28	53.47980999946594	response	0	j		26.0	/home/egter/Projects/stimuli/pictures/R_S_yt-YTQXM5ZjRgg_116.png	86.89614510536194	
29	53.49028301239014	picture	0		77.0	27.0	/home/egter/Projects/stimuli/pictures/ILSVRC2012_test_00033878.JPEG	86.90661811828613	0.6394588947296143
29	54.121516942977905	response	0	k		27.0	/home/egter/Projects/stimuli/pictures/ILSVRC2012_test_00033878.JPEG	87.5378520488739	
30	54.12974190711975	picture	0		80.0	28.0	/home/egter/Projects/stimuli/pictures/R_S_yt-v9WGfC67DPk_50.png	87.54607701301575	0.6666700839996338
30	54.781327962875366	response	0	j		28.0	/home/egter/Projects/stimuli/pictures/R_S_yt-v9WGfC67DPk_50.png	88.19766306877136	
31	54.796411991119385	picture	0		103.0	29.0	/home/egter/Projects/stimuli/pictures/n03868863_6312.JPEG	88.21274709701538	0.8605201244354248
31	55.64652895927429	response	0	k		29.0	/home/egter/Projects/stimuli/pictures/n03868863_6312.JPEG	89.06286406517029	
32	55.65693211555481	picture	0		81.0	30.0	/home/egter/Projects/stimuli/pictures/S_comp_A008_C007_011550_CC_v01_SDR_PS_FINAL_20180709_SDR_2K_AVC.png	89.0732672214508	0.6735999584197998
32	56.321582078933716	response	0	k		30.0	/home/egter/Projects/stimuli/pictures/S_comp_A008_C007_011550_CC_v01_SDR_PS_FINAL_20180709_SDR_2K_AVC.png	89.73791718482971	
33	56.33053207397461	picture	0		95.0	31.0	/home/egter/Projects/stimuli/pictures/n02117135_13100.JPEG	89.7468671798706	0.7916579246520996
33	57.11316204071045	response	0	k		31.0	/home/egter/Projects/stimuli/pictures/n02117135_13100.JPEG	90.52949714660645	
34	57.12218999862671	picture	0		60.0	32.0	/home/egter/Projects/stimuli/pictures/n02786058_6643.JPEG	90.5385251045227	0.49997901916503906
34	57.61316800117493	response	0	k		32.0	/home/egter/Projects/stimuli/pictures/n02786058_6643.JPEG	91.02950310707092	
35	57.62216901779175	picture	0		212.0	33.0	/home/egter/Projects/stimuli/pictures/S_yt-FLMdajcbjcg_35.png	91.03850412368774	1.7710750102996826
35	59.372989892959595	response	0	j		33.0	/home/egter/Projects/stimuli/pictures/S_yt-FLMdajcbjcg_35.png	92.78932499885559	
36	59.39324402809143	picture	0		86.0	34.0	/home/egter/Projects/stimuli/pictures/R_S_yt-XPRNMelf5Fs_235.png	92.80957913398743	0.7221119403839111
36	60.104872941970825	response	0	j		34.0	/home/egter/Projects/stimuli/pictures/R_S_yt-XPRNMelf5Fs_235.png	93.52120804786682	
37	60.11535596847534	picture	0		75.0	35.0	/home/egter/Projects/stimuli/pictures/R_S_yt-be7r-ha8BpA_1045.png	93.53169107437134	0.6248741149902344
37	60.729820013046265	response	0	j		35.0	/home/egter/Projects/stimuli/pictures/R_S_yt-be7r-ha8BpA_1045.png	94.14615511894226	
38	60.740230083465576	picture	0		129.0	36.0	/home/egter/Projects/stimuli/pictures/R_S_pexels-kindel-media-7147375.png	94.15656518936157	1.0763459205627441
38	61.79799294471741	response	0	j		36.0	/home/egter/Projects/stimuli/pictures/R_S_pexels-kindel-media-7147375.png	95.2143280506134	
39	61.81657600402832	picture	0		176.0	37.0	/home/egter/Projects/stimuli/pictures/S_yt-EKPrSw5xF7k_112.png	95.23291110992432	1.4653170108795166
39	63.2714319229126	response	0	j		37.0	/home/egter/Projects/stimuli/pictures/S_yt-EKPrSw5xF7k_112.png	96.6877670288086	
40	63.28189301490784	picture	0		91.0	38.0	/home/egter/Projects/stimuli/pictures/S_yt-JmmyeMOFpII_29.png	96.69822812080383	0.7568869590759277
40	64.0298719406128	response	0	j		38.0	/home/egter/Projects/stimuli/pictures/S_yt-JmmyeMOFpII_29.png	97.44620704650879	
41	64.03877997398376	picture	0		119.0	39.0	/home/egter/Projects/stimuli/pictures/S_yt-0EhQYCX_G6E_8.png	97.45511507987976	0.9930760860443115
41	65.0214741230011	response	0	k		39.0	/home/egter/Projects/stimuli/pictures/S_yt-0EhQYCX_G6E_8.png	98.4378092288971	
42	65.03185606002808	picture	0		86.0	40.0	/home/egter/Projects/stimuli/pictures/n01692333_3245.JPEG	98.44819116592407	0.7152760028839111
42	65.73812508583069	response	0	k		40.0	/home/egter/Projects/stimuli/pictures/n01692333_3245.JPEG	99.15446019172668	
43	65.74713206291199	picture	0		113.0	41.0	/home/egter/Projects/stimuli/pictures/R_S_yt-VfASxEzDrvc_145.png	99.16346716880798	0.9443860054016113
43	66.6798141002655	response	0	j		41.0	/home/egter/Projects/stimuli/pictures/R_S_yt-VfASxEzDrvc_145.png	100.0961492061615	
44	66.6915180683136	picture	0		231.0	42.0	/home/egter/Projects/stimuli/pictures/R_S_yt-NuZy8Rjk4d0_156.png	100.1078531742096	1.9235730171203613
44	68.60486507415771	response	0	j		42.0	/home/egter/Projects/stimuli/pictures/R_S_yt-NuZy8Rjk4d0_156.png	102.02120018005371	
45	68.61509108543396	picture	0		114.0	43.0	/home/egter/Projects/stimuli/pictures/S_pexels-cottonbro-10640532.png	102.03142619132996	0.9514448642730713
45	69.55474495887756	response	0	j		43.0	/home/egter/Projects/stimuli/pictures/S_pexels-cottonbro-10640532.png	102.97108006477356	
46	69.56653594970703	picture	0		182.0	44.0	/home/egter/Projects/stimuli/pictures/R_S_yt-zydTlQGCUjQ_277.png	102.98287105560303	1.5138421058654785
46	71.07147312164307	response	0	j		44.0	/home/egter/Projects/stimuli/pictures/R_S_yt-zydTlQGCUjQ_277.png	104.48780822753906	
47	71.08037805557251	picture	0		108.0	45.0	/home/egter/Projects/stimuli/pictures/S_yt-Fci3dBzt2T4_223.png	104.4967131614685	0.9027619361877441
47	71.97145295143127	response	0	k		45.0	/home/egter/Projects/stimuli/pictures/S_yt-Fci3dBzt2T4_223.png	105.38778805732727	
48	71.98313999176025	picture	0		84.0	46.0	/home/egter/Projects/stimuli/pictures/R_S_yt-ZtS7ZrJ_rtk_525.png	105.39947509765625	0.7016189098358154
48	72.67143392562866	response	0	j		46.0	/home/egter/Projects/stimuli/pictures/R_S_yt-ZtS7ZrJ_rtk_525.png	106.08776903152466	
49	72.68475890159607	picture	0		222.0	47.0	/home/egter/Projects/stimuli/pictures/n01496331_34544.JPEG	106.10109400749207	1.8540210723876953
49	74.52977299690247	response	0	k		47.0	/home/egter/Projects/stimuli/pictures/n01496331_34544.JPEG	107.94610810279846	
50	74.53877997398376	picture	0		92.0	48.0	/home/egter/Projects/stimuli/pictures/n03633091_24188.JPEG	107.95511507987976	0.7708089351654053
50	75.29646492004395	response	0	k		48.0	/home/egter/Projects/stimuli/pictures/n03633091_24188.JPEG	108.71280002593994	
51	75.30958890914917	picture	0		105.0	49.0	/home/egter/Projects/stimuli/pictures/S_yt-Nnt51ug6NF8_53.png	108.72592401504517	0.8818681240081787
51	76.17285203933716	response	0	j		49.0	/home/egter/Projects/stimuli/pictures/S_yt-Nnt51ug6NF8_53.png	109.58918714523315	
52	76.19145703315735	picture	0		860.0	50.0	/home/egter/Projects/stimuli/pictures/ILSVRC2012_test_00038372.JPEG	109.60779213905334	7.171527862548828
52	83.3464560508728	response	0	k		50.0	/home/egter/Projects/stimuli/pictures/ILSVRC2012_test_00038372.JPEG	116.7627911567688	
53	83.36298489570618	picture	0		143.0	51.0	/home/egter/Projects/stimuli/pictures/R_S_yt-yJmHtBFyhH4_15.png	116.77932000160217	1.1999640464782715
53	84.54640102386475	response	0	k		51.0	/home/egter/Projects/stimuli/pictures/R_S_yt-yJmHtBFyhH4_15.png	117.96273612976074	
54	84.56294894218445	picture	0		191.0	52.0	/home/egter/Projects/stimuli/pictures/n13052670_528.JPEG	117.97928404808044	1.5936870574951172
54	86.14642000198364	response	0	k		52.0	/home/egter/Projects/stimuli/pictures/n13052670_528.JPEG	119.56275510787964	
55	86.15663599967957	picture	0		83.0	53.0	/home/egter/Projects/stimuli/pictures/S_yt-q9kT_c9QjbQ_34.png	119.57297110557556	0.6944999694824219
55	86.8380138874054	response	0	j		53.0	/home/egter/Projects/stimuli/pictures/S_yt-q9kT_c9QjbQ_34.png	120.25434899330139	
56	86.85113596916199	picture	0		148.0	54.0	/home/egter/Projects/stimuli/pictures/R_S_ILSVRC2015_train_00368000.png	120.26747107505798	1.2291300296783447
56	88.07137203216553	response	0	k		54.0	/home/egter/Projects/stimuli/pictures/R_S_ILSVRC2015_train_00368000.png	121.48770713806152	
57	88.08026599884033	picture	0		106.0	55.0	/home/egter/Projects/stimuli/pictures/R_S_DL_B002_C011_SDR_20191122_SDR_2K_AVC.png	121.49660110473633	0.8890759944915771
57	88.95534896850586	response	0	j		55.0	/home/egter/Projects/stimuli/pictures/R_S_DL_B002_C011_SDR_20191122_SDR_2K_AVC.png	122.37168407440186	
58	88.96934199333191	picture	0		847.0	56.0	/home/egter/Projects/stimuli/pictures/n13133613_15992.JPEG	122.3856770992279	7.062187910079956
58	96.01449298858643	response	0	k		56.0	/home/egter/Projects/stimuli/pictures/n13133613_15992.JPEG	129.43082809448242	
59	96.03152990341187	picture	0		185.0	57.0	/home/egter/Projects/stimuli/pictures/n02641379_2270.JPEG	129.44786500930786	1.5416769981384277
59	97.56299805641174	response	0	k		57.0	/home/egter/Projects/stimuli/pictures/n02641379_2270.JPEG	130.97933316230774	
60	97.5732069015503	picture	0		122.0	58.0	/home/egter/Projects/stimuli/pictures/S_pexels-mikhail-nilov-8410084.png	130.9895420074463	1.0209321975708008
60	98.58025097846985	response	0	j		58.0	/home/egter/Projects/stimuli/pictures/S_pexels-mikhail-nilov-8410084.png	131.99658608436584	
61	98.5941390991211	picture	0		138.0	59.0	/home/egter/Projects/stimuli/pictures/S_production_ID_4820331.png	132.0104742050171	1.1526498794555664
61	99.73793911933899	response	0	k		59.0	/home/egter/Projects/stimuli/pictures/S_production_ID_4820331.png	133.15427422523499	
62	99.74678897857666	picture	0		303.0	60.0	/home/egter/Projects/stimuli/pictures/S_yt-5AI_SyK5sg8_112.png	133.16312408447266	2.5277459621429443
62	102.26312708854675	response	0	k		60.0	/home/egter/Projects/stimuli/pictures/S_yt-5AI_SyK5sg8_112.png	135.67946219444275	
63	102.2745349407196	picture	0		107.0	61.0	/home/egter/Projects/stimuli/pictures/R_S_pexels-c-technical-6754008.png	135.6908700466156	0.8888809680938721
63	103.15467309951782	response	0	j		61.0	/home/egter/Projects/stimuli/pictures/R_S_pexels-c-technical-6754008.png	136.57100820541382	
64	103.16341590881348	picture	0		933.0	62.0	/home/egter/Projects/stimuli/pictures/S_yt-aVKIgTiQp9A_29.png	136.57975101470947	7.777691125869751
64	110.92960000038147	response	0	k		62.0	/home/egter/Projects/stimuli/pictures/S_yt-aVKIgTiQp9A_29.png	144.34593510627747	
65	110.94110703468323	picture	0		176.0	63.0	/home/egter/Projects/stimuli/pictures/n01798484_12395.JPEG	144.35744214057922	1.4652950763702393
65	112.38943600654602	response	0	k		63.0	/home/egter/Projects/stimuli/pictures/n01798484_12395.JPEG	145.80577111244202	
66	112.40640211105347	picture	0		79.0	64.0	/home/egter/Projects/stimuli/pictures/n02125311_38939.JPEG	145.82273721694946	0.6596708297729492
66	113.0546019077301	response	0	k		64.0	/home/egter/Projects/stimuli/pictures/n02125311_38939.JPEG	146.4709370136261	
67	113.06607294082642	picture	0		103.0	65.0	/home/egter/Projects/stimuli/pictures/R_S_yt-I2n2eo2zoZs_112.png	146.4824080467224	0.8614590167999268
67	113.91343092918396	response	0	j		65.0	/home/egter/Projects/stimuli/pictures/R_S_yt-I2n2eo2zoZs_112.png	147.32976603507996	
68	113.92753195762634	picture	0		411.0	66.0	/home/egter/Projects/stimuli/pictures/n03868242_1825.JPEG	147.34386706352234	3.430182933807373
68	117.34634304046631	response	0	j		66.0	/home/egter/Projects/stimuli/pictures/n03868242_1825.JPEG	150.7626781463623	
69	117.35771489143372	picture	0		95.0	67.0	/home/egter/Projects/stimuli/pictures/n04141327_6475.JPEG	150.7740499973297	0.7916731834411621
69	118.13788795471191	response	0	k		67.0	/home/egter/Projects/stimuli/pictures/n04141327_6475.JPEG	151.5542230606079	
70	118.14938807487488	picture	0		104.0	68.0	/home/egter/Projects/stimuli/pictures/S_comp_DB_D011_C010_PSNK_DENOISE_v19_SDR_PS_20180914_SDR_2K_AVC.png	151.56572318077087	0.8680858612060547
70	118.99832892417908	response	0	k		68.0	/home/egter/Projects/stimuli/pictures/S_comp_DB_D011_C010_PSNK_DENOISE_v19_SDR_PS_20180914_SDR_2K_AVC.png	152.41466403007507	
71	119.01747393608093	picture	0		92.0	69.0	/home/egter/Projects/stimuli/pictures/R_S_yt-5AI_SyK5sg8_112.png	152.43380904197693	0.763862133026123
71	119.77121996879578	response	0	k		69.0	/home/egter/Projects/stimuli/pictures/R_S_yt-5AI_SyK5sg8_112.png	153.18755507469177	
72	119.78133606910706	picture	0		84.0	70.0	/home/egter/Projects/stimuli/pictures/n01737021_11056.JPEG	153.19767117500305	0.7015290260314941
72	120.47118210792542	response	0	k		70.0	/home/egter/Projects/stimuli/pictures/n01737021_11056.JPEG	153.8875172138214	
73	120.48286509513855	picture	0		76.0	71.0	/home/egter/Projects/stimuli/pictures/n13037406_283.JPEG	153.89920020103455	0.6317589282989502
73	121.10454607009888	response	0	k		71.0	/home/egter/Projects/stimuli/pictures/n13037406_283.JPEG	154.52088117599487	
74	121.1146240234375	picture	0		80.0	72.0	/home/egter/Projects/stimuli/pictures/n02172182_1393.JPEG	154.5309591293335	0.6666650772094727
74	121.77122807502747	response	0	k		72.0	/home/egter/Projects/stimuli/pictures/n02172182_1393.JPEG	155.18756318092346	
75	121.78128910064697	picture	0		128.0	73.0	/home/egter/Projects/stimuli/pictures/R_S_production_ID_3709168.png	155.19762420654297	1.0695128440856934
75	122.83798003196716	response	0	k		73.0	/home/egter/Projects/stimuli/pictures/R_S_production_ID_3709168.png	156.25431513786316	
76	122.85080194473267	picture	0		64.0	74.0	/home/egter/Projects/stimuli/pictures/n12985857_1291.JPEG	156.26713705062866	0.5416080951690674
76	123.37954711914062	response	0	k		74.0	/home/egter/Projects/stimuli/pictures/n12985857_1291.JPEG	156.79588222503662	
77	123.39241003990173	picture	0		67.0	75.0	/home/egter/Projects/stimuli/pictures/n01498041_2018.JPEG	156.80874514579773	0.5624880790710449
77	123.94622111320496	response	0	k		75.0	/home/egter/Projects/stimuli/pictures/n01498041_2018.JPEG	157.36255621910095	
78	123.95489811897278	picture	0		65.0	76.0	/home/egter/Projects/stimuli/pictures/n01735189_1313.JPEG	157.37123322486877	0.5416679382324219
78	124.488028049469	response	0	k		76.0	/home/egter/Projects/stimuli/pictures/n01735189_1313.JPEG	157.904363155365	
79	124.4965660572052	picture	0		119.0	77.0	/home/egter/Projects/stimuli/pictures/S_ILSVRC2015_train_00251004.png	157.9129011631012	0.9930579662322998
79	125.47956395149231	response	0	k		77.0	/home/egter/Projects/stimuli/pictures/S_ILSVRC2015_train_00251004.png	158.8958990573883	
80	125.4896240234375	picture	0		85.0	78.0	/home/egter/Projects/stimuli/pictures/R_S_yt-uX7qYKQm_pg_277.png	158.9059591293335	0.7083580493927002
80	126.18788194656372	response	0	j		78.0	/home/egter/Projects/stimuli/pictures/R_S_yt-uX7qYKQm_pg_277.png	159.60421705245972	
81	126.1979820728302	picture	0		107.0	79.0	/home/egter/Projects/stimuli/pictures/n02910353_15304.JPEG	159.6143171787262	0.895831823348999
81	127.0799880027771	response	0	k		79.0	/home/egter/Projects/stimuli/pictures/n02910353_15304.JPEG	160.4963231086731	
82	127.0938138961792	picture	0		113.0	80.0	/home/egter/Projects/stimuli/pictures/n13044778_4662.JPEG	160.5101490020752	0.9444501399993896
82	128.02270412445068	response	0	k		80.0	/home/egter/Projects/stimuli/pictures/n13044778_4662.JPEG	161.43903923034668	
83	128.0382640361786	picture	0		81.0	81.0	/home/egter/Projects/stimuli/pictures/n01665541_21853.JPEG	161.45459914207458	0.6809048652648926
83	128.70500111579895	response	0	k		81.0	/home/egter/Projects/stimuli/pictures/n01665541_21853.JPEG	162.12133622169495	
84	128.71916890144348	picture	0		131.0	82.0	/home/egter/Projects/stimuli/pictures/S_wc-0SAXOWjdNVGC_8.png	162.13550400733948	1.096801996231079
84	129.7977249622345	response	0	j		82.0	/home/egter/Projects/stimuli/pictures/S_wc-0SAXOWjdNVGC_8.png	163.2140600681305	
85	129.81597089767456	picture	0		111.0	83.0	/home/egter/Projects/stimuli/pictures/R_S_yt-jYSri2JVUqo_1036.png	163.23230600357056	0.9235692024230957
85	130.7295310497284	response	0	j		83.0	/home/egter/Projects/stimuli/pictures/R_S_yt-jYSri2JVUqo_1036.png	164.1458661556244	
86	130.73954010009766	picture	0		95.0	84.0	/home/egter/Projects/stimuli/pictures/S_yt-lCb_efvJcdE_5.png	164.15587520599365	0.79166579246521
86	131.52118301391602	response	0	j		84.0	/home/egter/Projects/stimuli/pictures/S_yt-lCb_efvJcdE_5.png	164.937518119812	
87	131.53120589256287	picture	0		116.0	85.0	/home/egter/Projects/stimuli/pictures/R_S_yt-CR86bVrRwfo_13.png	164.94754099845886	0.9652831554412842
87	132.48788809776306	response	0	j		85.0	/home/egter/Projects/stimuli/pictures/R_S_yt-CR86bVrRwfo_13.png	165.90422320365906	
88	132.49648904800415	picture	0		110.0	86.0	/home/egter/Projects/stimuli/pictures/n01641577_6777.JPEG	165.91282415390015	0.9166660308837891
88	133.39766812324524	response	0	k		86.0	/home/egter/Projects/stimuli/pictures/n01641577_6777.JPEG	166.81400322914124	
89	133.41315507888794	picture	0		116.0	87.0	/home/egter/Projects/stimuli/pictures/S_yt-Uih643A1YtA_110.png	166.82949018478394	0.9723408222198486
89	134.37153100967407	response	0	k		87.0	/home/egter/Projects/stimuli/pictures/S_yt-Uih643A1YtA_110.png	167.78786611557007	
90	134.3854959011078	picture	0		69.0	88.0	/home/egter/Projects/stimuli/pictures/n01740131_15653.JPEG	167.80183100700378	0.5832531452178955
90	134.95489692687988	response	0	k		88.0	/home/egter/Projects/stimuli/pictures/n01740131_15653.JPEG	168.37123203277588	
91	134.96874904632568	picture	0		195.0	89.0	/home/egter/Projects/stimuli/pictures/n12985857_1321.JPEG	168.38508415222168	1.6319620609283447
91	136.58785390853882	response	0	k		89.0	/home/egter/Projects/stimuli/pictures/n12985857_1321.JPEG	170.00418901443481	
92	136.60071110725403	picture	0		112.0	90.0	/home/egter/Projects/stimuli/pictures/n04258138_17204.JPEG	170.01704621315002	0.9376349449157715
92	137.52950501441956	response	0	k		90.0	/home/egter/Projects/stimuli/pictures/n04258138_17204.JPEG	170.94584012031555	
93	137.5383460521698	picture	0		129.0	91.0	/home/egter/Projects/stimuli/pictures/S_ILSVRC2015_train_00697001.png	170.9546811580658	1.0761349201202393
93	138.597589969635	response	0	j		91.0	/home/egter/Projects/stimuli/pictures/S_ILSVRC2015_train_00697001.png	172.013925075531	
94	138.61448097229004	picture	0		108.0	92.0	/home/egter/Projects/stimuli/pictures/n02484975_10704.JPEG	172.03081607818604	0.9028000831604004
94	139.50445294380188	response	0	k		92.0	/home/egter/Projects/stimuli/pictures/n02484975_10704.JPEG	172.92078804969788	
95	139.51728105545044	picture	0		73.0	93.0	/home/egter/Projects/stimuli/pictures/n03843555_7641.JPEG	172.93361616134644	0.6184158325195312
95	140.12150692939758	response	0	k		93.0	/home/egter/Projects/stimuli/pictures/n03843555_7641.JPEG	173.53784203529358	
96	140.13569688796997	picture	0		67.0	94.0	/home/egter/Projects/stimuli/pictures/n03673027_33261.JPEG	173.55203199386597	0.562122106552124
96	140.68781399726868	response	0	k		94.0	/home/egter/Projects/stimuli/pictures/n03673027_33261.JPEG	174.10414910316467	
97	140.6978189945221	picture	0		89.0	95.0	/home/egter/Projects/stimuli/pictures/n03444034_2491.JPEG	174.1141541004181	0.7430479526519775
97	141.42271399497986	response	0	k		95.0	/home/egter/Projects/stimuli/pictures/n03444034_2491.JPEG	174.83904910087585	
98	141.44086694717407	picture	0		291.0	96.0	/home/egter/Projects/stimuli/pictures/n03764736_20813.JPEG	174.85720205307007	2.423572063446045
98	143.85448694229126	response	0	k		96.0	/home/egter/Projects/stimuli/pictures/n03764736_20813.JPEG	177.27082204818726	
99	143.86443901062012	picture	0		97.0	97.0	/home/egter/Projects/stimuli/pictures/n03272010_3346.JPEG	177.2807741165161	0.8149979114532471
99	144.66314005851746	response	0	k		97.0	/home/egter/Projects/stimuli/pictures/n03272010_3346.JPEG	178.07947516441345	
100	144.67943692207336	picture	0		208.0	98.0	/home/egter/Projects/stimuli/pictures/S_G007_C004_UHD_SDR_2K_AVC.png	178.09577202796936	1.7336070537567139
100	146.40447092056274	response	0	j		98.0	/home/egter/Projects/stimuli/pictures/S_G007_C004_UHD_SDR_2K_AVC.png	179.82080602645874	
101	146.41304397583008	picture	0		72.0	99.0	/home/egter/Projects/stimuli/pictures/n04074963_38021.JPEG	179.82937908172607	0.604140043258667
101	146.997878074646	response	0	k		99.0	/home/egter/Projects/stimuli/pictures/n04074963_38021.JPEG	180.414213180542	
102	147.01718401908875	picture	0		105.0	100.0	/home/egter/Projects/stimuli/pictures/S_yt-NqyG4Ar2JWo_10.png	180.43351912498474	0.8750860691070557
102	147.87945199012756	response	0	k		100.0	/home/egter/Projects/stimuli/pictures/S_yt-NqyG4Ar2JWo_10.png	181.29578709602356	
103	147.8922700881958	picture	0		97.0	101.0	/home/egter/Projects/stimuli/pictures/ILSVRC2012_test_00081119.JPEG	181.3086051940918	0.8054699897766113
103	148.68784308433533	response	0	k		101.0	/home/egter/Projects/stimuli/pictures/ILSVRC2012_test_00081119.JPEG	182.10417819023132	
104	148.6977400779724	picture	0		85.0	102.0	/home/egter/Projects/stimuli/pictures/R_S_DV6V38rplag_215.png	182.1140751838684	0.7083239555358887
104	149.39611506462097	response	0	j		102.0	/home/egter/Projects/stimuli/pictures/R_S_DV6V38rplag_215.png	182.81245017051697	
105	149.4060640335083	picture	0		88.0	103.0	/home/egter/Projects/stimuli/pictures/R_S_yt-icd9UxxxeW0_255.png	182.8223991394043	0.7361400127410889
105	150.12943196296692	response	0	j		103.0	/home/egter/Projects/stimuli/pictures/R_S_yt-icd9UxxxeW0_255.png	183.54576706886292	
106	150.1422040462494	picture	0		75.0	104.0	/home/egter/Projects/stimuli/pictures/S_yt-FsylDeYfcxU_24.png	183.55853915214539	0.6250009536743164
106	150.7544391155243	response	0	j		104.0	/home/egter/Projects/stimuli/pictures/S_yt-FsylDeYfcxU_24.png	184.1707742214203	
107	150.7672049999237	picture	0		106.0	105.0	/home/egter/Projects/stimuli/pictures/S_yt-F3B1i_Yt8_o_20.png	184.1835401058197	0.8818559646606445
107	151.6308789253235	response	0	k		105.0	/home/egter/Projects/stimuli/pictures/S_yt-F3B1i_Yt8_o_20.png	185.04721403121948	
108	151.64906096458435	picture	0		105.0	106.0	/home/egter/Projects/stimuli/pictures/n03345487_7295.JPEG	185.06539607048035	0.875028133392334
108	152.51278591156006	response	0	k		106.0	/home/egter/Projects/stimuli/pictures/n03345487_7295.JPEG	185.92912101745605	
109	152.52408909797668	picture	0		92.0	107.0	/home/egter/Projects/stimuli/pictures/S_pexels-anna-tarazevich-6189268.png	185.94042420387268	0.7638459205627441
109	153.27941489219666	response	0	j		107.0	/home/egter/Projects/stimuli/pictures/S_pexels-anna-tarazevich-6189268.png	186.69574999809265	
110	153.28793501853943	picture	0		121.0	108.0	/home/egter/Projects/stimuli/pictures/R_S_yt-xBwq6sHHF5M_21.png	186.70427012443542	1.0139820575714111
110	154.28804206848145	response	0	j		108.0	/home/egter/Projects/stimuli/pictures/R_S_yt-xBwq6sHHF5M_21.png	187.70437717437744	
111	154.30191707611084	picture	0		120.0	109.0	/home/egter/Projects/stimuli/pictures/R_S_yt-11S5tcT2Tm0_254.png	187.71825218200684	1.0069339275360107
111	155.29611802101135	response	0	j		109.0	/home/egter/Projects/stimuli/pictures/R_S_yt-11S5tcT2Tm0_254.png	188.71245312690735	
112	155.30885100364685	picture	0		105.0	110.0	/home/egter/Projects/stimuli/pictures/R_S_yt-HwEfWfFJhRo_73.png	188.72518610954285	0.8749949932098389
112	156.17108607292175	response	0	j		110.0	/home/egter/Projects/stimuli/pictures/R_S_yt-HwEfWfFJhRo_73.png	189.58742117881775	
113	156.1838459968567	picture	0		95.0	111.0	/home/egter/Projects/stimuli/pictures/S_yt-cokedWwwYYs_136.png	189.60018110275269	0.7985119819641113
113	156.97112703323364	response	0	j		111.0	/home/egter/Projects/stimuli/pictures/S_yt-cokedWwwYYs_136.png	190.38746213912964	
114	156.9823579788208	picture	0		98.0	112.0	/home/egter/Projects/stimuli/pictures/n02268853_14231.JPEG	190.3986930847168	0.8195221424102783
114	157.7880129814148	response	0	k		112.0	/home/egter/Projects/stimuli/pictures/n02268853_14231.JPEG	191.2043480873108	
115	157.80188012123108	picture	0		94.0	113.0	/home/egter/Projects/stimuli/pictures/S_yt-ILARvS15SDQ_741.png	191.21821522712708	0.7919328212738037
115	158.57962799072266	response	0	j		113.0	/home/egter/Projects/stimuli/pictures/S_yt-ILARvS15SDQ_741.png	191.99596309661865	
116	158.59381294250488	picture	0		94.0	114.0	/home/egter/Projects/stimuli/pictures/n02704792_3609.JPEG	192.01014804840088	0.7916359901428223
116	159.3713300228119	response	0	k		114.0	/home/egter/Projects/stimuli/pictures/n02704792_3609.JPEG	192.78766512870789	
117	159.3854489326477	picture	0		103.0	115.0	/home/egter/Projects/stimuli/pictures/S_yt-l_ioasf6yHg_44.png	192.8017840385437	0.860741138458252
117	160.23091006278992	response	0	j		115.0	/home/egter/Projects/stimuli/pictures/S_yt-l_ioasf6yHg_44.png	193.6472451686859	
118	160.24619007110596	picture	0		94.0	116.0	/home/egter/Projects/stimuli/pictures/S_yt-FbCVXEJicis_5.png	193.66252517700195	0.7847650051116943
118	161.01420497894287	response	0	k		116.0	/home/egter/Projects/stimuli/pictures/S_yt-FbCVXEJicis_5.png	194.43054008483887	
119	161.03095507621765	picture	0		195.0	117.0	/home/egter/Projects/stimuli/pictures/S_yt-T1mMDOVjvrE_83.png	194.44729018211365	1.6249690055847168
119	162.64611911773682	response	0	k		117.0	/home/egter/Projects/stimuli/pictures/S_yt-T1mMDOVjvrE_83.png	196.0624542236328	
120	162.65592408180237	picture	0		246.0	118.0	/home/egter/Projects/stimuli/pictures/n02326432_5125.JPEG	196.07225918769836	2.0485668182373047
120	164.69606590270996	response	0	k		118.0	/home/egter/Projects/stimuli/pictures/n02326432_5125.JPEG	198.11240100860596	
121	164.70449090003967	picture	0		120.0	119.0	/home/egter/Projects/stimuli/pictures/R_S_yt-Xq6uX1jfFRk_21.png	198.12082600593567	0.9999990463256836
121	165.6960210800171	response	0	j		119.0	/home/egter/Projects/stimuli/pictures/R_S_yt-Xq6uX1jfFRk_21.png	199.1123561859131	
122	165.70448994636536	picture	0		104.0	120.0	/home/egter/Projects/stimuli/pictures/R_S_yt-XF0fyyFEgWo_280.png	199.12082505226135	0.8680469989776611
122	166.5626940727234	response	0	k		120.0	/home/egter/Projects/stimuli/pictures/R_S_yt-XF0fyyFEgWo_280.png	199.97902917861938	
123	166.57253694534302	picture	0		133.0	121.0	/home/egter/Projects/stimuli/pictures/S_yt-BLH14fgz6RM_32.png	199.988872051239	1.1111869812011719
123	167.6710889339447	response	0	k		121.0	/home/egter/Projects/stimuli/pictures/S_yt-BLH14fgz6RM_32.png	201.0874240398407	
124	167.6837239265442	picture	0		102.0	122.0	/home/egter/Projects/stimuli/pictures/S_yt-H45g6700wbc_159.png	201.10005903244019	0.8540291786193848
124	168.52937293052673	response	0	j		122.0	/home/egter/Projects/stimuli/pictures/S_yt-H45g6700wbc_159.png	201.94570803642273	
125	168.53775310516357	picture	0		95.0	123.0	/home/egter/Projects/stimuli/pictures/R_S_meta-11482036_235.png	201.95408821105957	0.7917139530181885
125	169.3210608959198	response	0	j		123.0	/home/egter/Projects/stimuli/pictures/R_S_meta-11482036_235.png	202.7373960018158	
126	169.32946705818176	picture	0		78.0	124.0	/home/egter/Projects/stimuli/pictures/S_pexels-nkem-6237382.png	202.74580216407776	0.6527628898620605
126	169.9710419178009	response	0	j		124.0	/home/egter/Projects/stimuli/pictures/S_pexels-nkem-6237382.png	203.3873770236969	
127	169.98222994804382	picture	0		79.0	125.0	/home/egter/Projects/stimuli/pictures/n01749939_6217.JPEG	203.39856505393982	0.659822940826416
127	170.62277507781982	response	0	k		125.0	/home/egter/Projects/stimuli/pictures/n01749939_6217.JPEG	204.03911018371582	
128	170.64205288887024	picture	0		84.0	126.0	/home/egter/Projects/stimuli/pictures/n04335435_7886.JPEG	204.05838799476624	0.7015390396118164
128	171.32953810691833	response	0	k		126.0	/home/egter/Projects/stimuli/pictures/n04335435_7886.JPEG	204.74587321281433	
129	171.34359192848206	picture	0		73.0	127.0	/home/egter/Projects/stimuli/pictures/S_yt-VfASxEzDrvc_145.png	204.75992703437805	0.6190690994262695
129	171.94604396820068	response	0	j		127.0	/home/egter/Projects/stimuli/pictures/S_yt-VfASxEzDrvc_145.png	205.36237907409668	
130	171.96266102790833	picture	0		143.0	128.0	/home/egter/Projects/stimuli/pictures/S_ILSVRC2015_train_00044004.png	205.37899613380432	1.1931898593902588
130	173.14603900909424	response	0	j		128.0	/home/egter/Projects/stimuli/pictures/S_ILSVRC2015_train_00044004.png	206.56237411499023	
131	173.15585088729858	picture	0		89.0	129.0	/home/egter/Projects/stimuli/pictures/n02107908_11245.JPEG	206.57218599319458	0.7430150508880615
131	173.88770198822021	response	0	k		129.0	/home/egter/Projects/stimuli/pictures/n02107908_11245.JPEG	207.3040370941162	
132	173.89886593818665	picture	0		173.0	130.0	/home/egter/Projects/stimuli/pictures/S_comp_DB_D001_C005_COMP_PSNK_v12_SDR_PS_20180912_SDR_2K_AVC.png	207.31520104408264	1.444504976272583
132	175.32948112487793	response	0	k		130.0	/home/egter/Projects/stimuli/pictures/S_comp_DB_D001_C005_COMP_PSNK_v12_SDR_PS_20180912_SDR_2K_AVC.png	208.74581623077393	
133	175.34337091445923	picture	0		73.0	131.0	/home/egter/Projects/stimuli/pictures/S_yt-pOCEuqVE7ro_61.png	208.75970602035522	0.610990047454834
133	175.94601392745972	response	0	k		131.0	/home/egter/Projects/stimuli/pictures/S_yt-pOCEuqVE7ro_61.png	209.3623490333557	
134	175.95436096191406	picture	0		73.0	132.0	/home/egter/Projects/stimuli/pictures/n01667778_16183.JPEG	209.37069606781006	0.6111280918121338
134	176.55433797836304	response	0	k		132.0	/home/egter/Projects/stimuli/pictures/n01667778_16183.JPEG	209.97067308425903	
135	176.5654890537262	picture	0		244.0	133.0	/home/egter/Projects/stimuli/pictures/S_yt-2mjHDSH1Yvg_90.png	209.9818241596222	2.034708023071289
135	178.5876760482788	response	0	k		133.0	/home/egter/Projects/stimuli/pictures/S_yt-2mjHDSH1Yvg_90.png	212.0040111541748	
136	178.60019707679749	picture	0		79.0	134.0	/home/egter/Projects/stimuli/pictures/n07579787_11484.JPEG	212.01653218269348	0.6667089462280273
136	179.25430512428284	response	0	k		134.0	/home/egter/Projects/stimuli/pictures/n07579787_11484.JPEG	212.67064023017883	
137	179.2669060230255	picture	0		72.0	135.0	/home/egter/Projects/stimuli/pictures/n01496331_30523.JPEG	212.6832411289215	0.5971970558166504
137	179.85443091392517	response	0	k		135.0	/home/egter/Projects/stimuli/pictures/n01496331_30523.JPEG	213.27076601982117	
138	179.86410307884216	picture	0		71.0	136.0	/home/egter/Projects/stimuli/pictures/n01914609_116.JPEG	213.28043818473816	0.5902299880981445
138	180.43918299674988	response	0	k		136.0	/home/egter/Projects/stimuli/pictures/n01914609_116.JPEG	213.85551810264587	
139	180.4543330669403	picture	0		97.0	137.0	/home/egter/Projects/stimuli/pictures/S_yt-e5ua5Pj86E4_140.png	213.8706681728363	0.8125300407409668
139	181.25432801246643	response	0	k		137.0	/home/egter/Projects/stimuli/pictures/S_yt-e5ua5Pj86E4_140.png	214.67066311836243	
140	181.26686310768127	picture	0		73.0	138.0	/home/egter/Projects/stimuli/pictures/R_S_yt-lCb_efvJcdE_5.png	214.68319821357727	0.6041347980499268
140	181.86266207695007	response	0	j		138.0	/home/egter/Projects/stimuli/pictures/R_S_yt-lCb_efvJcdE_5.png	215.27899718284607	
141	181.8709979057312	picture	0		122.0	139.0	/home/egter/Projects/stimuli/pictures/R_S_yt-5ws2gxbcjs4_381.png	215.2873330116272	1.0208630561828613
141	182.87929391860962	response	0	j		139.0	/home/egter/Projects/stimuli/pictures/R_S_yt-5ws2gxbcjs4_381.png	216.29562902450562	
142	182.89186096191406	picture	0		82.0	140.0	/home/egter/Projects/stimuli/pictures/n02441942_287.JPEG	216.30819606781006	0.6874220371246338
142	183.57100701332092	response	0	k		140.0	/home/egter/Projects/stimuli/pictures/n02441942_287.JPEG	216.98734211921692	
143	183.5792829990387	picture	0		106.0	141.0	/home/egter/Projects/stimuli/pictures/R_S_yt-YLcmfyfIokU_64.png	216.9956181049347	0.8889100551605225
143	184.45445489883423	response	0	j		141.0	/home/egter/Projects/stimuli/pictures/R_S_yt-YLcmfyfIokU_64.png	217.87079000473022	
144	184.46819305419922	picture	0		118.0	142.0	/home/egter/Projects/stimuli/pictures/S_yt-yJmHtBFyhH4_15.png	217.88452816009521	0.9860949516296387
144	185.43922805786133	response	0	j		142.0	/home/egter/Projects/stimuli/pictures/S_yt-yJmHtBFyhH4_15.png	218.85556316375732	
145	185.45428800582886	picture	0		79.0	143.0	/home/egter/Projects/stimuli/pictures/R_S_yt-Nnt51ug6NF8_53.png	218.87062311172485	0.6597859859466553
145	186.10424304008484	response	0	j		143.0	/home/egter/Projects/stimuli/pictures/R_S_yt-Nnt51ug6NF8_53.png	219.52057814598083	
146	186.1140739917755	picture	0		93.0	144.0	/home/egter/Projects/stimuli/pictures/n02346627_989.JPEG	219.5304090976715	0.7777800559997559
146	186.87928199768066	response	0	k		144.0	/home/egter/Projects/stimuli/pictures/n02346627_989.JPEG	220.29561710357666	
147	186.89185404777527	picture	0		130.0	145.0	/home/egter/Projects/stimuli/pictures/R_S_ILSVRC2015_train_00756000.png	220.30818915367126	1.090195894241333
147	187.97098112106323	response	0	j		145.0	/home/egter/Projects/stimuli/pictures/R_S_ILSVRC2015_train_00756000.png	221.38731622695923	
148	187.9820499420166	picture	0		105.0	146.0	/home/egter/Projects/stimuli/pictures/S_yt-4r-oovk9JWg_85.png	221.3983850479126	0.875014066696167
148	188.8391010761261	response	0	j		146.0	/home/egter/Projects/stimuli/pictures/S_yt-4r-oovk9JWg_85.png	222.2554361820221	
149	188.85706400871277	picture	0		128.0	147.0	/home/egter/Projects/stimuli/pictures/n02138441_10759.JPEG	222.27339911460876	1.0694899559020996
149	189.91275596618652	response	0	j		147.0	/home/egter/Projects/stimuli/pictures/n02138441_10759.JPEG	223.32909107208252	
150	189.92655396461487	picture	0		116.0	148.0	/home/egter/Projects/stimuli/pictures/R_S_yt-c5_SFS4aaJI_1102.png	223.34288907051086	0.972196102142334
150	190.88758897781372	response	0	j		148.0	/home/egter/Projects/stimuli/pictures/R_S_yt-c5_SFS4aaJI_1102.png	224.30392408370972	
151	190.8987500667572	picture	0		77.0	149.0	/home/egter/Projects/stimuli/pictures/R_S_yt-q9kT_c9QjbQ_34.png	224.3150851726532	0.6388030052185059
151	191.52921199798584	response	0	j		149.0	/home/egter/Projects/stimuli/pictures/R_S_yt-q9kT_c9QjbQ_34.png	224.94554710388184	
152	191.5375530719757	picture	0		85.0	150.0	/home/egter/Projects/stimuli/pictures/n01667778_10136.JPEG	224.9538881778717	0.7083139419555664
152	192.2307789325714	response	0	k		150.0	/home/egter/Projects/stimuli/pictures/n01667778_10136.JPEG	225.6471140384674	
153	192.24586701393127	picture	0		99.0	151.0	/home/egter/Projects/stimuli/pictures/R_S_b2-2.png	225.66220211982727	0.8264129161834717
153	193.05579900741577	response	0	k		151.0	/home/egter/Projects/stimuli/pictures/R_S_b2-2.png	226.47213411331177	
154	193.07227993011475	picture	0		107.0	152.0	/home/egter/Projects/stimuli/pictures/n09332890_44309.JPEG	226.48861503601074	0.8958921432495117
154	193.95431089401245	response	0	k		152.0	/home/egter/Projects/stimuli/pictures/n09332890_44309.JPEG	227.37064599990845	
155	193.96817207336426	picture	0		91.0	153.0	/home/egter/Projects/stimuli/pictures/S_yt-v8e_DlCsP4w_10.png	227.38450717926025	0.7638459205627441
155	194.72090792655945	response	0	j		153.0	/home/egter/Projects/stimuli/pictures/S_yt-v8e_DlCsP4w_10.png	228.13724303245544	
156	194.732017993927	picture	0		89.0	154.0	/home/egter/Projects/stimuli/pictures/R_S_yt-4r-oovk9JWg_85.png	228.148353099823	0.743117094039917
156	195.455796957016	response	0	j		154.0	/home/egter/Projects/stimuli/pictures/R_S_yt-4r-oovk9JWg_85.png	228.872132062912	
157	195.47513508796692	picture	0		106.0	155.0	/home/egter/Projects/stimuli/pictures/n09468604_3861.JPEG	228.89147019386292	0.8818328380584717
157	196.34593105316162	response	0	k		155.0	/home/egter/Projects/stimuli/pictures/n09468604_3861.JPEG	229.76226615905762	
158	196.3569679260254	picture	0		100.0	156.0	/home/egter/Projects/stimuli/pictures/R_S_yt-SgiTZNjCPCo_19.png	229.7733030319214	0.833367109298706
158	197.17928004264832	response	0	j		156.0	/home/egter/Projects/stimuli/pictures/R_S_yt-SgiTZNjCPCo_19.png	230.5956151485443	
159	197.1903350353241	picture	0		106.0	157.0	/home/egter/Projects/stimuli/pictures/n04146614_8153.JPEG	230.6066701412201	0.8819379806518555
159	198.05572700500488	response	0	k		157.0	/home/egter/Projects/stimuli/pictures/n04146614_8153.JPEG	231.47206211090088	
160	198.07227301597595	picture	0		79.0	158.0	/home/egter/Projects/stimuli/pictures/n01944390_39975.JPEG	231.48860812187195	0.6596920490264893
160	198.72094893455505	response	0	k		158.0	/home/egter/Projects/stimuli/pictures/n01944390_39975.JPEG	232.13728404045105	
161	198.73196506500244	picture	0		92.0	159.0	/home/egter/Projects/stimuli/pictures/R_S_yt-X6ivH9SqGu8_306.png	232.14830017089844	0.76385498046875
161	199.48754692077637	response	0	j		159.0	/home/egter/Projects/stimuli/pictures/R_S_yt-X6ivH9SqGu8_306.png	232.90388202667236	
162	199.4958200454712	picture	0		87.0	160.0	/home/egter/Projects/stimuli/pictures/S_yt-6KJ_yZR-Jco_14.png	232.9121551513672	0.7292299270629883
162	200.21257209777832	response	0	j		160.0	/home/egter/Projects/stimuli/pictures/S_yt-6KJ_yZR-Jco_14.png	233.62890720367432	
163	200.22504997253418	picture	0		87.0	161.0	/home/egter/Projects/stimuli/pictures/n02104029_52.JPEG	233.64138507843018	0.7221860885620117
163	200.93755507469177	response	0	k		161.0	/home/egter/Projects/stimuli/pictures/n02104029_52.JPEG	234.35389018058777	
164	200.9472360610962	picture	0		87.0	162.0	/home/egter/Projects/stimuli/pictures/n02814533_88199.JPEG	234.3635711669922	0.7292768955230713
164	201.66257405281067	response	0	k		162.0	/home/egter/Projects/stimuli/pictures/n02814533_88199.JPEG	235.07890915870667	
165	201.67651295661926	picture	0		65.0	163.0	/home/egter/Projects/stimuli/pictures/n01737021_18234.JPEG	235.09284806251526	0.5484850406646729
165	202.2125949859619	response	0	k		163.0	/home/egter/Projects/stimuli/pictures/n01737021_18234.JPEG	235.6289300918579	
166	202.22499799728394	picture	0		100.0	164.0	/home/egter/Projects/stimuli/pictures/n03729826_6276.JPEG	235.64133310317993	0.8333101272583008
166	203.03921008110046	response	0	k		164.0	/home/egter/Projects/stimuli/pictures/n03729826_6276.JPEG	236.45554518699646	
167	203.05830812454224	picture	0		79.0	165.0	/home/egter/Projects/stimuli/pictures/n12985857_6781.JPEG	236.47464323043823	0.6599838733673096
167	203.7042100429535	response	0	k		165.0	/home/egter/Projects/stimuli/pictures/n12985857_6781.JPEG	237.1205451488495	
168	203.71829199790955	picture	0		78.0	166.0	/home/egter/Projects/stimuli/pictures/n01675722_7072.JPEG	237.13462710380554	0.6525149345397949
168	204.36254906654358	response	0	k		166.0	/home/egter/Projects/stimuli/pictures/n01675722_7072.JPEG	237.77888417243958	
169	204.37080693244934	picture	0		105.0	167.0	/home/egter/Projects/stimuli/pictures/R_S_yt-ILARvS15SDQ_741.png	237.78714203834534	0.8833169937133789
169	205.2307939529419	response	0	j		167.0	/home/egter/Projects/stimuli/pictures/R_S_yt-ILARvS15SDQ_741.png	238.6471290588379	
170	205.25412392616272	picture	0		114.0	168.0	/home/egter/Projects/stimuli/pictures/S_yt-vMnSbsjGK9k_62.png	238.67045903205872	0.9502301216125488
170	206.1958909034729	response	0	k		168.0	/home/egter/Projects/stimuli/pictures/S_yt-vMnSbsjGK9k_62.png	239.6122260093689	
171	206.20435404777527	picture	0		86.0	169.0	/home/egter/Projects/stimuli/pictures/n03447447_524.JPEG	239.62068915367126	0.7220330238342285
171	206.9125258922577	response	0	k		169.0	/home/egter/Projects/stimuli/pictures/n03447447_524.JPEG	240.3288609981537	
172	206.9263870716095	picture	0		151.0	170.0	/home/egter/Projects/stimuli/pictures/S_yt-z46eFYG950M_222.png	240.3427221775055	1.2638769149780273
172	208.17918610572815	response	0	k		170.0	/home/egter/Projects/stimuli/pictures/S_yt-z46eFYG950M_222.png	241.59552121162415	
173	208.19026398658752	picture	0		164.0	171.0	/home/egter/Projects/stimuli/pictures/R_S_yt-fCjjH_4i8Fg_115.png	241.60659909248352	1.3679940700531006
173	209.54586696624756	response	0	j		171.0	/home/egter/Projects/stimuli/pictures/R_S_yt-fCjjH_4i8Fg_115.png	242.96220207214355	
174	209.55825805664062	picture	0		96.0	172.0	/home/egter/Projects/stimuli/pictures/R_S_yt-tfHCqgH1guY_235.png	242.97459316253662	0.7986149787902832
174	210.34588503837585	response	0	j		172.0	/home/egter/Projects/stimuli/pictures/R_S_yt-tfHCqgH1guY_235.png	243.76222014427185	
175	210.3568730354309	picture	0		96.0	173.0	/home/egter/Projects/stimuli/pictures/n02486261_20836.JPEG	243.7732081413269	0.798663854598999
175	211.1458580493927	response	0	k		173.0	/home/egter/Projects/stimuli/pictures/n02486261_20836.JPEG	244.5621931552887	
176	211.1555368900299	picture	0		96.0	174.0	/home/egter/Projects/stimuli/pictures/R_S_yt-fqbi4rGc9dk_65.png	244.5718719959259	0.8071751594543457
176	211.94724011421204	response	0	j		174.0	/home/egter/Projects/stimuli/pictures/R_S_yt-fqbi4rGc9dk_65.png	245.36357522010803	
177	211.96271204948425	picture	0		85.0	175.0	/home/egter/Projects/stimuli/pictures/S_yt-r7PeFd-hIp0_378.png	245.37904715538025	0.713615894317627
177	212.65573406219482	response	0	j		175.0	/home/egter/Projects/stimuli/pictures/S_yt-r7PeFd-hIp0_378.png	246.07206916809082	
178	212.67632794380188	picture	0		95.0	176.0	/home/egter/Projects/stimuli/pictures/n03721384_27521.JPEG	246.09266304969788	0.7986891269683838
178	213.4625129699707	response	0	k		176.0	/home/egter/Projects/stimuli/pictures/n03721384_27521.JPEG	246.8788480758667	
179	213.47501707077026	picture	0		87.0	177.0	/home/egter/Projects/stimuli/pictures/S_yt-jYSri2JVUqo_1036.png	246.89135217666626	0.7220849990844727
179	214.18751502037048	response	0	j		177.0	/home/egter/Projects/stimuli/pictures/S_yt-jYSri2JVUqo_1036.png	247.60385012626648	
180	214.19710206985474	picture	0		78.0	178.0	/home/egter/Projects/stimuli/pictures/S_yt-yQrDeFlFmfM_138.png	247.61343717575073	0.6528580188751221
180	214.83060598373413	response	0	j		178.0	/home/egter/Projects/stimuli/pictures/S_yt-yQrDeFlFmfM_138.png	248.24694108963013	
181	214.84996008872986	picture	0		76.0	179.0	/home/egter/Projects/stimuli/pictures/ILSVRC2012_test_00081923.JPEG	248.26629519462585	0.631882905960083
181	215.4708330631256	response	0	k		179.0	/home/egter/Projects/stimuli/pictures/ILSVRC2012_test_00081923.JPEG	248.8871681690216	
182	215.48184299468994	stim	0		1128.0			248.89817810058594	9.39728307723999
182	216.17912197113037	response	0	k				249.59545707702637	
182	224.87084889411926	response	0	space				258.28718400001526	
