trial_nr	onset	event_type	phase	response	nr_frames	picture_index	picture_file	onset_abs	duration
0	0.012498140335083008	stim	0		1882.0			36.45070719718933	15.696027994155884
0	14.093109130859375	response	0	return				50.53131818771362	
0	15.683633089065552	response	0	space				52.1218421459198	
2	15.708526134490967	picture	0		297.0	0.0	/home/egter/Projects/stimuli/pictures/S_yt-AJypa57HKqM_28.png	52.146735191345215	2.4751029014587402
2	18.17536211013794	response	0	k		0.0	/home/egter/Projects/stimuli/pictures/S_yt-AJypa57HKqM_28.png	54.61357116699219	
3	18.183629035949707	picture	0		96.0	1.0	/home/egter/Projects/stimuli/pictures/S_yt-gaCbT4RR9Tw_191.png	54.621838092803955	0.8056659698486328
3	18.975482940673828	response	0	j		1.0	/home/egter/Projects/stimuli/pictures/S_yt-gaCbT4RR9Tw_191.png	55.413691997528076	
4	18.98929500579834	picture	0		120.0	2.0	/home/egter/Projects/stimuli/pictures/S_yt-rbJOb1spY9M_16.png	55.42750406265259	1.0068919658660889
4	19.983654022216797	response	0	j		2.0	/home/egter/Projects/stimuli/pictures/S_yt-rbJOb1spY9M_16.png	56.421863079071045	
5	19.99618697166443	picture	0		122.0	3.0	/home/egter/Projects/stimuli/pictures/n01667778_22337.JPEG	56.43439602851868	1.037424087524414
5	21.00036311149597	response	0	k		3.0	/home/egter/Projects/stimuli/pictures/n01667778_22337.JPEG	57.43857216835022	
6	21.033611059188843	picture	0		92.0	4.0	/home/egter/Projects/stimuli/pictures/S_yt-HMAa2QbfFPI_216.png	57.47182011604309	0.7681329250335693
6	21.79201102256775	response	0	j		4.0	/home/egter/Projects/stimuli/pictures/S_yt-HMAa2QbfFPI_216.png	58.230220079422	
7	21.801743984222412	picture	0		82.0	5.0	/home/egter/Projects/stimuli/pictures/S_yt-BLmwmX-mni8_56.png	58.23995304107666	0.6901559829711914
7	22.475419998168945	response	0	j		5.0	/home/egter/Projects/stimuli/pictures/S_yt-BLmwmX-mni8_56.png	58.91362905502319	
8	22.491899967193604	picture	0		106.0	6.0	/home/egter/Projects/stimuli/pictures/R_S_wc-8bTJmWfuVyJ4_8.png	58.93010902404785	0.8861851692199707
8	23.366964101791382	response	0	j		6.0	/home/egter/Projects/stimuli/pictures/R_S_wc-8bTJmWfuVyJ4_8.png	59.80517315864563	
9	23.378085136413574	picture	0		125.0	7.0	/home/egter/Projects/stimuli/pictures/n09428293_16949.JPEG	59.81629419326782	1.0417089462280273
9	24.408643007278442	response	0	j		7.0	/home/egter/Projects/stimuli/pictures/n09428293_16949.JPEG	60.84685206413269	
10	24.4197940826416	picture	0		95.0	8.0	/home/egter/Projects/stimuli/pictures/S_yt--I4Ggi6-QOE_23.png	60.85800313949585	0.7916319370269775
10	25.200266122817993	response	0	j		8.0	/home/egter/Projects/stimuli/pictures/S_yt--I4Ggi6-QOE_23.png	61.63847517967224	
11	25.21142601966858	picture	0		132.0	9.0	/home/egter/Projects/stimuli/pictures/R_S_ILSVRC2015_train_00743002.png	61.64963507652283	1.09716796875
11	26.29346799850464	response	0	j		9.0	/home/egter/Projects/stimuli/pictures/R_S_ILSVRC2015_train_00743002.png	62.73167705535889	
12	26.30859398841858	picture	0		81.0	10.0	/home/egter/Projects/stimuli/pictures/S_yt-j-ifVbxZePQ_70.png	62.74680304527283	0.6806509494781494
12	26.975412130355835	response	0	j		10.0	/home/egter/Projects/stimuli/pictures/S_yt-j-ifVbxZePQ_70.png	63.41362118721008	
13	26.98924493789673	picture	0		100.0	11.0	/home/egter/Projects/stimuli/pictures/n03633091_18329.JPEG	63.42745399475098	0.8402791023254395
13	27.817014932632446	response	0	k		11.0	/home/egter/Projects/stimuli/pictures/n03633091_18329.JPEG	64.2552239894867	
14	27.829524040222168	picture	0		143.0	12.0	/home/egter/Projects/stimuli/pictures/n04310018_1024.JPEG	64.26773309707642	1.2013530731201172
14	29.017055988311768	response	0	k		12.0	/home/egter/Projects/stimuli/pictures/n04310018_1024.JPEG	65.45526504516602	
15	29.030877113342285	picture	0		107.0	13.0	/home/egter/Projects/stimuli/pictures/R_S_yt-cjndulbUtRc_51.png	65.46908617019653	0.8957538604736328
15	29.910141944885254	response	0	j		13.0	/home/egter/Projects/stimuli/pictures/R_S_yt-cjndulbUtRc_51.png	66.3483510017395	
16	29.926630973815918	picture	0		148.0	14.0	/home/egter/Projects/stimuli/pictures/n03478589_9338.JPEG	66.36484003067017	1.240199089050293
16	31.150273084640503	response	0	k		14.0	/home/egter/Projects/stimuli/pictures/n03478589_9338.JPEG	67.58848214149475	
17	31.16683006286621	picture	0		105.0	15.0	/home/egter/Projects/stimuli/pictures/n02058221_203.JPEG	67.60503911972046	0.8778600692749023
17	32.03357911109924	response	0	k		15.0	/home/egter/Projects/stimuli/pictures/n02058221_203.JPEG	68.47178816795349	
18	32.04469013214111	picture	0		123.0	16.0	/home/egter/Projects/stimuli/pictures/n03290653_11575.JPEG	68.48289918899536	1.03053879737854
18	33.05869793891907	response	0	k		16.0	/home/egter/Projects/stimuli/pictures/n03290653_11575.JPEG	69.49690699577332	
19	33.07522892951965	picture	0		126.0	17.0	/home/egter/Projects/stimuli/pictures/n03868242_971.JPEG	69.5134379863739	1.0528671741485596
19	34.11007905006409	response	0	k		17.0	/home/egter/Projects/stimuli/pictures/n03868242_971.JPEG	70.54828810691833	
20	34.12809610366821	picture	0		138.0	18.0	/home/egter/Projects/stimuli/pictures/R_S_b3TCugtX0h0_108.png	70.56630516052246	1.1531319618225098
20	35.267014026641846	response	0	j		18.0	/home/egter/Projects/stimuli/pictures/R_S_b3TCugtX0h0_108.png	71.7052230834961	
21	35.28122806549072	picture	0		95.0	19.0	/home/egter/Projects/stimuli/pictures/R_S_yt-SjPYdaUBi7A_37.png	71.71943712234497	0.7981569766998291
21	36.06689500808716	response	0	j		19.0	/home/egter/Projects/stimuli/pictures/R_S_yt-SjPYdaUBi7A_37.png	72.5051040649414	
22	36.07938504219055	picture	0		141.0	20.0	/home/egter/Projects/stimuli/pictures/n02114855_2425.JPEG	72.5175940990448	1.1791250705718994
22	37.241929054260254	response	0	k		20.0	/home/egter/Projects/stimuli/pictures/n02114855_2425.JPEG	73.6801381111145	
23	37.25851011276245	picture	0		103.0	21.0	/home/egter/Projects/stimuli/pictures/S_yt-HwGg4-zeWi8_364.png	73.6967191696167	0.8625149726867676
23	38.10188007354736	response	0	j		21.0	/home/egter/Projects/stimuli/pictures/S_yt-HwGg4-zeWi8_364.png	74.54008913040161	
24	38.12102508544922	picture	0		171.0	22.0	/home/egter/Projects/stimuli/pictures/S_yt-uDDv9fXG64w_98.png	74.55923414230347	1.4236459732055664
24	39.53354597091675	response	0	k		22.0	/home/egter/Projects/stimuli/pictures/S_yt-uDDv9fXG64w_98.png	75.971755027771	
25	39.544671058654785	picture	0		103.0	23.0	/home/egter/Projects/stimuli/pictures/S_pexels-mikhail-nilov-8410063_1.png	75.98288011550903	0.8888149261474609
25	40.39192795753479	response	0	j		23.0	/home/egter/Projects/stimuli/pictures/S_pexels-mikhail-nilov-8410063_1.png	76.83013701438904	
26	40.433485984802246	picture	0		100.0	24.0	/home/egter/Projects/stimuli/pictures/R_S_yt-D6fhzH21T_E_26.png	76.8716950416565	0.8332891464233398
26	41.258567094802856	response	0	k		24.0	/home/egter/Projects/stimuli/pictures/R_S_yt-D6fhzH21T_E_26.png	77.6967761516571	
27	41.266775131225586	picture	0		170.0	25.0	/home/egter/Projects/stimuli/pictures/S_BO_A014_C023_SDR_20190717_F240F3709_SDR_2K_AVC.png	77.70498418807983	1.416670799255371
27	42.6752450466156	response	0	j		25.0	/home/egter/Projects/stimuli/pictures/S_BO_A014_C023_SDR_20190717_F240F3709_SDR_2K_AVC.png	79.11345410346985	
28	42.68344593048096	picture	0		185.0	26.0	/home/egter/Projects/stimuli/pictures/ILSVRC2012_test_00017779.JPEG	79.1216549873352	1.5416641235351562
28	44.21688508987427	response	0	k		26.0	/home/egter/Projects/stimuli/pictures/ILSVRC2012_test_00017779.JPEG	80.65509414672852	
29	44.22511005401611	picture	0		85.0	27.0	/home/egter/Projects/stimuli/pictures/S_yt-5fnd__rpWeE_396.png	80.66331911087036	0.7168219089508057
29	44.91837406158447	response	0	j		27.0	/home/egter/Projects/stimuli/pictures/S_yt-5fnd__rpWeE_396.png	81.35658311843872	
30	44.94193196296692	picture	0		159.0	28.0	/home/egter/Projects/stimuli/pictures/R_S_yt-kP7VNn9QIo4_53.png	81.38014101982117	1.333245038986206
30	46.2585129737854	response	0	j		28.0	/home/egter/Projects/stimuli/pictures/R_S_yt-kP7VNn9QIo4_53.png	82.69672203063965	
31	46.275177001953125	picture	0		104.0	29.0	/home/egter/Projects/stimuli/pictures/ILSVRC2012_test_00088260.JPEG	82.71338605880737	0.8665850162506104
31	47.13353109359741	response	0	k		29.0	/home/egter/Projects/stimuli/pictures/ILSVRC2012_test_00088260.JPEG	83.57174015045166	
32	47.141762018203735	picture	0		106.0	30.0	/home/egter/Projects/stimuli/pictures/n02500267_8069.JPEG	83.57997107505798	0.8889620304107666
32	48.016891956329346	response	0	k		30.0	/home/egter/Projects/stimuli/pictures/n02500267_8069.JPEG	84.4551010131836	
33	48.0307240486145	picture	0		93.0	31.0	/home/egter/Projects/stimuli/pictures/S_yt-FhnT_42bV7M_11.png	84.46893310546875	0.777677059173584
33	48.80021405220032	response	0	j		31.0	/home/egter/Projects/stimuli/pictures/S_yt-FhnT_42bV7M_11.png	85.23842310905457	
34	48.808401107788086	picture	0		103.0	32.0	/home/egter/Projects/stimuli/pictures/S_wc-yoyQRWvHhC_x_3.png	85.24661016464233	0.8611049652099609
34	49.658571004867554	response	0	k		32.0	/home/egter/Projects/stimuli/pictures/S_wc-yoyQRWvHhC_x_3.png	86.0967800617218	
35	49.66950607299805	picture	0		153.0	33.0	/home/egter/Projects/stimuli/pictures/S_yt-IT741UWKVzg_34.png	86.1077151298523	1.3139028549194336
35	50.926722049713135	response	0	j		33.0	/home/egter/Projects/stimuli/pictures/S_yt-IT741UWKVzg_34.png	87.36493110656738	
36	50.98340892791748	picture	0		128.0	34.0	/home/egter/Projects/stimuli/pictures/n03958227_719.JPEG	87.42161798477173	1.1083321571350098
36	52.041852951049805	response	0	k		34.0	/home/egter/Projects/stimuli/pictures/n03958227_719.JPEG	88.48006200790405	
37	52.09174108505249	picture	0		121.0	35.0	/home/egter/Projects/stimuli/pictures/n01770081_9058.JPEG	88.52995014190674	1.016650915145874
37	53.09186506271362	response	0	k		35.0	/home/egter/Projects/stimuli/pictures/n01770081_9058.JPEG	89.53007411956787	
38	53.108392000198364	picture	0		96.0	36.0	/home/egter/Projects/stimuli/pictures/ILSVRC2012_test_00029845.JPEG	89.54660105705261	0.8083610534667969
38	53.900182008743286	response	0	k		36.0	/home/egter/Projects/stimuli/pictures/ILSVRC2012_test_00029845.JPEG	90.33839106559753	
39	53.91675305366516	picture	0		122.0	37.0	/home/egter/Projects/stimuli/pictures/R_S_video_inspire_oregon_lone-ranch-beach_00015.png	90.35496211051941	1.016650915145874
39	54.91848707199097	response	0	j		37.0	/home/egter/Projects/stimuli/pictures/R_S_video_inspire_oregon_lone-ranch-beach_00015.png	91.35669612884521	
40	54.933403968811035	picture	0		106.0	38.0	/home/egter/Projects/stimuli/pictures/S_yt-ILARvS15SDQ_741.png	91.37161302566528	0.8958590030670166
40	55.80851912498474	response	0	j		38.0	/home/egter/Projects/stimuli/pictures/S_yt-ILARvS15SDQ_741.png	92.24672818183899	
41	55.82926297187805	picture	0		92.0	39.0	/home/egter/Projects/stimuli/pictures/n02167151_5835.JPEG	92.2674720287323	0.7790989875793457
41	56.583383083343506	response	0	k		39.0	/home/egter/Projects/stimuli/pictures/n02167151_5835.JPEG	93.02159214019775	
42	56.6083619594574	picture	0		150.0	40.0	/home/egter/Projects/stimuli/pictures/S_yt-qxtmtMnUfD0_124.png	93.04657101631165	1.2556231021881104
42	57.850085973739624	response	0	j		40.0	/home/egter/Projects/stimuli/pictures/S_yt-qxtmtMnUfD0_124.png	94.28829503059387	
43	57.86398506164551	picture	0		149.0	41.0	/home/egter/Projects/stimuli/pictures/n09193705_7158.JPEG	94.30219411849976	1.249974012374878
43	59.100176095962524	response	0	k		41.0	/home/egter/Projects/stimuli/pictures/n09193705_7158.JPEG	95.53838515281677	
44	59.113959074020386	picture	0		80.0	42.0	/home/egter/Projects/stimuli/pictures/R_S_production_ID_3943965.png	95.55216813087463	0.680556058883667
44	59.77512001991272	response	0	j		42.0	/home/egter/Projects/stimuli/pictures/R_S_production_ID_3943965.png	96.21332907676697	
45	59.79451513290405	picture	0		110.0	43.0	/home/egter/Projects/stimuli/pictures/n04493381_840.JPEG	96.2327241897583	1.2138597965240479
45	60.700122117996216	response	0	k		43.0	/home/egter/Projects/stimuli/pictures/n04493381_840.JPEG	97.13833117485046	
46	61.0083749294281	picture	0		97.0	44.0	/home/egter/Projects/stimuli/pictures/R_S_yt-j-ifVbxZePQ_70.png	97.44658398628235	0.814082145690918
46	61.808505058288574	response	0	j		44.0	/home/egter/Projects/stimuli/pictures/R_S_yt-j-ifVbxZePQ_70.png	98.24671411514282	
47	61.82245707511902	picture	0		123.0	45.0	/home/egter/Projects/stimuli/pictures/R_S_production_ID_4057155.png	98.26066613197327	1.0359039306640625
47	62.84183597564697	response	0	j		45.0	/home/egter/Projects/stimuli/pictures/R_S_production_ID_4057155.png	99.28004503250122	
48	62.85836100578308	picture	0		139.0	46.0	/home/egter/Projects/stimuli/pictures/R_S_yt-uT4MXm0UBJM_64.png	99.29657006263733	1.1916649341583252
48	64.00845503807068	response	0	j		46.0	/home/egter/Projects/stimuli/pictures/R_S_yt-uT4MXm0UBJM_64.png	100.44666409492493	
49	64.0500259399414	picture	0		100.0	47.0	/home/egter/Projects/stimuli/pictures/n03888257_17004.JPEG	100.48823499679565	0.8499631881713867
49	64.8751859664917	response	0	k		47.0	/home/egter/Projects/stimuli/pictures/n03888257_17004.JPEG	101.31339502334595	
50	64.8999891281128	picture	0		151.0	48.0	/home/egter/Projects/stimuli/pictures/S_DV6V38rplag_215.png	101.33819818496704	1.2694149017333984
50	66.15012192726135	response	0	j		48.0	/home/egter/Projects/stimuli/pictures/S_DV6V38rplag_215.png	102.5883309841156	
51	66.16940402984619	picture	0		121.0	49.0	/home/egter/Projects/stimuli/pictures/S_yt-eF5J5Kjt6oY_23.png	102.60761308670044	1.2223179340362549
51	67.1668131351471	response	0	j		49.0	/home/egter/Projects/stimuli/pictures/S_yt-eF5J5Kjt6oY_23.png	103.60502219200134	
52	67.39172196388245	picture	0		163.0	50.0	/home/egter/Projects/stimuli/pictures/S_comp_HK_H004_C013_t9_6M_HB_tag0.png	103.8299310207367	1.3666419982910156
52	68.73501706123352	response	0	k		50.0	/home/egter/Projects/stimuli/pictures/S_comp_HK_H004_C013_t9_6M_HB_tag0.png	105.17322611808777	
53	68.75836396217346	picture	0		132.0	51.0	/home/egter/Projects/stimuli/pictures/n04536866_12208.JPEG	105.19657301902771	1.10831618309021
53	69.85009694099426	response	0	k		51.0	/home/egter/Projects/stimuli/pictures/n04536866_12208.JPEG	106.28830599784851	
54	69.86668014526367	picture	0		95.0	52.0	/home/egter/Projects/stimuli/pictures/R_S_yt-E8EDQCPbBeI_196.png	106.30488920211792	0.7956688404083252
54	70.6501190662384	response	0	j		52.0	/home/egter/Projects/stimuli/pictures/R_S_yt-E8EDQCPbBeI_196.png	107.08832812309265	
55	70.662348985672	picture	0		98.0	53.0	/home/egter/Projects/stimuli/pictures/n04041544_2577.JPEG	107.10055804252625	0.8126199245452881
55	71.46671199798584	response	0	k		53.0	/home/egter/Projects/stimuli/pictures/n04041544_2577.JPEG	107.90492105484009	
56	71.47496891021729	picture	0		96.0	54.0	/home/egter/Projects/stimuli/pictures/S_yt-wEbfIR14zZ8_7.png	107.91317796707153	0.8055951595306396
56	72.2667589187622	response	0	j		54.0	/home/egter/Projects/stimuli/pictures/S_yt-wEbfIR14zZ8_7.png	108.70496797561646	
57	72.28056406974792	picture	0		118.0	55.0	/home/egter/Projects/stimuli/pictures/n03788195_3188.JPEG	108.71877312660217	0.9860720634460449
57	73.2586190700531	response	0	k		55.0	/home/egter/Projects/stimuli/pictures/n03788195_3188.JPEG	109.69682812690735	
58	73.26663613319397	picture	0		184.0	56.0	/home/egter/Projects/stimuli/pictures/S_yt-cu4AVz6o2eg_24.png	109.70484519004822	1.5345818996429443
58	74.79178500175476	response	0	j		56.0	/home/egter/Projects/stimuli/pictures/S_yt-cu4AVz6o2eg_24.png	111.22999405860901	
59	74.80121803283691	picture	0		97.0	57.0	/home/egter/Projects/stimuli/pictures/S_yt-11S5tcT2Tm0_254.png	111.23942708969116	0.8126130104064941
59	75.60012793540955	response	0	j		57.0	/home/egter/Projects/stimuli/pictures/S_yt-11S5tcT2Tm0_254.png	112.0383369922638	
60	75.61383104324341	picture	0		112.0	58.0	/home/egter/Projects/stimuli/pictures/S_yt-oUrpKe5nyuI_5.png	112.05204010009766	0.9373738765716553
60	76.53492712974548	response	0	k		58.0	/home/egter/Projects/stimuli/pictures/S_yt-oUrpKe5nyuI_5.png	112.97313618659973	
61	76.55120491981506	picture	0		123.0	59.0	/home/egter/Projects/stimuli/pictures/n03803284_7458.JPEG	112.98941397666931	1.0277931690216064
61	77.56670594215393	response	0	k		59.0	/home/egter/Projects/stimuli/pictures/n03803284_7458.JPEG	114.00491499900818	
62	77.57899808883667	picture	0		134.0	60.0	/home/egter/Projects/stimuli/pictures/S_yt-V5iQ3MbihnI_103.png	114.01720714569092	1.1376278400421143
62	78.68341708183289	response	0	j		60.0	/home/egter/Projects/stimuli/pictures/S_yt-V5iQ3MbihnI_103.png	115.12162613868713	
63	78.71662592887878	picture	0		100.0	61.0	/home/egter/Projects/stimuli/pictures/S_yt-tneuR3EtSZE_72.png	115.15483498573303	0.8624041080474854
63	79.54174613952637	response	0	j		61.0	/home/egter/Projects/stimuli/pictures/S_yt-tneuR3EtSZE_72.png	115.97995519638062	
64	79.57903003692627	picture	0		95.0	62.0	/home/egter/Projects/stimuli/pictures/R_S_yt-VJ65ukWmdxQ_193.png	116.01723909378052	0.8125391006469727
64	80.3584189414978	response	0	j		62.0	/home/egter/Projects/stimuli/pictures/R_S_yt-VJ65ukWmdxQ_193.png	116.79662799835205	
65	80.39156913757324	picture	0		102.0	63.0	/home/egter/Projects/stimuli/pictures/R_S_yt-RlHmMGUjT9E_130.png	116.82977819442749	0.8679859638214111
65	81.23335695266724	response	0	j		63.0	/home/egter/Projects/stimuli/pictures/R_S_yt-RlHmMGUjT9E_130.png	117.67156600952148	
66	81.25955510139465	picture	0		104.0	64.0	/home/egter/Projects/stimuli/pictures/R_S_Pexels_Videos_2795737.png	117.6977641582489	0.874953031539917
66	82.10989809036255	response	0	j		64.0	/home/egter/Projects/stimuli/pictures/R_S_Pexels_Videos_2795737.png	118.5481071472168	
67	82.13450813293457	picture	0		97.0	65.0	/home/egter/Projects/stimuli/pictures/R_S_yt-rbJOb1spY9M_16.png	118.57271718978882	0.819389820098877
67	82.92656707763672	response	0	j		65.0	/home/egter/Projects/stimuli/pictures/R_S_yt-rbJOb1spY9M_16.png	119.36477613449097	
68	82.95389795303345	picture	0		176.0	66.0	/home/egter/Projects/stimuli/pictures/S_yt-o96A55Szxkc_982.png	119.3921070098877	1.4653260707855225
68	84.40838813781738	response	0	k		66.0	/home/egter/Projects/stimuli/pictures/S_yt-o96A55Szxkc_982.png	120.84659719467163	
69	84.41922402381897	picture	0		113.0	67.0	/home/egter/Projects/stimuli/pictures/n02396427_1792.JPEG	120.85743308067322	0.947329044342041
69	85.34315299987793	response	0	k		67.0	/home/egter/Projects/stimuli/pictures/n02396427_1792.JPEG	121.78136205673218	
70	85.36655306816101	picture	0		100.0	68.0	/home/egter/Projects/stimuli/pictures/n01644900_20697.JPEG	121.80476212501526	0.8373558521270752
70	86.19169306755066	response	0	k		68.0	/home/egter/Projects/stimuli/pictures/n01644900_20697.JPEG	122.62990212440491	
71	86.20390892028809	picture	0		130.0	69.0	/home/egter/Projects/stimuli/pictures/S_yt-SGTgMItFkxY_172.png	122.64211797714233	1.0833091735839844
71	87.27507591247559	response	0	j		69.0	/home/egter/Projects/stimuli/pictures/S_yt-SGTgMItFkxY_172.png	123.71328496932983	
72	87.28721809387207	picture	0		157.0	70.0	/home/egter/Projects/stimuli/pictures/n02105162_3441.JPEG	123.72542715072632	1.5347929000854492
72	88.58333492279053	response	0	k		70.0	/home/egter/Projects/stimuli/pictures/n02105162_3441.JPEG	125.02154397964478	
73	88.82201099395752	picture	0		105.0	71.0	/home/egter/Projects/stimuli/pictures/n02980441_42087.JPEG	125.26022005081177	0.8818790912628174
73	89.69168996810913	response	0	k		71.0	/home/egter/Projects/stimuli/pictures/n02980441_42087.JPEG	126.12989902496338	
74	89.70389008522034	picture	0		129.0	72.0	/home/egter/Projects/stimuli/pictures/S_yt-58F4cMRhSw8_69.png	126.14209914207458	1.0764398574829102
74	90.76668095588684	response	0	k		72.0	/home/egter/Projects/stimuli/pictures/S_yt-58F4cMRhSw8_69.png	127.20489001274109	
75	90.78032994270325	picture	0		153.0	73.0	/home/egter/Projects/stimuli/pictures/n09468604_18775.JPEG	127.2185389995575	1.2778851985931396
75	92.05002093315125	response	0	k		73.0	/home/egter/Projects/stimuli/pictures/n09468604_18775.JPEG	128.4882299900055	
76	92.05821514129639	picture	0		101.0	74.0	/home/egter/Projects/stimuli/pictures/n02776631_46569.JPEG	128.49642419815063	0.8470079898834229
76	92.89171004295349	response	0	k		74.0	/home/egter/Projects/stimuli/pictures/n02776631_46569.JPEG	129.32991909980774	
77	92.90522313117981	picture	0		111.0	75.0	/home/egter/Projects/stimuli/pictures/n03954731_3132.JPEG	129.34343218803406	0.9305739402770996
77	93.82501697540283	response	0	k		75.0	/home/egter/Projects/stimuli/pictures/n03954731_3132.JPEG	130.26322603225708	
78	93.83579707145691	picture	0		148.0	76.0	/home/egter/Projects/stimuli/pictures/n04523525_14005.JPEG	130.27400612831116	1.2361118793487549
78	95.05835294723511	response	0	k		76.0	/home/egter/Projects/stimuli/pictures/n04523525_14005.JPEG	131.49656200408936	
79	95.07190895080566	picture	0		162.0	77.0	/home/egter/Projects/stimuli/pictures/S_ILSVRC2015_train_00379000.png	131.5101180076599	1.3613080978393555
79	96.41674995422363	response	0	j		77.0	/home/egter/Projects/stimuli/pictures/S_ILSVRC2015_train_00379000.png	132.85495901107788	
80	96.43321704864502	picture	0		99.0	78.0	/home/egter/Projects/stimuli/pictures/ILSVRC2012_test_00004276.JPEG	132.87142610549927	0.826092004776001
80	97.25000500679016	response	0	k		78.0	/home/egter/Projects/stimuli/pictures/ILSVRC2012_test_00004276.JPEG	133.6882140636444	
81	97.25930905342102	picture	0		108.0	79.0	/home/egter/Projects/stimuli/pictures/R_S_yt-GBt59U0KUR0_6.png	133.69751811027527	0.9028189182281494
81	98.15001201629639	response	0	j		79.0	/home/egter/Projects/stimuli/pictures/R_S_yt-GBt59U0KUR0_6.png	134.58822107315063	
82	98.16212797164917	picture	0		125.0	80.0	/home/egter/Projects/stimuli/pictures/n03776460_3015.JPEG	134.60033702850342	1.048583984375
82	99.20001006126404	response	0	k		80.0	/home/egter/Projects/stimuli/pictures/n03776460_3015.JPEG	135.6382191181183	
83	99.21071195602417	picture	0		108.0	81.0	/home/egter/Projects/stimuli/pictures/R_S_yt-4BAsE47kJNk_88.png	135.64892101287842	0.9028401374816895
83	100.10000896453857	response	0	j		81.0	/home/egter/Projects/stimuli/pictures/R_S_yt-4BAsE47kJNk_88.png	136.53821802139282	
84	100.11355209350586	picture	0		94.0	82.0	/home/egter/Projects/stimuli/pictures/n04265275_2395.JPEG	136.5517611503601	0.8124239444732666
84	100.89162111282349	response	0	k		82.0	/home/egter/Projects/stimuli/pictures/n04265275_2395.JPEG	137.32983016967773	
85	100.92597603797913	picture	0		185.0	83.0	/home/egter/Projects/stimuli/pictures/S_ILSVRC2015_train_00415007.png	137.36418509483337	1.5572409629821777
85	102.45832896232605	response	0	j		83.0	/home/egter/Projects/stimuli/pictures/S_ILSVRC2015_train_00415007.png	138.8965380191803	
86	102.4832170009613	picture	0		98.0	84.0	/home/egter/Projects/stimuli/pictures/n03843555_13818.JPEG	138.92142605781555	0.8417010307312012
86	103.29158306121826	response	0	k		84.0	/home/egter/Projects/stimuli/pictures/n03843555_13818.JPEG	139.7297921180725	
87	103.3249180316925	picture	0		128.0	85.0	/home/egter/Projects/stimuli/pictures/ILSVRC2012_test_00011334.JPEG	139.76312708854675	1.074934959411621
87	104.38473892211914	response	0	k		85.0	/home/egter/Projects/stimuli/pictures/ILSVRC2012_test_00011334.JPEG	140.8229479789734	
88	104.39985299110413	picture	0		130.0	86.0	/home/egter/Projects/stimuli/pictures/n03089624_71576.JPEG	140.83806204795837	1.0916650295257568
88	105.47497510910034	response	0	k		86.0	/home/egter/Projects/stimuli/pictures/n03089624_71576.JPEG	141.9131841659546	
89	105.49151802062988	picture	0		276.0	87.0	/home/egter/Projects/stimuli/pictures/R_S_yt-HRuCkU_kBoE_239.png	141.92972707748413	2.3166348934173584
89	107.78332805633545	response	0	k		87.0	/home/egter/Projects/stimuli/pictures/R_S_yt-HRuCkU_kBoE_239.png	144.2215371131897	
90	107.80815291404724	picture	0		88.0	88.0	/home/egter/Projects/stimuli/pictures/S_yt-WCT9dyz0-gQ_36.png	144.2463619709015	0.7416801452636719
90	108.52647709846497	response	0	j		88.0	/home/egter/Projects/stimuli/pictures/S_yt-WCT9dyz0-gQ_36.png	144.9646861553192	
91	108.54983305931091	picture	0		134.0	89.0	/home/egter/Projects/stimuli/pictures/S_yt-dESxu60Cl10_24.png	144.98804211616516	1.124997854232788
91	109.65828609466553	response	0	j		89.0	/home/egter/Projects/stimuli/pictures/S_yt-dESxu60Cl10_24.png	146.09649515151978	
92	109.6748309135437	picture	0		106.0	90.0	/home/egter/Projects/stimuli/pictures/n02115913_3938.JPEG	146.11303997039795	1.1833281517028809
92	110.54309797286987	response	0	k		90.0	/home/egter/Projects/stimuli/pictures/n02115913_3938.JPEG	146.98130702972412	
93	110.85815906524658	picture	0		163.0	91.0	/home/egter/Projects/stimuli/pictures/S_yt-q5Wp_yDLujU_108.png	147.29636812210083	1.3593449592590332
93	112.20828008651733	response	0	k		91.0	/home/egter/Projects/stimuli/pictures/S_yt-q5Wp_yDLujU_108.png	148.64648914337158	
94	112.21750402450562	picture	0		90.0	92.0	/home/egter/Projects/stimuli/pictures/n01981276_18340.JPEG	148.65571308135986	0.7500040531158447
94	112.95155191421509	response	0	k		92.0	/home/egter/Projects/stimuli/pictures/n01981276_18340.JPEG	149.38976097106934	
95	112.96750807762146	picture	0		128.0	93.0	/home/egter/Projects/stimuli/pictures/ILSVRC2012_val_00018369.JPEG	149.4057171344757	1.0824918746948242
95	114.02491593360901	response	0	k		93.0	/home/egter/Projects/stimuli/pictures/ILSVRC2012_val_00018369.JPEG	150.46312499046326	
96	114.04999995231628	picture	0		86.0	94.0	/home/egter/Projects/stimuli/pictures/R_S_pexels-kelly-lacy-6756531.png	150.48820900917053	0.7747941017150879
96	114.75824403762817	response	0	j		94.0	/home/egter/Projects/stimuli/pictures/R_S_pexels-kelly-lacy-6756531.png	151.19645309448242	
97	114.82479405403137	picture	0		147.0	95.0	/home/egter/Projects/stimuli/pictures/n13133613_15992.JPEG	151.26300311088562	1.2333340644836426
97	116.04156708717346	response	0	k		95.0	/home/egter/Projects/stimuli/pictures/n13133613_15992.JPEG	152.4797761440277	
98	116.05812811851501	picture	0		118.0	96.0	/home/egter/Projects/stimuli/pictures/S_yt-MIDWkOZcQUs_72.png	152.49633717536926	0.9999878406524658
98	117.03321194648743	response	0	k		96.0	/home/egter/Projects/stimuli/pictures/S_yt-MIDWkOZcQUs_72.png	153.47142100334167	
99	117.05811595916748	picture	0		144.0	97.0	/home/egter/Projects/stimuli/pictures/n03447447_2331.JPEG	153.49632501602173	1.2083570957183838
99	118.24991106987	response	0	k		97.0	/home/egter/Projects/stimuli/pictures/n03447447_2331.JPEG	154.68812012672424	
100	118.26647305488586	picture	0		145.0	98.0	/home/egter/Projects/stimuli/pictures/R_S_yt-gOoDjhfSPj0_162.png	154.7046821117401	1.2499768733978271
100	119.46659111976624	response	0	j		98.0	/home/egter/Projects/stimuli/pictures/R_S_yt-gOoDjhfSPj0_162.png	155.90480017662048	
101	119.51644992828369	picture	0		100.0	99.0	/home/egter/Projects/stimuli/pictures/n04037443_42171.JPEG	155.95465898513794	0.883364200592041
101	120.33472800254822	response	0	k		99.0	/home/egter/Projects/stimuli/pictures/n04037443_42171.JPEG	156.77293705940247	
102	120.39981412887573	picture	0		187.0	100.0	/home/egter/Projects/stimuli/pictures/n03868242_2578.JPEG	156.83802318572998	1.5676209926605225
102	121.9430079460144	response	0	k		100.0	/home/egter/Projects/stimuli/pictures/n03868242_2578.JPEG	158.38121700286865	
103	121.96743512153625	picture	0		139.0	101.0	/home/egter/Projects/stimuli/pictures/n01665541_21853.JPEG	158.4056441783905	1.1656649112701416
103	123.11657810211182	response	0	k		101.0	/home/egter/Projects/stimuli/pictures/n01665541_21853.JPEG	159.55478715896606	
104	123.1331000328064	picture	0		106.0	102.0	/home/egter/Projects/stimuli/pictures/S_yt-WTxvvlP8xnw_113.png	159.57130908966064	0.8833169937133789
104	124.008220911026	response	0	j		102.0	/home/egter/Projects/stimuli/pictures/S_yt-WTxvvlP8xnw_113.png	160.44642996788025	
105	124.01641702651978	picture	0		139.0	103.0	/home/egter/Projects/stimuli/pictures/n07693725_9013.JPEG	160.45462608337402	1.1667420864105225
105	125.16647911071777	response	0	k		103.0	/home/egter/Projects/stimuli/pictures/n07693725_9013.JPEG	161.60468816757202	
106	125.1831591129303	picture	0		121.0	104.0	/home/egter/Projects/stimuli/pictures/n01692333_5159.JPEG	161.62136816978455	1.041623830795288
106	126.18319892883301	response	0	k		104.0	/home/egter/Projects/stimuli/pictures/n01692333_5159.JPEG	162.62140798568726	
107	126.22478294372559	picture	0		95.0	105.0	/home/egter/Projects/stimuli/pictures/S_comp_A105_C003_0212CT_FLARE_v10_SDR_PS_FINAL_20180711_SDR_2K_AVC.png	162.66299200057983	0.7915899753570557
107	127.00828695297241	response	0	j		105.0	/home/egter/Projects/stimuli/pictures/S_comp_A105_C003_0212CT_FLARE_v10_SDR_PS_FINAL_20180711_SDR_2K_AVC.png	163.44649600982666	
108	127.01637291908264	picture	0		110.0	106.0	/home/egter/Projects/stimuli/pictures/R_S_yt-TBY8F6UMnJQ_51.png	163.4545819759369	0.9166450500488281
108	127.92488694190979	response	0	j		106.0	/home/egter/Projects/stimuli/pictures/R_S_yt-TBY8F6UMnJQ_51.png	164.36309599876404	
109	127.93301796913147	picture	0		177.0	107.0	/home/egter/Projects/stimuli/pictures/S_yt-ni4JaYu7PhU_6.png	164.37122702598572	1.625054121017456
109	129.39991307258606	response	0	j		107.0	/home/egter/Projects/stimuli/pictures/S_yt-ni4JaYu7PhU_6.png	165.8381221294403	
110	129.55807209014893	picture	0		82.0	108.0	/home/egter/Projects/stimuli/pictures/S_yt-MEfljVFL0xw_375.png	165.99628114700317	0.6870589256286621
110	130.23319697380066	response	0	j		108.0	/home/egter/Projects/stimuli/pictures/S_yt-MEfljVFL0xw_375.png	166.6714060306549	
111	130.2451310157776	picture	0		106.0	109.0	/home/egter/Projects/stimuli/pictures/n02264363_15035.JPEG	166.68334007263184	0.8879439830780029
111	131.11649799346924	response	0	k		109.0	/home/egter/Projects/stimuli/pictures/n02264363_15035.JPEG	167.5547070503235	
112	131.1330749988556	picture	0		148.0	110.0	/home/egter/Projects/stimuli/pictures/n04366367_5814.JPEG	167.57128405570984	1.4750049114227295
112	132.35149097442627	response	0	k		110.0	/home/egter/Projects/stimuli/pictures/n04366367_5814.JPEG	168.78970003128052	
113	132.60807991027832	picture	0		83.0	111.0	/home/egter/Projects/stimuli/pictures/S_yt-rlEPywo5BEQ_36.png	169.04628896713257	0.692594051361084
113	133.29152607917786	response	0	j		111.0	/home/egter/Projects/stimuli/pictures/S_yt-rlEPywo5BEQ_36.png	169.7297351360321	
114	133.3006739616394	picture	0		88.0	112.0	/home/egter/Projects/stimuli/pictures/S_yt-2LCHVTVwJ5E_235.png	169.73888301849365	0.7360720634460449
114	134.02483892440796	response	0	j		112.0	/home/egter/Projects/stimuli/pictures/S_yt-2LCHVTVwJ5E_235.png	170.4630479812622	
115	134.03674602508545	picture	0		101.0	113.0	/home/egter/Projects/stimuli/pictures/R_S_production_ID_5144823.png	170.4749550819397	0.8463199138641357
115	134.86651492118835	response	0	j		113.0	/home/egter/Projects/stimuli/pictures/R_S_production_ID_5144823.png	171.3047239780426	
116	134.88306593894958	picture	0		122.0	114.0	/home/egter/Projects/stimuli/pictures/n03095699_944.JPEG	171.32127499580383	1.021785020828247
116	135.89148211479187	response	0	k		114.0	/home/egter/Projects/stimuli/pictures/n03095699_944.JPEG	172.32969117164612	
117	135.90485095977783	picture	0		105.0	115.0	/home/egter/Projects/stimuli/pictures/n01797886_14987.JPEG	172.34306001663208	0.8865761756896973
117	136.77482509613037	response	0	k		115.0	/home/egter/Projects/stimuli/pictures/n01797886_14987.JPEG	173.21303415298462	
118	136.79142713546753	picture	0		95.0	116.0	/home/egter/Projects/stimuli/pictures/R_S_yt-2cwARrUMj40_67.png	173.22963619232178	0.8082737922668457
118	137.57480311393738	response	0	j		116.0	/home/egter/Projects/stimuli/pictures/R_S_yt-2cwARrUMj40_67.png	174.01301217079163	
119	137.59970092773438	picture	0		100.0	117.0	/home/egter/Projects/stimuli/pictures/S_yt-7NjoFHBdP7c_102.png	174.03790998458862	0.8333220481872559
119	138.42484402656555	response	0	j		117.0	/home/egter/Projects/stimuli/pictures/S_yt-7NjoFHBdP7c_102.png	174.8630530834198	
120	138.43302297592163	picture	0		109.0	118.0	/home/egter/Projects/stimuli/pictures/S_I003_C004_SDR_2K_AVC.png	174.87123203277588	0.9092609882354736
120	139.33317112922668	response	0	j		118.0	/home/egter/Projects/stimuli/pictures/S_I003_C004_SDR_2K_AVC.png	175.77138018608093	
121	139.3422839641571	picture	0		103.0	119.0	/home/egter/Projects/stimuli/pictures/S_yt-6MAIu_hWEz0_56.png	175.78049302101135	0.8750150203704834
121	140.19153499603271	response	0	j		119.0	/home/egter/Projects/stimuli/pictures/S_yt-6MAIu_hWEz0_56.png	176.62974405288696	
122	140.2172989845276	picture	0		116.0	120.0	/home/egter/Projects/stimuli/pictures/S_yt-MXCxHM_Ms8A_15.png	176.65550804138184	1.1740620136260986
122	141.17476797103882	response	0	k		120.0	/home/egter/Projects/stimuli/pictures/S_yt-MXCxHM_Ms8A_15.png	177.61297702789307	
123	141.3913609981537	picture	0		130.0	121.0	/home/egter/Projects/stimuli/pictures/S_yt-pB-AcJ71tzA_20.png	177.82957005500793	1.0916590690612793
123	142.46643900871277	response	0	k		121.0	/home/egter/Projects/stimuli/pictures/S_yt-pB-AcJ71tzA_20.png	178.90464806556702	
124	142.48302006721497	picture	0		107.0	122.0	/home/egter/Projects/stimuli/pictures/n03290653_1838.JPEG	178.9212291240692	0.9009108543395996
124	143.3596169948578	response	0	k		122.0	/home/egter/Projects/stimuli/pictures/n03290653_1838.JPEG	179.79782605171204	
125	143.38393092155457	picture	0		118.0	123.0	/home/egter/Projects/stimuli/pictures/n02415577_28320.JPEG	179.8221399784088	1.0574061870574951
125	144.35134410858154	response	0	k		123.0	/home/egter/Projects/stimuli/pictures/n02415577_28320.JPEG	180.7895531654358	
126	144.44133710861206	picture	0		84.0	124.0	/home/egter/Projects/stimuli/pictures/S_yt-PcOWc5EJbVo_39.png	180.8795461654663	0.7083950042724609
126	145.13311791419983	response	0	j		124.0	/home/egter/Projects/stimuli/pictures/S_yt-PcOWc5EJbVo_39.png	181.57132697105408	
127	145.14973211288452	picture	0		101.0	125.0	/home/egter/Projects/stimuli/pictures/n02099849_3786.JPEG	181.58794116973877	0.8452799320220947
127	145.98310208320618	response	0	k		125.0	/home/egter/Projects/stimuli/pictures/n02099849_3786.JPEG	182.42131114006042	
128	145.99501204490662	picture	0		123.0	126.0	/home/egter/Projects/stimuli/pictures/n03529860_9960.JPEG	182.43322110176086	1.0298850536346436
128	147.0081570148468	response	0	k		126.0	/home/egter/Projects/stimuli/pictures/n03529860_9960.JPEG	183.44636607170105	
129	147.02489709854126	picture	0		107.0	127.0	/home/egter/Projects/stimuli/pictures/S_flickr-evananderica-2662125519_8.png	183.4631061553955	0.8936939239501953
129	147.90808296203613	response	0	j		127.0	/home/egter/Projects/stimuli/pictures/S_flickr-evananderica-2662125519_8.png	184.34629201889038	
130	147.91859102249146	picture	0		213.0	128.0	/home/egter/Projects/stimuli/pictures/R_S_yt-0bovQBIUZho_15.png	184.3568000793457	1.7894089221954346
130	149.6831910610199	response	0	k		128.0	/home/egter/Projects/stimuli/pictures/R_S_yt-0bovQBIUZho_15.png	186.12140011787415	
131	149.7079999446869	picture	0		99.0	129.0	/home/egter/Projects/stimuli/pictures/R_S_OdxWh1oU8e8_1.png	186.14620900154114	0.8358211517333984
131	150.52475094795227	response	0	j		129.0	/home/egter/Projects/stimuli/pictures/R_S_OdxWh1oU8e8_1.png	186.96296000480652	
132	150.5438210964203	picture	0		82.0	130.0	/home/egter/Projects/stimuli/pictures/n03250847_2573.JPEG	186.98203015327454	0.6876559257507324
132	151.21642208099365	response	0	k		130.0	/home/egter/Projects/stimuli/pictures/n03250847_2573.JPEG	187.6546311378479	
133	151.23147702217102	picture	0		112.0	131.0	/home/egter/Projects/stimuli/pictures/n07932039_6815.JPEG	187.66968607902527	0.9370789527893066
133	152.15131092071533	response	0	k		131.0	/home/egter/Projects/stimuli/pictures/n07932039_6815.JPEG	188.58951997756958	
134	152.16855597496033	picture	0		90.0	132.0	/home/egter/Projects/stimuli/pictures/S_wc-__wCAtivIDG3_93.png	188.60676503181458	0.7644140720367432
134	152.90806102752686	response	0	j		132.0	/home/egter/Projects/stimuli/pictures/S_wc-__wCAtivIDG3_93.png	189.3462700843811	
135	152.93297004699707	picture	0		111.0	133.0	/home/egter/Projects/stimuli/pictures/n01632458_798.JPEG	189.37117910385132	0.9666628837585449
135	153.84973096847534	response	0	k		133.0	/home/egter/Projects/stimuli/pictures/n01632458_798.JPEG	190.2879400253296	
136	153.89963293075562	picture	0		151.0	134.0	/home/egter/Projects/stimuli/pictures/S_yt-UKrWbJEs7pw_74.png	190.33784198760986	1.2619240283966064
136	155.14290595054626	response	0	k		134.0	/home/egter/Projects/stimuli/pictures/S_yt-UKrWbJEs7pw_74.png	191.5811150074005	
137	155.16155695915222	picture	0		147.0	135.0	/home/egter/Projects/stimuli/pictures/R_S_ILSVRC2015_train_00725000.png	191.59976601600647	1.2463810443878174
137	156.37468695640564	response	0	j		135.0	/home/egter/Projects/stimuli/pictures/R_S_ILSVRC2015_train_00725000.png	192.8128960132599	
138	156.40793800354004	picture	0		143.0	136.0	/home/egter/Projects/stimuli/pictures/S_P006_C002_UHD_SDR_2K_AVC.png	192.8461470603943	1.200005054473877
138	157.59138298034668	response	0	j		136.0	/home/egter/Projects/stimuli/pictures/S_P006_C002_UHD_SDR_2K_AVC.png	194.02959203720093	
139	157.60794305801392	picture	0		122.0	137.0	/home/egter/Projects/stimuli/pictures/n03042490_1600.JPEG	194.04615211486816	1.0253839492797852
139	158.6164050102234	response	0	k		137.0	/home/egter/Projects/stimuli/pictures/n03042490_1600.JPEG	195.05461406707764	
140	158.6333270072937	picture	0		105.0	138.0	/home/egter/Projects/stimuli/pictures/R_S_yt-MEfljVFL0xw_375.png	195.07153606414795	0.8829491138458252
140	159.49974608421326	response	0	j		138.0	/home/egter/Projects/stimuli/pictures/R_S_yt-MEfljVFL0xw_375.png	195.9379551410675	
141	159.51627612113953	picture	0		120.0	139.0	/home/egter/Projects/stimuli/pictures/S_yt-oPq1uvbw-lQ_62.png	195.95448517799377	1.0064477920532227
141	160.5080440044403	response	0	j		139.0	/home/egter/Projects/stimuli/pictures/S_yt-oPq1uvbw-lQ_62.png	196.94625306129456	
142	160.52272391319275	picture	0		118.0	140.0	/home/egter/Projects/stimuli/pictures/R_S_yt-b29VtKvlnWE_430.png	196.960932970047	0.9860451221466064
142	161.49968910217285	response	0	j		140.0	/home/egter/Projects/stimuli/pictures/R_S_yt-b29VtKvlnWE_430.png	197.9378981590271	
143	161.50876903533936	picture	0		120.0	141.0	/home/egter/Projects/stimuli/pictures/S_yt-gzjV6YoK6X0_3.png	197.9469780921936	0.9999239444732666
143	162.49972200393677	response	0	j		141.0	/home/egter/Projects/stimuli/pictures/S_yt-gzjV6YoK6X0_3.png	198.93793106079102	
144	162.50869297981262	picture	0		121.0	142.0	/home/egter/Projects/stimuli/pictures/S_yt--a-d97T4Gak_75.png	198.94690203666687	1.015913963317871
144	163.5088369846344	response	0	j		142.0	/home/egter/Projects/stimuli/pictures/S_yt--a-d97T4Gak_75.png	199.94704604148865	
145	163.5246069431305	picture	0		115.0	143.0	/home/egter/Projects/stimuli/pictures/S_yt-QJHe-CoK4iI_170.png	199.96281599998474	0.9666471481323242
145	164.47471594810486	response	0	j		143.0	/home/egter/Projects/stimuli/pictures/S_yt-QJHe-CoK4iI_170.png	200.9129250049591	
146	164.49125409126282	picture	0		110.0	144.0	/home/egter/Projects/stimuli/pictures/S_yt-zam74qlzGtQ_122.png	200.92946314811707	0.9202108383178711
146	165.39981698989868	response	0	j		144.0	/home/egter/Projects/stimuli/pictures/S_yt-zam74qlzGtQ_122.png	201.83802604675293	
147	165.4114649295807	picture	0		149.0	145.0	/home/egter/Projects/stimuli/pictures/n07693725_5781.JPEG	201.84967398643494	1.2464780807495117
147	166.64137601852417	response	0	k		145.0	/home/egter/Projects/stimuli/pictures/n07693725_5781.JPEG	203.07958507537842	
148	166.6579430103302	picture	0		115.0	146.0	/home/egter/Projects/stimuli/pictures/S_comp_CH_C007_C011_PSNK_v02_SDR_PS_FINAL_20180709_SDR_2K_AVC.png	203.09615206718445	0.9666159152984619
148	167.6080219745636	response	0	j		146.0	/home/egter/Projects/stimuli/pictures/S_comp_CH_C007_C011_PSNK_v02_SDR_PS_FINAL_20180709_SDR_2K_AVC.png	204.04623103141785	
149	167.62455892562866	picture	0		108.0	147.0	/home/egter/Projects/stimuli/pictures/n01807496_28363.JPEG	204.0627679824829	0.9083390235900879
149	168.51634812355042	response	0	k		147.0	/home/egter/Projects/stimuli/pictures/n01807496_28363.JPEG	204.95455718040466	
150	168.53289794921875	picture	0		120.0	148.0	/home/egter/Projects/stimuli/pictures/n12985857_6781.JPEG	204.971107006073	1.008329153060913
150	169.52468991279602	response	0	k		148.0	/home/egter/Projects/stimuli/pictures/n12985857_6781.JPEG	205.96289896965027	
151	169.54122710227966	picture	0		91.0	149.0	/home/egter/Projects/stimuli/pictures/S_yt-BDCyXL5e9S4_223.png	205.9794361591339	0.7590889930725098
151	170.29135012626648	response	0	j		149.0	/home/egter/Projects/stimuli/pictures/S_yt-BDCyXL5e9S4_223.png	206.72955918312073	
152	170.30031609535217	picture	0		165.0	150.0	/home/egter/Projects/stimuli/pictures/S_AwPBuHsoXV0_25.png	206.73852515220642	1.4159338474273682
152	171.66633200645447	response	0	k		150.0	/home/egter/Projects/stimuli/pictures/S_AwPBuHsoXV0_25.png	208.10454106330872	
153	171.71624994277954	picture	0		119.0	151.0	/home/egter/Projects/stimuli/pictures/S_yt-Tn563IPZfg4_55.png	208.1544589996338	1.035499095916748
153	172.69962191581726	response	0	j		151.0	/home/egter/Projects/stimuli/pictures/S_yt-Tn563IPZfg4_55.png	209.1378309726715	
154	172.7517490386963	picture	0		109.0	152.0	/home/egter/Projects/stimuli/pictures/S_yt-33PKaLVxDC4_2703.png	209.18995809555054	0.9144608974456787
154	173.64966893196106	response	0	j		152.0	/home/egter/Projects/stimuli/pictures/S_yt-33PKaLVxDC4_2703.png	210.0878779888153	
155	173.66620993614197	picture	0		163.0	153.0	/home/egter/Projects/stimuli/pictures/R_S_yt-tneuR3EtSZE_72.png	210.10441899299622	1.3750240802764893
155	175.0163230895996	response	0	j		153.0	/home/egter/Projects/stimuli/pictures/R_S_yt-tneuR3EtSZE_72.png	211.45453214645386	
156	175.04123401641846	picture	0		162.0	154.0	/home/egter/Projects/stimuli/pictures/n04347754_624.JPEG	211.4794430732727	1.363274097442627
156	176.3837869167328	response	0	k		154.0	/home/egter/Projects/stimuli/pictures/n04347754_624.JPEG	212.82199597358704	
157	176.40450811386108	picture	0		119.0	155.0	/home/egter/Projects/stimuli/pictures/n01751748_7284.JPEG	212.84271717071533	1.0033738613128662
157	177.39128994941711	response	0	k		155.0	/home/egter/Projects/stimuli/pictures/n01751748_7284.JPEG	213.82949900627136	
158	177.40788197517395	picture	0		164.0	156.0	/home/egter/Projects/stimuli/pictures/n03207743_8564.JPEG	213.8460910320282	1.3749761581420898
158	178.76017904281616	response	0	k		156.0	/home/egter/Projects/stimuli/pictures/n03207743_8564.JPEG	215.1983880996704	
159	178.78285813331604	picture	0		181.0	157.0	/home/egter/Projects/stimuli/pictures/n01665541_18105.JPEG	215.2210671901703	1.51664400100708
159	180.282958984375	response	0	k		157.0	/home/egter/Projects/stimuli/pictures/n01665541_18105.JPEG	216.72116804122925	
160	180.29950213432312	picture	0		90.0	158.0	/home/egter/Projects/stimuli/pictures/R_S_yt-4ouMuGUuPHI_193.png	216.73771119117737	1.0166888236999512
160	181.04130792617798	response	0	j		158.0	/home/egter/Projects/stimuli/pictures/R_S_yt-4ouMuGUuPHI_193.png	217.47951698303223	
161	181.31619095802307	picture	0		110.0	159.0	/home/egter/Projects/stimuli/pictures/n03874293_5720.JPEG	217.75440001487732	0.9216530323028564
161	182.22463202476501	response	0	k		159.0	/home/egter/Projects/stimuli/pictures/n03874293_5720.JPEG	218.66284108161926	
162	182.23784399032593	picture	0		101.0	160.0	/home/egter/Projects/stimuli/pictures/R_S_yt-wrfAMDCg93Y_8.png	218.67605304718018	0.8533611297607422
162	183.0746190547943	response	0	j		160.0	/home/egter/Projects/stimuli/pictures/R_S_yt-wrfAMDCg93Y_8.png	219.51282811164856	
163	183.09120512008667	picture	0		115.0	161.0	/home/egter/Projects/stimuli/pictures/S_yt-BqJHT4K7Qf8_127.png	219.52941417694092	0.9590020179748535
163	184.04123497009277	response	0	j		161.0	/home/egter/Projects/stimuli/pictures/S_yt-BqJHT4K7Qf8_127.png	220.47944402694702	
164	184.05020713806152	picture	0		130.0	162.0	/home/egter/Projects/stimuli/pictures/R_S_yt-KVB49z48sZU_55.png	220.48841619491577	1.0909647941589355
164	185.12458610534668	response	0	j		162.0	/home/egter/Projects/stimuli/pictures/R_S_yt-KVB49z48sZU_55.png	221.56279516220093	
165	185.14117193222046	picture	0		93.0	163.0	/home/egter/Projects/stimuli/pictures/R_S_wc-__wCAtivIDG3_93.png	221.5793809890747	0.7833361625671387
165	185.90793704986572	response	0	j		163.0	/home/egter/Projects/stimuli/pictures/R_S_wc-__wCAtivIDG3_93.png	222.34614610671997	
166	185.9245080947876	picture	0		135.0	164.0	/home/egter/Projects/stimuli/pictures/S_yt-sZBe-xmTySc_8.png	222.36271715164185	1.1333189010620117
166	187.04129195213318	response	0	j		164.0	/home/egter/Projects/stimuli/pictures/S_yt-sZBe-xmTySc_8.png	223.47950100898743	
167	187.0578269958496	picture	0		115.0	165.0	/home/egter/Projects/stimuli/pictures/R_S_yt-gC3my54_ChQ_58.png	223.49603605270386	0.9666509628295898
167	188.00859999656677	response	0	j		165.0	/home/egter/Projects/stimuli/pictures/R_S_yt-gC3my54_ChQ_58.png	224.44680905342102	
168	188.0244779586792	picture	0		106.0	166.0	/home/egter/Projects/stimuli/pictures/S_yt-Q4edV5qiqu0_578.png	224.46268701553345	0.8867411613464355
168	188.89958691596985	response	0	j		166.0	/home/egter/Projects/stimuli/pictures/S_yt-Q4edV5qiqu0_578.png	225.3377959728241	
169	188.91121912002563	picture	0		186.0	167.0	/home/egter/Projects/stimuli/pictures/n03447447_524.JPEG	225.34942817687988	1.5556299686431885
169	190.44961500167847	response	0	k		167.0	/home/egter/Projects/stimuli/pictures/n03447447_524.JPEG	226.88782405853271	
170	190.46684908866882	picture	0		132.0	168.0	/home/egter/Projects/stimuli/pictures/n01664065_30633.JPEG	226.90505814552307	1.1249959468841553
170	191.55177211761475	response	0	k		168.0	/home/egter/Projects/stimuli/pictures/n01664065_30633.JPEG	227.989981174469	
171	191.59184503555298	picture	0		100.0	169.0	/home/egter/Projects/stimuli/pictures/n02640242_3189.JPEG	228.03005409240723	0.8493030071258545
171	192.4162299633026	response	0	k		169.0	/home/egter/Projects/stimuli/pictures/n02640242_3189.JPEG	228.85443902015686	
172	192.44114804267883	picture	0		106.0	170.0	/home/egter/Projects/stimuli/pictures/n02013706_7042.JPEG	228.87935709953308	0.8916559219360352
172	193.31621408462524	response	0	k		170.0	/home/egter/Projects/stimuli/pictures/n02013706_7042.JPEG	229.7544231414795	
173	193.33280396461487	picture	0		104.0	171.0	/home/egter/Projects/stimuli/pictures/S_yt-waWM9vAfsIw_116.png	229.77101302146912	0.8751111030578613
173	194.19127202033997	response	0	j		171.0	/home/egter/Projects/stimuli/pictures/S_yt-waWM9vAfsIw_116.png	230.6294810771942	
174	194.20791506767273	picture	0		124.0	172.0	/home/egter/Projects/stimuli/pictures/n01955084_12323.JPEG	230.64612412452698	1.0435938835144043
174	195.23288798332214	response	0	k		172.0	/home/egter/Projects/stimuli/pictures/n01955084_12323.JPEG	231.6710970401764	
175	195.25150895118713	picture	0		99.0	173.0	/home/egter/Projects/stimuli/pictures/S_yt-MWX0EtpWIs8_286.png	231.68971800804138	0.8316950798034668
175	196.06627798080444	response	0	j		173.0	/home/egter/Projects/stimuli/pictures/S_yt-MWX0EtpWIs8_286.png	232.5044870376587	
176	196.0832040309906	picture	0		120.0	174.0	/home/egter/Projects/stimuli/pictures/S_yt-wz2opOBqClo_14.png	232.52141308784485	1.0078930854797363
176	197.07453799247742	response	0	j		174.0	/home/egter/Projects/stimuli/pictures/S_yt-wz2opOBqClo_14.png	233.51274704933167	
177	197.09109711647034	picture	0		119.0	175.0	/home/egter/Projects/stimuli/pictures/n03930313_7086.JPEG	233.52930617332458	1.0000519752502441
177	198.07450604438782	response	0	k		175.0	/home/egter/Projects/stimuli/pictures/n03930313_7086.JPEG	234.51271510124207	
178	198.09114909172058	picture	0		119.0	176.0	/home/egter/Projects/stimuli/pictures/S_yt-JtR6WZXT2kU_8.png	234.52935814857483	1.2749428749084473
178	199.07456707954407	response	0	j		176.0	/home/egter/Projects/stimuli/pictures/S_yt-JtR6WZXT2kU_8.png	235.51277613639832	
179	199.36609196662903	picture	0		110.0	177.0	/home/egter/Projects/stimuli/pictures/ILSVRC2012_test_00044615.JPEG	235.80430102348328	0.9200351238250732
179	200.27455306053162	response	0	k		177.0	/home/egter/Projects/stimuli/pictures/ILSVRC2012_test_00044615.JPEG	236.71276211738586	
180	200.2861270904541	picture	0		121.0	178.0	/home/egter/Projects/stimuli/pictures/n02493509_2396.JPEG	236.72433614730835	1.0133390426635742
180	201.2828779220581	response	0	k		178.0	/home/egter/Projects/stimuli/pictures/n02493509_2396.JPEG	237.72108697891235	
181	201.29946613311768	picture	0		183.0	179.0	/home/egter/Projects/stimuli/pictures/ILSVRC2012_test_00041371.JPEG	237.73767518997192	1.5283567905426025
181	202.81621313095093	response	0	k		179.0	/home/egter/Projects/stimuli/pictures/ILSVRC2012_test_00041371.JPEG	239.25442218780518	
182	202.82782292366028	stim	0		345.0			239.26603198051453	2.8749701976776123
182	205.69117093086243	response	0	space				242.12937998771667	
