trial_nr	onset	event_type	phase	response	nr_frames	picture_index	picture_file	onset_abs	duration
0	0.023643970489501953	stim	0		825.0			29.124982118606567	6.939079999923706
0	6.929094076156616	response	0	space				36.03043222427368	
2	6.962723970413208	picture	0		465.0	0.0	/home/egter/Projects/stimuli/pictures/ILSVRC2012_test_00011550.JPEG	36.06406211853027	3.874962091445923
2	10.828994035720825	response	0	j		0.0	/home/egter/Projects/stimuli/pictures/ILSVRC2012_test_00011550.JPEG	39.93033218383789	
3	10.83768606185913	picture	0		46.0	1.0	/home/egter/Projects/stimuli/pictures/n01981276_1306.JPEG	39.939024209976196	0.3889298439025879
3	11.212775945663452	response	0	j		1.0	/home/egter/Projects/stimuli/pictures/n01981276_1306.JPEG	40.31411409378052	
4	11.226615905761719	picture	0		67.0	2.0	/home/egter/Projects/stimuli/pictures/S_pexels-roman-odintsov-8232443_1.png	40.327954053878784	0.562481164932251
4	11.779051065444946	response	0	k		2.0	/home/egter/Projects/stimuli/pictures/S_pexels-roman-odintsov-8232443_1.png	40.88038921356201	
5	11.78909707069397	picture	0		46.0	3.0	/home/egter/Projects/stimuli/pictures/S_10zlWVJ5aRw_5.png	40.890435218811035	0.3897538185119629
5	12.162338018417358	response	0	k		3.0	/home/egter/Projects/stimuli/pictures/S_10zlWVJ5aRw_5.png	41.263676166534424	
6	12.178850889205933	picture	0		46.0	4.0	/home/egter/Projects/stimuli/pictures/R_S_yt-jUGt_Byqczw_599.png	41.280189037323	0.38796305656433105
6	12.553905963897705	response	0	k		4.0	/home/egter/Projects/stimuli/pictures/R_S_yt-jUGt_Byqczw_599.png	41.65524411201477	
7	12.566813945770264	picture	0		62.0	5.0	/home/egter/Projects/stimuli/pictures/S_yt-ZynGxEtFNdk_243.png	41.66815209388733	0.5138969421386719
7	13.063823938369751	response	0	k		5.0	/home/egter/Projects/stimuli/pictures/S_yt-ZynGxEtFNdk_243.png	42.165162086486816	
8	13.080710887908936	picture	0		30.0	6.0	/home/egter/Projects/stimuli/pictures/S_yt-uE9XoCLZlFo_1.png	42.182049036026	0.24997210502624512
8	13.320651054382324	response	0	j		6.0	/home/egter/Projects/stimuli/pictures/S_yt-uE9XoCLZlFo_1.png	42.42198920249939	
9	13.33068299293518	picture	0		45.0	7.0	/home/egter/Projects/stimuli/pictures/S_yt-vMnSbsjGK9k_62.png	42.432021141052246	0.37506794929504395
9	13.689066886901855	response	0	j		7.0	/home/egter/Projects/stimuli/pictures/S_yt-vMnSbsjGK9k_62.png	42.79040503501892	
10	13.705750942230225	picture	0		33.0	8.0	/home/egter/Projects/stimuli/pictures/n02106662_31971.JPEG	42.80708909034729	0.27773594856262207
10	13.970529079437256	response	0	j		8.0	/home/egter/Projects/stimuli/pictures/n02106662_31971.JPEG	43.07186722755432	
11	13.983486890792847	picture	0		28.0	9.0	/home/egter/Projects/stimuli/pictures/n04252225_30744.JPEG	43.08482503890991	0.2430720329284668
11	14.21278190612793	response	0	j		9.0	/home/egter/Projects/stimuli/pictures/n04252225_30744.JPEG	43.314120054244995	
12	14.226558923721313	picture	0		32.0	10.0	/home/egter/Projects/stimuli/pictures/S_yt-n2sJadTbuxo_10.png	43.32789707183838	0.2773411273956299
12	14.480417013168335	response	0	j		10.0	/home/egter/Projects/stimuli/pictures/S_yt-n2sJadTbuxo_10.png	43.5817551612854	
13	14.503900051116943	picture	0		31.0	11.0	/home/egter/Projects/stimuli/pictures/n01833805_1496.JPEG	43.60523819923401	0.26659202575683594
13	14.754454851150513	response	0	j		11.0	/home/egter/Projects/stimuli/pictures/n01833805_1496.JPEG	43.85579299926758	
14	14.77049207687378	picture	0		29.0	12.0	/home/egter/Projects/stimuli/pictures/S_yt-sa-EMUqvd5w_245.png	43.871830224990845	0.2476959228515625
14	15.004356861114502	response	0	j		12.0	/home/egter/Projects/stimuli/pictures/S_yt-sa-EMUqvd5w_245.png	44.10569500923157	
15	15.018187999725342	picture	0		28.0	13.0	/home/egter/Projects/stimuli/pictures/S_ILSVRC2015_train_00460000.png	44.11952614784241	0.23607397079467773
15	15.245576858520508	response	0	j		13.0	/home/egter/Projects/stimuli/pictures/S_ILSVRC2015_train_00460000.png	44.34691500663757	
16	15.25426197052002	picture	0		27.0	14.0	/home/egter/Projects/stimuli/pictures/S_yt-RVoC19C420Y_27.png	44.355600118637085	0.22923803329467773
16	15.464425086975098	response	0	k		14.0	/home/egter/Projects/stimuli/pictures/S_yt-RVoC19C420Y_27.png	44.56576323509216	
17	15.483500003814697	picture	0		30.0	15.0	/home/egter/Projects/stimuli/pictures/n01776313_35490.JPEG	44.58483815193176	0.2619290351867676
17	15.728961944580078	response	0	j		15.0	/home/egter/Projects/stimuli/pictures/n01776313_35490.JPEG	44.830300092697144	
18	15.745429039001465	picture	0		14.0	16.0	/home/egter/Projects/stimuli/pictures/S_yt-9Q7SZR0mgMA_155.png	44.84676718711853	0.12000489234924316
18	15.8540198802948	response	0	k		16.0	/home/egter/Projects/stimuli/pictures/S_yt-9Q7SZR0mgMA_155.png	44.955358028411865	
19	15.865433931350708	picture	0		13.0	17.0	/home/egter/Projects/stimuli/pictures/n04465501_7059.JPEG	44.96677207946777	0.11344695091247559
19	15.962678909301758	response	0	j		17.0	/home/egter/Projects/stimuli/pictures/n04465501_7059.JPEG	45.06401705741882	
20	15.978880882263184	picture	0		12.0	18.0	/home/egter/Projects/stimuli/pictures/R_S_yt-a5TGHnldsKg_102.png	45.08021903038025	0.10181808471679688
20	16.064295053482056	response	0	k		18.0	/home/egter/Projects/stimuli/pictures/R_S_yt-a5TGHnldsKg_102.png	45.16563320159912	
21	16.08069896697998	picture	0		10.0	19.0	/home/egter/Projects/stimuli/pictures/R_S_ILSVRC2015_train_00251004.png	45.182037115097046	0.08335399627685547
21	16.153976917266846	response	0	j		19.0	/home/egter/Projects/stimuli/pictures/R_S_ILSVRC2015_train_00251004.png	45.25531506538391	
22	16.164052963256836	picture	0		12.0	20.0	/home/egter/Projects/stimuli/pictures/R_S_yt-IigHVUksnw8_7.png	45.2653911113739	0.10642600059509277
22	16.254483938217163	response	0	k		20.0	/home/egter/Projects/stimuli/pictures/R_S_yt-IigHVUksnw8_7.png	45.35582208633423	
23	16.27047896385193	picture	0		9.0	21.0	/home/egter/Projects/stimuli/pictures/S_pexels-rodnae-productions-5993237_1.png	45.371817111968994	0.08111310005187988
23	16.337771892547607	response	0	j		21.0	/home/egter/Projects/stimuli/pictures/S_pexels-rodnae-productions-5993237_1.png	45.43911004066467	
24	16.35159206390381	picture	0		11.0	22.0	/home/egter/Projects/stimuli/pictures/S_yt-3JApfnMu5cU_378.png	45.452930212020874	0.09716296195983887
24	16.437231063842773	response	0	k		22.0	/home/egter/Projects/stimuli/pictures/S_yt-3JApfnMu5cU_378.png	45.53856921195984	
25	16.448755025863647	picture	0		10.0	23.0	/home/egter/Projects/stimuli/pictures/S_yt-zam74qlzGtQ_122.png	45.55009317398071	0.0833740234375
25	16.52054500579834	response	0	j		23.0	/home/egter/Projects/stimuli/pictures/S_yt-zam74qlzGtQ_122.png	45.621883153915405	
26	16.532129049301147	picture	0		11.0	24.0	/home/egter/Projects/stimuli/pictures/S_ILSVRC2015_train_00066005.png	45.63346719741821	0.0902090072631836
26	16.612200021743774	response	0	k		24.0	/home/egter/Projects/stimuli/pictures/S_ILSVRC2015_train_00066005.png	45.71353816986084	
27	16.62233805656433	picture	0		10.0	25.0	/home/egter/Projects/stimuli/pictures/n01753488_7071.JPEG	45.7236762046814	0.08336591720581055
27	16.6889169216156	response	0	j		25.0	/home/egter/Projects/stimuli/pictures/n01753488_7071.JPEG	45.790255069732666	
28	16.70570397377014	picture	0		9.0	26.0	/home/egter/Projects/stimuli/pictures/R_S_yt-Mjm5smrurQI_125.png	45.80704212188721	0.07639694213867188
28	16.770545959472656	response	0	k		26.0	/home/egter/Projects/stimuli/pictures/R_S_yt-Mjm5smrurQI_125.png	45.87188410758972	
29	16.782100915908813	picture	0		12.0	27.0	/home/egter/Projects/stimuli/pictures/R_S_yt-nn-8LZcafGs_35.png	45.88343906402588	0.09711694717407227
29	16.86391806602478	response	0	j		27.0	/home/egter/Projects/stimuli/pictures/R_S_yt-nn-8LZcafGs_35.png	45.965256214141846	
30	16.879217863082886	picture	0		10.0	28.0	/home/egter/Projects/stimuli/pictures/R_S_yt-GfPep7IhZIU_47.png	45.98055601119995	0.09154105186462402
30	16.948544025421143	response	0	k		28.0	/home/egter/Projects/stimuli/pictures/R_S_yt-GfPep7IhZIU_47.png	46.04988217353821	
31	16.97075891494751	picture	0		9.0	29.0	/home/egter/Projects/stimuli/pictures/S_wc-7ugQ0V4lxYkJ_131.png	46.072097063064575	0.07524800300598145
31	17.03736686706543	response	0	j		29.0	/home/egter/Projects/stimuli/pictures/S_wc-7ugQ0V4lxYkJ_131.png	46.138705015182495	
32	17.04600691795349	picture	0		9.0	30.0	/home/egter/Projects/stimuli/pictures/n09288635_24719.JPEG	46.14734506607056	0.07635998725891113
32	17.112205028533936	response	0	k		30.0	/home/egter/Projects/stimuli/pictures/n09288635_24719.JPEG	46.213543176651	
33	17.122366905212402	picture	0		13.0	31.0	/home/egter/Projects/stimuli/pictures/S_yt-NqyG4Ar2JWo_10.png	46.22370505332947	0.1147921085357666
33	17.220731019973755	response	0	j		31.0	/home/egter/Projects/stimuli/pictures/S_yt-NqyG4Ar2JWo_10.png	46.32206916809082	
34	17.23715901374817	picture	0		8.0	32.0	/home/egter/Projects/stimuli/pictures/S_yt-nn-8LZcafGs_35.png	46.338497161865234	0.07503795623779297
34	17.296441078186035	response	0	k		32.0	/home/egter/Projects/stimuli/pictures/S_yt-nn-8LZcafGs_35.png	46.3977792263031	
35	17.312196969985962	picture	0		10.0	33.0	/home/egter/Projects/stimuli/pictures/S_comp_GMT308_139K_142NC_CARIBBEAN_DAY_v09_SDR_FINAL_22062018_SDR_2K_AVC.png	46.41353511810303	0.09163904190063477
35	17.38735604286194	response	0	j		33.0	/home/egter/Projects/stimuli/pictures/S_comp_GMT308_139K_142NC_CARIBBEAN_DAY_v09_SDR_FINAL_22062018_SDR_2K_AVC.png	46.488694190979004	
36	17.403836011886597	picture	0		10.0	34.0	/home/egter/Projects/stimuli/pictures/n02410509_1127.JPEG	46.50517416000366	0.09170103073120117
36	17.47227692604065	response	0	k		34.0	/home/egter/Projects/stimuli/pictures/n02410509_1127.JPEG	46.573615074157715	
37	17.495537042617798	picture	0		9.0	35.0	/home/egter/Projects/stimuli/pictures/S_wc-sd8_iKx0t7s7_9.png	46.59687519073486	0.0833740234375
37	17.562411069869995	response	0	j		35.0	/home/egter/Projects/stimuli/pictures/S_wc-sd8_iKx0t7s7_9.png	46.66374921798706	
38	17.578911066055298	picture	0		10.0	36.0	/home/egter/Projects/stimuli/pictures/n02132136_21557.JPEG	46.68024921417236	0.09160685539245605
38	17.65407705307007	response	0	k		36.0	/home/egter/Projects/stimuli/pictures/n02132136_21557.JPEG	46.755415201187134	
39	17.670517921447754	picture	0		10.0	37.0	/home/egter/Projects/stimuli/pictures/n04238763_25909.JPEG	46.77185606956482	0.09169197082519531
39	17.745634078979492	response	0	j		37.0	/home/egter/Projects/stimuli/pictures/n04238763_25909.JPEG	46.84697222709656	
40	17.76220989227295	picture	0		9.0	38.0	/home/egter/Projects/stimuli/pictures/n02447366_2109.JPEG	46.863548040390015	0.0753641128540039
40	17.828922033309937	response	0	k		38.0	/home/egter/Projects/stimuli/pictures/n02447366_2109.JPEG	46.930260181427	
41	17.837574005126953	picture	0		10.0	39.0	/home/egter/Projects/stimuli/pictures/R_S_yt-bwSRV1Vr21s_435.png	46.93891215324402	0.08334803581237793
41	17.91235589981079	response	0	j		39.0	/home/egter/Projects/stimuli/pictures/R_S_yt-bwSRV1Vr21s_435.png	47.013694047927856	
42	17.92092204093933	picture	0		11.0	40.0	/home/egter/Projects/stimuli/pictures/n02988304_11706.JPEG	47.0222601890564	0.09954094886779785
42	18.004332065582275	response	0	k		40.0	/home/egter/Projects/stimuli/pictures/n02988304_11706.JPEG	47.10567021369934	
43	18.02046298980713	picture	0		10.0	41.0	/home/egter/Projects/stimuli/pictures/S_wc-ikynRrpJVaWp_12.png	47.121801137924194	0.08801794052124023
43	18.08953094482422	response	0	j		41.0	/home/egter/Projects/stimuli/pictures/S_wc-ikynRrpJVaWp_12.png	47.190869092941284	
44	18.10848093032837	picture	0		9.0	42.0	/home/egter/Projects/stimuli/pictures/S_ILSVRC2015_train_00251005.png	47.209819078445435	0.07866501808166504
44	18.171386003494263	response	0	k		42.0	/home/egter/Projects/stimuli/pictures/S_ILSVRC2015_train_00251005.png	47.27272415161133	
45	18.187145948410034	picture	0		10.0	43.0	/home/egter/Projects/stimuli/pictures/R_S_yt-JpOBXV46TLE_124.png	47.2884840965271	0.09163308143615723
45	18.256087064743042	response	0	j		43.0	/home/egter/Projects/stimuli/pictures/R_S_yt-JpOBXV46TLE_124.png	47.35742521286011	
46	18.27877902984619	picture	0		8.0	44.0	/home/egter/Projects/stimuli/pictures/S_yt-oASqBTM-5fw_73.png	47.38011717796326	0.07521986961364746
46	18.337992906570435	response	0	k		44.0	/home/egter/Projects/stimuli/pictures/S_yt-oASqBTM-5fw_73.png	47.4393310546875	
47	18.35399889945984	picture	0		10.0	45.0	/home/egter/Projects/stimuli/pictures/S_pexels-anthony-shkraba-production-8135459.png	47.455337047576904	0.09145498275756836
47	18.428952932357788	response	0	j		45.0	/home/egter/Projects/stimuli/pictures/S_pexels-anthony-shkraba-production-8135459.png	47.53029108047485	
48	18.445453882217407	picture	0		9.0	46.0	/home/egter/Projects/stimuli/pictures/n02101388_4596.JPEG	47.54679203033447	0.07971310615539551
48	18.512244939804077	response	0	k		46.0	/home/egter/Projects/stimuli/pictures/n02101388_4596.JPEG	47.61358308792114	
49	18.525166988372803	picture	0		11.0	47.0	/home/egter/Projects/stimuli/pictures/R_S_yt-w_C-15eJeCQ_191.png	47.62650513648987	0.10386204719543457
49	18.612447023391724	response	0	j		47.0	/home/egter/Projects/stimuli/pictures/R_S_yt-w_C-15eJeCQ_191.png	47.71378517150879	
50	18.629029035568237	picture	0		8.0	48.0	/home/egter/Projects/stimuli/pictures/n03773504_370.JPEG	47.7303671836853	0.06969499588012695
50	18.68083095550537	response	0	k		48.0	/home/egter/Projects/stimuli/pictures/n03773504_370.JPEG	47.78216910362244	
51	18.698724031448364	picture	0		11.0	49.0	/home/egter/Projects/stimuli/pictures/n01797886_14987.JPEG	47.80006217956543	0.09670591354370117
51	18.77905797958374	response	0	j		49.0	/home/egter/Projects/stimuli/pictures/n01797886_14987.JPEG	47.880396127700806	
52	18.795429944992065	picture	0		10.0	50.0	/home/egter/Projects/stimuli/pictures/S_yt-ZmoUDsP2y40_8.png	47.89676809310913	0.08381891250610352
52	18.863826990127563	response	0	k		50.0	/home/egter/Projects/stimuli/pictures/S_yt-ZmoUDsP2y40_8.png	47.96516513824463	
53	18.87924885749817	picture	0		12.0	51.0	/home/egter/Projects/stimuli/pictures/R_S_yt-aiDGx4AN8J0_9.png	47.980587005615234	0.10417008399963379
53	18.97050905227661	response	0	j		51.0	/home/egter/Projects/stimuli/pictures/R_S_yt-aiDGx4AN8J0_9.png	48.07184720039368	
54	18.983418941497803	picture	0		10.0	52.0	/home/egter/Projects/stimuli/pictures/n09288635_9130.JPEG	48.08475708961487	0.09036397933959961
54	19.05636191368103	response	0	k		52.0	/home/egter/Projects/stimuli/pictures/n09288635_9130.JPEG	48.157700061798096	
55	19.073782920837402	picture	0		11.0	53.0	/home/egter/Projects/stimuli/pictures/R_S_production_ID_4101242.png	48.17512106895447	0.09030008316040039
55	19.15385603904724	response	0	j		53.0	/home/egter/Projects/stimuli/pictures/R_S_production_ID_4101242.png	48.25519418716431	
56	19.164083003997803	picture	0		11.0	54.0	/home/egter/Projects/stimuli/pictures/S_yt-sWBjSPt7tZI_85.png	48.26542115211487	0.09808993339538574
56	19.245609045028687	response	0	k		54.0	/home/egter/Projects/stimuli/pictures/S_yt-sWBjSPt7tZI_85.png	48.34694719314575	
57	19.26217293739319	picture	0		9.0	55.0	/home/egter/Projects/stimuli/pictures/n02817516_67499.JPEG	48.363511085510254	0.08334803581237793
57	19.328958988189697	response	0	j		55.0	/home/egter/Projects/stimuli/pictures/n02817516_67499.JPEG	48.43029713630676	
58	19.345520973205566	picture	0		9.0	56.0	/home/egter/Projects/stimuli/pictures/S_yt-cILZ_cB3_so_73.png	48.44685912132263	0.08332395553588867
58	19.412240028381348	response	0	k		56.0	/home/egter/Projects/stimuli/pictures/S_yt-cILZ_cB3_so_73.png	48.51357817649841	
59	19.428844928741455	picture	0		11.0	57.0	/home/egter/Projects/stimuli/pictures/R_S_comp_A105_C003_0212CT_FLARE_v10_SDR_PS_FINAL_20180711_SDR_2K_AVC.png	48.53018307685852	0.10002994537353516
59	19.5073459148407	response	0	j		57.0	/home/egter/Projects/stimuli/pictures/R_S_comp_A105_C003_0212CT_FLARE_v10_SDR_PS_FINAL_20180711_SDR_2K_AVC.png	48.608684062957764	
60	19.52887487411499	picture	0		8.0	58.0	/home/egter/Projects/stimuli/pictures/R_S_OdxWh1oU8e8_1.png	48.630213022232056	0.0749351978302002
60	19.58768892288208	response	0	k		58.0	/home/egter/Projects/stimuli/pictures/R_S_OdxWh1oU8e8_1.png	48.689027070999146	
61	19.60381007194519	picture	0		10.0	59.0	/home/egter/Projects/stimuli/pictures/n02786058_2296.JPEG	48.705148220062256	0.09169793128967285
61	19.672684907913208	response	0	j		59.0	/home/egter/Projects/stimuli/pictures/n02786058_2296.JPEG	48.77402305603027	
62	19.695508003234863	picture	0		8.0	60.0	/home/egter/Projects/stimuli/pictures/R_S_pexels-mart-production-7277934.png	48.79684615135193	0.07970094680786133
62	19.754771947860718	response	0	k		60.0	/home/egter/Projects/stimuli/pictures/R_S_pexels-mart-production-7277934.png	48.85611009597778	
63	19.775208950042725	picture	0		11.0	61.0	/home/egter/Projects/stimuli/pictures/n02101556_5125.JPEG	48.87654709815979	0.09713912010192871
63	19.862186908721924	response	0	j		61.0	/home/egter/Projects/stimuli/pictures/n02101556_5125.JPEG	48.96352505683899	
64	19.872348070144653	picture	0		8.0	62.0	/home/egter/Projects/stimuli/pictures/R_S_EFR8AteY59I_15.png	48.97368621826172	0.07318282127380371
64	19.929061889648438	response	0	k		62.0	/home/egter/Projects/stimuli/pictures/R_S_EFR8AteY59I_15.png	49.0304000377655	
65	19.945530891418457	picture	0		11.0	63.0	/home/egter/Projects/stimuli/pictures/R_S_yt-fymgyhmYnMI_76.png	49.04686903953552	0.09352803230285645
65	20.028965950012207	response	0	j		63.0	/home/egter/Projects/stimuli/pictures/R_S_yt-fymgyhmYnMI_76.png	49.13030409812927	
66	20.039058923721313	picture	0		8.0	64.0	/home/egter/Projects/stimuli/pictures/R_S_yt-HwZFMTZ7Xko_35.png	49.14039707183838	0.07311296463012695
66	20.095656871795654	response	0	k		64.0	/home/egter/Projects/stimuli/pictures/R_S_yt-HwZFMTZ7Xko_35.png	49.19699501991272	
67	20.11217188835144	picture	0		12.0	65.0	/home/egter/Projects/stimuli/pictures/S_pexels-vlada-karpovich-8044792.png	49.213510036468506	0.10849213600158691
67	20.203943014144897	response	0	j		65.0	/home/egter/Projects/stimuli/pictures/S_pexels-vlada-karpovich-8044792.png	49.30528116226196	
68	20.220664024353027	picture	0		8.0	66.0	/home/egter/Projects/stimuli/pictures/R_S_production_ID_4540332.png	49.32200217247009	0.08323884010314941
68	20.279083967208862	response	0	k		66.0	/home/egter/Projects/stimuli/pictures/R_S_production_ID_4540332.png	49.38042211532593	
69	20.303902864456177	picture	0		8.0	67.0	/home/egter/Projects/stimuli/pictures/n03873416_6663.JPEG	49.40524101257324	0.07490921020507812
69	20.36258292198181	response	0	j		67.0	/home/egter/Projects/stimuli/pictures/n03873416_6663.JPEG	49.46392107009888	
70	20.378812074661255	picture	0		9.0	68.0	/home/egter/Projects/stimuli/pictures/S_ILSVRC2015_train_00516000.png	49.48015022277832	0.07683587074279785
70	20.445533990859985	response	0	k		68.0	/home/egter/Projects/stimuli/pictures/S_ILSVRC2015_train_00516000.png	49.54687213897705	
71	20.455647945404053	picture	0		10.0	69.0	/home/egter/Projects/stimuli/pictures/n03498962_11632.JPEG	49.55698609352112	0.08986711502075195
71	20.528855085372925	response	0	j		69.0	/home/egter/Projects/stimuli/pictures/n03498962_11632.JPEG	49.63019323348999	
72	20.545515060424805	picture	0		8.0	70.0	/home/egter/Projects/stimuli/pictures/R_S_yt--cAfxH1WnPo_3.png	49.64685320854187	0.07505083084106445
72	20.604067087173462	response	0	k		70.0	/home/egter/Projects/stimuli/pictures/R_S_yt--cAfxH1WnPo_3.png	49.70540523529053	
73	20.62056589126587	picture	0		11.0	71.0	/home/egter/Projects/stimuli/pictures/n02879718_27067.JPEG	49.721904039382935	0.0999760627746582
73	20.704051971435547	response	0	j		71.0	/home/egter/Projects/stimuli/pictures/n02879718_27067.JPEG	49.80539011955261	
74	20.720541954040527	picture	0		8.0	72.0	/home/egter/Projects/stimuli/pictures/S_yt-nE8YJOhW4e4_171.png	49.82188010215759	0.06850910186767578
74	20.779002904891968	response	0	k		72.0	/home/egter/Projects/stimuli/pictures/S_yt-nE8YJOhW4e4_171.png	49.88034105300903	
75	20.789051055908203	picture	0		12.0	73.0	/home/egter/Projects/stimuli/pictures/R_S_wc-__wCAtivIDG3_93.png	49.89038920402527	0.10643887519836426
75	20.872230052947998	response	0	j		73.0	/home/egter/Projects/stimuli/pictures/R_S_wc-__wCAtivIDG3_93.png	49.97356820106506	
76	20.895489931106567	picture	0		7.0	74.0	/home/egter/Projects/stimuli/pictures/S_yt-sde4IKBgBMw_21.png	49.99682807922363	0.06676602363586426
76	20.945589065551758	response	0	k		74.0	/home/egter/Projects/stimuli/pictures/S_yt-sde4IKBgBMw_21.png	50.04692721366882	
77	20.96225595474243	picture	0		12.0	75.0	/home/egter/Projects/stimuli/pictures/R_S_comp_LA_A006_C008_PSNK_ALL_LOGOS_v10_SDR_PS_FINAL_20180801_SDR_2K_AVC.png	50.0635941028595	0.10822296142578125
77	21.04768204689026	response	0	j		75.0	/home/egter/Projects/stimuli/pictures/R_S_comp_LA_A006_C008_PSNK_ALL_LOGOS_v10_SDR_PS_FINAL_20180801_SDR_2K_AVC.png	50.149020195007324	
78	21.070478916168213	picture	0		8.0	76.0	/home/egter/Projects/stimuli/pictures/n07693725_9013.JPEG	50.17181706428528	0.07508516311645508
78	21.129726886749268	response	0	k		76.0	/home/egter/Projects/stimuli/pictures/n07693725_9013.JPEG	50.23106503486633	
79	21.145564079284668	picture	0		11.0	77.0	/home/egter/Projects/stimuli/pictures/n02988304_3864.JPEG	50.24690222740173	0.0948188304901123
79	21.228919982910156	response	0	j		77.0	/home/egter/Projects/stimuli/pictures/n02988304_3864.JPEG	50.33025813102722	
80	21.24038290977478	picture	0		10.0	78.0	/home/egter/Projects/stimuli/pictures/ILSVRC2012_val_00031535.JPEG	50.341721057891846	0.08333206176757812
80	21.31221890449524	response	0	k		78.0	/home/egter/Projects/stimuli/pictures/ILSVRC2012_val_00031535.JPEG	50.413557052612305	
81	21.32371497154236	picture	0		12.0	79.0	/home/egter/Projects/stimuli/pictures/S_yt--cAfxH1WnPo_3.png	50.425053119659424	0.10504889488220215
81	21.414191961288452	response	0	j		79.0	/home/egter/Projects/stimuli/pictures/S_yt--cAfxH1WnPo_3.png	50.51553010940552	
82	21.42876386642456	picture	0		7.0	80.0	/home/egter/Projects/stimuli/pictures/n02814533_4087.JPEG	50.530102014541626	0.06168699264526367
82	21.47231388092041	response	0	k		80.0	/home/egter/Projects/stimuli/pictures/n02814533_4087.JPEG	50.573652029037476	
83	21.490450859069824	picture	0		14.0	81.0	/home/egter/Projects/stimuli/pictures/n03457902_10209.JPEG	50.59178900718689	0.12163710594177246
83	21.595844984054565	response	0	j		81.0	/home/egter/Projects/stimuli/pictures/n03457902_10209.JPEG	50.69718313217163	
84	21.612087965011597	picture	0		7.0	82.0	/home/egter/Projects/stimuli/pictures/n04428191_27671.JPEG	50.71342611312866	0.06679701805114746
84	21.656625986099243	response	0	k		82.0	/home/egter/Projects/stimuli/pictures/n04428191_27671.JPEG	50.75796413421631	
85	21.678884983062744	picture	0		11.0	83.0	/home/egter/Projects/stimuli/pictures/n04597913_2077.JPEG	50.78022313117981	0.09985208511352539
85	21.762171030044556	response	0	j		83.0	/home/egter/Projects/stimuli/pictures/n04597913_2077.JPEG	50.86350917816162	
86	21.77873706817627	picture	0		7.0	84.0	/home/egter/Projects/stimuli/pictures/R_S_yt-tEzCpMrjOHs_24.png	50.880075216293335	0.05900382995605469
86	21.828979969024658	response	0	k		84.0	/home/egter/Projects/stimuli/pictures/R_S_yt-tEzCpMrjOHs_24.png	50.930318117141724	
87	21.837740898132324	picture	0		13.0	85.0	/home/egter/Projects/stimuli/pictures/n02025239_3191.JPEG	50.93907904624939	0.11612606048583984
87	21.937401056289673	response	0	j		85.0	/home/egter/Projects/stimuli/pictures/n02025239_3191.JPEG	51.03873920440674	
88	21.953866958618164	picture	0		9.0	86.0	/home/egter/Projects/stimuli/pictures/R_S_yt-7W50lcw5FCo_37.png	51.05520510673523	0.07821297645568848
88	22.020570039749146	response	0	k		86.0	/home/egter/Projects/stimuli/pictures/R_S_yt-7W50lcw5FCo_37.png	51.12190818786621	
89	22.032079935073853	picture	0		11.0	87.0	/home/egter/Projects/stimuli/pictures/n01667114_15503.JPEG	51.13341808319092	0.09725594520568848
89	22.11226797103882	response	0	j		87.0	/home/egter/Projects/stimuli/pictures/n01667114_15503.JPEG	51.213606119155884	
90	22.12933588027954	picture	0		8.0	88.0	/home/egter/Projects/stimuli/pictures/S_ILSVRC2015_train_00303005.png	51.230674028396606	0.07449507713317871
90	22.187387943267822	response	0	k		88.0	/home/egter/Projects/stimuli/pictures/S_ILSVRC2015_train_00303005.png	51.28872609138489	
91	22.20383095741272	picture	0		12.0	89.0	/home/egter/Projects/stimuli/pictures/S_yt-a5TGHnldsKg_102.png	51.305169105529785	0.10838103294372559
91	22.296041011810303	response	0	j		89.0	/home/egter/Projects/stimuli/pictures/S_yt-a5TGHnldsKg_102.png	51.39737915992737	
92	22.312211990356445	picture	0		7.0	90.0	/home/egter/Projects/stimuli/pictures/n01692333_5159.JPEG	51.41355013847351	0.06008005142211914
92	22.362274885177612	response	0	k		90.0	/home/egter/Projects/stimuli/pictures/n01692333_5159.JPEG	51.46361303329468	
93	22.372292041778564	picture	0		13.0	91.0	/home/egter/Projects/stimuli/pictures/n02514041_4535.JPEG	51.47363018989563	0.1112058162689209
93	22.464241981506348	response	0	j		91.0	/home/egter/Projects/stimuli/pictures/n02514041_4535.JPEG	51.56558012962341	
94	22.483497858047485	picture	0		8.0	92.0	/home/egter/Projects/stimuli/pictures/R_S_yt-4r-oovk9JWg_85.png	51.58483600616455	0.07873106002807617
94	22.546300888061523	response	0	k		92.0	/home/egter/Projects/stimuli/pictures/R_S_yt-4r-oovk9JWg_85.png	51.64763903617859	
95	22.56222891807556	picture	0		13.0	93.0	/home/egter/Projects/stimuli/pictures/S_yt-9T99N7Cvi_o_112.png	51.66356706619263	0.10866308212280273
95	22.66219186782837	response	0	j		93.0	/home/egter/Projects/stimuli/pictures/S_yt-9T99N7Cvi_o_112.png	51.763530015945435	
96	22.670892000198364	picture	0		8.0	94.0	/home/egter/Projects/stimuli/pictures/n04347754_17994.JPEG	51.77223014831543	0.07458186149597168
96	22.728965044021606	response	0	k		94.0	/home/egter/Projects/stimuli/pictures/n04347754_17994.JPEG	51.83030319213867	
97	22.745473861694336	picture	0		9.0	95.0	/home/egter/Projects/stimuli/pictures/R_S_flickr-clarkstonscamp-4863427159_1.png	51.8468120098114	0.10829710960388184
97	22.833081007003784	response	0	j		95.0	/home/egter/Projects/stimuli/pictures/R_S_flickr-clarkstonscamp-4863427159_1.png	51.93441915512085	
98	22.853770971298218	picture	0		7.0	96.0	/home/egter/Projects/stimuli/pictures/n01692333_9591.JPEG	51.95510911941528	0.060281991958618164
98	22.903884887695312	response	0	k		96.0	/home/egter/Projects/stimuli/pictures/n01692333_9591.JPEG	52.00522303581238	
99	22.914052963256836	picture	0		14.0	97.0	/home/egter/Projects/stimuli/pictures/R_S_yt-9pYW_TqVpU4_43.png	52.0153911113739	0.11794710159301758
99	23.020448923110962	response	0	j		97.0	/home/egter/Projects/stimuli/pictures/R_S_yt-9pYW_TqVpU4_43.png	52.12178707122803	
100	23.032000064849854	picture	0		10.0	98.0	/home/egter/Projects/stimuli/pictures/n01630670_4369.JPEG	52.13333821296692	0.08847784996032715
100	23.097519874572754	response	0	k		98.0	/home/egter/Projects/stimuli/pictures/n01630670_4369.JPEG	52.19885802268982	
101	23.12047791481018	picture	0		11.0	99.0	/home/egter/Projects/stimuli/pictures/n02966193_21630.JPEG	52.221816062927246	0.10008597373962402
101	23.203918933868408	response	0	j		99.0	/home/egter/Projects/stimuli/pictures/n02966193_21630.JPEG	52.305257081985474	
102	23.220563888549805	picture	0		9.0	100.0	/home/egter/Projects/stimuli/pictures/n03042490_124.JPEG	52.32190203666687	0.0831899642944336
102	23.280595064163208	response	0	k		100.0	/home/egter/Projects/stimuli/pictures/n03042490_124.JPEG	52.38193321228027	
103	23.30375385284424	picture	0		10.0	101.0	/home/egter/Projects/stimuli/pictures/n07693725_12956.JPEG	52.405092000961304	0.09168720245361328
103	23.379477977752686	response	0	j		101.0	/home/egter/Projects/stimuli/pictures/n07693725_12956.JPEG	52.48081612586975	
104	23.39544105529785	picture	0		10.0	102.0	/home/egter/Projects/stimuli/pictures/n03042490_325.JPEG	52.49677920341492	0.08799195289611816
104	23.464854955673218	response	0	k		102.0	/home/egter/Projects/stimuli/pictures/n03042490_325.JPEG	52.56619310379028	
105	23.48343300819397	picture	0		10.0	103.0	/home/egter/Projects/stimuli/pictures/n04243546_27828.JPEG	52.584771156311035	0.09025287628173828
105	23.562190055847168	response	0	j		103.0	/home/egter/Projects/stimuli/pictures/n04243546_27828.JPEG	52.66352820396423	
106	23.573685884475708	picture	0		10.0	104.0	/home/egter/Projects/stimuli/pictures/n04476259_12267.JPEG	52.67502403259277	0.0903921127319336
106	23.645693063735962	response	0	k		104.0	/home/egter/Projects/stimuli/pictures/n04476259_12267.JPEG	52.74703121185303	
107	23.66407799720764	picture	0		12.0	105.0	/home/egter/Projects/stimuli/pictures/n04589890_9882.JPEG	52.76541614532471	0.10638189315795898
107	23.754633903503418	response	0	j		105.0	/home/egter/Projects/stimuli/pictures/n04589890_9882.JPEG	52.85597205162048	
108	23.7704598903656	picture	0		9.0	106.0	/home/egter/Projects/stimuli/pictures/S_yt-iiGwN9FQrZo_1.png	52.871798038482666	0.08330798149108887
108	23.83776593208313	response	0	k		106.0	/home/egter/Projects/stimuli/pictures/S_yt-iiGwN9FQrZo_1.png	52.939104080200195	
109	23.85376787185669	picture	0		12.0	107.0	/home/egter/Projects/stimuli/pictures/n03895866_37571.JPEG	52.955106019973755	0.1083230972290039
109	23.946150064468384	response	0	j		107.0	/home/egter/Projects/stimuli/pictures/n03895866_37571.JPEG	53.04748821258545	
110	23.962090969085693	picture	0		9.0	108.0	/home/egter/Projects/stimuli/pictures/S_yt-uXDyvrm0Tw0_17.png	53.06342911720276	0.08333897590637207
110	24.028987884521484	response	0	k		108.0	/home/egter/Projects/stimuli/pictures/S_yt-uXDyvrm0Tw0_17.png	53.13032603263855	
111	24.045429944992065	picture	0		12.0	109.0	/home/egter/Projects/stimuli/pictures/n02687172_18426.JPEG	53.14676809310913	0.10464596748352051
111	24.13715887069702	response	0	j		109.0	/home/egter/Projects/stimuli/pictures/n02687172_18426.JPEG	53.23849701881409	
112	24.150075912475586	picture	0		10.0	110.0	/home/egter/Projects/stimuli/pictures/R_S_video_inspire_california_big-sur_landscape_054.png	53.25141406059265	0.0953209400177002
112	24.228920936584473	response	0	k		110.0	/home/egter/Projects/stimuli/pictures/R_S_video_inspire_california_big-sur_landscape_054.png	53.33025908470154	
113	24.245396852493286	picture	0		11.0	111.0	/home/egter/Projects/stimuli/pictures/n04423845_23917.JPEG	53.34673500061035	0.10002017021179199
113	24.330785036087036	response	0	j		111.0	/home/egter/Projects/stimuli/pictures/n04423845_23917.JPEG	53.4321231842041	
114	24.345417022705078	picture	0		10.0	112.0	/home/egter/Projects/stimuli/pictures/R_S_ILSVRC2015_train_00524001.png	53.446755170822144	0.09648489952087402
114	24.417031049728394	response	0	k		112.0	/home/egter/Projects/stimuli/pictures/R_S_ILSVRC2015_train_00524001.png	53.51836919784546	
115	24.441901922225952	picture	0		8.0	113.0	/home/egter/Projects/stimuli/pictures/n02447366_33293.JPEG	53.54324007034302	0.07859992980957031
115	24.505027055740356	response	0	j		113.0	/home/egter/Projects/stimuli/pictures/n02447366_33293.JPEG	53.60636520385742	
116	24.520501852035522	picture	0		9.0	114.0	/home/egter/Projects/stimuli/pictures/S_pexels-mart-production-8435081.png	53.62184000015259	0.08324313163757324
116	24.587697982788086	response	0	k		114.0	/home/egter/Projects/stimuli/pictures/S_pexels-mart-production-8435081.png	53.68903613090515	
117	24.603744983673096	picture	0		11.0	115.0	/home/egter/Projects/stimuli/pictures/S_comp_LA_A006_C008_PSNK_ALL_LOGOS_v10_SDR_PS_FINAL_20180801_SDR_2K_AVC.png	53.70508313179016	0.10004305839538574
117	24.6804518699646	response	0	j		115.0	/home/egter/Projects/stimuli/pictures/S_comp_LA_A006_C008_PSNK_ALL_LOGOS_v10_SDR_PS_FINAL_20180801_SDR_2K_AVC.png	53.781790018081665	
118	24.70378804206848	picture	0		9.0	116.0	/home/egter/Projects/stimuli/pictures/S_wc-16LozRfhUGea_49.png	53.80512619018555	0.08335494995117188
118	24.770803928375244	response	0	k		116.0	/home/egter/Projects/stimuli/pictures/S_wc-16LozRfhUGea_49.png	53.87214207649231	
119	24.787142992019653	picture	0		11.0	117.0	/home/egter/Projects/stimuli/pictures/n02835271_10202.JPEG	53.88848114013672	0.10002493858337402
119	24.872560024261475	response	0	j		117.0	/home/egter/Projects/stimuli/pictures/n02835271_10202.JPEG	53.97389817237854	
120	24.887167930603027	picture	0		10.0	118.0	/home/egter/Projects/stimuli/pictures/R_S_yt-LdHRVIb4nIE_6.png	53.98850607872009	0.09162592887878418
120	24.963018894195557	response	0	k		118.0	/home/egter/Projects/stimuli/pictures/R_S_yt-LdHRVIb4nIE_6.png	54.06435704231262	
121	24.97879385948181	picture	0		11.0	119.0	/home/egter/Projects/stimuli/pictures/n04252225_5024.JPEG	54.08013200759888	0.09487414360046387
121	25.062166929244995	response	0	j		119.0	/home/egter/Projects/stimuli/pictures/n04252225_5024.JPEG	54.16350507736206	
122	25.073668003082275	picture	0		10.0	120.0	/home/egter/Projects/stimuli/pictures/S_ILSVRC2015_train_00405000.png	54.17500615119934	0.10555601119995117
122	25.145776987075806	response	0	k		120.0	/home/egter/Projects/stimuli/pictures/S_ILSVRC2015_train_00405000.png	54.24711513519287	
123	25.179224014282227	picture	0		9.0	121.0	/home/egter/Projects/stimuli/pictures/S_yt-aTEGTeQuDWM_93.png	54.28056216239929	0.08296489715576172
123	25.24765706062317	response	0	j		121.0	/home/egter/Projects/stimuli/pictures/S_yt-aTEGTeQuDWM_93.png	54.348995208740234	
124	25.26218891143799	picture	0		9.0	122.0	/home/egter/Projects/stimuli/pictures/S_yt-H45g6700wbc_159.png	54.363527059555054	0.08327913284301758
124	25.328897953033447	response	0	k		122.0	/home/egter/Projects/stimuli/pictures/S_yt-H45g6700wbc_159.png	54.43023610115051	
125	25.345468044281006	picture	0		13.0	123.0	/home/egter/Projects/stimuli/pictures/S_yt-E2Klz_wBAf8_285.png	54.44680619239807	0.11013603210449219
125	25.4458110332489	response	0	j		123.0	/home/egter/Projects/stimuli/pictures/S_yt-E2Klz_wBAf8_285.png	54.54714918136597	
126	25.455604076385498	picture	0		7.0	124.0	/home/egter/Projects/stimuli/pictures/S_yt-gmiyqQDGN78_7.png	54.55694222450256	0.06487679481506348
126	25.504404067993164	response	0	k		124.0	/home/egter/Projects/stimuli/pictures/S_yt-gmiyqQDGN78_7.png	54.60574221611023	
127	25.52048087120056	picture	0		13.0	125.0	/home/egter/Projects/stimuli/pictures/R_S_yt-kKRGgUhVRzc_74.png	54.62181901931763	0.10872220993041992
127	25.620673894882202	response	0	j		125.0	/home/egter/Projects/stimuli/pictures/R_S_yt-kKRGgUhVRzc_74.png	54.72201204299927	
128	25.62920308113098	picture	0		10.0	126.0	/home/egter/Projects/stimuli/pictures/S_yt-Mjm5smrurQI_125.png	54.73054122924805	0.08331799507141113
128	25.69707703590393	response	0	k		126.0	/home/egter/Projects/stimuli/pictures/S_yt-Mjm5smrurQI_125.png	54.798415184020996	
129	25.712521076202393	picture	0		12.0	127.0	/home/egter/Projects/stimuli/pictures/R_S_yt-O_6CyqHeJig_132.png	54.81385922431946	0.10415101051330566
129	25.803799867630005	response	0	j		127.0	/home/egter/Projects/stimuli/pictures/R_S_yt-O_6CyqHeJig_132.png	54.90513801574707	
130	25.8166720867157	picture	0		9.0	128.0	/home/egter/Projects/stimuli/pictures/R_S_BO_A014_C023_SDR_20190717_F240F3709_SDR_2K_AVC.png	54.918010234832764	0.07881999015808105
130	25.88007402420044	response	0	k		128.0	/home/egter/Projects/stimuli/pictures/R_S_BO_A014_C023_SDR_20190717_F240F3709_SDR_2K_AVC.png	54.981412172317505	
131	25.89549207687378	picture	0		12.0	129.0	/home/egter/Projects/stimuli/pictures/R_S_yt-3JApfnMu5cU_378.png	54.996830224990845	0.1018068790435791
131	25.987267017364502	response	0	j		129.0	/home/egter/Projects/stimuli/pictures/R_S_yt-3JApfnMu5cU_378.png	55.08860516548157	
132	25.99729895591736	picture	0		10.0	130.0	/home/egter/Projects/stimuli/pictures/R_S_ILSVRC2015_train_00460000.png	55.098637104034424	0.0981450080871582
132	26.064918041229248	response	0	k		130.0	/home/egter/Projects/stimuli/pictures/R_S_ILSVRC2015_train_00460000.png	55.16625618934631	
133	26.095443964004517	picture	0		11.0	131.0	/home/egter/Projects/stimuli/pictures/n02966193_3531.JPEG	55.19678211212158	0.09626388549804688
133	26.178874969482422	response	0	j		131.0	/home/egter/Projects/stimuli/pictures/n02966193_3531.JPEG	55.28021311759949	
134	26.191707849502563	picture	0		11.0	132.0	/home/egter/Projects/stimuli/pictures/R_S_comp_GMT329_113NC_396B_1105_CHINA_v04_SDR_FINAL_20180706_F900F2700_SDR_2K_AVC.png	55.29304599761963	0.09541916847229004
134	26.263822078704834	response	0	k		132.0	/home/egter/Projects/stimuli/pictures/R_S_comp_GMT329_113NC_396B_1105_CHINA_v04_SDR_FINAL_20180706_F900F2700_SDR_2K_AVC.png	55.3651602268219	
135	26.287127017974854	picture	0		12.0	133.0	/home/egter/Projects/stimuli/pictures/n02125311_1348.JPEG	55.38846516609192	0.10592985153198242
135	26.37930393218994	response	0	j		133.0	/home/egter/Projects/stimuli/pictures/n02125311_1348.JPEG	55.48064208030701	
136	26.393056869506836	picture	0		10.0	134.0	/home/egter/Projects/stimuli/pictures/n03877845_14850.JPEG	55.4943950176239	0.09032416343688965
136	26.46445107460022	response	0	k		134.0	/home/egter/Projects/stimuli/pictures/n03877845_14850.JPEG	55.565789222717285	
137	26.483381032943726	picture	0		12.0	135.0	/home/egter/Projects/stimuli/pictures/S_Pexels_Videos_2376809.png	55.58471918106079	0.09724593162536621
137	26.570616960525513	response	0	j		135.0	/home/egter/Projects/stimuli/pictures/S_Pexels_Videos_2376809.png	55.67195510864258	
138	26.580626964569092	picture	0		11.0	136.0	/home/egter/Projects/stimuli/pictures/n04258138_16780.JPEG	55.68196511268616	0.09026598930358887
138	26.66218400001526	response	0	k		136.0	/home/egter/Projects/stimuli/pictures/n04258138_16780.JPEG	55.763522148132324	
139	26.67089295387268	picture	0		13.0	137.0	/home/egter/Projects/stimuli/pictures/R_S_yt-XUnZ7FbBtvk_162.png	55.772231101989746	0.11112308502197266
139	26.77060294151306	response	0	j		137.0	/home/egter/Projects/stimuli/pictures/R_S_yt-XUnZ7FbBtvk_162.png	55.87194108963013	
140	26.782016038894653	picture	0		11.0	138.0	/home/egter/Projects/stimuli/pictures/R_S_yt-7K5X1G7Cpls_965.png	55.88335418701172	0.09024596214294434
140	26.85595393180847	response	0	k		138.0	/home/egter/Projects/stimuli/pictures/R_S_yt-7K5X1G7Cpls_965.png	55.95729207992554	
141	26.872262001037598	picture	0		13.0	139.0	/home/egter/Projects/stimuli/pictures/R_S_production_ID_4765899.png	55.97360014915466	0.11124205589294434
141	26.970645904541016	response	0	j		139.0	/home/egter/Projects/stimuli/pictures/R_S_production_ID_4765899.png	56.07198405265808	
142	26.983504056930542	picture	0		8.0	140.0	/home/egter/Projects/stimuli/pictures/S_ILSVRC2015_train_00569006.png	56.08484220504761	0.07864189147949219
142	27.041691064834595	response	0	k		140.0	/home/egter/Projects/stimuli/pictures/S_ILSVRC2015_train_00569006.png	56.14302921295166	
143	27.062145948410034	picture	0		12.0	141.0	/home/egter/Projects/stimuli/pictures/S_yt-dqcUJzNOzbM_156.png	56.1634840965271	0.10172009468078613
143	27.153877019882202	response	0	j		141.0	/home/egter/Projects/stimuli/pictures/S_yt-dqcUJzNOzbM_156.png	56.25521516799927	
144	27.16386604309082	picture	0		12.0	142.0	/home/egter/Projects/stimuli/pictures/R_S_yt-bhiGMKSAz2g_370.png	56.265204191207886	0.1065669059753418
144	27.254350900650024	response	0	k		142.0	/home/egter/Projects/stimuli/pictures/R_S_yt-bhiGMKSAz2g_370.png	56.35568904876709	
145	27.270432949066162	picture	0		12.0	143.0	/home/egter/Projects/stimuli/pictures/R_S_pexels-mikael-blomkvist-8689852.png	56.37177109718323	0.10835909843444824
145	27.362140893936157	response	0	j		143.0	/home/egter/Projects/stimuli/pictures/R_S_pexels-mikael-blomkvist-8689852.png	56.46347904205322	
146	27.37879204750061	picture	0		8.0	144.0	/home/egter/Projects/stimuli/pictures/R_S_yt-W00vtWnXgIk_73.png	56.480130195617676	0.07490086555480957
146	27.437206983566284	response	0	k		144.0	/home/egter/Projects/stimuli/pictures/R_S_yt-W00vtWnXgIk_73.png	56.53854513168335	
147	27.45369291305542	picture	0		12.0	145.0	/home/egter/Projects/stimuli/pictures/S_yt-LKd9mHnUVUQ_230.png	56.555031061172485	0.10609197616577148
147	27.545995950698853	response	0	j		145.0	/home/egter/Projects/stimuli/pictures/S_yt-LKd9mHnUVUQ_230.png	56.64733409881592	
148	27.55978488922119	picture	0		10.0	146.0	/home/egter/Projects/stimuli/pictures/R_S_comp_A108_C001_v09_SDR_FINAL_22062018_SDR_2K_AVC.png	56.66112303733826	0.09401512145996094
148	27.63189196586609	response	0	k		146.0	/home/egter/Projects/stimuli/pictures/R_S_comp_A108_C001_v09_SDR_FINAL_22062018_SDR_2K_AVC.png	56.733230113983154	
149	27.653800010681152	picture	0		11.0	147.0	/home/egter/Projects/stimuli/pictures/n01632458_3672.JPEG	56.75513815879822	0.10038089752197266
149	27.73713994026184	response	0	j		147.0	/home/egter/Projects/stimuli/pictures/n01632458_3672.JPEG	56.838478088378906	
150	27.754180908203125	picture	0		10.0	148.0	/home/egter/Projects/stimuli/pictures/n03602883_7963.JPEG	56.85551905632019	0.08333015441894531
150	27.828897953033447	response	0	k		148.0	/home/egter/Projects/stimuli/pictures/n03602883_7963.JPEG	56.93023610115051	
151	27.83751106262207	picture	0		13.0	149.0	/home/egter/Projects/stimuli/pictures/n04336792_7807.JPEG	56.938849210739136	0.1162869930267334
151	27.937345027923584	response	0	j		149.0	/home/egter/Projects/stimuli/pictures/n04336792_7807.JPEG	57.03868317604065	
152	27.953798055648804	picture	0		9.0	150.0	/home/egter/Projects/stimuli/pictures/n03933933_11785.JPEG	57.05513620376587	0.07817387580871582
152	28.020482063293457	response	0	k		150.0	/home/egter/Projects/stimuli/pictures/n03933933_11785.JPEG	57.12182021141052	
153	28.03197193145752	picture	0		13.0	151.0	/home/egter/Projects/stimuli/pictures/n02487347_1261.JPEG	57.133310079574585	0.11112213134765625
153	28.129333019256592	response	0	j		151.0	/home/egter/Projects/stimuli/pictures/n02487347_1261.JPEG	57.23067116737366	
154	28.143094062805176	picture	0		10.0	152.0	/home/egter/Projects/stimuli/pictures/n04462240_2980.JPEG	57.24443221092224	0.09417891502380371
154	28.220639944076538	response	0	k		152.0	/home/egter/Projects/stimuli/pictures/n04462240_2980.JPEG	57.3219780921936	
155	28.23727297782898	picture	0		13.0	153.0	/home/egter/Projects/stimuli/pictures/n01773549_5414.JPEG	57.338611125946045	0.11650705337524414
155	28.337669849395752	response	0	j		153.0	/home/egter/Projects/stimuli/pictures/n01773549_5414.JPEG	57.43900799751282	
156	28.353780031204224	picture	0		9.0	154.0	/home/egter/Projects/stimuli/pictures/n01798484_2552.JPEG	57.45511817932129	0.08333683013916016
156	28.415874004364014	response	0	k		154.0	/home/egter/Projects/stimuli/pictures/n01798484_2552.JPEG	57.51721215248108	
157	28.437116861343384	picture	0		12.0	155.0	/home/egter/Projects/stimuli/pictures/S_yt-IigHVUksnw8_7.png	57.53845500946045	0.1018221378326416
157	28.528915882110596	response	0	j		155.0	/home/egter/Projects/stimuli/pictures/S_yt-IigHVUksnw8_7.png	57.63025403022766	
158	28.538938999176025	picture	0		11.0	156.0	/home/egter/Projects/stimuli/pictures/R_S_yt-V35ubrbe8gA_86.png	57.64027714729309	0.09855294227600098
158	28.620506048202515	response	0	k		156.0	/home/egter/Projects/stimuli/pictures/R_S_yt-V35ubrbe8gA_86.png	57.72184419631958	
159	28.637491941452026	picture	0		12.0	157.0	/home/egter/Projects/stimuli/pictures/S_yt-5rC42egLl5E_387.png	57.73883008956909	0.1167440414428711
159	28.729038953781128	response	0	j		157.0	/home/egter/Projects/stimuli/pictures/S_yt-5rC42egLl5E_387.png	57.83037710189819	
160	28.754235982894897	picture	0		8.0	158.0	/home/egter/Projects/stimuli/pictures/R_S_ILSVRC2015_train_00066005.png	57.85557413101196	0.06945395469665527
160	28.812301874160767	response	0	k		158.0	/home/egter/Projects/stimuli/pictures/R_S_ILSVRC2015_train_00066005.png	57.91364002227783	
161	28.823689937591553	picture	0		11.0	159.0	/home/egter/Projects/stimuli/pictures/R_S_yt-1CV2cYtUlxE_57.png	57.92502808570862	0.09672808647155762
161	28.903886079788208	response	0	j		159.0	/home/egter/Projects/stimuli/pictures/R_S_yt-1CV2cYtUlxE_57.png	58.00522422790527	
162	28.92041802406311	picture	0		12.0	160.0	/home/egter/Projects/stimuli/pictures/R_S_yt-ayx4rU9bJrU_179.png	58.021756172180176	0.10459589958190918
162	29.012112855911255	response	0	k		160.0	/home/egter/Projects/stimuli/pictures/R_S_yt-ayx4rU9bJrU_179.png	58.11345100402832	
163	29.02501392364502	picture	0		12.0	161.0	/home/egter/Projects/stimuli/pictures/n01873310_24983.JPEG	58.126352071762085	0.09716010093688965
163	29.112159967422485	response	0	j		161.0	/home/egter/Projects/stimuli/pictures/n01873310_24983.JPEG	58.21349811553955	
164	29.12217402458191	picture	0		12.0	162.0	/home/egter/Projects/stimuli/pictures/S_production_ID_4584682.png	58.223512172698975	0.10650992393493652
164	29.21262288093567	response	0	k		162.0	/home/egter/Projects/stimuli/pictures/S_production_ID_4584682.png	58.313961029052734	
165	29.228683948516846	picture	0		12.0	163.0	/home/egter/Projects/stimuli/pictures/n02106030_1402.JPEG	58.33002209663391	0.10183095932006836
165	29.32039189338684	response	0	j		163.0	/home/egter/Projects/stimuli/pictures/n02106030_1402.JPEG	58.421730041503906	
166	29.330514907836914	picture	0		11.0	164.0	/home/egter/Projects/stimuli/pictures/n03000684_10624.JPEG	58.43185305595398	0.09823894500732422
166	29.41222095489502	response	0	k		164.0	/home/egter/Projects/stimuli/pictures/n03000684_10624.JPEG	58.513559103012085	
167	29.42875385284424	picture	0		11.0	165.0	/home/egter/Projects/stimuli/pictures/n01669191_11893.JPEG	58.530092000961304	0.09641718864440918
167	29.512165069580078	response	0	j		165.0	/home/egter/Projects/stimuli/pictures/n01669191_11893.JPEG	58.613503217697144	
168	29.525171041488647	picture	0		11.0	166.0	/home/egter/Projects/stimuli/pictures/R_S_ILSVRC2015_train_00743005.png	58.62650918960571	0.10373282432556152
168	29.61228895187378	response	0	k		166.0	/home/egter/Projects/stimuli/pictures/R_S_ILSVRC2015_train_00743005.png	58.713627099990845	
169	29.62890386581421	picture	0		11.0	167.0	/home/egter/Projects/stimuli/pictures/S_yt-GBqXIFjZf8w_28.png	58.730242013931274	0.09981799125671387
169	29.712575912475586	response	0	j		167.0	/home/egter/Projects/stimuli/pictures/S_yt-GBqXIFjZf8w_28.png	58.81391406059265	
170	29.728721857070923	picture	0		11.0	168.0	/home/egter/Projects/stimuli/pictures/n02123045_8581.JPEG	58.83006000518799	0.10002613067626953
170	29.812180995941162	response	0	k		168.0	/home/egter/Projects/stimuli/pictures/n02123045_8581.JPEG	58.91351914405823	
171	29.828747987747192	picture	0		11.0	169.0	/home/egter/Projects/stimuli/pictures/R_S_yt-BDCyXL5e9S4_223.png	58.93008613586426	0.1000518798828125
171	29.91224503517151	response	0	j		169.0	/home/egter/Projects/stimuli/pictures/R_S_yt-BDCyXL5e9S4_223.png	59.013583183288574	
172	29.928799867630005	picture	0		9.0	170.0	/home/egter/Projects/stimuli/pictures/n01687978_657.JPEG	59.03013801574707	0.07536816596984863
172	29.995630979537964	response	0	k		170.0	/home/egter/Projects/stimuli/pictures/n01687978_657.JPEG	59.09696912765503	
173	30.004168033599854	picture	0		13.0	171.0	/home/egter/Projects/stimuli/pictures/ILSVRC2012_test_00030050.JPEG	59.10550618171692	0.11114096641540527
173	30.103929042816162	response	0	j		171.0	/home/egter/Projects/stimuli/pictures/ILSVRC2012_test_00030050.JPEG	59.20526719093323	
174	30.11530900001526	picture	0		13.0	172.0	/home/egter/Projects/stimuli/pictures/n03874293_5720.JPEG	59.216647148132324	0.11346888542175293
174	30.212774991989136	response	0	k		172.0	/home/egter/Projects/stimuli/pictures/n03874293_5720.JPEG	59.3141131401062	
175	30.22877788543701	picture	0		10.0	173.0	/home/egter/Projects/stimuli/pictures/S_yt-H5LQq4MPIao_660.png	59.33011603355408	0.09164309501647949
175	30.303865909576416	response	0	j		173.0	/home/egter/Projects/stimuli/pictures/S_yt-H5LQq4MPIao_660.png	59.40520405769348	
176	30.32042098045349	picture	0		11.0	174.0	/home/egter/Projects/stimuli/pictures/n04389033_19333.JPEG	59.42175912857056	0.09342598915100098
176	30.403801918029785	response	0	k		174.0	/home/egter/Projects/stimuli/pictures/n04389033_19333.JPEG	59.50514006614685	
177	30.413846969604492	picture	0		12.0	175.0	/home/egter/Projects/stimuli/pictures/R_S_production_ID_4720614.png	59.51518511772156	0.11494207382202148
177	30.50446391105652	response	0	j		175.0	/home/egter/Projects/stimuli/pictures/R_S_production_ID_4720614.png	59.605802059173584	
178	30.528789043426514	picture	0		10.0	176.0	/home/egter/Projects/stimuli/pictures/ILSVRC2012_test_00025144.JPEG	59.63012719154358	0.09159398078918457
178	30.6039080619812	response	0	k		176.0	/home/egter/Projects/stimuli/pictures/ILSVRC2012_test_00025144.JPEG	59.70524621009827	
179	30.6203830242157	picture	0		12.0	177.0	/home/egter/Projects/stimuli/pictures/S_yt-4r-oovk9JWg_85.png	59.721721172332764	0.10832500457763672
179	30.70541501045227	response	0	j		177.0	/home/egter/Projects/stimuli/pictures/S_yt-4r-oovk9JWg_85.png	59.806753158569336	
180	30.728708028793335	picture	0		8.0	178.0	/home/egter/Projects/stimuli/pictures/n02091635_11940.JPEG	59.8300461769104	0.06708383560180664
180	30.78719401359558	response	0	k		178.0	/home/egter/Projects/stimuli/pictures/n02091635_11940.JPEG	59.88853216171265	
181	30.79579186439514	picture	0		13.0	179.0	/home/egter/Projects/stimuli/pictures/S_yt-BDCyXL5e9S4_223.png	59.89713001251221	0.11118412017822266
181	30.88894295692444	response	0	j		179.0	/home/egter/Projects/stimuli/pictures/S_yt-BDCyXL5e9S4_223.png	59.990281105041504	
182	30.906975984573364	stim	0		1467.0			60.00831413269043	12.222246885299683
182	30.98728895187378	response	0	k				60.088627099990845	
182	31.088209867477417	response	0	j				60.18954801559448	
182	31.18710708618164	response	0	k				60.288445234298706	
182	31.30393886566162	response	0	j				60.40527701377869	
182	31.403918027877808	response	0	k				60.50525617599487	
182	31.5047709941864	response	0	j				60.60610914230347	
182	31.57056999206543	response	0	k				60.671908140182495	
182	31.688544034957886	response	0	j				60.78988218307495	
182	32.795578956604004	response	0	j				61.89691710472107	
182	33.17059803009033	response	0	k				62.2719361782074	
182	33.47050189971924	response	0	j				62.571840047836304	
182	34.08712291717529	response	0	j				63.18846106529236	
182	34.35386395454407	response	0	k				63.45520210266113	
182	34.637136936187744	response	0	j				63.73847508430481	
182	34.87879490852356	response	0	k				63.980133056640625	
182	35.08815288543701	response	0	j				64.18949103355408	
182	35.26215386390686	response	0	k				64.36349201202393	
182	35.47049689292908	response	0	j				64.57183504104614	
182	35.68820905685425	response	0	k				64.78954720497131	
182	35.97882699966431	response	0	j				65.08016514778137	
182	36.42871904373169	response	0	k				65.53005719184875	
182	36.60386800765991	response	0	k				65.70520615577698	
182	36.77052903175354	response	0	k				65.8718671798706	
182	36.93726301193237	response	0	k				66.03860116004944	
182	38.54590702056885	response	0	j				67.64724516868591	
182	39.07043695449829	response	0	k				68.17177510261536	
182	39.28712701797485	response	0	j				68.38846516609192	
182	39.496443033218384	response	0	k				68.59778118133545	
182	39.65372896194458	response	0	j				68.75506711006165	
182	39.770413875579834	response	0	k				68.8717520236969	
182	39.87884306907654	response	0	j				68.9801812171936	
182	39.97047805786133	response	0	k				69.0718162059784	
182	40.08813786506653	response	0	j				69.1894760131836	
182	40.17088198661804	response	0	k				69.27222013473511	
182	40.403722047805786	response	0	j				69.50506019592285	
182	40.57049608230591	response	0	j				69.67183423042297	
182	40.75374889373779	response	0	j				69.85508704185486	
182	40.928765058517456	response	0	j				70.03010320663452	
182	41.16213297843933	response	0	k				70.2634711265564	
182	41.34542798995972	response	0	k				70.44676613807678	
182	41.595468044281006	response	0	j				70.69680619239807	
182	41.75395393371582	response	0	j				70.85529208183289	
182	41.937155961990356	response	0	j				71.03849411010742	
182	42.09642195701599	response	0	k				71.19776010513306	
182	42.4287269115448	response	0	j				71.53006505966187	
182	42.59544897079468	response	0	j				71.69678711891174	
182	42.77043604850769	response	0	k				71.87177419662476	
182	42.920527935028076	response	0	k				72.02186608314514	
182	43.120396852493286	response	0	space				72.22173500061035	
