trial_nr	onset	event_type	phase	response	nr_frames	picture_index	picture_file	onset_abs	duration
0	0.012237787246704102	stim	0		514.0			35.48866891860962	4.296478986740112
0	4.292559862136841	response	0	space				39.768990993499756	
2	4.308716773986816	picture	0		348.0	0.0	/home/egter/Projects/stimuli/pictures/n01795545_13446.JPEG	39.78514790534973	2.899902105331421
2	7.2004008293151855	response	0	k		0.0	/home/egter/Projects/stimuli/pictures/n01795545_13446.JPEG	42.6768319606781	
3	7.208618879318237	picture	0		200.0	1.0	/home/egter/Projects/stimuli/pictures/n04004767_2147.JPEG	42.68505001068115	1.6731889247894287
3	8.860310792922974	response	0	k		1.0	/home/egter/Projects/stimuli/pictures/n04004767_2147.JPEG	44.33674192428589	
4	8.881807804107666	picture	0		258.0	2.0	/home/egter/Projects/stimuli/pictures/n03781244_12929.JPEG	44.35823893547058	2.1526381969451904
4	11.02534794807434	response	0	k		2.0	/home/egter/Projects/stimuli/pictures/n03781244_12929.JPEG	46.501779079437256	
5	11.034446001052856	picture	0		138.0	3.0	/home/egter/Projects/stimuli/pictures/n03345487_284.JPEG	46.51087713241577	1.1574997901916504
5	12.175481796264648	response	0	k		3.0	/home/egter/Projects/stimuli/pictures/n03345487_284.JPEG	47.65191292762756	
6	12.191945791244507	picture	0		207.0	4.0	/home/egter/Projects/stimuli/pictures/n02133161_6861.JPEG	47.66837692260742	1.7249610424041748
6	13.908703804016113	response	0	k		4.0	/home/egter/Projects/stimuli/pictures/n02133161_6861.JPEG	49.38513493537903	
7	13.916906833648682	picture	0		113.0	5.0	/home/egter/Projects/stimuli/pictures/R_S_yt-gDZnJCR2uXI_18.png	49.3933379650116	0.9439301490783691
7	14.8503999710083	response	0	j		5.0	/home/egter/Projects/stimuli/pictures/R_S_yt-gDZnJCR2uXI_18.png	50.326831102371216	
8	14.86083698272705	picture	0		110.0	6.0	/home/egter/Projects/stimuli/pictures/S_yt-tNCrkObhB6c_17.png	50.337268114089966	0.9166488647460938
8	15.767016887664795	response	0	j		6.0	/home/egter/Projects/stimuli/pictures/S_yt-tNCrkObhB6c_17.png	51.24344801902771	
9	15.777485847473145	picture	0		117.0	7.0	/home/egter/Projects/stimuli/pictures/S_yt-Dwgpjoikt84_71.png	51.25391697883606	0.9811239242553711
9	16.742873907089233	response	0	j		7.0	/home/egter/Projects/stimuli/pictures/S_yt-Dwgpjoikt84_71.png	52.21930503845215	
10	16.758609771728516	picture	0		117.0	8.0	/home/egter/Projects/stimuli/pictures/S_ILSVRC2015_train_00251005.png	52.23504090309143	0.97719407081604
10	17.72547483444214	response	0	j		8.0	/home/egter/Projects/stimuli/pictures/S_ILSVRC2015_train_00251005.png	53.201905965805054	
11	17.735803842544556	picture	0		170.0	9.0	/home/egter/Projects/stimuli/pictures/S_yt-AJypa57HKqM_28.png	53.21223497390747	1.4166309833526611
11	19.141978979110718	response	0	k		9.0	/home/egter/Projects/stimuli/pictures/S_yt-AJypa57HKqM_28.png	54.61841011047363	
12	19.152434825897217	picture	0		250.0	10.0	/home/egter/Projects/stimuli/pictures/n01914609_785.JPEG	54.62886595726013	2.083307981491089
12	21.225317001342773	response	0	k		10.0	/home/egter/Projects/stimuli/pictures/n01914609_785.JPEG	56.70174813270569	
13	21.235742807388306	picture	0		201.0	11.0	/home/egter/Projects/stimuli/pictures/n02105162_1397.JPEG	56.71217393875122	1.6737079620361328
13	22.90027689933777	response	0	k		11.0	/home/egter/Projects/stimuli/pictures/n02105162_1397.JPEG	58.376708030700684	
14	22.90945076942444	picture	0		161.0	12.0	/home/egter/Projects/stimuli/pictures/R_S_yt-hekMMCluhnU_18.png	58.38588190078735	1.3407270908355713
14	24.24278688430786	response	0	j		12.0	/home/egter/Projects/stimuli/pictures/R_S_yt-hekMMCluhnU_18.png	59.719218015670776	
15	24.25017786026001	picture	0		96.0	13.0	/home/egter/Projects/stimuli/pictures/R_S_yt-0d5TkclKWVA_146.png	59.726608991622925	0.8051879405975342
15	25.036045789718628	response	0	j		13.0	/home/egter/Projects/stimuli/pictures/R_S_yt-0d5TkclKWVA_146.png	60.51247692108154	
16	25.055365800857544	picture	0		96.0	14.0	/home/egter/Projects/stimuli/pictures/R_S_yt-fqbi4rGc9dk_65.png	60.53179693222046	0.8053691387176514
16	25.850367784500122	response	0	j		14.0	/home/egter/Projects/stimuli/pictures/R_S_yt-fqbi4rGc9dk_65.png	61.32679891586304	
17	25.860734939575195	picture	0		165.0	15.0	/home/egter/Projects/stimuli/pictures/n02607072_208.JPEG	61.33716607093811	1.37506103515625
17	27.2253577709198	response	0	j		15.0	/home/egter/Projects/stimuli/pictures/n02607072_208.JPEG	62.701788902282715	
18	27.235795974731445	picture	0		138.0	16.0	/home/egter/Projects/stimuli/pictures/S_yt-6DJulOrg2-8_122.png	62.71222710609436	1.1527068614959717
18	28.375346899032593	response	0	j		16.0	/home/egter/Projects/stimuli/pictures/S_yt-6DJulOrg2-8_122.png	63.85177803039551	
19	28.388502836227417	picture	0		88.0	17.0	/home/egter/Projects/stimuli/pictures/S_yt-hMyqUMAbFAk_303.png	63.86493396759033	0.7430751323699951
19	29.11785387992859	response	0	j		17.0	/home/egter/Projects/stimuli/pictures/S_yt-hMyqUMAbFAk_303.png	64.5942850112915	
20	29.131577968597412	picture	0		88.0	18.0	/home/egter/Projects/stimuli/pictures/R_S_yt-UzWRbs9Syf4_7.png	64.60800909996033	0.7360739707946777
20	29.85188889503479	response	0	j		18.0	/home/egter/Projects/stimuli/pictures/R_S_yt-UzWRbs9Syf4_7.png	65.3283200263977	
21	29.86765193939209	picture	0		73.0	19.0	/home/egter/Projects/stimuli/pictures/S_yt-n1snPiGfg0A_45.png	65.344083070755	0.6110939979553223
21	30.460208892822266	response	0	j		19.0	/home/egter/Projects/stimuli/pictures/S_yt-n1snPiGfg0A_45.png	65.93664002418518	
22	30.478745937347412	picture	0		58.0	20.0	/home/egter/Projects/stimuli/pictures/R_S_yt-n1snPiGfg0A_45.png	65.95517706871033	0.4862840175628662
22	30.951109886169434	response	0	j		20.0	/home/egter/Projects/stimuli/pictures/R_S_yt-n1snPiGfg0A_45.png	66.42754101753235	
23	30.96502995491028	picture	0		259.0	21.0	/home/egter/Projects/stimuli/pictures/n03764736_20813.JPEG	66.4414610862732	2.166424036026001
23	33.11781287193298	response	0	k		21.0	/home/egter/Projects/stimuli/pictures/n03764736_20813.JPEG	68.5942440032959	
24	33.13145399093628	picture	0		242.0	22.0	/home/egter/Projects/stimuli/pictures/ILSVRC2012_test_00041531.JPEG	68.6078851222992	2.0208258628845215
24	35.14198684692383	response	0	k		22.0	/home/egter/Projects/stimuli/pictures/ILSVRC2012_test_00041531.JPEG	70.61841797828674	
25	35.1522798538208	picture	0		161.0	23.0	/home/egter/Projects/stimuli/pictures/n02607072_3299.JPEG	70.62871098518372	1.340256929397583
25	36.476863861083984	response	0	j		23.0	/home/egter/Projects/stimuli/pictures/n02607072_3299.JPEG	71.9532949924469	
26	36.492536783218384	picture	0		219.0	24.0	/home/egter/Projects/stimuli/pictures/n04041544_59160.JPEG	71.9689679145813	1.8264319896697998
26	38.30862879753113	response	0	k		24.0	/home/egter/Projects/stimuli/pictures/n04041544_59160.JPEG	73.78505992889404	
27	38.318968772888184	picture	0		304.0	25.0	/home/egter/Projects/stimuli/pictures/S_FK_U009_C004_SDR_20191220_SDR_2K_AVC.png	73.7953999042511	2.534682035446167
27	40.84203290939331	response	0	j		25.0	/home/egter/Projects/stimuli/pictures/S_FK_U009_C004_SDR_20191220_SDR_2K_AVC.png	76.31846404075623	
28	40.85365080833435	picture	0		112.0	26.0	/home/egter/Projects/stimuli/pictures/R_S_yt-6UFUeTKci2o_164.png	76.33008193969727	0.9305131435394287
28	41.77528381347656	response	0	j		26.0	/home/egter/Projects/stimuli/pictures/R_S_yt-6UFUeTKci2o_164.png	77.25171494483948	
29	41.78416395187378	picture	0		139.0	27.0	/home/egter/Projects/stimuli/pictures/n02422699_37511.JPEG	77.2605950832367	1.159726858139038
29	42.93354678153992	response	0	k		27.0	/home/egter/Projects/stimuli/pictures/n02422699_37511.JPEG	78.40997791290283	
30	42.94389081001282	picture	0		101.0	28.0	/home/egter/Projects/stimuli/pictures/R_S_comp_LA_A005_C009_PSNK_ALT_v09_SDR_PS_201809134_SDR_2K_AVC.png	78.42032194137573	0.8402321338653564
30	43.77522897720337	response	0	j		28.0	/home/egter/Projects/stimuli/pictures/R_S_comp_LA_A005_C009_PSNK_ALT_v09_SDR_PS_201809134_SDR_2K_AVC.png	79.25166010856628	
31	43.784122943878174	picture	0		93.0	29.0	/home/egter/Projects/stimuli/pictures/S_yt-3eQHOLBzOqA_100.png	79.26055407524109	0.7777960300445557
31	44.55022692680359	response	0	j		29.0	/home/egter/Projects/stimuli/pictures/S_yt-3eQHOLBzOqA_100.png	80.0266580581665	
32	44.56191897392273	picture	0		95.0	30.0	/home/egter/Projects/stimuli/pictures/n07718472_31015.JPEG	80.03835010528564	0.7916638851165771
32	45.34191083908081	response	0	k		30.0	/home/egter/Projects/stimuli/pictures/n07718472_31015.JPEG	80.81834197044373	
33	45.35358285903931	picture	0		135.0	31.0	/home/egter/Projects/stimuli/pictures/n03697007_7401.JPEG	80.83001399040222	1.125006914138794
33	46.46008491516113	response	0	j		31.0	/home/egter/Projects/stimuli/pictures/n03697007_7401.JPEG	81.93651604652405	
34	46.4785897731781	picture	0		173.0	32.0	/home/egter/Projects/stimuli/pictures/n01734418_5785.JPEG	81.95502090454102	1.4444971084594727
34	47.90921497344971	response	0	j		32.0	/home/egter/Projects/stimuli/pictures/n01734418_5785.JPEG	83.38564610481262	
35	47.92308688163757	picture	0		127.0	33.0	/home/egter/Projects/stimuli/pictures/R_S_yt-4wjGeLyvfjY_223.png	83.39951801300049	1.0624310970306396
35	48.975204944610596	response	0	j		33.0	/home/egter/Projects/stimuli/pictures/R_S_yt-4wjGeLyvfjY_223.png	84.45163607597351	
36	48.98551797866821	picture	0		94.0	34.0	/home/egter/Projects/stimuli/pictures/R_S_Y002_C013_SDR_2K_AVC.png	84.46194911003113	0.7846949100494385
36	49.75855088233948	response	0	j		34.0	/home/egter/Projects/stimuli/pictures/R_S_Y002_C013_SDR_2K_AVC.png	85.23498201370239	
37	49.77021288871765	picture	0		231.0	35.0	/home/egter/Projects/stimuli/pictures/n09288635_4568.JPEG	85.24664402008057	1.923604965209961
37	51.67674779891968	response	0	j		35.0	/home/egter/Projects/stimuli/pictures/n09288635_4568.JPEG	87.15317893028259	
38	51.69381785392761	picture	0		180.0	36.0	/home/egter/Projects/stimuli/pictures/S_yt-A-RhzHTz38g_21.png	87.17024898529053	1.4999630451202393
38	53.183562994003296	response	0	k		36.0	/home/egter/Projects/stimuli/pictures/S_yt-A-RhzHTz38g_21.png	88.65999412536621	
39	53.19378089904785	picture	0		89.0	37.0	/home/egter/Projects/stimuli/pictures/S_yt-z68VLDDCFdw_93.png	88.67021203041077	0.7430388927459717
39	53.925179958343506	response	0	j		37.0	/home/egter/Projects/stimuli/pictures/S_yt-z68VLDDCFdw_93.png	89.40161108970642	
40	53.93681979179382	picture	0		98.0	38.0	/home/egter/Projects/stimuli/pictures/S_yt-jcuaf9iSEkI_169.png	89.41325092315674	0.8195431232452393
40	54.74249887466431	response	0	j		38.0	/home/egter/Projects/stimuli/pictures/S_yt-jcuaf9iSEkI_169.png	90.21893000602722	
41	54.75636291503906	picture	0		84.0	39.0	/home/egter/Projects/stimuli/pictures/S_yt-gaCbT4RR9Tw_191.png	90.23279404640198	0.7085170745849609
41	55.450764894485474	response	0	j		39.0	/home/egter/Projects/stimuli/pictures/S_yt-gaCbT4RR9Tw_191.png	90.92719602584839	
42	55.46487998962402	picture	0		243.0	40.0	/home/egter/Projects/stimuli/pictures/S_comp_LW_L001_C006_PSNK_DENOISE_v02_SDR_PS_FINAL_20180709_SDR_2K_AVC.png	90.94131112098694	2.0274767875671387
42	57.47675895690918	response	0	j		40.0	/home/egter/Projects/stimuli/pictures/S_comp_LW_L001_C006_PSNK_DENOISE_v02_SDR_PS_FINAL_20180709_SDR_2K_AVC.png	92.9531900882721	
43	57.49235677719116	picture	0		146.0	41.0	/home/egter/Projects/stimuli/pictures/n01768244_4120.JPEG	92.96878790855408	1.2222821712493896
43	58.69348192214966	response	0	k		41.0	/home/egter/Projects/stimuli/pictures/n01768244_4120.JPEG	94.16991305351257	
44	58.71463894844055	picture	0		109.0	42.0	/home/egter/Projects/stimuli/pictures/R_S_DV6V38rplag_215.png	94.19107007980347	0.916719913482666
44	59.61738991737366	response	0	j		42.0	/home/egter/Projects/stimuli/pictures/R_S_DV6V38rplag_215.png	95.09382104873657	
45	59.63135886192322	picture	0		179.0	43.0	/home/egter/Projects/stimuli/pictures/n03977966_801.JPEG	95.10778999328613	1.4999051094055176
45	61.11743497848511	response	0	k		43.0	/home/egter/Projects/stimuli/pictures/n03977966_801.JPEG	96.59386610984802	
46	61.131263971328735	picture	0		135.0	44.0	/home/egter/Projects/stimuli/pictures/S_yt-DpLc4e4bpu0_1467.png	96.60769510269165	1.1319358348846436
46	62.250189781188965	response	0	k		44.0	/home/egter/Projects/stimuli/pictures/S_yt-DpLc4e4bpu0_1467.png	97.72662091255188	
47	62.26319980621338	picture	0		182.0	45.0	/home/egter/Projects/stimuli/pictures/S_comp_HK_H004_C008_PSNK_v19_SDR_PS_20180914_SDR_2K_AVC.png	97.7396309375763	1.520759105682373
47	63.77517890930176	response	0	j		45.0	/home/egter/Projects/stimuli/pictures/S_comp_HK_H004_C008_PSNK_v19_SDR_PS_20180914_SDR_2K_AVC.png	99.25161004066467	
48	63.78395891189575	picture	0		102.0	46.0	/home/egter/Projects/stimuli/pictures/R_S_yt-8N5UuN5WQcY_72.png	99.26039004325867	0.8543100357055664
48	64.62515187263489	response	0	j		46.0	/home/egter/Projects/stimuli/pictures/R_S_yt-8N5UuN5WQcY_72.png	100.1015830039978	
49	64.63826894760132	picture	0		100.0	47.0	/home/egter/Projects/stimuli/pictures/R_S_yt-XbigWWtnGL4_75.png	100.11470007896423	0.8401219844818115
49	65.46681380271912	response	0	j		47.0	/home/egter/Projects/stimuli/pictures/R_S_yt-XbigWWtnGL4_75.png	100.94324493408203	
50	65.47839093208313	picture	0		331.0	48.0	/home/egter/Projects/stimuli/pictures/n01728572_49.JPEG	100.95482206344604	2.7569448947906494
50	68.2251398563385	response	0	j		48.0	/home/egter/Projects/stimuli/pictures/n01728572_49.JPEG	103.70157098770142	
51	68.23533582687378	picture	0		177.0	49.0	/home/egter/Projects/stimuli/pictures/R_S_yt-I2n2eo2zoZs_94.png	103.7117669582367	1.4794771671295166
51	69.70063591003418	response	0	j		49.0	/home/egter/Projects/stimuli/pictures/R_S_yt-I2n2eo2zoZs_94.png	105.1770670413971	
52	69.7148129940033	picture	0		286.0	50.0	/home/egter/Projects/stimuli/pictures/n03095699_944.JPEG	105.19124412536621	2.3885059356689453
52	72.0850338935852	response	0	k		50.0	/home/egter/Projects/stimuli/pictures/n03095699_944.JPEG	107.56146502494812	
53	72.10331892967224	picture	0		211.0	51.0	/home/egter/Projects/stimuli/pictures/S_yt-T4GFfVaHxFY_16.png	107.57975006103516	1.7569918632507324
53	73.85010290145874	response	0	k		51.0	/home/egter/Projects/stimuli/pictures/S_yt-T4GFfVaHxFY_16.png	109.32653403282166	
54	73.86031079292297	picture	0		106.0	52.0	/home/egter/Projects/stimuli/pictures/n03777568_14302.JPEG	109.33674192428589	0.881890058517456
54	74.7333619594574	response	0	k		52.0	/home/egter/Projects/stimuli/pictures/n03777568_14302.JPEG	110.20979309082031	
55	74.74220085144043	picture	0		314.0	53.0	/home/egter/Projects/stimuli/pictures/n02268853_14231.JPEG	110.21863198280334	2.6180169582366943
55	77.35007286071777	response	0	j		53.0	/home/egter/Projects/stimuli/pictures/n02268853_14231.JPEG	112.82650399208069	
56	77.36021780967712	picture	0		104.0	54.0	/home/egter/Projects/stimuli/pictures/S_yt-hRAqAwRhmwE_58.png	112.83664894104004	0.8680281639099121
56	78.21675777435303	response	0	j		54.0	/home/egter/Projects/stimuli/pictures/S_yt-hRAqAwRhmwE_58.png	113.69318890571594	
57	78.22824597358704	picture	0		184.0	55.0	/home/egter/Projects/stimuli/pictures/n04033901_37452.JPEG	113.70467710494995	1.5348567962646484
57	79.75009489059448	response	0	j		55.0	/home/egter/Projects/stimuli/pictures/n04033901_37452.JPEG	115.2265260219574	
58	79.76310276985168	picture	0		115.0	56.0	/home/egter/Projects/stimuli/pictures/S_yt-HoRtvVuuvOs_5.png	115.2395339012146	0.9651191234588623
58	80.71670484542847	response	0	j		56.0	/home/egter/Projects/stimuli/pictures/S_yt-HoRtvVuuvOs_5.png	116.19313597679138	
59	80.72822189331055	picture	0		141.0	57.0	/home/egter/Projects/stimuli/pictures/n02444819_14251.JPEG	116.20465302467346	1.1736299991607666
59	81.88506484031677	response	0	k		57.0	/home/egter/Projects/stimuli/pictures/n02444819_14251.JPEG	117.36149597167969	
60	81.90185189247131	picture	0		117.0	58.0	/home/egter/Projects/stimuli/pictures/R_S_yt-F3hhts3bwWg_25.png	117.37828302383423	0.9792768955230713
60	82.86719298362732	response	0	j		58.0	/home/egter/Projects/stimuli/pictures/R_S_yt-F3hhts3bwWg_25.png	118.34362411499023	
61	82.88112878799438	picture	0		267.0	59.0	/home/egter/Projects/stimuli/pictures/S_yt-6_SgWsPne7M_11.png	118.3575599193573	2.2290260791778564
61	85.09338688850403	response	0	j		59.0	/home/egter/Projects/stimuli/pictures/S_yt-6_SgWsPne7M_11.png	120.56981801986694	
62	85.11015486717224	picture	0		129.0	60.0	/home/egter/Projects/stimuli/pictures/R_S_yt-j-ifVbxZePQ_70.png	120.58658599853516	1.0764620304107666
62	86.17510080337524	response	0	j		60.0	/home/egter/Projects/stimuli/pictures/R_S_yt-j-ifVbxZePQ_70.png	121.65153193473816	
63	86.18661689758301	picture	0		98.0	61.0	/home/egter/Projects/stimuli/pictures/S_production_ID_4124475.png	121.66304802894592	0.8193988800048828
63	86.99212789535522	response	0	j		61.0	/home/egter/Projects/stimuli/pictures/S_production_ID_4124475.png	122.46855902671814	
64	87.00601577758789	picture	0		141.0	62.0	/home/egter/Projects/stimuli/pictures/n02089867_7916.JPEG	122.4824469089508	1.1804800033569336
64	88.17505478858948	response	0	k		62.0	/home/egter/Projects/stimuli/pictures/n02089867_7916.JPEG	123.65148591995239	
65	88.18649578094482	picture	0		95.0	63.0	/home/egter/Projects/stimuli/pictures/R_S_production_ID_4101309.png	123.66292691230774	0.7917830944061279
65	88.96681380271912	response	0	j		63.0	/home/egter/Projects/stimuli/pictures/R_S_production_ID_4101309.png	124.44324493408203	
66	88.97827887535095	picture	0		216.0	64.0	/home/egter/Projects/stimuli/pictures/S_yt-t23g0U_hAgg_32.png	124.45471000671387	1.7984619140625
66	90.76670694351196	response	0	j		64.0	/home/egter/Projects/stimuli/pictures/S_yt-t23g0U_hAgg_32.png	126.24313807487488	
67	90.77674078941345	picture	0		171.0	65.0	/home/egter/Projects/stimuli/pictures/S_yt-dESxu60Cl10_24.png	126.25317192077637	1.423600196838379
67	92.1917769908905	response	0	j		65.0	/home/egter/Projects/stimuli/pictures/S_yt-dESxu60Cl10_24.png	127.66820812225342	
68	92.20034098625183	picture	0		146.0	66.0	/home/egter/Projects/stimuli/pictures/S_yt-mdLT282PVbE_6.png	127.67677211761475	1.2222847938537598
68	93.40874195098877	response	0	j		66.0	/home/egter/Projects/stimuli/pictures/S_yt-mdLT282PVbE_6.png	128.88517308235168	
69	93.42262578010559	picture	0		107.0	67.0	/home/egter/Projects/stimuli/pictures/n03459775_6721.JPEG	128.8990569114685	0.8957691192626953
69	94.3015627861023	response	0	k		67.0	/home/egter/Projects/stimuli/pictures/n03459775_6721.JPEG	129.7779939174652	
70	94.31839489936829	picture	0		138.0	68.0	/home/egter/Projects/stimuli/pictures/R_S_production_ID_4122384.png	129.7948260307312	1.1527960300445557
70	95.4583089351654	response	0	j		68.0	/home/egter/Projects/stimuli/pictures/R_S_production_ID_4122384.png	130.93474006652832	
71	95.47119092941284	picture	0		450.0	69.0	/home/egter/Projects/stimuli/pictures/n03792782_4249.JPEG	130.94762206077576	3.756901979446411
71	99.2166199684143	response	0	k		69.0	/home/egter/Projects/stimuli/pictures/n03792782_4249.JPEG	134.69305109977722	
72	99.22809290885925	picture	0		208.0	70.0	/home/egter/Projects/stimuli/pictures/S_yt-7SsfOM7v3ns_56.png	134.70452404022217	1.736137866973877
72	100.95040583610535	response	0	j		70.0	/home/egter/Projects/stimuli/pictures/S_yt-7SsfOM7v3ns_56.png	136.42683696746826	
73	100.96423077583313	picture	0		105.0	71.0	/home/egter/Projects/stimuli/pictures/n01737021_18954.JPEG	136.44066190719604	0.8818871974945068
73	101.83332586288452	response	0	k		71.0	/home/egter/Projects/stimuli/pictures/n01737021_18954.JPEG	137.30975699424744	
74	101.84611797332764	picture	0		290.0	72.0	/home/egter/Projects/stimuli/pictures/n07716906_9330.JPEG	137.32254910469055	2.4235918521881104
74	104.25832200050354	response	0	k		72.0	/home/egter/Projects/stimuli/pictures/n07716906_9330.JPEG	139.73475313186646	
75	104.26970982551575	picture	0		127.0	73.0	/home/egter/Projects/stimuli/pictures/n03250847_11586.JPEG	139.74614095687866	1.0555291175842285
75	105.30978894233704	response	0	k		73.0	/home/egter/Projects/stimuli/pictures/n03250847_11586.JPEG	140.78622007369995	
76	105.32523894309998	picture	0		232.0	74.0	/home/egter/Projects/stimuli/pictures/n04296562_20170.JPEG	140.8016700744629	1.9375369548797607
76	107.24998188018799	response	0	k		74.0	/home/egter/Projects/stimuli/pictures/n04296562_20170.JPEG	142.7264130115509	
77	107.26277589797974	picture	0		263.0	75.0	/home/egter/Projects/stimuli/pictures/n03868242_1209.JPEG	142.73920702934265	2.2014269828796387
77	109.45029997825623	response	0	j		75.0	/home/egter/Projects/stimuli/pictures/n03868242_1209.JPEG	144.92673110961914	
78	109.46420288085938	picture	0		102.0	76.0	/home/egter/Projects/stimuli/pictures/S_yt-GOgS--rzmKQ_51.png	144.9406340122223	0.8540449142456055
78	110.3014907836914	response	0	j		76.0	/home/egter/Projects/stimuli/pictures/S_yt-GOgS--rzmKQ_51.png	145.77792191505432	
79	110.31824779510498	picture	0		135.0	77.0	/home/egter/Projects/stimuli/pictures/R_S_yt-8QCcmqaEMPI_16.png	145.7946789264679	1.1249840259552002
79	111.43333196640015	response	0	j		77.0	/home/egter/Projects/stimuli/pictures/R_S_yt-8QCcmqaEMPI_16.png	146.90976309776306	
80	111.44323182106018	picture	0		204.0	78.0	/home/egter/Projects/stimuli/pictures/S_yt-jovPh9BdlYI_215.png	146.9196629524231	1.7013640403747559
80	113.1332778930664	response	0	j		78.0	/home/egter/Projects/stimuli/pictures/S_yt-jovPh9BdlYI_215.png	148.60970902442932	
81	113.14459586143494	picture	0		82.0	79.0	/home/egter/Projects/stimuli/pictures/R_S_yt-gaCbT4RR9Tw_191.png	148.62102699279785	0.6805849075317383
81	113.81660389900208	response	0	j		79.0	/home/egter/Projects/stimuli/pictures/R_S_yt-gaCbT4RR9Tw_191.png	149.293035030365	
82	113.82518076896667	picture	0		121.0	80.0	/home/egter/Projects/stimuli/pictures/n12267677_19328.JPEG	149.3016119003296	1.0139191150665283
82	114.82528781890869	response	0	k		80.0	/home/egter/Projects/stimuli/pictures/n12267677_19328.JPEG	150.3017189502716	
83	114.8390998840332	picture	0		154.0	81.0	/home/egter/Projects/stimuli/pictures/n09428293_93110.JPEG	150.31553101539612	1.2919960021972656
83	116.1098108291626	response	0	j		81.0	/home/egter/Projects/stimuli/pictures/n09428293_93110.JPEG	151.5862419605255	
84	116.13109588623047	picture	0		185.0	82.0	/home/egter/Projects/stimuli/pictures/n02109047_19473.JPEG	151.60752701759338	1.5482239723205566
84	117.66658186912537	response	0	k		82.0	/home/egter/Projects/stimuli/pictures/n02109047_19473.JPEG	153.14301300048828	
85	117.67931985855103	picture	0		148.0	83.0	/home/egter/Projects/stimuli/pictures/n04344873_13568.JPEG	153.15575098991394	1.2431080341339111
85	118.9014527797699	response	0	j		83.0	/home/egter/Projects/stimuli/pictures/n04344873_13568.JPEG	154.3778839111328	
86	118.92242789268494	picture	0		102.0	84.0	/home/egter/Projects/stimuli/pictures/R_S_yt-074ygGXNoQ8_64.png	154.39885902404785	0.8540449142456055
86	119.76660799980164	response	0	j		84.0	/home/egter/Projects/stimuli/pictures/R_S_yt-074ygGXNoQ8_64.png	155.24303913116455	
87	119.77647280693054	picture	0		114.0	85.0	/home/egter/Projects/stimuli/pictures/n02950826_5333.JPEG	155.25290393829346	0.9513881206512451
87	120.70974898338318	response	0	k		85.0	/home/egter/Projects/stimuli/pictures/n02950826_5333.JPEG	156.1861801147461	
88	120.72786092758179	picture	0		141.0	86.0	/home/egter/Projects/stimuli/pictures/n02104029_52.JPEG	156.2042920589447	1.1735599040985107
88	121.89158487319946	response	0	k		86.0	/home/egter/Projects/stimuli/pictures/n02104029_52.JPEG	157.36801600456238	
89	121.9014208316803	picture	0		95.0	87.0	/home/egter/Projects/stimuli/pictures/S_production_ID_4122384.png	157.3778519630432	0.7917101383209229
89	122.68322896957397	response	0	j		87.0	/home/egter/Projects/stimuli/pictures/S_production_ID_4122384.png	158.1596601009369	
90	122.69313097000122	picture	0		104.0	88.0	/home/egter/Projects/stimuli/pictures/S_ILSVRC2015_train_00322000.png	158.16956210136414	0.8680408000946045
90	123.54994893074036	response	0	j		88.0	/home/egter/Projects/stimuli/pictures/S_ILSVRC2015_train_00322000.png	159.02638006210327	
91	123.56117177009583	picture	0		170.0	89.0	/home/egter/Projects/stimuli/pictures/ILSVRC2012_test_00015382.JPEG	159.03760290145874	1.4166381359100342
91	124.96659398078918	response	0	k		89.0	/home/egter/Projects/stimuli/pictures/ILSVRC2012_test_00015382.JPEG	160.4430251121521	
92	124.97780990600586	picture	0		110.0	90.0	/home/egter/Projects/stimuli/pictures/S_yt-rZA9zXR-A6s_426.png	160.45424103736877	0.9166538715362549
92	125.88321685791016	response	0	j		90.0	/home/egter/Projects/stimuli/pictures/S_yt-rZA9zXR-A6s_426.png	161.35964798927307	
93	125.89446377754211	picture	0		178.0	91.0	/home/egter/Projects/stimuli/pictures/n02279972_36722.JPEG	161.37089490890503	1.4802842140197754
93	127.36675477027893	response	0	j		91.0	/home/egter/Projects/stimuli/pictures/n02279972_36722.JPEG	162.84318590164185	
94	127.37474799156189	picture	0		105.0	92.0	/home/egter/Projects/stimuli/pictures/S_yt-zhQ32_OayBQ_39.png	162.8511791229248	0.8809008598327637
94	128.2417368888855	response	0	j		92.0	/home/egter/Projects/stimuli/pictures/S_yt-zhQ32_OayBQ_39.png	163.7181680202484	
95	128.25564885139465	picture	0		81.0	93.0	/home/egter/Projects/stimuli/pictures/R_S_yt-NLfzvAJgyJ4_120.png	163.73207998275757	0.6805460453033447
95	128.91806888580322	response	0	j		93.0	/home/egter/Projects/stimuli/pictures/R_S_yt-NLfzvAJgyJ4_120.png	164.39450001716614	
96	128.936194896698	picture	0		70.0	94.0	/home/egter/Projects/stimuli/pictures/R_S_yt-K7viJXt9vX8_143.png	164.4126260280609	0.5836060047149658
96	129.50141596794128	response	0	j		94.0	/home/egter/Projects/stimuli/pictures/R_S_yt-K7viJXt9vX8_143.png	164.9778470993042	
97	129.51980090141296	picture	0		99.0	95.0	/home/egter/Projects/stimuli/pictures/n02087394_6350.JPEG	164.99623203277588	0.8260729312896729
97	130.33319282531738	response	0	j		95.0	/home/egter/Projects/stimuli/pictures/n02087394_6350.JPEG	165.8096239566803	
98	130.34587383270264	picture	0		157.0	96.0	/home/egter/Projects/stimuli/pictures/R_S_yt-H45g6700wbc_159.png	165.82230496406555	1.3124730587005615
98	131.64986991882324	response	0	j		96.0	/home/egter/Projects/stimuli/pictures/R_S_yt-H45g6700wbc_159.png	167.12630105018616	
99	131.6583468914032	picture	0		99.0	97.0	/home/egter/Projects/stimuli/pictures/R_S_yt-XY1n_Oze1kQ_9.png	167.1347780227661	0.8263700008392334
99	132.47485899925232	response	0	j		97.0	/home/egter/Projects/stimuli/pictures/R_S_yt-XY1n_Oze1kQ_9.png	167.95129013061523	
100	132.48471689224243	picture	0		133.0	98.0	/home/egter/Projects/stimuli/pictures/n04376876_2513.JPEG	167.96114802360535	1.1110749244689941
100	133.58328294754028	response	0	k		98.0	/home/egter/Projects/stimuli/pictures/n04376876_2513.JPEG	169.0597140789032	
101	133.59579181671143	picture	0		269.0	99.0	/home/egter/Projects/stimuli/pictures/n01631663_5074.JPEG	169.07222294807434	2.249997138977051
101	135.83315896987915	response	0	k		99.0	/home/egter/Projects/stimuli/pictures/n01631663_5074.JPEG	171.30959010124207	
102	135.84578895568848	picture	0		107.0	100.0	/home/egter/Projects/stimuli/pictures/n09256479_4779.JPEG	171.3222200870514	0.8957979679107666
102	136.73316597938538	response	0	j		100.0	/home/egter/Projects/stimuli/pictures/n09256479_4779.JPEG	172.2095971107483	
103	136.74158692359924	picture	0		147.0	101.0	/home/egter/Projects/stimuli/pictures/R_S_yt-iAQ98zgVlds_97.png	172.21801805496216	1.229269027709961
103	137.958242893219	response	0	k		101.0	/home/egter/Projects/stimuli/pictures/R_S_yt-iAQ98zgVlds_97.png	173.4346740245819	
104	137.9708559513092	picture	0		183.0	102.0	/home/egter/Projects/stimuli/pictures/n04238763_2716.JPEG	173.44728708267212	1.5346930027008057
104	139.49171781539917	response	0	k		102.0	/home/egter/Projects/stimuli/pictures/n04238763_2716.JPEG	174.96814894676208	
105	139.50554895401	picture	0		92.0	103.0	/home/egter/Projects/stimuli/pictures/S_yt-T7RmOAme5dU_213.png	174.98198008537292	0.770751953125
105	140.2665078639984	response	0	j		103.0	/home/egter/Projects/stimuli/pictures/S_yt-T7RmOAme5dU_213.png	175.74293899536133	
106	140.276300907135	picture	0		173.0	104.0	/home/egter/Projects/stimuli/pictures/R_S_yt-ebajhZwlVJM_32.png	175.75273203849792	1.4444549083709717
106	141.70156598091125	response	0	j		104.0	/home/egter/Projects/stimuli/pictures/R_S_yt-ebajhZwlVJM_32.png	177.17799711227417	
107	141.72075581550598	picture	0		271.0	105.0	/home/egter/Projects/stimuli/pictures/n03888257_297.JPEG	177.1971869468689	2.2570061683654785
107	143.96652483940125	response	0	k		105.0	/home/egter/Projects/stimuli/pictures/n03888257_297.JPEG	179.44295597076416	
108	143.97776198387146	picture	0		160.0	106.0	/home/egter/Projects/stimuli/pictures/n01806567_4013.JPEG	179.45419311523438	1.3332078456878662
108	145.299822807312	response	0	k		106.0	/home/egter/Projects/stimuli/pictures/n01806567_4013.JPEG	180.77625393867493	
109	145.31096982955933	picture	0		107.0	107.0	/home/egter/Projects/stimuli/pictures/S_yt-DO1vncSoiJk_58.png	180.78740096092224	0.8889119625091553
109	146.19147396087646	response	0	k		107.0	/home/egter/Projects/stimuli/pictures/S_yt-DO1vncSoiJk_58.png	181.66790509223938	
110	146.19988179206848	picture	0		99.0	108.0	/home/egter/Projects/stimuli/pictures/R_S_pexels-rodnae-productions-7467585.png	181.6763129234314	0.82635498046875
110	147.0164818763733	response	0	j		108.0	/home/egter/Projects/stimuli/pictures/R_S_pexels-rodnae-productions-7467585.png	182.4929130077362	
111	147.02623677253723	picture	0		246.0	109.0	/home/egter/Projects/stimuli/pictures/n03492542_36157.JPEG	182.50266790390015	2.048603057861328
111	149.0664517879486	response	0	k		109.0	/home/egter/Projects/stimuli/pictures/n03492542_36157.JPEG	184.54288291931152	
112	149.07483983039856	picture	0		83.0	110.0	/home/egter/Projects/stimuli/pictures/S_yt-V35ubrbe8gA_86.png	184.55127096176147	0.6944220066070557
112	149.75812983512878	response	0	j		110.0	/home/egter/Projects/stimuli/pictures/S_yt-V35ubrbe8gA_86.png	185.2345609664917	
113	149.76926183700562	picture	0		101.0	111.0	/home/egter/Projects/stimuli/pictures/R_S_yt-6DJulOrg2-8_122.png	185.24569296836853	0.8402700424194336
113	150.59980082511902	response	0	j		111.0	/home/egter/Projects/stimuli/pictures/R_S_yt-6DJulOrg2-8_122.png	186.07623195648193	
114	150.60953187942505	picture	0		159.0	112.0	/home/egter/Projects/stimuli/pictures/n07693725_2957.JPEG	186.08596301078796	1.3264100551605225
114	151.91806483268738	response	0	k		112.0	/home/egter/Projects/stimuli/pictures/n07693725_2957.JPEG	187.3944959640503	
115	151.93594193458557	picture	0		119.0	113.0	/home/egter/Projects/stimuli/pictures/n04562935_6528.JPEG	187.4123730659485	0.9930388927459717
115	152.90984988212585	response	0	k		113.0	/home/egter/Projects/stimuli/pictures/n04562935_6528.JPEG	188.38628101348877	
116	152.92898082733154	picture	0		114.0	114.0	/home/egter/Projects/stimuli/pictures/n03240683_10939.JPEG	188.40541195869446	0.9514150619506836
116	153.86648797988892	response	0	k		114.0	/home/egter/Projects/stimuli/pictures/n03240683_10939.JPEG	189.34291911125183	
117	153.88039588928223	picture	0		103.0	115.0	/home/egter/Projects/stimuli/pictures/S_yt-ieA3XwoSko4_98.png	189.35682702064514	0.8610680103302002
117	154.72628378868103	response	0	j		115.0	/home/egter/Projects/stimuli/pictures/S_yt-ieA3XwoSko4_98.png	190.20271492004395	
118	154.74146389961243	picture	0		86.0	116.0	/home/egter/Projects/stimuli/pictures/S_ILSVRC2015_train_00743002.png	190.21789503097534	0.7222080230712891
118	155.4498438835144	response	0	j		116.0	/home/egter/Projects/stimuli/pictures/S_ILSVRC2015_train_00743002.png	190.92627501487732	
119	155.46367192268372	picture	0		156.0	117.0	/home/egter/Projects/stimuli/pictures/n02486261_14150.JPEG	190.94010305404663	1.3055338859558105
119	156.75815391540527	response	0	k		117.0	/home/egter/Projects/stimuli/pictures/n02486261_14150.JPEG	192.2345850467682	
120	156.76920580863953	picture	0		118.0	118.0	/home/egter/Projects/stimuli/pictures/ILSVRC2012_val_00013084.JPEG	192.24563694000244	0.9861490726470947
120	157.73478078842163	response	0	k		118.0	/home/egter/Projects/stimuli/pictures/ILSVRC2012_val_00013084.JPEG	193.21121191978455	
121	157.75535488128662	picture	0		94.0	119.0	/home/egter/Projects/stimuli/pictures/R_S_yt-GBt59U0KUR0_6.png	193.23178601264954	0.7916719913482666
121	158.52631378173828	response	0	j		119.0	/home/egter/Projects/stimuli/pictures/R_S_yt-GBt59U0KUR0_6.png	194.0027449131012	
122	158.5470268726349	picture	0		109.0	120.0	/home/egter/Projects/stimuli/pictures/n04266014_6986.JPEG	194.0234580039978	0.9166309833526611
122	159.44979000091553	response	0	k		120.0	/home/egter/Projects/stimuli/pictures/n04266014_6986.JPEG	194.92622113227844	
123	159.46365785598755	picture	0		131.0	121.0	/home/egter/Projects/stimuli/pictures/n02606052_2701.JPEG	194.94008898735046	1.0971739292144775
123	160.5497179031372	response	0	k		121.0	/home/egter/Projects/stimuli/pictures/n02606052_2701.JPEG	196.02614903450012	
124	160.56083178520203	picture	0		246.0	122.0	/home/egter/Projects/stimuli/pictures/S_yt-EcOYbXulEpI_139.png	196.03726291656494	2.04849910736084
124	162.59975790977478	response	0	j		122.0	/home/egter/Projects/stimuli/pictures/S_yt-EcOYbXulEpI_139.png	198.0761890411377	
125	162.60933089256287	picture	0		92.0	123.0	/home/egter/Projects/stimuli/pictures/S_cST9H3zu3zQ_126.png	198.08576202392578	0.7709710597991943
125	163.3664469718933	response	0	j		123.0	/home/egter/Projects/stimuli/pictures/S_cST9H3zu3zQ_126.png	198.84287810325623	
126	163.38030195236206	picture	0		76.0	124.0	/home/egter/Projects/stimuli/pictures/R_S_yt-uT4MXm0UBJM_64.png	198.85673308372498	0.6388978958129883
126	164.00808477401733	response	0	j		124.0	/home/egter/Projects/stimuli/pictures/R_S_yt-uT4MXm0UBJM_64.png	199.48451590538025	
127	164.01919984817505	picture	0		184.0	125.0	/home/egter/Projects/stimuli/pictures/R_S_yt-s2tZ2NIQrxg_175.png	199.49563097953796	1.534654140472412
127	165.5346908569336	response	0	j		125.0	/home/egter/Projects/stimuli/pictures/R_S_yt-s2tZ2NIQrxg_175.png	201.0111219882965	
128	165.55385398864746	picture	0		107.0	126.0	/home/egter/Projects/stimuli/pictures/R_S_yt-K_gHa2x2OQA_319.png	201.03028512001038	0.8888289928436279
128	166.43303394317627	response	0	j		126.0	/home/egter/Projects/stimuli/pictures/R_S_yt-K_gHa2x2OQA_319.png	201.90946507453918	
129	166.4426829814911	picture	0		123.0	127.0	/home/egter/Projects/stimuli/pictures/S_ILSVRC2015_train_00318000.png	201.919114112854	1.0277888774871826
129	167.4580659866333	response	0	j		127.0	/home/egter/Projects/stimuli/pictures/S_ILSVRC2015_train_00318000.png	202.93449711799622	
130	167.47047185897827	picture	0		131.0	128.0	/home/egter/Projects/stimuli/pictures/R_S_yt-dESxu60Cl10_24.png	202.9469029903412	1.0902340412139893
130	168.5429449081421	response	0	j		128.0	/home/egter/Projects/stimuli/pictures/R_S_yt-dESxu60Cl10_24.png	204.019376039505	
131	168.56070590019226	picture	0		108.0	129.0	/home/egter/Projects/stimuli/pictures/S_yt-MMsrBb7W-dk_25.png	204.03713703155518	0.9029510021209717
131	169.44969987869263	response	0	k		129.0	/home/egter/Projects/stimuli/pictures/S_yt-MMsrBb7W-dk_25.png	204.92613101005554	
132	169.46365690231323	picture	0		105.0	130.0	/home/egter/Projects/stimuli/pictures/R_S_Pexels_Videos_2786546.png	204.94008803367615	0.881911039352417
132	170.32627081871033	response	0	k		130.0	/home/egter/Projects/stimuli/pictures/R_S_Pexels_Videos_2786546.png	205.80270195007324	
133	170.34556794166565	picture	0		375.0	131.0	/home/egter/Projects/stimuli/pictures/S_yt-4x2eUikn9rw_212.png	205.82199907302856	3.1249170303344727
133	173.45800590515137	response	0	j		131.0	/home/egter/Projects/stimuli/pictures/S_yt-4x2eUikn9rw_212.png	208.93443703651428	
134	173.47048497200012	picture	0		117.0	132.0	/home/egter/Projects/stimuli/pictures/n02132136_32838.JPEG	208.94691610336304	0.9721438884735107
134	174.43300485610962	response	0	j		132.0	/home/egter/Projects/stimuli/pictures/n02132136_32838.JPEG	209.90943598747253	
135	174.44262886047363	picture	0		445.0	133.0	/home/egter/Projects/stimuli/pictures/n03188531_23390.JPEG	209.91905999183655	3.708281993865967
135	178.13453698158264	response	0	k		133.0	/home/egter/Projects/stimuli/pictures/n03188531_23390.JPEG	213.61096811294556	
136	178.1509108543396	picture	0		76.0	134.0	/home/egter/Projects/stimuli/pictures/S_yt-bmGWhOCsvJo_128.png	213.62734198570251	0.6319501399993896
136	178.77463579177856	response	0	j		134.0	/home/egter/Projects/stimuli/pictures/S_yt-bmGWhOCsvJo_128.png	214.25106692314148	
137	178.782860994339	picture	0		93.0	135.0	/home/egter/Projects/stimuli/pictures/S_yt-Xs7TCzdnUJQ_79.png	214.2592921257019	0.7777488231658936
137	179.54963493347168	response	0	j		135.0	/home/egter/Projects/stimuli/pictures/S_yt-Xs7TCzdnUJQ_79.png	215.0260660648346	
138	179.56060981750488	picture	0		102.0	136.0	/home/egter/Projects/stimuli/pictures/R_S_yt-mDil5vGZb14_4049.png	215.0370409488678	0.8472821712493896
138	180.39964699745178	response	0	j		136.0	/home/egter/Projects/stimuli/pictures/R_S_yt-mDil5vGZb14_4049.png	215.8760781288147	
139	180.40789198875427	picture	0		215.0	137.0	/home/egter/Projects/stimuli/pictures/S_yt-NJP0Hg8Wj5k_1.png	215.8843231201172	1.7916100025177002
139	182.19135999679565	response	0	j		137.0	/home/egter/Projects/stimuli/pictures/S_yt-NJP0Hg8Wj5k_1.png	217.66779112815857	
140	182.19950199127197	picture	0		101.0	138.0	/home/egter/Projects/stimuli/pictures/n07753113_1007.JPEG	217.6759331226349	0.8472929000854492
140	183.032949924469	response	0	k		138.0	/home/egter/Projects/stimuli/pictures/n07753113_1007.JPEG	218.5093810558319	
141	183.04679489135742	picture	0		80.0	139.0	/home/egter/Projects/stimuli/pictures/S_yt-K_gHa2x2OQA_319.png	218.52322602272034	0.6874370574951172
141	183.70795583724976	response	0	j		139.0	/home/egter/Projects/stimuli/pictures/S_yt-K_gHa2x2OQA_319.png	219.18438696861267	
142	183.73423194885254	picture	0		116.0	140.0	/home/egter/Projects/stimuli/pictures/n02484975_5457.JPEG	219.21066308021545	0.965277910232544
142	184.69124579429626	response	0	j		140.0	/home/egter/Projects/stimuli/pictures/n02484975_5457.JPEG	220.16767692565918	
143	184.69950985908508	picture	0		137.0	141.0	/home/egter/Projects/stimuli/pictures/n04258138_16780.JPEG	220.175940990448	1.1457641124725342
143	185.83300399780273	response	0	k		141.0	/home/egter/Projects/stimuli/pictures/n04258138_16780.JPEG	221.30943512916565	
144	185.84527397155762	picture	0		118.0	142.0	/home/egter/Projects/stimuli/pictures/n13052670_528.JPEG	221.32170510292053	0.9792098999023438
144	186.81630897521973	response	0	k		142.0	/home/egter/Projects/stimuli/pictures/n13052670_528.JPEG	222.29274010658264	
145	186.82448387145996	picture	0		123.0	143.0	/home/egter/Projects/stimuli/pictures/n01728572_16119.JPEG	222.30091500282288	1.0277190208435059
145	187.84130597114563	response	0	k		143.0	/home/egter/Projects/stimuli/pictures/n01728572_16119.JPEG	223.31773710250854	
146	187.85220289230347	picture	0		109.0	144.0	/home/egter/Projects/stimuli/pictures/R_S_yt-pPIHiIYSjW8_653.png	223.32863402366638	0.9097108840942383
146	188.74280285835266	response	0	j		144.0	/home/egter/Projects/stimuli/pictures/R_S_yt-pPIHiIYSjW8_653.png	224.21923398971558	
147	188.7619137763977	picture	0		126.0	145.0	/home/egter/Projects/stimuli/pictures/n02110341_7091.JPEG	224.23834490776062	1.048633098602295
147	189.79961490631104	response	0	k		145.0	/home/egter/Projects/stimuli/pictures/n02110341_7091.JPEG	225.27604603767395	
148	189.810546875	picture	0		105.0	146.0	/home/egter/Projects/stimuli/pictures/n02100735_3498.JPEG	225.28697800636292	0.8749449253082275
148	190.67459297180176	response	0	k		146.0	/home/egter/Projects/stimuli/pictures/n02100735_3498.JPEG	226.15102410316467	
149	190.68549180030823	picture	0		74.0	147.0	/home/egter/Projects/stimuli/pictures/S_yt-UzWRbs9Syf4_7.png	226.16192293167114	0.618070125579834
149	191.2912847995758	response	0	j		147.0	/home/egter/Projects/stimuli/pictures/S_yt-UzWRbs9Syf4_7.png	226.76771593093872	
150	191.30356192588806	picture	0		130.0	148.0	/home/egter/Projects/stimuli/pictures/S_yt-pB9w3AA-woE_37.png	226.77999305725098	1.0834100246429443
150	192.37466597557068	response	0	j		148.0	/home/egter/Projects/stimuli/pictures/S_yt-pB9w3AA-woE_37.png	227.8510971069336	
151	192.386971950531	picture	0		107.0	149.0	/home/egter/Projects/stimuli/pictures/S_yt-2ZsK7zSCJ2w_67.png	227.86340308189392	0.888800859451294
151	193.26628589630127	response	0	j		149.0	/home/egter/Projects/stimuli/pictures/S_yt-2ZsK7zSCJ2w_67.png	228.74271702766418	
152	193.2757728099823	picture	0		297.0	150.0	/home/egter/Projects/stimuli/pictures/S_yt-YxVIDs9oN50_3.png	228.75220394134521	2.479236125946045
152	195.73448777198792	response	0	j		150.0	/home/egter/Projects/stimuli/pictures/S_yt-YxVIDs9oN50_3.png	231.21091890335083	
153	195.75500893592834	picture	0		92.0	151.0	/home/egter/Projects/stimuli/pictures/S_hkunxDEshL4_95.png	231.23144006729126	0.7707328796386719
153	196.5162467956543	response	0	k		151.0	/home/egter/Projects/stimuli/pictures/S_hkunxDEshL4_95.png	231.9926779270172	
154	196.52574181556702	picture	0		101.0	152.0	/home/egter/Projects/stimuli/pictures/R_S_yt-4x2eUikn9rw_212.png	232.00217294692993	0.8403799533843994
154	197.3579158782959	response	0	j		152.0	/home/egter/Projects/stimuli/pictures/R_S_yt-4x2eUikn9rw_212.png	232.8343470096588	
155	197.36612176895142	picture	0		118.0	153.0	/home/egter/Projects/stimuli/pictures/R_S_yt-zgimmOcW5Mc_127.png	232.84255290031433	0.9929690361022949
155	198.33442497253418	response	0	j		153.0	/home/egter/Projects/stimuli/pictures/R_S_yt-zgimmOcW5Mc_127.png	233.8108561038971	
156	198.3590908050537	picture	0		103.0	154.0	/home/egter/Projects/stimuli/pictures/n01829413_7315.JPEG	233.83552193641663	0.8610491752624512
156	199.20787596702576	response	0	k		154.0	/home/egter/Projects/stimuli/pictures/n01829413_7315.JPEG	234.68430709838867	
157	199.22013998031616	picture	0		88.0	155.0	/home/egter/Projects/stimuli/pictures/S_yt-8QCcmqaEMPI_16.png	234.69657111167908	0.7294228076934814
157	199.93439984321594	response	0	j		155.0	/home/egter/Projects/stimuli/pictures/S_yt-8QCcmqaEMPI_16.png	235.41083097457886	
158	199.94956278800964	picture	0		91.0	156.0	/home/egter/Projects/stimuli/pictures/S_yt-GBt59U0KUR0_6.png	235.42599391937256	0.763714075088501
158	200.69954586029053	response	0	j		156.0	/home/egter/Projects/stimuli/pictures/S_yt-GBt59U0KUR0_6.png	236.17597699165344	
159	200.71327686309814	picture	0		86.0	157.0	/home/egter/Projects/stimuli/pictures/S_yt-AKRjrTvvxFc_1804.png	236.18970799446106	0.7221689224243164
159	201.42461776733398	response	0	k		157.0	/home/egter/Projects/stimuli/pictures/S_yt-AKRjrTvvxFc_1804.png	236.9010488986969	
160	201.43544578552246	picture	0		79.0	158.0	/home/egter/Projects/stimuli/pictures/R_S_comp_LW_L001_C006_PSNK_DENOISE_v02_SDR_PS_FINAL_20180709_SDR_2K_AVC.png	236.91187691688538	0.6597070693969727
160	202.08287477493286	response	0	j		158.0	/home/egter/Projects/stimuli/pictures/R_S_comp_LW_L001_C006_PSNK_DENOISE_v02_SDR_PS_FINAL_20180709_SDR_2K_AVC.png	237.55930590629578	
161	202.09515285491943	picture	0		106.0	159.0	/home/egter/Projects/stimuli/pictures/n04346328_706.JPEG	237.57158398628235	0.8818769454956055
161	202.95942497253418	response	0	k		159.0	/home/egter/Projects/stimuli/pictures/n04346328_706.JPEG	238.4358561038971	
162	202.97702980041504	picture	0		164.0	160.0	/home/egter/Projects/stimuli/pictures/R_S_ILSVRC2015_train_00434000.png	238.45346093177795	1.3681700229644775
162	204.3260679244995	response	0	k		160.0	/home/egter/Projects/stimuli/pictures/R_S_ILSVRC2015_train_00434000.png	239.80249905586243	
163	204.34519982337952	picture	0		81.0	161.0	/home/egter/Projects/stimuli/pictures/S_Y004_C015_SDR_2K_AVC.png	239.82163095474243	0.6735010147094727
163	205.00788187980652	response	0	j		161.0	/home/egter/Projects/stimuli/pictures/S_Y004_C015_SDR_2K_AVC.png	240.48431301116943	
164	205.018700838089	picture	0		112.0	162.0	/home/egter/Projects/stimuli/pictures/n04311004_3032.JPEG	240.4951319694519	0.9306900501251221
164	205.93438982963562	response	0	k		162.0	/home/egter/Projects/stimuli/pictures/n04311004_3032.JPEG	241.41082096099854	
165	205.9493908882141	picture	0		112.0	163.0	/home/egter/Projects/stimuli/pictures/R_S_yt-jzDaQD-g168_103.png	241.42582201957703	0.937445878982544
165	206.8745539188385	response	0	k		163.0	/home/egter/Projects/stimuli/pictures/R_S_yt-jzDaQD-g168_103.png	242.35098505020142	
166	206.88683676719666	picture	0		260.0	164.0	/home/egter/Projects/stimuli/pictures/S_yt-NLfzvAJgyJ4_120.png	242.36326789855957	2.1666040420532227
166	209.04118585586548	response	0	j		164.0	/home/egter/Projects/stimuli/pictures/S_yt-NLfzvAJgyJ4_120.png	244.5176169872284	
167	209.05344080924988	picture	0		164.0	165.0	/home/egter/Projects/stimuli/pictures/n02092002_2626.JPEG	244.5298719406128	1.3680729866027832
167	210.40789794921875	response	0	k		165.0	/home/egter/Projects/stimuli/pictures/n02092002_2626.JPEG	245.88432908058167	
168	210.42151379585266	picture	0		99.0	166.0	/home/egter/Projects/stimuli/pictures/R_S_video-10.png	245.89794492721558	0.8334250450134277
168	211.2412989139557	response	0	j		166.0	/home/egter/Projects/stimuli/pictures/R_S_video-10.png	246.7177300453186	
169	211.2549388408661	picture	0		96.0	167.0	/home/egter/Projects/stimuli/pictures/R_S_yt-z68VLDDCFdw_93.png	246.731369972229	0.8053629398345947
169	212.049498796463	response	0	j		167.0	/home/egter/Projects/stimuli/pictures/R_S_yt-z68VLDDCFdw_93.png	247.52592992782593	
170	212.06030178070068	picture	0		339.0	168.0	/home/egter/Projects/stimuli/pictures/ILSVRC2012_test_00017779.JPEG	247.5367329120636	2.826439142227173
170	214.8744969367981	response	0	j		168.0	/home/egter/Projects/stimuli/pictures/ILSVRC2012_test_00017779.JPEG	250.350928068161	
171	214.88674092292786	picture	0		116.0	169.0	/home/egter/Projects/stimuli/pictures/R_S_P005_C002_UHD_SDR_2K_AVC.png	250.36317205429077	0.9652018547058105
171	215.8411509990692	response	0	j		169.0	/home/egter/Projects/stimuli/pictures/R_S_P005_C002_UHD_SDR_2K_AVC.png	251.31758213043213	
172	215.85194277763367	picture	0		197.0	170.0	/home/egter/Projects/stimuli/pictures/S_yt-1UFhynm5g6Y_266.png	251.32837390899658	1.6391000747680664
172	217.48280477523804	response	0	j		170.0	/home/egter/Projects/stimuli/pictures/S_yt-1UFhynm5g6Y_266.png	252.95923590660095	
173	217.49104285240173	picture	0		176.0	171.0	/home/egter/Projects/stimuli/pictures/S_yt-o96A55Szxkc_982.png	252.96747398376465	1.4719960689544678
173	218.94268989562988	response	0	k		171.0	/home/egter/Projects/stimuli/pictures/S_yt-o96A55Szxkc_982.png	254.4191210269928	
174	218.9630389213562	picture	0		206.0	172.0	/home/egter/Projects/stimuli/pictures/S_ILSVRC2015_train_00549000.png	254.43947005271912	1.7222020626068115
174	220.67450499534607	response	0	j		172.0	/home/egter/Projects/stimuli/pictures/S_ILSVRC2015_train_00549000.png	256.150936126709	
175	220.685240983963	picture	0		179.0	173.0	/home/egter/Projects/stimuli/pictures/n07716906_10696.JPEG	256.1616721153259	1.4930329322814941
175	222.15943884849548	response	0	k		173.0	/home/egter/Projects/stimuli/pictures/n07716906_10696.JPEG	257.6358699798584	
176	222.1782739162445	picture	0		248.0	174.0	/home/egter/Projects/stimuli/pictures/n02058221_3542.JPEG	257.6547050476074	2.062736988067627
176	224.23278498649597	response	0	k		174.0	/home/egter/Projects/stimuli/pictures/n02058221_3542.JPEG	259.7092161178589	
177	224.24101090431213	picture	0		98.0	175.0	/home/egter/Projects/stimuli/pictures/S_yt-b7bIulV49DQ_81.png	259.71744203567505	0.8191699981689453
177	225.04946780204773	response	0	j		175.0	/home/egter/Projects/stimuli/pictures/S_yt-b7bIulV49DQ_81.png	260.52589893341064	
178	225.06018090248108	picture	0		313.0	176.0	/home/egter/Projects/stimuli/pictures/n02504013_13418.JPEG	260.536612033844	2.6111910343170166
178	227.65776181221008	response	0	j		176.0	/home/egter/Projects/stimuli/pictures/n02504013_13418.JPEG	263.134192943573	
179	227.6713719367981	picture	0		178.0	177.0	/home/egter/Projects/stimuli/pictures/n01443537_2772.JPEG	263.147803068161	1.4862909317016602
179	229.14264583587646	response	0	k		177.0	/home/egter/Projects/stimuli/pictures/n01443537_2772.JPEG	264.6190769672394	
180	229.15766286849976	picture	0		450.0	178.0	/home/egter/Projects/stimuli/pictures/R_S_yt-SGTgMItFkxY_172.png	264.63409399986267	3.749917984008789
180	232.8994438648224	response	0	j		178.0	/home/egter/Projects/stimuli/pictures/R_S_yt-SGTgMItFkxY_172.png	268.3758749961853	
181	232.90758085250854	picture	0		114.0	179.0	/home/egter/Projects/stimuli/pictures/n01755581_11817.JPEG	268.38401198387146	0.951200008392334
181	233.84941697120667	response	0	j		179.0	/home/egter/Projects/stimuli/pictures/n01755581_11817.JPEG	269.3258481025696	
182	233.85878086090088	stim	0		495.0			269.3352119922638	4.124929904937744
182	237.96704387664795	response	0	space				273.44347500801086	
