trial_nr	onset	event_type	phase	response	nr_frames	picture_index	picture_file	onset_abs	duration
0	0.01756119728088379	stim	0		228.0			39.338205337524414	1.919497013092041
0	1.9110970497131348	response	0	space				41.231741189956665	
2	1.9370582103729248	picture	0		236.0	0.0	/home/egter/Projects/stimuli/pictures/S_yt-72bAjwP-nWM_30.png	41.257702350616455	1.9810888767242432
2	2.1182191371917725	response	0	space		0.0	/home/egter/Projects/stimuli/pictures/S_yt-72bAjwP-nWM_30.png	41.4388632774353	
2	3.902628183364868	response	0	k		0.0	/home/egter/Projects/stimuli/pictures/S_yt-72bAjwP-nWM_30.png	43.2232723236084	
3	3.918147087097168	picture	0		297.0	1.0	/home/egter/Projects/stimuli/pictures/R_S_yt-xgqx7tH92-c_6.png	43.2387912273407	2.483483076095581
3	6.384915113449097	response	0	j		1.0	/home/egter/Projects/stimuli/pictures/R_S_yt-xgqx7tH92-c_6.png	45.70555925369263	
4	6.401630163192749	picture	0		139.0	2.0	/home/egter/Projects/stimuli/pictures/n03776460_3015.JPEG	45.72227430343628	1.1672999858856201
4	7.5515711307525635	response	0	k		2.0	/home/egter/Projects/stimuli/pictures/n03776460_3015.JPEG	46.872215270996094	
5	7.568930149078369	picture	0		87.0	3.0	/home/egter/Projects/stimuli/pictures/R_S_yt-aSEKRE_FNaI_62.png	46.8895742893219	0.7324609756469727
5	8.278104066848755	response	0	j		3.0	/home/egter/Projects/stimuli/pictures/R_S_yt-aSEKRE_FNaI_62.png	47.598748207092285	
6	8.301391124725342	picture	0		102.0	4.0	/home/egter/Projects/stimuli/pictures/R_S_yt-yAtHuDsadu8_102.png	47.62203526496887	0.8583869934082031
6	9.143182039260864	response	0	j		4.0	/home/egter/Projects/stimuli/pictures/R_S_yt-yAtHuDsadu8_102.png	48.463826179504395	
7	9.159778118133545	picture	0		127.0	5.0	/home/egter/Projects/stimuli/pictures/S_video_inspire_california_vineyard_sierra-mar_sunrise_110.png	48.480422258377075	1.0668070316314697
7	10.209900140762329	response	0	k		5.0	/home/egter/Projects/stimuli/pictures/S_video_inspire_california_vineyard_sierra-mar_sunrise_110.png	49.53054428100586	
8	10.226585149765015	picture	0		118.0	6.0	/home/egter/Projects/stimuli/pictures/R_S_ILSVRC2015_train_00538001.png	49.547229290008545	0.9914810657501221
8	11.201560020446777	response	0	j		6.0	/home/egter/Projects/stimuli/pictures/R_S_ILSVRC2015_train_00538001.png	50.52220416069031	
9	11.218066215515137	picture	0		89.0	7.0	/home/egter/Projects/stimuli/pictures/n03100240_8232.JPEG	50.53871035575867	0.7500238418579102
9	11.951523065567017	response	0	k		7.0	/home/egter/Projects/stimuli/pictures/n03100240_8232.JPEG	51.27216720581055	
10	11.968090057373047	picture	0		133.0	8.0	/home/egter/Projects/stimuli/pictures/R_S_FK_U009_C004_SDR_20191220_SDR_2K_AVC.png	51.28873419761658	1.116671085357666
10	13.06895112991333	response	0	j		8.0	/home/egter/Projects/stimuli/pictures/R_S_FK_U009_C004_SDR_20191220_SDR_2K_AVC.png	52.38959527015686	
11	13.084761142730713	picture	0		188.0	9.0	/home/egter/Projects/stimuli/pictures/R_S_yt-IyxCMODHSSE_29.png	52.40540528297424	1.5749988555908203
11	14.643213033676147	response	0	j		9.0	/home/egter/Projects/stimuli/pictures/R_S_yt-IyxCMODHSSE_29.png	53.96385717391968	
12	14.659759998321533	picture	0		114.0	10.0	/home/egter/Projects/stimuli/pictures/S_yt-iHmshS63rBc_329.png	53.98040413856506	0.9507310390472412
12	15.60152006149292	response	0	j		10.0	/home/egter/Projects/stimuli/pictures/S_yt-iHmshS63rBc_329.png	54.92216420173645	
13	15.610491037368774	picture	0		110.0	11.0	/home/egter/Projects/stimuli/pictures/R_S_ILSVRC2015_train_00324002.png	54.931135177612305	0.924252986907959
13	16.51132607460022	response	0	k		11.0	/home/egter/Projects/stimuli/pictures/R_S_ILSVRC2015_train_00324002.png	55.83197021484375	
14	16.534744024276733	picture	0		103.0	12.0	/home/egter/Projects/stimuli/pictures/R_S_wc-7ugQ0V4lxYkJ_131.png	55.855388164520264	0.8668880462646484
14	17.38493013381958	response	0	j		12.0	/home/egter/Projects/stimuli/pictures/R_S_wc-7ugQ0V4lxYkJ_131.png	56.70557427406311	
15	17.401632070541382	picture	0		158.0	13.0	/home/egter/Projects/stimuli/pictures/S_ILSVRC2015_train_00451000.png	56.72227621078491	1.319922924041748
15	18.70307421684265	response	0	j		13.0	/home/egter/Projects/stimuli/pictures/S_ILSVRC2015_train_00451000.png	58.02371835708618	
16	18.72155499458313	picture	0		205.0	14.0	/home/egter/Projects/stimuli/pictures/S_video_inspire_sanfrancisco_castro_005.png	58.04219913482666	1.7131710052490234
16	20.41823101043701	response	0	k		14.0	/home/egter/Projects/stimuli/pictures/S_video_inspire_sanfrancisco_castro_005.png	59.73887515068054	
17	20.434725999832153	picture	0		140.0	15.0	/home/egter/Projects/stimuli/pictures/R_S_yt-nE8YJOhW4e4_171.png	59.755370140075684	1.1749951839447021
17	21.59317708015442	response	0	j		15.0	/home/egter/Projects/stimuli/pictures/R_S_yt-nE8YJOhW4e4_171.png	60.91382122039795	
18	21.609721183776855	picture	0		214.0	16.0	/home/egter/Projects/stimuli/pictures/n09428293_16949.JPEG	60.930365324020386	1.7916529178619385
18	23.384843111038208	response	0	j		16.0	/home/egter/Projects/stimuli/pictures/n09428293_16949.JPEG	62.70548725128174	
19	23.401374101638794	picture	0		339.0	17.0	/home/egter/Projects/stimuli/pictures/n02504458_12095.JPEG	62.722018241882324	2.82702898979187
19	26.21805715560913	response	0	j		17.0	/home/egter/Projects/stimuli/pictures/n02504458_12095.JPEG	65.53870129585266	
20	26.228403091430664	picture	0		89.0	18.0	/home/egter/Projects/stimuli/pictures/S_wc-PqINyFk_ku4u_18.png	65.5490472316742	0.7430391311645508
20	26.959829092025757	response	0	k		18.0	/home/egter/Projects/stimuli/pictures/S_wc-PqINyFk_ku4u_18.png	66.28047323226929	
21	26.971442222595215	picture	0		104.0	19.0	/home/egter/Projects/stimuli/pictures/n02988304_3864.JPEG	66.29208636283875	0.8682329654693604
21	27.826494216918945	response	0	k		19.0	/home/egter/Projects/stimuli/pictures/n02988304_3864.JPEG	67.14713835716248	
22	27.839675188064575	picture	0		103.0	20.0	/home/egter/Projects/stimuli/pictures/S_DV6V38rplag_215.png	67.1603193283081	0.8679399490356445
22	28.68626618385315	response	0	j		20.0	/home/egter/Projects/stimuli/pictures/S_DV6V38rplag_215.png	68.00691032409668	
23	28.70761513710022	picture	0		182.0	21.0	/home/egter/Projects/stimuli/pictures/R_S_comp_L004_C011_PS_v01_SDR_PS_20180925_SDR_2K_AVC.png	68.02825927734375	1.5207560062408447
23	30.21812105178833	response	0	j		21.0	/home/egter/Projects/stimuli/pictures/R_S_comp_L004_C011_PS_v01_SDR_PS_20180925_SDR_2K_AVC.png	69.53876519203186	
24	30.228371143341064	picture	0		91.0	22.0	/home/egter/Projects/stimuli/pictures/n02168699_4460.JPEG	69.5490152835846	0.7569758892059326
24	30.976447105407715	response	0	k		22.0	/home/egter/Projects/stimuli/pictures/n02168699_4460.JPEG	70.29709124565125	
25	30.985347032546997	picture	0		154.0	23.0	/home/egter/Projects/stimuli/pictures/n02099849_3786.JPEG	70.30599117279053	1.2846941947937012
25	32.25987911224365	response	0	k		23.0	/home/egter/Projects/stimuli/pictures/n02099849_3786.JPEG	71.58052325248718	
26	32.2700412273407	picture	0		159.0	24.0	/home/egter/Projects/stimuli/pictures/R_S_comp_LA_A006_C004_v01_SDR_FINAL_PS_20180730_SDR_2K_AVC.png	71.59068536758423	1.3263788223266602
26	33.5847442150116	response	0	j		24.0	/home/egter/Projects/stimuli/pictures/R_S_comp_LA_A006_C004_v01_SDR_FINAL_PS_20180730_SDR_2K_AVC.png	72.90538835525513	
27	33.59642004966736	picture	0		114.0	25.0	/home/egter/Projects/stimuli/pictures/S_yt-rlEPywo5BEQ_36.png	72.91706418991089	0.9516570568084717
27	34.53475618362427	response	0	j		25.0	/home/egter/Projects/stimuli/pictures/S_yt-rlEPywo5BEQ_36.png	73.8554003238678	
28	34.54807710647583	picture	0		93.0	26.0	/home/egter/Projects/stimuli/pictures/S_yt-jQrMcUCmAaM_44.png	73.86872124671936	0.7782120704650879
28	35.31126117706299	response	0	k		26.0	/home/egter/Projects/stimuli/pictures/S_yt-jQrMcUCmAaM_44.png	74.63190531730652	
29	35.32628917694092	picture	0		105.0	27.0	/home/egter/Projects/stimuli/pictures/S_yt-lNevNqA8sIs_54.png	74.64693331718445	0.8816628456115723
29	36.19369912147522	response	0	k		27.0	/home/egter/Projects/stimuli/pictures/S_yt-lNevNqA8sIs_54.png	75.51434326171875	
30	36.20795202255249	picture	0		245.0	28.0	/home/egter/Projects/stimuli/pictures/ILSVRC2012_test_00060829.JPEG	75.52859616279602	2.0481810569763184
30	38.24304509162903	response	0	k		28.0	/home/egter/Projects/stimuli/pictures/ILSVRC2012_test_00060829.JPEG	77.56368923187256	
31	38.25613307952881	picture	0		238.0	29.0	/home/egter/Projects/stimuli/pictures/n09468604_7800.JPEG	77.57677721977234	1.993021011352539
31	40.23537516593933	response	0	k		29.0	/home/egter/Projects/stimuli/pictures/n09468604_7800.JPEG	79.55601930618286	
32	40.24915409088135	picture	0		106.0	30.0	/home/egter/Projects/stimuli/pictures/R_S_yt-CeOZeB1LXwE_79.png	79.56979823112488	0.8889000415802002
32	41.119545221328735	response	0	j		30.0	/home/egter/Projects/stimuli/pictures/R_S_yt-CeOZeB1LXwE_79.png	80.44018936157227	
33	41.13805413246155	picture	0		128.0	31.0	/home/egter/Projects/stimuli/pictures/S_yt-2kPrGwVmRfE_169.png	80.45869827270508	1.069478988647461
33	42.193706035614014	response	0	j		31.0	/home/egter/Projects/stimuli/pictures/S_yt-2kPrGwVmRfE_169.png	81.51435017585754	
34	42.20753312110901	picture	0		89.0	32.0	/home/egter/Projects/stimuli/pictures/S_yt-aiWUhl8MCto_71.png	81.52817726135254	0.7503318786621094
34	42.943706035614014	response	0	j		32.0	/home/egter/Projects/stimuli/pictures/S_yt-aiWUhl8MCto_71.png	82.26435017585754	
35	42.95786499977112	picture	0		154.0	33.0	/home/egter/Projects/stimuli/pictures/n01796340_315.JPEG	82.27850914001465	1.2912750244140625
35	44.23541522026062	response	0	k		33.0	/home/egter/Projects/stimuli/pictures/n01796340_315.JPEG	83.55605936050415	
36	44.24914002418518	picture	0		141.0	34.0	/home/egter/Projects/stimuli/pictures/R_S_yt-iKe-0YNR5Eo_164.png	83.56978416442871	1.1804680824279785
36	45.41807007789612	response	0	k		34.0	/home/egter/Projects/stimuli/pictures/R_S_yt-iKe-0YNR5Eo_164.png	84.73871421813965	
37	45.42960810661316	picture	0		212.0	35.0	/home/egter/Projects/stimuli/pictures/S_yt-tNCrkObhB6c_17.png	84.75025224685669	1.7639360427856445
37	47.18472218513489	response	0	j		35.0	/home/egter/Projects/stimuli/pictures/S_yt-tNCrkObhB6c_17.png	86.50536632537842	
38	47.193544149398804	picture	0		85.0	36.0	/home/egter/Projects/stimuli/pictures/R_S_yt-TbdZrcl_Jso_5.png	86.51418828964233	0.7160818576812744
38	47.89305114746094	response	0	j		36.0	/home/egter/Projects/stimuli/pictures/R_S_yt-TbdZrcl_Jso_5.png	87.21369528770447	
39	47.90962600708008	picture	0		241.0	37.0	/home/egter/Projects/stimuli/pictures/S_yt-4i1b6NQ9NKs_5.png	87.23027014732361	2.013090133666992
39	49.90347909927368	response	0	j		37.0	/home/egter/Projects/stimuli/pictures/S_yt-4i1b6NQ9NKs_5.png	89.22412323951721	
40	49.92271614074707	picture	0		506.0	38.0	/home/egter/Projects/stimuli/pictures/n01682714_16823.JPEG	89.2433602809906	4.2221269607543945
40	54.134624004364014	response	0	k		38.0	/home/egter/Projects/stimuli/pictures/n01682714_16823.JPEG	93.45526814460754	
41	54.144843101501465	picture	0		168.0	39.0	/home/egter/Projects/stimuli/pictures/n04179913_7268.JPEG	93.465487241745	1.4027559757232666
41	55.534889221191406	response	0	k		39.0	/home/egter/Projects/stimuli/pictures/n04179913_7268.JPEG	94.85553336143494	
42	55.54759907722473	picture	0		92.0	40.0	/home/egter/Projects/stimuli/pictures/S_yt-AuQ_WxaNy4Y_255.png	94.86824321746826	0.7708179950714111
42	56.302863121032715	response	0	j		40.0	/home/egter/Projects/stimuli/pictures/S_yt-AuQ_WxaNy4Y_255.png	95.62350726127625	
43	56.31841707229614	picture	0		157.0	41.0	/home/egter/Projects/stimuli/pictures/R_S_ILSVRC2015_train_00654000.png	95.63906121253967	1.3161611557006836
43	57.61799716949463	response	0	j		41.0	/home/egter/Projects/stimuli/pictures/R_S_ILSVRC2015_train_00654000.png	96.93864130973816	
44	57.634578227996826	picture	0		413.0	42.0	/home/egter/Projects/stimuli/pictures/n03661043_4640.JPEG	96.95522236824036	3.4502267837524414
44	61.06867814064026	response	0	k		42.0	/home/egter/Projects/stimuli/pictures/n03661043_4640.JPEG	100.38932228088379	
45	61.08480501174927	picture	0		84.0	43.0	/home/egter/Projects/stimuli/pictures/n01728920_7310.JPEG	100.4054491519928	0.7058620452880859
45	61.77679204940796	response	0	k		43.0	/home/egter/Projects/stimuli/pictures/n01728920_7310.JPEG	101.09743618965149	
46	61.79066705703735	picture	0		103.0	44.0	/home/egter/Projects/stimuli/pictures/R_S_yt-2cwARrUMj40_67.png	101.11131119728088	0.8688781261444092
46	62.64299416542053	response	0	j		44.0	/home/egter/Projects/stimuli/pictures/R_S_yt-2cwARrUMj40_67.png	101.96363830566406	
47	62.65954518318176	picture	0		78.0	45.0	/home/egter/Projects/stimuli/pictures/S__6qAy77ODUI_175.png	101.9801893234253	0.6518478393554688
47	63.30133414268494	response	0	j		45.0	/home/egter/Projects/stimuli/pictures/S__6qAy77ODUI_175.png	102.62197828292847	
48	63.31139302253723	picture	0		96.0	46.0	/home/egter/Projects/stimuli/pictures/R_S_pexels-kampus-production-5991896.png	102.63203716278076	0.7986490726470947
48	64.10131907463074	response	0	j		46.0	/home/egter/Projects/stimuli/pictures/R_S_pexels-kampus-production-5991896.png	103.42196321487427	
49	64.11004209518433	picture	0		86.0	47.0	/home/egter/Projects/stimuli/pictures/S_EFR8AteY59I_15.png	103.43068623542786	0.722235918045044
49	64.81848812103271	response	0	j		47.0	/home/egter/Projects/stimuli/pictures/S_EFR8AteY59I_15.png	104.13913226127625	
50	64.83227801322937	picture	0		87.0	48.0	/home/egter/Projects/stimuli/pictures/n02268853_1431.JPEG	104.1529221534729	0.7291100025177002
50	65.55133509635925	response	0	j		48.0	/home/egter/Projects/stimuli/pictures/n02268853_1431.JPEG	104.87197923660278	
51	65.56138801574707	picture	0		102.0	49.0	/home/egter/Projects/stimuli/pictures/S_yt-Xs7TCzdnUJQ_79.png	104.8820321559906	0.8542520999908447
51	66.40178418159485	response	0	j		49.0	/home/egter/Projects/stimuli/pictures/S_yt-Xs7TCzdnUJQ_79.png	105.72242832183838	
52	66.41564011573792	picture	0		127.0	50.0	/home/egter/Projects/stimuli/pictures/n04266014_7133.JPEG	105.73628425598145	1.069108009338379
52	67.46801519393921	response	0	k		50.0	/home/egter/Projects/stimuli/pictures/n04266014_7133.JPEG	106.78865933418274	
53	67.4847481250763	picture	0		78.0	51.0	/home/egter/Projects/stimuli/pictures/n03529860_10326.JPEG	106.80539226531982	0.6581060886383057
53	68.11946201324463	response	0	k		51.0	/home/egter/Projects/stimuli/pictures/n03529860_10326.JPEG	107.44010615348816	
54	68.1428542137146	picture	0		80.0	52.0	/home/egter/Projects/stimuli/pictures/n03042490_1870.JPEG	107.46349835395813	0.6685118675231934
54	68.80133819580078	response	0	k		52.0	/home/egter/Projects/stimuli/pictures/n03042490_1870.JPEG	108.12198233604431	
55	68.8113660812378	picture	0		143.0	53.0	/home/egter/Projects/stimuli/pictures/S_ILSVRC2015_train_00599000.png	108.13201022148132	1.2065041065216064
55	70.00129508972168	response	0	k		53.0	/home/egter/Projects/stimuli/pictures/S_ILSVRC2015_train_00599000.png	109.32193922996521	
56	70.0178701877594	picture	0		540.0	54.0	/home/egter/Projects/stimuli/pictures/S_ILSVRC2015_train_00324002.png	109.33851432800293	4.501765012741089
56	74.50956511497498	response	0	k		54.0	/home/egter/Projects/stimuli/pictures/S_ILSVRC2015_train_00324002.png	113.8302092552185	
57	74.51963520050049	picture	0		82.0	55.0	/home/egter/Projects/stimuli/pictures/n02701002_4286.JPEG	113.84027934074402	0.6875908374786377
57	75.19338011741638	response	0	k		55.0	/home/egter/Projects/stimuli/pictures/n02701002_4286.JPEG	114.51402425765991	
58	75.20722603797913	picture	0		90.0	56.0	/home/egter/Projects/stimuli/pictures/n04523525_14005.JPEG	114.52787017822266	0.7569530010223389
58	75.95122909545898	response	0	k		56.0	/home/egter/Projects/stimuli/pictures/n04523525_14005.JPEG	115.27187323570251	
59	75.96417903900146	picture	0		67.0	57.0	/home/egter/Projects/stimuli/pictures/n03977966_43623.JPEG	115.284823179245	0.5624120235443115
59	76.5111620426178	response	0	k		57.0	/home/egter/Projects/stimuli/pictures/n03977966_43623.JPEG	115.83180618286133	
60	76.52659106254578	picture	0		78.0	58.0	/home/egter/Projects/stimuli/pictures/R_S_yt-BlWfK4MkjWA_469.png	115.8472352027893	0.6527340412139893
60	77.16789722442627	response	0	j		58.0	/home/egter/Projects/stimuli/pictures/R_S_yt-BlWfK4MkjWA_469.png	116.4885413646698	
61	77.17932510375977	picture	0		71.0	59.0	/home/egter/Projects/stimuli/pictures/n03496892_14834.JPEG	116.4999692440033	0.5902650356292725
61	77.75953006744385	response	0	k		59.0	/home/egter/Projects/stimuli/pictures/n03496892_14834.JPEG	117.08017420768738	
62	77.76959013938904	picture	0		120.0	60.0	/home/egter/Projects/stimuli/pictures/S_yt-S6N5FyjSFZE_4.png	117.09023427963257	0.9999868869781494
62	78.75958609580994	response	0	k		60.0	/home/egter/Projects/stimuli/pictures/S_yt-S6N5FyjSFZE_4.png	118.08023023605347	
63	78.76957702636719	picture	0		493.0	61.0	/home/egter/Projects/stimuli/pictures/n03792782_45780.JPEG	118.09022116661072	4.111119985580444
63	82.86788201332092	response	0	k		61.0	/home/egter/Projects/stimuli/pictures/n03792782_45780.JPEG	122.18852615356445	
64	82.88069701194763	picture	0		93.0	62.0	/home/egter/Projects/stimuli/pictures/S_b6-4.png	122.20134115219116	0.7847239971160889
64	83.65163016319275	response	0	k		62.0	/home/egter/Projects/stimuli/pictures/S_b6-4.png	122.97227430343628	
65	83.66542100906372	picture	0		264.0	63.0	/home/egter/Projects/stimuli/pictures/n07714571_16752.JPEG	122.98606514930725	2.210707187652588
65	85.85993313789368	response	0	k		63.0	/home/egter/Projects/stimuli/pictures/n07714571_16752.JPEG	125.1805772781372	
66	85.87612819671631	picture	0		86.0	64.0	/home/egter/Projects/stimuli/pictures/n02672831_16367.JPEG	125.19677233695984	0.7683589458465576
66	86.58465600013733	response	0	k		64.0	/home/egter/Projects/stimuli/pictures/n02672831_16367.JPEG	125.90530014038086	
67	86.64448714256287	picture	0		110.0	65.0	/home/egter/Projects/stimuli/pictures/S_pexels-c-technical-6753390.png	125.9651312828064	0.9316439628601074
67	87.54447603225708	response	0	j		65.0	/home/egter/Projects/stimuli/pictures/S_pexels-c-technical-6753390.png	126.86512017250061	
68	87.57613110542297	picture	0		542.0	66.0	/home/egter/Projects/stimuli/pictures/S_production_ID_3761571.png	126.8967752456665	4.533797979354858
68	92.0845160484314	response	0	j		66.0	/home/egter/Projects/stimuli/pictures/S_production_ID_3761571.png	131.40516018867493	
69	92.10992908477783	picture	0		182.0	67.0	/home/egter/Projects/stimuli/pictures/S_yt-16eN45838LU_255.png	131.43057322502136	1.524467945098877
69	93.61779808998108	response	0	k		67.0	/home/egter/Projects/stimuli/pictures/S_yt-16eN45838LU_255.png	132.9384422302246	
70	93.63439702987671	picture	0		100.0	68.0	/home/egter/Projects/stimuli/pictures/n03345487_3468.JPEG	132.95504117012024	0.8666520118713379
70	94.45956015586853	response	0	k		68.0	/home/egter/Projects/stimuli/pictures/n03345487_3468.JPEG	133.78020429611206	
71	94.50104904174805	picture	0		752.0	69.0	/home/egter/Projects/stimuli/pictures/n01742172_3320.JPEG	133.82169318199158	6.268327951431274
71	100.75953221321106	response	0	k		69.0	/home/egter/Projects/stimuli/pictures/n01742172_3320.JPEG	140.0801763534546	
72	100.76937699317932	picture	0		679.0	70.0	/home/egter/Projects/stimuli/pictures/n03982430_935.JPEG	140.09002113342285	5.659680128097534
72	106.41776919364929	response	0	k		70.0	/home/egter/Projects/stimuli/pictures/n03982430_935.JPEG	145.73841333389282	
73	106.42905712127686	picture	0		133.0	71.0	/home/egter/Projects/stimuli/pictures/n03895866_38388.JPEG	145.74970126152039	1.1115140914916992
73	107.51945304870605	response	0	k		71.0	/home/egter/Projects/stimuli/pictures/n03895866_38388.JPEG	146.84009718894958	
74	107.54057121276855	picture	0		137.0	72.0	/home/egter/Projects/stimuli/pictures/S_pexels-cottonbro-10639398.png	146.86121535301208	1.145420789718628
74	108.67614006996155	response	0	j		72.0	/home/egter/Projects/stimuli/pictures/S_pexels-cottonbro-10639398.png	147.99678421020508	
75	108.68599200248718	picture	0		91.0	73.0	/home/egter/Projects/stimuli/pictures/S_yt-yAtHuDsadu8_102.png	148.0066361427307	0.7568871974945068
75	109.4344551563263	response	0	j		73.0	/home/egter/Projects/stimuli/pictures/S_yt-yAtHuDsadu8_102.png	148.75509929656982	
76	109.44287919998169	picture	0		141.0	74.0	/home/egter/Projects/stimuli/pictures/n01984695_30354.JPEG	148.76352334022522	1.1806449890136719
76	110.60966610908508	response	0	j		74.0	/home/egter/Projects/stimuli/pictures/n01984695_30354.JPEG	149.9303102493286	
77	110.62352418899536	picture	0		241.0	75.0	/home/egter/Projects/stimuli/pictures/n03201208_10518.JPEG	149.9441683292389	2.0138959884643555
77	112.62611722946167	response	0	k		75.0	/home/egter/Projects/stimuli/pictures/n03201208_10518.JPEG	151.9467613697052	
78	112.63742017745972	picture	0		371.0	76.0	/home/egter/Projects/stimuli/pictures/S_yt-iKe-0YNR5Eo_164.png	151.95806431770325	3.0901570320129395
78	115.7177381515503	response	0	j		76.0	/home/egter/Projects/stimuli/pictures/S_yt-iKe-0YNR5Eo_164.png	155.03838229179382	
79	115.72757720947266	picture	0		698.0	77.0	/home/egter/Projects/stimuli/pictures/n04335435_21811.JPEG	155.0482213497162	5.819403886795044
79	121.52783203125	response	0	k		77.0	/home/egter/Projects/stimuli/pictures/n04335435_21811.JPEG	160.84847617149353	
80	121.5469810962677	picture	0		1530.0	78.0	/home/egter/Projects/stimuli/pictures/n01795545_9695.JPEG	160.86762523651123	12.753942966461182
80	134.2843370437622	response	0	k		78.0	/home/egter/Projects/stimuli/pictures/n01795545_9695.JPEG	173.60498118400574	
81	134.30092406272888	picture	0		78.0	79.0	/home/egter/Projects/stimuli/pictures/n07684084_4317.JPEG	173.6215682029724	0.6557230949401855
81	134.93588399887085	response	0	k		79.0	/home/egter/Projects/stimuli/pictures/n07684084_4317.JPEG	174.25652813911438	
82	134.95664715766907	picture	0		64.0	80.0	/home/egter/Projects/stimuli/pictures/n04523525_12402.JPEG	174.2772912979126	0.5419619083404541
82	135.48442816734314	response	0	k		80.0	/home/egter/Projects/stimuli/pictures/n04523525_12402.JPEG	174.80507230758667	
83	135.49860906600952	picture	0		105.0	81.0	/home/egter/Projects/stimuli/pictures/S_ILSVRC2015_train_00067005.png	174.81925320625305	0.8815779685974121
83	136.36766815185547	response	0	k		81.0	/home/egter/Projects/stimuli/pictures/S_ILSVRC2015_train_00067005.png	175.688312292099	
84	136.38018703460693	picture	0		70.0	82.0	/home/egter/Projects/stimuli/pictures/n03658185_5552.JPEG	175.70083117485046	0.5833339691162109
84	136.9442901611328	response	0	k		82.0	/home/egter/Projects/stimuli/pictures/n03658185_5552.JPEG	176.26493430137634	
85	136.96352100372314	picture	0		57.0	83.0	/home/egter/Projects/stimuli/pictures/n03717622_12175.JPEG	176.28416514396667	0.479093074798584
85	137.43427515029907	response	0	k		83.0	/home/egter/Projects/stimuli/pictures/n03717622_12175.JPEG	176.7549192905426	
86	137.44261407852173	picture	0		108.0	84.0	/home/egter/Projects/stimuli/pictures/R_S_yt-WASlRH1zA8c_175.png	176.76325821876526	0.9028010368347168
86	138.33433318138123	response	0	k		84.0	/home/egter/Projects/stimuli/pictures/R_S_yt-WASlRH1zA8c_175.png	177.65497732162476	
87	138.34541511535645	picture	0		189.0	85.0	/home/egter/Projects/stimuli/pictures/n01945685_22020.JPEG	177.66605925559998	1.5764548778533936
87	139.90930604934692	response	0	j		85.0	/home/egter/Projects/stimuli/pictures/n01945685_22020.JPEG	179.22995018959045	
88	139.92186999320984	picture	0		277.0	86.0	/home/egter/Projects/stimuli/pictures/S_ILSVRC2015_train_00355000.png	179.24251413345337	2.305471181869507
88	142.21767115592957	response	0	j		86.0	/home/egter/Projects/stimuli/pictures/S_ILSVRC2015_train_00355000.png	181.5383152961731	
89	142.22734117507935	picture	0		75.0	87.0	/home/egter/Projects/stimuli/pictures/R_S_yt--DXkjCUzThU_413.png	181.54798531532288	0.6249828338623047
89	142.84266805648804	response	0	j		87.0	/home/egter/Projects/stimuli/pictures/R_S_yt--DXkjCUzThU_413.png	182.16331219673157	
90	142.85232400894165	picture	0		71.0	88.0	/home/egter/Projects/stimuli/pictures/S_yt-fymgyhmYnMI_76.png	182.17296814918518	0.5902330875396729
90	143.4343011379242	response	0	j		88.0	/home/egter/Projects/stimuli/pictures/S_yt-fymgyhmYnMI_76.png	182.75494527816772	
91	143.44255709648132	picture	0		255.0	89.0	/home/egter/Projects/stimuli/pictures/R_S_yt-fymgyhmYnMI_76.png	182.76320123672485	2.133302927017212
91	145.55261516571045	response	0	j		89.0	/home/egter/Projects/stimuli/pictures/R_S_yt-fymgyhmYnMI_76.png	184.87325930595398	
92	145.57586002349854	picture	0		120.0	90.0	/home/egter/Projects/stimuli/pictures/n03743016_20856.JPEG	184.89650416374207	1.0056171417236328
92	146.56084322929382	response	0	k		90.0	/home/egter/Projects/stimuli/pictures/n03743016_20856.JPEG	185.88148736953735	
93	146.58147716522217	picture	0		154.0	91.0	/home/egter/Projects/stimuli/pictures/n01632777_20321.JPEG	185.9021213054657	1.2916419506072998
93	147.85931301116943	response	0	k		91.0	/home/egter/Projects/stimuli/pictures/n01632777_20321.JPEG	187.17995715141296	
94	147.87311911582947	picture	0		69.0	92.0	/home/egter/Projects/stimuli/pictures/n04037443_45810.JPEG	187.193763256073	0.5833749771118164
94	148.442636013031	response	0	k		92.0	/home/egter/Projects/stimuli/pictures/n04037443_45810.JPEG	187.76328015327454	
95	148.45649409294128	picture	0		91.0	93.0	/home/egter/Projects/stimuli/pictures/S_ILSVRC2015_train_00165008.png	187.77713823318481	0.7638270854949951
95	149.20928502082825	response	0	j		93.0	/home/egter/Projects/stimuli/pictures/S_ILSVRC2015_train_00165008.png	188.52992916107178	
96	149.22032117843628	picture	0		261.0	94.0	/home/egter/Projects/stimuli/pictures/n01632458_761.JPEG	188.5409653186798	2.1735939979553223
96	151.37753319740295	response	0	k		94.0	/home/egter/Projects/stimuli/pictures/n01632458_761.JPEG	190.69817733764648	
97	151.3939151763916	picture	0		110.0	95.0	/home/egter/Projects/stimuli/pictures/n02090721_2952.JPEG	190.71455931663513	0.9166579246520996
97	152.30094504356384	response	0	k		95.0	/home/egter/Projects/stimuli/pictures/n02090721_2952.JPEG	191.62158918380737	
98	152.3105731010437	picture	0		400.0	96.0	/home/egter/Projects/stimuli/pictures/n04613696_7610.JPEG	191.63121724128723	3.3332901000976562
98	155.63420414924622	response	0	k		96.0	/home/egter/Projects/stimuli/pictures/n04613696_7610.JPEG	194.95484828948975	
99	155.64386320114136	picture	0		95.0	97.0	/home/egter/Projects/stimuli/pictures/S_production_ID_3943334.png	194.9645073413849	0.7917718887329102
99	156.42593812942505	response	0	j		97.0	/home/egter/Projects/stimuli/pictures/S_production_ID_3943334.png	195.74658226966858	
100	156.43563508987427	picture	0		101.0	98.0	/home/egter/Projects/stimuli/pictures/R_S_ILSVRC2015_train_00446000.png	195.7562792301178	0.8401260375976562
100	157.26759600639343	response	0	j		98.0	/home/egter/Projects/stimuli/pictures/R_S_ILSVRC2015_train_00446000.png	196.58824014663696	
101	157.27576112747192	picture	0		405.0	99.0	/home/egter/Projects/stimuli/pictures/n03967562_1345.JPEG	196.59640526771545	3.3750319480895996
101	160.64254212379456	response	0	k		99.0	/home/egter/Projects/stimuli/pictures/n03967562_1345.JPEG	199.9631862640381	
102	160.65079307556152	picture	0		292.0	100.0	/home/egter/Projects/stimuli/pictures/n03220513_27871.JPEG	199.97143721580505	2.43743896484375
102	163.0758991241455	response	0	k		100.0	/home/egter/Projects/stimuli/pictures/n03220513_27871.JPEG	202.39654326438904	
103	163.08823204040527	picture	0		156.0	101.0	/home/egter/Projects/stimuli/pictures/S_ILSVRC2015_train_00155004.png	202.4088761806488	1.2985761165618896
103	164.3758521080017	response	0	j		101.0	/home/egter/Projects/stimuli/pictures/S_ILSVRC2015_train_00155004.png	203.69649624824524	
104	164.38680815696716	picture	0		205.0	102.0	/home/egter/Projects/stimuli/pictures/n02492035_1105.JPEG	203.7074522972107	1.7083508968353271
104	166.0842411518097	response	0	k		102.0	/home/egter/Projects/stimuli/pictures/n02492035_1105.JPEG	205.40488529205322	
105	166.0951590538025	picture	0		100.0	103.0	/home/egter/Projects/stimuli/pictures/R_S_yt-4oT-2eGhmUo_102.png	205.41580319404602	0.8333420753479004
105	166.9175581932068	response	0	j		103.0	/home/egter/Projects/stimuli/pictures/R_S_yt-4oT-2eGhmUo_102.png	206.23820233345032	
106	166.9285011291504	picture	0		224.0	104.0	/home/egter/Projects/stimuli/pictures/n04467665_9941.JPEG	206.24914526939392	1.8682169914245605
106	168.7773551940918	response	0	k		104.0	/home/egter/Projects/stimuli/pictures/n04467665_9941.JPEG	208.09799933433533	
107	168.79671812057495	picture	0		675.0	105.0	/home/egter/Projects/stimuli/pictures/S_wc-Mf8SQpviaD6D_17.png	208.11736226081848	5.631695985794067
107	174.41747307777405	response	0	j		105.0	/home/egter/Projects/stimuli/pictures/S_wc-Mf8SQpviaD6D_17.png	213.73811721801758	
108	174.42841410636902	picture	0		185.0	106.0	/home/egter/Projects/stimuli/pictures/R_S_ILSVRC2015_train_00165008.png	213.74905824661255	1.541675090789795
108	175.9523630142212	response	0	j		106.0	/home/egter/Projects/stimuli/pictures/R_S_ILSVRC2015_train_00165008.png	215.27300715446472	
109	175.9700891971588	picture	0		105.0	107.0	/home/egter/Projects/stimuli/pictures/n03272010_549.JPEG	215.29073333740234	0.8749849796295166
109	176.8341681957245	response	0	k		107.0	/home/egter/Projects/stimuli/pictures/n03272010_549.JPEG	216.15481233596802	
110	176.84507417678833	picture	0		101.0	108.0	/home/egter/Projects/stimuli/pictures/n02106662_50778.JPEG	216.16571831703186	0.8476400375366211
110	177.6758120059967	response	0	k		108.0	/home/egter/Projects/stimuli/pictures/n02106662_50778.JPEG	216.99645614624023	
111	177.69271421432495	picture	0		80.0	109.0	/home/egter/Projects/stimuli/pictures/n02814533_211.JPEG	217.01335835456848	0.6663258075714111
111	178.35079407691956	response	0	k		109.0	/home/egter/Projects/stimuli/pictures/n02814533_211.JPEG	217.6714382171631	
112	178.35904002189636	picture	0		111.0	110.0	/home/egter/Projects/stimuli/pictures/n04264628_27969.JPEG	217.6796841621399	0.93044114112854
112	179.27579307556152	response	0	k		110.0	/home/egter/Projects/stimuli/pictures/n04264628_27969.JPEG	218.59643721580505	
113	179.2894811630249	picture	0		1516.0	111.0	/home/egter/Projects/stimuli/pictures/R_S_yt-qF-69JWJX_Y_55.png	218.61012530326843	12.63874101638794
113	191.91745018959045	response	0	j		111.0	/home/egter/Projects/stimuli/pictures/R_S_yt-qF-69JWJX_Y_55.png	231.23809432983398	
114	191.92822217941284	picture	0		117.0	112.0	/home/egter/Projects/stimuli/pictures/ILSVRC2012_val_00024356.JPEG	231.24886631965637	0.972355842590332
114	192.8923900127411	response	0	k		112.0	/home/egter/Projects/stimuli/pictures/ILSVRC2012_val_00024356.JPEG	232.21303415298462	
115	192.90057802200317	picture	0		432.0	113.0	/home/egter/Projects/stimuli/pictures/n02264363_15035.JPEG	232.2212221622467	3.6084370613098145
115	196.49234008789062	response	0	k		113.0	/home/egter/Projects/stimuli/pictures/n02264363_15035.JPEG	235.81298422813416	
116	196.509015083313	picture	0		135.0	114.0	/home/egter/Projects/stimuli/pictures/n07590611_8720.JPEG	235.82965922355652	1.127526044845581
116	197.62571716308594	response	0	k		114.0	/home/egter/Projects/stimuli/pictures/n07590611_8720.JPEG	236.94636130332947	
117	197.63654112815857	picture	0		325.0	115.0	/home/egter/Projects/stimuli/pictures/n01795545_14217.JPEG	236.9571852684021	2.708271026611328
117	200.3340561389923	response	0	k		115.0	/home/egter/Projects/stimuli/pictures/n01795545_14217.JPEG	239.65470027923584	
118	200.3448121547699	picture	0		82.0	116.0	/home/egter/Projects/stimuli/pictures/R_S_yt-WTxvvlP8xnw_113.png	239.66545629501343	0.680772066116333
118	201.0174012184143	response	0	j		116.0	/home/egter/Projects/stimuli/pictures/R_S_yt-WTxvvlP8xnw_113.png	240.33804535865784	
119	201.02558422088623	picture	0		85.0	117.0	/home/egter/Projects/stimuli/pictures/ILSVRC2012_test_00005577.JPEG	240.34622836112976	0.7083289623260498
119	201.72573518753052	response	0	k		117.0	/home/egter/Projects/stimuli/pictures/ILSVRC2012_test_00005577.JPEG	241.04637932777405	
120	201.73391318321228	picture	0		97.0	118.0	/home/egter/Projects/stimuli/pictures/n07714990_14158.JPEG	241.0545573234558	0.8122649192810059
120	202.53403520584106	response	0	k		118.0	/home/egter/Projects/stimuli/pictures/n07714990_14158.JPEG	241.8546793460846	
121	202.5461781024933	picture	0		86.0	119.0	/home/egter/Projects/stimuli/pictures/n07613480_7102.JPEG	241.86682224273682	0.7153079509735107
121	203.2508521080017	response	0	k		119.0	/home/egter/Projects/stimuli/pictures/n07613480_7102.JPEG	242.57149624824524	
122	203.2614860534668	picture	0		84.0	120.0	/home/egter/Projects/stimuli/pictures/R_S_yt-nMWqezngycw_10.png	242.58213019371033	0.7013640403747559
122	203.950679063797	response	0	k		120.0	/home/egter/Projects/stimuli/pictures/R_S_yt-nMWqezngycw_10.png	243.27132320404053	
123	203.96285009384155	picture	0		83.0	121.0	/home/egter/Projects/stimuli/pictures/n01630670_163.JPEG	243.28349423408508	0.6877279281616211
123	204.64236402511597	response	0	k		121.0	/home/egter/Projects/stimuli/pictures/n01630670_163.JPEG	243.9630081653595	
124	204.65057802200317	picture	0		112.0	122.0	/home/egter/Projects/stimuli/pictures/S_ILSVRC2015_train_00569003.png	243.9712221622467	0.9372401237487793
124	205.56895899772644	response	0	j		122.0	/home/egter/Projects/stimuli/pictures/S_ILSVRC2015_train_00569003.png	244.88960313796997	
125	205.58781814575195	picture	0		112.0	123.0	/home/egter/Projects/stimuli/pictures/R_S_yt-nYi_FfCjepk_74.png	244.90846228599548	0.9305970668792725
125	206.50901412963867	response	0	k		123.0	/home/egter/Projects/stimuli/pictures/R_S_yt-nYi_FfCjepk_74.png	245.8296582698822	
126	206.51841521263123	picture	0		115.0	124.0	/home/egter/Projects/stimuli/pictures/S_yt-Iu2ZPHLqXuY_32.png	245.83905935287476	0.9583008289337158
126	207.46739101409912	response	0	j		124.0	/home/egter/Projects/stimuli/pictures/S_yt-Iu2ZPHLqXuY_32.png	246.78803515434265	
127	207.47671604156494	picture	0		114.0	125.0	/home/egter/Projects/stimuli/pictures/S_production_ID_5049072.png	246.79736018180847	0.9513661861419678
127	208.41739320755005	response	0	j		125.0	/home/egter/Projects/stimuli/pictures/S_production_ID_5049072.png	247.73803734779358	
128	208.4280822277069	picture	0		99.0	126.0	/home/egter/Projects/stimuli/pictures/n04389033_44942.JPEG	247.74872636795044	0.8265368938446045
128	209.24234008789062	response	0	k		126.0	/home/egter/Projects/stimuli/pictures/n04389033_44942.JPEG	248.56298422813416	
129	209.2546191215515	picture	0		110.0	127.0	/home/egter/Projects/stimuli/pictures/R_S_yt-9EnchawJ3pA_90.png	248.57526326179504	0.9164960384368896
129	210.1590371131897	response	0	j		127.0	/home/egter/Projects/stimuli/pictures/R_S_yt-9EnchawJ3pA_90.png	249.47968125343323	
130	210.1711151599884	picture	0		203.0	128.0	/home/egter/Projects/stimuli/pictures/S_yt-lgRDsLvpqNY_11.png	249.49175930023193	1.6877620220184326
130	211.85085701942444	response	0	k		128.0	/home/egter/Projects/stimuli/pictures/S_yt-lgRDsLvpqNY_11.png	251.17150115966797	
131	211.85887718200684	picture	0		130.0	129.0	/home/egter/Projects/stimuli/pictures/S_yt-nYi_FfCjepk_74.png	251.17952132225037	1.0917198657989502
131	212.93517518043518	response	0	j		129.0	/home/egter/Projects/stimuli/pictures/S_yt-nYi_FfCjepk_74.png	252.2558193206787	
132	212.9505970478058	picture	0		98.0	130.0	/home/egter/Projects/stimuli/pictures/n02606052_2701.JPEG	252.27124118804932	0.8177180290222168
132	213.7589521408081	response	0	k		130.0	/home/egter/Projects/stimuli/pictures/n02606052_2701.JPEG	253.07959628105164	
133	213.768315076828	picture	0		125.0	131.0	/home/egter/Projects/stimuli/pictures/n04599235_4899.JPEG	253.08895921707153	1.041661024093628
133	214.8006410598755	response	0	k		131.0	/home/egter/Projects/stimuli/pictures/n04599235_4899.JPEG	254.12128520011902	
134	214.80997610092163	picture	0		512.0	132.0	/home/egter/Projects/stimuli/pictures/S_yt-uE9XoCLZlFo_1.png	254.13062024116516	4.270888090133667
134	219.06734108924866	response	0	k		132.0	/home/egter/Projects/stimuli/pictures/S_yt-uE9XoCLZlFo_1.png	258.3879852294922	
135	219.0808641910553	picture	0		238.0	133.0	/home/egter/Projects/stimuli/pictures/n04347754_35095.JPEG	258.4015083312988	1.994675874710083
135	221.0600872039795	response	0	k		133.0	/home/egter/Projects/stimuli/pictures/n04347754_35095.JPEG	260.380731344223	
136	221.07554006576538	picture	0		314.0	134.0	/home/egter/Projects/stimuli/pictures/S_yt-EApB0DJ3ECg_119.png	260.3961842060089	2.616575002670288
136	223.6839702129364	response	0	j		134.0	/home/egter/Projects/stimuli/pictures/S_yt-EApB0DJ3ECg_119.png	263.00461435317993	
137	223.69211506843567	picture	0		178.0	135.0	/home/egter/Projects/stimuli/pictures/ILSVRC2012_test_00067400.JPEG	263.0127592086792	1.4859249591827393
137	225.1672921180725	response	0	k		135.0	/home/egter/Projects/stimuli/pictures/ILSVRC2012_test_00067400.JPEG	264.48793625831604	
138	225.1780400276184	picture	0		109.0	136.0	/home/egter/Projects/stimuli/pictures/R_S_5Bc466bkeA0_35.png	264.49868416786194	0.9096260070800781
138	226.07560205459595	response	0	j		136.0	/home/egter/Projects/stimuli/pictures/R_S_5Bc466bkeA0_35.png	265.3962461948395	
139	226.0876660346985	picture	0		621.0	137.0	/home/egter/Projects/stimuli/pictures/n13054560_2007.JPEG	265.408310174942	5.173536062240601
139	231.25057411193848	response	0	k		137.0	/home/egter/Projects/stimuli/pictures/n13054560_2007.JPEG	270.571218252182	
140	231.2612020969391	picture	0		109.0	138.0	/home/egter/Projects/stimuli/pictures/n02701002_839.JPEG	270.5818462371826	0.9097459316253662
140	232.1588900089264	response	0	k		138.0	/home/egter/Projects/stimuli/pictures/n02701002_839.JPEG	271.4795341491699	
141	232.17094802856445	picture	0		156.0	139.0	/home/egter/Projects/stimuli/pictures/n09332890_10045.JPEG	271.491592168808	1.2985939979553223
141	233.45887112617493	response	0	k		139.0	/home/egter/Projects/stimuli/pictures/n09332890_10045.JPEG	272.77951526641846	
142	233.46954202651978	picture	0		179.0	140.0	/home/egter/Projects/stimuli/pictures/n07697537_15816.JPEG	272.7901861667633	1.4930410385131836
142	234.95058917999268	response	0	k		140.0	/home/egter/Projects/stimuli/pictures/n07697537_15816.JPEG	274.2712333202362	
143	234.96258306503296	picture	0		162.0	141.0	/home/egter/Projects/stimuli/pictures/R_S_yt-xCh0LI9VKeI_28.png	274.2832272052765	1.3471879959106445
143	236.3005452156067	response	0	k		141.0	/home/egter/Projects/stimuli/pictures/R_S_yt-xCh0LI9VKeI_28.png	275.6211893558502	
144	236.3097710609436	picture	0		613.0	142.0	/home/egter/Projects/stimuli/pictures/S_yt-7SsfOM7v3ns_56.png	275.63041520118713	5.111079931259155
144	241.40200209617615	response	0	k		142.0	/home/egter/Projects/stimuli/pictures/S_yt-7SsfOM7v3ns_56.png	280.7226462364197	
145	241.42085099220276	picture	0		410.0	143.0	/home/egter/Projects/stimuli/pictures/S_yt-MTo50ReVNmU_2.png	280.7414951324463	3.4166510105133057
145	244.82548213005066	response	0	k		143.0	/home/egter/Projects/stimuli/pictures/S_yt-MTo50ReVNmU_2.png	284.1461262702942	
146	244.83750200271606	picture	0		94.0	144.0	/home/egter/Projects/stimuli/pictures/S_pexels-cottonbro-6789228.png	284.1581461429596	0.7847821712493896
146	245.60199904441833	response	0	j		144.0	/home/egter/Projects/stimuli/pictures/S_pexels-cottonbro-6789228.png	284.92264318466187	
147	245.62228417396545	picture	0		901.0	145.0	/home/egter/Projects/stimuli/pictures/R_S_comp_N013_C004_PS_v01_SDR_PS_20180925_F1970F7193_SDR_2K_AVC.png	284.942928314209	7.513756990432739
147	253.12542819976807	response	0	k		145.0	/home/egter/Projects/stimuli/pictures/R_S_comp_N013_C004_PS_v01_SDR_PS_20180925_F1970F7193_SDR_2K_AVC.png	292.4460723400116	
148	253.1360411643982	picture	0		439.0	146.0	/home/egter/Projects/stimuli/pictures/S_ILSVRC2015_train_00768002.png	292.4566853046417	3.6643588542938232
148	256.78381419181824	response	0	k		146.0	/home/egter/Projects/stimuli/pictures/S_ILSVRC2015_train_00768002.png	296.10445833206177	
149	256.800400018692	picture	0		137.0	147.0	/home/egter/Projects/stimuli/pictures/n03670208_1969.JPEG	296.12104415893555	1.1416370868682861
149	257.93380522727966	response	0	k		147.0	/home/egter/Projects/stimuli/pictures/n03670208_1969.JPEG	297.2544493675232	
150	257.9420371055603	picture	0		696.0	148.0	/home/egter/Projects/stimuli/pictures/R_S_yt-C0INfEJ4Awk_53.png	297.26268124580383	5.804992914199829
150	263.73372316360474	response	0	j		148.0	/home/egter/Projects/stimuli/pictures/R_S_yt-C0INfEJ4Awk_53.png	303.05436730384827	
151	263.74703001976013	picture	0		108.0	149.0	/home/egter/Projects/stimuli/pictures/R_S_yt-2kPrGwVmRfE_169.png	303.06767416000366	0.9032421112060547
151	264.64213013648987	response	0	j		149.0	/home/egter/Projects/stimuli/pictures/R_S_yt-2kPrGwVmRfE_169.png	303.9627742767334	
152	264.6502721309662	picture	0		123.0	150.0	/home/egter/Projects/stimuli/pictures/S_flickr-hapanine-31880782705_22.png	303.9709162712097	1.0272948741912842
152	265.66713309288025	response	0	j		150.0	/home/egter/Projects/stimuli/pictures/S_flickr-hapanine-31880782705_22.png	304.9877772331238	
153	265.67756700515747	picture	0		86.0	151.0	/home/egter/Projects/stimuli/pictures/n03670208_1625.JPEG	304.998211145401	0.7152750492095947
153	266.3837900161743	response	0	k		151.0	/home/egter/Projects/stimuli/pictures/n03670208_1625.JPEG	305.70443415641785	
154	266.39284205436707	picture	0		96.0	152.0	/home/egter/Projects/stimuli/pictures/S_production_ID_4122384.png	305.7134861946106	0.7991440296173096
154	267.183758020401	response	0	j		152.0	/home/egter/Projects/stimuli/pictures/S_production_ID_4122384.png	306.50440216064453	
155	267.1919860839844	picture	0		290.0	153.0	/home/egter/Projects/stimuli/pictures/R_S_yt-Uv0dt_-fWJU_40.png	306.5126302242279	2.425002098083496
155	269.6012601852417	response	0	j		153.0	/home/egter/Projects/stimuli/pictures/R_S_yt-Uv0dt_-fWJU_40.png	308.92190432548523	
156	269.61698818206787	picture	0		105.0	154.0	/home/egter/Projects/stimuli/pictures/S_yt-2i53vKte7SA_117.png	308.9376323223114	0.8801100254058838
156	270.48377418518066	response	0	j		154.0	/home/egter/Projects/stimuli/pictures/S_yt-2i53vKte7SA_117.png	309.8044183254242	
157	270.49709820747375	picture	0		105.0	155.0	/home/egter/Projects/stimuli/pictures/ILSVRC2012_test_00019267.JPEG	309.8177423477173	0.8818638324737549
157	271.367094039917	response	0	k		155.0	/home/egter/Projects/stimuli/pictures/ILSVRC2012_test_00019267.JPEG	310.6877381801605	
158	271.3789620399475	picture	0		139.0	156.0	/home/egter/Projects/stimuli/pictures/S_yt-GBqXIFjZf8w_28.png	310.69960618019104	1.1596829891204834
158	272.52543210983276	response	0	k		156.0	/home/egter/Projects/stimuli/pictures/S_yt-GBqXIFjZf8w_28.png	311.8460762500763	
159	272.538645029068	picture	0		87.0	157.0	/home/egter/Projects/stimuli/pictures/R_S_yt-ZzC953ahaxs_195.png	311.8592891693115	0.7291111946105957
159	273.25881600379944	response	0	j		157.0	/home/egter/Projects/stimuli/pictures/R_S_yt-ZzC953ahaxs_195.png	312.57946014404297	
160	273.2677562236786	picture	0		88.0	158.0	/home/egter/Projects/stimuli/pictures/R_S_yt-bOgChEHiroI_20.png	312.5884003639221	0.7361719608306885
160	273.98528504371643	response	0	j		158.0	/home/egter/Projects/stimuli/pictures/R_S_yt-bOgChEHiroI_20.png	313.30592918395996	
161	274.0039281845093	picture	0		65.0	159.0	/home/egter/Projects/stimuli/pictures/S_wc-jujp1kJRHrkJ_54.png	313.3245723247528	0.5416548252105713
161	274.53373408317566	response	0	j		159.0	/home/egter/Projects/stimuli/pictures/S_wc-jujp1kJRHrkJ_54.png	313.8543782234192	
162	274.54558300971985	picture	0		85.0	160.0	/home/egter/Projects/stimuli/pictures/n03781244_819.JPEG	313.8662271499634	0.7082910537719727
162	275.2420790195465	response	0	k		160.0	/home/egter/Projects/stimuli/pictures/n03781244_819.JPEG	314.56272315979004	
163	275.2538740634918	picture	0		105.0	161.0	/home/egter/Projects/stimuli/pictures/S_yt--xKSTYy9mcA_54.png	314.57451820373535	0.8749420642852783
163	276.1171021461487	response	0	j		161.0	/home/egter/Projects/stimuli/pictures/S_yt--xKSTYy9mcA_54.png	315.4377462863922	
164	276.1288161277771	picture	0		104.0	162.0	/home/egter/Projects/stimuli/pictures/S_yt-CEQnXB0LxQU_278.png	315.44946026802063	0.8750729560852051
164	276.9853072166443	response	0	k		162.0	/home/egter/Projects/stimuli/pictures/S_yt-CEQnXB0LxQU_278.png	316.3059513568878	
165	277.0038890838623	picture	0		78.0	163.0	/home/egter/Projects/stimuli/pictures/n03956157_8039.JPEG	316.32453322410583	0.6547219753265381
165	277.64285612106323	response	0	k		163.0	/home/egter/Projects/stimuli/pictures/n03956157_8039.JPEG	316.96350026130676	
166	277.65861105918884	picture	0		86.0	164.0	/home/egter/Projects/stimuli/pictures/n01675722_8185.JPEG	316.9792551994324	0.7202761173248291
166	278.3671622276306	response	0	k		164.0	/home/egter/Projects/stimuli/pictures/n01675722_8185.JPEG	317.68780636787415	
167	278.3788871765137	picture	0		93.0	165.0	/home/egter/Projects/stimuli/pictures/R_S_yt-FsylDeYfcxU_24.png	317.6995313167572	0.779749870300293
167	279.1428270339966	response	0	j		165.0	/home/egter/Projects/stimuli/pictures/R_S_yt-FsylDeYfcxU_24.png	318.4634711742401	
168	279.15863704681396	picture	0		141.0	166.0	/home/egter/Projects/stimuli/pictures/n01630670_8298.JPEG	318.4792811870575	1.1784789562225342
168	280.32539415359497	response	0	k		166.0	/home/egter/Projects/stimuli/pictures/n01630670_8298.JPEG	319.6460382938385	
169	280.3371160030365	picture	0		655.0	167.0	/home/egter/Projects/stimuli/pictures/ILSVRC2012_test_00005312.JPEG	319.65776014328003	5.458306074142456
169	285.78365111351013	response	0	k		167.0	/home/egter/Projects/stimuli/pictures/ILSVRC2012_test_00005312.JPEG	325.10429525375366	
170	285.79542207717896	picture	0		83.0	168.0	/home/egter/Projects/stimuli/pictures/R_S_production_ID_3943334.png	325.1160662174225	0.6945400238037109
170	286.47605419158936	response	0	j		168.0	/home/egter/Projects/stimuli/pictures/R_S_production_ID_3943334.png	325.7966983318329	
171	286.48996210098267	picture	0		112.0	169.0	/home/egter/Projects/stimuli/pictures/S_yt-WFiEvQuOqqg_18.png	325.8106062412262	0.937424898147583
171	287.4102280139923	response	0	k		169.0	/home/egter/Projects/stimuli/pictures/S_yt-WFiEvQuOqqg_18.png	326.73087215423584	
172	287.42738699913025	picture	0		84.0	170.0	/home/egter/Projects/stimuli/pictures/n02814533_13155.JPEG	326.7480311393738	0.7013421058654785
172	288.1169970035553	response	0	k		170.0	/home/egter/Projects/stimuli/pictures/n02814533_13155.JPEG	327.4376411437988	
173	288.1287291049957	picture	0		97.0	171.0	/home/egter/Projects/stimuli/pictures/n01728572_1217.JPEG	327.44937324523926	0.8055410385131836
173	288.9253160953522	response	0	k		171.0	/home/egter/Projects/stimuli/pictures/n01728572_1217.JPEG	328.2459602355957	
174	288.9342701435089	picture	0		848.0	172.0	/home/egter/Projects/stimuli/pictures/S_comp_A105_C002_v06_SDR_FINAL_25062018_SDR_2K_AVC.png	328.25491428375244	7.069365978240967
174	295.99199509620667	response	0	j		172.0	/home/egter/Projects/stimuli/pictures/S_comp_A105_C002_v06_SDR_FINAL_25062018_SDR_2K_AVC.png	335.3126392364502	
175	296.0036361217499	picture	0		129.0	173.0	/home/egter/Projects/stimuli/pictures/R_S_Y004_C015_SDR_2K_AVC.png	335.3242802619934	1.0764799118041992
175	297.06692600250244	response	0	j		173.0	/home/egter/Projects/stimuli/pictures/R_S_Y004_C015_SDR_2K_AVC.png	336.387570142746	
176	297.0801160335541	picture	0		177.0	174.0	/home/egter/Projects/stimuli/pictures/n04613696_9337.JPEG	336.4007601737976	1.4791710376739502
176	298.5502781867981	response	0	k		174.0	/home/egter/Projects/stimuli/pictures/n04613696_9337.JPEG	337.8709223270416	
177	298.559287071228	picture	0		80.0	175.0	/home/egter/Projects/stimuli/pictures/S_yt-TbdZrcl_Jso_5.png	337.87993121147156	0.6665439605712891
177	299.2102360725403	response	0	j		175.0	/home/egter/Projects/stimuli/pictures/S_yt-TbdZrcl_Jso_5.png	338.5308802127838	
178	299.2258310317993	picture	0		114.0	176.0	/home/egter/Projects/stimuli/pictures/n03929660_247.JPEG	338.54647517204285	0.9576911926269531
178	300.166983127594	response	0	k		176.0	/home/egter/Projects/stimuli/pictures/n03929660_247.JPEG	339.4876272678375	
179	300.18352222442627	picture	0		162.0	177.0	/home/egter/Projects/stimuli/pictures/S_yt--I4Ggi6-QOE_23.png	339.5041663646698	1.3548099994659424
179	301.52531599998474	response	0	j		177.0	/home/egter/Projects/stimuli/pictures/S_yt--I4Ggi6-QOE_23.png	340.84596014022827	
180	301.5383322238922	picture	0		105.0	178.0	/home/egter/Projects/stimuli/pictures/S_yt-11VGDAOVEag_8.png	340.85897636413574	0.8819339275360107
180	302.4018511772156	response	0	j		178.0	/home/egter/Projects/stimuli/pictures/S_yt-11VGDAOVEag_8.png	341.7224953174591	
181	302.4202661514282	picture	0		98.0	179.0	/home/egter/Projects/stimuli/pictures/R_S_yt-3NMDWrZr1Z4_255.png	341.74091029167175	0.8195300102233887
181	303.2184522151947	response	0	j		179.0	/home/egter/Projects/stimuli/pictures/R_S_yt-3NMDWrZr1Z4_255.png	342.53909635543823	
182	303.2397961616516	stim	0		877.0			342.56044030189514	7.312363862991333
182	305.04208612442017	response	0	j				344.3627302646637	
182	305.49191403388977	response	0	k				344.8125581741333	
182	305.97520303726196	response	0	j				345.2958471775055	
182	310.54187512397766	response	0	space				349.8625192642212	
