trial_nr	onset	event_type	phase	response	nr_frames	picture_index	picture_file	onset_abs	duration
0	0.009189128875732422	stim	0		219.0			27.732556104660034	1.8237640857696533
0	1.8226871490478516	response	0	space				29.546054124832153	
2	1.8329532146453857	picture	0		1113.0	0.0	/home/egter/Projects/stimuli/pictures/n11879895_4241.JPEG	29.556320190429688	9.281138896942139
2	11.090684175491333	response	0	k		0.0	/home/egter/Projects/stimuli/pictures/n11879895_4241.JPEG	38.814051151275635	
2	11.090761184692383	response	0	j		0.0	/home/egter/Projects/stimuli/pictures/n11879895_4241.JPEG	38.814128160476685	
3	11.114092111587524	picture	0		132.0	1.0	/home/egter/Projects/stimuli/pictures/S_pexels-pavel-danilyuk-8057714.png	38.837459087371826	1.1007308959960938
3	12.205907106399536	response	0	k		1.0	/home/egter/Projects/stimuli/pictures/S_pexels-pavel-danilyuk-8057714.png	39.92927408218384	
4	12.214823007583618	picture	0		73.0	2.0	/home/egter/Projects/stimuli/pictures/S_yt-VjTiMtjdjTw_103.png	39.93818998336792	0.6110811233520508
4	12.81420111656189	response	0	j		2.0	/home/egter/Projects/stimuli/pictures/S_yt-VjTiMtjdjTw_103.png	40.53756809234619	
5	12.825904130935669	picture	0		111.0	3.0	/home/egter/Projects/stimuli/pictures/S_Person_Going_Through_A_Bible.png	40.54927110671997	0.9236838817596436
5	13.73914098739624	response	0	j		3.0	/home/egter/Projects/stimuli/pictures/S_Person_Going_Through_A_Bible.png	41.46250796318054	
6	13.749588012695312	picture	0		101.0	4.0	/home/egter/Projects/stimuli/pictures/R_S_ILSVRC2015_train_00569006.png	41.472954988479614	0.8401930332183838
6	14.580812215805054	response	0	j		4.0	/home/egter/Projects/stimuli/pictures/R_S_ILSVRC2015_train_00569006.png	42.304179191589355	
7	14.589781045913696	picture	0		75.0	5.0	/home/egter/Projects/stimuli/pictures/n03868242_2756.JPEG	42.313148021698	0.6249971389770508
7	15.205883979797363	response	0	k		5.0	/home/egter/Projects/stimuli/pictures/n03868242_2756.JPEG	42.929250955581665	
8	15.214778184890747	picture	0		90.0	6.0	/home/egter/Projects/stimuli/pictures/n01496331_34544.JPEG	42.93814516067505	0.7500009536743164
8	15.955856084823608	response	0	k		6.0	/home/egter/Projects/stimuli/pictures/n01496331_34544.JPEG	43.67922306060791	
9	15.964779138565063	picture	0		80.0	7.0	/home/egter/Projects/stimuli/pictures/n03877845_14850.JPEG	43.688146114349365	0.6666369438171387
9	16.622526168823242	response	0	k		7.0	/home/egter/Projects/stimuli/pictures/n03877845_14850.JPEG	44.345893144607544	
10	16.631416082382202	picture	0		128.0	8.0	/home/egter/Projects/stimuli/pictures/n02033041_6321.JPEG	44.354783058166504	1.0694539546966553
10	17.689208984375	response	0	j		8.0	/home/egter/Projects/stimuli/pictures/n02033041_6321.JPEG	45.4125759601593	
11	17.700870037078857	picture	0		84.0	9.0	/home/egter/Projects/stimuli/pictures/R_S_yt-2SVpSaBAxsw_78.png	45.42423701286316	0.7013959884643555
11	18.38918399810791	response	0	j		9.0	/home/egter/Projects/stimuli/pictures/R_S_yt-2SVpSaBAxsw_78.png	46.11255097389221	
12	18.402266025543213	picture	0		205.0	10.0	/home/egter/Projects/stimuli/pictures/S_yt-thmqgEV-sYY_91.png	46.125633001327515	1.7083101272583008
12	20.09146499633789	response	0	j		10.0	/home/egter/Projects/stimuli/pictures/S_yt-thmqgEV-sYY_91.png	47.81483197212219	
13	20.110576152801514	picture	0		137.0	11.0	/home/egter/Projects/stimuli/pictures/R_S_yt--5ls65Ue1RA_52.png	47.833943128585815	1.1389260292053223
13	21.23917508125305	response	0	j		11.0	/home/egter/Projects/stimuli/pictures/R_S_yt--5ls65Ue1RA_52.png	48.96254205703735	
14	21.249502182006836	picture	0		93.0	12.0	/home/egter/Projects/stimuli/pictures/S_yt-bmGWhOCsvJo_128.png	48.97286915779114	0.7778089046478271
14	22.014212131500244	response	0	j		12.0	/home/egter/Projects/stimuli/pictures/S_yt-bmGWhOCsvJo_128.png	49.737579107284546	
15	22.027311086654663	picture	0		76.0	13.0	/home/egter/Projects/stimuli/pictures/n04429376_41755.JPEG	49.750678062438965	0.6320700645446777
15	22.647476196289062	response	0	k		13.0	/home/egter/Projects/stimuli/pictures/n04429376_41755.JPEG	50.370843172073364	
16	22.65938115119934	picture	0		85.0	14.0	/home/egter/Projects/stimuli/pictures/S_pexels-c-technical-6753390.png	50.38274812698364	0.7081499099731445
16	23.355849981307983	response	0	j		14.0	/home/egter/Projects/stimuli/pictures/S_pexels-c-technical-6753390.png	51.079216957092285	
17	23.367531061172485	picture	0		225.0	15.0	/home/egter/Projects/stimuli/pictures/S_yt-SvCjZ59S9wk_211.png	51.09089803695679	1.8750801086425781
17	25.230863094329834	response	0	j		15.0	/home/egter/Projects/stimuli/pictures/S_yt-SvCjZ59S9wk_211.png	52.954230070114136	
18	25.242611169815063	picture	0		96.0	16.0	/home/egter/Projects/stimuli/pictures/n02879718_3621.JPEG	52.965978145599365	0.7985270023345947
18	26.03083610534668	response	0	k		16.0	/home/egter/Projects/stimuli/pictures/n02879718_3621.JPEG	53.75420308113098	
19	26.041138172149658	picture	0		93.0	17.0	/home/egter/Projects/stimuli/pictures/n02106382_2012.JPEG	53.76450514793396	0.7777538299560547
19	26.80583906173706	response	0	k		17.0	/home/egter/Projects/stimuli/pictures/n02106382_2012.JPEG	54.52920603752136	
20	26.818892002105713	picture	0		181.0	18.0	/home/egter/Projects/stimuli/pictures/R_S_bing-www_dailymotion_com_video_x64hzm7_8.png	54.542258977890015	1.5139172077178955
20	28.31575918197632	response	0	k		18.0	/home/egter/Projects/stimuli/pictures/R_S_bing-www_dailymotion_com_video_x64hzm7_8.png	56.03912615776062	
21	28.33280920982361	picture	0		147.0	19.0	/home/egter/Projects/stimuli/pictures/R_S_yt-O6FS0xnF0CU_106.png	56.05617618560791	1.229172945022583
21	29.548108100891113	response	0	k		19.0	/home/egter/Projects/stimuli/pictures/R_S_yt-O6FS0xnF0CU_106.png	57.271475076675415	
22	29.56198215484619	picture	0		68.0	20.0	/home/egter/Projects/stimuli/pictures/n02493509_9694.JPEG	57.28534913063049	0.5693869590759277
22	30.115637063980103	response	0	k		20.0	/home/egter/Projects/stimuli/pictures/n02493509_9694.JPEG	57.839004039764404	
23	30.13136911392212	picture	0		109.0	21.0	/home/egter/Projects/stimuli/pictures/R_S_yt-8fQ9LaF8U10_382.png	57.85473608970642	0.9097070693969727
23	31.03081703186035	response	0	j		21.0	/home/egter/Projects/stimuli/pictures/R_S_yt-8fQ9LaF8U10_382.png	58.75418400764465	
24	31.041076183319092	picture	0		135.0	22.0	/home/egter/Projects/stimuli/pictures/S_yt-VxTTEZNJWjs_110.png	58.764443159103394	1.1250159740447998
24	32.155840158462524	response	0	j		22.0	/home/egter/Projects/stimuli/pictures/S_yt-VxTTEZNJWjs_110.png	59.879207134246826	
25	32.16609215736389	picture	0		102.0	23.0	/home/egter/Projects/stimuli/pictures/R_S_production_ID_4707837.png	59.88945913314819	0.8541250228881836
25	33.0064799785614	response	0	j		23.0	/home/egter/Projects/stimuli/pictures/R_S_production_ID_4707837.png	60.7298469543457	
26	33.020217180252075	picture	0		266.0	24.0	/home/egter/Projects/stimuli/pictures/n01518878_6758.JPEG	60.74358415603638	2.2222249507904053
26	35.23082900047302	response	0	j		24.0	/home/egter/Projects/stimuli/pictures/n01518878_6758.JPEG	62.954195976257324	
27	35.24244213104248	picture	0		145.0	25.0	/home/egter/Projects/stimuli/pictures/n02056570_8073.JPEG	62.96580910682678	1.2083158493041992
27	36.43914198875427	response	0	k		25.0	/home/egter/Projects/stimuli/pictures/n02056570_8073.JPEG	64.16250896453857	
28	36.45075798034668	picture	0		97.0	26.0	/home/egter/Projects/stimuli/pictures/n03777568_2439.JPEG	64.17412495613098	0.8055381774902344
28	37.24747014045715	response	0	k		26.0	/home/egter/Projects/stimuli/pictures/n03777568_2439.JPEG	64.97083711624146	
29	37.256296157836914	picture	0		182.0	27.0	/home/egter/Projects/stimuli/pictures/S_yt-hqp-Y6vAMeo_80.png	64.97966313362122	1.5208358764648438
29	38.76413607597351	response	0	k		27.0	/home/egter/Projects/stimuli/pictures/S_yt-hqp-Y6vAMeo_80.png	66.48750305175781	
30	38.77713203430176	picture	0		236.0	28.0	/home/egter/Projects/stimuli/pictures/R_S_yt-ZBk_XFb5PGo_25.png	66.50049901008606	1.9652249813079834
30	40.724000215530396	response	0	k		28.0	/home/egter/Projects/stimuli/pictures/R_S_yt-ZBk_XFb5PGo_25.png	68.4473671913147	
31	40.74235701560974	picture	0		288.0	29.0	/home/egter/Projects/stimuli/pictures/R_S_yt-s2tZ2NIQrxg_175.png	68.46572399139404	2.402745008468628
31	43.12401509284973	response	0	j		29.0	/home/egter/Projects/stimuli/pictures/R_S_yt-s2tZ2NIQrxg_175.png	70.84738206863403	
32	43.14510202407837	picture	0		531.0	30.0	/home/egter/Projects/stimuli/pictures/S_pexels-c-technical-6809719.png	70.86846899986267	4.430548191070557
32	47.564040184020996	response	0	j		30.0	/home/egter/Projects/stimuli/pictures/S_pexels-c-technical-6809719.png	75.2874071598053	
33	47.575650215148926	picture	0		112.0	31.0	/home/egter/Projects/stimuli/pictures/S_yt-8vm83GUgYxI_1.png	75.29901719093323	0.9305248260498047
33	48.497358083724976	response	0	j		31.0	/home/egter/Projects/stimuli/pictures/S_yt-8vm83GUgYxI_1.png	76.22072505950928	
34	48.50617504119873	picture	0		281.0	32.0	/home/egter/Projects/stimuli/pictures/n03930630_7392.JPEG	76.22954201698303	2.3494789600372314
34	50.839595079422	response	0	k		32.0	/home/egter/Projects/stimuli/pictures/n03930630_7392.JPEG	78.5629620552063	
35	50.85565400123596	picture	0		360.0	33.0	/home/egter/Projects/stimuli/pictures/S_yt-tDRPy0Rj6AU_141.png	78.57902097702026	3.0046792030334473
35	53.84739303588867	response	0	k		33.0	/home/egter/Projects/stimuli/pictures/S_yt-tDRPy0Rj6AU_141.png	81.57076001167297	
36	53.86033320426941	picture	0		95.0	34.0	/home/egter/Projects/stimuli/pictures/n02120079_9615.JPEG	81.58370018005371	0.7916278839111328
36	54.639137983322144	response	0	k		34.0	/home/egter/Projects/stimuli/pictures/n02120079_9615.JPEG	82.36250495910645	
37	54.65196108818054	picture	0		107.0	35.0	/home/egter/Projects/stimuli/pictures/R_S_yt-4r-oovk9JWg_85.png	82.37532806396484	0.8888809680938721
37	55.52388405799866	response	0	j		35.0	/home/egter/Projects/stimuli/pictures/R_S_yt-4r-oovk9JWg_85.png	83.24725103378296	
38	55.540842056274414	picture	0		235.0	36.0	/home/egter/Projects/stimuli/pictures/n02607072_1442.JPEG	83.26420903205872	1.958306074142456
38	57.48904204368591	response	0	k		36.0	/home/egter/Projects/stimuli/pictures/n02607072_1442.JPEG	85.21240901947021	
39	57.49914813041687	picture	0		193.0	37.0	/home/egter/Projects/stimuli/pictures/S_ILSVRC2015_train_00339000.png	85.22251510620117	1.6111180782318115
39	59.0909960269928	response	0	k		37.0	/home/egter/Projects/stimuli/pictures/S_ILSVRC2015_train_00339000.png	86.8143630027771	
40	59.11026620864868	picture	0		91.0	38.0	/home/egter/Projects/stimuli/pictures/S_yt-urJgH6tpfkU_204.png	86.83363318443298	0.7569189071655273
40	59.855722188949585	response	0	j		38.0	/home/egter/Projects/stimuli/pictures/S_yt-urJgH6tpfkU_204.png	87.57908916473389	
41	59.86718511581421	picture	0		190.0	39.0	/home/egter/Projects/stimuli/pictures/n01980166_2403.JPEG	87.59055209159851	1.5833818912506104
41	61.43901801109314	response	0	k		39.0	/home/egter/Projects/stimuli/pictures/n01980166_2403.JPEG	89.16238498687744	
42	61.45056700706482	picture	0		285.0	40.0	/home/egter/Projects/stimuli/pictures/ILSVRC2012_test_00027595.JPEG	89.17393398284912	2.3800430297851562
42	63.81402802467346	response	0	k		40.0	/home/egter/Projects/stimuli/pictures/ILSVRC2012_test_00027595.JPEG	91.53739500045776	
43	63.830610036849976	picture	0		118.0	41.0	/home/egter/Projects/stimuli/pictures/R_S_yt-RVoC19C420Y_27.png	91.55397701263428	0.9879250526428223
43	64.80568099021912	response	0	j		41.0	/home/egter/Projects/stimuli/pictures/R_S_yt-RVoC19C420Y_27.png	92.52904796600342	
44	64.8185350894928	picture	0		428.0	42.0	/home/egter/Projects/stimuli/pictures/R_S_yt-Ojy5TMPX8_Q_165.png	92.5419020652771	3.5624589920043945
44	68.37231016159058	response	0	k		42.0	/home/egter/Projects/stimuli/pictures/R_S_yt-Ojy5TMPX8_Q_165.png	96.09567713737488	
45	68.38099408149719	picture	0		148.0	43.0	/home/egter/Projects/stimuli/pictures/R_S_yt-EApB0DJ3ECg_119.png	96.1043610572815	1.2430639266967773
45	69.61402416229248	response	0	k		43.0	/home/egter/Projects/stimuli/pictures/R_S_yt-EApB0DJ3ECg_119.png	97.33739113807678	
46	69.62405800819397	picture	0		83.0	44.0	/home/egter/Projects/stimuli/pictures/S_yt-s2tZ2NIQrxg_175.png	97.34742498397827	0.6944541931152344
46	70.29919505119324	response	0	j		44.0	/home/egter/Projects/stimuli/pictures/S_yt-s2tZ2NIQrxg_175.png	98.02256202697754	
47	70.3185122013092	picture	0		198.0	45.0	/home/egter/Projects/stimuli/pictures/S_yt-OLDm2slgfA4_3.png	98.0418791770935	1.6457099914550781
47	71.95565605163574	response	0	k		45.0	/home/egter/Projects/stimuli/pictures/S_yt-OLDm2slgfA4_3.png	99.67902302742004	
48	71.96422219276428	picture	0		252.0	46.0	/home/egter/Projects/stimuli/pictures/n04604644_8422.JPEG	99.68758916854858	2.1042139530181885
48	74.05562019348145	response	0	k		46.0	/home/egter/Projects/stimuli/pictures/n04604644_8422.JPEG	101.77898716926575	
49	74.06843614578247	picture	0		96.0	47.0	/home/egter/Projects/stimuli/pictures/n04238763_4190.JPEG	101.79180312156677	0.7985708713531494
49	74.85561013221741	response	0	k		47.0	/home/egter/Projects/stimuli/pictures/n04238763_4190.JPEG	102.57897710800171	
50	74.86700701713562	picture	0		86.0	48.0	/home/egter/Projects/stimuli/pictures/R_S_production_ID_3923518.png	102.59037399291992	0.7152681350708008
50	75.57224917411804	response	0	j		48.0	/home/egter/Projects/stimuli/pictures/R_S_production_ID_3923518.png	103.29561614990234	
51	75.58227515220642	picture	0		111.0	49.0	/home/egter/Projects/stimuli/pictures/S_production_ID_4269182.png	103.30564212799072	0.9236209392547607
51	76.4972710609436	response	0	j		49.0	/home/egter/Projects/stimuli/pictures/S_production_ID_4269182.png	104.2206380367279	
52	76.50589609146118	picture	0		111.0	50.0	/home/egter/Projects/stimuli/pictures/n02815834_676.JPEG	104.22926306724548	0.930588960647583
52	77.42266511917114	response	0	k		50.0	/home/egter/Projects/stimuli/pictures/n02815834_676.JPEG	105.14603209495544	
53	77.43648505210876	picture	0		217.0	51.0	/home/egter/Projects/stimuli/pictures/S_AwPBuHsoXV0_25.png	105.15985202789307	1.8124439716339111
53	79.23889708518982	response	0	j		51.0	/home/egter/Projects/stimuli/pictures/S_AwPBuHsoXV0_25.png	106.96226406097412	
54	79.24892902374268	picture	0		69.0	52.0	/home/egter/Projects/stimuli/pictures/R_S_yt-d5jBQ-LOW2I_17.png	106.97229599952698	0.5764191150665283
54	79.81389904022217	response	0	k		52.0	/home/egter/Projects/stimuli/pictures/R_S_yt-d5jBQ-LOW2I_17.png	107.53726601600647	
55	79.8253481388092	picture	0		100.0	53.0	/home/egter/Projects/stimuli/pictures/n03089624_71576.JPEG	107.5487151145935	0.8332529067993164
55	80.64722204208374	response	0	k		53.0	/home/egter/Projects/stimuli/pictures/n03089624_71576.JPEG	108.37058901786804	
56	80.65860104560852	picture	0		114.0	54.0	/home/egter/Projects/stimuli/pictures/n01608432_16923.JPEG	108.38196802139282	0.951409101486206
56	81.5973482131958	response	0	k		54.0	/home/egter/Projects/stimuli/pictures/n01608432_16923.JPEG	109.3207151889801	
57	81.61001014709473	picture	0		93.0	55.0	/home/egter/Projects/stimuli/pictures/R_S_pexels-koolshooters-7689098.png	109.33337712287903	0.7708909511566162
57	82.3722550868988	response	0	j		55.0	/home/egter/Projects/stimuli/pictures/R_S_pexels-koolshooters-7689098.png	110.0956220626831	
58	82.38090109825134	picture	0		149.0	56.0	/home/egter/Projects/stimuli/pictures/S_comp_A013_C012_0122D6_CC_v01_SDR_PS_FINAL_20180709_SDR_2K_AVC.png	110.10426807403564	1.2429730892181396
58	83.61385297775269	response	0	j		56.0	/home/egter/Projects/stimuli/pictures/S_comp_A013_C012_0122D6_CC_v01_SDR_PS_FINAL_20180709_SDR_2K_AVC.png	111.33721995353699	
59	83.62387418746948	picture	0		118.0	57.0	/home/egter/Projects/stimuli/pictures/R_S_yt-3ohvpS42xug_184.png	111.34724116325378	0.9860978126525879
59	84.5972490310669	response	0	j		57.0	/home/egter/Projects/stimuli/pictures/R_S_yt-3ohvpS42xug_184.png	112.3206160068512	
60	84.60997200012207	picture	0		122.0	58.0	/home/egter/Projects/stimuli/pictures/S_ILSVRC2015_train_00524001.png	112.33333897590637	1.013843059539795
60	85.61394309997559	response	0	j		58.0	/home/egter/Projects/stimuli/pictures/S_ILSVRC2015_train_00524001.png	113.33731007575989	
61	85.62381505966187	picture	0		88.0	59.0	/home/egter/Projects/stimuli/pictures/S_TYs22gin-EU_57.png	113.34718203544617	0.7361359596252441
61	86.34734106063843	response	0	j		59.0	/home/egter/Projects/stimuli/pictures/S_TYs22gin-EU_57.png	114.07070803642273	
62	86.35995101928711	picture	0		101.0	60.0	/home/egter/Projects/stimuli/pictures/n03372029_76011.JPEG	114.08331799507141	0.8402421474456787
62	87.18890500068665	response	0	k		60.0	/home/egter/Projects/stimuli/pictures/n03372029_76011.JPEG	114.91227197647095	
63	87.20019316673279	picture	0		112.0	61.0	/home/egter/Projects/stimuli/pictures/n02058221_501.JPEG	114.92356014251709	0.9305729866027832
63	88.11542415618896	response	0	k		61.0	/home/egter/Projects/stimuli/pictures/n02058221_501.JPEG	115.83879113197327	
64	88.13076615333557	picture	0		67.0	62.0	/home/egter/Projects/stimuli/pictures/R_S_production_ID_4540332.png	115.85413312911987	0.5625100135803223
64	88.68051600456238	response	0	j		62.0	/home/egter/Projects/stimuli/pictures/R_S_production_ID_4540332.png	116.40388298034668	
65	88.6932761669159	picture	0		277.0	63.0	/home/egter/Projects/stimuli/pictures/ILSVRC2012_test_00087953.JPEG	116.4166431427002	2.3055338859558105
65	90.9888961315155	response	0	j		63.0	/home/egter/Projects/stimuli/pictures/ILSVRC2012_test_00087953.JPEG	118.7122631072998	
66	90.9988100528717	picture	0		114.0	64.0	/home/egter/Projects/stimuli/pictures/n03095699_3680.JPEG	118.722177028656	0.9513821601867676
66	91.93202304840088	response	0	k		64.0	/home/egter/Projects/stimuli/pictures/n03095699_3680.JPEG	119.65539002418518	
67	91.95019221305847	picture	0		90.0	65.0	/home/egter/Projects/stimuli/pictures/S_yt-sa-EMUqvd5w_245.png	119.67355918884277	0.7500448226928711
67	92.68889904022217	response	0	j		65.0	/home/egter/Projects/stimuli/pictures/S_yt-sa-EMUqvd5w_245.png	120.41226601600647	
68	92.70023703575134	picture	0		173.0	66.0	/home/egter/Projects/stimuli/pictures/n01734418_12759.JPEG	120.42360401153564	1.4443910121917725
68	94.12365198135376	response	0	k		66.0	/home/egter/Projects/stimuli/pictures/n01734418_12759.JPEG	121.84701895713806	
69	94.14462804794312	picture	0		74.0	67.0	/home/egter/Projects/stimuli/pictures/n03393912_16047.JPEG	121.86799502372742	0.6251029968261719
69	94.74874019622803	response	0	k		67.0	/home/egter/Projects/stimuli/pictures/n03393912_16047.JPEG	122.47210717201233	
70	94.76973104476929	picture	0		93.0	68.0	/home/egter/Projects/stimuli/pictures/S_production_ID_4325516.png	122.49309802055359	0.7776610851287842
70	95.53206205368042	response	0	j		68.0	/home/egter/Projects/stimuli/pictures/S_production_ID_4325516.png	123.25542902946472	
71	95.54739212989807	picture	0		138.0	69.0	/home/egter/Projects/stimuli/pictures/n04335435_7886.JPEG	123.27075910568237	1.1527719497680664
71	96.68886613845825	response	0	j		69.0	/home/egter/Projects/stimuli/pictures/n04335435_7886.JPEG	124.41223311424255	
72	96.70016407966614	picture	0		174.0	70.0	/home/egter/Projects/stimuli/pictures/n03661043_8263.JPEG	124.42353105545044	1.4513959884643555
72	98.13234519958496	response	0	k		70.0	/home/egter/Projects/stimuli/pictures/n03661043_8263.JPEG	125.85571217536926	
73	98.1515600681305	picture	0		113.0	71.0	/home/egter/Projects/stimuli/pictures/n02807133_1832.JPEG	125.8749270439148	0.9374730587005615
73	99.08054113388062	response	0	k		71.0	/home/egter/Projects/stimuli/pictures/n02807133_1832.JPEG	126.80390810966492	
74	99.08903312683105	picture	0		86.0	72.0	/home/egter/Projects/stimuli/pictures/S_yt-UPgF4YAHBQY_33.png	126.81240010261536	0.7221958637237549
74	99.797523021698	response	0	j		72.0	/home/egter/Projects/stimuli/pictures/S_yt-UPgF4YAHBQY_33.png	127.5208899974823	
75	99.81122899055481	picture	0		159.0	73.0	/home/egter/Projects/stimuli/pictures/n03982430_519.JPEG	127.53459596633911	1.3333961963653564
75	101.1237211227417	response	0	k		73.0	/home/egter/Projects/stimuli/pictures/n03982430_519.JPEG	128.847088098526	
76	101.14462518692017	picture	0		94.0	74.0	/home/egter/Projects/stimuli/pictures/n02361337_10879.JPEG	128.86799216270447	0.7916059494018555
76	101.92246198654175	response	0	k		74.0	/home/egter/Projects/stimuli/pictures/n02361337_10879.JPEG	129.64582896232605	
77	101.93623113632202	picture	0		125.0	75.0	/home/egter/Projects/stimuli/pictures/S_yt-kNZUFy3cbjQ_9.png	129.65959811210632	1.0486009120941162
77	102.97218418121338	response	0	k		75.0	/home/egter/Projects/stimuli/pictures/S_yt-kNZUFy3cbjQ_9.png	130.69555115699768	
78	102.98483204841614	picture	0		69.0	76.0	/home/egter/Projects/stimuli/pictures/n01737021_211.JPEG	130.70819902420044	0.5764210224151611
78	103.54032802581787	response	0	j		76.0	/home/egter/Projects/stimuli/pictures/n01737021_211.JPEG	131.26369500160217	
79	103.5612530708313	picture	0		72.0	77.0	/home/egter/Projects/stimuli/pictures/n01773797_9344.JPEG	131.2846200466156	0.6040959358215332
79	104.14866304397583	response	0	k		77.0	/home/egter/Projects/stimuli/pictures/n01773797_9344.JPEG	131.87203001976013	
80	104.16534900665283	picture	0		83.0	78.0	/home/egter/Projects/stimuli/pictures/n02701002_839.JPEG	131.88871598243713	0.6944680213928223
80	104.84715819358826	response	0	k		78.0	/home/egter/Projects/stimuli/pictures/n02701002_839.JPEG	132.57052516937256	
81	104.85981702804565	picture	0		91.0	79.0	/home/egter/Projects/stimuli/pictures/n01739381_6638.JPEG	132.58318400382996	0.7569441795349121
81	105.60553216934204	response	0	k		79.0	/home/egter/Projects/stimuli/pictures/n01739381_6638.JPEG	133.32889914512634	
82	105.61676120758057	picture	0		65.0	80.0	/home/egter/Projects/stimuli/pictures/S_yt-vHS71x_O6sY_90.png	133.34012818336487	0.5416438579559326
82	106.14029002189636	response	0	j		80.0	/home/egter/Projects/stimuli/pictures/S_yt-vHS71x_O6sY_90.png	133.86365699768066	
83	106.1584050655365	picture	0		79.0	81.0	/home/egter/Projects/stimuli/pictures/S_production_ID_3923518.png	133.8817720413208	0.6597390174865723
83	106.80551505088806	response	0	j		81.0	/home/egter/Projects/stimuli/pictures/S_production_ID_3923518.png	134.52888202667236	
84	106.81814408302307	picture	0		91.0	82.0	/home/egter/Projects/stimuli/pictures/n01924916_385.JPEG	134.54151105880737	0.7568669319152832
84	107.56379818916321	response	0	k		82.0	/home/egter/Projects/stimuli/pictures/n01924916_385.JPEG	135.2871651649475	
85	107.57501101493835	picture	0		106.0	83.0	/home/egter/Projects/stimuli/pictures/n03443371_2723.JPEG	135.29837799072266	0.8819701671600342
85	108.44713807106018	response	0	k		83.0	/home/egter/Projects/stimuli/pictures/n03443371_2723.JPEG	136.17050504684448	
86	108.45698118209839	picture	0		154.0	84.0	/home/egter/Projects/stimuli/pictures/ILSVRC2012_test_00004276.JPEG	136.1803481578827	1.284693956375122
86	109.72366714477539	response	0	k		84.0	/home/egter/Projects/stimuli/pictures/ILSVRC2012_test_00004276.JPEG	137.4470341205597	
87	109.74167513847351	picture	0		131.0	85.0	/home/egter/Projects/stimuli/pictures/n01729322_17162.JPEG	137.4650421142578	1.0902910232543945
87	110.82212901115417	response	0	k		85.0	/home/egter/Projects/stimuli/pictures/n01729322_17162.JPEG	138.54549598693848	
88	110.8319661617279	picture	0		213.0	86.0	/home/egter/Projects/stimuli/pictures/n02009912_5068.JPEG	138.5553331375122	1.7777650356292725
88	112.5971109867096	response	0	k		86.0	/home/egter/Projects/stimuli/pictures/n02009912_5068.JPEG	140.3204779624939	
89	112.60973119735718	picture	0		664.0	87.0	/home/egter/Projects/stimuli/pictures/n04311174_8810.JPEG	140.33309817314148	5.541606903076172
89	118.13214206695557	response	0	k		87.0	/home/egter/Projects/stimuli/pictures/n04311174_8810.JPEG	145.85550904273987	
90	118.15133810043335	picture	0		87.0	88.0	/home/egter/Projects/stimuli/pictures/n03344393_318.JPEG	145.87470507621765	0.7291159629821777
90	118.87208318710327	response	0	k		88.0	/home/egter/Projects/stimuli/pictures/n03344393_318.JPEG	146.59545016288757	
91	118.88045406341553	picture	0		285.0	89.0	/home/egter/Projects/stimuli/pictures/R_S_wc-8bTJmWfuVyJ4_8.png	146.60382103919983	2.3749871253967285
91	121.24707198143005	response	0	k		89.0	/home/egter/Projects/stimuli/pictures/R_S_wc-8bTJmWfuVyJ4_8.png	148.97043895721436	
92	121.25544118881226	picture	0		92.0	90.0	/home/egter/Projects/stimuli/pictures/n02106382_2808.JPEG	148.97880816459656	0.7748098373413086
92	122.01372814178467	response	0	k		90.0	/home/egter/Projects/stimuli/pictures/n02106382_2808.JPEG	149.73709511756897	
93	122.03025102615356	picture	0		239.0	91.0	/home/egter/Projects/stimuli/pictures/n04252225_2912.JPEG	149.75361800193787	2.000012159347534
93	124.01375317573547	response	0	k		91.0	/home/egter/Projects/stimuli/pictures/n04252225_2912.JPEG	151.73712015151978	
94	124.0302631855011	picture	0		405.0	92.0	/home/egter/Projects/stimuli/pictures/S_4_D1iUb87uE_15.png	151.7536301612854	3.378067970275879
94	127.39704203605652	response	0	k		92.0	/home/egter/Projects/stimuli/pictures/S_4_D1iUb87uE_15.png	155.12040901184082	
95	127.40833115577698	picture	0		123.0	93.0	/home/egter/Projects/stimuli/pictures/S_yt--5ls65Ue1RA_52.png	155.13169813156128	1.0276029109954834
95	128.4221920967102	response	0	j		93.0	/home/egter/Projects/stimuli/pictures/S_yt--5ls65Ue1RA_52.png	156.1455590724945	
96	128.43593406677246	picture	0		411.0	94.0	/home/egter/Projects/stimuli/pictures/n02119022_10946.JPEG	156.15930104255676	3.430527925491333
96	131.85532116889954	response	0	k		94.0	/home/egter/Projects/stimuli/pictures/n02119022_10946.JPEG	159.57868814468384	
97	131.8664619922638	picture	0		135.0	95.0	/home/egter/Projects/stimuli/pictures/n01914609_165.JPEG	159.5898289680481	1.1249980926513672
97	132.97372007369995	response	0	k		95.0	/home/egter/Projects/stimuli/pictures/n01914609_165.JPEG	160.69708704948425	
98	132.99146008491516	picture	0		125.0	96.0	/home/egter/Projects/stimuli/pictures/S_yt-GOgS--rzmKQ_51.png	160.71482706069946	1.0416550636291504
98	134.02199602127075	response	0	j		96.0	/home/egter/Projects/stimuli/pictures/S_yt-GOgS--rzmKQ_51.png	161.74536299705505	
99	134.0331151485443	picture	0		234.0	97.0	/home/egter/Projects/stimuli/pictures/R_S_yt-QxNuo4ojvz4_420.png	161.7564821243286	1.9514269828796387
99	135.9720151424408	response	0	k		97.0	/home/egter/Projects/stimuli/pictures/R_S_yt-QxNuo4ojvz4_420.png	163.6953821182251	
100	135.98454213142395	picture	0		100.0	98.0	/home/egter/Projects/stimuli/pictures/S_yt-lADkWM79teI_18.png	163.70790910720825	0.8333158493041992
100	136.80530714988708	response	0	j		98.0	/home/egter/Projects/stimuli/pictures/S_yt-lADkWM79teI_18.png	164.5286741256714	
101	136.81785798072815	picture	0		95.0	99.0	/home/egter/Projects/stimuli/pictures/R_S_yt-_Hnr82bYGEQ_103.png	164.54122495651245	0.7916290760040283
101	137.59698510169983	response	0	j		99.0	/home/egter/Projects/stimuli/pictures/R_S_yt-_Hnr82bYGEQ_103.png	165.32035207748413	
102	137.60948705673218	picture	0		210.0	100.0	/home/egter/Projects/stimuli/pictures/n04044716_899.JPEG	165.33285403251648	1.7499909400939941
102	139.34033703804016	response	0	k		100.0	/home/egter/Projects/stimuli/pictures/n04044716_899.JPEG	167.06370401382446	
103	139.35947799682617	picture	0		154.0	101.0	/home/egter/Projects/stimuli/pictures/R_S_video-12.png	167.08284497261047	1.2847051620483398
103	140.63037204742432	response	0	k		101.0	/home/egter/Projects/stimuli/pictures/R_S_video-12.png	168.35373902320862	
104	140.6441831588745	picture	0		109.0	102.0	/home/egter/Projects/stimuli/pictures/S_yt-83nimFMNhrM_131.png	168.3675501346588	0.911017894744873
104	141.54021310806274	response	0	k		102.0	/home/egter/Projects/stimuli/pictures/S_yt-83nimFMNhrM_131.png	169.26358008384705	
105	141.55520105361938	picture	0		261.0	103.0	/home/egter/Projects/stimuli/pictures/R_S_yt-eoASPwIAiHY_244.png	169.2785680294037	2.179245948791504
105	143.72199821472168	response	0	k		103.0	/home/egter/Projects/stimuli/pictures/R_S_yt-eoASPwIAiHY_244.png	171.44536519050598	
106	143.7344470024109	picture	0		360.0	104.0	/home/egter/Projects/stimuli/pictures/R_S_pexels-c-technical-6753390.png	171.4578139781952	2.99996018409729
106	146.7218861579895	response	0	k		104.0	/home/egter/Projects/stimuli/pictures/R_S_pexels-c-technical-6753390.png	174.4452531337738	
107	146.73440718650818	picture	0		167.0	105.0	/home/egter/Projects/stimuli/pictures/S_yt-ZzC953ahaxs_195.png	174.45777416229248	1.3888599872589111
107	148.11360812187195	response	0	k		105.0	/home/egter/Projects/stimuli/pictures/S_yt-ZzC953ahaxs_195.png	175.83697509765625	
108	148.1232671737671	picture	0		183.0	106.0	/home/egter/Projects/stimuli/pictures/R_S_pexels-mart-production-7698911_1.png	175.8466341495514	1.5277528762817383
108	149.63863611221313	response	0	j		106.0	/home/egter/Projects/stimuli/pictures/R_S_pexels-mart-production-7698911_1.png	177.36200308799744	
109	149.65102005004883	picture	0		80.0	107.0	/home/egter/Projects/stimuli/pictures/n01944390_36581.JPEG	177.37438702583313	0.6666879653930664
109	150.3053011894226	response	0	k		107.0	/home/egter/Projects/stimuli/pictures/n01944390_36581.JPEG	178.0286681652069	
110	150.3177080154419	picture	0		457.0	108.0	/home/egter/Projects/stimuli/pictures/S_yt-lzXao6Reec4_14.png	178.0410749912262	3.8055131435394287
110	154.1136350631714	response	0	k		108.0	/home/egter/Projects/stimuli/pictures/S_yt-lzXao6Reec4_14.png	181.8370020389557	
111	154.12322115898132	picture	0		192.0	109.0	/home/egter/Projects/stimuli/pictures/S_yt-eLQydFSMGCU_75.png	181.84658813476562	1.6041710376739502
111	155.71360802650452	response	0	j		109.0	/home/egter/Projects/stimuli/pictures/S_yt-eLQydFSMGCU_75.png	183.43697500228882	
112	155.72739219665527	picture	0		172.0	110.0	/home/egter/Projects/stimuli/pictures/S_yt-FLMdajcbjcg_35.png	183.45075917243958	1.437424898147583
112	157.14841318130493	response	0	j		110.0	/home/egter/Projects/stimuli/pictures/S_yt-FLMdajcbjcg_35.png	184.87178015708923	
113	157.16481709480286	picture	0		110.0	111.0	/home/egter/Projects/stimuli/pictures/S_yt-k4B_NtWn41Y_169.png	184.88818407058716	0.916701078414917
113	158.07189798355103	response	0	k		111.0	/home/egter/Projects/stimuli/pictures/S_yt-k4B_NtWn41Y_169.png	185.79526495933533	
114	158.08151817321777	picture	0		192.0	112.0	/home/egter/Projects/stimuli/pictures/S_yt-tX3slAQb9yY_13.png	185.80488514900208	1.604172945022583
114	159.67189812660217	response	0	k		112.0	/home/egter/Projects/stimuli/pictures/S_yt-tX3slAQb9yY_13.png	187.39526510238647	
115	159.68569111824036	picture	0		322.0	113.0	/home/egter/Projects/stimuli/pictures/S_video-10.png	187.40905809402466	2.687459945678711
115	162.35672307014465	response	0	j		113.0	/home/egter/Projects/stimuli/pictures/S_video-10.png	190.08009004592896	
116	162.37315106391907	picture	0		407.0	114.0	/home/egter/Projects/stimuli/pictures/S_yt-kawmL3oVw8c_2.png	190.09651803970337	3.3957841396331787
116	165.7483561038971	response	0	k		114.0	/home/egter/Projects/stimuli/pictures/S_yt-kawmL3oVw8c_2.png	193.4717230796814	
117	165.76893520355225	picture	0		260.0	115.0	/home/egter/Projects/stimuli/pictures/S_-vPHq-7BJ70_15.png	193.49230217933655	2.1735939979553223
117	167.93023014068604	response	0	k		115.0	/home/egter/Projects/stimuli/pictures/S_-vPHq-7BJ70_15.png	195.65359711647034	
118	167.94252920150757	picture	0		415.0	116.0	/home/egter/Projects/stimuli/pictures/S_production_ID_5199636.png	195.66589617729187	3.458277940750122
118	171.3816750049591	response	0	j		116.0	/home/egter/Projects/stimuli/pictures/S_production_ID_5199636.png	199.1050419807434	
119	171.4008071422577	picture	0		131.0	117.0	/home/egter/Projects/stimuli/pictures/n07590611_20876.JPEG	199.124174118042	1.090268850326538
119	172.48021006584167	response	0	j		117.0	/home/egter/Projects/stimuli/pictures/n07590611_20876.JPEG	200.20357704162598	
120	172.49107599258423	picture	0		65.0	118.0	/home/egter/Projects/stimuli/pictures/ILSVRC2012_val_00039441.JPEG	200.21444296836853	0.5416741371154785
120	173.0218210220337	response	0	k		118.0	/home/egter/Projects/stimuli/pictures/ILSVRC2012_val_00039441.JPEG	200.745187997818	
121	173.0327501296997	picture	0		125.0	119.0	/home/egter/Projects/stimuli/pictures/S_ILSVRC2015_train_00363000.png	200.756117105484	1.0416569709777832
121	174.06349420547485	response	0	k		119.0	/home/egter/Projects/stimuli/pictures/S_ILSVRC2015_train_00363000.png	201.78686118125916	
122	174.0744071006775	picture	0		148.0	120.0	/home/egter/Projects/stimuli/pictures/n09428293_16949.JPEG	201.7977740764618	1.2361469268798828
122	175.29683208465576	response	0	k		120.0	/home/egter/Projects/stimuli/pictures/n09428293_16949.JPEG	203.02019906044006	
123	175.31055402755737	picture	0		84.0	121.0	/home/egter/Projects/stimuli/pictures/n03095699_21006.JPEG	203.03392100334167	0.7083261013031006
123	176.00515604019165	response	0	k		121.0	/home/egter/Projects/stimuli/pictures/n03095699_21006.JPEG	203.72852301597595	
124	176.01888012886047	picture	0		87.0	122.0	/home/egter/Projects/stimuli/pictures/n02279972_6848.JPEG	203.74224710464478	0.7291350364685059
124	176.73852109909058	response	0	k		122.0	/home/egter/Projects/stimuli/pictures/n02279972_6848.JPEG	204.46188807487488	
125	176.74801516532898	picture	0		214.0	123.0	/home/egter/Projects/stimuli/pictures/S_yt-nA-1mD3ky2c_37.png	204.47138214111328	1.784682035446167
125	178.52185106277466	response	0	k		123.0	/home/egter/Projects/stimuli/pictures/S_yt-nA-1mD3ky2c_37.png	206.24521803855896	
126	178.53269720077515	picture	0		83.0	124.0	/home/egter/Projects/stimuli/pictures/n12998815_13883.JPEG	206.25606417655945	0.6945068836212158
126	179.2135100364685	response	0	k		124.0	/home/egter/Projects/stimuli/pictures/n12998815_13883.JPEG	206.9368770122528	
127	179.22720408439636	picture	0		179.0	125.0	/home/egter/Projects/stimuli/pictures/S_yt-GWOOQZ19-oU_331.png	206.95057106018066	1.499906063079834
127	180.7134711742401	response	0	k		125.0	/home/egter/Projects/stimuli/pictures/S_yt-GWOOQZ19-oU_331.png	208.4368381500244	
128	180.7271101474762	picture	0		107.0	126.0	/home/egter/Projects/stimuli/pictures/S_yt-zLZ4NEUf9tM_19.png	208.4504771232605	0.8958580493927002
128	181.6134970188141	response	0	k		126.0	/home/egter/Projects/stimuli/pictures/S_yt-zLZ4NEUf9tM_19.png	209.3368639945984	
129	181.6229681968689	picture	0		210.0	127.0	/home/egter/Projects/stimuli/pictures/R_S_production_ID_5020960.png	209.3463351726532	1.7499690055847168
129	183.35668206214905	response	0	k		127.0	/home/egter/Projects/stimuli/pictures/R_S_production_ID_5020960.png	211.08004903793335	
130	183.3729372024536	picture	0		264.0	128.0	/home/egter/Projects/stimuli/pictures/n04418357_5625.JPEG	211.09630417823792	2.20704984664917
130	185.556636095047	response	0	k		128.0	/home/egter/Projects/stimuli/pictures/n04418357_5625.JPEG	213.2800030708313	
131	185.57998704910278	picture	0		351.0	129.0	/home/egter/Projects/stimuli/pictures/R_S_yt-VxTTEZNJWjs_110.png	213.30335402488708	2.9333910942077637
131	188.49680018424988	response	0	k		129.0	/home/egter/Projects/stimuli/pictures/R_S_yt-VxTTEZNJWjs_110.png	216.22016716003418	
132	188.51337814331055	picture	0		208.0	130.0	/home/egter/Projects/stimuli/pictures/R_S_yt--C2DDZ7LOQA_95.png	216.23674511909485	1.741610050201416
132	190.2384331226349	response	0	k		130.0	/home/egter/Projects/stimuli/pictures/R_S_yt--C2DDZ7LOQA_95.png	217.9618000984192	
133	190.25498819351196	picture	0		310.0	131.0	/home/egter/Projects/stimuli/pictures/n02814533_88199.JPEG	217.97835516929626	2.5916810035705566
133	192.83012008666992	response	0	k		131.0	/home/egter/Projects/stimuli/pictures/n02814533_88199.JPEG	220.55348706245422	
134	192.84666919708252	picture	0		407.0	132.0	/home/egter/Projects/stimuli/pictures/S_yt-LdHRVIb4nIE_6.png	220.57003617286682	3.4000158309936523
134	196.23007798194885	response	0	k		132.0	/home/egter/Projects/stimuli/pictures/S_yt-LdHRVIb4nIE_6.png	223.95344495773315	
135	196.24668502807617	picture	0		160.0	133.0	/home/egter/Projects/stimuli/pictures/S_ILSVRC2015_train_00516000.png	223.97005200386047	1.3416471481323242
135	197.56492710113525	response	0	k		133.0	/home/egter/Projects/stimuli/pictures/S_ILSVRC2015_train_00516000.png	225.28829407691956	
136	197.5883321762085	picture	0		641.0	134.0	/home/egter/Projects/stimuli/pictures/n01755581_5019.JPEG	225.3116991519928	5.349979877471924
136	202.9217541217804	response	0	k		134.0	/home/egter/Projects/stimuli/pictures/n01755581_5019.JPEG	230.6451210975647	
137	202.93831205368042	picture	0		452.0	135.0	/home/egter/Projects/stimuli/pictures/R_S_video_inspire_uk_edinburgh_arthursseat_010.png	230.66167902946472	3.7749500274658203
137	206.69675207138062	response	0	k		135.0	/home/egter/Projects/stimuli/pictures/R_S_video_inspire_uk_edinburgh_arthursseat_010.png	234.42011904716492	
138	206.71326208114624	picture	0		304.0	136.0	/home/egter/Projects/stimuli/pictures/n02115641_15788.JPEG	234.43662905693054	2.5416901111602783
138	209.2383770942688	response	0	k		136.0	/home/egter/Projects/stimuli/pictures/n02115641_15788.JPEG	236.9617440700531	
139	209.25495219230652	picture	0		268.0	137.0	/home/egter/Projects/stimuli/pictures/R_S_yt-eF5J5Kjt6oY_23.png	236.97831916809082	2.241668939590454
139	211.480082988739	response	0	k		137.0	/home/egter/Projects/stimuli/pictures/R_S_yt-eF5J5Kjt6oY_23.png	239.20344996452332	
140	211.49662113189697	picture	0		408.0	138.0	/home/egter/Projects/stimuli/pictures/S_yt-JTVyt-eu4VI_1.png	239.21998810768127	3.4107680320739746
140	214.88840007781982	response	0	k		138.0	/home/egter/Projects/stimuli/pictures/S_yt-JTVyt-eu4VI_1.png	242.61176705360413	
141	214.90738916397095	picture	0		88.0	139.0	/home/egter/Projects/stimuli/pictures/n01871265_2136.JPEG	242.63075613975525	0.739189863204956
141	215.6300950050354	response	0	k		139.0	/home/egter/Projects/stimuli/pictures/n01871265_2136.JPEG	243.3534619808197	
142	215.6465790271759	picture	0		501.0	140.0	/home/egter/Projects/stimuli/pictures/S_yt-Rybd-sKJFz0_78.png	243.3699460029602	4.184386968612671
142	219.81336116790771	response	0	k		140.0	/home/egter/Projects/stimuli/pictures/S_yt-Rybd-sKJFz0_78.png	247.53672814369202	
143	219.83096599578857	picture	0		352.0	141.0	/home/egter/Projects/stimuli/pictures/S_yt-NLfzvAJgyJ4_120.png	247.55433297157288	2.937483072280884
143	222.75499606132507	response	0	k		141.0	/home/egter/Projects/stimuli/pictures/S_yt-NLfzvAJgyJ4_120.png	250.47836303710938	
144	222.76844906806946	picture	0		172.0	142.0	/home/egter/Projects/stimuli/pictures/R_S_yt-4sSV4iIs8gQ_55.png	250.49181604385376	1.4374940395355225
144	224.189866065979	response	0	k		142.0	/home/egter/Projects/stimuli/pictures/R_S_yt-4sSV4iIs8gQ_55.png	251.9132330417633	
145	224.20594310760498	picture	0		182.0	143.0	/home/egter/Projects/stimuli/pictures/n02825657_16832.JPEG	251.92931008338928	1.5208089351654053
145	225.71332001686096	response	0	k		143.0	/home/egter/Projects/stimuli/pictures/n02825657_16832.JPEG	253.43668699264526	
146	225.72675204277039	picture	0		130.0	144.0	/home/egter/Projects/stimuli/pictures/R_S_yt-7K5X1G7Cpls_965.png	253.4501190185547	1.0902559757232666
146	226.79812908172607	response	0	k		144.0	/home/egter/Projects/stimuli/pictures/R_S_yt-7K5X1G7Cpls_965.png	254.52149605751038	
147	226.81700801849365	picture	0		109.0	145.0	/home/egter/Projects/stimuli/pictures/n02799071_1517.JPEG	254.54037499427795	0.9097270965576172
147	227.71334409713745	response	0	k		145.0	/home/egter/Projects/stimuli/pictures/n02799071_1517.JPEG	255.43671107292175	
148	227.72673511505127	picture	0		88.0	146.0	/home/egter/Projects/stimuli/pictures/S_82eJpVKGnC0_188.png	255.45010209083557	0.7364580631256104
148	228.45489501953125	response	0	j		146.0	/home/egter/Projects/stimuli/pictures/S_82eJpVKGnC0_188.png	256.17826199531555	
149	228.46319317817688	picture	0		152.0	147.0	/home/egter/Projects/stimuli/pictures/S_video-12.png	256.1865601539612	1.2704038619995117
149	229.7215530872345	response	0	j		147.0	/home/egter/Projects/stimuli/pictures/S_video-12.png	257.4449200630188	
150	229.7335970401764	picture	0		81.0	148.0	/home/egter/Projects/stimuli/pictures/R_S_production_ID_5199636.png	257.4569640159607	0.6736681461334229
150	230.3898069858551	response	0	j		148.0	/home/egter/Projects/stimuli/pictures/R_S_production_ID_5199636.png	258.1131739616394	
151	230.40726518630981	picture	0		107.0	149.0	/home/egter/Projects/stimuli/pictures/R_S_pexels-cottonbro-6844209.png	258.1306321620941	0.8892228603363037
151	231.28828620910645	response	0	k		149.0	/home/egter/Projects/stimuli/pictures/R_S_pexels-cottonbro-6844209.png	259.01165318489075	
152	231.29648804664612	picture	0		145.0	150.0	/home/egter/Projects/stimuli/pictures/n03777568_12200.JPEG	259.0198550224304	1.2083981037139893
152	232.49658298492432	response	0	k		150.0	/home/egter/Projects/stimuli/pictures/n03777568_12200.JPEG	260.2199499607086	
153	232.5048861503601	picture	0		137.0	151.0	/home/egter/Projects/stimuli/pictures/n01742172_4010.JPEG	260.2282531261444	1.1454050540924072
153	233.63827109336853	response	0	k		151.0	/home/egter/Projects/stimuli/pictures/n01742172_4010.JPEG	261.36163806915283	
154	233.65029120445251	picture	0		278.0	152.0	/home/egter/Projects/stimuli/pictures/R_S_yt-n6aLw10f2Yw_317.png	261.3736581802368	2.312849998474121
154	235.9549160003662	response	0	k		152.0	/home/egter/Projects/stimuli/pictures/R_S_yt-n6aLw10f2Yw_317.png	263.6782829761505	
155	235.96314120292664	picture	0		170.0	153.0	/home/egter/Projects/stimuli/pictures/n01797886_25818.JPEG	263.68650817871094	1.4231898784637451
155	237.37160205841064	response	0	k		153.0	/home/egter/Projects/stimuli/pictures/n01797886_25818.JPEG	265.09496903419495	
156	237.38633108139038	picture	0		120.0	154.0	/home/egter/Projects/stimuli/pictures/n03218198_3197.JPEG	265.1096980571747	1.0069060325622559
156	238.3798999786377	response	0	k		154.0	/home/egter/Projects/stimuli/pictures/n03218198_3197.JPEG	266.103266954422	
157	238.39323711395264	picture	0		87.0	155.0	/home/egter/Projects/stimuli/pictures/n01917289_12.JPEG	266.11660408973694	0.729172945022583
157	239.1132311820984	response	0	k		155.0	/home/egter/Projects/stimuli/pictures/n01917289_12.JPEG	266.8365981578827	
158	239.12241005897522	picture	0		92.0	156.0	/home/egter/Projects/stimuli/pictures/S_yt-EApB0DJ3ECg_119.png	266.8457770347595	0.7708380222320557
158	239.87989902496338	response	0	j		156.0	/home/egter/Projects/stimuli/pictures/S_yt-EApB0DJ3ECg_119.png	267.6032660007477	
159	239.89324808120728	picture	0		195.0	157.0	/home/egter/Projects/stimuli/pictures/n13037406_3682.JPEG	267.6166150569916	1.6319260597229004
159	241.51324319839478	response	0	k		157.0	/home/egter/Projects/stimuli/pictures/n13037406_3682.JPEG	269.2366101741791	
160	241.52517414093018	picture	0		126.0	158.0	/home/egter/Projects/stimuli/pictures/R_S_ILSVRC2015_train_00572001.png	269.2485411167145	1.0486299991607666
160	242.56327319145203	response	0	k		158.0	/home/egter/Projects/stimuli/pictures/R_S_ILSVRC2015_train_00572001.png	270.2866401672363	
161	242.57380414009094	picture	0		93.0	159.0	/home/egter/Projects/stimuli/pictures/S_yt-0Zze3Ff12Ys_58.png	270.29717111587524	0.7777440547943115
161	243.3382170200348	response	0	j		159.0	/home/egter/Projects/stimuli/pictures/S_yt-0Zze3Ff12Ys_58.png	271.0615839958191	
162	243.35154819488525	picture	0		104.0	160.0	/home/egter/Projects/stimuli/pictures/n02091134_6007.JPEG	271.07491517066956	0.875067949295044
162	244.21323108673096	response	0	k		160.0	/home/egter/Projects/stimuli/pictures/n02091134_6007.JPEG	271.93659806251526	
163	244.2266161441803	picture	0		83.0	161.0	/home/egter/Projects/stimuli/pictures/R_S_yt-kawmL3oVw8c_2.png	271.9499831199646	0.6948039531707764
163	244.91320514678955	response	0	j		161.0	/home/egter/Projects/stimuli/pictures/R_S_yt-kawmL3oVw8c_2.png	272.63657212257385	
164	244.92142009735107	picture	0		89.0	162.0	/home/egter/Projects/stimuli/pictures/ILSVRC2012_test_00031454.JPEG	272.6447870731354	0.7499630451202393
164	245.65490198135376	response	0	k		162.0	/home/egter/Projects/stimuli/pictures/ILSVRC2012_test_00031454.JPEG	273.37826895713806	
165	245.6713831424713	picture	0		97.0	163.0	/home/egter/Projects/stimuli/pictures/S_yt-8RmEimCI80g_35.png	273.3947501182556	0.8120920658111572
165	246.47148513793945	response	0	j		163.0	/home/egter/Projects/stimuli/pictures/S_yt-8RmEimCI80g_35.png	274.19485211372375	
166	246.48347520828247	picture	0		87.0	164.0	/home/egter/Projects/stimuli/pictures/n03874293_8329.JPEG	274.2068421840668	0.7296128273010254
166	247.18967819213867	response	0	k		164.0	/home/egter/Projects/stimuli/pictures/n03874293_8329.JPEG	274.913045167923	
167	247.2130880355835	picture	0		291.0	165.0	/home/egter/Projects/stimuli/pictures/S_ILSVRC2015_train_00324001.png	274.9364550113678	2.433340072631836
167	249.62989020347595	response	0	k		165.0	/home/egter/Projects/stimuli/pictures/S_ILSVRC2015_train_00324001.png	277.35325717926025	
168	249.64642810821533	picture	0		128.0	166.0	/home/egter/Projects/stimuli/pictures/S_yt-t8NfuFA7OlM_26.png	277.36979508399963	1.0666260719299316
168	250.70482301712036	response	0	j		166.0	/home/egter/Projects/stimuli/pictures/S_yt-t8NfuFA7OlM_26.png	278.42818999290466	
169	250.71305418014526	picture	0		248.0	167.0	/home/egter/Projects/stimuli/pictures/ILSVRC2012_test_00000567.JPEG	278.43642115592957	2.075007915496826
169	252.7715311050415	response	0	k		167.0	/home/egter/Projects/stimuli/pictures/ILSVRC2012_test_00000567.JPEG	280.4948980808258	
170	252.7880620956421	picture	0		426.0	168.0	/home/egter/Projects/stimuli/pictures/n13054560_1076.JPEG	280.5114290714264	3.5582990646362305
170	256.32976603507996	response	0	k		168.0	/home/egter/Projects/stimuli/pictures/n13054560_1076.JPEG	284.05313301086426	
171	256.3463611602783	picture	0		100.0	169.0	/home/egter/Projects/stimuli/pictures/R_S_comp_LA_A008_C004_ALTB_ED_FROM_FLAME_RETIME_v46_SDR_PS_20180917_SDR_2K_AVC.png	284.0697281360626	0.8416669368743896
171	257.1714611053467	response	0	k		169.0	/home/egter/Projects/stimuli/pictures/R_S_comp_LA_A008_C004_ALTB_ED_FROM_FLAME_RETIME_v46_SDR_PS_20180917_SDR_2K_AVC.png	284.894828081131	
172	257.1880280971527	picture	0		159.0	170.0	/home/egter/Projects/stimuli/pictures/R_S_yt-vQGD-rJyMw4_166.png	284.911395072937	1.333400011062622
172	258.50487303733826	response	0	j		170.0	/home/egter/Projects/stimuli/pictures/R_S_yt-vQGD-rJyMw4_166.png	286.22824001312256	
173	258.52142810821533	picture	0		110.0	171.0	/home/egter/Projects/stimuli/pictures/R_S_yt-c5KPuyzO-50_4.png	286.24479508399963	0.9249730110168457
173	259.4298851490021	response	0	j		171.0	/home/egter/Projects/stimuli/pictures/R_S_yt-c5KPuyzO-50_4.png	287.1532521247864	
174	259.4464011192322	picture	0		182.0	172.0	/home/egter/Projects/stimuli/pictures/n04371774_5887.JPEG	287.1697680950165	1.5250329971313477
174	260.9548420906067	response	0	k		172.0	/home/egter/Projects/stimuli/pictures/n04371774_5887.JPEG	288.678209066391	
175	260.9714341163635	picture	0		368.0	173.0	/home/egter/Projects/stimuli/pictures/n03873416_6703.JPEG	288.6948010921478	3.07492995262146
175	264.02982115745544	response	0	k		173.0	/home/egter/Projects/stimuli/pictures/n03873416_6703.JPEG	291.75318813323975	
176	264.046364068985	picture	0		132.0	174.0	/home/egter/Projects/stimuli/pictures/n02096177_10984.JPEG	291.7697310447693	1.1083440780639648
176	265.1381711959839	response	0	k		174.0	/home/egter/Projects/stimuli/pictures/n02096177_10984.JPEG	292.8615381717682	
177	265.15470814704895	picture	0		143.0	175.0	/home/egter/Projects/stimuli/pictures/R_S_yt-hZxbKZ1WCVg_24.png	292.87807512283325	1.3425078392028809
177	266.3381390571594	response	0	k		175.0	/home/egter/Projects/stimuli/pictures/R_S_yt-hZxbKZ1WCVg_24.png	294.0615060329437	
178	266.49721598625183	picture	0		137.0	176.0	/home/egter/Projects/stimuli/pictures/R_S_production_ID_4360158.png	294.22058296203613	1.1491529941558838
178	267.62983202934265	response	0	k		176.0	/home/egter/Projects/stimuli/pictures/R_S_production_ID_4360158.png	295.35319900512695	
179	267.6463689804077	picture	0		168.0	177.0	/home/egter/Projects/stimuli/pictures/n01697457_5941.JPEG	295.369735956192	1.408344030380249
179	269.0389931201935	response	0	k		177.0	/home/egter/Projects/stimuli/pictures/n01697457_5941.JPEG	296.7623600959778	
180	269.05471301078796	picture	0		633.0	178.0	/home/egter/Projects/stimuli/pictures/R_S_yt-UPgF4YAHBQY_33.png	296.77807998657227	5.283279180526733
180	274.32143211364746	response	0	j		178.0	/home/egter/Projects/stimuli/pictures/R_S_yt-UPgF4YAHBQY_33.png	302.04479908943176	
181	274.3379921913147	picture	0		135.0	179.0	/home/egter/Projects/stimuli/pictures/n02102973_3999.JPEG	302.061359167099	1.1333668231964111
181	275.4555652141571	response	0	k		179.0	/home/egter/Projects/stimuli/pictures/n02102973_3999.JPEG	303.1789321899414	
182	275.4713590145111	stim	0		1716.0			303.1947259902954	14.303477048873901
