trial_nr	onset	event_type	phase	response	nr_frames	picture_index	picture_file	onset_abs	duration
0	0.017138004302978516	stim	0		506.0			31.19665503501892	4.2439141273498535
0	4.221724987030029	response	0	space				35.40124201774597	
2	4.261052131652832	picture	0		247.0	0.0	/home/egter/Projects/stimuli/pictures/R_S_pexels-cottonbro-6844209.png	35.440569162368774	2.1270430088043213
2	6.31326699256897	response	0	j		0.0	/home/egter/Projects/stimuli/pictures/R_S_pexels-cottonbro-6844209.png	37.49278402328491	
3	6.388095140457153	picture	0		91.0	1.0	/home/egter/Projects/stimuli/pictures/n13133613_55951.JPEG	37.567612171173096	1.0048518180847168
3	7.1382341384887695	response	0	k		1.0	/home/egter/Projects/stimuli/pictures/n13133613_55951.JPEG	38.31775116920471	
4	7.39294695854187	picture	0		97.0	2.0	/home/egter/Projects/stimuli/pictures/R_S_yt-x7TqP8l4lCA_39.png	38.57246398925781	0.8125441074371338
4	8.196514129638672	response	0	j		2.0	/home/egter/Projects/stimuli/pictures/R_S_yt-x7TqP8l4lCA_39.png	39.376031160354614	
5	8.205491065979004	picture	0		75.0	3.0	/home/egter/Projects/stimuli/pictures/S_yt-q9-_bG9ry3E_5.png	39.385008096694946	0.6249990463256836
5	8.821535110473633	response	0	j		3.0	/home/egter/Projects/stimuli/pictures/S_yt-q9-_bG9ry3E_5.png	40.001052141189575	
6	8.830490112304688	picture	0		85.0	4.0	/home/egter/Projects/stimuli/pictures/S_yt-mDil5vGZb14_4049.png	40.01000714302063	0.7083399295806885
6	9.52985405921936	response	0	j		4.0	/home/egter/Projects/stimuli/pictures/S_yt-mDil5vGZb14_4049.png	40.7093710899353	
7	9.538830041885376	picture	0		76.0	5.0	/home/egter/Projects/stimuli/pictures/S_yt-M_ApPnq00iE_67.png	40.71834707260132	0.6409289836883545
7	10.163912057876587	response	0	j		5.0	/home/egter/Projects/stimuli/pictures/S_yt-M_ApPnq00iE_67.png	41.34342908859253	
8	10.17975902557373	picture	0		72.0	6.0	/home/egter/Projects/stimuli/pictures/S_yt-lNevNqA8sIs_54.png	41.35927605628967	0.608349084854126
8	10.771589040756226	response	0	k		6.0	/home/egter/Projects/stimuli/pictures/S_yt-lNevNqA8sIs_54.png	41.95110607147217	
9	10.788108110427856	picture	0		73.0	7.0	/home/egter/Projects/stimuli/pictures/n03977966_2901.JPEG	41.9676251411438	0.6166388988494873
9	11.388214111328125	response	0	k		7.0	/home/egter/Projects/stimuli/pictures/n03977966_2901.JPEG	42.56773114204407	
10	11.404747009277344	picture	0		87.0	8.0	/home/egter/Projects/stimuli/pictures/n02100583_20582.JPEG	42.584264039993286	0.7333400249481201
10	12.12220811843872	response	0	k		8.0	/home/egter/Projects/stimuli/pictures/n02100583_20582.JPEG	43.30172514915466	
11	12.138087034225464	picture	0		89.0	9.0	/home/egter/Projects/stimuli/pictures/S__9v_wUywaAA_35.png	43.317604064941406	0.7499630451202393
11	12.872254133224487	response	0	j		9.0	/home/egter/Projects/stimuli/pictures/S__9v_wUywaAA_35.png	44.05177116394043	
12	12.888050079345703	picture	0		194.0	10.0	/home/egter/Projects/stimuli/pictures/R_S_yt-ycQy_fHCK-U_8.png	44.067567110061646	1.622964859008789
12	14.497201919555664	response	0	j		10.0	/home/egter/Projects/stimuli/pictures/R_S_yt-ycQy_fHCK-U_8.png	45.676718950271606	
13	14.511014938354492	picture	0		119.0	11.0	/home/egter/Projects/stimuli/pictures/S_yt-hekMMCluhnU_18.png	45.690531969070435	1.002061128616333
13	15.49718713760376	response	0	j		11.0	/home/egter/Projects/stimuli/pictures/S_yt-hekMMCluhnU_18.png	46.6767041683197	
14	15.513076066970825	picture	0		111.0	12.0	/home/egter/Projects/stimuli/pictures/n01667114_934.JPEG	46.69259309768677	0.9284279346466064
14	16.430041074752808	response	0	j		12.0	/home/egter/Projects/stimuli/pictures/n01667114_934.JPEG	47.60955810546875	
15	16.44150400161743	picture	0		119.0	13.0	/home/egter/Projects/stimuli/pictures/n02727426_10584.JPEG	47.621021032333374	0.9930779933929443
15	17.421488046646118	response	0	k		13.0	/home/egter/Projects/stimuli/pictures/n02727426_10584.JPEG	48.60100507736206	
16	17.434581995010376	picture	0		104.0	14.0	/home/egter/Projects/stimuli/pictures/n03447447_5144.JPEG	48.61409902572632	0.8785040378570557
16	18.29648494720459	response	0	k		14.0	/home/egter/Projects/stimuli/pictures/n03447447_5144.JPEG	49.47600197792053	
17	18.31308603286743	picture	0		84.0	15.0	/home/egter/Projects/stimuli/pictures/S_ILSVRC2015_train_00495000.png	49.492603063583374	0.7047929763793945
17	19.00484013557434	response	0	j		15.0	/home/egter/Projects/stimuli/pictures/S_ILSVRC2015_train_00495000.png	50.18435716629028	
18	19.017879009246826	picture	0		158.0	16.0	/home/egter/Projects/stimuli/pictures/S_yt-p-kbRhTdyiQ_31.png	50.19739603996277	1.3124680519104004
18	20.32143998146057	response	0	k		16.0	/home/egter/Projects/stimuli/pictures/S_yt-p-kbRhTdyiQ_31.png	51.500957012176514	
19	20.330347061157227	picture	0		87.0	17.0	/home/egter/Projects/stimuli/pictures/S_yt-GFcuvjHJmS4_86.png	51.50986409187317	0.7326819896697998
19	21.040552139282227	response	0	j		17.0	/home/egter/Projects/stimuli/pictures/S_yt-GFcuvjHJmS4_86.png	52.22006916999817	
20	21.063029050827026	picture	0		133.0	18.0	/home/egter/Projects/stimuli/pictures/n02114712_16500.JPEG	52.24254608154297	1.1167149543762207
20	22.163819074630737	response	0	k		18.0	/home/egter/Projects/stimuli/pictures/n02114712_16500.JPEG	53.34333610534668	
21	22.179744005203247	picture	0		109.0	19.0	/home/egter/Projects/stimuli/pictures/S_yt-LGwEki4ghNw_69.png	53.35926103591919	0.9166359901428223
21	23.080421924591064	response	0	j		19.0	/home/egter/Projects/stimuli/pictures/S_yt-LGwEki4ghNw_69.png	54.25993895530701	
22	23.09637999534607	picture	0		201.0	20.0	/home/egter/Projects/stimuli/pictures/n04371774_5138.JPEG	54.27589702606201	1.678344964981079
22	24.763134956359863	response	0	k		20.0	/home/egter/Projects/stimuli/pictures/n04371774_5138.JPEG	55.942651987075806	
23	24.77472496032715	picture	0		104.0	21.0	/home/egter/Projects/stimuli/pictures/R_S_yt-2kPrGwVmRfE_169.png	55.95424199104309	0.8716311454772949
23	25.629805088043213	response	0	j		21.0	/home/egter/Projects/stimuli/pictures/R_S_yt-2kPrGwVmRfE_169.png	56.809322118759155	
24	25.646356105804443	picture	0		74.0	22.0	/home/egter/Projects/stimuli/pictures/R_S_yt-7NjoFHBdP7c_102.png	56.825873136520386	0.6250209808349609
24	26.248635053634644	response	0	j		22.0	/home/egter/Projects/stimuli/pictures/R_S_yt-7NjoFHBdP7c_102.png	57.428152084350586	
25	26.271377086639404	picture	0		75.0	23.0	/home/egter/Projects/stimuli/pictures/n02871525_7061.JPEG	57.45089411735535	0.6333069801330566
25	26.88141107559204	response	0	k		23.0	/home/egter/Projects/stimuli/pictures/n02871525_7061.JPEG	58.06092810630798	
26	26.90468406677246	picture	0		103.0	24.0	/home/egter/Projects/stimuli/pictures/S_yt-rslgzryFIGk_71.png	58.0842010974884	0.8631210327148438
26	27.754745960235596	response	0	k		24.0	/home/egter/Projects/stimuli/pictures/S_yt-rslgzryFIGk_71.png	58.93426299095154	
27	27.767805099487305	picture	0		71.0	25.0	/home/egter/Projects/stimuli/pictures/n12144580_17301.JPEG	58.94732213020325	0.5971770286560059
27	28.35479712486267	response	0	k		25.0	/home/egter/Projects/stimuli/pictures/n12144580_17301.JPEG	59.53431415557861	
28	28.36498212814331	picture	0		64.0	26.0	/home/egter/Projects/stimuli/pictures/n02115913_3938.JPEG	59.54449915885925	0.5347139835357666
28	28.881417989730835	response	0	k		26.0	/home/egter/Projects/stimuli/pictures/n02115913_3938.JPEG	60.06093502044678	
29	28.899696111679077	picture	0		63.0	27.0	/home/egter/Projects/stimuli/pictures/n04037443_4091.JPEG	60.07921314239502	0.5299890041351318
29	29.413738012313843	response	0	k		27.0	/home/egter/Projects/stimuli/pictures/n04037443_4091.JPEG	60.593255043029785	
30	29.42968511581421	picture	0		75.0	28.0	/home/egter/Projects/stimuli/pictures/R_S_yt-xQPKYWDRy2A_491.png	60.60920214653015	0.6297688484191895
30	30.04029607772827	response	0	j		28.0	/home/egter/Projects/stimuli/pictures/R_S_yt-xQPKYWDRy2A_491.png	61.219813108444214	
31	30.0594539642334	picture	0		94.0	29.0	/home/egter/Projects/stimuli/pictures/S_yt-bOgChEHiroI_20.png	61.23897099494934	0.7868771553039551
31	30.830415964126587	response	0	j		29.0	/home/egter/Projects/stimuli/pictures/S_yt-bOgChEHiroI_20.png	62.00993299484253	
32	30.846331119537354	picture	0		77.0	30.0	/home/egter/Projects/stimuli/pictures/n04465501_8877.JPEG	62.025848150253296	0.650000810623169
32	31.473124980926514	response	0	k		30.0	/home/egter/Projects/stimuli/pictures/n04465501_8877.JPEG	62.652642011642456	
33	31.496331930160522	picture	0		83.0	31.0	/home/egter/Projects/stimuli/pictures/n03670208_7944.JPEG	62.675848960876465	0.7000150680541992
33	32.179795026779175	response	0	k		31.0	/home/egter/Projects/stimuli/pictures/n03670208_7944.JPEG	63.35931205749512	
34	32.19634699821472	picture	0		111.0	32.0	/home/egter/Projects/stimuli/pictures/S_comp_H012_C009_PS_v01_SDR_PS_20180925_SDR_2K_AVC.png	63.375864028930664	0.9256000518798828
34	33.113147020339966	response	0	j		32.0	/home/egter/Projects/stimuli/pictures/S_comp_H012_C009_PS_v01_SDR_PS_20180925_SDR_2K_AVC.png	64.29266405105591	
35	33.121947050094604	picture	0		138.0	33.0	/home/egter/Projects/stimuli/pictures/S_yt-2lnxIdOTxog_157.png	64.30146408081055	1.1577301025390625
35	34.256399154663086	response	0	k		33.0	/home/egter/Projects/stimuli/pictures/S_yt-2lnxIdOTxog_157.png	65.43591618537903	
36	34.27967715263367	picture	0		93.0	34.0	/home/egter/Projects/stimuli/pictures/n02013706_5948.JPEG	65.45919418334961	0.7833468914031982
36	35.04040813446045	response	0	k		34.0	/home/egter/Projects/stimuli/pictures/n02013706_5948.JPEG	66.21992516517639	
37	35.063024044036865	picture	0		235.0	35.0	/home/egter/Projects/stimuli/pictures/R_S_video_inspire_texas_pecos_foggy-landscape_00018.png	66.24254107475281	1.9616179466247559
37	37.01312303543091	response	0	j		35.0	/home/egter/Projects/stimuli/pictures/R_S_video_inspire_texas_pecos_foggy-landscape_00018.png	68.19264006614685	
38	37.02464199066162	picture	0		109.0	36.0	/home/egter/Projects/stimuli/pictures/R_S_yt-nlfwzxlwRfk_12.png	68.20415902137756	0.913383960723877
38	37.92141103744507	response	0	k		36.0	/home/egter/Projects/stimuli/pictures/R_S_yt-nlfwzxlwRfk_12.png	69.10092806816101	
39	37.9380259513855	picture	0		100.0	37.0	/home/egter/Projects/stimuli/pictures/n03272562_4416.JPEG	69.11754298210144	0.8365890979766846
39	38.763206005096436	response	0	k		37.0	/home/egter/Projects/stimuli/pictures/n03272562_4416.JPEG	69.94272303581238	
40	38.77461504936218	picture	0		171.0	38.0	/home/egter/Projects/stimuli/pictures/R_S_comp_H012_C009_PS_v01_SDR_PS_20180925_SDR_2K_AVC.png	69.95413208007812	1.4300239086151123
40	40.188122034072876	response	0	j		38.0	/home/egter/Projects/stimuli/pictures/R_S_comp_H012_C009_PS_v01_SDR_PS_20180925_SDR_2K_AVC.png	71.36763906478882	
41	40.204638957977295	picture	0		79.0	39.0	/home/egter/Projects/stimuli/pictures/n04548362_524.JPEG	71.38415598869324	0.6602511405944824
41	40.85474896430969	response	0	k		39.0	/home/egter/Projects/stimuli/pictures/n04548362_524.JPEG	72.03426599502563	
42	40.86489009857178	picture	0		77.0	40.0	/home/egter/Projects/stimuli/pictures/R_S_yt-ZwnliF0525U_95.png	72.04440712928772	0.6480839252471924
42	41.489656925201416	response	0	j		40.0	/home/egter/Projects/stimuli/pictures/R_S_yt-ZwnliF0525U_95.png	72.66917395591736	
43	41.51297402381897	picture	0		80.0	41.0	/home/egter/Projects/stimuli/pictures/R_S_yt-R9Iabv0XgOQ_80.png	72.69249105453491	0.6749749183654785
43	42.171391010284424	response	0	j		41.0	/home/egter/Projects/stimuli/pictures/R_S_yt-R9Iabv0XgOQ_80.png	73.35090804100037	
44	42.18794894218445	picture	0		83.0	42.0	/home/egter/Projects/stimuli/pictures/n01644900_20697.JPEG	73.36746597290039	0.7000250816345215
44	42.864665031433105	response	0	k		42.0	/home/egter/Projects/stimuli/pictures/n01644900_20697.JPEG	74.04418206214905	
45	42.88797402381897	picture	0		101.0	43.0	/home/egter/Projects/stimuli/pictures/S_yt-9PTQ4U4oPUU_243.png	74.06749105453491	0.8499939441680908
45	43.721405029296875	response	0	k		43.0	/home/egter/Projects/stimuli/pictures/S_yt-9PTQ4U4oPUU_243.png	74.90092206001282	
46	43.73796796798706	picture	0		90.0	44.0	/home/egter/Projects/stimuli/pictures/S_yt-yJmHtBFyhH4_15.png	74.917484998703	0.7519030570983887
46	44.473093032836914	response	0	j		44.0	/home/egter/Projects/stimuli/pictures/S_yt-yJmHtBFyhH4_15.png	75.65261006355286	
47	44.48987102508545	picture	0		70.0	45.0	/home/egter/Projects/stimuli/pictures/R_S_pexels-marcus-aurelius-6785014.png	75.66938805580139	0.589730978012085
47	45.05632400512695	response	0	j		45.0	/home/egter/Projects/stimuli/pictures/R_S_pexels-marcus-aurelius-6785014.png	76.2358410358429	
48	45.079602003097534	picture	0		70.0	46.0	/home/egter/Projects/stimuli/pictures/R_S_production_ID_4153808.png	76.25911903381348	0.591684103012085
48	45.65471911430359	response	0	j		46.0	/home/egter/Projects/stimuli/pictures/R_S_production_ID_4153808.png	76.83423614501953	
49	45.67128610610962	picture	0		79.0	47.0	/home/egter/Projects/stimuli/pictures/R_S_yt-GBt59U0KUR0_6.png	76.85080313682556	0.6666579246520996
49	46.32146501541138	response	0	j		47.0	/home/egter/Projects/stimuli/pictures/R_S_yt-GBt59U0KUR0_6.png	77.50098204612732	
50	46.33794403076172	picture	0		67.0	48.0	/home/egter/Projects/stimuli/pictures/R_S_ioSkDvwpEaU_35.png	77.51746106147766	0.5616140365600586
50	46.881370067596436	response	0	j		48.0	/home/egter/Projects/stimuli/pictures/R_S_ioSkDvwpEaU_35.png	78.06088709831238	
51	46.89955806732178	picture	0		83.0	49.0	/home/egter/Projects/stimuli/pictures/R_S_yt-RO4mhuXBVrY_67.png	78.07907509803772	0.6967048645019531
51	47.58024311065674	response	0	k		49.0	/home/egter/Projects/stimuli/pictures/R_S_yt-RO4mhuXBVrY_67.png	78.75976014137268	
52	47.59626293182373	picture	0		367.0	50.0	/home/egter/Projects/stimuli/pictures/n02504458_12095.JPEG	78.77577996253967	3.066646099090576
52	50.646342039108276	response	0	k		50.0	/home/egter/Projects/stimuli/pictures/n02504458_12095.JPEG	81.82585906982422	
53	50.66290903091431	picture	0		77.0	51.0	/home/egter/Projects/stimuli/pictures/n04465501_6154.JPEG	81.84242606163025	0.650007963180542
53	51.29636812210083	response	0	k		51.0	/home/egter/Projects/stimuli/pictures/n04465501_6154.JPEG	82.47588515281677	
54	51.31291699409485	picture	0		87.0	52.0	/home/egter/Projects/stimuli/pictures/n02859443_21872.JPEG	82.49243402481079	0.7334270477294922
54	52.02981209754944	response	0	k		52.0	/home/egter/Projects/stimuli/pictures/n02859443_21872.JPEG	83.20932912826538	
55	52.04634404182434	picture	0		70.0	53.0	/home/egter/Projects/stimuli/pictures/n03538406_4558.JPEG	83.22586107254028	0.59157395362854
55	52.62181496620178	response	0	k		53.0	/home/egter/Projects/stimuli/pictures/n03538406_4558.JPEG	83.80133199691772	
56	52.63791799545288	picture	0		93.0	54.0	/home/egter/Projects/stimuli/pictures/n01945685_3195.JPEG	83.81743502616882	0.783332109451294
56	53.40468502044678	response	0	k		54.0	/home/egter/Projects/stimuli/pictures/n01945685_3195.JPEG	84.58420205116272	
57	53.421250104904175	picture	0		71.0	55.0	/home/egter/Projects/stimuli/pictures/n01729322_11839.JPEG	84.60076713562012	0.5999939441680908
57	54.004663944244385	response	0	k		55.0	/home/egter/Projects/stimuli/pictures/n01729322_11839.JPEG	85.18418097496033	
58	54.021244049072266	picture	0		103.0	56.0	/home/egter/Projects/stimuli/pictures/S_yt-qHUewJuLW4o_19.png	85.20076107978821	0.8666660785675049
58	54.86456608772278	response	0	k		56.0	/home/egter/Projects/stimuli/pictures/S_yt-qHUewJuLW4o_19.png	86.04408311843872	
59	54.88791012763977	picture	0		56.0	57.0	/home/egter/Projects/stimuli/pictures/n01729322_12764.JPEG	86.06742715835571	0.46988892555236816
59	55.346349000930786	response	0	k		57.0	/home/egter/Projects/stimuli/pictures/n01729322_12764.JPEG	86.52586603164673	
60	55.35779905319214	picture	0		150.0	58.0	/home/egter/Projects/stimuli/pictures/R_S_yt-NqyG4Ar2JWo_10.png	86.53731608390808	1.2550978660583496
60	56.596457958221436	response	0	j		58.0	/home/egter/Projects/stimuli/pictures/R_S_yt-NqyG4Ar2JWo_10.png	87.77597498893738	
61	56.61289691925049	picture	0		82.0	59.0	/home/egter/Projects/stimuli/pictures/n03930630_10328.JPEG	87.79241394996643	0.691655158996582
61	57.288443088531494	response	0	k		59.0	/home/egter/Projects/stimuli/pictures/n03930630_10328.JPEG	88.46796011924744	
62	57.30455207824707	picture	0		69.0	60.0	/home/egter/Projects/stimuli/pictures/S_ILSVRC2015_train_00354001.png	88.48406910896301	0.5880398750305176
62	57.86470603942871	response	0	j		60.0	/home/egter/Projects/stimuli/pictures/S_ILSVRC2015_train_00354001.png	89.04422307014465	
63	57.89259195327759	picture	0		77.0	61.0	/home/egter/Projects/stimuli/pictures/n07831146_8224.JPEG	89.07210898399353	0.653609037399292
63	58.52967810630798	response	0	k		61.0	/home/egter/Projects/stimuli/pictures/n07831146_8224.JPEG	89.70919513702393	
64	58.54620099067688	picture	0		189.0	62.0	/home/egter/Projects/stimuli/pictures/n04465501_4549.JPEG	89.72571802139282	1.5833189487457275
64	60.112996101379395	response	0	k		62.0	/home/egter/Projects/stimuli/pictures/n04465501_4549.JPEG	91.29251313209534	
65	60.12951993942261	picture	0		104.0	63.0	/home/egter/Projects/stimuli/pictures/R_S_yt-x6tYi0lRGqU_114.png	91.30903697013855	0.8671290874481201
65	60.98800992965698	response	0	j		63.0	/home/egter/Projects/stimuli/pictures/R_S_yt-x6tYi0lRGqU_114.png	92.16752696037292	
66	60.99664902687073	picture	0		79.0	64.0	/home/egter/Projects/stimuli/pictures/S_ILSVRC2015_train_00378000.png	92.17616605758667	0.6661789417266846
66	61.64632797241211	response	0	j		64.0	/home/egter/Projects/stimuli/pictures/S_ILSVRC2015_train_00378000.png	92.82584500312805	
67	61.66282796859741	picture	0		97.0	65.0	/home/egter/Projects/stimuli/pictures/n06794110_2840.JPEG	92.84234499931335	0.8129761219024658
67	62.45671200752258	response	0	k		65.0	/home/egter/Projects/stimuli/pictures/n06794110_2840.JPEG	93.63622903823853	
68	62.47580409049988	picture	0		70.0	66.0	/home/egter/Projects/stimuli/pictures/S_wc-TAGpcap1KdAS_212.png	93.65532112121582	0.5870749950408936
68	63.046278953552246	response	0	j		66.0	/home/egter/Projects/stimuli/pictures/S_wc-TAGpcap1KdAS_212.png	94.22579598426819	
69	63.06287908554077	picture	0		98.0	67.0	/home/egter/Projects/stimuli/pictures/S_comp_H007_C003_PS_v01_SDR_PS_20180925_SDR_2K_AVC.png	94.24239611625671	0.8249380588531494
69	63.86446499824524	response	0	j		67.0	/home/egter/Projects/stimuli/pictures/S_comp_H007_C003_PS_v01_SDR_PS_20180925_SDR_2K_AVC.png	95.04398202896118	
70	63.88781714439392	picture	0		99.0	68.0	/home/egter/Projects/stimuli/pictures/n09472597_49213.JPEG	95.06733417510986	0.8333377838134766
70	64.70504999160767	response	0	k		68.0	/home/egter/Projects/stimuli/pictures/n09472597_49213.JPEG	95.88456702232361	
71	64.7211549282074	picture	0		103.0	69.0	/home/egter/Projects/stimuli/pictures/R_S_production_ID_4499960.png	95.90067195892334	0.8588252067565918
71	65.57117295265198	response	0	j		69.0	/home/egter/Projects/stimuli/pictures/R_S_production_ID_4499960.png	96.75068998336792	
72	65.57998013496399	picture	0		90.0	70.0	/home/egter/Projects/stimuli/pictures/S_yt-WRBmpC-RxIc_678.png	96.75949716567993	0.7579848766326904
72	66.32124710083008	response	0	j		70.0	/home/egter/Projects/stimuli/pictures/S_yt-WRBmpC-RxIc_678.png	97.50076413154602	
73	66.33796501159668	picture	0		98.0	71.0	/home/egter/Projects/stimuli/pictures/R_S_yt-EKPrSw5xF7k_112.png	97.51748204231262	0.8183441162109375
73	67.14622712135315	response	0	j		71.0	/home/egter/Projects/stimuli/pictures/R_S_yt-EKPrSw5xF7k_112.png	98.32574415206909	
74	67.15630912780762	picture	0		123.0	72.0	/home/egter/Projects/stimuli/pictures/S_yt-58F4cMRhSw8_69.png	98.33582615852356	1.0315239429473877
74	68.17124104499817	response	0	k		72.0	/home/egter/Projects/stimuli/pictures/S_yt-58F4cMRhSw8_69.png	99.35075807571411	
75	68.187833070755	picture	0		86.0	73.0	/home/egter/Projects/stimuli/pictures/n01824575_2029.JPEG	99.36735010147095	0.724984884262085
75	68.88970112800598	response	0	k		73.0	/home/egter/Projects/stimuli/pictures/n01824575_2029.JPEG	100.06921815872192	
76	68.91281795501709	picture	0		121.0	74.0	/home/egter/Projects/stimuli/pictures/S_yt-738MRS0yI6g_177.png	100.09233498573303	1.0167021751403809
76	69.91329002380371	response	0	j		74.0	/home/egter/Projects/stimuli/pictures/S_yt-738MRS0yI6g_177.png	101.09280705451965	
77	69.92952013015747	picture	0		66.0	75.0	/home/egter/Projects/stimuli/pictures/R_S_yt-JmmyeMOFpII_29.png	101.10903716087341	0.5583019256591797
77	70.47137713432312	response	0	j		75.0	/home/egter/Projects/stimuli/pictures/R_S_yt-JmmyeMOFpII_29.png	101.65089416503906	
78	70.48782205581665	picture	0		65.0	76.0	/home/egter/Projects/stimuli/pictures/S_yt-Fm97IY0Z2LU_110.png	101.66733908653259	0.5499749183654785
78	71.02126502990723	response	0	j		76.0	/home/egter/Projects/stimuli/pictures/S_yt-Fm97IY0Z2LU_110.png	102.20078206062317	
79	71.03779697418213	picture	0		125.0	77.0	/home/egter/Projects/stimuli/pictures/R_S_S003_C020_SDR_2K_AVC.png	102.21731400489807	1.0500280857086182
79	72.07129406929016	response	0	j		77.0	/home/egter/Projects/stimuli/pictures/R_S_S003_C020_SDR_2K_AVC.png	103.2508111000061	
80	72.08782505989075	picture	0		77.0	78.0	/home/egter/Projects/stimuli/pictures/R_S_production_ID_3943334.png	103.26734209060669	0.6500098705291748
80	72.72121214866638	response	0	j		78.0	/home/egter/Projects/stimuli/pictures/R_S_production_ID_3943334.png	103.90072917938232	
81	72.73783493041992	picture	0		92.0	79.0	/home/egter/Projects/stimuli/pictures/R_S_production_ID_4325509.png	103.91735196113586	0.7749850749969482
81	73.48969912528992	response	0	j		79.0	/home/egter/Projects/stimuli/pictures/R_S_production_ID_4325509.png	104.66921615600586	
82	73.51282000541687	picture	0		80.0	80.0	/home/egter/Projects/stimuli/pictures/S_ILSVRC2015_train_00415005.png	104.69233703613281	0.6749920845031738
82	74.17127895355225	response	0	k		80.0	/home/egter/Projects/stimuli/pictures/S_ILSVRC2015_train_00415005.png	105.35079598426819	
83	74.18781208992004	picture	0		91.0	81.0	/home/egter/Projects/stimuli/pictures/n03372029_7977.JPEG	105.36732912063599	0.7666499614715576
83	74.937912940979	response	0	k		81.0	/home/egter/Projects/stimuli/pictures/n03372029_7977.JPEG	106.11742997169495	
84	74.9544620513916	picture	0		125.0	82.0	/home/egter/Projects/stimuli/pictures/R_S_comp_A008_C007_011550_CC_v01_SDR_PS_FINAL_20180709_SDR_2K_AVC.png	106.13397908210754	1.0500340461730957
84	75.98803210258484	response	0	k		82.0	/home/egter/Projects/stimuli/pictures/R_S_comp_A008_C007_011550_CC_v01_SDR_PS_FINAL_20180709_SDR_2K_AVC.png	107.16754913330078	
85	76.0044960975647	picture	0		65.0	83.0	/home/egter/Projects/stimuli/pictures/n01739381_6638.JPEG	107.18401312828064	0.5500538349151611
85	76.53827214241028	response	0	k		83.0	/home/egter/Projects/stimuli/pictures/n01739381_6638.JPEG	107.71778917312622	
86	76.55454993247986	picture	0		75.0	84.0	/home/egter/Projects/stimuli/pictures/n02125311_11693.JPEG	107.7340669631958	0.6332721710205078
86	77.17123913764954	response	0	k		84.0	/home/egter/Projects/stimuli/pictures/n02125311_11693.JPEG	108.35075616836548	
87	77.18782210350037	picture	0		84.0	85.0	/home/egter/Projects/stimuli/pictures/S_yt-_zDYi2P-QxY_128.png	108.36733913421631	0.7083389759063721
87	77.87325501441956	response	0	j		85.0	/home/egter/Projects/stimuli/pictures/S_yt-_zDYi2P-QxY_128.png	109.0527720451355	
88	77.89616107940674	picture	0		78.0	86.0	/home/egter/Projects/stimuli/pictures/S_yt-9Z9-RT-ysEE_85.png	109.07567811012268	0.6583189964294434
88	78.53826999664307	response	0	j		86.0	/home/egter/Projects/stimuli/pictures/S_yt-9Z9-RT-ysEE_85.png	109.71778702735901	
89	78.55448007583618	picture	0		87.0	87.0	/home/egter/Projects/stimuli/pictures/n03967562_4179.JPEG	109.73399710655212	0.7333219051361084
89	79.27124094963074	response	0	k		87.0	/home/egter/Projects/stimuli/pictures/n03967562_4179.JPEG	110.45075798034668	
90	79.28780198097229	picture	0		78.0	88.0	/home/egter/Projects/stimuli/pictures/R_S_pexels-cottonbro-10640532.png	110.46731901168823	0.6583020687103271
90	79.92954993247986	response	0	j		88.0	/home/egter/Projects/stimuli/pictures/R_S_pexels-cottonbro-10640532.png	111.1090669631958	
91	79.94610404968262	picture	0		80.0	89.0	/home/egter/Projects/stimuli/pictures/n03095699_3846.JPEG	111.12562108039856	0.6750280857086182
91	80.60455703735352	response	0	k		89.0	/home/egter/Projects/stimuli/pictures/n03095699_3846.JPEG	111.78407406806946	
92	80.62113213539124	picture	0		94.0	90.0	/home/egter/Projects/stimuli/pictures/S_ILSVRC2015_train_00450001.png	111.80064916610718	0.7916369438171387
92	81.39623498916626	response	0	j		90.0	/home/egter/Projects/stimuli/pictures/S_ILSVRC2015_train_00450001.png	112.5757520198822	
93	81.41276907920837	picture	0		94.0	91.0	/home/egter/Projects/stimuli/pictures/R_S_ILSVRC2015_train_00444000.png	112.59228610992432	0.7916309833526611
93	82.18790292739868	response	0	k		91.0	/home/egter/Projects/stimuli/pictures/R_S_ILSVRC2015_train_00444000.png	113.36741995811462	
94	82.20440006256104	picture	0		71.0	92.0	/home/egter/Projects/stimuli/pictures/R_S_yt-28ODBE9bVh0_44.png	113.38391709327698	0.6001009941101074
94	82.7881920337677	response	0	j		92.0	/home/egter/Projects/stimuli/pictures/R_S_yt-28ODBE9bVh0_44.png	113.96770906448364	
95	82.80450105667114	picture	0		107.0	93.0	/home/egter/Projects/stimuli/pictures/S_yt-D99Pp5JlUQI_47.png	113.98401808738708	0.8933498859405518
95	83.68115901947021	response	0	k		93.0	/home/egter/Projects/stimuli/pictures/S_yt-D99Pp5JlUQI_47.png	114.86067605018616	
96	83.6978509426117	picture	0		68.0	94.0	/home/egter/Projects/stimuli/pictures/S_yt-2kPrGwVmRfE_169.png	114.87736797332764	0.5732741355895996
96	84.25448393821716	response	0	j		94.0	/home/egter/Projects/stimuli/pictures/S_yt-2kPrGwVmRfE_169.png	115.4340009689331	
97	84.2711250782013	picture	0		70.0	95.0	/home/egter/Projects/stimuli/pictures/n02840245_1158.JPEG	115.45064210891724	0.591649055480957
97	84.84623908996582	response	0	k		95.0	/home/egter/Projects/stimuli/pictures/n02840245_1158.JPEG	116.02575612068176	
98	84.86277413368225	picture	0		73.0	96.0	/home/egter/Projects/stimuli/pictures/R_S_yt-kkbtZP78JxQ_96.png	116.0422911643982	0.6166839599609375
98	85.46282911300659	response	0	j		96.0	/home/egter/Projects/stimuli/pictures/R_S_yt-kkbtZP78JxQ_96.png	116.64234614372253	
99	85.47945809364319	picture	0		104.0	97.0	/home/egter/Projects/stimuli/pictures/n03425413_88.JPEG	116.65897512435913	0.8749659061431885
99	86.33800911903381	response	0	k		97.0	/home/egter/Projects/stimuli/pictures/n03425413_88.JPEG	117.51752614974976	
100	86.35442399978638	picture	0		183.0	98.0	/home/egter/Projects/stimuli/pictures/S_comp_LA_A009_C009_PSNK_v02_SDR_PS_FINAL_20180709_SDR_2K_AVC.png	117.53394103050232	1.5333130359649658
100	87.87150692939758	response	0	j		98.0	/home/egter/Projects/stimuli/pictures/S_comp_LA_A009_C009_PSNK_v02_SDR_PS_FINAL_20180709_SDR_2K_AVC.png	119.05102396011353	
101	87.88773703575134	picture	0		65.0	99.0	/home/egter/Projects/stimuli/pictures/n04259630_685.JPEG	119.06725406646729	0.5461270809173584
101	88.42119407653809	response	0	k		99.0	/home/egter/Projects/stimuli/pictures/n04259630_685.JPEG	119.60071110725403	
102	88.4338641166687	picture	0		99.0	100.0	/home/egter/Projects/stimuli/pictures/n04146614_2155.JPEG	119.61338114738464	0.8288679122924805
102	89.24646210670471	response	0	k		100.0	/home/egter/Projects/stimuli/pictures/n04146614_2155.JPEG	120.42597913742065	
103	89.26273202896118	picture	0		70.0	101.0	/home/egter/Projects/stimuli/pictures/n04162706_1747.JPEG	120.44224905967712	0.5916929244995117
103	89.83785510063171	response	0	k		101.0	/home/egter/Projects/stimuli/pictures/n04162706_1747.JPEG	121.01737213134766	
104	89.8544249534607	picture	0		59.0	102.0	/home/egter/Projects/stimuli/pictures/n07717410_11092.JPEG	121.03394198417664	0.49996399879455566
104	90.33782315254211	response	0	k		102.0	/home/egter/Projects/stimuli/pictures/n07717410_11092.JPEG	121.51734018325806	
105	90.35438895225525	picture	0		52.0	103.0	/home/egter/Projects/stimuli/pictures/n01688243_3064.JPEG	121.53390598297119	0.4416470527648926
105	90.77953505516052	response	0	k		103.0	/home/egter/Projects/stimuli/pictures/n01688243_3064.JPEG	121.95905208587646	
106	90.79603600502014	picture	0		64.0	104.0	/home/egter/Projects/stimuli/pictures/ILSVRC2012_test_00035516.JPEG	121.97555303573608	0.5416960716247559
106	91.32116103172302	response	0	k		104.0	/home/egter/Projects/stimuli/pictures/ILSVRC2012_test_00035516.JPEG	122.50067806243896	
107	91.3377320766449	picture	0		56.0	105.0	/home/egter/Projects/stimuli/pictures/n02096437_6758.JPEG	122.51724910736084	0.47502803802490234
107	91.79618406295776	response	0	k		105.0	/home/egter/Projects/stimuli/pictures/n02096437_6758.JPEG	122.9757010936737	
108	91.8127601146698	picture	0		81.0	106.0	/home/egter/Projects/stimuli/pictures/S_yt-XtzmBXKYEWk_60.png	122.99227714538574	0.683290958404541
108	92.47945404052734	response	0	j		106.0	/home/egter/Projects/stimuli/pictures/S_yt-XtzmBXKYEWk_60.png	123.65897107124329	
109	92.49605107307434	picture	0		84.0	107.0	/home/egter/Projects/stimuli/pictures/S_yt-lv6mhnH7_g4_134.png	123.67556810379028	0.7016019821166992
109	93.18787908554077	response	0	j		107.0	/home/egter/Projects/stimuli/pictures/S_yt-lv6mhnH7_g4_134.png	124.36739611625671	
110	93.19765305519104	picture	0		85.0	108.0	/home/egter/Projects/stimuli/pictures/n02105505_4764.JPEG	124.37717008590698	0.7151088714599609
110	93.88942193984985	response	0	k		108.0	/home/egter/Projects/stimuli/pictures/n02105505_4764.JPEG	125.0689389705658	
111	93.912761926651	picture	0		88.0	109.0	/home/egter/Projects/stimuli/pictures/R_S_yt-GjFQxAklviE_25.png	125.09227895736694	0.7416341304779053
111	94.63784313201904	response	0	j		109.0	/home/egter/Projects/stimuli/pictures/R_S_yt-GjFQxAklviE_25.png	125.81736016273499	
112	94.6543960571289	picture	0		61.0	110.0	/home/egter/Projects/stimuli/pictures/n01664065_27821.JPEG	125.83391308784485	0.5166440010070801
112	95.15446901321411	response	0	k		110.0	/home/egter/Projects/stimuli/pictures/n01664065_27821.JPEG	126.33398604393005	
113	95.17104005813599	picture	0		177.0	111.0	/home/egter/Projects/stimuli/pictures/n02980441_1842.JPEG	126.35055708885193	1.4833400249481201
113	96.63780999183655	response	0	k		111.0	/home/egter/Projects/stimuli/pictures/n02980441_1842.JPEG	127.81732702255249	
114	96.6543800830841	picture	0		97.0	112.0	/home/egter/Projects/stimuli/pictures/n03854065_8632.JPEG	127.83389711380005	0.8166399002075195
114	97.45469212532043	response	0	k		112.0	/home/egter/Projects/stimuli/pictures/n03854065_8632.JPEG	128.63420915603638	
115	97.47101998329163	picture	0		110.0	113.0	/home/egter/Projects/stimuli/pictures/S_video_inspire_texas_pecos_foggy-landscape_00018.png	128.65053701400757	0.9249880313873291
115	98.37944102287292	response	0	j		113.0	/home/egter/Projects/stimuli/pictures/S_video_inspire_texas_pecos_foggy-landscape_00018.png	129.55895805358887	
116	98.39600801467896	picture	0		59.0	114.0	/home/egter/Projects/stimuli/pictures/n01728920_7310.JPEG	129.5755250453949	0.5000030994415283
116	98.87294292449951	response	0	k		114.0	/home/egter/Projects/stimuli/pictures/n01728920_7310.JPEG	130.05245995521545	
117	98.89601111412048	picture	0		96.0	115.0	/home/egter/Projects/stimuli/pictures/R_S_production_ID_4101225.png	130.07552814483643	0.8083770275115967
117	99.68101096153259	response	0	j		115.0	/home/egter/Projects/stimuli/pictures/R_S_production_ID_4101225.png	130.86052799224854	
118	99.70438814163208	picture	0		75.0	116.0	/home/egter/Projects/stimuli/pictures/R_S_yt-xNITUMXoU0g_9.png	130.88390517234802	0.6333367824554443
118	100.32110905647278	response	0	j		116.0	/home/egter/Projects/stimuli/pictures/R_S_yt-xNITUMXoU0g_9.png	131.50062608718872	
119	100.33772492408752	picture	0		83.0	117.0	/home/egter/Projects/stimuli/pictures/n04228054_6264.JPEG	131.51724195480347	0.6999711990356445
119	101.02115392684937	response	0	k		117.0	/home/egter/Projects/stimuli/pictures/n04228054_6264.JPEG	132.2006709575653	
120	101.03769612312317	picture	0		107.0	118.0	/home/egter/Projects/stimuli/pictures/n04141327_1185.JPEG	132.2172131538391	0.8999969959259033
120	101.9145770072937	response	0	k		118.0	/home/egter/Projects/stimuli/pictures/n04141327_1185.JPEG	133.09409403800964	
121	101.93769311904907	picture	0		77.0	119.0	/home/egter/Projects/stimuli/pictures/S_yt-N7ztk2fa3Ls_137.png	133.11721014976501	0.6500918865203857
121	102.57112097740173	response	0	j		119.0	/home/egter/Projects/stimuli/pictures/S_yt-N7ztk2fa3Ls_137.png	133.75063800811768	
122	102.58778500556946	picture	0		118.0	120.0	/home/egter/Projects/stimuli/pictures/S_yt-3DM_SqT4RII_10.png	133.7673020362854	0.991563081741333
122	103.56280612945557	response	0	j		120.0	/home/egter/Projects/stimuli/pictures/S_yt-3DM_SqT4RII_10.png	134.7423231601715	
123	103.57934808731079	picture	0		92.0	121.0	/home/egter/Projects/stimuli/pictures/n01855672_4399.JPEG	134.75886511802673	0.7750289440155029
123	104.33779191970825	response	0	k		121.0	/home/egter/Projects/stimuli/pictures/n01855672_4399.JPEG	135.5173089504242	
124	104.3543770313263	picture	0		86.0	122.0	/home/egter/Projects/stimuli/pictures/n03250847_17894.JPEG	135.53389406204224	0.7249810695648193
124	105.06281805038452	response	0	k		122.0	/home/egter/Projects/stimuli/pictures/n03250847_17894.JPEG	136.24233508110046	
125	105.07935810089111	picture	0		76.0	123.0	/home/egter/Projects/stimuli/pictures/S_yt-y6JsUW0eSW8_32.png	136.25887513160706	0.6416149139404297
125	105.69781994819641	response	0	j		123.0	/home/egter/Projects/stimuli/pictures/S_yt-y6JsUW0eSW8_32.png	136.87733697891235	
126	105.72097301483154	picture	0		121.0	124.0	/home/egter/Projects/stimuli/pictures/n03930630_23262.JPEG	136.90049004554749	1.016732931137085
126	106.72111892700195	response	0	k		124.0	/home/egter/Projects/stimuli/pictures/n03930630_23262.JPEG	137.9006359577179	
127	106.73770594596863	picture	0		115.0	125.0	/home/egter/Projects/stimuli/pictures/R_S_yt--jzScB82vKI_212.png	137.91722297668457	0.9666531085968018
127	107.68100714683533	response	0	j		125.0	/home/egter/Projects/stimuli/pictures/R_S_yt--jzScB82vKI_212.png	138.86052417755127	
128	107.70435905456543	picture	0		87.0	126.0	/home/egter/Projects/stimuli/pictures/n01798484_12395.JPEG	138.88387608528137	0.7333190441131592
128	108.42112708091736	response	0	k		126.0	/home/egter/Projects/stimuli/pictures/n01798484_12395.JPEG	139.6006441116333	
129	108.43767809867859	picture	0		83.0	127.0	/home/egter/Projects/stimuli/pictures/n02106382_6237.JPEG	139.61719512939453	0.7000038623809814
129	109.11437797546387	response	0	k		127.0	/home/egter/Projects/stimuli/pictures/n02106382_6237.JPEG	140.2938950061798	
130	109.13768196105957	picture	0		75.0	128.0	/home/egter/Projects/stimuli/pictures/S_X-D3lUv-atE_376.png	140.3171989917755	0.6333351135253906
130	109.75444412231445	response	0	j		128.0	/home/egter/Projects/stimuli/pictures/S_X-D3lUv-atE_376.png	140.9339611530304	
131	109.77101707458496	picture	0		84.0	129.0	/home/egter/Projects/stimuli/pictures/ILSVRC2012_test_00089164.JPEG	140.9505341053009	0.7043509483337402
131	110.46275997161865	response	0	k		129.0	/home/egter/Projects/stimuli/pictures/ILSVRC2012_test_00089164.JPEG	141.6422770023346	
132	110.4753680229187	picture	0		85.0	130.0	/home/egter/Projects/stimuli/pictures/n01768244_846.JPEG	141.65488505363464	0.7152540683746338
132	111.17111206054688	response	0	k		130.0	/home/egter/Projects/stimuli/pictures/n01768244_846.JPEG	142.35062909126282	
133	111.19062209129333	picture	0		69.0	131.0	/home/egter/Projects/stimuli/pictures/R_S_yt-Fm97IY0Z2LU_110.png	142.37013912200928	0.5803558826446533
133	111.7544059753418	response	0	j		131.0	/home/egter/Projects/stimuli/pictures/R_S_yt-Fm97IY0Z2LU_110.png	142.93392300605774	
134	111.77097797393799	picture	0		59.0	132.0	/home/egter/Projects/stimuli/pictures/n02114855_37153.JPEG	142.95049500465393	0.49999213218688965
134	112.25441694259644	response	0	k		132.0	/home/egter/Projects/stimuli/pictures/n02114855_37153.JPEG	143.43393397331238	
135	112.27097010612488	picture	0		95.0	133.0	/home/egter/Projects/stimuli/pictures/R_S_yt-CRw9-cCQqbg_332.png	143.45048713684082	0.7946329116821289
135	113.05438113212585	response	0	j		133.0	/home/egter/Projects/stimuli/pictures/R_S_yt-CRw9-cCQqbg_332.png	144.2338981628418	
136	113.065603017807	picture	0		120.0	134.0	/home/egter/Projects/stimuli/pictures/S_ILSVRC2015_train_00067005.png	144.24512004852295	1.0053889751434326
136	114.0544159412384	response	0	k		134.0	/home/egter/Projects/stimuli/pictures/S_ILSVRC2015_train_00067005.png	145.23393297195435	
137	114.07099199295044	picture	0		109.0	135.0	/home/egter/Projects/stimuli/pictures/S_yt-ujTY1igjc3E_2.png	145.25050902366638	0.9166569709777832
137	114.97114706039429	response	0	j		135.0	/home/egter/Projects/stimuli/pictures/S_yt-ujTY1igjc3E_2.png	146.15066409111023	
138	114.98764896392822	picture	0		74.0	136.0	/home/egter/Projects/stimuli/pictures/n04435653_10830.JPEG	146.16716599464417	0.6250271797180176
138	115.59608006477356	response	0	k		136.0	/home/egter/Projects/stimuli/pictures/n04435653_10830.JPEG	146.7755970954895	
139	115.61267614364624	picture	0		78.0	137.0	/home/egter/Projects/stimuli/pictures/R_S_ILSVRC2015_train_00001009.png	146.79219317436218	0.6582729816436768
139	116.25442910194397	response	0	j		137.0	/home/egter/Projects/stimuli/pictures/R_S_ILSVRC2015_train_00001009.png	147.4339461326599	
140	116.27094912528992	picture	0		75.0	138.0	/home/egter/Projects/stimuli/pictures/R_S_pexels-mart-production-7698693.png	147.45046615600586	0.6500189304351807
140	116.88769793510437	response	0	k		138.0	/home/egter/Projects/stimuli/pictures/R_S_pexels-mart-production-7698693.png	148.0672149658203	
141	116.9209680557251	picture	0		139.0	139.0	/home/egter/Projects/stimuli/pictures/R_S_ILSVRC2015_train_00378000.png	148.10048508644104	1.166680097579956
141	118.07115602493286	response	0	j		139.0	/home/egter/Projects/stimuli/pictures/R_S_ILSVRC2015_train_00378000.png	149.2506730556488	
142	118.08764815330505	picture	0		102.0	140.0	/home/egter/Projects/stimuli/pictures/R_S_yt-CINajD_PVjQ_494.png	149.267165184021	0.8582918643951416
142	118.92937397956848	response	0	j		140.0	/home/egter/Projects/stimuli/pictures/R_S_yt-CINajD_PVjQ_494.png	150.10889101028442	
143	118.9459400177002	picture	0		87.0	141.0	/home/egter/Projects/stimuli/pictures/n04238763_2716.JPEG	150.12545704841614	0.7333879470825195
143	119.66292405128479	response	0	k		141.0	/home/egter/Projects/stimuli/pictures/n04238763_2716.JPEG	150.84244108200073	
144	119.67932796478271	picture	0		81.0	142.0	/home/egter/Projects/stimuli/pictures/n02104029_200.JPEG	150.85884499549866	0.6833159923553467
144	120.34607005119324	response	0	k		142.0	/home/egter/Projects/stimuli/pictures/n02104029_200.JPEG	151.52558708190918	
145	120.36264395713806	picture	0		72.0	143.0	/home/egter/Projects/stimuli/pictures/R_S_yt-OTNdgakSIJE_97.png	151.542160987854	0.6083559989929199
145	120.95456600189209	response	0	j		143.0	/home/egter/Projects/stimuli/pictures/R_S_yt-OTNdgakSIJE_97.png	152.13408303260803	
146	120.97099995613098	picture	0		112.0	144.0	/home/egter/Projects/stimuli/pictures/n01677366_8893.JPEG	152.15051698684692	0.9416441917419434
146	121.88928198814392	response	0	k		144.0	/home/egter/Projects/stimuli/pictures/n01677366_8893.JPEG	153.06879901885986	
147	121.91264414787292	picture	0		75.0	145.0	/home/egter/Projects/stimuli/pictures/n01629819_12012.JPEG	153.09216117858887	0.6333348751068115
147	122.522696018219	response	0	k		145.0	/home/egter/Projects/stimuli/pictures/n01629819_12012.JPEG	153.70221304893494	
148	122.54597902297974	picture	0		65.0	146.0	/home/egter/Projects/stimuli/pictures/n02168699_8992.JPEG	153.72549605369568	0.5500149726867676
148	123.0795030593872	response	0	k		146.0	/home/egter/Projects/stimuli/pictures/n02168699_8992.JPEG	154.25902009010315	
149	123.0959939956665	picture	0		75.0	147.0	/home/egter/Projects/stimuli/pictures/n02097209_435.JPEG	154.27551102638245	0.6333179473876953
149	123.70615601539612	response	0	k		147.0	/home/egter/Projects/stimuli/pictures/n02097209_435.JPEG	154.88567304611206	
150	123.7293119430542	picture	0		69.0	148.0	/home/egter/Projects/stimuli/pictures/n03459775_6721.JPEG	154.90882897377014	0.5833210945129395
150	124.28937005996704	response	0	k		148.0	/home/egter/Projects/stimuli/pictures/n03459775_6721.JPEG	155.46888709068298	
151	124.31263303756714	picture	0		111.0	149.0	/home/egter/Projects/stimuli/pictures/R_S_yt-x7NWmdlvVIQ_183.png	155.49215006828308	0.933413028717041
151	125.22945213317871	response	0	j		149.0	/home/egter/Projects/stimuli/pictures/R_S_yt-x7NWmdlvVIQ_183.png	156.40896916389465	
152	125.24604606628418	picture	0		94.0	150.0	/home/egter/Projects/stimuli/pictures/R_S_yt-e9AZJKNv9ow_359.png	156.42556309700012	0.7916059494018555
152	126.02110195159912	response	0	j		150.0	/home/egter/Projects/stimuli/pictures/R_S_yt-e9AZJKNv9ow_359.png	157.20061898231506	
153	126.03765201568604	picture	0		93.0	151.0	/home/egter/Projects/stimuli/pictures/n04238763_5117.JPEG	157.21716904640198	0.7833371162414551
153	126.80439496040344	response	0	k		151.0	/home/egter/Projects/stimuli/pictures/n04238763_5117.JPEG	157.98391199111938	
154	126.82098913192749	picture	0		85.0	152.0	/home/egter/Projects/stimuli/pictures/S_yt-ycQy_fHCK-U_8.png	158.00050616264343	0.7166500091552734
154	127.51433610916138	response	0	j		152.0	/home/egter/Projects/stimuli/pictures/S_yt-ycQy_fHCK-U_8.png	158.69385313987732	
155	127.53763914108276	picture	0		97.0	153.0	/home/egter/Projects/stimuli/pictures/R_S_yt-BKkZUSowoxg_59.png	158.7171561717987	0.8166539669036865
155	128.33773112297058	response	0	j		153.0	/home/egter/Projects/stimuli/pictures/R_S_yt-BKkZUSowoxg_59.png	159.51724815368652	
156	128.35429310798645	picture	0		83.0	154.0	/home/egter/Projects/stimuli/pictures/R_S_yt-738MRS0yI6g_177.png	159.5338101387024	0.7000248432159424
156	129.0378279685974	response	0	j		154.0	/home/egter/Projects/stimuli/pictures/R_S_yt-738MRS0yI6g_177.png	160.21734499931335	
157	129.0543179512024	picture	0		101.0	155.0	/home/egter/Projects/stimuli/pictures/S_ILSVRC2015_train_00251005.png	160.23383498191833	0.8499569892883301
157	129.88773012161255	response	0	j		155.0	/home/egter/Projects/stimuli/pictures/S_ILSVRC2015_train_00251005.png	161.0672471523285	
158	129.90427494049072	picture	0		163.0	156.0	/home/egter/Projects/stimuli/pictures/S_yt-rNjnYLsk32k_1172.png	161.08379197120667	1.3666679859161377
158	131.254380941391	response	0	k		156.0	/home/egter/Projects/stimuli/pictures/S_yt-rNjnYLsk32k_1172.png	162.43389797210693	
159	131.27094292640686	picture	0		164.0	157.0	/home/egter/Projects/stimuli/pictures/S_yt-RO4mhuXBVrY_67.png	162.4504599571228	1.3749971389770508
159	132.62936305999756	response	0	k		157.0	/home/egter/Projects/stimuli/pictures/S_yt-RO4mhuXBVrY_67.png	163.8088800907135	
160	132.6459400653839	picture	0		96.0	158.0	/home/egter/Projects/stimuli/pictures/n03496892_7861.JPEG	163.82545709609985	0.8083250522613525
160	133.4377510547638	response	0	k		158.0	/home/egter/Projects/stimuli/pictures/n03496892_7861.JPEG	164.61726808547974	
161	133.45426511764526	picture	0		66.0	159.0	/home/egter/Projects/stimuli/pictures/n02814533_17866.JPEG	164.6337821483612	0.5556268692016602
161	133.99607610702515	response	0	k		159.0	/home/egter/Projects/stimuli/pictures/n02814533_17866.JPEG	165.1755931377411	
162	134.00989198684692	picture	0		87.0	160.0	/home/egter/Projects/stimuli/pictures/n03733131_1945.JPEG	165.18940901756287	0.7361209392547607
162	134.722589969635	response	0	k		160.0	/home/egter/Projects/stimuli/pictures/n03733131_1945.JPEG	165.90210700035095	
163	134.74601292610168	picture	0		76.0	161.0	/home/egter/Projects/stimuli/pictures/S_pexels-mikhail-nilov-8410063_1.png	165.92552995681763	0.6415610313415527
163	135.37107110023499	response	0	j		161.0	/home/egter/Projects/stimuli/pictures/S_pexels-mikhail-nilov-8410063_1.png	166.55058813095093	
164	135.38757395744324	picture	0		82.0	162.0	/home/egter/Projects/stimuli/pictures/S_yt-BKkZUSowoxg_59.png	166.56709098815918	0.6917080879211426
164	136.0627040863037	response	0	j		162.0	/home/egter/Projects/stimuli/pictures/S_yt-BKkZUSowoxg_59.png	167.24222111701965	
165	136.07928204536438	picture	0		75.0	163.0	/home/egter/Projects/stimuli/pictures/R_S_yt-WRBmpC-RxIc_678.png	167.25879907608032	0.63332200050354
165	136.69600796699524	response	0	j		163.0	/home/egter/Projects/stimuli/pictures/R_S_yt-WRBmpC-RxIc_678.png	167.87552499771118	
166	136.71260404586792	picture	0		118.0	164.0	/home/egter/Projects/stimuli/pictures/S_yt-K-iCphzt_RE_17.png	167.89212107658386	0.9916670322418213
166	137.68770599365234	response	0	j		164.0	/home/egter/Projects/stimuli/pictures/S_yt-K-iCphzt_RE_17.png	168.8672230243683	
167	137.70427107810974	picture	0		124.0	165.0	/home/egter/Projects/stimuli/pictures/n07871810_15755.JPEG	168.88378810882568	1.0416338443756104
167	138.72266006469727	response	0	k		165.0	/home/egter/Projects/stimuli/pictures/n07871810_15755.JPEG	169.9021770954132	
168	138.74590492248535	picture	0		146.0	166.0	/home/egter/Projects/stimuli/pictures/n02790996_7989.JPEG	169.9254219532013	1.2249870300292969
168	139.95435500144958	response	0	k		166.0	/home/egter/Projects/stimuli/pictures/n02790996_7989.JPEG	171.13387203216553	
169	139.97089195251465	picture	0		102.0	167.0	/home/egter/Projects/stimuli/pictures/n02640242_3189.JPEG	171.1504089832306	0.8583681583404541
169	140.812646150589	response	0	k		167.0	/home/egter/Projects/stimuli/pictures/n02640242_3189.JPEG	171.99216318130493	
170	140.8292601108551	picture	0		86.0	168.0	/home/egter/Projects/stimuli/pictures/S_ILSVRC2015_train_00517000.png	172.00877714157104	0.7249119281768799
170	141.53081393241882	response	0	j		168.0	/home/egter/Projects/stimuli/pictures/S_ILSVRC2015_train_00517000.png	172.71033096313477	
171	141.55417203903198	picture	0		99.0	169.0	/home/egter/Projects/stimuli/pictures/n04040759_6136.JPEG	172.73368906974792	0.8333659172058105
171	142.3710000514984	response	0	k		169.0	/home/egter/Projects/stimuli/pictures/n04040759_6136.JPEG	173.55051708221436	
172	142.3875379562378	picture	0		133.0	170.0	/home/egter/Projects/stimuli/pictures/n04326547_12964.JPEG	173.56705498695374	1.1166861057281494
172	143.4876811504364	response	0	k		170.0	/home/egter/Projects/stimuli/pictures/n04326547_12964.JPEG	174.66719818115234	
173	143.50422406196594	picture	0		80.0	171.0	/home/egter/Projects/stimuli/pictures/n01796340_20551.JPEG	174.68374109268188	0.6750059127807617
173	144.16262006759644	response	0	k		171.0	/home/egter/Projects/stimuli/pictures/n01796340_20551.JPEG	175.34213709831238	
174	144.1792299747467	picture	0		131.0	172.0	/home/egter/Projects/stimuli/pictures/n03874293_5720.JPEG	175.35874700546265	1.0999729633331299
174	145.26262998580933	response	0	k		172.0	/home/egter/Projects/stimuli/pictures/n03874293_5720.JPEG	176.44214701652527	
175	145.27920293807983	picture	0		74.0	173.0	/home/egter/Projects/stimuli/pictures/R_S_yt-rqYMMAU_GJs_91.png	176.45871996879578	0.6250100135803223
175	145.88767910003662	response	0	j		173.0	/home/egter/Projects/stimuli/pictures/R_S_yt-rqYMMAU_GJs_91.png	177.06719613075256	
176	145.90421295166016	picture	0		85.0	174.0	/home/egter/Projects/stimuli/pictures/n02027492_4942.JPEG	177.0837299823761	0.7166590690612793
176	146.60434007644653	response	0	k		174.0	/home/egter/Projects/stimuli/pictures/n02027492_4942.JPEG	177.78385710716248	
177	146.62087202072144	picture	0		87.0	175.0	/home/egter/Projects/stimuli/pictures/n02109047_19473.JPEG	177.80038905143738	0.7333509922027588
177	147.33764696121216	response	0	k		175.0	/home/egter/Projects/stimuli/pictures/n02109047_19473.JPEG	178.5171639919281	
178	147.3542230129242	picture	0		82.0	176.0	/home/egter/Projects/stimuli/pictures/S_ILSVRC2015_train_00654000.png	178.53374004364014	0.6916449069976807
178	148.0292899608612	response	0	j		176.0	/home/egter/Projects/stimuli/pictures/S_ILSVRC2015_train_00654000.png	179.20880699157715	
179	148.04586791992188	picture	0		61.0	177.0	/home/egter/Projects/stimuli/pictures/n02128925_57428.JPEG	179.22538495063782	0.5166490077972412
179	148.54597091674805	response	0	k		177.0	/home/egter/Projects/stimuli/pictures/n02128925_57428.JPEG	179.725487947464	
180	148.56251692771912	picture	0		83.0	178.0	/home/egter/Projects/stimuli/pictures/R_S_yt-wUqpCtBOFBA_89.png	179.74203395843506	0.6999931335449219
180	149.2459740638733	response	0	j		178.0	/home/egter/Projects/stimuli/pictures/R_S_yt-wUqpCtBOFBA_89.png	180.42549109458923	
181	149.26251006126404	picture	0		83.0	179.0	/home/egter/Projects/stimuli/pictures/S_yt-LhP0mZ6xxIg_111.png	180.44202709197998	0.7000348567962646
181	149.9460060596466	response	0	j		179.0	/home/egter/Projects/stimuli/pictures/S_yt-LhP0mZ6xxIg_111.png	181.12552309036255	
182	149.9625449180603	stim	0		1178.0			181.14206194877625	9.817898035049438
182	159.77089095115662	response	0	space				190.95040798187256	
