trial_nr	onset	event_type	phase	response	nr_frames	picture_index	picture_file	onset_abs	duration
0	0.015002965927124023	stim	0		1327.0			38.26289391517639	11.06997299194336
0	10.376978874206543	response	0	j				48.62486982345581	
0	11.068586826324463	response	0	space				49.31647777557373	
2	11.084975957870483	picture	0		150.0	0.0	/home/egter/Projects/stimuli/pictures/S_yt-Ek1jcvett9E_33.png	49.33286690711975	1.254274845123291
2	12.326706886291504	response	0	j		0.0	/home/egter/Projects/stimuli/pictures/S_yt-Ek1jcvett9E_33.png	50.57459783554077	
3	12.339250802993774	picture	0		116.0	1.0	/home/egter/Projects/stimuli/pictures/S_bing-www_cnet_com_videos_amazon-wants-to-put-alexa-on-your-pc__50.png	50.58714175224304	0.965238094329834
3	13.293424844741821	response	0	j		1.0	/home/egter/Projects/stimuli/pictures/S_bing-www_cnet_com_videos_amazon-wants-to-put-alexa-on-your-pc__50.png	51.54131579399109	
4	13.304488897323608	picture	0		164.0	2.0	/home/egter/Projects/stimuli/pictures/S_yt-ie418P-Euz4_1077.png	51.552379846572876	1.3680589199066162
4	14.660122871398926	response	0	k		2.0	/home/egter/Projects/stimuli/pictures/S_yt-ie418P-Euz4_1077.png	52.90801382064819	
5	14.672547817230225	picture	0		113.0	3.0	/home/egter/Projects/stimuli/pictures/S_yt-jcuaf9iSEkI_169.png	52.92043876647949	0.9374961853027344
5	15.601722002029419	response	0	j		3.0	/home/egter/Projects/stimuli/pictures/S_yt-jcuaf9iSEkI_169.png	53.84961295127869	
6	15.610044002532959	picture	0		150.0	4.0	/home/egter/Projects/stimuli/pictures/R_S_ILSVRC2015_train_00067005.png	53.85793495178223	1.249950885772705
6	16.85173487663269	response	0	k		4.0	/home/egter/Projects/stimuli/pictures/R_S_ILSVRC2015_train_00067005.png	55.09962582588196	
7	16.859994888305664	picture	0		159.0	5.0	/home/egter/Projects/stimuli/pictures/n07590611_16771.JPEG	55.10788583755493	1.3263919353485107
7	18.16990089416504	response	0	k		5.0	/home/egter/Projects/stimuli/pictures/n07590611_16771.JPEG	56.41779184341431	
8	18.186386823654175	picture	0		231.0	6.0	/home/egter/Projects/stimuli/pictures/S_video-4.png	56.43427777290344	1.9235620498657227
8	20.10173487663269	response	0	j		6.0	/home/egter/Projects/stimuli/pictures/S_video-4.png	58.34962582588196	
9	20.109948873519897	picture	0		128.0	7.0	/home/egter/Projects/stimuli/pictures/R_S_b4-3.png	58.357839822769165	1.069486141204834
9	21.168372869491577	response	0	j		7.0	/home/egter/Projects/stimuli/pictures/R_S_b4-3.png	59.416263818740845	
10	21.17943501472473	picture	0		177.0	8.0	/home/egter/Projects/stimuli/pictures/n07590611_8720.JPEG	59.427325963974	1.4721829891204834
10	22.643380880355835	response	0	j		8.0	/home/egter/Projects/stimuli/pictures/n07590611_8720.JPEG	60.8912718296051	
11	22.651618003845215	picture	0		117.0	9.0	/home/egter/Projects/stimuli/pictures/S_yt-RKo978aBdzw_173.png	60.89950895309448	0.9792289733886719
11	23.618459939956665	response	0	j		9.0	/home/egter/Projects/stimuli/pictures/S_yt-RKo978aBdzw_173.png	61.86635088920593	
12	23.630846977233887	picture	0		233.0	10.0	/home/egter/Projects/stimuli/pictures/n02077923_9403.JPEG	61.878737926483154	1.9373788833618164
12	25.559948921203613	response	0	j		10.0	/home/egter/Projects/stimuli/pictures/n02077923_9403.JPEG	63.80783987045288	
13	25.568225860595703	picture	0		128.0	11.0	/home/egter/Projects/stimuli/pictures/n01641577_1379.JPEG	63.81611680984497	1.0694770812988281
13	26.626659870147705	response	0	k		11.0	/home/egter/Projects/stimuli/pictures/n01641577_1379.JPEG	64.87455081939697	
14	26.63770294189453	picture	0		147.0	12.0	/home/egter/Projects/stimuli/pictures/S_ILSVRC2015_train_00484001.png	64.8855938911438	1.2221949100494385
14	27.85170292854309	response	0	j		12.0	/home/egter/Projects/stimuli/pictures/S_ILSVRC2015_train_00484001.png	66.09959387779236	
15	27.85989785194397	picture	0		218.0	13.0	/home/egter/Projects/stimuli/pictures/n03773504_370.JPEG	66.10778880119324	1.819483995437622
15	29.66844892501831	response	0	j		13.0	/home/egter/Projects/stimuli/pictures/n03773504_370.JPEG	67.91633987426758	
16	29.679381847381592	picture	0		112.0	14.0	/home/egter/Projects/stimuli/pictures/S_video_inspire_california_big-sur_bixby_005.png	67.92727279663086	0.9304990768432617
16	30.601669788360596	response	0	j		14.0	/home/egter/Projects/stimuli/pictures/S_video_inspire_california_big-sur_bixby_005.png	68.84956073760986	
17	30.609880924224854	picture	0		98.0	15.0	/home/egter/Projects/stimuli/pictures/R_S_yt-D_f3_HIXG2g_87.png	68.85777187347412	0.819472074508667
17	31.418325901031494	response	0	j		15.0	/home/egter/Projects/stimuli/pictures/R_S_yt-D_f3_HIXG2g_87.png	69.66621685028076	
18	31.42935299873352	picture	0		147.0	16.0	/home/egter/Projects/stimuli/pictures/R_S_Ds4EKTLx_RI_51.png	69.67724394798279	1.2221698760986328
18	32.64332699775696	response	0	j		16.0	/home/egter/Projects/stimuli/pictures/R_S_Ds4EKTLx_RI_51.png	70.89121794700623	
19	32.65152287483215	picture	0		134.0	17.0	/home/egter/Projects/stimuli/pictures/S_yt-ihCTIoE7qsk_730.png	70.89941382408142	1.1180720329284668
19	33.75998497009277	response	0	j		17.0	/home/egter/Projects/stimuli/pictures/S_yt-ihCTIoE7qsk_730.png	72.00787591934204	
20	33.76959490776062	picture	0		99.0	18.0	/home/egter/Projects/stimuli/pictures/R_S_yt-mdLT282PVbE_6.png	72.01748585700989	0.8263850212097168
20	34.578221797943115	response	0	j		18.0	/home/egter/Projects/stimuli/pictures/R_S_yt-mdLT282PVbE_6.png	72.82611274719238	
21	34.59597992897034	picture	0		138.0	19.0	/home/egter/Projects/stimuli/pictures/n03127747_1956.JPEG	72.8438708782196	1.1527760028839111
21	35.7349898815155	response	0	k		19.0	/home/egter/Projects/stimuli/pictures/n03127747_1956.JPEG	73.98288083076477	
22	35.74875593185425	picture	0		240.0	20.0	/home/egter/Projects/stimuli/pictures/S_yt-JmmyeMOFpII_29.png	73.99664688110352	2.0069620609283447
22	37.74329090118408	response	0	j		20.0	/home/egter/Projects/stimuli/pictures/S_yt-JmmyeMOFpII_29.png	75.99118185043335	
23	37.75571799278259	picture	0		102.0	21.0	/home/egter/Projects/stimuli/pictures/S_yt-rB3YVZvA78w_20.png	76.00360894203186	0.8471879959106445
23	38.58656597137451	response	0	j		21.0	/home/egter/Projects/stimuli/pictures/S_yt-rB3YVZvA78w_20.png	76.83445692062378	
24	38.60290598869324	picture	0		199.0	22.0	/home/egter/Projects/stimuli/pictures/n01675722_10934.JPEG	76.8507969379425	1.6596879959106445
24	40.25160884857178	response	0	k		22.0	/home/egter/Projects/stimuli/pictures/n01675722_10934.JPEG	78.49949979782104	
25	40.26259398460388	picture	0		127.0	23.0	/home/egter/Projects/stimuli/pictures/S_wc-PqINyFk_ku4u_18.png	78.51048493385315	1.0555648803710938
25	41.309916973114014	response	0	j		23.0	/home/egter/Projects/stimuli/pictures/S_wc-PqINyFk_ku4u_18.png	79.55780792236328	
26	41.318158864974976	picture	0		134.0	24.0	/home/egter/Projects/stimuli/pictures/n13052670_8369.JPEG	79.56604981422424	1.1180479526519775
26	42.426612854003906	response	0	j		24.0	/home/egter/Projects/stimuli/pictures/n13052670_8369.JPEG	80.67450380325317	
27	42.43620681762695	picture	0		76.0	25.0	/home/egter/Projects/stimuli/pictures/n09256479_1052.JPEG	80.68409776687622	0.6319150924682617
27	43.0599319934845	response	0	j		25.0	/home/egter/Projects/stimuli/pictures/n09256479_1052.JPEG	81.30782294273376	
28	43.068121910095215	picture	0		210.0	26.0	/home/egter/Projects/stimuli/pictures/n13052670_4510.JPEG	81.31601285934448	1.7500391006469727
28	44.80996799468994	response	0	j		26.0	/home/egter/Projects/stimuli/pictures/n13052670_4510.JPEG	83.05785894393921	
29	44.81816101074219	picture	0		199.0	27.0	/home/egter/Projects/stimuli/pictures/n03127747_6054.JPEG	83.06605195999146	1.6596570014953613
29	46.468257904052734	response	0	j		27.0	/home/egter/Projects/stimuli/pictures/n03127747_6054.JPEG	84.716148853302	
30	46.47781801223755	picture	0		257.0	28.0	/home/egter/Projects/stimuli/pictures/R_S_yt-foGMTdxewBI_43.png	84.72570896148682	2.145833969116211
30	48.60316586494446	response	0	k		28.0	/home/egter/Projects/stimuli/pictures/R_S_yt-foGMTdxewBI_43.png	86.85105681419373	
31	48.62365198135376	picture	0		163.0	29.0	/home/egter/Projects/stimuli/pictures/R_S_yt-qazCIJqjxUU_3.png	86.87154293060303	1.3611438274383545
31	49.97661995887756	response	0	j		29.0	/home/egter/Projects/stimuli/pictures/R_S_yt-qazCIJqjxUU_3.png	88.22451090812683	
32	49.984795808792114	picture	0		98.0	30.0	/home/egter/Projects/stimuli/pictures/R_S_yt-BCFGCganiuE_8.png	88.23268675804138	0.819378137588501
32	50.786494970321655	response	0	j		30.0	/home/egter/Projects/stimuli/pictures/R_S_yt-BCFGCganiuE_8.png	89.03438591957092	
33	50.804173946380615	picture	0		210.0	31.0	/home/egter/Projects/stimuli/pictures/S_yt-vOC7cBvdSw8_11.png	89.05206489562988	1.7499518394470215
33	52.54326391220093	response	0	k		31.0	/home/egter/Projects/stimuli/pictures/S_yt-vOC7cBvdSw8_11.png	90.7911548614502	
34	52.55412578582764	picture	0		229.0	32.0	/home/egter/Projects/stimuli/pictures/R_S_yt-v8e_DlCsP4w_10.png	90.8020167350769	1.909745216369629
34	54.45159101486206	response	0	j		32.0	/home/egter/Projects/stimuli/pictures/R_S_yt-v8e_DlCsP4w_10.png	92.69948196411133	
35	54.463871002197266	picture	0		204.0	33.0	/home/egter/Projects/stimuli/pictures/S_yt-nMWqezngycw_10.png	92.71176195144653	1.7013859748840332
35	56.15151500701904	response	0	j		33.0	/home/egter/Projects/stimuli/pictures/S_yt-nMWqezngycw_10.png	94.39940595626831	
36	56.1652569770813	picture	0		256.0	34.0	/home/egter/Projects/stimuli/pictures/S_yt-be6x_357tjE_41.png	94.41314792633057	2.13885498046875
36	58.29324293136597	response	0	k		34.0	/home/egter/Projects/stimuli/pictures/S_yt-be6x_357tjE_41.png	96.54113388061523	
37	58.30411195755005	picture	0		111.0	35.0	/home/egter/Projects/stimuli/pictures/ILSVRC2012_val_00034402.JPEG	96.55200290679932	0.923598051071167
37	59.21134901046753	response	0	k		35.0	/home/egter/Projects/stimuli/pictures/ILSVRC2012_val_00034402.JPEG	97.4592399597168	
38	59.227710008621216	picture	0		141.0	36.0	/home/egter/Projects/stimuli/pictures/n03891251_1054.JPEG	97.47560095787048	1.1736907958984375
38	60.386401891708374	response	0	k		36.0	/home/egter/Projects/stimuli/pictures/n03891251_1054.JPEG	98.63429284095764	
39	60.40140080451965	picture	0		236.0	37.0	/home/egter/Projects/stimuli/pictures/n01692333_12510.JPEG	98.64929175376892	1.972154140472412
39	62.36000895500183	response	0	k		37.0	/home/egter/Projects/stimuli/pictures/n01692333_12510.JPEG	100.6078999042511	
40	62.373554944992065	picture	0		110.0	38.0	/home/egter/Projects/stimuli/pictures/n02704792_12818.JPEG	100.62144589424133	0.9235808849334717
40	63.28484487533569	response	0	k		38.0	/home/egter/Projects/stimuli/pictures/n02704792_12818.JPEG	101.53273582458496	
41	63.29713582992554	picture	0		108.0	39.0	/home/egter/Projects/stimuli/pictures/S_yt-2pRKCSgdXXU_30.png	101.5450267791748	0.8959310054779053
41	64.18481588363647	response	0	j		39.0	/home/egter/Projects/stimuli/pictures/S_yt-2pRKCSgdXXU_30.png	102.43270683288574	
42	64.19306683540344	picture	0		105.0	40.0	/home/egter/Projects/stimuli/pictures/S_production_ID_4468823.png	102.44095778465271	0.8750190734863281
42	65.0598669052124	response	0	k		40.0	/home/egter/Projects/stimuli/pictures/S_production_ID_4468823.png	103.30775785446167	
43	65.06808590888977	picture	0		96.0	41.0	/home/egter/Projects/stimuli/pictures/R_S_ILSVRC2015_train_00371012.png	103.31597685813904	0.8054399490356445
43	65.85985279083252	response	0	j		41.0	/home/egter/Projects/stimuli/pictures/R_S_ILSVRC2015_train_00371012.png	104.10774374008179	
44	65.87352585792542	picture	0		98.0	42.0	/home/egter/Projects/stimuli/pictures/S_yt-_6j2NXrB-zE_28.png	104.12141680717468	0.8195221424102783
44	66.68483781814575	response	0	j		42.0	/home/egter/Projects/stimuli/pictures/S_yt-_6j2NXrB-zE_28.png	104.93272876739502	
45	66.6930480003357	picture	0		103.0	43.0	/home/egter/Projects/stimuli/pictures/n02281787_6585.JPEG	104.94093894958496	0.8610448837280273
45	67.54319596290588	response	0	k		43.0	/home/egter/Projects/stimuli/pictures/n02281787_6585.JPEG	105.79108691215515	
46	67.55409288406372	picture	0		87.0	44.0	/home/egter/Projects/stimuli/pictures/n03777568_12200.JPEG	105.80198383331299	0.722296953201294
46	68.26814484596252	response	0	k		44.0	/home/egter/Projects/stimuli/pictures/n03777568_12200.JPEG	106.51603579521179	
47	68.27638983726501	picture	0		102.0	45.0	/home/egter/Projects/stimuli/pictures/R_S_yt-TvU-aYjNa2c_21.png	106.52428078651428	0.8540310859680176
47	69.11819982528687	response	0	j		45.0	/home/egter/Projects/stimuli/pictures/R_S_yt-TvU-aYjNa2c_21.png	107.36609077453613	
48	69.13042092323303	picture	0		98.0	46.0	/home/egter/Projects/stimuli/pictures/S_yt-NqyG4Ar2JWo_10.png	107.3783118724823	0.812628984451294
48	69.93478679656982	response	0	j		46.0	/home/egter/Projects/stimuli/pictures/S_yt-NqyG4Ar2JWo_10.png	108.18267774581909	
49	69.94304990768433	picture	0		188.0	47.0	/home/egter/Projects/stimuli/pictures/n02493509_9319.JPEG	108.1909408569336	1.5692980289459229
49	71.5014979839325	response	0	k		47.0	/home/egter/Projects/stimuli/pictures/n02493509_9319.JPEG	109.74938893318176	
50	71.51234793663025	picture	0		201.0	48.0	/home/egter/Projects/stimuli/pictures/n04238763_5409.JPEG	109.76023888587952	1.6735429763793945
50	73.17650485038757	response	0	j		48.0	/home/egter/Projects/stimuli/pictures/n04238763_5409.JPEG	111.42439579963684	
51	73.18589091300964	picture	0		137.0	49.0	/home/egter/Projects/stimuli/pictures/n01829413_7315.JPEG	111.43378186225891	1.14581298828125
51	74.31813883781433	response	0	k		49.0	/home/egter/Projects/stimuli/pictures/n01829413_7315.JPEG	112.5660297870636	
52	74.3317039012909	picture	0		79.0	50.0	/home/egter/Projects/stimuli/pictures/S_yt-bmGWhOCsvJo_128.png	112.57959485054016	0.6667048931121826
52	74.98483490943909	response	0	j		50.0	/home/egter/Projects/stimuli/pictures/S_yt-bmGWhOCsvJo_128.png	113.23272585868835	
53	74.99840879440308	picture	0		91.0	51.0	/home/egter/Projects/stimuli/pictures/R_S_yt-x7TqP8l4lCA_39.png	113.24629974365234	0.7638790607452393
53	75.75150299072266	response	0	j		51.0	/home/egter/Projects/stimuli/pictures/R_S_yt-x7TqP8l4lCA_39.png	113.99939393997192	
54	75.76228785514832	picture	0		85.0	52.0	/home/egter/Projects/stimuli/pictures/R_S_yt-Pc1ZlCvsPpc_5.png	114.01017880439758	0.7083330154418945
54	76.4598159790039	response	0	j		52.0	/home/egter/Projects/stimuli/pictures/R_S_yt-Pc1ZlCvsPpc_5.png	114.70770692825317	
55	76.47062087059021	picture	0		116.0	53.0	/home/egter/Projects/stimuli/pictures/S_yt-a4T5fdpRKlQ_125.png	114.71851181983948	0.9652421474456787
55	77.42640399932861	response	0	j		53.0	/home/egter/Projects/stimuli/pictures/S_yt-a4T5fdpRKlQ_125.png	115.67429494857788	
56	77.43586301803589	picture	0		174.0	54.0	/home/egter/Projects/stimuli/pictures/R_S_yt-1ruRqcfBMw0_21.png	115.68375396728516	1.4513847827911377
56	78.87645697593689	response	0	j		54.0	/home/egter/Projects/stimuli/pictures/R_S_yt-1ruRqcfBMw0_21.png	117.12434792518616	
57	78.88724780082703	picture	0		135.0	55.0	/home/egter/Projects/stimuli/pictures/n09256479_671.JPEG	117.1351387500763	1.1249480247497559
57	79.99462080001831	response	0	k		55.0	/home/egter/Projects/stimuli/pictures/n09256479_671.JPEG	118.24251174926758	
58	80.01219582557678	picture	0		147.0	56.0	/home/egter/Projects/stimuli/pictures/n01694178_9996.JPEG	118.26008677482605	1.222548007965088
58	81.22646880149841	response	0	k		56.0	/home/egter/Projects/stimuli/pictures/n01694178_9996.JPEG	119.47435975074768	
59	81.23474383354187	picture	0		119.0	57.0	/home/egter/Projects/stimuli/pictures/S_yt-CJeyOFsd3lg_80.png	119.48263478279114	0.9927551746368408
59	82.21142482757568	response	0	j		57.0	/home/egter/Projects/stimuli/pictures/S_yt-CJeyOFsd3lg_80.png	120.45931577682495	
60	82.22749900817871	picture	0		82.0	58.0	/home/egter/Projects/stimuli/pictures/R_S_wc-b4Oquu3WQPRz_45.png	120.47538995742798	0.6874899864196777
60	82.90146684646606	response	0	j		58.0	/home/egter/Projects/stimuli/pictures/R_S_wc-b4Oquu3WQPRz_45.png	121.14935779571533	
61	82.91498899459839	picture	0		193.0	59.0	/home/egter/Projects/stimuli/pictures/n04326547_7194.JPEG	121.16287994384766	1.6113369464874268
61	84.51813793182373	response	0	j		59.0	/home/egter/Projects/stimuli/pictures/n04326547_7194.JPEG	122.766028881073	
62	84.52632594108582	picture	0		84.0	60.0	/home/egter/Projects/stimuli/pictures/S_yt-XbNHfZjXuVM_43.png	122.77421689033508	0.7012200355529785
62	85.21129393577576	response	0	j		60.0	/home/egter/Projects/stimuli/pictures/S_yt-XbNHfZjXuVM_43.png	123.45918488502502	
63	85.2275459766388	picture	0		135.0	61.0	/home/egter/Projects/stimuli/pictures/R_S_yt-K-iCphzt_RE_17.png	123.47543692588806	1.1249289512634277
63	86.3431088924408	response	0	j		61.0	/home/egter/Projects/stimuli/pictures/R_S_yt-K-iCphzt_RE_17.png	124.59099984169006	
64	86.35247492790222	picture	0		99.0	62.0	/home/egter/Projects/stimuli/pictures/ILSVRC2012_val_00000725.JPEG	124.60036587715149	0.8263239860534668
64	87.16810584068298	response	0	k		62.0	/home/egter/Projects/stimuli/pictures/ILSVRC2012_val_00000725.JPEG	125.41599678993225	
65	87.17879891395569	picture	0		171.0	63.0	/home/egter/Projects/stimuli/pictures/S_yt-Op12PQ4bqTw_11.png	125.42668986320496	1.4236810207366943
65	88.59310793876648	response	0	k		63.0	/home/egter/Projects/stimuli/pictures/S_yt-Op12PQ4bqTw_11.png	126.84099888801575	
66	88.60247993469238	picture	0		120.0	64.0	/home/egter/Projects/stimuli/pictures/S_yt-gaXgXGEanCk_140.png	126.85037088394165	0.9999480247497559
66	89.59310388565063	response	0	j		64.0	/home/egter/Projects/stimuli/pictures/S_yt-gaXgXGEanCk_140.png	127.8409948348999	
67	89.60242795944214	picture	0		185.0	65.0	/home/egter/Projects/stimuli/pictures/n03527444_23205.JPEG	127.8503189086914	1.541640043258667
67	91.13472700119019	response	0	k		65.0	/home/egter/Projects/stimuli/pictures/n03527444_23205.JPEG	129.38261795043945	
68	91.1440680027008	picture	0		141.0	66.0	/home/egter/Projects/stimuli/pictures/S_yt-fTlJIM1TtOw_28.png	129.39195895195007	1.1738779544830322
68	92.30974578857422	response	0	k		66.0	/home/egter/Projects/stimuli/pictures/S_yt-fTlJIM1TtOw_28.png	130.5576367378235	
69	92.31794595718384	picture	0		125.0	67.0	/home/egter/Projects/stimuli/pictures/n03930630_10328.JPEG	130.5658369064331	1.0416688919067383
69	93.35136198997498	response	0	k		67.0	/home/egter/Projects/stimuli/pictures/n03930630_10328.JPEG	131.59925293922424	
70	93.35961484909058	picture	0		150.0	68.0	/home/egter/Projects/stimuli/pictures/S_yt-uS1wBwS3Emo_10.png	131.60750579833984	1.2499620914459229
70	94.59462785720825	response	0	j		68.0	/home/egter/Projects/stimuli/pictures/S_yt-uS1wBwS3Emo_10.png	132.84251880645752	
71	94.6095769405365	picture	0		90.0	69.0	/home/egter/Projects/stimuli/pictures/n01917289_1596.JPEG	132.85746788978577	0.7500419616699219
71	95.35135889053345	response	0	k		69.0	/home/egter/Projects/stimuli/pictures/n01917289_1596.JPEG	133.59924983978271	
72	95.35961890220642	picture	0		202.0	70.0	/home/egter/Projects/stimuli/pictures/S_ILSVRC2015_train_00411000.png	133.6075098514557	1.6872060298919678
72	97.03473496437073	response	0	k		70.0	/home/egter/Projects/stimuli/pictures/S_ILSVRC2015_train_00411000.png	135.28262591362	
73	97.04682493209839	picture	0		89.0	71.0	/home/egter/Projects/stimuli/pictures/S_b4-3.png	135.29471588134766	0.7430469989776611
73	97.77640295028687	response	0	j		71.0	/home/egter/Projects/stimuli/pictures/S_b4-3.png	136.02429389953613	
74	97.78987193107605	picture	0		441.0	72.0	/home/egter/Projects/stimuli/pictures/S_ILSVRC2015_train_00599000.png	136.03776288032532	3.680518865585327
74	101.45968985557556	response	0	j		72.0	/home/egter/Projects/stimuli/pictures/S_ILSVRC2015_train_00599000.png	139.70758080482483	
75	101.47039079666138	picture	0		143.0	73.0	/home/egter/Projects/stimuli/pictures/n02672831_16367.JPEG	139.71828174591064	1.1944022178649902
75	102.65136981010437	response	0	k		73.0	/home/egter/Projects/stimuli/pictures/n02672831_16367.JPEG	140.89926075935364	
76	102.66479301452637	picture	0		324.0	74.0	/home/egter/Projects/stimuli/pictures/S_yt-IOA_DhIDXi8_5.png	140.91268396377563	2.7083139419555664
76	105.35970401763916	response	0	j		74.0	/home/egter/Projects/stimuli/pictures/S_yt-IOA_DhIDXi8_5.png	143.60759496688843	
77	105.37310695648193	picture	0		144.0	75.0	/home/egter/Projects/stimuli/pictures/n02704792_11366.JPEG	143.6209979057312	1.2083559036254883
77	106.56799793243408	response	0	k		75.0	/home/egter/Projects/stimuli/pictures/n02704792_11366.JPEG	144.81588888168335	
78	106.58146286010742	picture	0		209.0	76.0	/home/egter/Projects/stimuli/pictures/n01744401_6425.JPEG	144.8293538093567	1.7499480247497559
78	108.31802582740784	response	0	k		76.0	/home/egter/Projects/stimuli/pictures/n01744401_6425.JPEG	146.5659167766571	
79	108.33141088485718	picture	0		91.0	77.0	/home/egter/Projects/stimuli/pictures/R_S_yt-FsXOl6JjzSY_15.png	146.57930183410645	0.7638571262359619
79	109.08470678329468	response	0	j		77.0	/home/egter/Projects/stimuli/pictures/R_S_yt-FsXOl6JjzSY_15.png	147.33259773254395	
80	109.09526801109314	picture	0		125.0	78.0	/home/egter/Projects/stimuli/pictures/n02814533_13155.JPEG	147.3431589603424	1.041686773300171
80	110.12631893157959	response	0	k		78.0	/home/egter/Projects/stimuli/pictures/n02814533_13155.JPEG	148.37420988082886	
81	110.13695478439331	picture	0		189.0	79.0	/home/egter/Projects/stimuli/pictures/n02074367_2348.JPEG	148.38484573364258	1.5763921737670898
81	111.70132493972778	response	0	k		79.0	/home/egter/Projects/stimuli/pictures/n02074367_2348.JPEG	149.94921588897705	
82	111.7133469581604	picture	0		74.0	80.0	/home/egter/Projects/stimuli/pictures/R_S_yt-SkIJvj6KNOo_33.png	149.96123790740967	0.6249439716339111
82	112.32631587982178	response	0	j		80.0	/home/egter/Projects/stimuli/pictures/R_S_yt-SkIJvj6KNOo_33.png	150.57420682907104	
83	112.33829092979431	picture	0		150.0	81.0	/home/egter/Projects/stimuli/pictures/R_S_ILSVRC2015_train_00165013.png	150.58618187904358	1.2500488758087158
83	113.57636499404907	response	0	j		81.0	/home/egter/Projects/stimuli/pictures/R_S_ILSVRC2015_train_00165013.png	151.82425594329834	
84	113.58833980560303	picture	0		159.0	82.0	/home/egter/Projects/stimuli/pictures/S_I004_C014_SDR_2K_AVC.png	151.8362307548523	1.3263800144195557
84	114.90132999420166	response	0	k		82.0	/home/egter/Projects/stimuli/pictures/S_I004_C014_SDR_2K_AVC.png	153.14922094345093	
85	114.91471982002258	picture	0		106.0	83.0	/home/egter/Projects/stimuli/pictures/R_S_ILSVRC2015_test_00001002.png	153.16261076927185	0.8888161182403564
85	115.79299283027649	response	0	j		83.0	/home/egter/Projects/stimuli/pictures/R_S_ILSVRC2015_test_00001002.png	154.04088377952576	
86	115.80353593826294	picture	0		82.0	84.0	/home/egter/Projects/stimuli/pictures/S_yt-zlbtESb7Fcw_28.png	154.0514268875122	0.6809799671173096
86	116.47631287574768	response	0	j		84.0	/home/egter/Projects/stimuli/pictures/S_yt-zlbtESb7Fcw_28.png	154.72420382499695	
87	116.48451590538025	picture	0		159.0	85.0	/home/egter/Projects/stimuli/pictures/n03792972_985.JPEG	154.73240685462952	1.3259611129760742
87	117.80127096176147	response	0	k		85.0	/home/egter/Projects/stimuli/pictures/n03792972_985.JPEG	156.04916191101074	
88	117.81047701835632	picture	0		112.0	86.0	/home/egter/Projects/stimuli/pictures/R_S_yt-zSSnQYeO_DE_338.png	156.0583679676056	0.9375209808349609
88	118.73465299606323	response	0	j		86.0	/home/egter/Projects/stimuli/pictures/R_S_yt-zSSnQYeO_DE_338.png	156.9825439453125	
89	118.74799799919128	picture	0		101.0	87.0	/home/egter/Projects/stimuli/pictures/S_yt-5Mnpi51EFok_77.png	156.99588894844055	0.8472049236297607
89	119.58464193344116	response	0	j		87.0	/home/egter/Projects/stimuli/pictures/S_yt-5Mnpi51EFok_77.png	157.83253288269043	
90	119.59520292282104	picture	0		103.0	88.0	/home/egter/Projects/stimuli/pictures/S_wc-TAGpcap1KdAS_212.png	157.8430938720703	0.8611629009246826
90	120.44292688369751	response	0	j		88.0	/home/egter/Projects/stimuli/pictures/S_wc-TAGpcap1KdAS_212.png	158.69081783294678	
91	120.45636582374573	picture	0		203.0	89.0	/home/egter/Projects/stimuli/pictures/n01667114_934.JPEG	158.704256772995	1.694784164428711
91	122.14297080039978	response	0	j		89.0	/home/egter/Projects/stimuli/pictures/n01667114_934.JPEG	160.39086174964905	
92	122.15114998817444	picture	0		102.0	90.0	/home/egter/Projects/stimuli/pictures/n02086079_15865.JPEG	160.3990409374237	0.8537499904632568
92	122.99295687675476	response	0	k		90.0	/home/egter/Projects/stimuli/pictures/n02086079_15865.JPEG	161.24084782600403	
93	123.0048999786377	picture	0		227.0	91.0	/home/egter/Projects/stimuli/pictures/S_yt-U38nodRpSOA_54.png	161.25279092788696	1.8888838291168213
93	124.88473200798035	response	0	k		91.0	/home/egter/Projects/stimuli/pictures/S_yt-U38nodRpSOA_54.png	163.13262295722961	
94	124.89378380775452	picture	0		114.0	92.0	/home/egter/Projects/stimuli/pictures/S_b3TCugtX0h0_108.png	163.14167475700378	0.9513530731201172
94	125.82779479026794	response	0	j		92.0	/home/egter/Projects/stimuli/pictures/S_b3TCugtX0h0_108.png	164.0756857395172	
95	125.84513688087463	picture	0		90.0	93.0	/home/egter/Projects/stimuli/pictures/R_S_82eJpVKGnC0_188.png	164.0930278301239	0.7499949932098389
95	126.58456897735596	response	0	j		93.0	/home/egter/Projects/stimuli/pictures/R_S_82eJpVKGnC0_188.png	164.83245992660522	
96	126.59513187408447	picture	0		112.0	94.0	/home/egter/Projects/stimuli/pictures/R_S_yt-Fm97IY0Z2LU_110.png	164.84302282333374	0.944404125213623
96	127.52627301216125	response	0	j		94.0	/home/egter/Projects/stimuli/pictures/R_S_yt-Fm97IY0Z2LU_110.png	165.77416396141052	
97	127.5395359992981	picture	0		262.0	95.0	/home/egter/Projects/stimuli/pictures/n02514041_13519.JPEG	165.78742694854736	2.187516927719116
97	129.71789598464966	response	0	j		95.0	/home/egter/Projects/stimuli/pictures/n02514041_13519.JPEG	167.96578693389893	
98	129.7270529270172	picture	0		160.0	96.0	/home/egter/Projects/stimuli/pictures/R_S_ILSVRC2015_train_00628000.png	167.97494387626648	1.333306074142456
98	131.0512068271637	response	0	j		96.0	/home/egter/Projects/stimuli/pictures/R_S_ILSVRC2015_train_00628000.png	169.29909777641296	
99	131.06035900115967	picture	0		122.0	97.0	/home/egter/Projects/stimuli/pictures/S_ILSVRC2015_train_00416000.png	169.30824995040894	1.0241169929504395
99	132.0679578781128	response	0	j		97.0	/home/egter/Projects/stimuli/pictures/S_ILSVRC2015_train_00416000.png	170.31584882736206	
100	132.0844759941101	picture	0		92.0	98.0	/home/egter/Projects/stimuli/pictures/n01667778_4157.JPEG	170.33236694335938	0.7674968242645264
100	132.84306001663208	response	0	j		98.0	/home/egter/Projects/stimuli/pictures/n01667778_4157.JPEG	171.09095096588135	
101	132.85197281837463	picture	0		131.0	99.0	/home/egter/Projects/stimuli/pictures/S_yt-fT8CS1nszUE_355.png	171.0998637676239	1.0907940864562988
101	133.93456196784973	response	0	j		99.0	/home/egter/Projects/stimuli/pictures/S_yt-fT8CS1nszUE_355.png	172.182452917099	
102	133.94276690483093	picture	0		91.0	100.0	/home/egter/Projects/stimuli/pictures/S_ILSVRC2015_train_00219004.png	172.1906578540802	0.7634000778198242
102	134.69291996955872	response	0	j		100.0	/home/egter/Projects/stimuli/pictures/S_ILSVRC2015_train_00219004.png	172.94081091880798	
103	134.70616698265076	picture	0		193.0	101.0	/home/egter/Projects/stimuli/pictures/n07684084_4317.JPEG	172.95405793190002	1.6250059604644775
103	136.31789898872375	response	0	k		101.0	/home/egter/Projects/stimuli/pictures/n07684084_4317.JPEG	174.56578993797302	
104	136.33117294311523	picture	0		144.0	102.0	/home/egter/Projects/stimuli/pictures/S_PA_A002_C009_SDR_20190730_ALT01_SDR_2K_AVC.png	174.5790638923645	1.2083208560943604
104	137.52622389793396	response	0	j		102.0	/home/egter/Projects/stimuli/pictures/S_PA_A002_C009_SDR_20190730_ALT01_SDR_2K_AVC.png	175.77411484718323	
105	137.5394937992096	picture	0		122.0	103.0	/home/egter/Projects/stimuli/pictures/n03868242_1825.JPEG	175.78738474845886	1.0208160877227783
105	138.55120992660522	response	0	k		103.0	/home/egter/Projects/stimuli/pictures/n03868242_1825.JPEG	176.7991008758545	
106	138.56030988693237	picture	0		101.0	104.0	/home/egter/Projects/stimuli/pictures/R_S_yt-TqVe93JCGmM_12.png	176.80820083618164	0.8407719135284424
106	139.39284086227417	response	0	j		104.0	/home/egter/Projects/stimuli/pictures/R_S_yt-TqVe93JCGmM_12.png	177.64073181152344	
107	139.40108180046082	picture	0		126.0	105.0	/home/egter/Projects/stimuli/pictures/R_S_yt-y6zr69M0yHI_76.png	177.64897274971008	1.0550451278686523
107	140.43606901168823	response	0	j		105.0	/home/egter/Projects/stimuli/pictures/R_S_yt-y6zr69M0yHI_76.png	178.6839599609375	
108	140.45612692832947	picture	0		124.0	106.0	/home/egter/Projects/stimuli/pictures/R_S_ILSVRC2015_train_00364000.png	178.70401787757874	1.0416359901428223
108	141.48455095291138	response	0	j		106.0	/home/egter/Projects/stimuli/pictures/R_S_ILSVRC2015_train_00364000.png	179.73244190216064	
109	141.4977629184723	picture	0		113.0	107.0	/home/egter/Projects/stimuli/pictures/n04552348_5448.JPEG	179.74565386772156	0.9513740539550781
109	142.43533086776733	response	0	k		107.0	/home/egter/Projects/stimuli/pictures/n04552348_5448.JPEG	180.6832218170166	
110	142.44913697242737	picture	0		237.0	108.0	/home/egter/Projects/stimuli/pictures/R_S_wc-TAGpcap1KdAS_212.png	180.69702792167664	1.9791908264160156
110	144.41791200637817	response	0	j		108.0	/home/egter/Projects/stimuli/pictures/R_S_wc-TAGpcap1KdAS_212.png	182.66580295562744	
111	144.42832779884338	picture	0		159.0	109.0	/home/egter/Projects/stimuli/pictures/n03891251_7811.JPEG	182.67621874809265	1.326308012008667
111	145.74286580085754	response	0	k		109.0	/home/egter/Projects/stimuli/pictures/n03891251_7811.JPEG	183.9907567501068	
112	145.75463581085205	picture	0		105.0	110.0	/home/egter/Projects/stimuli/pictures/S_yt-y6zr69M0yHI_76.png	184.00252676010132	0.8749971389770508
112	146.61785197257996	response	0	j		110.0	/home/egter/Projects/stimuli/pictures/S_yt-y6zr69M0yHI_76.png	184.86574292182922	
113	146.6296329498291	picture	0		201.0	111.0	/home/egter/Projects/stimuli/pictures/n01753488_9363.JPEG	184.87752389907837	1.6736948490142822
113	148.29280591011047	response	0	k		111.0	/home/egter/Projects/stimuli/pictures/n01753488_9363.JPEG	186.54069685935974	
114	148.30332779884338	picture	0		288.0	112.0	/home/egter/Projects/stimuli/pictures/S_video-9.png	186.55121874809265	2.4027211666107178
114	150.69278287887573	response	0	j		112.0	/home/egter/Projects/stimuli/pictures/S_video-9.png	188.940673828125	
115	150.7060489654541	picture	0		239.0	113.0	/home/egter/Projects/stimuli/pictures/n02116738_10956.JPEG	188.95393991470337	1.9999439716339111
115	152.69275498390198	response	0	k		113.0	/home/egter/Projects/stimuli/pictures/n02116738_10956.JPEG	190.94064593315125	
116	152.705992937088	picture	0		114.0	114.0	/home/egter/Projects/stimuli/pictures/S_yt-11VGDAOVEag_8.png	190.95388388633728	0.9533698558807373
116	153.64359998703003	response	0	j		114.0	/home/egter/Projects/stimuli/pictures/S_yt-11VGDAOVEag_8.png	191.8914909362793	
117	153.65936279296875	picture	0		182.0	115.0	/home/egter/Projects/stimuli/pictures/n03792782_1030.JPEG	191.90725374221802	1.518846035003662
117	155.1677749156952	response	0	k		115.0	/home/egter/Projects/stimuli/pictures/n03792782_1030.JPEG	193.41566586494446	
118	155.1782088279724	picture	0		128.0	116.0	/home/egter/Projects/stimuli/pictures/ILSVRC2012_val_00039884.JPEG	193.42609977722168	1.0694479942321777
118	156.2284288406372	response	0	k		116.0	/home/egter/Projects/stimuli/pictures/ILSVRC2012_val_00039884.JPEG	194.47631978988647	
119	156.2476568222046	picture	0		123.0	117.0	/home/egter/Projects/stimuli/pictures/R_S_yt-nMWqezngycw_10.png	194.49554777145386	1.0208330154418945
119	157.2594699859619	response	0	j		117.0	/home/egter/Projects/stimuli/pictures/R_S_yt-nMWqezngycw_10.png	195.50736093521118	
120	157.26848983764648	picture	0		108.0	118.0	/home/egter/Projects/stimuli/pictures/n06794110_5840.JPEG	195.51638078689575	0.9027409553527832
120	158.15950083732605	response	0	k		118.0	/home/egter/Projects/stimuli/pictures/n06794110_5840.JPEG	196.40739178657532	
121	158.17123079299927	picture	0		309.0	119.0	/home/egter/Projects/stimuli/pictures/n02510455_1421.JPEG	196.41912174224854	2.5763471126556396
121	160.73446989059448	response	0	j		119.0	/home/egter/Projects/stimuli/pictures/n02510455_1421.JPEG	198.98236083984375	
122	160.7475779056549	picture	0		87.0	120.0	/home/egter/Projects/stimuli/pictures/R_S_yt-hZxbKZ1WCVg_24.png	198.99546885490417	0.7222690582275391
122	161.45261979103088	response	0	j		120.0	/home/egter/Projects/stimuli/pictures/R_S_yt-hZxbKZ1WCVg_24.png	199.70051074028015	
123	161.46984696388245	picture	0		131.0	121.0	/home/egter/Projects/stimuli/pictures/S_yt-O6FS0xnF0CU_106.png	199.7177379131317	1.097810983657837
123	162.55110883712769	response	0	j		121.0	/home/egter/Projects/stimuli/pictures/S_yt-O6FS0xnF0CU_106.png	200.79899978637695	
124	162.56765794754028	picture	0		116.0	122.0	/home/egter/Projects/stimuli/pictures/ILSVRC2012_val_00048488.JPEG	200.81554889678955	0.9715888500213623
124	163.5260968208313	response	0	k		122.0	/home/egter/Projects/stimuli/pictures/ILSVRC2012_val_00048488.JPEG	201.77398777008057	
125	163.53924679756165	picture	0		105.0	123.0	/home/egter/Projects/stimuli/pictures/R_S_yt-rY_ra5Tb9XU_51.png	201.7871377468109	0.8819971084594727
125	164.4094638824463	response	0	j		123.0	/home/egter/Projects/stimuli/pictures/R_S_yt-rY_ra5Tb9XU_51.png	202.65735483169556	
126	164.42124390602112	picture	0		78.0	124.0	/home/egter/Projects/stimuli/pictures/R_S_yt-XbNHfZjXuVM_43.png	202.66913485527039	0.6547629833221436
126	165.06015992164612	response	0	j		124.0	/home/egter/Projects/stimuli/pictures/R_S_yt-XbNHfZjXuVM_43.png	203.30805087089539	
127	165.07600688934326	picture	0		145.0	125.0	/home/egter/Projects/stimuli/pictures/n01737021_13157.JPEG	203.32389783859253	1.2132189273834229
127	166.2761127948761	response	0	j		125.0	/home/egter/Projects/stimuli/pictures/n01737021_13157.JPEG	204.52400374412537	
128	166.28922581672668	picture	0		213.0	126.0	/home/egter/Projects/stimuli/pictures/S_yt-djFogwgoaEk_94.png	204.53711676597595	1.7708370685577393
128	168.0445020198822	response	0	j		126.0	/home/egter/Projects/stimuli/pictures/S_yt-djFogwgoaEk_94.png	206.29239296913147	
129	168.06006288528442	picture	0		129.0	127.0	/home/egter/Projects/stimuli/pictures/S_yt-k4B_NtWn41Y_169.png	206.3079538345337	1.0763370990753174
129	169.1260929107666	response	0	j		127.0	/home/egter/Projects/stimuli/pictures/S_yt-k4B_NtWn41Y_169.png	207.37398386001587	
130	169.13639998435974	picture	0		123.0	128.0	/home/egter/Projects/stimuli/pictures/S_ILSVRC2015_train_00574004.png	207.384290933609	1.0277698040008545
130	170.15111899375916	response	0	j		128.0	/home/egter/Projects/stimuli/pictures/S_ILSVRC2015_train_00574004.png	208.39900994300842	
131	170.1641697883606	picture	0		142.0	129.0	/home/egter/Projects/stimuli/pictures/S_comp_DB_D011_D009_SIGNCMP_v15_6Mbps.png	208.41206073760986	1.1805531978607178
131	171.33444380760193	response	0	j		129.0	/home/egter/Projects/stimuli/pictures/S_comp_DB_D011_D009_SIGNCMP_v15_6Mbps.png	209.5823347568512	
132	171.3447229862213	picture	0		143.0	130.0	/home/egter/Projects/stimuli/pictures/S_yt-SS7pSyb0_d0_32.png	209.59261393547058	1.194437026977539
132	172.52616095542908	response	0	j		130.0	/home/egter/Projects/stimuli/pictures/S_yt-SS7pSyb0_d0_32.png	210.77405190467834	
133	172.53916001319885	picture	0		103.0	131.0	/home/egter/Projects/stimuli/pictures/S_yt-fq7m668hqZo_39.png	210.78705096244812	0.8541908264160156
133	173.38440084457397	response	0	j		131.0	/home/egter/Projects/stimuli/pictures/S_yt-fq7m668hqZo_39.png	211.63229179382324	
134	173.39335083961487	picture	0		95.0	132.0	/home/egter/Projects/stimuli/pictures/n04335435_7886.JPEG	211.64124178886414	0.7916100025177002
134	174.17608880996704	response	0	k		132.0	/home/egter/Projects/stimuli/pictures/n04335435_7886.JPEG	212.4239797592163	
135	174.18496084213257	picture	0		115.0	133.0	/home/egter/Projects/stimuli/pictures/n03188531_23390.JPEG	212.43285179138184	0.9583051204681396
135	175.1344509124756	response	0	k		133.0	/home/egter/Projects/stimuli/pictures/n03188531_23390.JPEG	213.38234186172485	
136	175.1432659626007	picture	0		103.0	134.0	/home/egter/Projects/stimuli/pictures/R_S_yt-bhiGMKSAz2g_370.png	213.39115691184998	0.8611438274383545
136	175.9927589893341	response	0	j		134.0	/home/egter/Projects/stimuli/pictures/R_S_yt-bhiGMKSAz2g_370.png	214.24064993858337	
137	176.00440979003906	picture	0		142.0	135.0	/home/egter/Projects/stimuli/pictures/n03873416_6703.JPEG	214.25230073928833	1.1805331707000732
137	177.17603397369385	response	0	j		135.0	/home/egter/Projects/stimuli/pictures/n03873416_6703.JPEG	215.42392492294312	
138	177.18494296073914	picture	0		92.0	136.0	/home/egter/Projects/stimuli/pictures/n02490219_12145.JPEG	215.4328339099884	0.7708089351654053
138	177.9426829814911	response	0	k		136.0	/home/egter/Projects/stimuli/pictures/n02490219_12145.JPEG	216.19057393074036	
139	177.95575189590454	picture	0		189.0	137.0	/home/egter/Projects/stimuli/pictures/n09399592_24758.JPEG	216.2036428451538	1.5785601139068604
139	179.51842784881592	response	0	k		137.0	/home/egter/Projects/stimuli/pictures/n09399592_24758.JPEG	217.76631879806519	
140	179.5343120098114	picture	0		158.0	138.0	/home/egter/Projects/stimuli/pictures/n07579787_11484.JPEG	217.78220295906067	1.3172597885131836
140	180.83591389656067	response	0	k		138.0	/home/egter/Projects/stimuli/pictures/n07579787_11484.JPEG	219.08380484580994	
141	180.85157179832458	picture	0		228.0	139.0	/home/egter/Projects/stimuli/pictures/R_S_-vPHq-7BJ70_15.png	219.09946274757385	1.9027671813964844
141	182.74275279045105	response	0	j		139.0	/home/egter/Projects/stimuli/pictures/R_S_-vPHq-7BJ70_15.png	220.99064373970032	
142	182.75433897972107	picture	0		137.0	140.0	/home/egter/Projects/stimuli/pictures/n04599235_8085.JPEG	221.00222992897034	1.1388800144195557
142	183.88440585136414	response	0	k		140.0	/home/egter/Projects/stimuli/pictures/n04599235_8085.JPEG	222.1322968006134	
143	183.89321899414062	picture	0		211.0	141.0	/home/egter/Projects/stimuli/pictures/n04428191_10621.JPEG	222.1411099433899	1.763861894607544
143	185.6358938217163	response	0	k		141.0	/home/egter/Projects/stimuli/pictures/n04428191_10621.JPEG	223.88378477096558	
144	185.65708088874817	picture	0		296.0	142.0	/home/egter/Projects/stimuli/pictures/n02091635_12275.JPEG	223.90497183799744	2.4721949100494385
144	188.11770296096802	response	0	k		142.0	/home/egter/Projects/stimuli/pictures/n02091635_12275.JPEG	226.36559391021729	
145	188.1292757987976	picture	0		158.0	143.0	/home/egter/Projects/stimuli/pictures/S_yt-mL3MuCfKtdY_79.png	226.37716674804688	1.3263680934906006
145	189.4349398612976	response	0	j		143.0	/home/egter/Projects/stimuli/pictures/S_yt-mL3MuCfKtdY_79.png	227.68283081054688	
146	189.4556438922882	picture	0		117.0	144.0	/home/egter/Projects/stimuli/pictures/n01667114_3757.JPEG	227.70353484153748	0.9722390174865723
146	190.41769886016846	response	0	k		144.0	/home/egter/Projects/stimuli/pictures/n01667114_3757.JPEG	228.66558980941772	
147	190.42788290977478	picture	0		93.0	145.0	/home/egter/Projects/stimuli/pictures/n02776631_14631.JPEG	228.67577385902405	0.7777409553527832
147	191.19263195991516	response	0	k		145.0	/home/egter/Projects/stimuli/pictures/n02776631_14631.JPEG	229.44052290916443	
148	191.20562386512756	picture	0		120.0	146.0	/home/egter/Projects/stimuli/pictures/n02027492_4942.JPEG	229.45351481437683	1.0035929679870605
148	192.192706823349	response	0	k		146.0	/home/egter/Projects/stimuli/pictures/n02027492_4942.JPEG	230.44059777259827	
149	192.20921683311462	picture	0		103.0	147.0	/home/egter/Projects/stimuli/pictures/n01968897_17016.JPEG	230.4571077823639	0.8666801452636719
149	193.0600438117981	response	0	k		147.0	/home/egter/Projects/stimuli/pictures/n01968897_17016.JPEG	231.30793476104736	
150	193.0758969783783	picture	0		161.0	148.0	/home/egter/Projects/stimuli/pictures/R_S_yt-JTBXPfbkjsA_11.png	231.32378792762756	1.3499908447265625
150	194.40933084487915	response	0	j		148.0	/home/egter/Projects/stimuli/pictures/R_S_yt-JTBXPfbkjsA_11.png	232.65722179412842	
151	194.42588782310486	picture	0		112.0	149.0	/home/egter/Projects/stimuli/pictures/R_S_yt-bH4nJibL4Jo_164.png	232.67377877235413	0.941702127456665
151	195.35157299041748	response	0	k		149.0	/home/egter/Projects/stimuli/pictures/R_S_yt-bH4nJibL4Jo_164.png	233.59946393966675	
152	195.36758995056152	picture	0		182.0	150.0	/home/egter/Projects/stimuli/pictures/R_S_production_ID_3709168.png	233.6154808998108	1.5185370445251465
152	196.87595081329346	response	0	j		150.0	/home/egter/Projects/stimuli/pictures/R_S_production_ID_3709168.png	235.12384176254272	
153	196.88612699508667	picture	0		144.0	151.0	/home/egter/Projects/stimuli/pictures/S_yt-sC9suzTl1Y0_22.png	235.13401794433594	1.20139479637146
153	198.07597589492798	response	0	j		151.0	/home/egter/Projects/stimuli/pictures/S_yt-sC9suzTl1Y0_22.png	236.32386684417725	
154	198.08752179145813	picture	0		108.0	152.0	/home/egter/Projects/stimuli/pictures/R_S_production_ID_4325591.png	236.3354127407074	0.9027500152587891
154	198.97653579711914	response	0	j		152.0	/home/egter/Projects/stimuli/pictures/R_S_production_ID_4325591.png	237.2244267463684	
155	198.99027180671692	picture	0		104.0	153.0	/home/egter/Projects/stimuli/pictures/R_S_yt--vHa85DHvLU_31.png	237.2381627559662	0.875042200088501
155	199.8440809249878	response	0	j		153.0	/home/egter/Projects/stimuli/pictures/R_S_yt--vHa85DHvLU_31.png	238.09197187423706	
156	199.86531400680542	picture	0		118.0	154.0	/home/egter/Projects/stimuli/pictures/R_S_yt-aiDGx4AN8J0_9.png	238.1132049560547	0.9860649108886719
156	200.84264397621155	response	0	k		154.0	/home/egter/Projects/stimuli/pictures/R_S_yt-aiDGx4AN8J0_9.png	239.09053492546082	
157	200.8513789176941	picture	0		224.0	155.0	/home/egter/Projects/stimuli/pictures/n02110958_1061.JPEG	239.09926986694336	1.8680419921875
157	202.7093048095703	response	0	k		155.0	/home/egter/Projects/stimuli/pictures/n02110958_1061.JPEG	240.95719575881958	
158	202.7194209098816	picture	0		155.0	156.0	/home/egter/Projects/stimuli/pictures/R_S_yt-sTBOjPxix5c_1072.png	240.96731185913086	1.2916860580444336
158	204.00096678733826	response	0	j		156.0	/home/egter/Projects/stimuli/pictures/R_S_yt-sTBOjPxix5c_1072.png	242.24885773658752	
159	204.01110696792603	picture	0		149.0	157.0	/home/egter/Projects/stimuli/pictures/S_ILSVRC2015_train_00434000.png	242.2589979171753	1.2430708408355713
159	205.24261283874512	response	0	j		157.0	/home/egter/Projects/stimuli/pictures/S_ILSVRC2015_train_00434000.png	243.49050378799438	
160	205.2541778087616	picture	0		102.0	158.0	/home/egter/Projects/stimuli/pictures/n13044778_706.JPEG	243.50206875801086	0.8611130714416504
160	206.10150694847107	response	0	k		158.0	/home/egter/Projects/stimuli/pictures/n13044778_706.JPEG	244.34939789772034	
161	206.11529088020325	picture	0		175.0	159.0	/home/egter/Projects/stimuli/pictures/R_S_yt-28ODBE9bVh0_44.png	244.36318182945251	1.4652190208435059
161	207.5676670074463	response	0	j		159.0	/home/egter/Projects/stimuli/pictures/R_S_yt-28ODBE9bVh0_44.png	245.81555795669556	
162	207.58050990104675	picture	0		109.0	160.0	/home/egter/Projects/stimuli/pictures/S_yt-3V8US8ZD3NU_229.png	245.82840085029602	0.9097180366516113
162	208.46924901008606	response	0	j		160.0	/home/egter/Projects/stimuli/pictures/S_yt-3V8US8ZD3NU_229.png	246.71713995933533	
163	208.49022793769836	picture	0		113.0	161.0	/home/egter/Projects/stimuli/pictures/R_S_video-4.png	246.73811888694763	0.9444370269775391
163	209.4259397983551	response	0	j		161.0	/home/egter/Projects/stimuli/pictures/R_S_video-4.png	247.67383074760437	
164	209.4346649646759	picture	0		115.0	162.0	/home/egter/Projects/stimuli/pictures/R_S_yt-ZzC953ahaxs_195.png	247.68255591392517	0.9583179950714111
164	210.38429594039917	response	0	j		162.0	/home/egter/Projects/stimuli/pictures/R_S_yt-ZzC953ahaxs_195.png	248.63218688964844	
165	210.39298295974731	picture	0		90.0	163.0	/home/egter/Projects/stimuli/pictures/R_S_yt-N7ztk2fa3Ls_137.png	248.64087390899658	0.7500638961791992
165	211.13419795036316	response	0	j		163.0	/home/egter/Projects/stimuli/pictures/R_S_yt-N7ztk2fa3Ls_137.png	249.38208889961243	
166	211.1430468559265	picture	0		77.0	164.0	/home/egter/Projects/stimuli/pictures/S_yt-ZzC953ahaxs_195.png	249.39093780517578	0.6457560062408447
166	211.77591681480408	response	0	j		164.0	/home/egter/Projects/stimuli/pictures/S_yt-ZzC953ahaxs_195.png	250.02380776405334	
167	211.78880286216736	picture	0		140.0	165.0	/home/egter/Projects/stimuli/pictures/R_S_yt-Dwgpjoikt84_122.png	250.03669381141663	1.166619062423706
167	212.94264578819275	response	0	j		165.0	/home/egter/Projects/stimuli/pictures/R_S_yt-Dwgpjoikt84_122.png	251.19053673744202	
168	212.95542192459106	picture	0		123.0	166.0	/home/egter/Projects/stimuli/pictures/n01440764_8343.JPEG	251.20331287384033	1.0208280086517334
168	213.9676148891449	response	0	k		166.0	/home/egter/Projects/stimuli/pictures/n01440764_8343.JPEG	252.21550583839417	
169	213.9762499332428	picture	0		183.0	167.0	/home/egter/Projects/stimuli/pictures/n01685808_2746.JPEG	252.22414088249207	1.5277619361877441
169	215.49253797531128	response	0	j		167.0	/home/egter/Projects/stimuli/pictures/n01685808_2746.JPEG	253.74042892456055	
170	215.50401186943054	picture	0		106.0	168.0	/home/egter/Projects/stimuli/pictures/n01629819_111.JPEG	253.7519028186798	0.8820779323577881
170	216.37596082687378	response	0	k		168.0	/home/egter/Projects/stimuli/pictures/n01629819_111.JPEG	254.62385177612305	
171	216.38608980178833	picture	0		93.0	169.0	/home/egter/Projects/stimuli/pictures/S_pexels-roman-odintsov-8232443_1.png	254.6339807510376	0.7776761054992676
171	217.15097093582153	response	0	j		169.0	/home/egter/Projects/stimuli/pictures/S_pexels-roman-odintsov-8232443_1.png	255.3988618850708	
172	217.1637659072876	picture	0		111.0	170.0	/home/egter/Projects/stimuli/pictures/n04336792_6572.JPEG	255.41165685653687	0.9236090183258057
172	218.0691339969635	response	0	k		170.0	/home/egter/Projects/stimuli/pictures/n04336792_6572.JPEG	256.31702494621277	
173	218.0873749256134	picture	0		109.0	171.0	/home/egter/Projects/stimuli/pictures/n04252225_9518.JPEG	256.33526587486267	0.9096779823303223
173	218.9841878414154	response	0	k		171.0	/home/egter/Projects/stimuli/pictures/n04252225_9518.JPEG	257.2320787906647	
174	218.99705290794373	picture	0		247.0	172.0	/home/egter/Projects/stimuli/pictures/n03126707_6212.JPEG	257.244943857193	2.055546998977661
174	221.04251885414124	response	0	k		172.0	/home/egter/Projects/stimuli/pictures/n03126707_6212.JPEG	259.2904098033905	
175	221.0525999069214	picture	0		97.0	173.0	/home/egter/Projects/stimuli/pictures/S_yt-VfASxEzDrvc_145.png	259.30049085617065	0.8124580383300781
175	221.84412097930908	response	0	j		173.0	/home/egter/Projects/stimuli/pictures/S_yt-VfASxEzDrvc_145.png	260.09201192855835	
176	221.86505794525146	picture	0		155.0	174.0	/home/egter/Projects/stimuli/pictures/R_S_yt-a9bnYU0Gnxg_59.png	260.11294889450073	1.298630952835083
176	223.15079879760742	response	0	j		174.0	/home/egter/Projects/stimuli/pictures/R_S_yt-a9bnYU0Gnxg_59.png	261.3986897468567	
177	223.16368889808655	picture	0		99.0	175.0	/home/egter/Projects/stimuli/pictures/S_yt-3ohvpS42xug_184.png	261.4115798473358	0.8263680934906006
177	223.97625994682312	response	0	j		175.0	/home/egter/Projects/stimuli/pictures/S_yt-3ohvpS42xug_184.png	262.2241508960724	
178	223.99005699157715	picture	0		72.0	176.0	/home/egter/Projects/stimuli/pictures/S_yt-N7ztk2fa3Ls_137.png	262.2379479408264	0.6042909622192383
178	224.5841989517212	response	0	j		176.0	/home/egter/Projects/stimuli/pictures/S_yt-N7ztk2fa3Ls_137.png	262.83208990097046	
179	224.5943479537964	picture	0		108.0	177.0	/home/egter/Projects/stimuli/pictures/n01496331_24288.JPEG	262.84223890304565	0.9026260375976562
179	225.47776794433594	response	0	k		177.0	/home/egter/Projects/stimuli/pictures/n01496331_24288.JPEG	263.7256588935852	
180	225.49697399139404	picture	0		158.0	178.0	/home/egter/Projects/stimuli/pictures/n03895866_38388.JPEG	263.7448649406433	1.3125038146972656
180	226.80087900161743	response	0	j		178.0	/home/egter/Projects/stimuli/pictures/n03895866_38388.JPEG	265.0487699508667	
181	226.8094778060913	picture	0		349.0	179.0	/home/egter/Projects/stimuli/pictures/n03777568_4085.JPEG	265.0573687553406	2.9097111225128174
181	229.70911192893982	response	0	k		179.0	/home/egter/Projects/stimuli/pictures/n03777568_4085.JPEG	267.9570028781891	
182	229.71918892860413	stim	0		228.0			267.9670798778534	1.9027788639068604
182	231.60921692848206	response	0	space				269.8571078777313	
