trial_nr	onset	event_type	phase	response	nr_frames	picture_index	picture_file	onset_abs	duration
0	0.015199899673461914	stim	0		281.0			30.620014905929565	2.348900079727173
0	2.3476688861846924	response	0	space				32.952483892440796	
2	2.3640999794006348	picture	0		900.0	0.0	/home/egter/Projects/stimuli/pictures/n01753488_14720.JPEG	32.96891498565674	7.500756025314331
2	9.855823993682861	response	0	k		0.0	/home/egter/Projects/stimuli/pictures/n01753488_14720.JPEG	40.460638999938965	
3	9.864856004714966	picture	0		131.0	1.0	/home/egter/Projects/stimuli/pictures/R_S_yt-5fZZrdwkFx0_28.png	40.46967101097107	1.0909078121185303
3	10.947569847106934	response	0	j		1.0	/home/egter/Projects/stimuli/pictures/R_S_yt-5fZZrdwkFx0_28.png	41.55238485336304	
4	10.955763816833496	picture	0		135.0	2.0	/home/egter/Projects/stimuli/pictures/n02102040_1274.JPEG	41.5605788230896	1.1249480247497559
4	12.072473049163818	response	0	k		2.0	/home/egter/Projects/stimuli/pictures/n02102040_1274.JPEG	42.67728805541992	
5	12.080711841583252	picture	0		133.0	3.0	/home/egter/Projects/stimuli/pictures/S_yt-QqSceHxY3d0_356.png	42.685526847839355	1.1105360984802246
5	13.180814027786255	response	0	j		3.0	/home/egter/Projects/stimuli/pictures/S_yt-QqSceHxY3d0_356.png	43.78562903404236	
6	13.191247940063477	picture	0		146.0	4.0	/home/egter/Projects/stimuli/pictures/S_yt-fP2JRJAFGZ4_25.png	43.79606294631958	1.215285062789917
6	14.397543907165527	response	0	j		4.0	/home/egter/Projects/stimuli/pictures/S_yt-fP2JRJAFGZ4_25.png	45.00235891342163	
7	14.406533002853394	picture	0		124.0	5.0	/home/egter/Projects/stimuli/pictures/S_pexels-mart-production-7277934.png	45.0113480091095	1.03472900390625
7	15.43089485168457	response	0	j		5.0	/home/egter/Projects/stimuli/pictures/S_pexels-mart-production-7277934.png	46.035709857940674	
8	15.441262006759644	picture	0		116.0	6.0	/home/egter/Projects/stimuli/pictures/S_yt--wYgjXsc1XQ_106.png	46.04607701301575	0.9652478694915771
8	16.39753794670105	response	0	j		6.0	/home/egter/Projects/stimuli/pictures/S_yt--wYgjXsc1XQ_106.png	47.00235295295715	
9	16.40650987625122	picture	0		118.0	7.0	/home/egter/Projects/stimuli/pictures/R_S_yt--OkafQ5VFHs_51.png	47.011324882507324	0.9860689640045166
9	17.380801916122437	response	0	j		7.0	/home/egter/Projects/stimuli/pictures/R_S_yt--OkafQ5VFHs_51.png	47.98561692237854	
10	17.392578840255737	picture	0		123.0	8.0	/home/egter/Projects/stimuli/pictures/R_S_yt-mdLT282PVbE_6.png	47.99739384651184	1.0278511047363281
10	18.406646966934204	response	0	j		8.0	/home/egter/Projects/stimuli/pictures/R_S_yt-mdLT282PVbE_6.png	49.01146197319031	
11	18.420429944992065	picture	0		123.0	9.0	/home/egter/Projects/stimuli/pictures/S_yt-IOA_DhIDXi8_5.png	49.02524495124817	1.0276899337768555
11	19.439132928848267	response	0	k		9.0	/home/egter/Projects/stimuli/pictures/S_yt-IOA_DhIDXi8_5.png	50.04394793510437	
12	19.44811987876892	picture	0		109.0	10.0	/home/egter/Projects/stimuli/pictures/n03770679_10833.JPEG	50.052934885025024	0.9097311496734619
12	20.34743881225586	response	0	k		10.0	/home/egter/Projects/stimuli/pictures/n03770679_10833.JPEG	50.95225381851196	
13	20.357851028442383	picture	0		120.0	11.0	/home/egter/Projects/stimuli/pictures/S_yt-7i9RoM8w7jM_4.png	50.962666034698486	1.0000159740447998
13	21.347510814666748	response	0	k		11.0	/home/egter/Projects/stimuli/pictures/S_yt-7i9RoM8w7jM_4.png	51.95232582092285	
14	21.357867002487183	picture	0		114.0	12.0	/home/egter/Projects/stimuli/pictures/S_yt-auGMEMsCRJI_470.png	51.962682008743286	0.9513778686523438
14	22.29751491546631	response	0	k		12.0	/home/egter/Projects/stimuli/pictures/S_yt-auGMEMsCRJI_470.png	52.90232992172241	
15	22.309244871139526	picture	0		128.0	13.0	/home/egter/Projects/stimuli/pictures/R_S_pexels-rodnae-productions-5993237.png	52.91405987739563	1.069443941116333
15	23.36493992805481	response	0	j		13.0	/home/egter/Projects/stimuli/pictures/R_S_pexels-rodnae-productions-5993237.png	53.96975493431091	
16	23.37868881225586	picture	0		121.0	14.0	/home/egter/Projects/stimuli/pictures/n01729322_18211.JPEG	53.98350381851196	1.0138440132141113
16	24.38075590133667	response	0	k		14.0	/home/egter/Projects/stimuli/pictures/n01729322_18211.JPEG	54.98557090759277	
17	24.39253282546997	picture	0		119.0	15.0	/home/egter/Projects/stimuli/pictures/S_b8-3.png	54.997347831726074	0.9930541515350342
17	25.372355937957764	response	0	k		15.0	/home/egter/Projects/stimuli/pictures/S_b8-3.png	55.97717094421387	
18	25.385586977005005	picture	0		121.0	16.0	/home/egter/Projects/stimuli/pictures/S_yt-q9-_bG9ry3E_5.png	55.99040198326111	1.0069608688354492
18	26.380817890167236	response	0	j		16.0	/home/egter/Projects/stimuli/pictures/S_yt-q9-_bG9ry3E_5.png	56.98563289642334	
19	26.392547845840454	picture	0		168.0	17.0	/home/egter/Projects/stimuli/pictures/S_flickr-132148318@N02-26685719802_3.png	56.99736285209656	1.402703046798706
19	27.781519889831543	response	0	k		17.0	/home/egter/Projects/stimuli/pictures/S_flickr-132148318@N02-26685719802_3.png	58.38633489608765	
20	27.79525089263916	picture	0		124.0	18.0	/home/egter/Projects/stimuli/pictures/n03742115_14313.JPEG	58.400065898895264	1.0437569618225098
20	28.8232159614563	response	0	k		18.0	/home/egter/Projects/stimuli/pictures/n03742115_14313.JPEG	59.4280309677124	
21	28.83900785446167	picture	0		182.0	19.0	/home/egter/Projects/stimuli/pictures/S_yt-xqjVM0Vj4mI_161.png	59.44382286071777	1.5187311172485352
21	30.347484827041626	response	0	k		19.0	/home/egter/Projects/stimuli/pictures/S_yt-xqjVM0Vj4mI_161.png	60.95229983329773	
22	30.357738971710205	picture	0		120.0	20.0	/home/egter/Projects/stimuli/pictures/n02727426_10506.JPEG	60.96255397796631	1.0000438690185547
22	31.3474760055542	response	0	k		20.0	/home/egter/Projects/stimuli/pictures/n02727426_10506.JPEG	61.9522910118103	
23	31.35778284072876	picture	0		230.0	21.0	/home/egter/Projects/stimuli/pictures/S_yt-bZfmqTZ-d2k_112.png	61.96259784698486	1.9166021347045898
23	33.26408100128174	response	0	j		21.0	/home/egter/Projects/stimuli/pictures/S_yt-bZfmqTZ-d2k_112.png	63.86889600753784	
24	33.27438497543335	picture	0		126.0	22.0	/home/egter/Projects/stimuli/pictures/R_S_yt-4-u4Fw_J_q8_45.png	63.87919998168945	1.0486490726470947
24	34.30729794502258	response	0	j		22.0	/home/egter/Projects/stimuli/pictures/R_S_yt-4-u4Fw_J_q8_45.png	64.91211295127869	
25	34.323034048080444	picture	0		211.0	23.0	/home/egter/Projects/stimuli/pictures/R_S_comp_1223LV_FLARE_v21_SDR_PS_FINAL_20180709_F0F5700_SDR_2K_AVC.png	64.92784905433655	1.763819932937622
25	36.07304883003235	response	0	j		23.0	/home/egter/Projects/stimuli/pictures/R_S_comp_1223LV_FLARE_v21_SDR_PS_FINAL_20180709_F0F5700_SDR_2K_AVC.png	66.67786383628845	
26	36.086853981018066	picture	0		108.0	24.0	/home/egter/Projects/stimuli/pictures/n04540053_10280.JPEG	66.69166898727417	0.9028110504150391
26	36.980854988098145	response	0	k		24.0	/home/egter/Projects/stimuli/pictures/n04540053_10280.JPEG	67.58566999435425	
27	36.989665031433105	picture	0		147.0	25.0	/home/egter/Projects/stimuli/pictures/n01669191_5844.JPEG	67.59448003768921	1.2291548252105713
27	38.20575785636902	response	0	k		25.0	/home/egter/Projects/stimuli/pictures/n01669191_5844.JPEG	68.81057286262512	
28	38.21881985664368	picture	0		113.0	26.0	/home/egter/Projects/stimuli/pictures/S_ILSVRC2015_train_00497001.png	68.82363486289978	0.937432050704956
28	39.140580892562866	response	0	j		26.0	/home/egter/Projects/stimuli/pictures/S_ILSVRC2015_train_00497001.png	69.74539589881897	
29	39.15625190734863	picture	0		105.0	27.0	/home/egter/Projects/stimuli/pictures/R_S_yt-7WYXuBHeorw_188.png	69.76106691360474	0.8749849796295166
29	40.0224130153656	response	0	j		27.0	/home/egter/Projects/stimuli/pictures/R_S_yt-7WYXuBHeorw_188.png	70.6272280216217	
30	40.03123688697815	picture	0		103.0	28.0	/home/egter/Projects/stimuli/pictures/n03388043_13053.JPEG	70.63605189323425	0.8611781597137451
30	40.88075089454651	response	0	k		28.0	/home/egter/Projects/stimuli/pictures/n03388043_13053.JPEG	71.48556590080261	
31	40.892415046691895	picture	0		181.0	29.0	/home/egter/Projects/stimuli/pictures/S_yt-k7ALBAMWX2M_6.png	71.497230052948	1.506955862045288
31	42.38903093338013	response	0	k		29.0	/home/egter/Projects/stimuli/pictures/S_yt-k7ALBAMWX2M_6.png	72.99384593963623	
32	42.39937090873718	picture	0		115.0	30.0	/home/egter/Projects/stimuli/pictures/n02447366_33293.JPEG	73.00418591499329	0.9583020210266113
32	43.34071397781372	response	0	k		30.0	/home/egter/Projects/stimuli/pictures/n02447366_33293.JPEG	73.94552898406982	
33	43.357672929763794	picture	0		97.0	31.0	/home/egter/Projects/stimuli/pictures/n02486261_20527.JPEG	73.9624879360199	0.8124899864196777
33	44.15640687942505	response	0	k		31.0	/home/egter/Projects/stimuli/pictures/n02486261_20527.JPEG	74.76122188568115	
34	44.17016291618347	picture	0		130.0	32.0	/home/egter/Projects/stimuli/pictures/S_yt-qE70lj3-A78_228.png	74.77497792243958	1.0902321338653564
34	45.24731993675232	response	0	j		32.0	/home/egter/Projects/stimuli/pictures/S_yt-qE70lj3-A78_228.png	75.85213494300842	
35	45.26039505004883	picture	0		111.0	33.0	/home/egter/Projects/stimuli/pictures/n01910747_9384.JPEG	75.86521005630493	0.9236907958984375
35	46.172454833984375	response	0	k		33.0	/home/egter/Projects/stimuli/pictures/n01910747_9384.JPEG	76.77726984024048	
36	46.184085845947266	picture	0		136.0	34.0	/home/egter/Projects/stimuli/pictures/S_pexels-cottonbro-5310858.png	76.78890085220337	1.131831169128418
36	47.30565881729126	response	0	j		34.0	/home/egter/Projects/stimuli/pictures/S_pexels-cottonbro-5310858.png	77.91047382354736	
37	47.315917015075684	picture	0		126.0	35.0	/home/egter/Projects/stimuli/pictures/n03903868_14924.JPEG	77.92073202133179	1.0485899448394775
37	48.35567784309387	response	0	k		35.0	/home/egter/Projects/stimuli/pictures/n03903868_14924.JPEG	78.96049284934998	
38	48.36450695991516	picture	0		160.0	36.0	/home/egter/Projects/stimuli/pictures/n01728572_7337.JPEG	78.96932196617126	1.3333289623260498
38	49.689008951187134	response	0	k		36.0	/home/egter/Projects/stimuli/pictures/n01728572_7337.JPEG	80.29382395744324	
39	49.69783592224121	picture	0		114.0	37.0	/home/egter/Projects/stimuli/pictures/n03443371_2723.JPEG	80.30265092849731	0.9514570236206055
39	50.6390278339386	response	0	k		37.0	/home/egter/Projects/stimuli/pictures/n03443371_2723.JPEG	81.2438428401947	
40	50.649292945861816	picture	0		137.0	38.0	/home/egter/Projects/stimuli/pictures/R_S_ILSVRC2015_train_00067005.png	81.25410795211792	1.1457610130310059
40	51.7812979221344	response	0	j		38.0	/home/egter/Projects/stimuli/pictures/R_S_ILSVRC2015_train_00067005.png	82.3861129283905	
41	51.79505395889282	picture	0		291.0	39.0	/home/egter/Projects/stimuli/pictures/R_S_comp_A008_C007_011550_CC_v01_SDR_PS_FINAL_20180709_SDR_2K_AVC.png	82.39986896514893	2.430590867996216
41	54.21406102180481	response	0	j		39.0	/home/egter/Projects/stimuli/pictures/R_S_comp_A008_C007_011550_CC_v01_SDR_PS_FINAL_20180709_SDR_2K_AVC.png	84.81887602806091	
42	54.22564482688904	picture	0		123.0	40.0	/home/egter/Projects/stimuli/pictures/S_yt-xgqx7tH92-c_6.png	84.83045983314514	1.027750015258789
42	55.23965287208557	response	0	j		40.0	/home/egter/Projects/stimuli/pictures/S_yt-xgqx7tH92-c_6.png	85.84446787834167	
43	55.25339484214783	picture	0		113.0	41.0	/home/egter/Projects/stimuli/pictures/S_yt-JXmyvkbRYk4_5.png	85.85820984840393	0.9444010257720947
43	56.189000844955444	response	0	k		41.0	/home/egter/Projects/stimuli/pictures/S_yt-JXmyvkbRYk4_5.png	86.79381585121155	
44	56.19779586791992	picture	0		110.0	42.0	/home/egter/Projects/stimuli/pictures/n03110669_12806.JPEG	86.80261087417603	0.9167001247406006
44	57.105692863464355	response	0	k		42.0	/home/egter/Projects/stimuli/pictures/n03110669_12806.JPEG	87.71050786972046	
45	57.11449599266052	picture	0		168.0	43.0	/home/egter/Projects/stimuli/pictures/S_yt-osz-TXlRdXs_2.png	87.71931099891663	1.402777910232544
45	58.505707025527954	response	0	j		43.0	/home/egter/Projects/stimuli/pictures/S_yt-osz-TXlRdXs_2.png	89.11052203178406	
46	58.517273902893066	picture	0		114.0	44.0	/home/egter/Projects/stimuli/pictures/n01944390_3807.JPEG	89.12208890914917	0.9513890743255615
46	59.45568299293518	response	0	k		44.0	/home/egter/Projects/stimuli/pictures/n01944390_3807.JPEG	90.06049799919128	
47	59.46866297721863	picture	0		120.0	45.0	/home/egter/Projects/stimuli/pictures/n01930112_1179.JPEG	90.07347798347473	0.9998910427093506
47	60.45557689666748	response	0	k		45.0	/home/egter/Projects/stimuli/pictures/n01930112_1179.JPEG	91.06039190292358	
48	60.46855401992798	picture	0		108.0	46.0	/home/egter/Projects/stimuli/pictures/ILSVRC2012_val_00022300.JPEG	91.07336902618408	0.8958818912506104
48	61.35569882392883	response	0	k		46.0	/home/egter/Projects/stimuli/pictures/ILSVRC2012_val_00022300.JPEG	91.96051383018494	
49	61.36443591117859	picture	0		108.0	47.0	/home/egter/Projects/stimuli/pictures/n04589890_9882.JPEG	91.96925091743469	0.9028019905090332
49	62.25568890571594	response	0	k		47.0	/home/egter/Projects/stimuli/pictures/n04589890_9882.JPEG	92.86050391197205	
50	62.26723790168762	picture	0		115.0	48.0	/home/egter/Projects/stimuli/pictures/n02823428_1827.JPEG	92.87205290794373	0.9632470607757568
50	63.2139778137207	response	0	k		48.0	/home/egter/Projects/stimuli/pictures/n02823428_1827.JPEG	93.8187928199768	
51	63.23048496246338	picture	0		107.0	49.0	/home/egter/Projects/stimuli/pictures/n01798484_7199.JPEG	93.83529996871948	0.8978500366210938
51	64.11454796791077	response	0	k		49.0	/home/egter/Projects/stimuli/pictures/n01798484_7199.JPEG	94.71936297416687	
52	64.12833499908447	picture	0		135.0	50.0	/home/egter/Projects/stimuli/pictures/S_yt-hekMMCluhnU_18.png	94.73315000534058	1.1319348812103271
52	65.24732899665833	response	0	j		50.0	/home/egter/Projects/stimuli/pictures/S_yt-hekMMCluhnU_18.png	95.85214400291443	
53	65.2602698802948	picture	0		117.0	51.0	/home/egter/Projects/stimuli/pictures/S_yt-3NMDWrZr1Z4_255.png	95.8650848865509	0.9720921516418457
53	66.22229981422424	response	0	j		51.0	/home/egter/Projects/stimuli/pictures/S_yt-3NMDWrZr1Z4_255.png	96.82711482048035	
54	66.23236203193665	picture	0		253.0	52.0	/home/egter/Projects/stimuli/pictures/R_S_yt-fq7m668hqZo_39.png	96.83717703819275	2.1111350059509277
54	68.32432699203491	response	0	j		52.0	/home/egter/Projects/stimuli/pictures/R_S_yt-fq7m668hqZo_39.png	98.92914199829102	
55	68.34349703788757	picture	0		111.0	53.0	/home/egter/Projects/stimuli/pictures/n03345487_2994.JPEG	98.94831204414368	0.9235978126525879
55	69.25558686256409	response	0	k		53.0	/home/egter/Projects/stimuli/pictures/n03345487_2994.JPEG	99.86040186882019	
56	69.26709485054016	picture	0		171.0	54.0	/home/egter/Projects/stimuli/pictures/S_yt-yf4RdPKpSVc_44.png	99.87190985679626	1.4236161708831787
56	70.68051886558533	response	0	k		54.0	/home/egter/Projects/stimuli/pictures/S_yt-yf4RdPKpSVc_44.png	101.28533387184143	
57	70.69071102142334	picture	0		170.0	55.0	/home/egter/Projects/stimuli/pictures/n04081281_2467.JPEG	101.29552602767944	1.4166958332061768
57	72.09730982780457	response	0	k		55.0	/home/egter/Projects/stimuli/pictures/n04081281_2467.JPEG	102.70212483406067	
58	72.10740685462952	picture	0		138.0	56.0	/home/egter/Projects/stimuli/pictures/R_S_yt-n1snPiGfg0A_45.png	102.71222186088562	1.1527471542358398
58	73.24728298187256	response	0	k		56.0	/home/egter/Projects/stimuli/pictures/R_S_yt-n1snPiGfg0A_45.png	103.85209798812866	
59	73.26015400886536	picture	0		186.0	57.0	/home/egter/Projects/stimuli/pictures/R_S_yt-BF80IX4r8x4_106.png	103.86496901512146	1.5486488342285156
59	74.79727387428284	response	0	j		57.0	/home/egter/Projects/stimuli/pictures/R_S_yt-BF80IX4r8x4_106.png	105.40208888053894	
60	74.80880284309387	picture	0		98.0	58.0	/home/egter/Projects/stimuli/pictures/n03857828_24719.JPEG	105.41361784934998	0.8194010257720947
60	75.61446690559387	response	0	k		58.0	/home/egter/Projects/stimuli/pictures/n03857828_24719.JPEG	106.21928191184998	
61	75.62820386886597	picture	0		107.0	59.0	/home/egter/Projects/stimuli/pictures/n01729977_9653.JPEG	106.23301887512207	0.8957741260528564
61	76.51392602920532	response	0	k		59.0	/home/egter/Projects/stimuli/pictures/n01729977_9653.JPEG	107.11874103546143	
62	76.52397799491882	picture	0		238.0	60.0	/home/egter/Projects/stimuli/pictures/R_S_yt-eczLsCTIyn0_553.png	107.12879300117493	1.9861509799957275
62	78.49726104736328	response	0	k		60.0	/home/egter/Projects/stimuli/pictures/R_S_yt-eczLsCTIyn0_553.png	109.10207605361938	
63	78.51012897491455	picture	0		277.0	61.0	/home/egter/Projects/stimuli/pictures/n01797886_18830.JPEG	109.11494398117065	2.312450885772705
63	80.81390404701233	response	0	k		61.0	/home/egter/Projects/stimuli/pictures/n01797886_18830.JPEG	111.41871905326843	
64	80.82257986068726	picture	0		112.0	62.0	/home/egter/Projects/stimuli/pictures/S_yt-0buqUbXVTn8_48.png	111.42739486694336	0.9375090599060059
64	81.7408299446106	response	0	j		62.0	/home/egter/Projects/stimuli/pictures/S_yt-0buqUbXVTn8_48.png	112.3456449508667	
65	81.76008892059326	picture	0		122.0	63.0	/home/egter/Projects/stimuli/pictures/R_S_flickr-claywakening-27928940166_2.png	112.36490392684937	1.0207810401916504
65	82.77222394943237	response	0	j		63.0	/home/egter/Projects/stimuli/pictures/R_S_flickr-claywakening-27928940166_2.png	113.37703895568848	
66	82.78086996078491	picture	0		207.0	64.0	/home/egter/Projects/stimuli/pictures/S_yt-_Hnr82bYGEQ_103.png	113.38568496704102	1.729146957397461
66	84.49722504615784	response	0	j		64.0	/home/egter/Projects/stimuli/pictures/S_yt-_Hnr82bYGEQ_103.png	115.10204005241394	
67	84.51001691818237	picture	0		186.0	65.0	/home/egter/Projects/stimuli/pictures/S_yt-NVYfkMFUxMk_466.png	115.11483192443848	1.5486071109771729
67	86.04723882675171	response	0	k		65.0	/home/egter/Projects/stimuli/pictures/S_yt-NVYfkMFUxMk_466.png	116.65205383300781	
68	86.05862402915955	picture	0		161.0	66.0	/home/egter/Projects/stimuli/pictures/R_S_yt-WrwPgZYBXlA_34.png	116.66343903541565	1.3402609825134277
68	87.3888750076294	response	0	j		66.0	/home/egter/Projects/stimuli/pictures/R_S_yt-WrwPgZYBXlA_34.png	117.9936900138855	
69	87.39888501167297	picture	0		104.0	67.0	/home/egter/Projects/stimuli/pictures/n01518878_5268.JPEG	118.00370001792908	0.8681178092956543
69	88.25555992126465	response	0	k		67.0	/home/egter/Projects/stimuli/pictures/n01518878_5268.JPEG	118.86037492752075	
70	88.26700282096863	picture	0		107.0	68.0	/home/egter/Projects/stimuli/pictures/n04141327_1141.JPEG	118.87181782722473	0.8888311386108398
70	89.14044690132141	response	0	k		68.0	/home/egter/Projects/stimuli/pictures/n04141327_1141.JPEG	119.74526190757751	
71	89.15583395957947	picture	0		152.0	69.0	/home/egter/Projects/stimuli/pictures/S_ILSVRC2015_train_00001012.png	119.76064896583557	1.270866870880127
71	90.41391396522522	response	0	k		69.0	/home/egter/Projects/stimuli/pictures/S_ILSVRC2015_train_00001012.png	121.01872897148132	
72	90.4267008304596	picture	0		124.0	70.0	/home/egter/Projects/stimuli/pictures/n03792782_45780.JPEG	121.0315158367157	1.0346791744232178
72	91.44758987426758	response	0	k		70.0	/home/egter/Projects/stimuli/pictures/n03792782_45780.JPEG	122.05240488052368	
73	91.46138000488281	picture	0		121.0	71.0	/home/egter/Projects/stimuli/pictures/R_S_yt-etQaTgGOhR4_69.png	122.06619501113892	1.0139880180358887
73	92.46391201019287	response	0	j		71.0	/home/egter/Projects/stimuli/pictures/R_S_yt-etQaTgGOhR4_69.png	123.06872701644897	
74	92.4753680229187	picture	0		108.0	72.0	/home/egter/Projects/stimuli/pictures/n04409515_11735.JPEG	123.0801830291748	0.9027929306030273
74	93.35705900192261	response	0	k		72.0	/home/egter/Projects/stimuli/pictures/n04409515_11735.JPEG	123.96187400817871	
75	93.37816095352173	picture	0		110.0	73.0	/home/egter/Projects/stimuli/pictures/n01807496_19443.JPEG	123.98297595977783	0.9234859943389893
75	94.28887987136841	response	0	k		73.0	/home/egter/Projects/stimuli/pictures/n01807496_19443.JPEG	124.89369487762451	
76	94.30164694786072	picture	0		119.0	74.0	/home/egter/Projects/stimuli/pictures/S_comp_L004_C011_PS_v01_SDR_PS_20180925_SDR_2K_AVC.png	124.90646195411682	0.9930360317230225
76	95.28085994720459	response	0	j		74.0	/home/egter/Projects/stimuli/pictures/S_comp_L004_C011_PS_v01_SDR_PS_20180925_SDR_2K_AVC.png	125.8856749534607	
77	95.29468297958374	picture	0		118.0	75.0	/home/egter/Projects/stimuli/pictures/S_ILSVRC2015_train_00524006.png	125.89949798583984	0.9861760139465332
77	96.27222299575806	response	0	j		75.0	/home/egter/Projects/stimuli/pictures/S_ILSVRC2015_train_00524006.png	126.87703800201416	
78	96.28085899353027	picture	0		101.0	76.0	/home/egter/Projects/stimuli/pictures/n06785654_17137.JPEG	126.88567399978638	0.8471379280090332
78	97.11423683166504	response	0	k		76.0	/home/egter/Projects/stimuli/pictures/n06785654_17137.JPEG	127.71905183792114	
79	97.1279969215393	picture	0		107.0	77.0	/home/egter/Projects/stimuli/pictures/ILSVRC2012_test_00080382.JPEG	127.73281192779541	0.8957910537719727
79	98.01386594772339	response	0	k		77.0	/home/egter/Projects/stimuli/pictures/ILSVRC2012_test_00080382.JPEG	128.6186809539795	
80	98.02378797531128	picture	0		113.0	78.0	/home/egter/Projects/stimuli/pictures/R_S_yt-hekMMCluhnU_18.png	128.62860298156738	0.9444198608398438
80	98.94901490211487	response	0	j		78.0	/home/egter/Projects/stimuli/pictures/R_S_yt-hekMMCluhnU_18.png	129.55382990837097	
81	98.96820783615112	picture	0		144.0	79.0	/home/egter/Projects/stimuli/pictures/S_production_ID_3944248.png	129.57302284240723	1.201418161392212
81	100.14865398406982	response	0	j		79.0	/home/egter/Projects/stimuli/pictures/S_production_ID_3944248.png	130.75346899032593	
82	100.16962599754333	picture	0		227.0	80.0	/home/egter/Projects/stimuli/pictures/S_yt-giRwl4yChlw_9.png	130.77444100379944	1.895824909210205
82	102.05550694465637	response	0	k		80.0	/home/egter/Projects/stimuli/pictures/S_yt-giRwl4yChlw_9.png	132.66032195091248	
83	102.06545090675354	picture	0		110.0	81.0	/home/egter/Projects/stimuli/pictures/R_S_ILSVRC2015_train_00497001.png	132.67026591300964	0.9166359901428223
83	102.96534585952759	response	0	j		81.0	/home/egter/Projects/stimuli/pictures/R_S_ILSVRC2015_train_00497001.png	133.5701608657837	
84	102.98208689689636	picture	0		117.0	82.0	/home/egter/Projects/stimuli/pictures/R_S_pexels-koolshooters-7327401.png	133.58690190315247	0.9791409969329834
84	103.94035482406616	response	0	j		82.0	/home/egter/Projects/stimuli/pictures/R_S_pexels-koolshooters-7327401.png	134.54516983032227	
85	103.96122789382935	picture	0		120.0	83.0	/home/egter/Projects/stimuli/pictures/S_yt-B7ZRYVhfW2U_52.png	134.56604290008545	1.006946086883545
85	104.94902300834656	response	0	k		83.0	/home/egter/Projects/stimuli/pictures/S_yt-B7ZRYVhfW2U_52.png	135.55383801460266	
86	104.96817398071289	picture	0		123.0	84.0	/home/egter/Projects/stimuli/pictures/R_S_yt-F1X_vq0Zioc_154.png	135.572988986969	1.0208568572998047
86	105.98044991493225	response	0	j		84.0	/home/egter/Projects/stimuli/pictures/R_S_yt-F1X_vq0Zioc_154.png	136.58526492118835	
87	105.9890308380127	picture	0		141.0	85.0	/home/egter/Projects/stimuli/pictures/S_yt-kNZUFy3cbjQ_9.png	136.5938458442688	1.1806640625
87	107.14864802360535	response	0	j		85.0	/home/egter/Projects/stimuli/pictures/S_yt-kNZUFy3cbjQ_9.png	137.75346302986145	
88	107.1696949005127	picture	0		123.0	86.0	/home/egter/Projects/stimuli/pictures/S_yt-nS2QqSQbjOQ_39.png	137.7745099067688	1.027674913406372
88	108.18875885009766	response	0	j		86.0	/home/egter/Projects/stimuli/pictures/S_yt-nS2QqSQbjOQ_39.png	138.79357385635376	
89	108.19736981391907	picture	0		116.0	87.0	/home/egter/Projects/stimuli/pictures/R_S_yt-T9Vwt7wFvPk_100.png	138.80218482017517	0.9722421169281006
89	109.14862203598022	response	0	j		87.0	/home/egter/Projects/stimuli/pictures/R_S_yt-T9Vwt7wFvPk_100.png	139.75343704223633	
90	109.16961193084717	picture	0		239.0	88.0	/home/egter/Projects/stimuli/pictures/n02074367_7561.JPEG	139.77442693710327	1.9998900890350342
90	111.14862990379333	response	0	k		88.0	/home/egter/Projects/stimuli/pictures/n02074367_7561.JPEG	141.75344491004944	
91	111.1695020198822	picture	0		200.0	89.0	/home/egter/Projects/stimuli/pictures/n01978455_12022.JPEG	141.7743170261383	1.6736040115356445
91	112.83046102523804	response	0	k		89.0	/home/egter/Projects/stimuli/pictures/n01978455_12022.JPEG	143.43527603149414	
92	112.84310603141785	picture	0		102.0	90.0	/home/egter/Projects/stimuli/pictures/ILSVRC2012_test_00022799.JPEG	143.44792103767395	0.84720778465271
92	113.68048787117004	response	0	k		90.0	/home/egter/Projects/stimuli/pictures/ILSVRC2012_test_00022799.JPEG	144.28530287742615	
93	113.69031381607056	picture	0		174.0	91.0	/home/egter/Projects/stimuli/pictures/R_S_yt-giRwl4yChlw_9.png	144.29512882232666	1.451348066329956
93	115.13042688369751	response	0	k		91.0	/home/egter/Projects/stimuli/pictures/R_S_yt-giRwl4yChlw_9.png	145.7352418899536	
94	115.14166188240051	picture	0		141.0	92.0	/home/egter/Projects/stimuli/pictures/S_ddXFaMgWqAg_196.png	145.74647688865662	1.1736221313476562
94	116.30541181564331	response	0	k		92.0	/home/egter/Projects/stimuli/pictures/S_ddXFaMgWqAg_196.png	146.9102268218994	
95	116.31528401374817	picture	0		119.0	93.0	/home/egter/Projects/stimuli/pictures/R_S_g201_AK_A003_C014_SDR_20191113_SDR_2K_AVC.png	146.92009902000427	0.9931368827819824
95	117.29710483551025	response	0	j		93.0	/home/egter/Projects/stimuli/pictures/R_S_g201_AK_A003_C014_SDR_20191113_SDR_2K_AVC.png	147.90191984176636	
96	117.30842089653015	picture	0		106.0	94.0	/home/egter/Projects/stimuli/pictures/n04251144_17057.JPEG	147.91323590278625	0.8819839954376221
96	118.17364692687988	response	0	k		94.0	/home/egter/Projects/stimuli/pictures/n04251144_17057.JPEG	148.778461933136	
97	118.19040489196777	picture	0		112.0	95.0	/home/egter/Projects/stimuli/pictures/R_S_pexels-mart-production-7277934.png	148.79521989822388	0.9373610019683838
97	119.11399793624878	response	0	j		95.0	/home/egter/Projects/stimuli/pictures/R_S_pexels-mart-production-7277934.png	149.71881294250488	
98	119.12776589393616	picture	0		109.0	96.0	/home/egter/Projects/stimuli/pictures/R_S_yt-D6fhzH21T_E_26.png	149.73258090019226	0.9166491031646729
98	120.03066301345825	response	0	j		96.0	/home/egter/Projects/stimuli/pictures/R_S_yt-D6fhzH21T_E_26.png	150.63547801971436	
99	120.04441499710083	picture	0		133.0	97.0	/home/egter/Projects/stimuli/pictures/n02481823_3598.JPEG	150.64923000335693	1.111076831817627
99	121.14708089828491	response	0	k		97.0	/home/egter/Projects/stimuli/pictures/n02481823_3598.JPEG	151.75189590454102	
100	121.15549182891846	picture	0		187.0	98.0	/home/egter/Projects/stimuli/pictures/S_yt-TSSPDwAQLXs_158.png	151.76030683517456	1.5625050067901611
100	122.70542192459106	response	0	k		98.0	/home/egter/Projects/stimuli/pictures/S_yt-TSSPDwAQLXs_158.png	153.31023693084717	
101	122.71799683570862	picture	0		175.0	99.0	/home/egter/Projects/stimuli/pictures/n02116738_7924.JPEG	153.32281184196472	1.4622290134429932
101	124.15721487998962	response	0	k		99.0	/home/egter/Projects/stimuli/pictures/n02116738_7924.JPEG	154.76202988624573	
102	124.18022584915161	picture	0		120.0	100.0	/home/egter/Projects/stimuli/pictures/n04336792_7448.JPEG	154.78504085540771	1.0030360221862793
102	125.16534686088562	response	0	k		100.0	/home/egter/Projects/stimuli/pictures/n04336792_7448.JPEG	155.77016186714172	
103	125.18326187133789	picture	0		104.0	101.0	/home/egter/Projects/stimuli/pictures/ILSVRC2012_test_00052018.JPEG	155.788076877594	0.8680200576782227
103	126.03869986534119	response	0	k		101.0	/home/egter/Projects/stimuli/pictures/ILSVRC2012_test_00052018.JPEG	156.6435148715973	
104	126.05128192901611	picture	0		112.0	102.0	/home/egter/Projects/stimuli/pictures/n02807133_1832.JPEG	156.65609693527222	0.9305999279022217
104	126.96534395217896	response	0	k		102.0	/home/egter/Projects/stimuli/pictures/n02807133_1832.JPEG	157.57015895843506	
105	126.98188185691833	picture	0		109.0	103.0	/home/egter/Projects/stimuli/pictures/S_ILSVRC2015_train_00450001.png	157.58669686317444	0.9096770286560059
105	127.88034987449646	response	0	j		103.0	/home/egter/Projects/stimuli/pictures/S_ILSVRC2015_train_00450001.png	158.48516488075256	
106	127.89155888557434	picture	0		107.0	104.0	/home/egter/Projects/stimuli/pictures/R_S_yt-l_pvPAznG1A_20.png	158.49637389183044	0.8888609409332275
106	128.76524686813354	response	0	j		104.0	/home/egter/Projects/stimuli/pictures/R_S_yt-l_pvPAznG1A_20.png	159.37006187438965	
107	128.78041982650757	picture	0		104.0	105.0	/home/egter/Projects/stimuli/pictures/R_S_comp_L004_C011_PS_v01_SDR_PS_20180925_SDR_2K_AVC.png	159.38523483276367	0.8680870532989502
107	129.63879489898682	response	0	j		105.0	/home/egter/Projects/stimuli/pictures/R_S_comp_L004_C011_PS_v01_SDR_PS_20180925_SDR_2K_AVC.png	160.24360990524292	
108	129.64850687980652	picture	0		189.0	106.0	/home/egter/Projects/stimuli/pictures/n02077923_6737.JPEG	160.25332188606262	1.576369047164917
108	131.21371603012085	response	0	k		106.0	/home/egter/Projects/stimuli/pictures/n02077923_6737.JPEG	161.81853103637695	
109	131.22487592697144	picture	0		121.0	107.0	/home/egter/Projects/stimuli/pictures/R_S_yt-F1vQ5nZWhDg_21.png	161.82969093322754	1.0069489479064941
109	132.22210597991943	response	0	j		107.0	/home/egter/Projects/stimuli/pictures/R_S_yt-F1vQ5nZWhDg_21.png	162.82692098617554	
110	132.23182487487793	picture	0		107.0	108.0	/home/egter/Projects/stimuli/pictures/R_S_wc-dwTccI0TNwps_15.png	162.83663988113403	0.8958339691162109
110	133.11383605003357	response	0	j		108.0	/home/egter/Projects/stimuli/pictures/R_S_wc-dwTccI0TNwps_15.png	163.71865105628967	
111	133.12765884399414	picture	0		115.0	109.0	/home/egter/Projects/stimuli/pictures/S_pexels-anthony-shkraba-production-8135459.png	163.73247385025024	0.9653069972991943
111	134.08035397529602	response	0	k		109.0	/home/egter/Projects/stimuli/pictures/S_pexels-anthony-shkraba-production-8135459.png	164.68516898155212	
112	134.09296584129333	picture	0		125.0	110.0	/home/egter/Projects/stimuli/pictures/n01631663_6006.JPEG	164.69778084754944	1.0416321754455566
112	135.1220200061798	response	0	k		110.0	/home/egter/Projects/stimuli/pictures/n01631663_6006.JPEG	165.7268350124359	
113	135.1345980167389	picture	0		126.0	111.0	/home/egter/Projects/stimuli/pictures/S_yt-hOtj2y9VWrc_354.png	165.739413022995	1.048583984375
113	136.165207862854	response	0	j		111.0	/home/egter/Projects/stimuli/pictures/S_yt-hOtj2y9VWrc_354.png	166.7700228691101	
114	136.1831820011139	picture	0		112.0	112.0	/home/egter/Projects/stimuli/pictures/R_S_yt-kxWtOXNIsRA_329.png	166.78799700737	0.9305028915405273
114	137.10536193847656	response	0	j		112.0	/home/egter/Projects/stimuli/pictures/R_S_yt-kxWtOXNIsRA_329.png	167.71017694473267	
115	137.11368489265442	picture	0		109.0	113.0	/home/egter/Projects/stimuli/pictures/S_pexels-mart-production-7698693.png	167.71849989891052	0.9097449779510498
115	138.01386189460754	response	0	j		113.0	/home/egter/Projects/stimuli/pictures/S_pexels-mart-production-7698693.png	168.61867690086365	
116	138.02342987060547	picture	0		111.0	114.0	/home/egter/Projects/stimuli/pictures/n03891251_7811.JPEG	168.62824487686157	0.9235780239105225
116	138.93865990638733	response	0	k		114.0	/home/egter/Projects/stimuli/pictures/n03891251_7811.JPEG	169.54347491264343	
117	138.947007894516	picture	0		125.0	115.0	/home/egter/Projects/stimuli/pictures/S_ILSVRC2015_train_00354000.png	169.5518229007721	1.0416529178619385
117	139.9735128879547	response	0	k		115.0	/home/egter/Projects/stimuli/pictures/S_ILSVRC2015_train_00354000.png	170.57832789421082	
118	139.98866081237793	picture	0		184.0	116.0	/home/egter/Projects/stimuli/pictures/S_wc-8bTJmWfuVyJ4_8.png	170.59347581863403	1.534771203994751
118	141.51368188858032	response	0	j		116.0	/home/egter/Projects/stimuli/pictures/S_wc-8bTJmWfuVyJ4_8.png	172.11849689483643	
119	141.52343201637268	picture	0		108.0	117.0	/home/egter/Projects/stimuli/pictures/n03095699_4710.JPEG	172.12824702262878	0.9027647972106934
119	142.41366386413574	response	0	k		117.0	/home/egter/Projects/stimuli/pictures/n03095699_4710.JPEG	173.01847887039185	
120	142.42619681358337	picture	0		120.0	118.0	/home/egter/Projects/stimuli/pictures/n03126707_9973.JPEG	173.03101181983948	1.0001490116119385
120	143.41373586654663	response	0	k		118.0	/home/egter/Projects/stimuli/pictures/n03126707_9973.JPEG	174.01855087280273	
121	143.4263458251953	picture	0		112.0	119.0	/home/egter/Projects/stimuli/pictures/n01737021_362.JPEG	174.03116083145142	0.9303891658782959
121	144.3469798564911	response	0	k		119.0	/home/egter/Projects/stimuli/pictures/n01737021_362.JPEG	174.9517948627472	
122	144.3567349910736	picture	0		118.0	120.0	/home/egter/Projects/stimuli/pictures/n04326547_7194.JPEG	174.9615499973297	0.9860718250274658
122	145.3303029537201	response	0	k		120.0	/home/egter/Projects/stimuli/pictures/n04326547_7194.JPEG	175.9351179599762	
123	145.34280681610107	picture	0		158.0	121.0	/home/egter/Projects/stimuli/pictures/S_yt-rlVzHENWufE_61.png	175.94762182235718	1.312455177307129
123	146.6469190120697	response	0	j		121.0	/home/egter/Projects/stimuli/pictures/S_yt-rlVzHENWufE_61.png	177.2517340183258	
124	146.6552619934082	picture	0		121.0	122.0	/home/egter/Projects/stimuli/pictures/S_59eT4XDXNno_25.png	177.2600769996643	1.013922929763794
124	147.655375957489	response	0	j		122.0	/home/egter/Projects/stimuli/pictures/S_59eT4XDXNno_25.png	178.26019096374512	
125	147.669184923172	picture	0		117.0	123.0	/home/egter/Projects/stimuli/pictures/S_yt-F1vQ5nZWhDg_21.png	178.2739999294281	0.9791209697723389
125	148.63863396644592	response	0	j		123.0	/home/egter/Projects/stimuli/pictures/S_yt-F1vQ5nZWhDg_21.png	179.24344897270203	
126	148.64830589294434	picture	0		145.0	124.0	/home/egter/Projects/stimuli/pictures/n09246464_86.JPEG	179.25312089920044	1.2083649635314941
126	149.84696292877197	response	0	k		124.0	/home/egter/Projects/stimuli/pictures/n09246464_86.JPEG	180.45177793502808	
127	149.85667085647583	picture	0		115.0	125.0	/home/egter/Projects/stimuli/pictures/R_S_production_ID_4154238.png	180.46148586273193	0.9583170413970947
127	150.80522298812866	response	0	j		125.0	/home/egter/Projects/stimuli/pictures/R_S_production_ID_4154238.png	181.41003799438477	
128	150.81498789787292	picture	0		136.0	126.0	/home/egter/Projects/stimuli/pictures/R_S_yt-AbJBxqEYoMg_105.png	181.41980290412903	1.131911039352417
128	151.9386010169983	response	0	j		126.0	/home/egter/Projects/stimuli/pictures/R_S_yt-AbJBxqEYoMg_105.png	182.5434160232544	
129	151.94689893722534	picture	0		168.0	127.0	/home/egter/Projects/stimuli/pictures/R_S_yt_R-JaY8f33fOCw_25.png	182.55171394348145	1.402782917022705
129	153.33861804008484	response	0	j		127.0	/home/egter/Projects/stimuli/pictures/R_S_yt_R-JaY8f33fOCw_25.png	183.94343304634094	
130	153.34968185424805	picture	0		118.0	128.0	/home/egter/Projects/stimuli/pictures/R_S_pexels-c-technical-6344801.png	183.95449686050415	0.9861819744110107
130	154.3220820426941	response	0	j		128.0	/home/egter/Projects/stimuli/pictures/R_S_pexels-c-technical-6344801.png	184.9268970489502	
131	154.33586382865906	picture	0		139.0	129.0	/home/egter/Projects/stimuli/pictures/S_ILSVRC2015_train_00324002.png	184.94067883491516	1.1665740013122559
131	155.4886348247528	response	0	k		129.0	/home/egter/Projects/stimuli/pictures/S_ILSVRC2015_train_00324002.png	186.0934498310089	
132	155.5024378299713	picture	0		125.0	130.0	/home/egter/Projects/stimuli/pictures/S_yt-K-iCphzt_RE_17.png	186.10725283622742	1.0486090183258057
132	156.5386209487915	response	0	j		130.0	/home/egter/Projects/stimuli/pictures/S_yt-K-iCphzt_RE_17.png	187.1434359550476	
133	156.55104684829712	picture	0		175.0	131.0	/home/egter/Projects/stimuli/pictures/R_S_I004_C014_SDR_2K_AVC.png	187.15586185455322	1.458338975906372
133	157.99690985679626	response	0	j		131.0	/home/egter/Projects/stimuli/pictures/R_S_I004_C014_SDR_2K_AVC.png	188.60172486305237	
134	158.0093858242035	picture	0		121.0	132.0	/home/egter/Projects/stimuli/pictures/S_yt-BW6jWEVbxxk_4.png	188.6142008304596	1.0069260597229004
134	159.0052478313446	response	0	j		132.0	/home/egter/Projects/stimuli/pictures/S_yt-BW6jWEVbxxk_4.png	189.6100628376007	
135	159.0163118839264	picture	0		94.0	133.0	/home/egter/Projects/stimuli/pictures/n04238763_3478.JPEG	189.6211268901825	0.784714937210083
135	159.78177285194397	response	0	k		133.0	/home/egter/Projects/stimuli/pictures/n04238763_3478.JPEG	190.38658785820007	
136	159.80102682113647	picture	0		148.0	134.0	/home/egter/Projects/stimuli/pictures/n01798484_6394.JPEG	190.40584182739258	1.2291111946105957
136	161.02192902565002	response	0	k		134.0	/home/egter/Projects/stimuli/pictures/n01798484_6394.JPEG	191.62674403190613	
137	161.03013801574707	picture	0		118.0	135.0	/home/egter/Projects/stimuli/pictures/S_yt-YeT4acsbqok_210.png	191.63495302200317	0.9861629009246826
137	162.005206823349	response	0	j		135.0	/home/egter/Projects/stimuli/pictures/S_yt-YeT4acsbqok_210.png	192.6100218296051	
138	162.01630091667175	picture	0		233.0	136.0	/home/egter/Projects/stimuli/pictures/R_S_yt-VQtbKGzI9SE_431.png	192.62111592292786	1.9443891048431396
138	163.94694781303406	response	0	j		136.0	/home/egter/Projects/stimuli/pictures/R_S_yt-VQtbKGzI9SE_431.png	194.55176281929016	
139	163.9606900215149	picture	0		456.0	137.0	/home/egter/Projects/stimuli/pictures/n01737021_928.JPEG	194.565505027771	3.8055169582366943
139	167.75522303581238	response	0	k		137.0	/home/egter/Projects/stimuli/pictures/n01737021_928.JPEG	198.36003804206848	
140	167.7662069797516	picture	0		103.0	138.0	/home/egter/Projects/stimuli/pictures/S_pexels-c-technical-6344801.png	198.3710219860077	0.861083984375
140	168.61355304718018	response	0	j		138.0	/home/egter/Projects/stimuli/pictures/S_pexels-c-technical-6344801.png	199.21836805343628	
141	168.6272909641266	picture	0		100.0	139.0	/home/egter/Projects/stimuli/pictures/n04243546_6744.JPEG	199.2321059703827	0.8403029441833496
141	169.45520782470703	response	0	k		139.0	/home/egter/Projects/stimuli/pictures/n04243546_6744.JPEG	200.06002283096313	
142	169.46759390830994	picture	0		112.0	140.0	/home/egter/Projects/stimuli/pictures/n03496892_29208.JPEG	200.07240891456604	0.9305319786071777
142	170.381933927536	response	0	k		140.0	/home/egter/Projects/stimuli/pictures/n03496892_29208.JPEG	200.98674893379211	
143	170.39812588691711	picture	0		107.0	141.0	/home/egter/Projects/stimuli/pictures/n02268853_3947.JPEG	201.00294089317322	0.8958380222320557
143	171.28018999099731	response	0	k		141.0	/home/egter/Projects/stimuli/pictures/n02268853_3947.JPEG	201.88500499725342	
144	171.29396390914917	picture	0		105.0	142.0	/home/egter/Projects/stimuli/pictures/R_S_WCwb-DeQOSg_85.png	201.89877891540527	0.8819260597229004
144	172.16350603103638	response	0	j		142.0	/home/egter/Projects/stimuli/pictures/R_S_WCwb-DeQOSg_85.png	202.76832103729248	
145	172.17588996887207	picture	0		203.0	143.0	/home/egter/Projects/stimuli/pictures/n01692333_3478.JPEG	202.78070497512817	1.6874840259552002
145	173.85519790649414	response	0	k		143.0	/home/egter/Projects/stimuli/pictures/n01692333_3478.JPEG	204.46001291275024	
146	173.86337399482727	picture	0		107.0	144.0	/home/egter/Projects/stimuli/pictures/n02966193_9079.JPEG	204.46818900108337	0.8958590030670166
146	174.74685382843018	response	0	k		144.0	/home/egter/Projects/stimuli/pictures/n02966193_9079.JPEG	205.35166883468628	
147	174.7592329978943	picture	0		99.0	145.0	/home/egter/Projects/stimuli/pictures/n02113799_5388.JPEG	205.3640480041504	0.8263518810272217
147	175.5649859905243	response	0	k		145.0	/home/egter/Projects/stimuli/pictures/n02113799_5388.JPEG	206.1698009967804	
148	175.5855848789215	picture	0		113.0	146.0	/home/egter/Projects/stimuli/pictures/S_yt-w_e3sxIzepA_27.png	206.1903998851776	0.944472074508667
148	176.52183294296265	response	0	j		146.0	/home/egter/Projects/stimuli/pictures/S_yt-w_e3sxIzepA_27.png	207.12664794921875	
149	176.53005695343018	picture	0		94.0	147.0	/home/egter/Projects/stimuli/pictures/n01817953_2641.JPEG	207.13487195968628	0.7846779823303223
149	177.30524682998657	response	0	k		147.0	/home/egter/Projects/stimuli/pictures/n01817953_2641.JPEG	207.91006183624268	
150	177.3147349357605	picture	0		113.0	148.0	/home/egter/Projects/stimuli/pictures/S_yt-wEbfIR14zZ8_7.png	207.9195499420166	0.9444348812103271
150	178.24681687355042	response	0	j		148.0	/home/egter/Projects/stimuli/pictures/S_yt-wEbfIR14zZ8_7.png	208.85163187980652	
151	178.25916981697083	picture	0		98.0	149.0	/home/egter/Projects/stimuli/pictures/n02790996_3051.JPEG	208.86398482322693	0.8125491142272949
151	179.06358695030212	response	0	k		149.0	/home/egter/Projects/stimuli/pictures/n02790996_3051.JPEG	209.66840195655823	
152	179.07171893119812	picture	0		110.0	150.0	/home/egter/Projects/stimuli/pictures/R_S_yt-wjBwgccZM5k_150.png	209.67653393745422	0.9166660308837891
152	179.97346591949463	response	0	j		150.0	/home/egter/Projects/stimuli/pictures/R_S_yt-wjBwgccZM5k_150.png	210.57828092575073	
153	179.9883849620819	picture	0		238.0	151.0	/home/egter/Projects/stimuli/pictures/R_S_yt-JG2OY_7B-gI_537.png	210.593199968338	1.9859979152679443
153	181.96347784996033	response	0	j		151.0	/home/egter/Projects/stimuli/pictures/R_S_yt-JG2OY_7B-gI_537.png	212.56829285621643	
154	181.97438287734985	picture	0		126.0	152.0	/home/egter/Projects/stimuli/pictures/n12267677_19328.JPEG	212.57919788360596	1.0486280918121338
154	183.01349186897278	response	0	k		152.0	/home/egter/Projects/stimuli/pictures/n12267677_19328.JPEG	213.61830687522888	
155	183.023010969162	picture	0		97.0	153.0	/home/egter/Projects/stimuli/pictures/n03496892_13891.JPEG	213.6278259754181	0.8194658756256104
155	183.83019089698792	response	0	k		153.0	/home/egter/Projects/stimuli/pictures/n03496892_13891.JPEG	214.43500590324402	
156	183.8424768447876	picture	0		166.0	154.0	/home/egter/Projects/stimuli/pictures/S_xtIv_5iIk18_2.png	214.4472918510437	1.3875751495361328
156	185.21344685554504	response	0	k		154.0	/home/egter/Projects/stimuli/pictures/S_xtIv_5iIk18_2.png	215.81826186180115	
157	185.23005199432373	picture	0		128.0	155.0	/home/egter/Projects/stimuli/pictures/S_yt-e9ttJw0BUuU_40.png	215.83486700057983	1.0707449913024902
157	186.2884509563446	response	0	k		155.0	/home/egter/Projects/stimuli/pictures/S_yt-e9ttJw0BUuU_40.png	216.8932659626007	
158	186.30079698562622	picture	0		172.0	156.0	/home/egter/Projects/stimuli/pictures/S_yt-kbf7N5K5cS0_35.png	216.90561199188232	1.4305169582366943
158	187.7218029499054	response	0	k		156.0	/home/egter/Projects/stimuli/pictures/S_yt-kbf7N5K5cS0_35.png	218.3266179561615	
159	187.73131394386292	picture	0		105.0	157.0	/home/egter/Projects/stimuli/pictures/n04273569_8007.JPEG	218.33612895011902	0.8749759197235107
159	188.59015202522278	response	0	k		157.0	/home/egter/Projects/stimuli/pictures/n04273569_8007.JPEG	219.19496703147888	
160	188.60628986358643	picture	0		108.0	158.0	/home/egter/Projects/stimuli/pictures/S_yt-Z_irN6cNiD4_148.png	219.21110486984253	0.902778148651123
160	189.49673891067505	response	0	k		158.0	/home/egter/Projects/stimuli/pictures/S_yt-Z_irN6cNiD4_148.png	220.10155391693115	
161	189.50906801223755	picture	0		108.0	159.0	/home/egter/Projects/stimuli/pictures/R_S_yt-BW6jWEVbxxk_4.png	220.11388301849365	0.8959150314331055
161	190.3900249004364	response	0	j		159.0	/home/egter/Projects/stimuli/pictures/R_S_yt-BW6jWEVbxxk_4.png	220.9948399066925	
162	190.40498304367065	picture	0		113.0	160.0	/home/egter/Projects/stimuli/pictures/n03661043_10100.JPEG	221.00979804992676	0.9443178176879883
162	191.3384668827057	response	0	k		160.0	/home/egter/Projects/stimuli/pictures/n03661043_10100.JPEG	221.9432818889618	
163	191.34930086135864	picture	0		106.0	161.0	/home/egter/Projects/stimuli/pictures/n03670208_1969.JPEG	221.95411586761475	0.8819611072540283
163	192.22177696228027	response	0	k		161.0	/home/egter/Projects/stimuli/pictures/n03670208_1969.JPEG	222.82659196853638	
164	192.23126196861267	picture	0		106.0	162.0	/home/egter/Projects/stimuli/pictures/R_S_pexels-mart-production-7698693.png	222.83607697486877	0.8820359706878662
164	193.10505294799805	response	0	j		162.0	/home/egter/Projects/stimuli/pictures/R_S_pexels-mart-production-7698693.png	223.70986795425415	
165	193.11329793930054	picture	0		110.0	163.0	/home/egter/Projects/stimuli/pictures/R_S_yt-l6WPyKg_3is_154.png	223.71811294555664	0.9166910648345947
165	194.0216839313507	response	0	j		163.0	/home/egter/Projects/stimuli/pictures/R_S_yt-l6WPyKg_3is_154.png	224.6264989376068	
166	194.02998900413513	picture	0		205.0	164.0	/home/egter/Projects/stimuli/pictures/S_ILSVRC2015_train_00247001.png	224.63480401039124	1.7082929611206055
166	195.73009395599365	response	0	k		164.0	/home/egter/Projects/stimuli/pictures/S_ILSVRC2015_train_00247001.png	226.33490896224976	
167	195.73828196525574	picture	0		387.0	165.0	/home/egter/Projects/stimuli/pictures/R_S_yt-deiWoIfK6vg_44.png	226.34309697151184	3.2289979457855225
167	198.95507383346558	response	0	j		165.0	/home/egter/Projects/stimuli/pictures/R_S_yt-deiWoIfK6vg_44.png	229.55988883972168	
168	198.96727991104126	picture	0		97.0	166.0	/home/egter/Projects/stimuli/pictures/S_yt-QOnORDmVMyU_10.png	229.57209491729736	0.8057310581207275
168	199.76342487335205	response	0	k		166.0	/home/egter/Projects/stimuli/pictures/S_yt-QOnORDmVMyU_10.png	230.36823987960815	
169	199.773010969162	picture	0		122.0	167.0	/home/egter/Projects/stimuli/pictures/R_S_yt-1sn8u-rQRas_7.png	230.3778259754181	1.02069091796875
169	200.77326202392578	response	0	j		167.0	/home/egter/Projects/stimuli/pictures/R_S_yt-1sn8u-rQRas_7.png	231.37807703018188	
170	200.79370188713074	picture	0		188.0	168.0	/home/egter/Projects/stimuli/pictures/R_S_yt-CINajD_PVjQ_494.png	231.39851689338684	1.5696179866790771
170	202.35516595840454	response	0	j		168.0	/home/egter/Projects/stimuli/pictures/R_S_yt-CINajD_PVjQ_494.png	232.95998096466064	
171	202.36331987380981	picture	0		109.0	169.0	/home/egter/Projects/stimuli/pictures/n02807133_12777.JPEG	232.96813488006592	0.9095151424407959
171	203.26344394683838	response	0	k		169.0	/home/egter/Projects/stimuli/pictures/n02807133_12777.JPEG	233.86825895309448	
172	203.2728350162506	picture	0		167.0	170.0	/home/egter/Projects/stimuli/pictures/R_S_ILSVRC2015_train_00568002.png	233.8776500225067	1.3958089351654053
172	204.65506982803345	response	0	j		170.0	/home/egter/Projects/stimuli/pictures/R_S_ILSVRC2015_train_00568002.png	235.25988483428955	
173	204.66864395141602	picture	0		146.0	171.0	/home/egter/Projects/stimuli/pictures/ILSVRC2012_test_00060829.JPEG	235.27345895767212	1.2222468852996826
173	205.8799958229065	response	0	k		171.0	/home/egter/Projects/stimuli/pictures/ILSVRC2012_test_00060829.JPEG	236.4848108291626	
174	205.8908908367157	picture	0		107.0	172.0	/home/egter/Projects/stimuli/pictures/n01798484_10633.JPEG	236.4957058429718	0.8890511989593506
174	206.77175092697144	response	0	k		172.0	/home/egter/Projects/stimuli/pictures/n01798484_10633.JPEG	237.37656593322754	
175	206.77994203567505	picture	0		116.0	173.0	/home/egter/Projects/stimuli/pictures/R_S_pexels-anastasia-shuraeva-601407_2.png	237.38475704193115	0.9719929695129395
175	207.7384078502655	response	0	j		173.0	/home/egter/Projects/stimuli/pictures/R_S_pexels-anastasia-shuraeva-601407_2.png	238.3432228565216	
176	207.751935005188	picture	0		104.0	174.0	/home/egter/Projects/stimuli/pictures/R_S_yt-4qU-6TEW06E_38.png	238.3567500114441	0.8749949932098389
176	208.60651898384094	response	0	j		174.0	/home/egter/Projects/stimuli/pictures/R_S_yt-4qU-6TEW06E_38.png	239.21133399009705	
177	208.62692999839783	picture	0		166.0	175.0	/home/egter/Projects/stimuli/pictures/S_yt-iKe-0YNR5Eo_164.png	239.23174500465393	1.388880968093872
177	209.99826192855835	response	0	j		175.0	/home/egter/Projects/stimuli/pictures/S_yt-iKe-0YNR5Eo_164.png	240.60307693481445	
178	210.0158109664917	picture	0		111.0	176.0	/home/egter/Projects/stimuli/pictures/S_yt-xUPucH7kNAs_178.png	240.6206259727478	0.9235990047454834
178	210.93002891540527	response	0	k		176.0	/home/egter/Projects/stimuli/pictures/S_yt-xUPucH7kNAs_178.png	241.53484392166138	
179	210.93940997123718	picture	0		123.0	177.0	/home/egter/Projects/stimuli/pictures/S_yt-YWfInCviN1s_126.png	241.5442249774933	1.0278079509735107
179	211.95503497123718	response	0	k		177.0	/home/egter/Projects/stimuli/pictures/S_yt-YWfInCviN1s_126.png	242.5598499774933	
180	211.9672179222107	picture	0		97.0	178.0	/home/egter/Projects/stimuli/pictures/n04162706_1747.JPEG	242.5720329284668	0.8055360317230225
180	212.76336693763733	response	0	k		178.0	/home/egter/Projects/stimuli/pictures/n04162706_1747.JPEG	243.36818194389343	
181	212.77275395393372	picture	0		125.0	179.0	/home/egter/Projects/stimuli/pictures/n01496331_10847.JPEG	243.37756896018982	1.0416269302368164
181	213.79825687408447	response	0	k		179.0	/home/egter/Projects/stimuli/pictures/n01496331_10847.JPEG	244.40307188034058	
182	213.81438088417053	stim	0		287.0			244.41919589042664	2.3905370235443115
182	216.19671297073364	response	0	space				246.80152797698975	
