trial_nr	onset	event_type	phase	response	nr_frames	picture_index	picture_file	onset_abs	duration
0	0.013647079467773438	stim	0		9938.0			28.67354393005371	82.82443594932556
0	82.81960606575012	response	0	space				111.47950291633606	
2	82.83808302879333	picture	0		965.0	0.0	/home/egter/Projects/stimuli/pictures/n02108000_721.JPEG	111.49797987937927	8.041592121124268
2	90.86929702758789	response	0	k		0.0	/home/egter/Projects/stimuli/pictures/n02108000_721.JPEG	119.52919387817383	
3	90.8796751499176	picture	0		197.0	1.0	/home/egter/Projects/stimuli/pictures/n04162706_12268.JPEG	119.53957200050354	1.6394808292388916
3	92.51175117492676	response	0	k		1.0	/home/egter/Projects/stimuli/pictures/n04162706_12268.JPEG	121.1716480255127	
4	92.5191559791565	picture	0		122.0	2.0	/home/egter/Projects/stimuli/pictures/n09288635_9130.JPEG	121.17905282974243	1.0202891826629639
4	93.5209391117096	response	0	k		2.0	/home/egter/Projects/stimuli/pictures/n09288635_9130.JPEG	122.18083596229553	
5	93.53944516181946	picture	0		178.0	3.0	/home/egter/Projects/stimuli/pictures/R_S_yt-bWXohhodbjg_98.png	122.1993420124054	1.4865128993988037
5	95.01167297363281	response	0	j		3.0	/home/egter/Projects/stimuli/pictures/R_S_yt-bWXohhodbjg_98.png	123.67156982421875	
6	95.02595806121826	picture	0		93.0	4.0	/home/egter/Projects/stimuli/pictures/n03857828_13653.JPEG	123.6858549118042	0.777277946472168
6	95.79428911209106	response	0	k		4.0	/home/egter/Projects/stimuli/pictures/n03857828_13653.JPEG	124.454185962677	
7	95.80323600769043	picture	0		174.0	5.0	/home/egter/Projects/stimuli/pictures/S_yt-nS2QqSQbjOQ_39.png	124.46313285827637	1.451348066329956
7	97.24432706832886	response	0	j		5.0	/home/egter/Projects/stimuli/pictures/S_yt-nS2QqSQbjOQ_39.png	125.9042239189148	
8	97.25458407402039	picture	0		107.0	6.0	/home/egter/Projects/stimuli/pictures/n02087046_6361.JPEG	125.91448092460632	0.8895559310913086
8	98.13665199279785	response	0	k		6.0	/home/egter/Projects/stimuli/pictures/n02087046_6361.JPEG	126.79654884338379	
9	98.1441400051117	picture	0		170.0	7.0	/home/egter/Projects/stimuli/pictures/R_S_yt-hdZEAsVBEEM_19.png	126.80403685569763	1.4233219623565674
9	99.5533800125122	response	0	j		7.0	/home/egter/Projects/stimuli/pictures/R_S_yt-hdZEAsVBEEM_19.png	128.21327686309814	
10	99.56746196746826	picture	0		109.0	8.0	/home/egter/Projects/stimuli/pictures/S_yt-patyDyMQU8M_4.png	128.2273588180542	0.9165329933166504
10	100.47006106376648	response	0	k		8.0	/home/egter/Projects/stimuli/pictures/S_yt-patyDyMQU8M_4.png	129.12995791435242	
11	100.48399496078491	picture	0		118.0	9.0	/home/egter/Projects/stimuli/pictures/n01843383_1065.JPEG	129.14389181137085	0.9858682155609131
11	101.46092796325684	response	0	k		9.0	/home/egter/Projects/stimuli/pictures/n01843383_1065.JPEG	130.12082481384277	
12	101.46986317634583	picture	0		81.0	10.0	/home/egter/Projects/stimuli/pictures/S_yt-V_2XgfjJfeQ_67.png	130.12976002693176	0.6742918491363525
12	102.12913203239441	response	0	j		10.0	/home/egter/Projects/stimuli/pictures/S_yt-V_2XgfjJfeQ_67.png	130.78902888298035	
13	102.14415502548218	picture	0		171.0	11.0	/home/egter/Projects/stimuli/pictures/S_yt-Tt_LkR4iAt4_11.png	130.80405187606812	1.4299449920654297
13	103.5609290599823	response	0	j		11.0	/home/egter/Projects/stimuli/pictures/S_yt-Tt_LkR4iAt4_11.png	132.22082591056824	
14	103.57410001754761	picture	0		111.0	12.0	/home/egter/Projects/stimuli/pictures/n01751748_2797.JPEG	132.23399686813354	0.9304549694061279
14	104.49426198005676	response	0	k		12.0	/home/egter/Projects/stimuli/pictures/n01751748_2797.JPEG	133.1541588306427	
15	104.50455498695374	picture	0		104.0	13.0	/home/egter/Projects/stimuli/pictures/n02607072_208.JPEG	133.16445183753967	0.8680319786071777
15	105.36091804504395	response	0	k		13.0	/home/egter/Projects/stimuli/pictures/n02607072_208.JPEG	134.02081489562988	
16	105.37258696556091	picture	0		84.0	14.0	/home/egter/Projects/stimuli/pictures/R_S_pexels-mart-production-7698911_1.png	134.03248381614685	0.7014551162719727
16	106.06090807914734	response	0	j		14.0	/home/egter/Projects/stimuli/pictures/R_S_pexels-mart-production-7698911_1.png	134.72080492973328	
17	106.07404208183289	picture	0		142.0	15.0	/home/egter/Projects/stimuli/pictures/n01685808_499.JPEG	134.73393893241882	1.1874439716339111
17	107.25254702568054	response	0	k		15.0	/home/egter/Projects/stimuli/pictures/n01685808_499.JPEG	135.91244387626648	
18	107.2614860534668	picture	0		136.0	16.0	/home/egter/Projects/stimuli/pictures/S_comp_GL_G002_C002_PSNK_v03_SDR_PS_20180925_SDR_2K_AVC.png	135.92138290405273	1.1326630115509033
18	108.38660907745361	response	0	k		16.0	/home/egter/Projects/stimuli/pictures/S_comp_GL_G002_C002_PSNK_v03_SDR_PS_20180925_SDR_2K_AVC.png	137.04650592803955	
19	108.3941490650177	picture	0		138.0	17.0	/home/egter/Projects/stimuli/pictures/R_S_ILSVRC2015_train_00087003.png	137.05404591560364	1.1519560813903809
19	109.52911806106567	response	0	j		17.0	/home/egter/Projects/stimuli/pictures/R_S_ILSVRC2015_train_00087003.png	138.1890149116516	
20	109.54610514640808	picture	0		85.0	18.0	/home/egter/Projects/stimuli/pictures/R_S_yt-zlbtESb7Fcw_28.png	138.20600199699402	0.7084178924560547
20	110.24423599243164	response	0	j		18.0	/home/egter/Projects/stimuli/pictures/R_S_yt-zlbtESb7Fcw_28.png	138.90413284301758	
21	110.25452303886414	picture	0		139.0	19.0	/home/egter/Projects/stimuli/pictures/S_yt-316ecr1BT84_44.png	138.91441988945007	1.1597859859466553
21	111.40257906913757	response	0	j		19.0	/home/egter/Projects/stimuli/pictures/S_yt-316ecr1BT84_44.png	140.0624759197235	
22	111.41430902481079	picture	0		122.0	20.0	/home/egter/Projects/stimuli/pictures/n03895866_38388.JPEG	140.07420587539673	1.0137889385223389
22	112.41918206214905	response	0	k		20.0	/home/egter/Projects/stimuli/pictures/n03895866_38388.JPEG	141.07907891273499	
23	112.42809796333313	picture	0		245.0	21.0	/home/egter/Projects/stimuli/pictures/R_S_yt-9Z9-RT-ysEE_85.png	141.08799481391907	2.0416390895843506
23	114.46093010902405	response	0	j		21.0	/home/egter/Projects/stimuli/pictures/R_S_yt-9Z9-RT-ysEE_85.png	143.12082695960999	
24	114.46973705291748	picture	0		557.0	22.0	/home/egter/Projects/stimuli/pictures/S_pexels-anthony-shkraba-7569650.png	143.12963390350342	4.64580512046814
24	119.10258412361145	response	0	j		22.0	/home/egter/Projects/stimuli/pictures/S_pexels-anthony-shkraba-7569650.png	147.7624809741974	
25	119.11554217338562	picture	0		110.0	23.0	/home/egter/Projects/stimuli/pictures/n02815834_9676.JPEG	147.77543902397156	0.9235858917236328
25	120.02751302719116	response	0	k		23.0	/home/egter/Projects/stimuli/pictures/n02815834_9676.JPEG	148.6874098777771	
26	120.03912806510925	picture	0		85.0	24.0	/home/egter/Projects/stimuli/pictures/S_yt-JtR6WZXT2kU_8.png	148.6990249156952	0.7083160877227783
26	120.72904109954834	response	0	j		24.0	/home/egter/Projects/stimuli/pictures/S_yt-JtR6WZXT2kU_8.png	149.38893795013428	
27	120.74744415283203	picture	0		88.0	25.0	/home/egter/Projects/stimuli/pictures/n01914609_2978.JPEG	149.40734100341797	0.7361860275268555
27	121.46977400779724	response	0	j		25.0	/home/egter/Projects/stimuli/pictures/n01914609_2978.JPEG	150.12967085838318	
28	121.48363018035889	picture	0		129.0	26.0	/home/egter/Projects/stimuli/pictures/R_S_yt-e1RAhIW6WAs_535.png	150.14352703094482	1.0833368301391602
28	122.55308198928833	response	0	j		26.0	/home/egter/Projects/stimuli/pictures/R_S_yt-e1RAhIW6WAs_535.png	151.21297883987427	
29	122.56696701049805	picture	0		99.0	27.0	/home/egter/Projects/stimuli/pictures/R_S_Pexels_Videos_2795171.png	151.22686386108398	0.8333430290222168
29	123.38641405105591	response	0	k		27.0	/home/egter/Projects/stimuli/pictures/R_S_Pexels_Videos_2795171.png	152.04631090164185	
30	123.40031003952026	picture	0		114.0	28.0	/home/egter/Projects/stimuli/pictures/n09468604_3861.JPEG	152.0602068901062	0.9582691192626953
30	124.33737301826477	response	0	k		28.0	/home/egter/Projects/stimuli/pictures/n09468604_3861.JPEG	152.9972698688507	
31	124.35857915878296	picture	0		93.0	29.0	/home/egter/Projects/stimuli/pictures/ILSVRC2012_test_00031052.JPEG	153.0184760093689	0.7776739597320557
31	125.12749814987183	response	0	k		29.0	/home/egter/Projects/stimuli/pictures/ILSVRC2012_test_00031052.JPEG	153.78739500045776	
32	125.13625311851501	picture	0		105.0	30.0	/home/egter/Projects/stimuli/pictures/S_comp_GMT060_117NC_363D_1034_AUSTRALIA_v35_SDR_PS_FINAL_20180731_SDR_2K_AVC.png	153.79614996910095	0.8750350475311279
32	126.00258803367615	response	0	k		30.0	/home/egter/Projects/stimuli/pictures/S_comp_GMT060_117NC_363D_1034_AUSTRALIA_v35_SDR_PS_FINAL_20180731_SDR_2K_AVC.png	154.66248488426208	
33	126.01128816604614	picture	0		298.0	31.0	/home/egter/Projects/stimuli/pictures/n02704792_15460.JPEG	154.67118501663208	2.486095905303955
33	128.48579096794128	response	0	k		31.0	/home/egter/Projects/stimuli/pictures/n02704792_15460.JPEG	157.14568781852722	
34	128.4973840713501	picture	0		175.0	32.0	/home/egter/Projects/stimuli/pictures/S_BO_A014_C008_SDR_20190719_SDR_2K_AVC.png	157.15728092193604	1.458348035812378
34	129.93740606307983	response	0	k		32.0	/home/egter/Projects/stimuli/pictures/S_BO_A014_C008_SDR_20190719_SDR_2K_AVC.png	158.59730291366577	
35	129.95573210716248	picture	0		111.0	33.0	/home/egter/Projects/stimuli/pictures/n04355933_2786.JPEG	158.6156289577484	0.9235868453979492
35	130.8691279888153	response	0	k		33.0	/home/egter/Projects/stimuli/pictures/n04355933_2786.JPEG	159.52902483940125	
36	130.87931895256042	picture	0		121.0	34.0	/home/egter/Projects/stimuli/pictures/S_yt-N1EsjM9gD5Q_21.png	159.53921580314636	1.006944179534912
36	131.87748503684998	response	0	j		34.0	/home/egter/Projects/stimuli/pictures/S_yt-N1EsjM9gD5Q_21.png	160.5373818874359	
37	131.88626313209534	picture	0		143.0	35.0	/home/egter/Projects/stimuli/pictures/n04264628_27969.JPEG	160.54615998268127	1.1944129467010498
37	133.06911516189575	response	0	k		35.0	/home/egter/Projects/stimuli/pictures/n04264628_27969.JPEG	161.7290120124817	
38	133.0806760787964	picture	0		98.0	36.0	/home/egter/Projects/stimuli/pictures/n09256479_671.JPEG	161.74057292938232	0.8195199966430664
38	133.88637614250183	response	0	k		36.0	/home/egter/Projects/stimuli/pictures/n09256479_671.JPEG	162.54627299308777	
39	133.90019607543945	picture	0		113.0	37.0	/home/egter/Projects/stimuli/pictures/n02514041_8397.JPEG	162.5600929260254	0.9443120956420898
39	134.8358449935913	response	0	k		37.0	/home/egter/Projects/stimuli/pictures/n02514041_8397.JPEG	163.49574184417725	
40	134.84450817108154	picture	0		123.0	38.0	/home/egter/Projects/stimuli/pictures/ILSVRC2012_test_00081119.JPEG	163.50440502166748	1.0278239250183105
40	135.8608591556549	response	0	k		38.0	/home/egter/Projects/stimuli/pictures/ILSVRC2012_test_00081119.JPEG	164.52075600624084	
41	135.87233209609985	picture	0		102.0	39.0	/home/egter/Projects/stimuli/pictures/S_pexels-koolshooters-7689098.png	164.5322289466858	0.8472249507904053
41	136.71084117889404	response	0	j		39.0	/home/egter/Projects/stimuli/pictures/S_pexels-koolshooters-7689098.png	165.37073802947998	
42	136.71955704689026	picture	0		106.0	40.0	/home/egter/Projects/stimuli/pictures/n02486261_20836.JPEG	165.3794538974762	0.8889880180358887
42	137.59462809562683	response	0	k		40.0	/home/egter/Projects/stimuli/pictures/n02486261_20836.JPEG	166.25452494621277	
43	137.60854506492615	picture	0		94.0	41.0	/home/egter/Projects/stimuli/pictures/S_yt-roThCERxVCs_133.png	166.26844191551208	0.7916269302368164
43	138.38627195358276	response	0	j		41.0	/home/egter/Projects/stimuli/pictures/S_yt-roThCERxVCs_133.png	167.0461688041687	
44	138.40017199516296	picture	0		131.0	42.0	/home/egter/Projects/stimuli/pictures/n01945685_4332.JPEG	167.0600688457489	1.0971269607543945
44	139.4858591556549	response	0	k		42.0	/home/egter/Projects/stimuli/pictures/n01945685_4332.JPEG	168.14575600624084	
45	139.49729895591736	picture	0		140.0	43.0	/home/egter/Projects/stimuli/pictures/S_g201_CA_A016_C002_SDR_20191114_SDR_2K_AVC.png	168.1571958065033	1.1666531562805176
45	140.65246510505676	response	0	k		43.0	/home/egter/Projects/stimuli/pictures/S_g201_CA_A016_C002_SDR_20191114_SDR_2K_AVC.png	169.3123619556427	
46	140.66395211219788	picture	0		117.0	44.0	/home/egter/Projects/stimuli/pictures/R_S_ILSVRC2015_train_00638000.png	169.3238489627838	0.9722599983215332
46	141.6274700164795	response	0	j		44.0	/home/egter/Projects/stimuli/pictures/R_S_ILSVRC2015_train_00638000.png	170.28736686706543	
47	141.6362121105194	picture	0		126.0	45.0	/home/egter/Projects/stimuli/pictures/S_video_inspire_oregon_portland_00064.png	170.29610896110535	1.0555920600891113
47	142.67797803878784	response	0	k		45.0	/home/egter/Projects/stimuli/pictures/S_video_inspire_oregon_portland_00064.png	171.33787488937378	
48	142.69180417060852	picture	0		93.0	46.0	/home/egter/Projects/stimuli/pictures/S_yt-nqRBIR8dFYc_328.png	171.35170102119446	0.785571813583374
48	143.46080803871155	response	0	j		46.0	/home/egter/Projects/stimuli/pictures/S_yt-nqRBIR8dFYc_328.png	172.12070488929749	
49	143.4773759841919	picture	0		157.0	47.0	/home/egter/Projects/stimuli/pictures/S_yt-lfDIg8kaXhA_169.png	172.13727283477783	1.3115639686584473
49	144.77747011184692	response	0	j		47.0	/home/egter/Projects/stimuli/pictures/S_yt-lfDIg8kaXhA_169.png	173.43736696243286	
50	144.78893995285034	picture	0		151.0	48.0	/home/egter/Projects/stimuli/pictures/S_ILSVRC2015_train_00303008.png	173.44883680343628	1.2569200992584229
50	146.0357961654663	response	0	j		48.0	/home/egter/Projects/stimuli/pictures/S_ILSVRC2015_train_00303008.png	174.69569301605225	
51	146.04586005210876	picture	0		103.0	49.0	/home/egter/Projects/stimuli/pictures/n03095699_4762.JPEG	174.7057569026947	0.8611690998077393
51	146.89414596557617	response	0	k		49.0	/home/egter/Projects/stimuli/pictures/n03095699_4762.JPEG	175.5540428161621	
52	146.9070291519165	picture	0		111.0	50.0	/home/egter/Projects/stimuli/pictures/n04005630_26150.JPEG	175.56692600250244	0.930452823638916
52	147.82745099067688	response	0	k		50.0	/home/egter/Projects/stimuli/pictures/n04005630_26150.JPEG	176.48734784126282	
53	147.83748197555542	picture	0		120.0	51.0	/home/egter/Projects/stimuli/pictures/R_S_yt-uT4MXm0UBJM_64.png	176.49737882614136	0.9999911785125732
53	148.827476978302	response	0	j		51.0	/home/egter/Projects/stimuli/pictures/R_S_yt-uT4MXm0UBJM_64.png	177.48737382888794	
54	148.837473154068	picture	0		101.0	52.0	/home/egter/Projects/stimuli/pictures/R_S_X-D3lUv-atE_376.png	177.49737000465393	0.8402619361877441
54	149.66906809806824	response	0	j		52.0	/home/egter/Projects/stimuli/pictures/R_S_X-D3lUv-atE_376.png	178.32896494865417	
55	149.67773509025574	picture	0		98.0	53.0	/home/egter/Projects/stimuli/pictures/ILSVRC2012_test_00048338.JPEG	178.33763194084167	0.8193938732147217
55	150.4859721660614	response	0	k		53.0	/home/egter/Projects/stimuli/pictures/ILSVRC2012_test_00048338.JPEG	179.14586901664734	
56	150.49712896347046	picture	0		117.0	54.0	/home/egter/Projects/stimuli/pictures/n01667778_4157.JPEG	179.1570258140564	0.9722311496734619
56	151.46069598197937	response	0	k		54.0	/home/egter/Projects/stimuli/pictures/n01667778_4157.JPEG	180.1205928325653	
57	151.46936011314392	picture	0		186.0	55.0	/home/egter/Projects/stimuli/pictures/R_S_yt-RlHmMGUjT9E_130.png	180.12925696372986	1.549556016921997
57	153.01113200187683	response	0	k		55.0	/home/egter/Projects/stimuli/pictures/R_S_yt-RlHmMGUjT9E_130.png	181.67102885246277	
58	153.01891613006592	picture	0		100.0	56.0	/home/egter/Projects/stimuli/pictures/R_S_yt-isJga8ec5UM_32.png	181.67881298065186	0.8395829200744629
58	153.84445905685425	response	0	j		56.0	/home/egter/Projects/stimuli/pictures/R_S_yt-isJga8ec5UM_32.png	182.50435590744019	
59	153.85849905014038	picture	0		100.0	57.0	/home/egter/Projects/stimuli/pictures/R_S_yt-2V2tq9-O_Nc_1669.png	182.51839590072632	0.8399920463562012
59	154.68566513061523	response	0	j		57.0	/home/egter/Projects/stimuli/pictures/R_S_yt-2V2tq9-O_Nc_1669.png	183.34556198120117	
60	154.69849109649658	picture	0		130.0	58.0	/home/egter/Projects/stimuli/pictures/n01756291_14609.JPEG	183.35838794708252	1.0903148651123047
60	155.77733898162842	response	0	k		58.0	/home/egter/Projects/stimuli/pictures/n01756291_14609.JPEG	184.43723583221436	
61	155.7888059616089	picture	0		95.0	59.0	/home/egter/Projects/stimuli/pictures/n03888257_3637.JPEG	184.44870281219482	0.7916340827941895
61	156.56224608421326	response	0	k		59.0	/home/egter/Projects/stimuli/pictures/n03888257_3637.JPEG	185.2221429347992	
62	156.58044004440308	picture	0		93.0	60.0	/home/egter/Projects/stimuli/pictures/S_pexels-mart-production-7698911_1.png	185.240336894989	0.7779150009155273
62	157.33719301223755	response	0	j		60.0	/home/egter/Projects/stimuli/pictures/S_pexels-mart-production-7698911_1.png	185.9970898628235	
63	157.3583550453186	picture	0		124.0	61.0	/home/egter/Projects/stimuli/pictures/n01798484_6394.JPEG	186.01825189590454	1.0418040752410889
63	158.38615107536316	response	0	k		61.0	/home/egter/Projects/stimuli/pictures/n01798484_6394.JPEG	187.0460479259491	
64	158.4001591205597	picture	0		108.0	62.0	/home/egter/Projects/stimuli/pictures/n03594945_38746.JPEG	187.06005597114563	0.9024698734283447
64	159.29406094551086	response	0	k		62.0	/home/egter/Projects/stimuli/pictures/n03594945_38746.JPEG	187.9539577960968	
65	159.30262899398804	picture	0		184.0	63.0	/home/egter/Projects/stimuli/pictures/S_yt-lazG9z4VQAw_99.png	187.96252584457397	1.5347161293029785
65	160.82735013961792	response	0	j		63.0	/home/egter/Projects/stimuli/pictures/S_yt-lazG9z4VQAw_99.png	189.48724699020386	
66	160.83734512329102	picture	0		65.0	64.0	/home/egter/Projects/stimuli/pictures/R_S_yt-DmlSN7mzczI_62.png	189.49724197387695	0.5416479110717773
66	161.36223912239075	response	0	k		64.0	/home/egter/Projects/stimuli/pictures/R_S_yt-DmlSN7mzczI_62.png	190.02213597297668	
67	161.3789930343628	picture	0		86.0	65.0	/home/egter/Projects/stimuli/pictures/S_yt-wVMhACNFF-M_154.png	190.03888988494873	0.7153279781341553
67	162.08570003509521	response	0	j		65.0	/home/egter/Projects/stimuli/pictures/S_yt-wVMhACNFF-M_154.png	190.74559688568115	
68	162.09432101249695	picture	0		144.0	66.0	/home/egter/Projects/stimuli/pictures/n01737021_11056.JPEG	190.75421786308289	1.2013180255889893
68	163.28568696975708	response	0	j		66.0	/home/egter/Projects/stimuli/pictures/n01737021_11056.JPEG	191.94558382034302	
69	163.29563903808594	picture	0		186.0	67.0	/home/egter/Projects/stimuli/pictures/n04228054_6264.JPEG	191.95553588867188	1.5486719608306885
69	164.83568000793457	response	0	k		67.0	/home/egter/Projects/stimuli/pictures/n04228054_6264.JPEG	193.4955768585205	
70	164.84431099891663	picture	0		203.0	68.0	/home/egter/Projects/stimuli/pictures/S_WCwb-DeQOSg_85.png	193.50420784950256	1.6943390369415283
70	166.52732300758362	response	0	j		68.0	/home/egter/Projects/stimuli/pictures/S_WCwb-DeQOSg_85.png	195.18721985816956	
71	166.53865003585815	picture	0		107.0	69.0	/home/egter/Projects/stimuli/pictures/R_S_ahJft-G235A_122.png	195.1985468864441	0.8889169692993164
71	167.4189920425415	response	0	j		69.0	/home/egter/Projects/stimuli/pictures/R_S_ahJft-G235A_122.png	196.07888889312744	
72	167.42756700515747	picture	0		108.0	70.0	/home/egter/Projects/stimuli/pictures/R_S_yt-rY_ra5Tb9XU_51.png	196.0874638557434	0.9027590751647949
72	168.31898307800293	response	0	j		70.0	/home/egter/Projects/stimuli/pictures/R_S_yt-rY_ra5Tb9XU_51.png	196.97887992858887	
73	168.33032608032227	picture	0		125.0	71.0	/home/egter/Projects/stimuli/pictures/R_S_yt-XRQ_LSGGr3Y_712.png	196.9902229309082	1.0416460037231445
73	169.35390496253967	response	0	j		71.0	/home/egter/Projects/stimuli/pictures/R_S_yt-XRQ_LSGGr3Y_712.png	198.0138018131256	
74	169.3719720840454	picture	0		86.0	72.0	/home/egter/Projects/stimuli/pictures/n03457902_38056.JPEG	198.03186893463135	0.715303897857666
74	170.07727098464966	response	0	k		72.0	/home/egter/Projects/stimuli/pictures/n03457902_38056.JPEG	198.7371678352356	
75	170.08727598190308	picture	0		94.0	73.0	/home/egter/Projects/stimuli/pictures/R_S_video-2.png	198.747172832489	0.7847130298614502
75	170.860671043396	response	0	j		73.0	/home/egter/Projects/stimuli/pictures/R_S_video-2.png	199.52056789398193	
76	170.87198901176453	picture	0		107.0	74.0	/home/egter/Projects/stimuli/pictures/n03721384_391.JPEG	199.53188586235046	0.8888680934906006
76	171.7454400062561	response	0	k		74.0	/home/egter/Projects/stimuli/pictures/n03721384_391.JPEG	200.40533685684204	
77	171.76085710525513	picture	0		121.0	75.0	/home/egter/Projects/stimuli/pictures/S_ILSVRC2015_train_00572000.png	200.42075395584106	1.0139360427856445
77	172.75377202033997	response	0	j		75.0	/home/egter/Projects/stimuli/pictures/S_ILSVRC2015_train_00572000.png	201.4136688709259	
78	172.77479314804077	picture	0		97.0	76.0	/home/egter/Projects/stimuli/pictures/S_yt-9Z9-RT-ysEE_85.png	201.4346899986267	0.8124709129333496
78	173.570543050766	response	0	k		76.0	/home/egter/Projects/stimuli/pictures/S_yt-9Z9-RT-ysEE_85.png	202.23043990135193	
79	173.58726406097412	picture	0		50.0	77.0	/home/egter/Projects/stimuli/pictures/n02114712_17436.JPEG	202.24716091156006	0.41664695739746094
79	173.99398112297058	response	0	j		77.0	/home/egter/Projects/stimuli/pictures/n02114712_17436.JPEG	202.65387797355652	
80	174.00391101837158	picture	0		70.0	78.0	/home/egter/Projects/stimuli/pictures/S_flickr-southeasternstar-3464778323_10.png	202.66380786895752	0.583294153213501
80	174.57053518295288	response	0	k		78.0	/home/egter/Projects/stimuli/pictures/S_flickr-southeasternstar-3464778323_10.png	203.23043203353882	
81	174.58720517158508	picture	0		188.0	79.0	/home/egter/Projects/stimuli/pictures/R_S_ILSVRC2015_train_00303008.png	203.24710202217102	1.56949782371521
81	176.1375081539154	response	0	j		79.0	/home/egter/Projects/stimuli/pictures/R_S_ILSVRC2015_train_00303008.png	204.79740500450134	
82	176.1567029953003	picture	0		72.0	80.0	/home/egter/Projects/stimuli/pictures/R_S_yt-V_2XgfjJfeQ_67.png	204.81659984588623	0.5971469879150391
82	176.74392104148865	response	0	j		80.0	/home/egter/Projects/stimuli/pictures/R_S_yt-V_2XgfjJfeQ_67.png	205.40381789207458	
83	176.75384998321533	picture	0		107.0	81.0	/home/egter/Projects/stimuli/pictures/S_yt-K-iCphzt_RE_17.png	205.41374683380127	0.8960661888122559
83	177.63588905334473	response	0	j		81.0	/home/egter/Projects/stimuli/pictures/S_yt-K-iCphzt_RE_17.png	206.29578590393066	
84	177.6499161720276	picture	0		78.0	82.0	/home/egter/Projects/stimuli/pictures/R_S_pexels-anthony-shkraba-7569650.png	206.30981302261353	0.6525659561157227
84	178.2939751148224	response	0	k		82.0	/home/egter/Projects/stimuli/pictures/R_S_pexels-anthony-shkraba-7569650.png	206.95387196540833	
85	178.3024821281433	picture	0		178.0	83.0	/home/egter/Projects/stimuli/pictures/n01440764_7173.JPEG	206.96237897872925	1.486069917678833
85	179.77049612998962	response	0	k		83.0	/home/egter/Projects/stimuli/pictures/n01440764_7173.JPEG	208.43039298057556	
86	179.78855204582214	picture	0		236.0	84.0	/home/egter/Projects/stimuli/pictures/n02100236_11126.JPEG	208.44844889640808	1.9652860164642334
86	181.74393796920776	response	0	k		84.0	/home/egter/Projects/stimuli/pictures/n02100236_11126.JPEG	210.4038348197937	
87	181.75383806228638	picture	0		78.0	85.0	/home/egter/Projects/stimuli/pictures/S_yt-yQrDeFlFmfM_138.png	210.41373491287231	0.6527900695800781
87	182.39390206336975	response	0	j		85.0	/home/egter/Projects/stimuli/pictures/S_yt-yQrDeFlFmfM_138.png	211.0537989139557	
88	182.40662813186646	picture	0		158.0	86.0	/home/egter/Projects/stimuli/pictures/n01914609_116.JPEG	211.0665249824524	1.3124399185180664
88	183.71057605743408	response	0	k		86.0	/home/egter/Projects/stimuli/pictures/n01914609_116.JPEG	212.37047290802002	
89	183.71906805038452	picture	0		167.0	87.0	/home/egter/Projects/stimuli/pictures/n04004767_2147.JPEG	212.37896490097046	1.3959319591522217
89	185.10228204727173	response	0	k		87.0	/home/egter/Projects/stimuli/pictures/n04004767_2147.JPEG	213.76217889785767	
90	185.11500000953674	picture	0		136.0	88.0	/home/egter/Projects/stimuli/pictures/S_yt-xqjVM0Vj4mI_161.png	213.77489686012268	1.1318070888519287
90	186.23554801940918	response	0	j		88.0	/home/egter/Projects/stimuli/pictures/S_yt-xqjVM0Vj4mI_161.png	214.89544486999512	
91	186.24680709838867	picture	0		205.0	89.0	/home/egter/Projects/stimuli/pictures/R_S_yt-waWM9vAfsIw_116.png	214.9067039489746	1.7082970142364502
91	187.9439239501953	response	0	j		89.0	/home/egter/Projects/stimuli/pictures/R_S_yt-waWM9vAfsIw_116.png	216.60382080078125	
92	187.95510411262512	picture	0		89.0	90.0	/home/egter/Projects/stimuli/pictures/n12985857_4585.JPEG	216.61500096321106	0.7431259155273438
92	188.68554711341858	response	0	k		90.0	/home/egter/Projects/stimuli/pictures/n12985857_4585.JPEG	217.34544396400452	
93	188.69823002815247	picture	0		94.0	91.0	/home/egter/Projects/stimuli/pictures/R_S_yt-y6zr69M0yHI_76.png	217.3581268787384	0.7788870334625244
93	189.46910500526428	response	0	j		91.0	/home/egter/Projects/stimuli/pictures/R_S_yt-y6zr69M0yHI_76.png	218.12900185585022	
94	189.477117061615	picture	0		244.0	92.0	/home/egter/Projects/stimuli/pictures/n04146614_1829.JPEG	218.13701391220093	2.0336060523986816
94	191.50218105316162	response	0	k		92.0	/home/egter/Projects/stimuli/pictures/n04146614_1829.JPEG	220.16207790374756	
95	191.51072311401367	picture	0		245.0	93.0	/home/egter/Projects/stimuli/pictures/n02025239_2049.JPEG	220.1706199645996	2.041566848754883
95	193.54388999938965	response	0	j		93.0	/home/egter/Projects/stimuli/pictures/n02025239_2049.JPEG	222.2037868499756	
96	193.55228996276855	picture	0		528.0	94.0	/home/egter/Projects/stimuli/pictures/S_yt-EAMpitsjbbA_153.png	222.2121868133545	4.4027440547943115
96	197.94387316703796	response	0	j		94.0	/home/egter/Projects/stimuli/pictures/S_yt-EAMpitsjbbA_153.png	226.6037700176239	
97	197.95503401756287	picture	0		126.0	95.0	/home/egter/Projects/stimuli/pictures/S_production_ID_5144824.png	226.6149308681488	1.048638105392456
97	198.98703002929688	response	0	j		95.0	/home/egter/Projects/stimuli/pictures/S_production_ID_5144824.png	227.6469268798828	
98	199.00367212295532	picture	0		387.0	96.0	/home/egter/Projects/stimuli/pictures/n02114855_15185.JPEG	227.66356897354126	3.2292139530181885
98	202.21898102760315	response	0	k		96.0	/home/egter/Projects/stimuli/pictures/n02114855_15185.JPEG	230.8788778781891	
99	202.2328860759735	picture	0		94.0	97.0	/home/egter/Projects/stimuli/pictures/n03733131_21.JPEG	230.89278292655945	0.7916529178619385
99	203.0106339454651	response	0	k		97.0	/home/egter/Projects/stimuli/pictures/n03733131_21.JPEG	231.67053079605103	
100	203.02453899383545	picture	0		95.0	98.0	/home/egter/Projects/stimuli/pictures/S_flickr-53807584@N00-5565833509_7.png	231.6844358444214	0.8025460243225098
100	203.81046605110168	response	0	j		98.0	/home/egter/Projects/stimuli/pictures/S_flickr-53807584@N00-5565833509_7.png	232.47036290168762	
101	203.82708501815796	picture	0		117.0	99.0	/home/egter/Projects/stimuli/pictures/ILSVRC2012_test_00095343.JPEG	232.4869818687439	0.9750461578369141
101	204.79383516311646	response	0	j		99.0	/home/egter/Projects/stimuli/pictures/ILSVRC2012_test_00095343.JPEG	233.4537320137024	
102	204.80213117599487	picture	0		235.0	100.0	/home/egter/Projects/stimuli/pictures/n02492660_5738.JPEG	233.4620280265808	1.9583468437194824
102	206.75215315818787	response	0	k		100.0	/home/egter/Projects/stimuli/pictures/n02492660_5738.JPEG	235.4120500087738	
103	206.76047801971436	picture	0		102.0	101.0	/home/egter/Projects/stimuli/pictures/n03759954_13181.JPEG	235.4203748703003	0.8542821407318115
103	207.6021671295166	response	0	k		101.0	/home/egter/Projects/stimuli/pictures/n03759954_13181.JPEG	236.26206398010254	
104	207.61476016044617	picture	0		383.0	102.0	/home/egter/Projects/stimuli/pictures/n02066245_5298.JPEG	236.2746570110321	3.1874020099639893
104	210.7938060760498	response	0	k		102.0	/home/egter/Projects/stimuli/pictures/n02066245_5298.JPEG	239.45370292663574	
105	210.80216217041016	picture	0		110.0	103.0	/home/egter/Projects/stimuli/pictures/R_S_yt-IigHVUksnw8_7.png	239.4620590209961	0.9166460037231445
105	211.7104320526123	response	0	j		103.0	/home/egter/Projects/stimuli/pictures/R_S_yt-IigHVUksnw8_7.png	240.37032890319824	
106	211.7188081741333	picture	0		204.0	104.0	/home/egter/Projects/stimuli/pictures/n04141327_3623.JPEG	240.37870502471924	1.7013030052185059
106	213.4104561805725	response	0	k		104.0	/home/egter/Projects/stimuli/pictures/n04141327_3623.JPEG	242.07035303115845	
107	213.4201111793518	picture	0		140.0	105.0	/home/egter/Projects/stimuli/pictures/R_S_ILSVRC2015_train_00404003.png	242.08000802993774	1.1667299270629883
107	214.5703411102295	response	0	k		105.0	/home/egter/Projects/stimuli/pictures/R_S_ILSVRC2015_train_00404003.png	243.23023796081543	
108	214.5868411064148	picture	0		526.0	106.0	/home/egter/Projects/stimuli/pictures/S_yt-PaxmJhMoP3w_87.png	243.24673795700073	4.381871938705444
108	218.96046113967896	response	0	j		106.0	/home/egter/Projects/stimuli/pictures/S_yt-PaxmJhMoP3w_87.png	247.6203579902649	
109	218.96871304512024	picture	0		139.0	107.0	/home/egter/Projects/stimuli/pictures/n01632777_20321.JPEG	247.62860989570618	1.1597130298614502
109	220.1187620162964	response	0	k		107.0	/home/egter/Projects/stimuli/pictures/n01632777_20321.JPEG	248.77865886688232	
110	220.1284260749817	picture	0		87.0	108.0	/home/egter/Projects/stimuli/pictures/R_S_yt-PaxmJhMoP3w_87.png	248.78832292556763	0.731903076171875
110	220.8437910079956	response	0	k		108.0	/home/egter/Projects/stimuli/pictures/R_S_yt-PaxmJhMoP3w_87.png	249.50368785858154	
111	220.86032915115356	picture	0		92.0	109.0	/home/egter/Projects/stimuli/pictures/n01669191_1457.JPEG	249.5202260017395	0.7681009769439697
111	221.61873698234558	response	0	k		109.0	/home/egter/Projects/stimuli/pictures/n01669191_1457.JPEG	250.27863383293152	
112	221.62843012809753	picture	0		123.0	110.0	/home/egter/Projects/stimuli/pictures/S_yt-AKRjrTvvxFc_1804.png	250.28832697868347	1.027768850326538
112	222.64373111724854	response	0	k		110.0	/home/egter/Projects/stimuli/pictures/S_yt-AKRjrTvvxFc_1804.png	251.30362796783447	
113	222.65619897842407	picture	0		240.0	111.0	/home/egter/Projects/stimuli/pictures/n09421951_6249.JPEG	251.31609582901	1.9999651908874512
113	224.64374709129333	response	0	k		111.0	/home/egter/Projects/stimuli/pictures/n09421951_6249.JPEG	253.30364394187927	
114	224.65616416931152	picture	0		68.0	112.0	/home/egter/Projects/stimuli/pictures/n01744401_6425.JPEG	253.31606101989746	0.56247878074646
114	225.21040296554565	response	0	k		112.0	/home/egter/Projects/stimuli/pictures/n01744401_6425.JPEG	253.8702998161316	
115	225.21864295005798	picture	0		104.0	113.0	/home/egter/Projects/stimuli/pictures/n13037406_3364.JPEG	253.87853980064392	0.8680720329284668
115	226.07705998420715	response	0	k		113.0	/home/egter/Projects/stimuli/pictures/n13037406_3364.JPEG	254.7369568347931	
116	226.08671498298645	picture	0		94.0	114.0	/home/egter/Projects/stimuli/pictures/n02077923_6737.JPEG	254.7466118335724	0.7846989631652832
116	226.8604040145874	response	0	k		114.0	/home/egter/Projects/stimuli/pictures/n02077923_6737.JPEG	255.52030086517334	
117	226.87141394615173	picture	0		97.0	115.0	/home/egter/Projects/stimuli/pictures/S_yt-QD74nNliDvI_10.png	255.53131079673767	0.8141000270843506
117	227.6702470779419	response	0	j		115.0	/home/egter/Projects/stimuli/pictures/S_yt-QD74nNliDvI_10.png	256.33014392852783	
118	227.68551397323608	picture	0		93.0	116.0	/home/egter/Projects/stimuli/pictures/R_S_yt-SGTgMItFkxY_172.png	256.345410823822	0.7761731147766113
118	228.45210194587708	response	0	j		116.0	/home/egter/Projects/stimuli/pictures/R_S_yt-SGTgMItFkxY_172.png	257.111998796463	
119	228.4616870880127	picture	0		94.0	117.0	/home/egter/Projects/stimuli/pictures/R_S_pexels-koolshooters-7689098.png	257.12158393859863	0.7847020626068115
119	229.23544216156006	response	0	j		117.0	/home/egter/Projects/stimuli/pictures/R_S_pexels-koolshooters-7689098.png	257.895339012146	
120	229.2463891506195	picture	0		260.0	118.0	/home/egter/Projects/stimuli/pictures/n01855672_4340.JPEG	257.90628600120544	2.166646957397461
120	231.39525413513184	response	0	k		118.0	/home/egter/Projects/stimuli/pictures/n01855672_4340.JPEG	260.0551509857178	
121	231.41303610801697	picture	0		90.0	119.0	/home/egter/Projects/stimuli/pictures/n02128925_73157.JPEG	260.0729329586029	0.7500028610229492
121	232.15206503868103	response	0	k		119.0	/home/egter/Projects/stimuli/pictures/n02128925_73157.JPEG	260.81196188926697	
122	232.16303896903992	picture	0		195.0	120.0	/home/egter/Projects/stimuli/pictures/R_S_yt-s5YONFy3vb4_46.png	260.82293581962585	1.6250040531158447
122	233.77021408081055	response	0	k		120.0	/home/egter/Projects/stimuli/pictures/R_S_yt-s5YONFy3vb4_46.png	262.4301109313965	
123	233.78804302215576	picture	0		127.0	121.0	/home/egter/Projects/stimuli/pictures/n01630670_5687.JPEG	262.4479398727417	1.08058500289917
123	234.83539605140686	response	0	k		121.0	/home/egter/Projects/stimuli/pictures/n01630670_5687.JPEG	263.4952929019928	
124	234.86862802505493	picture	0		90.0	122.0	/home/egter/Projects/stimuli/pictures/R_S_yt-Ek1jcvett9E_33.png	263.52852487564087	0.7527010440826416
124	235.61035108566284	response	0	j		122.0	/home/egter/Projects/stimuli/pictures/R_S_yt-Ek1jcvett9E_33.png	264.2702479362488	
125	235.62132906913757	picture	0		134.0	123.0	/home/egter/Projects/stimuli/pictures/S_yt-7XDVHp75fu4_93.png	264.2812259197235	1.1183490753173828
125	236.72704005241394	response	0	j		123.0	/home/egter/Projects/stimuli/pictures/S_yt-7XDVHp75fu4_93.png	265.3869369029999	
126	236.73967814445496	picture	0		130.0	124.0	/home/egter/Projects/stimuli/pictures/n02447366_15660.JPEG	265.3995749950409	1.0831739902496338
126	237.81034517288208	response	0	k		124.0	/home/egter/Projects/stimuli/pictures/n02447366_15660.JPEG	266.470242023468	
127	237.8228521347046	picture	0		91.0	125.0	/home/egter/Projects/stimuli/pictures/R_S_yt-JPsTqfqfPIY_319.png	266.4827489852905	0.7567808628082275
127	238.56869506835938	response	0	j		125.0	/home/egter/Projects/stimuli/pictures/R_S_yt-JPsTqfqfPIY_319.png	267.2285919189453	
128	238.57963299751282	picture	0		140.0	126.0	/home/egter/Projects/stimuli/pictures/n02814860_904.JPEG	267.23952984809875	1.1666531562805176
128	239.73538517951965	response	0	k		126.0	/home/egter/Projects/stimuli/pictures/n02814860_904.JPEG	268.3952820301056	
129	239.74628615379333	picture	0		278.0	127.0	/home/egter/Projects/stimuli/pictures/R_S_yt-lfDIg8kaXhA_169.png	268.4061830043793	2.319540023803711
129	242.05210614204407	response	0	k		127.0	/home/egter/Projects/stimuli/pictures/R_S_yt-lfDIg8kaXhA_169.png	270.71200299263	
130	242.06582617759705	picture	0		181.0	128.0	/home/egter/Projects/stimuli/pictures/n02115913_4026.JPEG	270.725723028183	1.513767957687378
130	243.56867814064026	response	0	k		128.0	/home/egter/Projects/stimuli/pictures/n02115913_4026.JPEG	272.2285749912262	
131	243.57959413528442	picture	0		348.0	129.0	/home/egter/Projects/stimuli/pictures/S_pexels-roman-odintsov-8233166.png	272.23949098587036	2.9028708934783936
131	246.46864414215088	response	0	j		129.0	/home/egter/Projects/stimuli/pictures/S_pexels-roman-odintsov-8233166.png	275.1285409927368	
132	246.48246502876282	picture	0		697.0	130.0	/home/egter/Projects/stimuli/pictures/S_yt-QytEkcDtaQA_9.png	275.14236187934875	5.812350034713745
132	252.2852749824524	response	0	k		130.0	/home/egter/Projects/stimuli/pictures/S_yt-QytEkcDtaQA_9.png	280.94517183303833	
133	252.29481506347656	picture	0		171.0	131.0	/home/egter/Projects/stimuli/pictures/S_ILSVRC2015_train_00324001.png	280.9547119140625	1.4236969947814941
133	253.71026301383972	response	0	k		131.0	/home/egter/Projects/stimuli/pictures/S_ILSVRC2015_train_00324001.png	282.37015986442566	
134	253.71851205825806	picture	0		78.0	132.0	/home/egter/Projects/stimuli/pictures/R_S_wc-6or3Gl2Fif0m_13.png	282.378408908844	0.6526761054992676
134	254.3603160381317	response	0	j		132.0	/home/egter/Projects/stimuli/pictures/R_S_wc-6or3Gl2Fif0m_13.png	283.02021288871765	
135	254.37118816375732	picture	0		1270.0	133.0	/home/egter/Projects/stimuli/pictures/S_yt-qxtmtMnUfD0_124.png	283.03108501434326	10.588964939117432
135	264.9435679912567	response	0	j		133.0	/home/egter/Projects/stimuli/pictures/S_yt-qxtmtMnUfD0_124.png	293.60346484184265	
136	264.96015310287476	picture	0		193.0	134.0	/home/egter/Projects/stimuli/pictures/S_yt-JWedZ-zeqgQ_52.png	293.6200499534607	1.6123390197753906
136	266.56023812294006	response	0	k		134.0	/home/egter/Projects/stimuli/pictures/S_yt-JWedZ-zeqgQ_52.png	295.220134973526	
137	266.57249212265015	picture	0		87.0	135.0	/home/egter/Projects/stimuli/pictures/R_S_bing-www_dailymotion_com_video_x64hzm7_8.png	295.2323889732361	0.7293479442596436
137	267.28522396087646	response	0	k		135.0	/home/egter/Projects/stimuli/pictures/R_S_bing-www_dailymotion_com_video_x64hzm7_8.png	295.9451208114624	
137	267.28530406951904	response	0	j		135.0	/home/egter/Projects/stimuli/pictures/R_S_bing-www_dailymotion_com_video_x64hzm7_8.png	295.945200920105	
138	267.3018400669098	picture	0		180.0	136.0	/home/egter/Projects/stimuli/pictures/R_S_yt-NuZy8Rjk4d0_156.png	295.9617369174957	1.4999189376831055
138	268.78680396080017	response	0	j		136.0	/home/egter/Projects/stimuli/pictures/R_S_yt-NuZy8Rjk4d0_156.png	297.4467008113861	
139	268.8017590045929	picture	0		80.0	137.0	/home/egter/Projects/stimuli/pictures/S_yt-s5YONFy3vb4_46.png	297.46165585517883	0.6667041778564453
139	269.4601991176605	response	0	k		137.0	/home/egter/Projects/stimuli/pictures/S_yt-s5YONFy3vb4_46.png	298.12009596824646	
140	269.46846318244934	picture	0		81.0	138.0	/home/egter/Projects/stimuli/pictures/R_S_yt-K-iCphzt_RE_17.png	298.1283600330353	0.6804399490356445
140	270.13523602485657	response	0	j		138.0	/home/egter/Projects/stimuli/pictures/R_S_yt-K-iCphzt_RE_17.png	298.7951328754425	
141	270.148903131485	picture	0		100.0	139.0	/home/egter/Projects/stimuli/pictures/n04258138_7816.JPEG	298.8087999820709	0.8401658535003662
141	270.97694301605225	response	0	k		139.0	/home/egter/Projects/stimuli/pictures/n04258138_7816.JPEG	299.6368398666382	
142	270.98906898498535	picture	0		149.0	140.0	/home/egter/Projects/stimuli/pictures/ILSVRC2012_test_00005577.JPEG	299.6489658355713	1.2433249950408936
142	272.218544960022	response	0	k		140.0	/home/egter/Projects/stimuli/pictures/ILSVRC2012_test_00005577.JPEG	300.8784418106079	
143	272.23239398002625	picture	0		255.0	141.0	/home/egter/Projects/stimuli/pictures/S_ILSVRC2015_train_00165008.png	300.8922908306122	2.1316561698913574
143	274.3518521785736	response	0	k		141.0	/home/egter/Projects/stimuli/pictures/S_ILSVRC2015_train_00165008.png	303.01174902915955	
144	274.3640501499176	picture	0		98.0	142.0	/home/egter/Projects/stimuli/pictures/n06794110_5840.JPEG	303.02394700050354	0.812687873840332
144	275.16851902008057	response	0	k		142.0	/home/egter/Projects/stimuli/pictures/n06794110_5840.JPEG	303.8284158706665	
145	275.17673802375793	picture	0		99.0	143.0	/home/egter/Projects/stimuli/pictures/n01748264_10281.JPEG	303.8366348743439	0.8261361122131348
145	275.9866759777069	response	0	k		143.0	/home/egter/Projects/stimuli/pictures/n01748264_10281.JPEG	304.64657282829285	
146	276.00287413597107	picture	0		28.0	144.0	/home/egter/Projects/stimuli/pictures/R_S_yt-e9AZJKNv9ow_359.png	304.662770986557	0.23626184463500977
146	276.22002696990967	response	0	k		144.0	/home/egter/Projects/stimuli/pictures/R_S_yt-e9AZJKNv9ow_359.png	304.8799238204956	
147	276.2391359806061	picture	0		88.0	145.0	/home/egter/Projects/stimuli/pictures/S_yt-T2Izta7lYZg_111.png	304.899032831192	0.7292611598968506
147	276.9601819515228	response	0	j		145.0	/home/egter/Projects/stimuli/pictures/S_yt-T2Izta7lYZg_111.png	305.62007880210876	
148	276.96839714050293	picture	0		53.0	146.0	/home/egter/Projects/stimuli/pictures/R_S_g201_CA_A016_C002_SDR_20191114_SDR_2K_AVC.png	305.62829399108887	0.4442429542541504
148	277.3949861526489	response	0	k		146.0	/home/egter/Projects/stimuli/pictures/R_S_g201_CA_A016_C002_SDR_20191114_SDR_2K_AVC.png	306.05488300323486	
149	277.4126400947571	picture	0		61.0	147.0	/home/egter/Projects/stimuli/pictures/S_production_ID_4121250.png	306.072536945343	0.5069558620452881
149	277.91014409065247	response	0	k		147.0	/home/egter/Projects/stimuli/pictures/S_production_ID_4121250.png	306.5700409412384	
150	277.91959595680237	picture	0		62.0	148.0	/home/egter/Projects/stimuli/pictures/R_S_yt-HwEfWfFJhRo_73.png	306.5794928073883	0.5208580493927002
150	278.41998314857483	response	0	j		148.0	/home/egter/Projects/stimuli/pictures/R_S_yt-HwEfWfFJhRo_73.png	307.07987999916077	
151	278.44045400619507	picture	0		89.0	149.0	/home/egter/Projects/stimuli/pictures/n04523525_22909.JPEG	307.100350856781	0.7499871253967285
151	279.1768660545349	response	0	k		149.0	/home/egter/Projects/stimuli/pictures/n04523525_22909.JPEG	307.83676290512085	
152	279.1904411315918	picture	0		156.0	150.0	/home/egter/Projects/stimuli/pictures/n02489166_12291.JPEG	307.85033798217773	1.3055298328399658
152	280.4851610660553	response	0	k		150.0	/home/egter/Projects/stimuli/pictures/n02489166_12291.JPEG	309.14505791664124	
153	280.49597096443176	picture	0		181.0	151.0	/home/egter/Projects/stimuli/pictures/n02087394_8183.JPEG	309.1558678150177	1.5069010257720947
153	281.98671197891235	response	0	k		151.0	/home/egter/Projects/stimuli/pictures/n02087394_8183.JPEG	310.6466088294983	
154	282.00287199020386	picture	0		502.0	152.0	/home/egter/Projects/stimuli/pictures/n02514041_5662.JPEG	310.6627688407898	4.187514066696167
154	286.1768219470978	response	0	k		152.0	/home/egter/Projects/stimuli/pictures/n02514041_5662.JPEG	314.8367187976837	
155	286.1903860569	picture	0		168.0	153.0	/home/egter/Projects/stimuli/pictures/S_pexels-cottonbro-6788024.png	314.85028290748596	1.4030060768127441
155	287.5851399898529	response	0	j		153.0	/home/egter/Projects/stimuli/pictures/S_pexels-cottonbro-6788024.png	316.24503684043884	
156	287.59339213371277	picture	0		120.0	154.0	/home/egter/Projects/stimuli/pictures/n03633091_8817.JPEG	316.2532889842987	0.9999308586120605
156	288.585165977478	response	0	k		154.0	/home/egter/Projects/stimuli/pictures/n03633091_8817.JPEG	317.24506282806396	
157	288.59332299232483	picture	0		135.0	155.0	/home/egter/Projects/stimuli/pictures/ILSVRC2012_test_00072196.JPEG	317.25321984291077	1.1250460147857666
157	289.7102119922638	response	0	k		155.0	/home/egter/Projects/stimuli/pictures/ILSVRC2012_test_00072196.JPEG	318.37010884284973	
158	289.7183690071106	picture	0		132.0	156.0	/home/egter/Projects/stimuli/pictures/n02979186_11156.JPEG	318.37826585769653	1.1038329601287842
158	290.80338311195374	response	0	k		156.0	/home/egter/Projects/stimuli/pictures/n02979186_11156.JPEG	319.4632799625397	
159	290.8222019672394	picture	0		127.0	157.0	/home/egter/Projects/stimuli/pictures/n09428293_20041.JPEG	319.4820988178253	1.055530071258545
159	291.86865401268005	response	0	k		157.0	/home/egter/Projects/stimuli/pictures/n09428293_20041.JPEG	320.528550863266	
160	291.8777320384979	picture	0		223.0	158.0	/home/egter/Projects/stimuli/pictures/S_yt-SGTgMItFkxY_172.png	320.53762888908386	1.8611469268798828
160	293.7267470359802	response	0	k		158.0	/home/egter/Projects/stimuli/pictures/S_yt-SGTgMItFkxY_172.png	322.38664388656616	
161	293.7388789653778	picture	0		128.0	159.0	/home/egter/Projects/stimuli/pictures/S_yt-1iB2ofPY1U8_16.png	322.39877581596375	1.0627970695495605
161	294.79344296455383	response	0	j		159.0	/home/egter/Projects/stimuli/pictures/S_yt-1iB2ofPY1U8_16.png	323.45333981513977	
162	294.80167603492737	picture	0		118.0	160.0	/home/egter/Projects/stimuli/pictures/R_S_yt-XYULt48onn4_6.png	323.4615728855133	0.9858150482177734
162	295.7768621444702	response	0	k		160.0	/home/egter/Projects/stimuli/pictures/R_S_yt-XYULt48onn4_6.png	324.43675899505615	
163	295.78749108314514	picture	0		185.0	161.0	/home/egter/Projects/stimuli/pictures/S_ILSVRC2015_train_00595000.png	324.4473879337311	1.5415830612182617
163	297.3184161186218	response	0	j		161.0	/home/egter/Projects/stimuli/pictures/S_ILSVRC2015_train_00595000.png	325.97831296920776	
164	297.3290741443634	picture	0		148.0	162.0	/home/egter/Projects/stimuli/pictures/n02704792_13530.JPEG	325.98897099494934	1.2362229824066162
164	298.55175495147705	response	0	k		162.0	/home/egter/Projects/stimuli/pictures/n02704792_13530.JPEG	327.211651802063	
165	298.56529712677	picture	0		141.0	163.0	/home/egter/Projects/stimuli/pictures/S_yt-EOspahHAnV4_85.png	327.22519397735596	1.180474042892456
165	299.73513007164	response	0	k		163.0	/home/egter/Projects/stimuli/pictures/S_yt-EOspahHAnV4_85.png	328.39502692222595	
166	299.7457711696625	picture	0		207.0	164.0	/home/egter/Projects/stimuli/pictures/S_video_inspire_florida_miami_brickell_sunset_00036.png	328.4056680202484	1.722571849822998
166	301.4601249694824	response	0	k		164.0	/home/egter/Projects/stimuli/pictures/S_video_inspire_florida_miami_brickell_sunset_00036.png	330.12002182006836	
167	301.4683430194855	picture	0		89.0	165.0	/home/egter/Projects/stimuli/pictures/n02494079_5661.JPEG	330.1282398700714	0.7426731586456299
167	302.1949861049652	response	0	j		165.0	/home/egter/Projects/stimuli/pictures/n02494079_5661.JPEG	330.85488295555115	
168	302.2110161781311	picture	0		59.0	166.0	/home/egter/Projects/stimuli/pictures/ILSVRC2012_test_00028394.JPEG	330.87091302871704	0.49307799339294434
168	302.6934640407562	response	0	k		166.0	/home/egter/Projects/stimuli/pictures/ILSVRC2012_test_00028394.JPEG	331.35336089134216	
169	302.70409417152405	picture	0		130.0	167.0	/home/egter/Projects/stimuli/pictures/n01914609_246.JPEG	331.36399102211	1.0832879543304443
169	303.77675199508667	response	0	k		167.0	/home/egter/Projects/stimuli/pictures/n01914609_246.JPEG	332.4366488456726	
170	303.7873821258545	picture	0		115.0	168.0	/home/egter/Projects/stimuli/pictures/n02114712_16500.JPEG	332.44727897644043	0.9583530426025391
170	304.7350699901581	response	0	j		168.0	/home/egter/Projects/stimuli/pictures/n02114712_16500.JPEG	333.394966840744	
171	304.74573516845703	picture	0		84.0	169.0	/home/egter/Projects/stimuli/pictures/n02489166_9203.JPEG	333.40563201904297	0.701387882232666
171	305.4351291656494	response	0	k		169.0	/home/egter/Projects/stimuli/pictures/n02489166_9203.JPEG	334.09502601623535	
172	305.4471230506897	picture	0		78.0	170.0	/home/egter/Projects/stimuli/pictures/R_S_G009_C014_UHD_SDR_2K_AVC.png	334.10701990127563	0.6461539268493652
172	306.0851261615753	response	0	j		170.0	/home/egter/Projects/stimuli/pictures/R_S_G009_C014_UHD_SDR_2K_AVC.png	334.74502301216125	
173	306.09327697753906	picture	0		96.0	171.0	/home/egter/Projects/stimuli/pictures/n02099849_1496.JPEG	334.753173828125	0.8052620887756348
173	306.88503313064575	response	0	k		171.0	/home/egter/Projects/stimuli/pictures/n02099849_1496.JPEG	335.5449299812317	
174	306.8985390663147	picture	0		111.0	172.0	/home/egter/Projects/stimuli/pictures/S_ILSVRC2015_train_00087003.png	335.55843591690063	0.9304521083831787
174	307.8116250038147	response	0	j		172.0	/home/egter/Projects/stimuli/pictures/S_ILSVRC2015_train_00087003.png	336.47152185440063	
175	307.8289911746979	picture	0		122.0	173.0	/home/egter/Projects/stimuli/pictures/n02268853_1431.JPEG	336.4888880252838	1.0143167972564697
175	308.8350911140442	response	0	k		173.0	/home/egter/Projects/stimuli/pictures/n02268853_1431.JPEG	337.4949879646301	
176	308.84330797195435	picture	0		136.0	174.0	/home/egter/Projects/stimuli/pictures/n02701002_728.JPEG	337.5032048225403	1.1385281085968018
176	309.96838116645813	response	0	k		174.0	/home/egter/Projects/stimuli/pictures/n02701002_728.JPEG	338.62827801704407	
177	309.98183608055115	picture	0		148.0	175.0	/home/egter/Projects/stimuli/pictures/ILSVRC2012_test_00050705.JPEG	338.6417329311371	1.2430639266967773
177	311.2032129764557	response	0	k		175.0	/home/egter/Projects/stimuli/pictures/ILSVRC2012_test_00050705.JPEG	339.8631098270416	
178	311.2249000072479	picture	0		129.0	176.0	/home/egter/Projects/stimuli/pictures/R_S_Pexels_Videos_278654_1.png	339.88479685783386	1.0767121315002441
178	312.29342317581177	response	0	j		176.0	/home/egter/Projects/stimuli/pictures/R_S_Pexels_Videos_278654_1.png	340.9533200263977	
179	312.30161213874817	picture	0		137.0	177.0	/home/egter/Projects/stimuli/pictures/S_yt-XtzmBXKYEWk_60.png	340.9615089893341	1.145366907119751
179	313.42821502685547	response	0	j		177.0	/home/egter/Projects/stimuli/pictures/S_yt-XtzmBXKYEWk_60.png	342.0881118774414	
180	313.4469790458679	picture	0		134.0	178.0	/home/egter/Projects/stimuli/pictures/S_yt-YxVIDs9oN50_3.png	342.10687589645386	1.1182010173797607
180	314.55170011520386	response	0	k		178.0	/home/egter/Projects/stimuli/pictures/S_yt-YxVIDs9oN50_3.png	343.2115969657898	
181	314.5651800632477	picture	0		106.0	179.0	/home/egter/Projects/stimuli/pictures/R_S_yt-4qU-6TEW06E_38.png	343.2250769138336	0.8887920379638672
181	315.4433391094208	response	0	j		179.0	/home/egter/Projects/stimuli/pictures/R_S_yt-4qU-6TEW06E_38.png	344.1032359600067	
182	315.45397210121155	stim	0		295.0			344.1138689517975	2.4583230018615723
182	316.70170497894287	response	0	j				345.3616018295288	
182	317.9017050266266	response	0	space				346.5616018772125	
