trial_nr	onset	event_type	phase	response	nr_frames	picture_index	picture_file	onset_abs	duration
0	0.14988303184509277	stim	0		1479			149.42157649993896	12.34346318244934
0	12.475346326828003	response	0	space				161.74703979492188	
2	12.493346214294434	picture	0		103	0.0	/experiments/Knapen_AOT/AOT_stimuli/pictures/0931_fw.png	161.7650396823883	0.8650219440460205
2	13.341865539550781	response	0	j		0.0	/experiments/Knapen_AOT/AOT_stimuli/pictures/0931_fw.png	162.61355900764465	
3	13.358368158340454	picture	0		96	1.0	/experiments/Knapen_AOT/AOT_stimuli/pictures/0215_fw.png	162.63006162643433	0.8082518577575684
3	14.150402069091797	response	0	j		1.0	/experiments/Knapen_AOT/AOT_stimuli/pictures/0215_fw.png	163.42209553718567	
4	14.166620016098022	picture	0		159	2.0	/experiments/Knapen_AOT/AOT_stimuli/pictures/1730_fw.png	163.4383134841919	1.3267502784729004
4	15.475881814956665	response	0	j		2.0	/experiments/Knapen_AOT/AOT_stimuli/pictures/1730_fw.png	164.74757528305054	
5	15.493370294570923	picture	0		98	3.0	/experiments/Knapen_AOT/AOT_stimuli/pictures/1581_fw.png	164.7650637626648	0.8195505142211914
5	16.300148963928223	response	0	k		3.0	/experiments/Knapen_AOT/AOT_stimuli/pictures/1581_fw.png	165.5718424320221	
6	16.312920808792114	picture	0		120	4.0	/experiments/Knapen_AOT/AOT_stimuli/pictures/1701_fw.png	165.584614276886	0.9999885559082031
6	17.300199508666992	response	0	j		4.0	/experiments/Knapen_AOT/AOT_stimuli/pictures/1701_fw.png	166.57189297676086	
7	17.312909364700317	picture	0		114	5.0	/experiments/Knapen_AOT/AOT_stimuli/pictures/2089_fw.png	166.5846028327942	0.9537785053253174
7	18.250483512878418	response	0	k		5.0	/experiments/Knapen_AOT/AOT_stimuli/pictures/2089_fw.png	167.5221769809723	
8	18.266687870025635	picture	0		90	6.0	/experiments/Knapen_AOT/AOT_stimuli/pictures/0203_fw.png	167.5383813381195	0.7546393871307373
8	19.008548259735107	response	0	j		6.0	/experiments/Knapen_AOT/AOT_stimuli/pictures/0203_fw.png	168.28024172782898	
9	19.021327257156372	picture	0		86	7.0	/experiments/Knapen_AOT/AOT_stimuli/pictures/0496_fw.png	168.29302072525024	0.7152884006500244
9	19.72526454925537	response	0	k		7.0	/experiments/Knapen_AOT/AOT_stimuli/pictures/0496_fw.png	168.99695801734924	
10	19.736615657806396	picture	0		436	8.0	/experiments/Knapen_AOT/AOT_stimuli/pictures/1316_fw.png	169.00830912590027	3.638463258743286
10	23.35864543914795	response	0	j		8.0	/experiments/Knapen_AOT/AOT_stimuli/pictures/1316_fw.png	172.63033890724182	
11	23.375078916549683	picture	0		105	9.0	/experiments/Knapen_AOT/AOT_stimuli/pictures/0351_fw.png	172.64677238464355	0.8833086490631104
11	24.241920948028564	response	0	k		9.0	/experiments/Knapen_AOT/AOT_stimuli/pictures/0351_fw.png	173.51361441612244	
12	24.258387565612793	picture	0		100	10.0	/experiments/Knapen_AOT/AOT_stimuli/pictures/2038_fw.png	173.53008103370667	0.8416962623596191
12	25.08377742767334	response	0	k		10.0	/experiments/Knapen_AOT/AOT_stimuli/pictures/2038_fw.png	174.3554708957672	
13	25.100083827972412	picture	0		100	11.0	/experiments/Knapen_AOT/AOT_stimuli/pictures/1880_fw.png	174.37177729606628	0.8379087448120117
13	25.92529058456421	response	0	k		11.0	/experiments/Knapen_AOT/AOT_stimuli/pictures/1880_fw.png	175.19698405265808	
14	25.937992572784424	picture	0		91	12.0	/experiments/Knapen_AOT/AOT_stimuli/pictures/1763_fw.png	175.2096860408783	0.7640295028686523
14	26.69196915626526	response	0	k		12.0	/experiments/Knapen_AOT/AOT_stimuli/pictures/1763_fw.png	175.96366262435913	
15	26.702022075653076	picture	0		93	13.0	/experiments/Knapen_AOT/AOT_stimuli/pictures/0872_fw.png	175.97371554374695	0.777653694152832
15	27.460289001464844	response	0	k		13.0	/experiments/Knapen_AOT/AOT_stimuli/pictures/0872_fw.png	176.73198246955872	
16	27.479675769805908	picture	0		99	14.0	/experiments/Knapen_AOT/AOT_stimuli/pictures/0512_fw.png	176.75136923789978	0.8333513736724854
16	28.300297498703003	response	0	j		14.0	/experiments/Knapen_AOT/AOT_stimuli/pictures/0512_fw.png	177.57199096679688	
17	28.313027143478394	picture	0		93	15.0	/experiments/Knapen_AOT/AOT_stimuli/pictures/0636_fw.png	177.58472061157227	0.7708923816680908
17	29.068095922470093	response	0	j		15.0	/experiments/Knapen_AOT/AOT_stimuli/pictures/0636_fw.png	178.33978939056396	
18	29.083919525146484	picture	0		140	16.0	/experiments/Knapen_AOT/AOT_stimuli/pictures/0661_fw.png	178.35561299324036	1.1665875911712646
18	30.2420437335968	response	0	j		16.0	/experiments/Knapen_AOT/AOT_stimuli/pictures/0661_fw.png	179.51373720169067	
19	30.25050711631775	picture	0		110	17.0	/experiments/Knapen_AOT/AOT_stimuli/pictures/0772_fw.png	179.52220058441162	0.9166641235351562
19	31.158747911453247	response	0	j		17.0	/experiments/Knapen_AOT/AOT_stimuli/pictures/0772_fw.png	180.43044137954712	
20	31.167171239852905	picture	0		124	18.0	/experiments/Knapen_AOT/AOT_stimuli/pictures/1072_fw.png	180.43886470794678	1.0413644313812256
20	32.192262411117554	response	0	k		18.0	/experiments/Knapen_AOT/AOT_stimuli/pictures/1072_fw.png	181.46395587921143	
21	32.20853567123413	picture	0		127	19.0	/experiments/Knapen_AOT/AOT_stimuli/pictures/0960_fw.png	181.480229139328	1.0666675567626953
21	33.25895881652832	response	0	k		19.0	/experiments/Knapen_AOT/AOT_stimuli/pictures/0960_fw.png	182.5306522846222	
22	33.275203227996826	picture	0		161	20.0	/experiments/Knapen_AOT/AOT_stimuli/pictures/0758_fw.png	182.5468966960907	1.3500196933746338
22	34.60897517204285	response	0	j		20.0	/experiments/Knapen_AOT/AOT_stimuli/pictures/0758_fw.png	183.88066864013672	
23	34.62522292137146	picture	0		158	21.0	/experiments/Knapen_AOT/AOT_stimuli/pictures/2018_fw.png	183.89691638946533	1.3198022842407227
23	35.93385720252991	response	0	j		21.0	/experiments/Knapen_AOT/AOT_stimuli/pictures/2018_fw.png	185.20555067062378	
24	35.94502520561218	picture	0		109	22.0	/experiments/Knapen_AOT/AOT_stimuli/pictures/1574_fw.png	185.21671867370605	0.9097123146057129
24	36.84205961227417	response	0	k		22.0	/experiments/Knapen_AOT/AOT_stimuli/pictures/1574_fw.png	186.11375308036804	
25	36.854737520217896	picture	0		93	23.0	/experiments/Knapen_AOT/AOT_stimuli/pictures/0928_fw.png	186.12643098831177	0.7788522243499756
25	37.6170871257782	response	0	j		23.0	/experiments/Knapen_AOT/AOT_stimuli/pictures/0928_fw.png	186.88878059387207	
26	37.63358974456787	picture	0		106	24.0	/experiments/Knapen_AOT/AOT_stimuli/pictures/1888_fw.png	186.90528321266174	0.88787841796875
26	38.50884532928467	response	0	k		24.0	/experiments/Knapen_AOT/AOT_stimuli/pictures/1888_fw.png	187.78053879737854	
27	38.52146816253662	picture	0		97	25.0	/experiments/Knapen_AOT/AOT_stimuli/pictures/1302_fw.png	187.7931616306305	0.805567741394043
27	39.317164182662964	response	0	k		25.0	/experiments/Knapen_AOT/AOT_stimuli/pictures/1302_fw.png	188.58885765075684	
28	39.327035903930664	picture	0		92	26.0	/experiments/Knapen_AOT/AOT_stimuli/pictures/0722_fw.png	188.59872937202454	0.773240327835083
28	40.08411169052124	response	0	k		26.0	/experiments/Knapen_AOT/AOT_stimuli/pictures/0722_fw.png	189.3558051586151	
29	40.10027623176575	picture	0		114	27.0	/experiments/Knapen_AOT/AOT_stimuli/pictures/1203_fw.png	189.37196969985962	0.9558980464935303
29	41.04231524467468	response	0	j		27.0	/experiments/Knapen_AOT/AOT_stimuli/pictures/1203_fw.png	190.31400871276855	
30	41.05617427825928	picture	0		78	28.0	/experiments/Knapen_AOT/AOT_stimuli/pictures/0394_fw.png	190.32786774635315	0.6607723236083984
30	41.7004714012146	response	0	j		28.0	/experiments/Knapen_AOT/AOT_stimuli/pictures/0394_fw.png	190.97216486930847	
31	41.716946601867676	picture	0		89	29.0	/experiments/Knapen_AOT/AOT_stimuli/pictures/0337_fw.png	190.98864006996155	0.7419745922088623
31	42.45046782493591	response	0	j		29.0	/experiments/Knapen_AOT/AOT_stimuli/pictures/0337_fw.png	191.72216129302979	
32	42.45892119407654	picture	0		100	30.0	/experiments/Knapen_AOT/AOT_stimuli/pictures/0295_fw.png	191.7306146621704	0.8414199352264404
32	43.283989906311035	response	0	j		30.0	/experiments/Knapen_AOT/AOT_stimuli/pictures/0295_fw.png	192.5556833744049	
33	43.30034112930298	picture	0		135	31.0	/experiments/Knapen_AOT/AOT_stimuli/pictures/1393_fw.png	192.57203459739685	1.1308515071868896
33	44.41719126701355	response	0	k		31.0	/experiments/Knapen_AOT/AOT_stimuli/pictures/1393_fw.png	193.68888473510742	
34	44.43119263648987	picture	0		311	32.0	/experiments/Knapen_AOT/AOT_stimuli/pictures/0968_fw.png	193.70288610458374	2.6024999618530273
34	47.0172324180603	response	0	k		32.0	/experiments/Knapen_AOT/AOT_stimuli/pictures/0968_fw.png	196.28892588615417	
35	47.033692598342896	picture	0		228	33.0	/experiments/Knapen_AOT/AOT_stimuli/pictures/1968_fw.png	196.30538606643677	1.9043684005737305
35	48.92572021484375	response	0	k		33.0	/experiments/Knapen_AOT/AOT_stimuli/pictures/1968_fw.png	198.19741368293762	
36	48.938060998916626	picture	0		320	34.0	/experiments/Knapen_AOT/AOT_stimuli/pictures/0715_fw.png	198.2097544670105	2.6666760444641113
36	51.59227919578552	response	0	k		34.0	/experiments/Knapen_AOT/AOT_stimuli/pictures/0715_fw.png	200.8639726638794	
37	51.60473704338074	picture	0		192	35.0	/experiments/Knapen_AOT/AOT_stimuli/pictures/0702_fw.png	200.8764305114746	1.5973021984100342
37	53.192283630371094	response	0	j		35.0	/experiments/Knapen_AOT/AOT_stimuli/pictures/0702_fw.png	202.46397709846497	
38	53.20203924179077	picture	0		81	36.0	/experiments/Knapen_AOT/AOT_stimuli/pictures/0228_fw.png	202.47373270988464	0.6736557483673096
38	53.86758756637573	response	0	j		36.0	/experiments/Knapen_AOT/AOT_stimuli/pictures/0228_fw.png	203.1392810344696	
39	53.87569499015808	picture	0		120	37.0	/experiments/Knapen_AOT/AOT_stimuli/pictures/1343_fw.png	203.14738845825195	0.9999871253967285
39	54.860008239746094	response	0	k		37.0	/experiments/Knapen_AOT/AOT_stimuli/pictures/1343_fw.png	204.13170170783997	
40	54.87568211555481	picture	0		84	38.0	/experiments/Knapen_AOT/AOT_stimuli/pictures/1146_fw.png	204.14737558364868	0.7014288902282715
40	55.5673725605011	response	0	j		38.0	/experiments/Knapen_AOT/AOT_stimuli/pictures/1146_fw.png	204.83906602859497	
41	55.57711100578308	picture	0		87	39.0	/experiments/Knapen_AOT/AOT_stimuli/pictures/0689_fw.png	204.84880447387695	0.7317354679107666
41	56.29233360290527	response	0	k		39.0	/experiments/Knapen_AOT/AOT_stimuli/pictures/0689_fw.png	205.56402707099915	
42	56.30884647369385	picture	0		174	40.0	/experiments/Knapen_AOT/AOT_stimuli/pictures/1268_fw.png	205.58053994178772	1.4556756019592285
42	57.7507004737854	response	0	k		40.0	/experiments/Knapen_AOT/AOT_stimuli/pictures/1268_fw.png	207.02239394187927	
43	57.764522075653076	picture	0		131	41.0	/experiments/Knapen_AOT/AOT_stimuli/pictures/2158_fw.png	207.03621554374695	1.102647066116333
43	58.850719928741455	response	0	k		41.0	/experiments/Knapen_AOT/AOT_stimuli/pictures/2158_fw.png	208.12241339683533	
44	58.86716914176941	picture	0		97	42.0	/experiments/Knapen_AOT/AOT_stimuli/pictures/0054_fw.png	208.13886260986328	0.8141040802001953
44	59.65986347198486	response	0	k		42.0	/experiments/Knapen_AOT/AOT_stimuli/pictures/0054_fw.png	208.93155694007874	
45	59.681273221969604	picture	0		94	43.0	/experiments/Knapen_AOT/AOT_stimuli/pictures/0341_fw.png	208.95296669006348	0.7916827201843262
45	60.45906949043274	response	0	k		43.0	/experiments/Knapen_AOT/AOT_stimuli/pictures/0341_fw.png	209.7307629585266	
46	60.47295594215393	picture	0		190	44.0	/experiments/Knapen_AOT/AOT_stimuli/pictures/1835_fw.png	209.7446494102478	1.5943150520324707
46	62.05109190940857	response	0	k		44.0	/experiments/Knapen_AOT/AOT_stimuli/pictures/1835_fw.png	211.32278537750244	
47	62.0672709941864	picture	0		104	45.0	/experiments/Knapen_AOT/AOT_stimuli/pictures/1933_fw.png	211.33896446228027	0.8749990463256836
47	62.92575931549072	response	0	k		45.0	/experiments/Knapen_AOT/AOT_stimuli/pictures/1933_fw.png	212.1974527835846	
48	62.942270040512085	picture	0		135	46.0	/experiments/Knapen_AOT/AOT_stimuli/pictures/0457_fw.png	212.21396350860596	1.1333396434783936
48	64.05908989906311	response	0	k		46.0	/experiments/Knapen_AOT/AOT_stimuli/pictures/0457_fw.png	213.33078336715698	
49	64.07560968399048	picture	0		381	47.0	/experiments/Knapen_AOT/AOT_stimuli/pictures/1667_fw.png	213.34730315208435	3.1750495433807373
49	67.24248766899109	response	0	k		47.0	/experiments/Knapen_AOT/AOT_stimuli/pictures/1667_fw.png	216.51418113708496	
50	67.25065922737122	picture	0		95	48.0	/experiments/Knapen_AOT/AOT_stimuli/pictures/0161_fw.png	216.5223526954651	0.7918736934661865
50	68.03415131568909	response	0	k		48.0	/experiments/Knapen_AOT/AOT_stimuli/pictures/0161_fw.png	217.30584478378296	
51	68.0425329208374	picture	0		104	49.0	/experiments/Knapen_AOT/AOT_stimuli/pictures/1664_fw.png	217.31422638893127	0.8679585456848145
51	68.90088105201721	response	0	j		49.0	/experiments/Knapen_AOT/AOT_stimuli/pictures/1664_fw.png	218.17257452011108	
52	68.91049146652222	picture	0		119	50.0	/experiments/Knapen_AOT/AOT_stimuli/pictures/0681_fw.png	218.1821849346161	0.9931974411010742
52	69.89255976676941	response	0	k		50.0	/experiments/Knapen_AOT/AOT_stimuli/pictures/0681_fw.png	219.16425323486328	
53	69.90368890762329	picture	0		125	51.0	/experiments/Knapen_AOT/AOT_stimuli/pictures/1051_fw.png	219.17538237571716	1.041597843170166
53	70.93420147895813	response	0	j		51.0	/experiments/Knapen_AOT/AOT_stimuli/pictures/1051_fw.png	220.205894947052	
54	70.94528675079346	picture	0		87	52.0	/experiments/Knapen_AOT/AOT_stimuli/pictures/2081_fw.png	220.21698021888733	0.7303893566131592
54	71.65179014205933	response	0	j		52.0	/experiments/Knapen_AOT/AOT_stimuli/pictures/2081_fw.png	220.9234836101532	
55	71.67567610740662	picture	0		129	53.0	/experiments/Knapen_AOT/AOT_stimuli/pictures/1044_fw.png	220.9473695755005	1.083392858505249
55	72.7427008152008	response	0	j		53.0	/experiments/Knapen_AOT/AOT_stimuli/pictures/1044_fw.png	222.01439428329468	
56	72.75906896591187	picture	0		115	54.0	/experiments/Knapen_AOT/AOT_stimuli/pictures/0969_fw.png	222.03076243400574	0.9666543006896973
56	73.70939612388611	response	0	k		54.0	/experiments/Knapen_AOT/AOT_stimuli/pictures/0969_fw.png	222.98108959197998	
57	73.72572326660156	picture	0		123	55.0	/experiments/Knapen_AOT/AOT_stimuli/pictures/0659_fw.png	222.99741673469543	1.0333096981048584
57	74.74259805679321	response	0	k		55.0	/experiments/Knapen_AOT/AOT_stimuli/pictures/0659_fw.png	224.01429152488708	
58	74.75903296470642	picture	0		113	56.0	/experiments/Knapen_AOT/AOT_stimuli/pictures/1872_fw.png	224.0307264328003	0.9431729316711426
58	75.69256210327148	response	0	k		56.0	/experiments/Knapen_AOT/AOT_stimuli/pictures/1872_fw.png	224.96425557136536	
59	75.70220589637756	picture	0		121	57.0	/experiments/Knapen_AOT/AOT_stimuli/pictures/1014_fw.png	224.97389936447144	1.0069527626037598
59	76.70095419883728	response	0	j		57.0	/experiments/Knapen_AOT/AOT_stimuli/pictures/1014_fw.png	225.97264766693115	
60	76.70915865898132	picture	0		162	58.0	/experiments/Knapen_AOT/AOT_stimuli/pictures/0414_fw.png	225.9808521270752	1.3582572937011719
60	78.05117058753967	response	0	k		58.0	/experiments/Knapen_AOT/AOT_stimuli/pictures/0414_fw.png	227.32286405563354	
61	78.0674159526825	picture	0		257	59.0	/experiments/Knapen_AOT/AOT_stimuli/pictures/1724_fw.png	227.33910942077637	2.150029420852661
61	80.20099925994873	response	0	k		59.0	/experiments/Knapen_AOT/AOT_stimuli/pictures/1724_fw.png	229.4726927280426	
62	80.21744537353516	picture	0		87	60.0	/experiments/Knapen_AOT/AOT_stimuli/pictures/1677_fw.png	229.48913884162903	0.7279062271118164
62	80.93430829048157	response	0	k		60.0	/experiments/Knapen_AOT/AOT_stimuli/pictures/1677_fw.png	230.20600175857544	
63	80.94535160064697	picture	0		117	61.0	/experiments/Knapen_AOT/AOT_stimuli/pictures/1289_fw.png	230.21704506874084	0.9804425239562988
63	81.9095549583435	response	0	k		61.0	/experiments/Knapen_AOT/AOT_stimuli/pictures/1289_fw.png	231.18124842643738	
64	81.92579412460327	picture	0		120	62.0	/experiments/Knapen_AOT/AOT_stimuli/pictures/0654_fw.png	231.19748759269714	1.0056495666503906
64	82.91799354553223	response	0	k		62.0	/experiments/Knapen_AOT/AOT_stimuli/pictures/0654_fw.png	232.1896870136261	
65	82.93144369125366	picture	0		90	63.0	/experiments/Knapen_AOT/AOT_stimuli/pictures/0813_fw.png	232.20313715934753	0.7569863796234131
65	83.67602324485779	response	0	k		63.0	/experiments/Knapen_AOT/AOT_stimuli/pictures/0813_fw.png	232.94771671295166	
66	83.68843007087708	picture	0		140	64.0	/experiments/Knapen_AOT/AOT_stimuli/pictures/0584_fw.png	232.96012353897095	1.1666197776794434
66	84.84269118309021	response	0	k		64.0	/experiments/Knapen_AOT/AOT_stimuli/pictures/0584_fw.png	234.11438465118408	
67	84.85504984855652	picture	0		113	65.0	/experiments/Knapen_AOT/AOT_stimuli/pictures/0869_fw.png	234.1267433166504	0.9375333786010742
67	85.78438425064087	response	0	j		65.0	/experiments/Knapen_AOT/AOT_stimuli/pictures/0869_fw.png	235.05607771873474	
68	85.79258322715759	picture	0		87	66.0	/experiments/Knapen_AOT/AOT_stimuli/pictures/0946_fw.png	235.06427669525146	0.7292263507843018
68	86.5093674659729	response	0	k		66.0	/experiments/Knapen_AOT/AOT_stimuli/pictures/0946_fw.png	235.78106093406677	
69	86.5218095779419	picture	0		97	67.0	/experiments/Knapen_AOT/AOT_stimuli/pictures/0755_fw.png	235.79350304603577	0.8055086135864258
69	87.31775665283203	response	0	k		67.0	/experiments/Knapen_AOT/AOT_stimuli/pictures/0755_fw.png	236.5894501209259	
70	87.32731819152832	picture	0		146	68.0	/experiments/Knapen_AOT/AOT_stimuli/pictures/0726_fw.png	236.5990116596222	1.223581314086914
70	88.53449821472168	response	0	j		68.0	/experiments/Knapen_AOT/AOT_stimuli/pictures/0726_fw.png	237.80619168281555	
71	88.55089950561523	picture	0		131	69.0	/experiments/Knapen_AOT/AOT_stimuli/pictures/1793_fw.png	237.8225929737091	1.0999886989593506
71	89.63444781303406	response	0	j		69.0	/experiments/Knapen_AOT/AOT_stimuli/pictures/1793_fw.png	238.90614128112793	
72	89.65088820457458	picture	0		126	70.0	/experiments/Knapen_AOT/AOT_stimuli/pictures/1770_fw.png	238.92258167266846	1.0514395236968994
72	90.6928334236145	response	0	k		70.0	/experiments/Knapen_AOT/AOT_stimuli/pictures/1770_fw.png	239.96452689170837	
73	90.70232772827148	picture	0		99	71.0	/experiments/Knapen_AOT/AOT_stimuli/pictures/1583_fw.png	239.97402119636536	0.8264036178588867
73	91.51782870292664	response	0	k		71.0	/experiments/Knapen_AOT/AOT_stimuli/pictures/1583_fw.png	240.7895221710205	
74	91.52873134613037	picture	0		360	72.0	/experiments/Knapen_AOT/AOT_stimuli/pictures/1004_fw.png	240.80042481422424	2.9999330043792725
74	94.51779079437256	response	0	k		72.0	/experiments/Knapen_AOT/AOT_stimuli/pictures/1004_fw.png	243.78948426246643	
75	94.52866435050964	picture	0		119	73.0	/experiments/Knapen_AOT/AOT_stimuli/pictures/1743_fw.png	243.80035781860352	0.9931573867797852
75	95.50960230827332	response	0	k		73.0	/experiments/Knapen_AOT/AOT_stimuli/pictures/1743_fw.png	244.7812957763672	
76	95.52182173728943	picture	0		134	74.0	/experiments/Knapen_AOT/AOT_stimuli/pictures/1272_fw.png	244.7935152053833	1.1180815696716309
76	96.62629985809326	response	0	j		74.0	/experiments/Knapen_AOT/AOT_stimuli/pictures/1272_fw.png	245.89799332618713	
77	96.63990330696106	picture	0		699	75.0	/experiments/Knapen_AOT/AOT_stimuli/pictures/0296_fw.png	245.91159677505493	5.833268165588379
77	102.45193791389465	response	0	k		75.0	/experiments/Knapen_AOT/AOT_stimuli/pictures/0296_fw.png	251.72363138198853	
78	102.47317147254944	picture	0		107	76.0	/experiments/Knapen_AOT/AOT_stimuli/pictures/0780_fw.png	251.7448649406433	0.8959140777587891
78	103.35961031913757	response	0	k		76.0	/experiments/Knapen_AOT/AOT_stimuli/pictures/0780_fw.png	252.63130378723145	
79	103.36908555030823	picture	0		124	77.0	/experiments/Knapen_AOT/AOT_stimuli/pictures/1281_fw.png	252.6407790184021	1.0347442626953125
79	104.3929591178894	response	0	k		77.0	/experiments/Knapen_AOT/AOT_stimuli/pictures/1281_fw.png	253.66465258598328	
80	104.40382981300354	picture	0		105	78.0	/experiments/Knapen_AOT/AOT_stimuli/pictures/0942_fw.png	253.6755232810974	0.8805716037750244
80	105.26794123649597	response	0	j		78.0	/experiments/Knapen_AOT/AOT_stimuli/pictures/0942_fw.png	254.53963470458984	
81	105.28440141677856	picture	0		97	79.0	/experiments/Knapen_AOT/AOT_stimuli/pictures/0046_fw.png	254.55609488487244	0.81671142578125
81	106.08469152450562	response	0	k		79.0	/experiments/Knapen_AOT/AOT_stimuli/pictures/0046_fw.png	255.3563849925995	
82	106.10111284255981	picture	0		156	80.0	/experiments/Knapen_AOT/AOT_stimuli/pictures/0452_fw.png	255.3728063106537	1.3027138710021973
82	107.3929762840271	response	0	j		80.0	/experiments/Knapen_AOT/AOT_stimuli/pictures/0452_fw.png	256.664669752121	
83	107.40382671356201	picture	0		150	81.0	/experiments/Knapen_AOT/AOT_stimuli/pictures/1034_fw.png	256.6755201816559	1.2556214332580566
83	108.64309597015381	response	0	k		81.0	/experiments/Knapen_AOT/AOT_stimuli/pictures/1034_fw.png	257.9147894382477	
84	108.65944814682007	picture	0		112	82.0	/experiments/Knapen_AOT/AOT_stimuli/pictures/1815_fw.png	257.93114161491394	0.9388175010681152
84	109.58465099334717	response	0	k		82.0	/experiments/Knapen_AOT/AOT_stimuli/pictures/1815_fw.png	258.85634446144104	
85	109.59826564788818	picture	0		103	83.0	/experiments/Knapen_AOT/AOT_stimuli/pictures/1573_fw.png	258.86995911598206	0.8612082004547119
85	110.44484806060791	response	0	k		83.0	/experiments/Knapen_AOT/AOT_stimuli/pictures/1573_fw.png	259.7165415287018	
86	110.4594738483429	picture	0		114	84.0	/experiments/Knapen_AOT/AOT_stimuli/pictures/2082_fw.png	259.73116731643677	0.9513688087463379
86	111.40129709243774	response	0	j		84.0	/experiments/Knapen_AOT/AOT_stimuli/pictures/2082_fw.png	260.6729905605316	
87	111.41084265708923	picture	0		138	85.0	/experiments/Knapen_AOT/AOT_stimuli/pictures/0781_fw.png	260.6825361251831	1.152831792831421
87	112.55138969421387	response	0	k		85.0	/experiments/Knapen_AOT/AOT_stimuli/pictures/0781_fw.png	261.82308316230774	
88	112.56367444992065	picture	0		100	86.0	/experiments/Knapen_AOT/AOT_stimuli/pictures/0257_fw.png	261.8353679180145	0.8458616733551025
88	113.39329481124878	response	0	j		86.0	/experiments/Knapen_AOT/AOT_stimuli/pictures/0257_fw.png	262.66498827934265	
89	113.40953612327576	picture	0		110	87.0	/experiments/Knapen_AOT/AOT_stimuli/pictures/1568_fw.png	262.68122959136963	0.917992353439331
89	114.3180730342865	response	0	k		87.0	/experiments/Knapen_AOT/AOT_stimuli/pictures/1568_fw.png	263.58976650238037	
90	114.32752847671509	picture	0		126	88.0	/experiments/Knapen_AOT/AOT_stimuli/pictures/0132_fw.png	263.59922194480896	1.048689842224121
90	115.36805939674377	response	0	k		88.0	/experiments/Knapen_AOT/AOT_stimuli/pictures/0132_fw.png	264.63975286483765	
91	115.37621831893921	picture	0		102	89.0	/experiments/Knapen_AOT/AOT_stimuli/pictures/0631_fw.png	264.6479117870331	0.8540997505187988
91	116.21811318397522	response	0	k		89.0	/experiments/Knapen_AOT/AOT_stimuli/pictures/0631_fw.png	265.4898066520691	
92	116.23031806945801	picture	0		483	90.0	/experiments/Knapen_AOT/AOT_stimuli/pictures/0971_fw.png	265.5020115375519	4.020931005477905
92	120.23604679107666	response	0	k		90.0	/experiments/Knapen_AOT/AOT_stimuli/pictures/0971_fw.png	269.50774025917053	
93	120.25124907493591	picture	0		123	91.0	/experiments/Knapen_AOT/AOT_stimuli/pictures/0057_fw.png	269.5229425430298	1.0277009010314941
93	121.26819348335266	response	0	k		91.0	/experiments/Knapen_AOT/AOT_stimuli/pictures/0057_fw.png	270.53988695144653	
94	121.27894997596741	picture	0		98	92.0	/experiments/Knapen_AOT/AOT_stimuli/pictures/0686_fw.png	270.5506434440613	0.8194372653961182
94	122.08479976654053	response	0	k		92.0	/experiments/Knapen_AOT/AOT_stimuli/pictures/0686_fw.png	271.3564932346344	
95	122.09838724136353	picture	0		96	93.0	/experiments/Knapen_AOT/AOT_stimuli/pictures/1964_fw.png	271.3700807094574	0.8056151866912842
95	122.8932113647461	response	0	k		93.0	/experiments/Knapen_AOT/AOT_stimuli/pictures/1964_fw.png	272.16490483283997	
96	122.90400242805481	picture	0		103	94.0	/experiments/Knapen_AOT/AOT_stimuli/pictures/1714_fw.png	272.1756958961487	0.864006757736206
96	123.75147581100464	response	0	k		94.0	/experiments/Knapen_AOT/AOT_stimuli/pictures/1714_fw.png	273.0231692790985	
97	123.76800918579102	picture	0		99	95.0	/experiments/Knapen_AOT/AOT_stimuli/pictures/1079_fw.png	273.0397026538849	0.8304262161254883
97	124.58493614196777	response	0	j		95.0	/experiments/Knapen_AOT/AOT_stimuli/pictures/1079_fw.png	273.85662961006165	
98	124.5984354019165	picture	0		580	96.0	/experiments/Knapen_AOT/AOT_stimuli/pictures/1570_fw.png	273.8701288700104	4.840188980102539
98	129.42655324935913	response	0	k		96.0	/experiments/Knapen_AOT/AOT_stimuli/pictures/1570_fw.png	278.698246717453	
99	129.43862438201904	picture	0		188	97.0	/experiments/Knapen_AOT/AOT_stimuli/pictures/0505_fw.png	278.7103178501129	1.571115493774414
99	130.99325919151306	response	0	k		97.0	/experiments/Knapen_AOT/AOT_stimuli/pictures/0505_fw.png	280.26495265960693	
100	131.00973987579346	picture	0		1162	98.0	/experiments/Knapen_AOT/AOT_stimuli/pictures/1821_fw.png	280.28143334388733	9.691801071166992
100	140.68522214889526	response	0	j		98.0	/experiments/Knapen_AOT/AOT_stimuli/pictures/1821_fw.png	289.95691561698914	
101	140.70154094696045	picture	0		274	99.0	/experiments/Knapen_AOT/AOT_stimuli/pictures/1684_fw.png	289.9732344150543	2.2857940196990967
101	142.97675728797913	response	0	j		99.0	/experiments/Knapen_AOT/AOT_stimuli/pictures/1684_fw.png	292.248450756073	
102	142.98733496665955	picture	0		95	100.0	/experiments/Knapen_AOT/AOT_stimuli/pictures/0278_fw.png	292.2590284347534	0.7975633144378662
102	143.76869988441467	response	0	k		100.0	/experiments/Knapen_AOT/AOT_stimuli/pictures/0278_fw.png	293.04039335250854	
103	143.7848982810974	picture	0		98	101.0	/experiments/Knapen_AOT/AOT_stimuli/pictures/0075_fw.png	293.0565917491913	0.8206353187561035
103	144.59345746040344	response	0	k		101.0	/experiments/Knapen_AOT/AOT_stimuli/pictures/0075_fw.png	293.8651509284973	
104	144.60553359985352	picture	0		106	102.0	/experiments/Knapen_AOT/AOT_stimuli/pictures/0311_fw.png	293.8772270679474	0.8877441883087158
104	145.47698736190796	response	0	k		102.0	/experiments/Knapen_AOT/AOT_stimuli/pictures/0311_fw.png	294.74868083000183	
105	145.49327778816223	picture	0		115	103.0	/experiments/Knapen_AOT/AOT_stimuli/pictures/1154_fw.png	294.7649712562561	0.9667007923126221
105	146.43709254264832	response	0	j		103.0	/experiments/Knapen_AOT/AOT_stimuli/pictures/1154_fw.png	295.7087860107422	
106	146.45997858047485	picture	0		199	104.0	/experiments/Knapen_AOT/AOT_stimuli/pictures/1497_fw.png	295.7316720485687	1.6666619777679443
106	148.11018633842468	response	0	j		104.0	/experiments/Knapen_AOT/AOT_stimuli/pictures/1497_fw.png	297.38187980651855	
107	148.1266405582428	picture	0		106	105.0	/experiments/Knapen_AOT/AOT_stimuli/pictures/0793_fw.png	297.39833402633667	0.8916516304016113
107	149.00183033943176	response	0	j		105.0	/experiments/Knapen_AOT/AOT_stimuli/pictures/0793_fw.png	298.27352380752563	
108	149.0182921886444	picture	0		110	106.0	/experiments/Knapen_AOT/AOT_stimuli/pictures/1018_fw.png	298.2899856567383	0.9206023216247559
108	149.9268181324005	response	0	j		106.0	/experiments/Knapen_AOT/AOT_stimuli/pictures/1018_fw.png	299.1985116004944	
109	149.93889451026917	picture	0		135	107.0	/experiments/Knapen_AOT/AOT_stimuli/pictures/0984_fw.png	299.21058797836304	1.129429817199707
109	151.05183267593384	response	0	k		107.0	/experiments/Knapen_AOT/AOT_stimuli/pictures/0984_fw.png	300.3235261440277	
110	151.06832432746887	picture	0		117	108.0	/experiments/Knapen_AOT/AOT_stimuli/pictures/0005_fw.png	300.34001779556274	1.113642692565918
110	152.16853022575378	response	0	k		108.0	/experiments/Knapen_AOT/AOT_stimuli/pictures/0005_fw.png	301.44022369384766	
111	152.1819670200348	picture	0		111	109.0	/experiments/Knapen_AOT/AOT_stimuli/pictures/1137_fw.png	301.45366048812866	0.936387300491333
111	153.10191869735718	response	0	j		109.0	/experiments/Knapen_AOT/AOT_stimuli/pictures/1137_fw.png	302.37361216545105	
112	153.11835432052612	picture	0		133	110.0	/experiments/Knapen_AOT/AOT_stimuli/pictures/1788_fw.png	302.39004778862	1.1166868209838867
112	154.21881079673767	response	0	k		110.0	/experiments/Knapen_AOT/AOT_stimuli/pictures/1788_fw.png	303.49050426483154	
113	154.23504114151	picture	0		170	111.0	/experiments/Knapen_AOT/AOT_stimuli/pictures/1865_fw.png	303.5067346096039	1.4260365962982178
113	155.64432787895203	response	0	j		111.0	/experiments/Knapen_AOT/AOT_stimuli/pictures/1865_fw.png	304.9160213470459	
114	155.66107773780823	picture	0		106	112.0	/experiments/Knapen_AOT/AOT_stimuli/pictures/0902_fw.png	304.9327712059021	0.8822999000549316
114	156.53522992134094	response	0	k		112.0	/experiments/Knapen_AOT/AOT_stimuli/pictures/0902_fw.png	305.8069233894348	
115	156.54337763786316	picture	0		819	113.0	/experiments/Knapen_AOT/AOT_stimuli/pictures/0202_fw.png	305.81507110595703	6.826045274734497
115	163.36037635803223	response	0	k		113.0	/experiments/Knapen_AOT/AOT_stimuli/pictures/0202_fw.png	312.6320698261261	
116	163.36942291259766	picture	0		98	114.0	/experiments/Knapen_AOT/AOT_stimuli/pictures/0561_fw.png	312.6411163806915	0.8195440769195557
116	164.17707228660583	response	0	j		114.0	/experiments/Knapen_AOT/AOT_stimuli/pictures/0561_fw.png	313.4487657546997	
117	164.1889669895172	picture	0		89	115.0	/experiments/Knapen_AOT/AOT_stimuli/pictures/0523_fw.png	313.4606604576111	0.7462482452392578
117	164.9188027381897	response	0	k		115.0	/experiments/Knapen_AOT/AOT_stimuli/pictures/0523_fw.png	314.19049620628357	
118	164.93521523475647	picture	0		308	116.0	/experiments/Knapen_AOT/AOT_stimuli/pictures/2108_fw.png	314.20690870285034	2.5666327476501465
118	167.49373030662537	response	0	j		116.0	/experiments/Knapen_AOT/AOT_stimuli/pictures/2108_fw.png	316.76542377471924	
119	167.50184798240662	picture	0		90	117.0	/experiments/Knapen_AOT/AOT_stimuli/pictures/2109_fw.png	316.7735414505005	0.7583866119384766
119	168.2438292503357	response	0	k		117.0	/experiments/Knapen_AOT/AOT_stimuli/pictures/2109_fw.png	317.51552271842957	
120	168.2602345943451	picture	0		134	118.0	/experiments/Knapen_AOT/AOT_stimuli/pictures/0422_fw.png	317.53192806243896	1.1249775886535645
120	169.36874151229858	response	0	k		118.0	/experiments/Knapen_AOT/AOT_stimuli/pictures/0422_fw.png	318.64043498039246	
121	169.38521218299866	picture	0		120	119.0	/experiments/Knapen_AOT/AOT_stimuli/pictures/1311_fw.png	318.65690565109253	1.0052556991577148
121	170.37707662582397	response	0	j		119.0	/experiments/Knapen_AOT/AOT_stimuli/pictures/1311_fw.png	319.64877009391785	
122	170.39046788215637	picture	0		96	120.0	/experiments/Knapen_AOT/AOT_stimuli/pictures/1150_fw.png	319.66216135025024	0.8114461898803711
122	171.1854476928711	response	0	j		120.0	/experiments/Knapen_AOT/AOT_stimuli/pictures/1150_fw.png	320.45714116096497	
123	171.20191407203674	picture	0		151	121.0	/experiments/Knapen_AOT/AOT_stimuli/pictures/0580_fw.png	320.4736075401306	1.2583117485046387
123	172.45211172103882	response	0	k		121.0	/experiments/Knapen_AOT/AOT_stimuli/pictures/0580_fw.png	321.7238051891327	
124	172.46022582054138	picture	0		140	122.0	/experiments/Knapen_AOT/AOT_stimuli/pictures/2175_fw.png	321.73191928863525	1.1666827201843262
124	173.61883211135864	response	0	k		122.0	/experiments/Knapen_AOT/AOT_stimuli/pictures/2175_fw.png	322.8905255794525	
125	173.6269085407257	picture	0		166	123.0	/experiments/Knapen_AOT/AOT_stimuli/pictures/1794_fw.png	322.8986020088196	1.3884496688842773
125	175.00212168693542	response	0	k		123.0	/experiments/Knapen_AOT/AOT_stimuli/pictures/1794_fw.png	324.2738151550293	
126	175.01535820960999	picture	0		98	124.0	/experiments/Knapen_AOT/AOT_stimuli/pictures/0548_fw.png	324.28705167770386	0.8199059963226318
126	175.82016563415527	response	0	k		124.0	/experiments/Knapen_AOT/AOT_stimuli/pictures/0548_fw.png	325.09185910224915	
127	175.83526420593262	picture	0		98	125.0	/experiments/Knapen_AOT/AOT_stimuli/pictures/1841_fw.png	325.1069576740265	0.8190743923187256
127	176.64394450187683	response	0	j		125.0	/experiments/Knapen_AOT/AOT_stimuli/pictures/1841_fw.png	325.9156379699707	
128	176.65433859825134	picture	0		107	126.0	/experiments/Knapen_AOT/AOT_stimuli/pictures/1918_fw.png	325.9260320663452	0.8892912864685059
128	177.53550457954407	response	0	j		126.0	/experiments/Knapen_AOT/AOT_stimuli/pictures/1918_fw.png	326.80719804763794	
129	177.54362988471985	picture	0		103	127.0	/experiments/Knapen_AOT/AOT_stimuli/pictures/1550_fw.png	326.8153233528137	0.8667194843292236
129	178.394122838974	response	0	k		127.0	/experiments/Knapen_AOT/AOT_stimuli/pictures/1550_fw.png	327.66581630706787	
130	178.41034936904907	picture	0		103	128.0	/experiments/Knapen_AOT/AOT_stimuli/pictures/2079_fw.png	327.68204283714294	0.8620872497558594
130	179.26055717468262	response	0	k		128.0	/experiments/Knapen_AOT/AOT_stimuli/pictures/2079_fw.png	328.5322506427765	
131	179.27243661880493	picture	0		101	129.0	/experiments/Knapen_AOT/AOT_stimuli/pictures/1560_fw.png	328.5441300868988	0.8402752876281738
131	180.10226464271545	response	0	j		129.0	/experiments/Knapen_AOT/AOT_stimuli/pictures/1560_fw.png	329.3739581108093	
132	180.1127119064331	picture	0		102	130.0	/experiments/Knapen_AOT/AOT_stimuli/pictures/1557_fw.png	329.384405374527	0.8476250171661377
132	180.95245480537415	response	0	k		130.0	/experiments/Knapen_AOT/AOT_stimuli/pictures/1557_fw.png	330.224148273468	
133	180.96033692359924	picture	0		107	131.0	/experiments/Knapen_AOT/AOT_stimuli/pictures/2143_fw.png	330.2320303916931	0.9000864028930664
133	181.83629035949707	response	0	k		131.0	/experiments/Knapen_AOT/AOT_stimuli/pictures/2143_fw.png	331.10798382759094	
134	181.8604233264923	picture	0		133	132.0	/experiments/Knapen_AOT/AOT_stimuli/pictures/0820_fw.png	331.1321167945862	1.1166424751281738
134	182.9605143070221	response	0	j		132.0	/experiments/Knapen_AOT/AOT_stimuli/pictures/0820_fw.png	332.23220777511597	
135	182.97706580162048	picture	0		100	133.0	/experiments/Knapen_AOT/AOT_stimuli/pictures/0145_fw.png	332.24875926971436	0.8370685577392578
135	183.80217289924622	response	0	k		133.0	/experiments/Knapen_AOT/AOT_stimuli/pictures/0145_fw.png	333.0738663673401	
136	183.81413435935974	picture	0		124	134.0	/experiments/Knapen_AOT/AOT_stimuli/pictures/0660_fw.png	333.0858278274536	1.0347213745117188
136	184.83594799041748	response	0	k		134.0	/experiments/Knapen_AOT/AOT_stimuli/pictures/0660_fw.png	334.10764145851135	
137	184.84885573387146	picture	0		143	135.0	/experiments/Knapen_AOT/AOT_stimuli/pictures/0738_fw.png	334.12054920196533	1.2032470703125
137	186.03597927093506	response	0	k		135.0	/experiments/Knapen_AOT/AOT_stimuli/pictures/0738_fw.png	335.30767273902893	
138	186.05210280418396	picture	0		134	136.0	/experiments/Knapen_AOT/AOT_stimuli/pictures/0198_fw.png	335.32379627227783	1.1231679916381836
138	187.1606822013855	response	0	j		136.0	/experiments/Knapen_AOT/AOT_stimuli/pictures/0198_fw.png	336.43237566947937	
139	187.17527079582214	picture	0		113	137.0	/experiments/Knapen_AOT/AOT_stimuli/pictures/0688_fw.png	336.446964263916	0.9444384574890137
139	188.1106560230255	response	0	k		137.0	/experiments/Knapen_AOT/AOT_stimuli/pictures/0688_fw.png	337.3823494911194	
140	188.11970925331116	picture	0		415	138.0	/experiments/Knapen_AOT/AOT_stimuli/pictures/0353_fw.png	337.39140272140503	3.458251476287842
140	191.5690097808838	response	0	k		138.0	/experiments/Knapen_AOT/AOT_stimuli/pictures/0353_fw.png	340.84070324897766	
141	191.577960729599	picture	0		108	139.0	/experiments/Knapen_AOT/AOT_stimuli/pictures/0022_fw.png	340.84965419769287	0.9029083251953125
141	192.46904015541077	response	0	j		139.0	/experiments/Knapen_AOT/AOT_stimuli/pictures/0022_fw.png	341.74073362350464	
142	192.4808690547943	picture	0		130	140.0	/experiments/Knapen_AOT/AOT_stimuli/pictures/0564_fw.png	341.7525625228882	1.08333158493042
142	193.55240511894226	response	0	j		140.0	/experiments/Knapen_AOT/AOT_stimuli/pictures/0564_fw.png	342.82409858703613	
143	193.56420063972473	picture	0		131	141.0	/experiments/Knapen_AOT/AOT_stimuli/pictures/0868_fw.png	342.8358941078186	1.096343755722046
143	194.6441135406494	response	0	k		141.0	/experiments/Knapen_AOT/AOT_stimuli/pictures/0868_fw.png	343.9158070087433	
144	194.66054439544678	picture	0		113	142.0	/experiments/Knapen_AOT/AOT_stimuli/pictures/1514_fw.png	343.93223786354065	0.9500377178192139
144	195.5940818786621	response	0	k		142.0	/experiments/Knapen_AOT/AOT_stimuli/pictures/1514_fw.png	344.865775346756	
145	195.610582113266	picture	0		106	143.0	/experiments/Knapen_AOT/AOT_stimuli/pictures/1335_fw.png	344.88227558135986	0.884192705154419
145	196.48579573631287	response	0	k		143.0	/experiments/Knapen_AOT/AOT_stimuli/pictures/1335_fw.png	345.75748920440674	
146	196.4947748184204	picture	0		110	144.0	/experiments/Knapen_AOT/AOT_stimuli/pictures/1524_fw.png	345.7664682865143	0.9167139530181885
146	197.4024031162262	response	0	j		144.0	/experiments/Knapen_AOT/AOT_stimuli/pictures/1524_fw.png	346.67409658432007	
147	197.4114887714386	picture	0		194	145.0	/experiments/Knapen_AOT/AOT_stimuli/pictures/1928_fw.png	346.68318223953247	1.6179118156433105
147	199.01909160614014	response	0	j		145.0	/experiments/Knapen_AOT/AOT_stimuli/pictures/1928_fw.png	348.290785074234	
148	199.0294005870819	picture	0		87	146.0	/experiments/Knapen_AOT/AOT_stimuli/pictures/0554_fw.png	348.3010940551758	0.7312595844268799
148	199.74437856674194	response	0	k		146.0	/experiments/Knapen_AOT/AOT_stimuli/pictures/0554_fw.png	349.0160720348358	
149	199.7606601715088	picture	0		86	147.0	/experiments/Knapen_AOT/AOT_stimuli/pictures/1797_fw.png	349.03235363960266	0.7250242233276367
149	200.46919560432434	response	0	k		147.0	/experiments/Knapen_AOT/AOT_stimuli/pictures/1797_fw.png	349.7408890724182	
150	200.48568439483643	picture	0		162	148.0	/experiments/Knapen_AOT/AOT_stimuli/pictures/0692_fw.png	349.7573778629303	1.358314037322998
150	201.82073998451233	response	0	j		148.0	/experiments/Knapen_AOT/AOT_stimuli/pictures/0692_fw.png	351.0924334526062	
151	201.84399843215942	picture	0		215	149.0	/experiments/Knapen_AOT/AOT_stimuli/pictures/0847_fw.png	351.1156919002533	1.7999863624572754
151	203.62773180007935	response	0	k		149.0	/experiments/Knapen_AOT/AOT_stimuli/pictures/0847_fw.png	352.8994252681732	
152	203.6439847946167	picture	0		119	150.0	/experiments/Knapen_AOT/AOT_stimuli/pictures/0675_fw.png	352.91567826271057	1.000077247619629
152	204.6201138496399	response	0	j		150.0	/experiments/Knapen_AOT/AOT_stimuli/pictures/0675_fw.png	353.89180731773376	
153	204.64406204223633	picture	0		103	151.0	/experiments/Knapen_AOT/AOT_stimuli/pictures/0291_fw.png	353.9157555103302	0.8582398891448975
153	205.49419450759888	response	0	k		151.0	/experiments/Knapen_AOT/AOT_stimuli/pictures/0291_fw.png	354.76588797569275	
154	205.50230193138123	picture	0		127	152.0	/experiments/Knapen_AOT/AOT_stimuli/pictures/0479_fw.png	354.7739953994751	1.0667166709899902
154	206.5525884628296	response	0	k		152.0	/experiments/Knapen_AOT/AOT_stimuli/pictures/0479_fw.png	355.82428193092346	
155	206.56901860237122	picture	0		270	153.0	/experiments/Knapen_AOT/AOT_stimuli/pictures/1507_fw.png	355.8407120704651	2.2584123611450195
155	208.8110373020172	response	0	j		153.0	/experiments/Knapen_AOT/AOT_stimuli/pictures/1507_fw.png	358.0827307701111	
156	208.82743096351624	picture	0		109	154.0	/experiments/Knapen_AOT/AOT_stimuli/pictures/1310_fw.png	358.0991244316101	0.916644811630249
156	209.72756361961365	response	0	j		154.0	/experiments/Knapen_AOT/AOT_stimuli/pictures/1310_fw.png	358.9992570877075	
157	209.74407577514648	picture	0		90	155.0	/experiments/Knapen_AOT/AOT_stimuli/pictures/0147_fw.png	359.01576924324036	0.7507622241973877
157	210.48590564727783	response	0	j		155.0	/experiments/Knapen_AOT/AOT_stimuli/pictures/0147_fw.png	359.7575991153717	
158	210.49483799934387	picture	0		93	156.0	/experiments/Knapen_AOT/AOT_stimuli/pictures/1201_fw.png	359.76653146743774	0.7825896739959717
158	211.26095294952393	response	0	j		156.0	/experiments/Knapen_AOT/AOT_stimuli/pictures/1201_fw.png	360.5326464176178	
159	211.27742767333984	picture	0		100	157.0	/experiments/Knapen_AOT/AOT_stimuli/pictures/0033_fw.png	360.5491211414337	0.8354942798614502
159	212.1026644706726	response	0	k		157.0	/experiments/Knapen_AOT/AOT_stimuli/pictures/0033_fw.png	361.3743579387665	
160	212.1129219532013	picture	0		150	158.0	/experiments/Knapen_AOT/AOT_stimuli/pictures/0521_fw.png	361.38461542129517	1.2561802864074707
160	213.35262060165405	response	0	k		158.0	/experiments/Knapen_AOT/AOT_stimuli/pictures/0521_fw.png	362.6243140697479	
161	213.36910223960876	picture	0		92	159.0	/experiments/Knapen_AOT/AOT_stimuli/pictures/1286_fw.png	362.64079570770264	0.775026798248291
161	214.1275978088379	response	0	k		159.0	/experiments/Knapen_AOT/AOT_stimuli/pictures/1286_fw.png	363.39929127693176	
162	214.14412903785706	picture	0		121	160.0	/experiments/Knapen_AOT/AOT_stimuli/pictures/1138_fw.png	363.4158225059509	1.0166401863098145
162	215.1445882320404	response	0	k		160.0	/experiments/Knapen_AOT/AOT_stimuli/pictures/1138_fw.png	364.4162817001343	
163	215.16076922416687	picture	0		91	161.0	/experiments/Knapen_AOT/AOT_stimuli/pictures/0718_fw.png	364.43246269226074	0.7646892070770264
163	215.9110562801361	response	0	j		161.0	/experiments/Knapen_AOT/AOT_stimuli/pictures/0718_fw.png	365.18274974823	
164	215.9254584312439	picture	0		177	162.0	/experiments/Knapen_AOT/AOT_stimuli/pictures/2147_fw.png	365.19715189933777	1.479071855545044
164	217.39435482025146	response	0	k		162.0	/experiments/Knapen_AOT/AOT_stimuli/pictures/2147_fw.png	366.66604828834534	
165	217.40453028678894	picture	0		430	163.0	/experiments/Knapen_AOT/AOT_stimuli/pictures/0540_fw.png	366.6762237548828	3.5833628177642822
165	220.97772598266602	response	0	k		163.0	/experiments/Knapen_AOT/AOT_stimuli/pictures/0540_fw.png	370.2494194507599	
166	220.98789310455322	picture	0		134	164.0	/experiments/Knapen_AOT/AOT_stimuli/pictures/0610_fw.png	370.2595865726471	1.1181590557098389
166	222.09441328048706	response	0	k		164.0	/experiments/Knapen_AOT/AOT_stimuli/pictures/0610_fw.png	371.36610674858093	
167	222.10605216026306	picture	0		403	165.0	/experiments/Knapen_AOT/AOT_stimuli/pictures/0627_fw.png	371.37774562835693	3.3715336322784424
167	225.45279335975647	response	0	k		165.0	/experiments/Knapen_AOT/AOT_stimuli/pictures/0627_fw.png	374.72448682785034	
168	225.4775857925415	picture	0		831	166.0	/experiments/Knapen_AOT/AOT_stimuli/pictures/1962_fw.png	374.7492792606354	6.933448314666748
168	232.3945472240448	response	0	k		166.0	/experiments/Knapen_AOT/AOT_stimuli/pictures/1962_fw.png	381.6662406921387	
169	232.41103410720825	picture	0		103	167.0	/experiments/Knapen_AOT/AOT_stimuli/pictures/1111_fw.png	381.6827275753021	0.8617820739746094
169	233.26119112968445	response	0	j		167.0	/experiments/Knapen_AOT/AOT_stimuli/pictures/1111_fw.png	382.5328845977783	
170	233.27281618118286	picture	0		109	168.0	/experiments/Knapen_AOT/AOT_stimuli/pictures/0740_fw.png	382.54450964927673	0.9132134914398193
170	234.169536113739	response	0	k		168.0	/experiments/Knapen_AOT/AOT_stimuli/pictures/0740_fw.png	383.4412295818329	
171	234.18602967262268	picture	0		106	169.0	/experiments/Knapen_AOT/AOT_stimuli/pictures/0164_fw.png	383.45772314071655	0.8853857517242432
171	235.06124711036682	response	0	k		169.0	/experiments/Knapen_AOT/AOT_stimuli/pictures/0164_fw.png	384.3329405784607	
172	235.07141542434692	picture	0		111	170.0	/experiments/Knapen_AOT/AOT_stimuli/pictures/1791_fw.png	384.3431088924408	0.92364501953125
172	235.9862039089203	response	0	j		170.0	/experiments/Knapen_AOT/AOT_stimuli/pictures/1791_fw.png	385.25789737701416	
173	235.99506044387817	picture	0		95	171.0	/experiments/Knapen_AOT/AOT_stimuli/pictures/1819_fw.png	385.26675391197205	0.799309253692627
173	236.77798438072205	response	0	k		171.0	/experiments/Knapen_AOT/AOT_stimuli/pictures/1819_fw.png	386.0496778488159	
174	236.7943696975708	picture	0		100	172.0	/experiments/Knapen_AOT/AOT_stimuli/pictures/1417_fw.png	386.0660631656647	0.8333292007446289
174	237.61206436157227	response	0	j		172.0	/experiments/Knapen_AOT/AOT_stimuli/pictures/1417_fw.png	386.88375782966614	
175	237.62769889831543	picture	0		112	173.0	/experiments/Knapen_AOT/AOT_stimuli/pictures/1755_fw.png	386.8993923664093	0.9368178844451904
175	238.5529761314392	response	0	k		173.0	/experiments/Knapen_AOT/AOT_stimuli/pictures/1755_fw.png	387.8246695995331	
176	238.56451678276062	picture	0		185	174.0	/experiments/Knapen_AOT/AOT_stimuli/pictures/1648_fw.png	387.8362102508545	1.5466125011444092
176	240.094624042511	response	0	j		174.0	/experiments/Knapen_AOT/AOT_stimuli/pictures/1648_fw.png	389.36631751060486	
177	240.11112928390503	picture	0		108	175.0	/experiments/Knapen_AOT/AOT_stimuli/pictures/0647_fw.png	389.3828227519989	0.9047684669494629
177	241.00296545028687	response	0	j		175.0	/experiments/Knapen_AOT/AOT_stimuli/pictures/0647_fw.png	390.27465891838074	
178	241.0158977508545	picture	0		94	176.0	/experiments/Knapen_AOT/AOT_stimuli/pictures/0163_fw.png	390.28759121894836	0.7847669124603271
178	241.7863781452179	response	0	j		176.0	/experiments/Knapen_AOT/AOT_stimuli/pictures/0163_fw.png	391.05807161331177	
179	241.80066466331482	picture	0		215	177.0	/experiments/Knapen_AOT/AOT_stimuli/pictures/0827_fw.png	391.0723581314087	1.8021440505981445
179	243.58650660514832	response	0	k		177.0	/experiments/Knapen_AOT/AOT_stimuli/pictures/0827_fw.png	392.8582000732422	
180	243.60280871391296	picture	0		114	178.0	/experiments/Knapen_AOT/AOT_stimuli/pictures/0759_fw.png	392.87450218200684	0.9583730697631836
180	244.54466199874878	response	0	k		178.0	/experiments/Knapen_AOT/AOT_stimuli/pictures/0759_fw.png	393.81635546684265	
181	244.56118178367615	picture	0		671	179.0	/experiments/Knapen_AOT/AOT_stimuli/pictures/0727_fw.png	393.83287525177	5.600122928619385
181	250.14477634429932	response	0	k		179.0	/experiments/Knapen_AOT/AOT_stimuli/pictures/0727_fw.png	399.4164698123932	
182	250.16130471229553	picture	0		103	180.0	/experiments/Knapen_AOT/AOT_stimuli/pictures/0047_fw.png	399.4329981803894	0.8616471290588379
182	251.00414204597473	response	0	j		180.0	/experiments/Knapen_AOT/AOT_stimuli/pictures/0047_fw.png	400.2758355140686	
183	251.02295184135437	picture	0		98	181.0	/experiments/Knapen_AOT/AOT_stimuli/pictures/0861_fw.png	400.29464530944824	0.8216493129730225
183	251.82827973365784	response	0	j		181.0	/experiments/Knapen_AOT/AOT_stimuli/pictures/0861_fw.png	401.0999732017517	
184	251.8446011543274	picture	0		117	182.0	/experiments/Knapen_AOT/AOT_stimuli/pictures/1738_fw.png	401.11629462242126	0.9833331108093262
184	252.8115417957306	response	0	j		182.0	/experiments/Knapen_AOT/AOT_stimuli/pictures/1738_fw.png	402.08323526382446	
185	252.82793426513672	picture	0		94	183.0	/experiments/Knapen_AOT/AOT_stimuli/pictures/1156_fw.png	402.0996277332306	0.7853085994720459
185	253.60316729545593	response	0	j		183.0	/experiments/Knapen_AOT/AOT_stimuli/pictures/1156_fw.png	402.8748607635498	
186	253.61324286460876	picture	0		98	184.0	/experiments/Knapen_AOT/AOT_stimuli/pictures/0425_fw.png	402.88493633270264	0.8230597972869873
186	254.42027163505554	response	0	j		184.0	/experiments/Knapen_AOT/AOT_stimuli/pictures/0425_fw.png	403.6919651031494	
187	254.43630266189575	picture	0		105	185.0	/experiments/Knapen_AOT/AOT_stimuli/pictures/2113_fw.png	403.7079961299896	0.8833272457122803
187	255.3031325340271	response	0	k		185.0	/experiments/Knapen_AOT/AOT_stimuli/pictures/2113_fw.png	404.574826002121	
188	255.31962990760803	picture	0		268	186.0	/experiments/Knapen_AOT/AOT_stimuli/pictures/1909_fw.png	404.5913233757019	2.237985610961914
188	257.54482674598694	response	0	k		186.0	/experiments/Knapen_AOT/AOT_stimuli/pictures/1909_fw.png	406.8165202140808	
189	257.55761551856995	picture	0		922	187.0	/experiments/Knapen_AOT/AOT_stimuli/pictures/1578_fw.png	406.8293089866638	7.695464372634888
189	265.23685002326965	response	0	k		187.0	/experiments/Knapen_AOT/AOT_stimuli/pictures/1578_fw.png	414.5085434913635	
190	265.25307989120483	picture	0		91	188.0	/experiments/Knapen_AOT/AOT_stimuli/pictures/1397_fw.png	414.5247733592987	0.7667064666748047
190	266.00340151786804	response	0	j		188.0	/experiments/Knapen_AOT/AOT_stimuli/pictures/1397_fw.png	415.2750949859619	
191	266.01978635787964	picture	0		103	189.0	/experiments/Knapen_AOT/AOT_stimuli/pictures/0911_fw.png	415.2914798259735	0.8643550872802734
191	266.8699631690979	response	0	k		189.0	/experiments/Knapen_AOT/AOT_stimuli/pictures/0911_fw.png	416.1416566371918	
192	266.8841414451599	picture	0		89	190.0	/experiments/Knapen_AOT/AOT_stimuli/pictures/1644_fw.png	416.1558349132538	0.7439289093017578
192	267.6123585700989	response	0	k		190.0	/experiments/Knapen_AOT/AOT_stimuli/pictures/1644_fw.png	416.88405203819275	
193	267.62807035446167	picture	0		100	191.0	/experiments/Knapen_AOT/AOT_stimuli/pictures/0454_fw.png	416.89976382255554	0.8417956829071045
193	268.4533748626709	response	0	j		191.0	/experiments/Knapen_AOT/AOT_stimuli/pictures/0454_fw.png	417.72506833076477	
194	268.4698660373688	picture	0		106	192.0	/experiments/Knapen_AOT/AOT_stimuli/pictures/1159_fw.png	417.74155950546265	0.8865482807159424
194	269.34500312805176	response	0	k		192.0	/experiments/Knapen_AOT/AOT_stimuli/pictures/1159_fw.png	418.61669659614563	
195	269.3564143180847	picture	0		116	193.0	/experiments/Knapen_AOT/AOT_stimuli/pictures/0009_fw.png	418.6281077861786	0.965280294418335
195	270.31221771240234	response	0	k		193.0	/experiments/Knapen_AOT/AOT_stimuli/pictures/0009_fw.png	419.5839111804962	
196	270.32169461250305	picture	0		88	194.0	/experiments/Knapen_AOT/AOT_stimuli/pictures/1676_fw.png	419.5933880805969	0.736083984375
196	271.04497957229614	response	0	k		194.0	/experiments/Knapen_AOT/AOT_stimuli/pictures/1676_fw.png	420.31667304039	
197	271.05777859687805	picture	0		221	195.0	/experiments/Knapen_AOT/AOT_stimuli/pictures/1187_fw.png	420.3294720649719	1.8537445068359375
197	272.89501547813416	response	0	k		195.0	/experiments/Knapen_AOT/AOT_stimuli/pictures/1187_fw.png	422.166708946228	
198	272.911523103714	picture	0		818	196.0	/experiments/Knapen_AOT/AOT_stimuli/pictures/1747_fw.png	422.18321657180786	6.819841623306274
198	279.7200982570648	response	0	k		196.0	/experiments/Knapen_AOT/AOT_stimuli/pictures/1747_fw.png	428.9917917251587	
199	279.73136472702026	picture	0		204	197.0	/experiments/Knapen_AOT/AOT_stimuli/pictures/1294_fw.png	429.00305819511414	1.7014126777648926
199	281.41278862953186	response	0	k		197.0	/experiments/Knapen_AOT/AOT_stimuli/pictures/1294_fw.png	430.68448209762573	
200	281.43277740478516	picture	0		150	198.0	/experiments/Knapen_AOT/AOT_stimuli/pictures/0683_fw.png	430.704470872879	1.257045030593872
200	282.67847323417664	response	0	k		198.0	/experiments/Knapen_AOT/AOT_stimuli/pictures/0683_fw.png	431.9501667022705	
201	282.689822435379	picture	0		127	199.0	/experiments/Knapen_AOT/AOT_stimuli/pictures/1006_fw.png	431.9615159034729	1.0634856224060059
201	283.7368199825287	response	0	k		199.0	/experiments/Knapen_AOT/AOT_stimuli/pictures/1006_fw.png	433.00851345062256	
202	283.75330805778503	picture	0		95	200.0	/experiments/Knapen_AOT/AOT_stimuli/pictures/1545_fw.png	433.0250015258789	0.800004243850708
202	284.5368447303772	response	0	j		200.0	/experiments/Knapen_AOT/AOT_stimuli/pictures/1545_fw.png	433.80853819847107	
203	284.55331230163574	picture	0		144	201.0	/experiments/Knapen_AOT/AOT_stimuli/pictures/1165_fw.png	433.8250057697296	1.2083704471588135
203	285.7452428340912	response	0	j		201.0	/experiments/Knapen_AOT/AOT_stimuli/pictures/1165_fw.png	435.01693630218506	
204	285.76168274879456	picture	0		134	202.0	/experiments/Knapen_AOT/AOT_stimuli/pictures/1941_fw.png	435.0333762168884	1.1249990463256836
204	286.870258808136	response	0	j		202.0	/experiments/Knapen_AOT/AOT_stimuli/pictures/1941_fw.png	436.14195227622986	
205	286.88668179512024	picture	0		83	203.0	/experiments/Knapen_AOT/AOT_stimuli/pictures/1492_fw.png	436.1583752632141	0.692061185836792
205	287.5702168941498	response	0	k		203.0	/experiments/Knapen_AOT/AOT_stimuli/pictures/1492_fw.png	436.84191036224365	
206	287.57874298095703	picture	0		101	204.0	/experiments/Knapen_AOT/AOT_stimuli/pictures/0406_fw.png	436.8504364490509	0.8472754955291748
206	288.40473103523254	response	0	k		204.0	/experiments/Knapen_AOT/AOT_stimuli/pictures/0406_fw.png	437.6764245033264	
207	288.4260184764862	picture	0		140	205.0	/experiments/Knapen_AOT/AOT_stimuli/pictures/1980_fw.png	437.6977119445801	1.1773607730865479
207	289.5871765613556	response	0	j		205.0	/experiments/Knapen_AOT/AOT_stimuli/pictures/1980_fw.png	438.85887002944946	
208	289.60337924957275	picture	0		130	206.0	/experiments/Knapen_AOT/AOT_stimuli/pictures/0812_fw.png	438.8750727176666	1.0865952968597412
208	290.67864513397217	response	0	j		206.0	/experiments/Knapen_AOT/AOT_stimuli/pictures/0812_fw.png	439.95033860206604	
209	290.6899745464325	picture	0		110	207.0	/experiments/Knapen_AOT/AOT_stimuli/pictures/1876_fw.png	439.96166801452637	0.9165534973144531
209	291.5955276489258	response	0	j		207.0	/experiments/Knapen_AOT/AOT_stimuli/pictures/1876_fw.png	440.86722111701965	
210	291.60652804374695	picture	0		99	208.0	/experiments/Knapen_AOT/AOT_stimuli/pictures/1696_fw.png	440.8782215118408	0.8264281749725342
210	292.42031049728394	response	0	k		208.0	/experiments/Knapen_AOT/AOT_stimuli/pictures/1696_fw.png	441.6920039653778	
211	292.4329562187195	picture	0		134	209.0	/experiments/Knapen_AOT/AOT_stimuli/pictures/1370_fw.png	441.70464968681335	1.1180644035339355
211	293.53698682785034	response	0	j		209.0	/experiments/Knapen_AOT/AOT_stimuli/pictures/1370_fw.png	442.8086802959442	
212	293.5510206222534	picture	0		91	210.0	/experiments/Knapen_AOT/AOT_stimuli/pictures/0882_fw.png	442.8227140903473	0.7690823078155518
212	294.30368304252625	response	0	j		210.0	/experiments/Knapen_AOT/AOT_stimuli/pictures/0882_fw.png	443.5753765106201	
213	294.32010293006897	picture	0		97	211.0	/experiments/Knapen_AOT/AOT_stimuli/pictures/1255_fw.png	443.59179639816284	0.8142516613006592
213	295.12029910087585	response	0	k		211.0	/experiments/Knapen_AOT/AOT_stimuli/pictures/1255_fw.png	444.3919925689697	
214	295.13435459136963	picture	0		98	212.0	/experiments/Knapen_AOT/AOT_stimuli/pictures/0944_fw.png	444.4060480594635	0.8274273872375488
214	295.9452893733978	response	0	k		212.0	/experiments/Knapen_AOT/AOT_stimuli/pictures/0944_fw.png	445.2169828414917	
215	295.9617819786072	picture	0		95	213.0	/experiments/Knapen_AOT/AOT_stimuli/pictures/2023_fw.png	445.23347544670105	0.7976040840148926
215	296.7453191280365	response	0	k		213.0	/experiments/Knapen_AOT/AOT_stimuli/pictures/2023_fw.png	446.01701259613037	
216	296.75938606262207	picture	0		96	214.0	/experiments/Knapen_AOT/AOT_stimuli/pictures/0338_fw.png	446.03107953071594	0.8055808544158936
216	297.55371832847595	response	0	j		214.0	/experiments/Knapen_AOT/AOT_stimuli/pictures/0338_fw.png	446.8254117965698	
217	297.56496691703796	picture	0		99	215.0	/experiments/Knapen_AOT/AOT_stimuli/pictures/0232_fw.png	446.83666038513184	0.8302526473999023
217	298.3786587715149	response	0	j		215.0	/experiments/Knapen_AOT/AOT_stimuli/pictures/0232_fw.png	447.65035223960876	
218	298.39521956443787	picture	0		114	216.0	/experiments/Knapen_AOT/AOT_stimuli/pictures/1329_fw.png	447.66691303253174	0.9544804096221924
218	299.3369925022125	response	0	j		216.0	/experiments/Knapen_AOT/AOT_stimuli/pictures/1329_fw.png	448.6086859703064	
219	299.34969997406006	picture	0		93	217.0	/experiments/Knapen_AOT/AOT_stimuli/pictures/2153_fw.png	448.62139344215393	0.7871596813201904
219	300.1204311847687	response	0	j		217.0	/experiments/Knapen_AOT/AOT_stimuli/pictures/2153_fw.png	449.39212465286255	
220	300.13685965538025	picture	0		103	218.0	/experiments/Knapen_AOT/AOT_stimuli/pictures/2005_fw.png	449.4085531234741	0.8586957454681396
220	300.987046957016	response	0	k		218.0	/experiments/Knapen_AOT/AOT_stimuli/pictures/2005_fw.png	450.25874042510986	
221	300.9955554008484	picture	0		126	219.0	/experiments/Knapen_AOT/AOT_stimuli/pictures/2135_fw.png	450.26724886894226	1.0579805374145508
221	302.0370991230011	response	0	k		219.0	/experiments/Knapen_AOT/AOT_stimuli/pictures/2135_fw.png	451.30879259109497	
222	302.05353593826294	picture	0		125	220.0	/experiments/Knapen_AOT/AOT_stimuli/pictures/1420_fw.png	451.3252294063568	1.0461628437042236
222	303.0870852470398	response	0	k		220.0	/experiments/Knapen_AOT/AOT_stimuli/pictures/1420_fw.png	452.35877871513367	
223	303.09969878196716	picture	0		94	221.0	/experiments/Knapen_AOT/AOT_stimuli/pictures/0601_fw.png	452.37139225006104	0.7871963977813721
223	303.87044167518616	response	0	k		221.0	/experiments/Knapen_AOT/AOT_stimuli/pictures/0601_fw.png	453.14213514328003	
224	303.88689517974854	picture	0		180	222.0	/experiments/Knapen_AOT/AOT_stimuli/pictures/0516_fw.png	453.1585886478424	1.5083496570587158
224	305.3787622451782	response	0	j		222.0	/experiments/Knapen_AOT/AOT_stimuli/pictures/0516_fw.png	454.6504557132721	
225	305.39524483680725	picture	0		160	223.0	/experiments/Knapen_AOT/AOT_stimuli/pictures/1552_fw.png	454.6669383049011	1.3417267799377441
225	306.7204647064209	response	0	k		223.0	/experiments/Knapen_AOT/AOT_stimuli/pictures/1552_fw.png	455.99215817451477	
226	306.736971616745	picture	0		108	224.0	/experiments/Knapen_AOT/AOT_stimuli/pictures/1172_fw.png	456.00866508483887	0.9044632911682129
226	307.62882232666016	response	0	j		224.0	/experiments/Knapen_AOT/AOT_stimuli/pictures/1172_fw.png	456.900515794754	
227	307.6414349079132	picture	0		94	225.0	/experiments/Knapen_AOT/AOT_stimuli/pictures/2150_fw.png	456.9131283760071	0.7872405052185059
227	308.4047603607178	response	0	k		225.0	/experiments/Knapen_AOT/AOT_stimuli/pictures/2150_fw.png	457.67645382881165	
228	308.4286754131317	picture	0		113	226.0	/experiments/Knapen_AOT/AOT_stimuli/pictures/1914_fw.png	457.7003688812256	0.9499509334564209
228	309.36211585998535	response	0	j		226.0	/experiments/Knapen_AOT/AOT_stimuli/pictures/1914_fw.png	458.6338093280792	
229	309.37862634658813	picture	0		103	227.0	/experiments/Knapen_AOT/AOT_stimuli/pictures/0955_fw.png	458.650319814682	0.8600125312805176
229	310.228905916214	response	0	k		227.0	/experiments/Knapen_AOT/AOT_stimuli/pictures/0955_fw.png	459.50059938430786	
230	310.23863887786865	picture	0		162	228.0	/experiments/Knapen_AOT/AOT_stimuli/pictures/0314_fw.png	459.5103323459625	1.356689691543579
230	311.5790674686432	response	0	k		228.0	/experiments/Knapen_AOT/AOT_stimuli/pictures/0314_fw.png	460.85076093673706	
231	311.59532856941223	picture	0		174	229.0	/experiments/Knapen_AOT/AOT_stimuli/pictures/1084_fw.png	460.8670220375061	1.4583754539489746
231	313.03725004196167	response	0	j		229.0	/experiments/Knapen_AOT/AOT_stimuli/pictures/1084_fw.png	462.30894351005554	
232	313.0537040233612	picture	0		102	230.0	/experiments/Knapen_AOT/AOT_stimuli/pictures/0077_fw.png	462.3253974914551	0.85162353515625
232	313.89565420150757	response	0	k		230.0	/experiments/Knapen_AOT/AOT_stimuli/pictures/0077_fw.png	463.16734766960144	
233	313.90532755851746	picture	0		108	231.0	/experiments/Knapen_AOT/AOT_stimuli/pictures/1264_fw.png	463.1770210266113	0.9066956043243408
233	314.79581475257874	response	0	j		231.0	/experiments/Knapen_AOT/AOT_stimuli/pictures/1264_fw.png	464.0675082206726	
234	314.8120231628418	picture	0		116	232.0	/experiments/Knapen_AOT/AOT_stimuli/pictures/1245_fw.png	464.08371663093567	0.968297004699707
234	315.77063369750977	response	0	k		232.0	/experiments/Knapen_AOT/AOT_stimuli/pictures/1245_fw.png	465.04232716560364	
235	315.7803201675415	picture	0		144	233.0	/experiments/Knapen_AOT/AOT_stimuli/pictures/1120_fw.png	465.0520136356354	1.2067499160766602
235	316.9706058502197	response	0	k		233.0	/experiments/Knapen_AOT/AOT_stimuli/pictures/1120_fw.png	466.2422993183136	
236	316.98707008361816	picture	0		97	234.0	/experiments/Knapen_AOT/AOT_stimuli/pictures/0238_fw.png	466.25876355171204	0.8141493797302246
236	317.7872624397278	response	0	k		234.0	/experiments/Knapen_AOT/AOT_stimuli/pictures/0238_fw.png	467.05895590782166	
237	317.8012194633484	picture	0		91	235.0	/experiments/Knapen_AOT/AOT_stimuli/pictures/0954_fw.png	467.07291293144226	0.7691771984100342
237	318.5539252758026	response	0	j		235.0	/experiments/Knapen_AOT/AOT_stimuli/pictures/0954_fw.png	467.8256187438965	
238	318.5703966617584	picture	0		105	236.0	/experiments/Knapen_AOT/AOT_stimuli/pictures/1559_fw.png	467.8420901298523	0.8833720684051514
238	319.43728494644165	response	0	j		236.0	/experiments/Knapen_AOT/AOT_stimuli/pictures/1559_fw.png	468.7089784145355	
239	319.4537687301636	picture	0		116	237.0	/experiments/Knapen_AOT/AOT_stimuli/pictures/2073_fw.png	468.72546219825745	0.9749972820281982
239	320.4123344421387	response	0	k		237.0	/experiments/Knapen_AOT/AOT_stimuli/pictures/2073_fw.png	469.68402791023254	
240	320.4287660121918	picture	0		166	238.0	/experiments/Knapen_AOT/AOT_stimuli/pictures/1108_fw.png	469.70045948028564	1.3862314224243164
240	321.79666352272034	response	0	j		238.0	/experiments/Knapen_AOT/AOT_stimuli/pictures/1108_fw.png	471.0683569908142	
241	321.8149974346161	picture	0		86	239.0	/experiments/Knapen_AOT/AOT_stimuli/pictures/0310_fw.png	471.08669090270996	0.7221448421478271
241	322.5207953453064	response	0	j		239.0	/experiments/Knapen_AOT/AOT_stimuli/pictures/0310_fw.png	471.79248881340027	
242	322.5371422767639	picture	0		111	240.0	/experiments/Knapen_AOT/AOT_stimuli/pictures/0395_fw.png	471.8088357448578	0.9307639598846436
242	323.45409512519836	response	0	k		240.0	/experiments/Knapen_AOT/AOT_stimuli/pictures/0395_fw.png	472.72578859329224	
243	323.46790623664856	picture	0		97	241.0	/experiments/Knapen_AOT/AOT_stimuli/pictures/0247_fw.png	472.73959970474243	0.8192567825317383
243	324.2706756591797	response	0	k		241.0	/experiments/Knapen_AOT/AOT_stimuli/pictures/0247_fw.png	473.54236912727356	
244	324.2871630191803	picture	0		243	242.0	/experiments/Knapen_AOT/AOT_stimuli/pictures/1889_fw.png	473.55885648727417	2.0333704948425293
244	326.3040132522583	response	0	k		242.0	/experiments/Knapen_AOT/AOT_stimuli/pictures/1889_fw.png	475.5757067203522	
245	326.3205335140228	picture	0		104	243.0	/experiments/Knapen_AOT/AOT_stimuli/pictures/0622_fw.png	475.5922269821167	0.8696253299713135
245	327.1791121959686	response	0	k		243.0	/experiments/Knapen_AOT/AOT_stimuli/pictures/0622_fw.png	476.4508056640625	
246	327.19015884399414	picture	0		248	244.0	/experiments/Knapen_AOT/AOT_stimuli/pictures/0848_fw.png	476.461852312088	2.0720932483673096
246	329.2457523345947	response	0	k		244.0	/experiments/Knapen_AOT/AOT_stimuli/pictures/0848_fw.png	478.5174458026886	
247	329.26225209236145	picture	0		103	245.0	/experiments/Knapen_AOT/AOT_stimuli/pictures/0003_fw.png	478.5339455604553	0.858539342880249
247	330.1123893260956	response	0	j		245.0	/experiments/Knapen_AOT/AOT_stimuli/pictures/0003_fw.png	479.38408279418945	
248	330.1207914352417	picture	0		102	246.0	/experiments/Knapen_AOT/AOT_stimuli/pictures/0446_fw.png	479.39248490333557	0.8581094741821289
248	330.9623682498932	response	0	k		246.0	/experiments/Knapen_AOT/AOT_stimuli/pictures/0446_fw.png	480.23406171798706	
249	330.9789009094238	picture	0		332	247.0	/experiments/Knapen_AOT/AOT_stimuli/pictures/0668_fw.png	480.2505943775177	2.775110960006714
249	333.73744344711304	response	0	j		247.0	/experiments/Knapen_AOT/AOT_stimuli/pictures/0668_fw.png	483.0091369152069	
250	333.75401186943054	picture	0		88	248.0	/experiments/Knapen_AOT/AOT_stimuli/pictures/0846_fw.png	483.0257053375244	0.7348408699035645
250	334.4791479110718	response	0	k		248.0	/experiments/Knapen_AOT/AOT_stimuli/pictures/0846_fw.png	483.75084137916565	
251	334.4888527393341	picture	0		96	249.0	/experiments/Knapen_AOT/AOT_stimuli/pictures/0853_fw.png	483.760546207428	0.7985892295837402
251	335.2794029712677	response	0	k		249.0	/experiments/Knapen_AOT/AOT_stimuli/pictures/0853_fw.png	484.5510964393616	
252	335.28744196891785	picture	0		134	250.0	/experiments/Knapen_AOT/AOT_stimuli/pictures/0990_fw.png	484.5591354370117	1.1248910427093506
252	336.3886573314667	response	0	k		250.0	/experiments/Knapen_AOT/AOT_stimuli/pictures/0990_fw.png	485.66035079956055	
253	336.4123330116272	picture	0		105	251.0	/experiments/Knapen_AOT/AOT_stimuli/pictures/1561_fw.png	485.68402647972107	0.883307695388794
253	337.27934551239014	response	0	j		251.0	/experiments/Knapen_AOT/AOT_stimuli/pictures/1561_fw.png	486.551038980484	
254	337.295640707016	picture	0		87	252.0	/experiments/Knapen_AOT/AOT_stimuli/pictures/1188_fw.png	486.56733417510986	0.7278950214385986
254	338.0124933719635	response	0	k		252.0	/experiments/Knapen_AOT/AOT_stimuli/pictures/1188_fw.png	487.2841868400574	
255	338.0235357284546	picture	0		503	253.0	/experiments/Knapen_AOT/AOT_stimuli/pictures/0604_fw.png	487.29522919654846	4.194413185119629
255	342.2042896747589	response	0	k		253.0	/experiments/Knapen_AOT/AOT_stimuli/pictures/0604_fw.png	491.4759831428528	
256	342.2179489135742	picture	0		391	254.0	/experiments/Knapen_AOT/AOT_stimuli/pictures/1444_fw.png	491.4896423816681	3.2694742679595947
256	345.47094345092773	response	0	k		254.0	/experiments/Knapen_AOT/AOT_stimuli/pictures/1444_fw.png	494.7426369190216	
257	345.4874231815338	picture	0		105	255.0	/experiments/Knapen_AOT/AOT_stimuli/pictures/0529_fw.png	494.7591166496277	0.8834788799285889
257	346.35436058044434	response	0	k		255.0	/experiments/Knapen_AOT/AOT_stimuli/pictures/0529_fw.png	495.6260540485382	
258	346.3709020614624	picture	0		91	256.0	/experiments/Knapen_AOT/AOT_stimuli/pictures/1848_fw.png	495.6425955295563	0.7665739059448242
258	347.1211040019989	response	0	k		256.0	/experiments/Knapen_AOT/AOT_stimuli/pictures/1848_fw.png	496.3927974700928	
259	347.1374759674072	picture	0		106	257.0	/experiments/Knapen_AOT/AOT_stimuli/pictures/1544_fw.png	496.4091694355011	0.8916168212890625
259	348.0126175880432	response	0	k		257.0	/experiments/Knapen_AOT/AOT_stimuli/pictures/1544_fw.png	497.2843110561371	
260	348.0290927886963	picture	0		415	258.0	/experiments/Knapen_AOT/AOT_stimuli/pictures/1543_fw.png	497.30078625679016	3.466766834259033
260	351.4794738292694	response	0	k		258.0	/experiments/Knapen_AOT/AOT_stimuli/pictures/1543_fw.png	500.7511672973633	
261	351.4958596229553	picture	0		892	259.0	/experiments/Knapen_AOT/AOT_stimuli/pictures/2054_fw.png	500.7675530910492	7.437474012374878
261	358.92106771469116	response	0	k		259.0	/experiments/Knapen_AOT/AOT_stimuli/pictures/2054_fw.png	508.19276118278503	
262	358.9333336353302	picture	0		85	260.0	/experiments/Knapen_AOT/AOT_stimuli/pictures/1808_fw.png	508.2050271034241	0.712653398513794
262	359.6294412612915	response	0	j		260.0	/experiments/Knapen_AOT/AOT_stimuli/pictures/1808_fw.png	508.9011347293854	
263	359.645987033844	picture	0		90	261.0	/experiments/Knapen_AOT/AOT_stimuli/pictures/1418_fw.png	508.91768050193787	0.7527611255645752
263	360.3802852630615	response	0	j		261.0	/experiments/Knapen_AOT/AOT_stimuli/pictures/1418_fw.png	509.6519787311554	
264	360.39874815940857	picture	0		172	262.0	/experiments/Knapen_AOT/AOT_stimuli/pictures/0894_fw.png	509.67044162750244	1.4388718605041504
264	361.8211443424225	response	0	k		262.0	/experiments/Knapen_AOT/AOT_stimuli/pictures/0894_fw.png	511.09283781051636	
265	361.8376200199127	picture	0		92	263.0	/experiments/Knapen_AOT/AOT_stimuli/pictures/0809_fw.png	511.1093134880066	0.769434928894043
265	362.58890652656555	response	0	k		263.0	/experiments/Knapen_AOT/AOT_stimuli/pictures/0809_fw.png	511.8605999946594	
266	362.60705494880676	picture	0		111	264.0	/experiments/Knapen_AOT/AOT_stimuli/pictures/0150_fw.png	511.87874841690063	0.9306685924530029
266	363.52115988731384	response	0	k		264.0	/experiments/Knapen_AOT/AOT_stimuli/pictures/0150_fw.png	512.7928533554077	
267	363.53772354125977	picture	0		105	265.0	/experiments/Knapen_AOT/AOT_stimuli/pictures/1760_fw.png	512.8094170093536	0.8749797344207764
267	364.40450739860535	response	0	j		265.0	/experiments/Knapen_AOT/AOT_stimuli/pictures/1760_fw.png	513.6762008666992	
268	364.41270327568054	picture	0		95	266.0	/experiments/Knapen_AOT/AOT_stimuli/pictures/0201_fw.png	513.6843967437744	0.8000016212463379
268	365.1963105201721	response	0	k		266.0	/experiments/Knapen_AOT/AOT_stimuli/pictures/0201_fw.png	514.468003988266	
269	365.2127048969269	picture	0		135	267.0	/experiments/Knapen_AOT/AOT_stimuli/pictures/1061_fw.png	514.4843983650208	1.1304936408996582
269	366.3298146724701	response	0	k		267.0	/experiments/Knapen_AOT/AOT_stimuli/pictures/1061_fw.png	515.601508140564	
270	366.34319853782654	picture	0		87	268.0	/experiments/Knapen_AOT/AOT_stimuli/pictures/0482_fw.png	515.6148920059204	0.736290454864502
270	367.0631353855133	response	0	j		268.0	/experiments/Knapen_AOT/AOT_stimuli/pictures/0482_fw.png	516.3348288536072	
271	367.07948899269104	picture	0		94	269.0	/experiments/Knapen_AOT/AOT_stimuli/pictures/0385_fw.png	516.3511824607849	0.7915832996368408
271	367.85481905937195	response	0	k		269.0	/experiments/Knapen_AOT/AOT_stimuli/pictures/0385_fw.png	517.1265125274658	
272	367.8710722923279	picture	0		80	270.0	/experiments/Knapen_AOT/AOT_stimuli/pictures/0172_fw.png	517.1427657604218	0.6750314235687256
272	368.5295491218567	response	0	k		270.0	/experiments/Knapen_AOT/AOT_stimuli/pictures/0172_fw.png	517.8012425899506	
273	368.5461037158966	picture	0		178	271.0	/experiments/Knapen_AOT/AOT_stimuli/pictures/0050_fw.png	517.8177971839905	1.4916234016418457
273	370.02128052711487	response	0	k		271.0	/experiments/Knapen_AOT/AOT_stimuli/pictures/0050_fw.png	519.2929739952087	
274	370.03772711753845	picture	0		95	272.0	/experiments/Knapen_AOT/AOT_stimuli/pictures/1426_fw.png	519.3094205856323	0.7999920845031738
274	370.8212859630585	response	0	k		272.0	/experiments/Knapen_AOT/AOT_stimuli/pictures/1426_fw.png	520.0929794311523	
275	370.8377192020416	picture	0		117	273.0	/experiments/Knapen_AOT/AOT_stimuli/pictures/0363_fw.png	520.1094126701355	0.9833700656890869
275	371.80461502075195	response	0	k		273.0	/experiments/Knapen_AOT/AOT_stimuli/pictures/0363_fw.png	521.0763084888458	
276	371.8210892677307	picture	0		121	274.0	/experiments/Knapen_AOT/AOT_stimuli/pictures/1922_fw.png	521.0927827358246	1.008347749710083
276	372.8212721347809	response	0	k		274.0	/experiments/Knapen_AOT/AOT_stimuli/pictures/1922_fw.png	522.0929656028748	
277	372.8294370174408	picture	0		123	275.0	/experiments/Knapen_AOT/AOT_stimuli/pictures/1600_fw.png	522.1011304855347	1.0277183055877686
277	373.8463091850281	response	0	k		275.0	/experiments/Knapen_AOT/AOT_stimuli/pictures/1600_fw.png	523.118002653122	
278	373.85715532302856	picture	0		123	276.0	/experiments/Knapen_AOT/AOT_stimuli/pictures/1126_fw.png	523.1288487911224	1.0277793407440186
278	374.87134075164795	response	0	k		276.0	/experiments/Knapen_AOT/AOT_stimuli/pictures/1126_fw.png	524.1430342197418	
279	374.8849346637726	picture	0		110	277.0	/experiments/Knapen_AOT/AOT_stimuli/pictures/1134_fw.png	524.1566281318665	0.9236676692962646
279	375.7888104915619	response	0	k		277.0	/experiments/Knapen_AOT/AOT_stimuli/pictures/1134_fw.png	525.0605039596558	
280	375.80860233306885	picture	0		91	278.0	/experiments/Knapen_AOT/AOT_stimuli/pictures/0602_fw.png	525.0802958011627	0.7569558620452881
280	376.554719209671	response	0	k		278.0	/experiments/Knapen_AOT/AOT_stimuli/pictures/0602_fw.png	525.8264126777649	
281	376.56555819511414	picture	0		163	279.0	/experiments/Knapen_AOT/AOT_stimuli/pictures/1330_fw.png	525.837251663208	1.3639533519744873
281	377.91307401657104	response	0	k		279.0	/experiments/Knapen_AOT/AOT_stimuli/pictures/1330_fw.png	527.1847674846649	
282	377.9295115470886	picture	0		162	280.0	/experiments/Knapen_AOT/AOT_stimuli/pictures/1721_fw.png	527.2012050151825	1.3584237098693848
282	379.27136611938477	response	0	k		280.0	/experiments/Knapen_AOT/AOT_stimuli/pictures/1721_fw.png	528.5430595874786	
283	379.287935256958	picture	0		96	281.0	/experiments/Knapen_AOT/AOT_stimuli/pictures/1077_fw.png	528.5596287250519	0.80826735496521
283	380.07968497276306	response	0	k		281.0	/experiments/Knapen_AOT/AOT_stimuli/pictures/1077_fw.png	529.3513784408569	
284	380.0962026119232	picture	0		81	282.0	/experiments/Knapen_AOT/AOT_stimuli/pictures/1875_fw.png	529.3678960800171	0.6777205467224121
284	380.76305747032166	response	0	k		282.0	/experiments/Knapen_AOT/AOT_stimuli/pictures/1875_fw.png	530.0347509384155	
285	380.77392315864563	picture	0		124	283.0	/experiments/Knapen_AOT/AOT_stimuli/pictures/1271_fw.png	530.0456166267395	1.038935661315918
285	381.7964882850647	response	0	j		283.0	/experiments/Knapen_AOT/AOT_stimuli/pictures/1271_fw.png	531.0681817531586	
286	381.81285881996155	picture	0		101	284.0	/experiments/Knapen_AOT/AOT_stimuli/pictures/0336_fw.png	531.0845522880554	0.8429324626922607
286	382.64643478393555	response	0	k		284.0	/experiments/Knapen_AOT/AOT_stimuli/pictures/0336_fw.png	531.9181282520294	
287	382.6557912826538	picture	0		147	285.0	/experiments/Knapen_AOT/AOT_stimuli/pictures/1828_fw.png	531.9274847507477	1.2291944026947021
287	383.87141585350037	response	0	j		285.0	/experiments/Knapen_AOT/AOT_stimuli/pictures/1828_fw.png	533.1431093215942	
288	383.8849856853485	picture	0		86	286.0	/experiments/Knapen_AOT/AOT_stimuli/pictures/2111_fw.png	533.1566791534424	0.7279164791107178
288	384.5965037345886	response	0	j		286.0	/experiments/Knapen_AOT/AOT_stimuli/pictures/2111_fw.png	533.8681972026825	
289	384.61290216445923	picture	0		108	287.0	/experiments/Knapen_AOT/AOT_stimuli/pictures/0133_fw.png	533.8845956325531	0.9040756225585938
289	385.5048279762268	response	0	k		287.0	/experiments/Knapen_AOT/AOT_stimuli/pictures/0133_fw.png	534.7765214443207	
290	385.5169777870178	picture	0		883	288.0	/experiments/Knapen_AOT/AOT_stimuli/pictures/0829_fw.png	534.7886712551117	7.362759828567505
290	392.8632245063782	response	0	k		288.0	/experiments/Knapen_AOT/AOT_stimuli/pictures/0829_fw.png	542.134917974472	
291	392.8797376155853	picture	0		105	289.0	/experiments/Knapen_AOT/AOT_stimuli/pictures/1963_fw.png	542.1514310836792	0.8803505897521973
291	393.7465305328369	response	0	k		289.0	/experiments/Knapen_AOT/AOT_stimuli/pictures/1963_fw.png	543.0182240009308	
292	393.7600882053375	picture	0		100	290.0	/experiments/Knapen_AOT/AOT_stimuli/pictures/1935_fw.png	543.0317816734314	0.8402798175811768
292	394.58127665519714	response	0	k		290.0	/experiments/Knapen_AOT/AOT_stimuli/pictures/1935_fw.png	543.852970123291	
293	394.6003680229187	picture	0		108	291.0	/experiments/Knapen_AOT/AOT_stimuli/pictures/1927_fw.png	543.8720614910126	0.9043455123901367
293	395.48822593688965	response	0	k		291.0	/experiments/Knapen_AOT/AOT_stimuli/pictures/1927_fw.png	544.7599194049835	
294	395.50471353530884	picture	0		162	292.0	/experiments/Knapen_AOT/AOT_stimuli/pictures/1194_fw.png	544.7764070034027	1.3583641052246094
294	396.8465859889984	response	0	k		292.0	/experiments/Knapen_AOT/AOT_stimuli/pictures/1194_fw.png	546.1182794570923	
295	396.86307764053345	picture	0		181	293.0	/experiments/Knapen_AOT/AOT_stimuli/pictures/0507_fw.png	546.1347711086273	1.5166730880737305
295	398.3634285926819	response	0	j		293.0	/experiments/Knapen_AOT/AOT_stimuli/pictures/0507_fw.png	547.6351220607758	
296	398.3797507286072	picture	0		128	294.0	/experiments/Knapen_AOT/AOT_stimuli/pictures/1313_fw.png	547.651444196701	1.0749900341033936
296	399.4385414123535	response	0	k		294.0	/experiments/Knapen_AOT/AOT_stimuli/pictures/1313_fw.png	548.7102348804474	
297	399.45474076271057	picture	0		1841	295.0	/experiments/Knapen_AOT/AOT_stimuli/pictures/0999_fw.png	548.7264342308044	15.347038984298706
297	414.7884955406189	response	0	k		295.0	/experiments/Knapen_AOT/AOT_stimuli/pictures/0999_fw.png	564.0601890087128	
298	414.8017797470093	picture	0		82	296.0	/experiments/Knapen_AOT/AOT_stimuli/pictures/1621_fw.png	564.0734732151031	0.6948575973510742
298	415.4801256656647	response	0	k		296.0	/experiments/Knapen_AOT/AOT_stimuli/pictures/1621_fw.png	564.7518191337585	
299	415.49663734436035	picture	0		87	297.0	/experiments/Knapen_AOT/AOT_stimuli/pictures/1772_fw.png	564.7683308124542	0.7288696765899658
299	416.21350598335266	response	0	k		297.0	/experiments/Knapen_AOT/AOT_stimuli/pictures/1772_fw.png	565.4851994514465	
300	416.2255070209503	picture	0		128	298.0	/experiments/Knapen_AOT/AOT_stimuli/pictures/2168_fw.png	565.4972004890442	1.0711429119110107
300	417.2802402973175	response	0	k		298.0	/experiments/Knapen_AOT/AOT_stimuli/pictures/2168_fw.png	566.5519337654114	
301	417.2966499328613	picture	0		124	299.0	/experiments/Knapen_AOT/AOT_stimuli/pictures/2139_fw.png	566.5683434009552	1.0416648387908936
301	418.3218586444855	response	0	j		299.0	/experiments/Knapen_AOT/AOT_stimuli/pictures/2139_fw.png	567.5935521125793	
302	418.3383147716522	picture	0		93	300.0	/experiments/Knapen_AOT/AOT_stimuli/pictures/1144_fw.png	567.6100082397461	0.7833406925201416
302	419.1052174568176	response	0	k		300.0	/experiments/Knapen_AOT/AOT_stimuli/pictures/1144_fw.png	568.3769109249115	
303	419.12165546417236	picture	0		111	301.0	/experiments/Knapen_AOT/AOT_stimuli/pictures/0143_fw.png	568.3933489322662	0.9333574771881104
303	420.03850769996643	response	0	j		301.0	/experiments/Knapen_AOT/AOT_stimuli/pictures/0143_fw.png	569.3102011680603	
304	420.0550129413605	picture	0		126	302.0	/experiments/Knapen_AOT/AOT_stimuli/pictures/1732_fw.png	569.3267064094543	1.0583205223083496
304	421.09694623947144	response	0	k		302.0	/experiments/Knapen_AOT/AOT_stimuli/pictures/1732_fw.png	570.3686397075653	
305	421.1133334636688	picture	0		87	303.0	/experiments/Knapen_AOT/AOT_stimuli/pictures/0371_fw.png	570.3850269317627	0.7303051948547363
305	421.83020424842834	response	0	k		303.0	/experiments/Knapen_AOT/AOT_stimuli/pictures/0371_fw.png	571.1018977165222	
306	421.84363865852356	picture	0		123	304.0	/experiments/Knapen_AOT/AOT_stimuli/pictures/1443_fw.png	571.1153321266174	1.0364062786102295
306	422.86359190940857	response	0	j		304.0	/experiments/Knapen_AOT/AOT_stimuli/pictures/1443_fw.png	572.1352853775024	
307	422.8800449371338	picture	0		93	305.0	/experiments/Knapen_AOT/AOT_stimuli/pictures/1081_fw.png	572.1517384052277	0.7833328247070312
307	423.64705872535706	response	0	k		305.0	/experiments/Knapen_AOT/AOT_stimuli/pictures/1081_fw.png	572.9187521934509	
308	423.6633777618408	picture	0		122	306.0	/experiments/Knapen_AOT/AOT_stimuli/pictures/0127_fw.png	572.9350712299347	1.0250086784362793
308	424.67189025878906	response	0	k		306.0	/experiments/Knapen_AOT/AOT_stimuli/pictures/0127_fw.png	573.9435837268829	
309	424.6883864402771	picture	0		222	307.0	/experiments/Knapen_AOT/AOT_stimuli/pictures/0344_fw.png	573.960079908371	1.8583900928497314
309	426.53029227256775	response	0	j		307.0	/experiments/Knapen_AOT/AOT_stimuli/pictures/0344_fw.png	575.8019857406616	
310	426.54677653312683	picture	0		96	308.0	/experiments/Knapen_AOT/AOT_stimuli/pictures/1866_fw.png	575.8184700012207	0.8083770275115967
310	427.33861684799194	response	0	k		308.0	/experiments/Knapen_AOT/AOT_stimuli/pictures/1866_fw.png	576.6103103160858	
311	427.3551535606384	picture	0		106	309.0	/experiments/Knapen_AOT/AOT_stimuli/pictures/1376_fw.png	576.6268470287323	0.8916089534759521
311	428.2303066253662	response	0	k		309.0	/experiments/Knapen_AOT/AOT_stimuli/pictures/1376_fw.png	577.5020000934601	
312	428.2467625141144	picture	0		196	310.0	/experiments/Knapen_AOT/AOT_stimuli/pictures/1674_fw.png	577.5184559822083	1.6416962146759033
312	429.8719596862793	response	0	j		310.0	/experiments/Knapen_AOT/AOT_stimuli/pictures/1674_fw.png	579.1436531543732	
313	429.8884587287903	picture	0		119	311.0	/experiments/Knapen_AOT/AOT_stimuli/pictures/0737_fw.png	579.1601521968842	1.000087022781372
313	430.8722288608551	response	0	j		311.0	/experiments/Knapen_AOT/AOT_stimuli/pictures/0737_fw.png	580.143922328949	
314	430.88854575157166	picture	0		96	312.0	/experiments/Knapen_AOT/AOT_stimuli/pictures/0530_fw.png	580.1602392196655	0.8082821369171143
314	431.68040108680725	response	0	k		312.0	/experiments/Knapen_AOT/AOT_stimuli/pictures/0530_fw.png	580.9520945549011	
315	431.69682788848877	picture	0		80	313.0	/experiments/Knapen_AOT/AOT_stimuli/pictures/0415_fw.png	580.9685213565826	0.6749820709228516
315	432.35533261299133	response	0	k		313.0	/experiments/Knapen_AOT/AOT_stimuli/pictures/0415_fw.png	581.6270260810852	
316	432.3718099594116	picture	0		108	314.0	/experiments/Knapen_AOT/AOT_stimuli/pictures/1002_fw.png	581.6435034275055	0.9093663692474365
316	433.2639663219452	response	0	k		314.0	/experiments/Knapen_AOT/AOT_stimuli/pictures/1002_fw.png	582.5356597900391	
317	433.28117632865906	picture	0		205	315.0	/experiments/Knapen_AOT/AOT_stimuli/pictures/0983_fw.png	582.5528697967529	1.715693712234497
317	434.97422790527344	response	0	j		315.0	/experiments/Knapen_AOT/AOT_stimuli/pictures/0983_fw.png	584.2459213733673	
318	434.99687004089355	picture	0		103	316.0	/experiments/Knapen_AOT/AOT_stimuli/pictures/0403_fw.png	584.2685635089874	0.8666684627532959
318	435.84706568717957	response	0	k		316.0	/experiments/Knapen_AOT/AOT_stimuli/pictures/0403_fw.png	585.1187591552734	
319	435.86353850364685	picture	0		92	317.0	/experiments/Knapen_AOT/AOT_stimuli/pictures/0431_fw.png	585.1352319717407	0.7750072479248047
319	436.6220905780792	response	0	k		317.0	/experiments/Knapen_AOT/AOT_stimuli/pictures/0431_fw.png	585.8937840461731	
320	436.63854575157166	picture	0		90	318.0	/experiments/Knapen_AOT/AOT_stimuli/pictures/0439_fw.png	585.9102392196655	0.7583193778991699
320	437.3804895877838	response	0	k		318.0	/experiments/Knapen_AOT/AOT_stimuli/pictures/0439_fw.png	586.6521830558777	
321	437.3968651294708	picture	0		127	319.0	/experiments/Knapen_AOT/AOT_stimuli/pictures/1623_fw.png	586.6685585975647	1.0583341121673584
321	438.4470980167389	response	0	k		319.0	/experiments/Knapen_AOT/AOT_stimuli/pictures/1623_fw.png	587.7187914848328	
322	438.4551992416382	picture	0		98	320.0	/experiments/Knapen_AOT/AOT_stimuli/pictures/1882_fw.png	587.726892709732	0.8250324726104736
322	439.2638142108917	response	0	k		320.0	/experiments/Knapen_AOT/AOT_stimuli/pictures/1882_fw.png	588.5355076789856	
323	439.28023171424866	picture	0		85	321.0	/experiments/Knapen_AOT/AOT_stimuli/pictures/1564_fw.png	588.5519251823425	0.7166869640350342
323	439.9740924835205	response	0	k		321.0	/experiments/Knapen_AOT/AOT_stimuli/pictures/1564_fw.png	589.2457859516144	
324	439.9969186782837	picture	0		86	322.0	/experiments/Knapen_AOT/AOT_stimuli/pictures/1050_fw.png	589.2686121463776	0.7218101024627686
324	440.70542097091675	response	0	k		322.0	/experiments/Knapen_AOT/AOT_stimuli/pictures/1050_fw.png	589.9771144390106	
325	440.71872878074646	picture	0		112	323.0	/experiments/Knapen_AOT/AOT_stimuli/pictures/1542_fw.png	589.9904222488403	0.9374864101409912
325	441.64716362953186	response	0	k		323.0	/experiments/Knapen_AOT/AOT_stimuli/pictures/1542_fw.png	590.9188570976257	
326	441.65621519088745	picture	0		138	324.0	/experiments/Knapen_AOT/AOT_stimuli/pictures/1804_fw.png	590.9279086589813	1.1574063301086426
326	442.79717445373535	response	0	k		324.0	/experiments/Knapen_AOT/AOT_stimuli/pictures/1804_fw.png	592.0688679218292	
327	442.8136215209961	picture	0		105	325.0	/experiments/Knapen_AOT/AOT_stimuli/pictures/1931_fw.png	592.08531498909	0.8833322525024414
327	443.68046712875366	response	0	k		325.0	/experiments/Knapen_AOT/AOT_stimuli/pictures/1931_fw.png	592.9521605968475	
328	443.69695377349854	picture	0		118	326.0	/experiments/Knapen_AOT/AOT_stimuli/pictures/0347_fw.png	592.9686472415924	0.9916872978210449
328	444.6721353530884	response	0	k		326.0	/experiments/Knapen_AOT/AOT_stimuli/pictures/0347_fw.png	593.9438288211823	
329	444.6886410713196	picture	0		109	327.0	/experiments/Knapen_AOT/AOT_stimuli/pictures/2114_fw.png	593.9603345394135	0.9166927337646484
329	445.5888583660126	response	0	k		327.0	/experiments/Knapen_AOT/AOT_stimuli/pictures/2114_fw.png	594.8605518341064	
330	445.60533380508423	picture	0		224	328.0	/experiments/Knapen_AOT/AOT_stimuli/pictures/0731_fw.png	594.8770272731781	1.8750193119049072
330	447.4638509750366	response	0	j		328.0	/experiments/Knapen_AOT/AOT_stimuli/pictures/0731_fw.png	596.7355444431305	
331	447.48035311698914	picture	0		117	329.0	/experiments/Knapen_AOT/AOT_stimuli/pictures/1029_fw.png	596.752046585083	0.9833292961120605
331	448.4472424983978	response	0	k		329.0	/experiments/Knapen_AOT/AOT_stimuli/pictures/1029_fw.png	597.7189359664917	
332	448.4636824131012	picture	0		101	330.0	/experiments/Knapen_AOT/AOT_stimuli/pictures/0042_fw.png	597.7353758811951	0.8500230312347412
332	449.29722237586975	response	0	j		330.0	/experiments/Knapen_AOT/AOT_stimuli/pictures/0042_fw.png	598.5689158439636	
333	449.31370544433594	picture	0		150	331.0	/experiments/Knapen_AOT/AOT_stimuli/pictures/0825_fw.png	598.5853989124298	1.2583296298980713
333	450.5556993484497	response	0	k		331.0	/experiments/Knapen_AOT/AOT_stimuli/pictures/0825_fw.png	599.8273928165436	
334	450.572035074234	picture	0		166	332.0	/experiments/Knapen_AOT/AOT_stimuli/pictures/1274_fw.png	599.8437285423279	1.3916935920715332
334	451.9473080635071	response	0	k		332.0	/experiments/Knapen_AOT/AOT_stimuli/pictures/1274_fw.png	601.219001531601	
335	451.96372866630554	picture	0		96	333.0	/experiments/Knapen_AOT/AOT_stimuli/pictures/1905_fw.png	601.2354221343994	0.808356523513794
335	452.7556529045105	response	0	j		333.0	/experiments/Knapen_AOT/AOT_stimuli/pictures/1905_fw.png	602.0273463726044	
336	452.77208518981934	picture	0		97	334.0	/experiments/Knapen_AOT/AOT_stimuli/pictures/0671_fw.png	602.0437786579132	0.8166806697845459
336	453.57246804237366	response	0	j		334.0	/experiments/Knapen_AOT/AOT_stimuli/pictures/0671_fw.png	602.8441615104675	
337	453.5887658596039	picture	0		314	335.0	/experiments/Knapen_AOT/AOT_stimuli/pictures/2059_fw.png	602.8604593276978	2.6250438690185547
337	456.1973304748535	response	0	j		335.0	/experiments/Knapen_AOT/AOT_stimuli/pictures/2059_fw.png	605.4690239429474	
338	456.21380972862244	picture	0		116	336.0	/experiments/Knapen_AOT/AOT_stimuli/pictures/0525_fw.png	605.4855031967163	0.9703686237335205
338	457.17259907722473	response	0	k		336.0	/experiments/Knapen_AOT/AOT_stimuli/pictures/0525_fw.png	606.4442925453186	
339	457.18417835235596	picture	0		87	337.0	/experiments/Knapen_AOT/AOT_stimuli/pictures/0744_fw.png	606.4558718204498	0.729621171951294
339	457.89735293388367	response	0	j		337.0	/experiments/Knapen_AOT/AOT_stimuli/pictures/0744_fw.png	607.1690464019775	
340	457.91379952430725	picture	0		89	338.0	/experiments/Knapen_AOT/AOT_stimuli/pictures/0520_fw.png	607.1854929924011	0.750014066696167
340	458.64735412597656	response	0	k		338.0	/experiments/Knapen_AOT/AOT_stimuli/pictures/0520_fw.png	607.9190475940704	
341	458.6638135910034	picture	0		113	339.0	/experiments/Knapen_AOT/AOT_stimuli/pictures/0019_fw.png	607.9355070590973	0.9500114917755127
341	459.59764313697815	response	0	j		339.0	/experiments/Knapen_AOT/AOT_stimuli/pictures/0019_fw.png	608.869336605072	
342	459.61382508277893	picture	0		106	340.0	/experiments/Knapen_AOT/AOT_stimuli/pictures/2170_fw.png	608.8855185508728	0.8916842937469482
342	460.4890761375427	response	0	j		340.0	/experiments/Knapen_AOT/AOT_stimuli/pictures/2170_fw.png	609.7607696056366	
343	460.5055093765259	picture	0		92	341.0	/experiments/Knapen_AOT/AOT_stimuli/pictures/0953_fw.png	609.7772028446198	0.7750167846679688
343	461.26403641700745	response	0	k		341.0	/experiments/Knapen_AOT/AOT_stimuli/pictures/0953_fw.png	610.5357298851013	
344	461.28052616119385	picture	0		110	342.0	/experiments/Knapen_AOT/AOT_stimuli/pictures/1322_fw.png	610.5522196292877	0.9249706268310547
344	462.1890730857849	response	0	k		342.0	/experiments/Knapen_AOT/AOT_stimuli/pictures/1322_fw.png	611.4607665538788	
345	462.2054967880249	picture	0		97	343.0	/experiments/Knapen_AOT/AOT_stimuli/pictures/0489_fw.png	611.4771902561188	0.8166875839233398
345	463.00571751594543	response	0	j		343.0	/experiments/Knapen_AOT/AOT_stimuli/pictures/0489_fw.png	612.2774109840393	
346	463.02218437194824	picture	0		271	344.0	/experiments/Knapen_AOT/AOT_stimuli/pictures/0936_fw.png	612.2938778400421	2.2667148113250732
346	465.27245020866394	response	0	k		344.0	/experiments/Knapen_AOT/AOT_stimuli/pictures/0936_fw.png	614.5441436767578	
347	465.2888991832733	picture	0		140	345.0	/experiments/Knapen_AOT/AOT_stimuli/pictures/1025_fw.png	614.5605926513672	1.1750435829162598
347	466.447420835495	response	0	j		345.0	/experiments/Knapen_AOT/AOT_stimuli/pictures/1025_fw.png	615.7191143035889	
348	466.4639427661896	picture	0		169	346.0	/experiments/Knapen_AOT/AOT_stimuli/pictures/1037_fw.png	615.7356362342834	1.4166834354400635
348	467.86412024497986	response	0	k		346.0	/experiments/Knapen_AOT/AOT_stimuli/pictures/1037_fw.png	617.1358137130737	
349	467.88062620162964	picture	0		135	347.0	/experiments/Knapen_AOT/AOT_stimuli/pictures/1629_fw.png	617.1523196697235	1.1333134174346924
349	468.99744296073914	response	0	k		347.0	/experiments/Knapen_AOT/AOT_stimuli/pictures/1629_fw.png	618.269136428833	
350	469.01393961906433	picture	0		114	348.0	/experiments/Knapen_AOT/AOT_stimuli/pictures/0776_fw.png	618.2856330871582	0.9583451747894287
350	469.95578122138977	response	0	k		348.0	/experiments/Knapen_AOT/AOT_stimuli/pictures/0776_fw.png	619.2274746894836	
351	469.97228479385376	picture	0		130	349.0	/experiments/Knapen_AOT/AOT_stimuli/pictures/1784_fw.png	619.2439782619476	1.0917770862579346
351	471.04747700691223	response	0	k		349.0	/experiments/Knapen_AOT/AOT_stimuli/pictures/1784_fw.png	620.3191704750061	
352	471.0640618801117	picture	0		133	350.0	/experiments/Knapen_AOT/AOT_stimuli/pictures/1530_fw.png	620.3357553482056	1.1165926456451416
352	472.156857252121	response	0	k		350.0	/experiments/Knapen_AOT/AOT_stimuli/pictures/1530_fw.png	621.4285507202148	
353	472.18065452575684	picture	0		100	351.0	/experiments/Knapen_AOT/AOT_stimuli/pictures/1333_fw.png	621.4523479938507	0.8417222499847412
353	473.0059037208557	response	0	k		351.0	/experiments/Knapen_AOT/AOT_stimuli/pictures/1333_fw.png	622.2775971889496	
354	473.0223767757416	picture	0		248	352.0	/experiments/Knapen_AOT/AOT_stimuli/pictures/1240_fw.png	622.2940702438354	2.0749762058258057
354	475.08086228370667	response	0	k		352.0	/experiments/Knapen_AOT/AOT_stimuli/pictures/1240_fw.png	624.3525557518005	
355	475.0973529815674	picture	0		139	353.0	/experiments/Knapen_AOT/AOT_stimuli/pictures/2040_fw.png	624.3690464496613	1.1633799076080322
355	476.2475633621216	response	0	k		353.0	/experiments/Knapen_AOT/AOT_stimuli/pictures/2040_fw.png	625.5192568302155	
356	476.2607328891754	picture	0		77	354.0	/experiments/Knapen_AOT/AOT_stimuli/pictures/0272_fw.png	625.5324263572693	0.6532936096191406
356	476.89753127098083	response	0	k		354.0	/experiments/Knapen_AOT/AOT_stimuli/pictures/0272_fw.png	626.1692247390747	
357	476.91402649879456	picture	0		105	355.0	/experiments/Knapen_AOT/AOT_stimuli/pictures/0277_fw.png	626.1857199668884	0.8813526630401611
357	477.78097677230835	response	0	k		355.0	/experiments/Knapen_AOT/AOT_stimuli/pictures/0277_fw.png	627.0526702404022	
358	477.7953791618347	picture	0		112	356.0	/experiments/Knapen_AOT/AOT_stimuli/pictures/1961_fw.png	627.0670726299286	0.9437239170074463
358	478.7226243019104	response	0	j		356.0	/experiments/Knapen_AOT/AOT_stimuli/pictures/1961_fw.png	627.9943177700043	
359	478.73910307884216	picture	0		102	357.0	/experiments/Knapen_AOT/AOT_stimuli/pictures/1589_fw.png	628.010796546936	0.8549177646636963
359	479.58097410202026	response	0	k		357.0	/experiments/Knapen_AOT/AOT_stimuli/pictures/1589_fw.png	628.8526675701141	
360	479.59402084350586	picture	0		99	358.0	/experiments/Knapen_AOT/AOT_stimuli/pictures/0716_fw.png	628.8657143115997	0.8368065357208252
360	480.4143030643463	response	0	j		358.0	/experiments/Knapen_AOT/AOT_stimuli/pictures/0716_fw.png	629.6859965324402	
361	480.4308273792267	picture	0		107	359.0	/experiments/Knapen_AOT/AOT_stimuli/pictures/1936_fw.png	629.7025208473206	0.8999295234680176
361	481.3143701553345	response	0	k		359.0	/experiments/Knapen_AOT/AOT_stimuli/pictures/1936_fw.png	630.5860636234283	
362	481.3307569026947	stim	0		117			630.6024503707886	0.978515625
362	482.29783844947815	response	0	space				631.569531917572	
