trial_nr	onset	event_type	phase	response	nr_frames	picture_index	picture_file	onset_abs	duration
0	0.2080531120300293	stim	0		909			70.0290002822876	7.6168200969696045
0	7.780578136444092	response	0	space				77.60152530670166	
2	7.824873208999634	picture	0		244	0.0	/experiments/knapen_AOT/AOT_stimuli/pictures/0354_fw.png	77.6458203792572	2.084263801574707
2	9.849999189376831	response	0	k		0.0	/experiments/knapen_AOT/AOT_stimuli/pictures/0354_fw.png	79.6709463596344	
3	9.90913701057434	picture	0		104	1.0	/experiments/knapen_AOT/AOT_stimuli/pictures/1022_fw.png	79.73008418083191	0.8991360664367676
3	10.766662120819092	response	0	j		1.0	/experiments/knapen_AOT/AOT_stimuli/pictures/1022_fw.png	80.58760929107666	
4	10.808273077011108	picture	0		149	2.0	/experiments/knapen_AOT/AOT_stimuli/pictures/1566_fw.png	80.62922024726868	1.2676520347595215
4	12.035128116607666	response	0	k		2.0	/experiments/knapen_AOT/AOT_stimuli/pictures/1566_fw.png	81.85607528686523	
5	12.07592511177063	picture	0		105	3.0	/experiments/knapen_AOT/AOT_stimuli/pictures/1621_fw.png	81.8968722820282	0.9239740371704102
5	12.941731214523315	response	0	k		3.0	/experiments/knapen_AOT/AOT_stimuli/pictures/1621_fw.png	82.76267838478088	
6	12.99989914894104	picture	0		110	4.0	/experiments/knapen_AOT/AOT_stimuli/pictures/0687_fw.png	82.82084631919861	1.008410930633545
6	13.908419132232666	response	0	j		4.0	/experiments/knapen_AOT/AOT_stimuli/pictures/0687_fw.png	83.72936630249023	
7	14.008310079574585	picture	0		92	5.0	/experiments/knapen_AOT/AOT_stimuli/pictures/1287_fw.png	83.82925724983215	0.8106739521026611
7	14.766878128051758	response	0	j		5.0	/experiments/knapen_AOT/AOT_stimuli/pictures/1287_fw.png	84.58782529830933	
8	14.818984031677246	picture	0		102	6.0	/experiments/knapen_AOT/AOT_stimuli/pictures/1049_fw.png	84.63993120193481	0.8892929553985596
8	15.658631086349487	response	0	k		6.0	/experiments/knapen_AOT/AOT_stimuli/pictures/1049_fw.png	85.47957825660706	
9	15.708276987075806	picture	0		106	7.0	/experiments/knapen_AOT/AOT_stimuli/pictures/1051_fw.png	85.52922415733337	0.9250612258911133
9	16.583401203155518	response	0	k		7.0	/experiments/knapen_AOT/AOT_stimuli/pictures/1051_fw.png	86.40434837341309	
10	16.63333821296692	picture	0		177	8.0	/experiments/knapen_AOT/AOT_stimuli/pictures/0595_fw.png	86.45428538322449	1.5258347988128662
10	18.10016417503357	response	0	k		8.0	/experiments/knapen_AOT/AOT_stimuli/pictures/0595_fw.png	87.92111134529114	
11	18.159173011779785	picture	0		325	9.0	/experiments/knapen_AOT/AOT_stimuli/pictures/1470_fw.png	87.98012018203735	2.7325310707092285
11	20.85866117477417	response	0	k		9.0	/experiments/knapen_AOT/AOT_stimuli/pictures/1470_fw.png	90.67960834503174	
12	20.891704082489014	picture	0		97	10.0	/experiments/knapen_AOT/AOT_stimuli/pictures/0859_fw.png	90.71265125274658	0.8370540142059326
12	21.69188904762268	response	0	k		10.0	/experiments/knapen_AOT/AOT_stimuli/pictures/0859_fw.png	91.51283621788025	
13	21.728758096694946	picture	0		125	11.0	/experiments/knapen_AOT/AOT_stimuli/pictures/0343_fw.png	91.54970526695251	1.0763750076293945
13	22.75867199897766	response	0	j		11.0	/experiments/knapen_AOT/AOT_stimuli/pictures/0343_fw.png	92.57961916923523	
14	22.80513310432434	picture	0		95	12.0	/experiments/knapen_AOT/AOT_stimuli/pictures/0553_fw.png	92.62608027458191	0.844965934753418
14	23.59195613861084	response	0	j		12.0	/experiments/knapen_AOT/AOT_stimuli/pictures/0553_fw.png	93.41290330886841	
15	23.65009903907776	picture	0		94	13.0	/experiments/knapen_AOT/AOT_stimuli/pictures/1907_fw.png	93.47104620933533	0.82175612449646
15	24.41837215423584	response	0	k		13.0	/experiments/knapen_AOT/AOT_stimuli/pictures/1907_fw.png	94.23931932449341	
16	24.47185516357422	picture	0		113	14.0	/experiments/knapen_AOT/AOT_stimuli/pictures/0483_fw.png	94.29280233383179	0.9721858501434326
16	25.40867805480957	response	0	k		14.0	/experiments/knapen_AOT/AOT_stimuli/pictures/0483_fw.png	95.22962522506714	
17	25.44404101371765	picture	0		126	15.0	/experiments/knapen_AOT/AOT_stimuli/pictures/2020_fw.png	95.26498818397522	1.0764870643615723
17	26.483569145202637	response	0	k		15.0	/experiments/knapen_AOT/AOT_stimuli/pictures/2020_fw.png	96.3045163154602	
18	26.520528078079224	picture	0		143	16.0	/experiments/knapen_AOT/AOT_stimuli/pictures/0302_fw.png	96.34147524833679	1.221337080001831
18	27.700236082077026	response	0	k		16.0	/experiments/knapen_AOT/AOT_stimuli/pictures/0302_fw.png	97.5211832523346	
19	27.741865158081055	picture	0		90	17.0	/experiments/knapen_AOT/AOT_stimuli/pictures/1692_fw.png	97.56281232833862	0.7916610240936279
19	28.48364019393921	response	0	j		17.0	/experiments/knapen_AOT/AOT_stimuli/pictures/1692_fw.png	98.30458736419678	
20	28.533526182174683	picture	0		92	18.0	/experiments/knapen_AOT/AOT_stimuli/pictures/1321_fw.png	98.35447335243225	0.8165948390960693
20	29.29193615913391	response	0	k		18.0	/experiments/knapen_AOT/AOT_stimuli/pictures/1321_fw.png	99.11288332939148	
21	29.350121021270752	picture	0		115	19.0	/experiments/knapen_AOT/AOT_stimuli/pictures/0841_fw.png	99.17106819152832	0.9758901596069336
21	30.300312995910645	response	0	j		19.0	/experiments/knapen_AOT/AOT_stimuli/pictures/0841_fw.png	100.12126016616821	
22	30.326011180877686	picture	0		170	20.0	/experiments/knapen_AOT/AOT_stimuli/pictures/0138_fw.png	100.14695835113525	1.4374878406524658
22	31.73377799987793	response	0	k		20.0	/experiments/knapen_AOT/AOT_stimuli/pictures/0138_fw.png	101.5547251701355	
23	31.76349902153015	picture	0		108	21.0	/experiments/knapen_AOT/AOT_stimuli/pictures/2073_fw.png	101.58444619178772	0.9783961772918701
23	32.65864300727844	response	0	j		21.0	/experiments/knapen_AOT/AOT_stimuli/pictures/2073_fw.png	102.47959017753601	
24	32.74189519882202	picture	0		167	22.0	/experiments/knapen_AOT/AOT_stimuli/pictures/1576_fw.png	102.56284236907959	1.4416298866271973
24	34.12534999847412	response	0	j		22.0	/experiments/knapen_AOT/AOT_stimuli/pictures/1576_fw.png	103.94629716873169	
25	34.18352508544922	picture	0		334	23.0	/experiments/knapen_AOT/AOT_stimuli/pictures/1550_fw.png	104.00447225570679	2.8924639225006104
25	36.95881104469299	response	0	j		23.0	/experiments/knapen_AOT/AOT_stimuli/pictures/1550_fw.png	106.77975821495056	
26	37.07598900794983	picture	0		102	24.0	/experiments/knapen_AOT/AOT_stimuli/pictures/0886_fw.png	106.8969361782074	0.8992650508880615
26	37.917025089263916	response	0	k		24.0	/experiments/knapen_AOT/AOT_stimuli/pictures/0886_fw.png	107.73797225952148	
27	37.97525405883789	picture	0		97	25.0	/experiments/knapen_AOT/AOT_stimuli/pictures/1673_fw.png	107.79620122909546	0.850053071975708
27	38.77546715736389	response	0	j		25.0	/experiments/knapen_AOT/AOT_stimuli/pictures/1673_fw.png	108.59641432762146	
28	38.8253071308136	picture	0		94	26.0	/experiments/knapen_AOT/AOT_stimuli/pictures/0568_fw.png	108.64625430107117	0.8166458606719971
28	39.60045409202576	response	0	j		26.0	/experiments/knapen_AOT/AOT_stimuli/pictures/0568_fw.png	109.42140126228333	
29	39.641952991485596	picture	0		110	27.0	/experiments/knapen_AOT/AOT_stimuli/pictures/1236_fw.png	109.46290016174316	0.941702127456665
29	40.55047011375427	response	0	k		27.0	/experiments/knapen_AOT/AOT_stimuli/pictures/1236_fw.png	110.37141728401184	
30	40.58365511894226	picture	0		152	28.0	/experiments/knapen_AOT/AOT_stimuli/pictures/0694_fw.png	110.40460228919983	1.2916409969329834
30	41.83532404899597	response	0	j		28.0	/experiments/knapen_AOT/AOT_stimuli/pictures/0694_fw.png	111.65627121925354	
31	41.875296115875244	picture	0		103	29.0	/experiments/knapen_AOT/AOT_stimuli/pictures/0599_fw.png	111.69624328613281	0.9091150760650635
31	42.725476026535034	response	0	j		29.0	/experiments/knapen_AOT/AOT_stimuli/pictures/0599_fw.png	112.5464231967926	
32	42.78441119194031	picture	0		113	30.0	/experiments/knapen_AOT/AOT_stimuli/pictures/2000_fw.png	112.60535836219788	0.9792568683624268
32	43.71714520454407	response	0	j		30.0	/experiments/knapen_AOT/AOT_stimuli/pictures/2000_fw.png	113.53809237480164	
33	43.763668060302734	picture	0		179	31.0	/experiments/knapen_AOT/AOT_stimuli/pictures/0004_fw.png	113.5846152305603	1.520738124847412
33	45.25051307678223	response	0	k		31.0	/experiments/knapen_AOT/AOT_stimuli/pictures/0004_fw.png	115.0714602470398	
34	45.28440618515015	picture	0		110	32.0	/experiments/knapen_AOT/AOT_stimuli/pictures/0947_fw.png	115.10535335540771	0.9445178508758545
34	46.19211721420288	response	0	j		32.0	/experiments/knapen_AOT/AOT_stimuli/pictures/0947_fw.png	116.01306438446045	
35	46.228924036026	picture	0		98	33.0	/experiments/knapen_AOT/AOT_stimuli/pictures/1508_fw.png	116.04987120628357	0.8403060436248779
35	47.027106046676636	response	0	k		33.0	/experiments/knapen_AOT/AOT_stimuli/pictures/1508_fw.png	116.8480532169342	
36	47.06923007965088	picture	0		130	34.0	/experiments/knapen_AOT/AOT_stimuli/pictures/0155_fw.png	116.89017724990845	1.1145579814910889
36	48.14217710494995	response	0	j		34.0	/experiments/knapen_AOT/AOT_stimuli/pictures/0155_fw.png	117.96312427520752	
37	48.18378806114197	picture	0		149	35.0	/experiments/knapen_AOT/AOT_stimuli/pictures/0644_fw.png	118.00473523139954	1.2832720279693604
37	49.41124510765076	response	0	j		35.0	/experiments/knapen_AOT/AOT_stimuli/pictures/0644_fw.png	119.23219227790833	
38	49.46706008911133	picture	0		109	36.0	/experiments/knapen_AOT/AOT_stimuli/pictures/1719_fw.png	119.2880072593689	0.935539960861206
38	50.36720418930054	response	0	k		36.0	/experiments/knapen_AOT/AOT_stimuli/pictures/1719_fw.png	120.1881513595581	
39	50.402600049972534	picture	0		118	37.0	/experiments/knapen_AOT/AOT_stimuli/pictures/1922_fw.png	120.2235472202301	1.0069711208343506
39	51.37554407119751	response	0	j		37.0	/experiments/knapen_AOT/AOT_stimuli/pictures/1922_fw.png	121.19649124145508	
40	51.409571170806885	picture	0		123	38.0	/experiments/knapen_AOT/AOT_stimuli/pictures/0873_fw.png	121.23051834106445	1.0742309093475342
40	52.41874313354492	response	0	k		38.0	/experiments/knapen_AOT/AOT_stimuli/pictures/0873_fw.png	122.23969030380249	
41	52.48380208015442	picture	0		83	39.0	/experiments/knapen_AOT/AOT_stimuli/pictures/2070_fw.png	122.30474925041199	0.745258092880249
41	53.16721320152283	response	0	j		39.0	/experiments/knapen_AOT/AOT_stimuli/pictures/2070_fw.png	122.9881603717804	
42	53.22906017303467	picture	0		520	40.0	/experiments/knapen_AOT/AOT_stimuli/pictures/0120_fw.png	123.05000734329224	4.371510028839111
42	57.550760984420776	response	0	j		40.0	/experiments/knapen_AOT/AOT_stimuli/pictures/0120_fw.png	127.37170815467834	
43	57.60057020187378	picture	0		177	41.0	/experiments/knapen_AOT/AOT_stimuli/pictures/1947_fw.png	127.42151737213135	1.5173258781433105
43	59.06740713119507	response	0	k		41.0	/experiments/knapen_AOT/AOT_stimuli/pictures/1947_fw.png	128.88835430145264	
44	59.11789608001709	picture	0		125	42.0	/experiments/knapen_AOT/AOT_stimuli/pictures/1802_fw.png	128.93884325027466	1.0764589309692383
44	60.15069913864136	response	0	j		42.0	/experiments/knapen_AOT/AOT_stimuli/pictures/1802_fw.png	129.97164630889893	
45	60.19435501098633	picture	0		101	43.0	/experiments/knapen_AOT/AOT_stimuli/pictures/1844_fw.png	130.0153021812439	0.868084192276001
45	61.01891899108887	response	0	k		43.0	/experiments/knapen_AOT/AOT_stimuli/pictures/1844_fw.png	130.83986616134644	
46	61.06243920326233	picture	0		166	44.0	/experiments/knapen_AOT/AOT_stimuli/pictures/0639_fw.png	130.8833863735199	1.4234869480133057
46	62.427375078201294	response	0	j		44.0	/experiments/knapen_AOT/AOT_stimuli/pictures/0639_fw.png	132.24832224845886	
47	62.485926151275635	picture	0		114	45.0	/experiments/knapen_AOT/AOT_stimuli/pictures/2140_fw.png	132.3068733215332	0.9813439846038818
47	63.41911816596985	response	0	k		45.0	/experiments/knapen_AOT/AOT_stimuli/pictures/2140_fw.png	133.24006533622742	
48	63.46727013587952	picture	0		124	46.0	/experiments/knapen_AOT/AOT_stimuli/pictures/1914_fw.png	133.28821730613708	1.0833659172058105
48	64.49251508712769	response	0	k		46.0	/experiments/knapen_AOT/AOT_stimuli/pictures/1914_fw.png	134.31346225738525	
49	64.55063605308533	picture	0		119	47.0	/experiments/knapen_AOT/AOT_stimuli/pictures/0331_fw.png	134.3715832233429	1.0167241096496582
49	65.5347900390625	response	0	j		47.0	/experiments/knapen_AOT/AOT_stimuli/pictures/0331_fw.png	135.35573720932007	
50	65.56736016273499	picture	0		89	48.0	/experiments/knapen_AOT/AOT_stimuli/pictures/0084_fw.png	135.38830733299255	0.8006188869476318
50	66.33407306671143	response	0	k		48.0	/experiments/knapen_AOT/AOT_stimuli/pictures/0084_fw.png	136.155020236969	
51	66.36797904968262	picture	0		492	49.0	/experiments/knapen_AOT/AOT_stimuli/pictures/1503_fw.png	136.18892621994019	4.132706165313721
51	70.45915913581848	response	0	j		49.0	/experiments/knapen_AOT/AOT_stimuli/pictures/1503_fw.png	140.28010630607605	
52	70.50068521499634	picture	0		104	50.0	/experiments/knapen_AOT/AOT_stimuli/pictures/0350_fw.png	140.3216323852539	0.8881587982177734
52	71.3591091632843	response	0	j		50.0	/experiments/knapen_AOT/AOT_stimuli/pictures/0350_fw.png	141.18005633354187	
53	71.38884401321411	picture	0		90	51.0	/experiments/knapen_AOT/AOT_stimuli/pictures/1668_fw.png	141.20979118347168	0.7786960601806641
53	72.12590217590332	response	0	j		51.0	/experiments/knapen_AOT/AOT_stimuli/pictures/1668_fw.png	141.9468493461609	
54	72.16754007339478	picture	0		120	52.0	/experiments/knapen_AOT/AOT_stimuli/pictures/0008_fw.png	141.98848724365234	1.047785997390747
54	73.1600251197815	response	0	k		52.0	/experiments/knapen_AOT/AOT_stimuli/pictures/0008_fw.png	142.98097229003906	
55	73.21532607078552	picture	0		173	53.0	/experiments/knapen_AOT/AOT_stimuli/pictures/2037_fw.png	143.0362732410431	1.4860789775848389
55	74.65096402168274	response	0	k		53.0	/experiments/knapen_AOT/AOT_stimuli/pictures/2037_fw.png	144.4719111919403	
56	74.70140504837036	picture	0		183	54.0	/experiments/knapen_AOT/AOT_stimuli/pictures/0572_fw.png	144.52235221862793	1.555483102798462
56	76.21083617210388	response	0	j		54.0	/experiments/knapen_AOT/AOT_stimuli/pictures/0572_fw.png	146.03178334236145	
57	76.25688815116882	picture	0		125	55.0	/experiments/knapen_AOT/AOT_stimuli/pictures/0239_fw.png	146.0778353214264	1.0856359004974365
57	77.29268503189087	response	0	j		55.0	/experiments/knapen_AOT/AOT_stimuli/pictures/0239_fw.png	147.11363220214844	
58	77.34252405166626	picture	0		120	56.0	/experiments/knapen_AOT/AOT_stimuli/pictures/0385_fw.png	147.16347122192383	1.0499701499938965
58	78.33421516418457	response	0	j		56.0	/experiments/knapen_AOT/AOT_stimuli/pictures/0385_fw.png	148.15516233444214	
59	78.39249420166016	picture	0		150	57.0	/experiments/knapen_AOT/AOT_stimuli/pictures/2093_fw.png	148.21344137191772	1.3021039962768555
59	79.62746119499207	response	0	j		57.0	/experiments/knapen_AOT/AOT_stimuli/pictures/2093_fw.png	149.44840836524963	
60	79.69459819793701	picture	0		265	58.0	/experiments/knapen_AOT/AOT_stimuli/pictures/1826_fw.png	149.51554536819458	2.2395918369293213
60	81.89275217056274	response	0	k		58.0	/experiments/knapen_AOT/AOT_stimuli/pictures/1826_fw.png	151.7136993408203	
61	81.93419003486633	picture	0		207	59.0	/experiments/knapen_AOT/AOT_stimuli/pictures/1541_fw.png	151.7551372051239	1.767320156097412
61	83.65107321739197	response	0	j		59.0	/experiments/knapen_AOT/AOT_stimuli/pictures/1541_fw.png	153.47202038764954	
62	83.70151019096375	picture	0		87	60.0	/experiments/knapen_AOT/AOT_stimuli/pictures/0808_fw.png	153.5224573612213	0.7660210132598877
62	84.41157817840576	response	0	k		60.0	/experiments/knapen_AOT/AOT_stimuli/pictures/0808_fw.png	154.23252534866333	
63	84.46753120422363	picture	0		104	61.0	/experiments/knapen_AOT/AOT_stimuli/pictures/0300_fw.png	154.2884783744812	0.8936488628387451
63	85.32659816741943	response	0	j		61.0	/experiments/knapen_AOT/AOT_stimuli/pictures/0300_fw.png	155.147545337677	
64	85.36118006706238	picture	0		127	62.0	/experiments/knapen_AOT/AOT_stimuli/pictures/0957_fw.png	155.18212723731995	1.089698076248169
64	86.4025502204895	response	0	j		62.0	/experiments/knapen_AOT/AOT_stimuli/pictures/0957_fw.png	156.22349739074707	
65	86.45087814331055	picture	0		137	63.0	/experiments/knapen_AOT/AOT_stimuli/pictures/1819_fw.png	156.27182531356812	1.1917848587036133
65	87.58444309234619	response	0	k		63.0	/experiments/knapen_AOT/AOT_stimuli/pictures/1819_fw.png	157.40539026260376	
66	87.64266300201416	picture	0		97	64.0	/experiments/knapen_AOT/AOT_stimuli/pictures/0973_fw.png	157.46361017227173	0.858234167098999
66	88.43625521659851	response	0	j		64.0	/experiments/knapen_AOT/AOT_stimuli/pictures/0973_fw.png	158.25720238685608	
67	88.50089716911316	picture	0		101	65.0	/experiments/knapen_AOT/AOT_stimuli/pictures/2123_fw.png	158.32184433937073	0.8917269706726074
67	89.33437299728394	response	0	j		65.0	/experiments/knapen_AOT/AOT_stimuli/pictures/2123_fw.png	159.1553201675415	
68	89.39262413978577	picture	0		95	66.0	/experiments/knapen_AOT/AOT_stimuli/pictures/1512_fw.png	159.21357131004333	0.8249878883361816
68	90.17609310150146	response	0	j		66.0	/experiments/knapen_AOT/AOT_stimuli/pictures/1512_fw.png	159.99704027175903	
69	90.21761202812195	picture	0		105	67.0	/experiments/knapen_AOT/AOT_stimuli/pictures/2101_fw.png	160.03855919837952	0.893589973449707
69	91.0844202041626	response	0	k		67.0	/experiments/knapen_AOT/AOT_stimuli/pictures/2101_fw.png	160.90536737442017	
70	91.11120200157166	picture	0		121	68.0	/experiments/knapen_AOT/AOT_stimuli/pictures/0270_fw.png	160.93214917182922	1.0480971336364746
70	92.10943698883057	response	0	j		68.0	/experiments/knapen_AOT/AOT_stimuli/pictures/0270_fw.png	161.93038415908813	
71	92.15929913520813	picture	0		105	69.0	/experiments/knapen_AOT/AOT_stimuli/pictures/0495_fw.png	161.9802463054657	0.9250030517578125
71	93.01947402954102	response	0	k		69.0	/experiments/knapen_AOT/AOT_stimuli/pictures/0495_fw.png	162.84042119979858	
72	93.08430218696594	picture	0		111	70.0	/experiments/knapen_AOT/AOT_stimuli/pictures/1285_fw.png	162.9052493572235	0.9666748046875
72	93.99492812156677	response	0	k		70.0	/experiments/knapen_AOT/AOT_stimuli/pictures/1285_fw.png	163.81587529182434	
73	94.05097699165344	picture	0		136	71.0	/experiments/knapen_AOT/AOT_stimuli/pictures/0715_fw.png	163.871924161911	1.1714260578155518
73	95.17612314224243	response	0	k		71.0	/experiments/knapen_AOT/AOT_stimuli/pictures/0715_fw.png	164.9970703125	
74	95.222403049469	picture	0		103	72.0	/experiments/knapen_AOT/AOT_stimuli/pictures/0245_fw.png	165.04335021972656	0.8888521194458008
74	96.0768530368805	response	0	k		72.0	/experiments/knapen_AOT/AOT_stimuli/pictures/0245_fw.png	165.89780020713806	
75	96.1112551689148	picture	0		119	73.0	/experiments/knapen_AOT/AOT_stimuli/pictures/0463_fw.png	165.93220233917236	1.020792007446289
75	97.09298515319824	response	0	j		73.0	/experiments/knapen_AOT/AOT_stimuli/pictures/0463_fw.png	166.9139323234558	
76	97.13204717636108	picture	0		119	74.0	/experiments/knapen_AOT/AOT_stimuli/pictures/1995_fw.png	166.95299434661865	1.020939826965332
76	98.11841821670532	response	0	j		74.0	/experiments/knapen_AOT/AOT_stimuli/pictures/1995_fw.png	167.9393653869629	
77	98.15298700332642	picture	0		104	75.0	/experiments/knapen_AOT/AOT_stimuli/pictures/1326_fw.png	167.97393417358398	0.9166591167449951
77	99.0029501914978	response	0	j		75.0	/experiments/knapen_AOT/AOT_stimuli/pictures/1326_fw.png	168.82389736175537	
78	99.06964612007141	picture	0		112	76.0	/experiments/knapen_AOT/AOT_stimuli/pictures/1195_fw.png	168.89059329032898	0.9731059074401855
78	99.99345302581787	response	0	j		76.0	/experiments/knapen_AOT/AOT_stimuli/pictures/1195_fw.png	169.81440019607544	
79	100.0427520275116	picture	0		122	77.0	/experiments/knapen_AOT/AOT_stimuli/pictures/1554_fw.png	169.86369919776917	1.0499980449676514
79	101.05121421813965	response	0	j		77.0	/experiments/knapen_AOT/AOT_stimuli/pictures/1554_fw.png	170.87216138839722	
80	101.09275007247925	picture	0		141	78.0	/experiments/knapen_AOT/AOT_stimuli/pictures/0307_fw.png	170.91369724273682	1.2083380222320557
80	102.25955510139465	response	0	k		78.0	/experiments/knapen_AOT/AOT_stimuli/pictures/0307_fw.png	172.08050227165222	
81	102.3010880947113	picture	0		132	79.0	/experiments/knapen_AOT/AOT_stimuli/pictures/1034_fw.png	172.12203526496887	1.1417560577392578
81	103.39298915863037	response	0	j		79.0	/experiments/knapen_AOT/AOT_stimuli/pictures/1034_fw.png	173.21393632888794	
82	103.44284415245056	picture	0		121	80.0	/experiments/knapen_AOT/AOT_stimuli/pictures/0739_fw.png	173.26379132270813	1.043576955795288
82	104.4429202079773	response	0	j		80.0	/experiments/knapen_AOT/AOT_stimuli/pictures/0739_fw.png	174.26386737823486	
83	104.48642110824585	picture	0		152	81.0	/experiments/knapen_AOT/AOT_stimuli/pictures/0355_fw.png	174.30736827850342	1.298119068145752
83	105.74349403381348	response	0	k		81.0	/experiments/knapen_AOT/AOT_stimuli/pictures/0355_fw.png	175.56444120407104	
84	105.7845401763916	picture	0		183	82.0	/experiments/knapen_AOT/AOT_stimuli/pictures/0416_fw.png	175.60548734664917	1.5768108367919922
84	107.30132412910461	response	0	j		82.0	/experiments/knapen_AOT/AOT_stimuli/pictures/0416_fw.png	177.12227129936218	
85	107.3613510131836	picture	0		102	83.0	/experiments/knapen_AOT/AOT_stimuli/pictures/0497_fw.png	177.18229818344116	0.8959581851959229
85	108.2018711566925	response	0	j		83.0	/experiments/knapen_AOT/AOT_stimuli/pictures/0497_fw.png	178.02281832695007	
86	108.25730919837952	picture	0		91	84.0	/experiments/knapen_AOT/AOT_stimuli/pictures/0557_fw.png	178.07825636863708	0.8021810054779053
86	109.00313806533813	response	0	j		84.0	/experiments/knapen_AOT/AOT_stimuli/pictures/0557_fw.png	178.8240852355957	
87	109.05949020385742	picture	0		235	85.0	/experiments/knapen_AOT/AOT_stimuli/pictures/1311_fw.png	178.880437374115	1.9834380149841309
87	111.00296521186829	response	0	j		85.0	/experiments/knapen_AOT/AOT_stimuli/pictures/1311_fw.png	180.82391238212585	
88	111.04292821884155	picture	0		120	86.0	/experiments/knapen_AOT/AOT_stimuli/pictures/0665_fw.png	180.86387538909912	1.02677583694458
88	112.02810215950012	response	0	j		86.0	/experiments/knapen_AOT/AOT_stimuli/pictures/0665_fw.png	181.8490493297577	
89	112.06970405578613	picture	0		102	87.0	/experiments/knapen_AOT/AOT_stimuli/pictures/2109_fw.png	181.8906512260437	0.8898980617523193
89	112.91012716293335	response	0	k		87.0	/experiments/knapen_AOT/AOT_stimuli/pictures/2109_fw.png	182.73107433319092	
90	112.95960211753845	picture	0		122	88.0	/experiments/knapen_AOT/AOT_stimuli/pictures/1123_fw.png	182.78054928779602	1.0499770641326904
90	113.96803212165833	response	0	k		88.0	/experiments/knapen_AOT/AOT_stimuli/pictures/1123_fw.png	183.7889792919159	
91	114.00957918167114	picture	0		104	89.0	/experiments/knapen_AOT/AOT_stimuli/pictures/2045_fw.png	183.8305263519287	0.914362907409668
91	114.86860799789429	response	0	j		89.0	/experiments/knapen_AOT/AOT_stimuli/pictures/2045_fw.png	184.68955516815186	
92	114.92394208908081	picture	0		111	90.0	/experiments/knapen_AOT/AOT_stimuli/pictures/2162_fw.png	184.74488925933838	0.9523019790649414
92	115.83634305000305	response	0	j		90.0	/experiments/knapen_AOT/AOT_stimuli/pictures/2162_fw.png	185.65729022026062	
93	115.87624406814575	picture	0		96	91.0	/experiments/knapen_AOT/AOT_stimuli/pictures/1314_fw.png	185.69719123840332	0.8254759311676025
93	116.66807317733765	response	0	k		91.0	/experiments/knapen_AOT/AOT_stimuli/pictures/1314_fw.png	186.48902034759521	
94	116.70171999931335	picture	0		119	92.0	/experiments/knapen_AOT/AOT_stimuli/pictures/0417_fw.png	186.52266716957092	1.0246121883392334
94	117.68476009368896	response	0	j		92.0	/experiments/knapen_AOT/AOT_stimuli/pictures/0417_fw.png	187.50570726394653	
95	117.72633218765259	picture	0		111	93.0	/experiments/knapen_AOT/AOT_stimuli/pictures/1982_fw.png	187.54727935791016	0.958331823348999
95	118.64308714866638	response	0	j		93.0	/experiments/knapen_AOT/AOT_stimuli/pictures/1982_fw.png	188.46403431892395	
96	118.68466401100159	picture	0		125	94.0	/experiments/knapen_AOT/AOT_stimuli/pictures/0651_fw.png	188.50561118125916	1.0917301177978516
96	119.71815299987793	response	0	j		94.0	/experiments/knapen_AOT/AOT_stimuli/pictures/0651_fw.png	189.5391001701355	
97	119.77639412879944	picture	0		129	95.0	/experiments/knapen_AOT/AOT_stimuli/pictures/1032_fw.png	189.597341299057	1.0999810695648193
97	120.84312009811401	response	0	k		95.0	/experiments/knapen_AOT/AOT_stimuli/pictures/1032_fw.png	190.66406726837158	
98	120.87637519836426	picture	0		147	96.0	/experiments/knapen_AOT/AOT_stimuli/pictures/0847_fw.png	190.69732236862183	1.2582998275756836
98	122.09313821792603	response	0	k		96.0	/experiments/knapen_AOT/AOT_stimuli/pictures/0847_fw.png	191.9140853881836	
99	122.13467502593994	picture	0		117	97.0	/experiments/knapen_AOT/AOT_stimuli/pictures/0633_fw.png	191.9556221961975	1.0250489711761475
99	123.10158205032349	response	0	k		97.0	/experiments/knapen_AOT/AOT_stimuli/pictures/0633_fw.png	192.92252922058105	
100	123.15972399711609	picture	0		115	98.0	/experiments/knapen_AOT/AOT_stimuli/pictures/0365_fw.png	192.98067116737366	0.9934341907501221
100	124.10984706878662	response	0	k		98.0	/experiments/knapen_AOT/AOT_stimuli/pictures/0365_fw.png	193.9307942390442	
101	124.15315818786621	picture	0		178	99.0	/experiments/knapen_AOT/AOT_stimuli/pictures/2164_fw.png	193.97410535812378	1.5233240127563477
101	125.6200602054596	response	0	k		99.0	/experiments/knapen_AOT/AOT_stimuli/pictures/2164_fw.png	195.44100737571716	
102	125.67648220062256	picture	0		179	100.0	/experiments/knapen_AOT/AOT_stimuli/pictures/1722_fw.png	195.49742937088013	1.5251967906951904
102	127.16017508506775	response	0	k		100.0	/experiments/knapen_AOT/AOT_stimuli/pictures/1722_fw.png	196.98112225532532	
103	127.20167899131775	picture	0		137	101.0	/experiments/knapen_AOT/AOT_stimuli/pictures/0992_fw.png	197.02262616157532	1.1831071376800537
103	128.3349461555481	response	0	k		101.0	/experiments/knapen_AOT/AOT_stimuli/pictures/0992_fw.png	198.15589332580566	
104	128.3847861289978	picture	0		90	102.0	/experiments/knapen_AOT/AOT_stimuli/pictures/0429_fw.png	198.20573329925537	0.7752959728240967
104	129.12686705589294	response	0	j		102.0	/experiments/knapen_AOT/AOT_stimuli/pictures/0429_fw.png	198.9478142261505	
105	129.1600821018219	picture	0		117	103.0	/experiments/knapen_AOT/AOT_stimuli/pictures/2128_fw.png	198.98102927207947	1.0080139636993408
105	130.1267809867859	response	0	k		103.0	/experiments/knapen_AOT/AOT_stimuli/pictures/2128_fw.png	199.94772815704346	
106	130.16809606552124	picture	0		89	104.0	/experiments/knapen_AOT/AOT_stimuli/pictures/0045_fw.png	199.9890432357788	0.7837009429931641
106	130.901593208313	response	0	j		104.0	/experiments/knapen_AOT/AOT_stimuli/pictures/0045_fw.png	200.72254037857056	
107	130.9517970085144	picture	0		209	105.0	/experiments/knapen_AOT/AOT_stimuli/pictures/1556_fw.png	200.77274417877197	1.7708630561828613
107	132.68506813049316	response	0	k		105.0	/experiments/knapen_AOT/AOT_stimuli/pictures/1556_fw.png	202.50601530075073	
108	132.72266006469727	picture	0		94	106.0	/experiments/knapen_AOT/AOT_stimuli/pictures/0934_fw.png	202.54360723495483	0.8055751323699951
108	133.49368405342102	response	0	j		106.0	/experiments/knapen_AOT/AOT_stimuli/pictures/0934_fw.png	203.3146312236786	
109	133.52823519706726	picture	0		157	107.0	/experiments/knapen_AOT/AOT_stimuli/pictures/0608_fw.png	203.34918236732483	1.3400318622589111
109	134.8199601173401	response	0	j		107.0	/experiments/knapen_AOT/AOT_stimuli/pictures/0608_fw.png	204.64090728759766	
110	134.86826705932617	picture	0		111	108.0	/experiments/knapen_AOT/AOT_stimuli/pictures/0230_fw.png	204.68921422958374	0.9833559989929199
110	135.78532218933105	response	0	j		108.0	/experiments/knapen_AOT/AOT_stimuli/pictures/0230_fw.png	205.60626935958862	
111	135.8516230583191	picture	0		115	109.0	/experiments/knapen_AOT/AOT_stimuli/pictures/1352_fw.png	205.67257022857666	1.016890048980713
111	136.82863306999207	response	0	k		109.0	/experiments/knapen_AOT/AOT_stimuli/pictures/1352_fw.png	206.64958024024963	
112	136.8685131072998	picture	0		137	110.0	/experiments/knapen_AOT/AOT_stimuli/pictures/1586_fw.png	206.68946027755737	1.1666650772094727
112	137.99513721466064	response	0	k		110.0	/experiments/knapen_AOT/AOT_stimuli/pictures/1586_fw.png	207.8160843849182	
113	138.03517818450928	picture	0		91	111.0	/experiments/knapen_AOT/AOT_stimuli/pictures/0046_fw.png	207.85612535476685	0.7914450168609619
113	138.7853500843048	response	0	k		111.0	/experiments/knapen_AOT/AOT_stimuli/pictures/0046_fw.png	208.60629725456238	
114	138.82662320137024	picture	0		134	112.0	/experiments/knapen_AOT/AOT_stimuli/pictures/1125_fw.png	208.6475703716278	1.150000810623169
114	139.93505811691284	response	0	k		112.0	/experiments/knapen_AOT/AOT_stimuli/pictures/1125_fw.png	209.7560052871704	
115	139.9766240119934	picture	0		253	113.0	/experiments/knapen_AOT/AOT_stimuli/pictures/1637_fw.png	209.79757118225098	2.141831159591675
115	142.07694911956787	response	0	j		113.0	/experiments/knapen_AOT/AOT_stimuli/pictures/1637_fw.png	211.89789628982544	
116	142.11845517158508	picture	0		90	114.0	/experiments/knapen_AOT/AOT_stimuli/pictures/0769_fw.png	211.93940234184265	0.7832348346710205
116	142.8600790500641	response	0	k		114.0	/experiments/knapen_AOT/AOT_stimuli/pictures/0769_fw.png	212.68102622032166	
117	142.9016900062561	picture	0		109	115.0	/experiments/knapen_AOT/AOT_stimuli/pictures/1143_fw.png	212.72263717651367	0.9416451454162598
117	143.80175399780273	response	0	k		115.0	/experiments/knapen_AOT/AOT_stimuli/pictures/1143_fw.png	213.6227011680603	
118	143.84333515167236	picture	0		113	116.0	/experiments/knapen_AOT/AOT_stimuli/pictures/1478_fw.png	213.66428232192993	0.9766340255737305
118	144.77677416801453	response	0	j		116.0	/experiments/knapen_AOT/AOT_stimuli/pictures/1478_fw.png	214.5977213382721	
119	144.8199691772461	picture	0		106	117.0	/experiments/knapen_AOT/AOT_stimuli/pictures/1110_fw.png	214.64091634750366	0.9236698150634766
119	145.69347214698792	response	0	k		117.0	/experiments/knapen_AOT/AOT_stimuli/pictures/1110_fw.png	215.51441931724548	
120	145.74363899230957	picture	0		98	118.0	/experiments/knapen_AOT/AOT_stimuli/pictures/1756_fw.png	215.56458616256714	0.8496770858764648
120	146.5519151687622	response	0	k		118.0	/experiments/knapen_AOT/AOT_stimuli/pictures/1756_fw.png	216.37286233901978	
121	146.59331607818604	picture	0		95	119.0	/experiments/knapen_AOT/AOT_stimuli/pictures/1871_fw.png	216.4142632484436	0.8250341415405273
121	147.3769760131836	response	0	k		119.0	/experiments/knapen_AOT/AOT_stimuli/pictures/1871_fw.png	217.19792318344116	
122	147.41835021972656	picture	0		267	120.0	/experiments/knapen_AOT/AOT_stimuli/pictures/0421_fw.png	217.23929738998413	2.275059938430786
122	149.62856817245483	response	0	k		120.0	/experiments/knapen_AOT/AOT_stimuli/pictures/0421_fw.png	219.4495153427124	
123	149.69341015815735	picture	0		111	121.0	/experiments/knapen_AOT/AOT_stimuli/pictures/1464_fw.png	219.51435732841492	0.9583530426025391
123	150.60332798957825	response	0	j		121.0	/experiments/knapen_AOT/AOT_stimuli/pictures/1464_fw.png	220.42427515983582	
124	150.6517632007599	picture	0		114	122.0	/experiments/knapen_AOT/AOT_stimuli/pictures/0745_fw.png	220.47271037101746	0.9833018779754639
124	151.59350609779358	response	0	j		122.0	/experiments/knapen_AOT/AOT_stimuli/pictures/0745_fw.png	221.41445326805115	
125	151.63506507873535	picture	0		97	123.0	/experiments/knapen_AOT/AOT_stimuli/pictures/2118_fw.png	221.45601224899292	0.8585720062255859
125	152.4353802204132	response	0	j		123.0	/experiments/knapen_AOT/AOT_stimuli/pictures/2118_fw.png	222.25632739067078	
126	152.49363708496094	picture	0		116	124.0	/experiments/knapen_AOT/AOT_stimuli/pictures/2068_fw.png	222.3145842552185	1.016448974609375
126	153.45214009284973	response	0	j		124.0	/experiments/knapen_AOT/AOT_stimuli/pictures/2068_fw.png	223.2730872631073	
127	153.5100860595703	picture	0		177	125.0	/experiments/knapen_AOT/AOT_stimuli/pictures/0322_fw.png	223.33103322982788	1.51820707321167
127	154.97705602645874	response	0	k		125.0	/experiments/knapen_AOT/AOT_stimuli/pictures/0322_fw.png	224.7980031967163	
128	155.02829313278198	picture	0		81	126.0	/experiments/knapen_AOT/AOT_stimuli/pictures/1591_fw.png	224.84924030303955	0.706920862197876
128	155.69361209869385	response	0	j		126.0	/experiments/knapen_AOT/AOT_stimuli/pictures/1591_fw.png	225.51455926895142	
129	155.73521399497986	picture	0		98	127.0	/experiments/knapen_AOT/AOT_stimuli/pictures/1133_fw.png	225.55616116523743	0.8417460918426514
129	156.54360699653625	response	0	k		127.0	/experiments/knapen_AOT/AOT_stimuli/pictures/1133_fw.png	226.36455416679382	
130	156.5769600868225	picture	0		131	128.0	/experiments/knapen_AOT/AOT_stimuli/pictures/1615_fw.png	226.39790725708008	1.1331899166107178
130	157.660462141037	response	0	j		128.0	/experiments/knapen_AOT/AOT_stimuli/pictures/1615_fw.png	227.48140931129456	
131	157.71015000343323	picture	0		123	129.0	/experiments/knapen_AOT/AOT_stimuli/pictures/0987_fw.png	227.5310971736908	1.0583469867706299
131	158.7269492149353	response	0	j		129.0	/experiments/knapen_AOT/AOT_stimuli/pictures/0987_fw.png	228.54789638519287	
132	158.76849699020386	picture	0		105	130.0	/experiments/knapen_AOT/AOT_stimuli/pictures/1502_fw.png	228.58944416046143	0.9250650405883789
132	159.62856101989746	response	0	j		130.0	/experiments/knapen_AOT/AOT_stimuli/pictures/1502_fw.png	229.44950819015503	
133	159.69356203079224	picture	0		99	131.0	/experiments/knapen_AOT/AOT_stimuli/pictures/1509_fw.png	229.5145092010498	0.8417940139770508
133	160.51030111312866	response	0	j		131.0	/experiments/knapen_AOT/AOT_stimuli/pictures/1509_fw.png	230.33124828338623	
134	160.5353560447693	picture	0		111	132.0	/experiments/knapen_AOT/AOT_stimuli/pictures/0563_fw.png	230.35630321502686	0.9582090377807617
134	161.45216417312622	response	0	j		132.0	/experiments/knapen_AOT/AOT_stimuli/pictures/0563_fw.png	231.2731113433838	
135	161.49356508255005	picture	0		131	133.0	/experiments/knapen_AOT/AOT_stimuli/pictures/2141_fw.png	231.31451225280762	1.133392095565796
135	162.5772261619568	response	0	j		133.0	/experiments/knapen_AOT/AOT_stimuli/pictures/2141_fw.png	232.39817333221436	
136	162.62695717811584	picture	0		90	134.0	/experiments/knapen_AOT/AOT_stimuli/pictures/0016_fw.png	232.4479043483734	0.7916579246520996
136	163.36886715888977	response	0	k		134.0	/experiments/knapen_AOT/AOT_stimuli/pictures/0016_fw.png	233.18981432914734	
137	163.41861510276794	picture	0		107	135.0	/experiments/knapen_AOT/AOT_stimuli/pictures/1241_fw.png	233.2395622730255	0.9416921138763428
137	164.30212807655334	response	0	k		135.0	/experiments/knapen_AOT/AOT_stimuli/pictures/1241_fw.png	234.1230752468109	
138	164.3603072166443	picture	0		98	136.0	/experiments/knapen_AOT/AOT_stimuli/pictures/0941_fw.png	234.18125438690186	0.8915867805480957
138	165.16876411437988	response	0	k		136.0	/experiments/knapen_AOT/AOT_stimuli/pictures/0941_fw.png	234.98971128463745	
139	165.25189399719238	picture	0		110	137.0	/experiments/knapen_AOT/AOT_stimuli/pictures/1212_fw.png	235.07284116744995	0.9417140483856201
139	166.160649061203	response	0	j		137.0	/experiments/knapen_AOT/AOT_stimuli/pictures/1212_fw.png	235.98159623146057	
140	166.193608045578	picture	0		206	138.0	/experiments/knapen_AOT/AOT_stimuli/pictures/1740_fw.png	236.01455521583557	1.758392095565796
140	167.90223598480225	response	0	j		138.0	/experiments/knapen_AOT/AOT_stimuli/pictures/1740_fw.png	237.72318315505981	
141	167.9520001411438	picture	0		252	139.0	/experiments/knapen_AOT/AOT_stimuli/pictures/1361_fw.png	237.77294731140137	2.1666460037231445
141	170.03706908226013	response	0	k		139.0	/experiments/knapen_AOT/AOT_stimuli/pictures/1361_fw.png	239.8580162525177	
142	170.11864614486694	picture	0		269	140.0	/experiments/knapen_AOT/AOT_stimuli/pictures/1721_fw.png	239.9395933151245	2.2779159545898438
142	172.35222220420837	response	0	j		140.0	/experiments/knapen_AOT/AOT_stimuli/pictures/1721_fw.png	242.17316937446594	
143	172.3965620994568	picture	0		109	141.0	/experiments/knapen_AOT/AOT_stimuli/pictures/1971_fw.png	242.21750926971436	0.9554638862609863
143	173.2938711643219	response	0	j		141.0	/experiments/knapen_AOT/AOT_stimuli/pictures/1971_fw.png	243.11481833457947	
144	173.35202598571777	picture	0		116	142.0	/experiments/knapen_AOT/AOT_stimuli/pictures/1979_fw.png	243.17297315597534	1.0098981857299805
144	174.31049704551697	response	0	k		142.0	/experiments/knapen_AOT/AOT_stimuli/pictures/1979_fw.png	244.13144421577454	
145	174.36192417144775	picture	0		107	143.0	/experiments/knapen_AOT/AOT_stimuli/pictures/1902_fw.png	244.18287134170532	0.916640043258667
145	175.24397206306458	response	0	k		143.0	/experiments/knapen_AOT/AOT_stimuli/pictures/1902_fw.png	245.06491923332214	
146	175.27856421470642	picture	0		125	144.0	/experiments/knapen_AOT/AOT_stimuli/pictures/0711_fw.png	245.099511384964	1.0694618225097656
146	176.3105502128601	response	0	k		144.0	/experiments/knapen_AOT/AOT_stimuli/pictures/0711_fw.png	246.13149738311768	
147	176.3480260372162	picture	0		116	145.0	/experiments/knapen_AOT/AOT_stimuli/pictures/0409_fw.png	246.16897320747375	1.0040521621704102
147	177.30219507217407	response	0	j		145.0	/experiments/knapen_AOT/AOT_stimuli/pictures/0409_fw.png	247.12314224243164	
148	177.3520781993866	picture	0		110	146.0	/experiments/knapen_AOT/AOT_stimuli/pictures/1324_fw.png	247.17302536964417	0.9667148590087891
148	178.26056814193726	response	0	j		146.0	/experiments/knapen_AOT/AOT_stimuli/pictures/1324_fw.png	248.08151531219482	
149	178.31879305839539	picture	0		198	147.0	/experiments/knapen_AOT/AOT_stimuli/pictures/0985_fw.png	248.13974022865295	1.6916630268096924
149	179.96073818206787	response	0	j		147.0	/experiments/knapen_AOT/AOT_stimuli/pictures/0985_fw.png	249.78168535232544	
150	180.01045608520508	picture	0		121	148.0	/experiments/knapen_AOT/AOT_stimuli/pictures/1018_fw.png	249.83140325546265	1.039086103439331
150	181.00407099723816	response	0	k		148.0	/experiments/knapen_AOT/AOT_stimuli/pictures/1018_fw.png	250.82501816749573	
151	181.0495421886444	picture	0		142	149.0	/experiments/knapen_AOT/AOT_stimuli/pictures/0380_fw.png	250.87048935890198	1.229118824005127
151	182.22048807144165	response	0	k		149.0	/experiments/knapen_AOT/AOT_stimuli/pictures/0380_fw.png	252.04143524169922	
152	182.27866101264954	picture	0		106	150.0	/experiments/knapen_AOT/AOT_stimuli/pictures/1680_fw.png	252.0996081829071	0.9166979789733887
152	183.15235304832458	response	0	k		150.0	/experiments/knapen_AOT/AOT_stimuli/pictures/1680_fw.png	252.97330021858215	
153	183.19535899162292	picture	0		198	151.0	/experiments/knapen_AOT/AOT_stimuli/pictures/1366_fw.png	253.0163061618805	1.6818721294403076
153	184.8289361000061	response	0	k		151.0	/experiments/knapen_AOT/AOT_stimuli/pictures/1366_fw.png	254.64988327026367	
154	184.87723112106323	picture	0		193	152.0	/experiments/knapen_AOT/AOT_stimuli/pictures/1474_fw.png	254.6981782913208	1.6416370868682861
154	186.47739219665527	response	0	k		152.0	/experiments/knapen_AOT/AOT_stimuli/pictures/1474_fw.png	256.29833936691284	
155	186.51886820793152	picture	0		337	153.0	/experiments/knapen_AOT/AOT_stimuli/pictures/0082_fw.png	256.3398153781891	2.8583948612213135
155	189.3191041946411	response	0	j		153.0	/experiments/knapen_AOT/AOT_stimuli/pictures/0082_fw.png	259.1400513648987	
156	189.37726306915283	picture	0		103	154.0	/experiments/knapen_AOT/AOT_stimuli/pictures/2041_fw.png	259.1982102394104	0.8916521072387695
156	190.2206621170044	response	0	j		154.0	/experiments/knapen_AOT/AOT_stimuli/pictures/2041_fw.png	260.04160928726196	
157	190.2689151763916	picture	0		123	155.0	/experiments/knapen_AOT/AOT_stimuli/pictures/1235_fw.png	260.08986234664917	1.0586190223693848
157	191.2858760356903	response	0	j		155.0	/experiments/knapen_AOT/AOT_stimuli/pictures/1235_fw.png	261.1068232059479	
158	191.327534198761	picture	0		428	156.0	/experiments/knapen_AOT/AOT_stimuli/pictures/0537_fw.png	261.14848136901855	3.6164557933807373
158	194.88593006134033	response	0	j		156.0	/experiments/knapen_AOT/AOT_stimuli/pictures/0537_fw.png	264.7068772315979	
159	194.94398999214172	picture	0		123	157.0	/experiments/knapen_AOT/AOT_stimuli/pictures/0460_fw.png	264.7649371623993	1.058462142944336
159	195.9609251022339	response	0	k		157.0	/experiments/knapen_AOT/AOT_stimuli/pictures/0460_fw.png	265.78187227249146	
160	196.00245213508606	picture	0		366	158.0	/experiments/knapen_AOT/AOT_stimuli/pictures/2038_fw.png	265.8233993053436	3.0915839672088623
160	199.04414916038513	response	0	j		158.0	/experiments/knapen_AOT/AOT_stimuli/pictures/2038_fw.png	268.8650963306427	
161	199.09403610229492	picture	0		553	159.0	/experiments/knapen_AOT/AOT_stimuli/pictures/0545_fw.png	268.9149832725525	4.658427000045776
161	203.6943759918213	response	0	k		159.0	/experiments/knapen_AOT/AOT_stimuli/pictures/0545_fw.png	273.51532316207886	
162	203.7524631023407	picture	0		126	160.0	/experiments/knapen_AOT/AOT_stimuli/pictures/1399_fw.png	273.57341027259827	1.1000149250030518
162	204.7942340373993	response	0	k		160.0	/experiments/knapen_AOT/AOT_stimuli/pictures/1399_fw.png	274.61518120765686	
163	204.85247802734375	picture	0		96	161.0	/experiments/knapen_AOT/AOT_stimuli/pictures/0704_fw.png	274.6734251976013	0.8333680629730225
163	205.64424014091492	response	0	k		161.0	/experiments/knapen_AOT/AOT_stimuli/pictures/0704_fw.png	275.4651873111725	
164	205.68584609031677	picture	0		232	162.0	/experiments/knapen_AOT/AOT_stimuli/pictures/0767_fw.png	275.50679326057434	1.9678809642791748
164	207.60427498817444	response	0	j		162.0	/experiments/knapen_AOT/AOT_stimuli/pictures/0767_fw.png	277.425222158432	
165	207.65372705459595	picture	0		95	163.0	/experiments/knapen_AOT/AOT_stimuli/pictures/1090_fw.png	277.4746742248535	0.8334031105041504
165	208.42909002304077	response	0	j		163.0	/experiments/knapen_AOT/AOT_stimuli/pictures/1090_fw.png	278.25003719329834	
166	208.4871301651001	picture	0		97	164.0	/experiments/knapen_AOT/AOT_stimuli/pictures/1340_fw.png	278.30807733535767	0.8487238883972168
166	209.28610110282898	response	0	k		164.0	/experiments/knapen_AOT/AOT_stimuli/pictures/1340_fw.png	279.10704827308655	
167	209.33585405349731	picture	0		107	165.0	/experiments/knapen_AOT/AOT_stimuli/pictures/0451_fw.png	279.1568012237549	0.9250011444091797
167	210.21292901039124	response	0	j		165.0	/experiments/knapen_AOT/AOT_stimuli/pictures/0451_fw.png	280.0338761806488	
168	210.2608551979065	picture	0		97	166.0	/experiments/knapen_AOT/AOT_stimuli/pictures/0107_fw.png	280.08180236816406	0.8305099010467529
168	211.06095600128174	response	0	k		166.0	/experiments/knapen_AOT/AOT_stimuli/pictures/0107_fw.png	280.8819031715393	
169	211.09136509895325	picture	0		93	167.0	/experiments/knapen_AOT/AOT_stimuli/pictures/1528_fw.png	280.9123122692108	0.8112409114837646
169	211.86119318008423	response	0	j		167.0	/experiments/knapen_AOT/AOT_stimuli/pictures/1528_fw.png	281.6821403503418	
170	211.902606010437	picture	0		234	168.0	/experiments/knapen_AOT/AOT_stimuli/pictures/0145_fw.png	281.7235531806946	2.035881996154785
170	213.87769412994385	response	0	k		168.0	/experiments/knapen_AOT/AOT_stimuli/pictures/0145_fw.png	283.6986413002014	
171	213.9384880065918	picture	0		112	169.0	/experiments/knapen_AOT/AOT_stimuli/pictures/1045_fw.png	283.75943517684937	0.9724881649017334
171	214.86104917526245	response	0	j		169.0	/experiments/knapen_AOT/AOT_stimuli/pictures/1045_fw.png	284.68199634552	
172	214.91097617149353	picture	0		123	170.0	/experiments/knapen_AOT/AOT_stimuli/pictures/0944_fw.png	284.7319233417511	1.0554838180541992
172	215.92771220207214	response	0	k		170.0	/experiments/knapen_AOT/AOT_stimuli/pictures/0944_fw.png	285.7486593723297	
173	215.96645998954773	picture	0		97	171.0	/experiments/knapen_AOT/AOT_stimuli/pictures/0353_fw.png	285.7874071598053	0.8444762229919434
173	216.76940608024597	response	0	k		171.0	/experiments/knapen_AOT/AOT_stimuli/pictures/0353_fw.png	286.59035325050354	
174	216.81093621253967	picture	0		144	172.0	/experiments/knapen_AOT/AOT_stimuli/pictures/0135_fw.png	286.63188338279724	1.2457728385925293
174	218.0027370452881	response	0	k		172.0	/experiments/knapen_AOT/AOT_stimuli/pictures/0135_fw.png	287.82368421554565	
175	218.0567090511322	picture	0		108	173.0	/experiments/knapen_AOT/AOT_stimuli/pictures/0994_fw.png	287.87765622138977	0.9305300712585449
175	218.94448399543762	response	0	k		173.0	/experiments/knapen_AOT/AOT_stimuli/pictures/0994_fw.png	288.7654311656952	
176	218.98723912239075	picture	0		134	174.0	/experiments/knapen_AOT/AOT_stimuli/pictures/0876_fw.png	288.8081862926483	1.1666820049285889
176	220.09449005126953	response	0	k		174.0	/experiments/knapen_AOT/AOT_stimuli/pictures/0876_fw.png	289.9154372215271	
177	220.15392112731934	picture	0		109	175.0	/experiments/knapen_AOT/AOT_stimuli/pictures/1610_fw.png	289.9748682975769	0.9570810794830322
177	221.0527582168579	response	0	k		175.0	/experiments/knapen_AOT/AOT_stimuli/pictures/1610_fw.png	290.8737053871155	
178	221.11100220680237	picture	0		104	176.0	/experiments/knapen_AOT/AOT_stimuli/pictures/1042_fw.png	290.93194937705994	0.8970799446105957
178	221.969496011734	response	0	k		176.0	/experiments/knapen_AOT/AOT_stimuli/pictures/1042_fw.png	291.7904431819916	
179	222.00808215141296	picture	0		120	177.0	/experiments/knapen_AOT/AOT_stimuli/pictures/1349_fw.png	291.82902932167053	1.0529499053955078
179	223.00284910202026	response	0	k		177.0	/experiments/knapen_AOT/AOT_stimuli/pictures/1349_fw.png	292.82379627227783	
180	223.06103205680847	picture	0		107	178.0	/experiments/knapen_AOT/AOT_stimuli/pictures/1951_fw.png	292.88197922706604	0.9417271614074707
180	223.94462609291077	response	0	j		178.0	/experiments/knapen_AOT/AOT_stimuli/pictures/1951_fw.png	293.76557326316833	
181	224.00275921821594	picture	0		197	179.0	/experiments/knapen_AOT/AOT_stimuli/pictures/1919_fw.png	293.8237063884735	1.6666629314422607
181	225.6294560432434	response	0	k		179.0	/experiments/knapen_AOT/AOT_stimuli/pictures/1919_fw.png	295.450403213501	
182	225.6694221496582	picture	0		206	180.0	/experiments/knapen_AOT/AOT_stimuli/pictures/1997_fw.png	295.49036931991577	1.7691550254821777
182	227.37793517112732	response	0	k		180.0	/experiments/knapen_AOT/AOT_stimuli/pictures/1997_fw.png	297.1988823413849	
183	227.43857717514038	picture	0		125	181.0	/experiments/knapen_AOT/AOT_stimuli/pictures/0165_fw.png	297.25952434539795	1.090399980545044
183	228.46957111358643	response	0	j		181.0	/experiments/knapen_AOT/AOT_stimuli/pictures/0165_fw.png	298.290518283844	
184	228.52897715568542	picture	0		98	182.0	/experiments/knapen_AOT/AOT_stimuli/pictures/1977_fw.png	298.349924325943	0.8654818534851074
184	229.33622002601624	response	0	k		182.0	/experiments/knapen_AOT/AOT_stimuli/pictures/1977_fw.png	299.1571671962738	
185	229.39445900917053	picture	0		128	183.0	/experiments/knapen_AOT/AOT_stimuli/pictures/2067_fw.png	299.2154061794281	1.092954158782959
185	230.45289206504822	response	0	j		183.0	/experiments/knapen_AOT/AOT_stimuli/pictures/2067_fw.png	300.2738392353058	
186	230.4874131679535	picture	0		121	184.0	/experiments/knapen_AOT/AOT_stimuli/pictures/1495_fw.png	300.30836033821106	1.040437936782837
186	231.48626112937927	response	0	k		184.0	/experiments/knapen_AOT/AOT_stimuli/pictures/1495_fw.png	301.30720829963684	
187	231.52785110473633	picture	0		147	185.0	/experiments/knapen_AOT/AOT_stimuli/pictures/0444_fw.png	301.3487982749939	1.2666990756988525
187	232.74459218978882	response	0	k		185.0	/experiments/knapen_AOT/AOT_stimuli/pictures/0444_fw.png	302.5655393600464	
188	232.79455018043518	picture	0		176	186.0	/experiments/knapen_AOT/AOT_stimuli/pictures/1649_fw.png	302.61549735069275	1.512157917022705
188	234.25298619270325	response	0	k		186.0	/experiments/knapen_AOT/AOT_stimuli/pictures/1649_fw.png	304.0739333629608	
189	234.30670809745789	picture	0		254	187.0	/experiments/knapen_AOT/AOT_stimuli/pictures/2022_fw.png	304.12765526771545	2.146148920059204
189	236.40472221374512	response	0	k		187.0	/experiments/knapen_AOT/AOT_stimuli/pictures/2022_fw.png	306.2256693840027	
190	236.4528570175171	picture	0		498	188.0	/experiments/knapen_AOT/AOT_stimuli/pictures/1798_fw.png	306.27380418777466	4.183397054672241
190	240.59480905532837	response	0	k		188.0	/experiments/knapen_AOT/AOT_stimuli/pictures/1798_fw.png	310.41575622558594	
191	240.63625407218933	picture	0		86	189.0	/experiments/knapen_AOT/AOT_stimuli/pictures/1153_fw.png	310.4572012424469	0.7499921321868896
191	241.3448121547699	response	0	k		189.0	/experiments/knapen_AOT/AOT_stimuli/pictures/1153_fw.png	311.16575932502747	
192	241.38624620437622	picture	0		199	190.0	/experiments/knapen_AOT/AOT_stimuli/pictures/1596_fw.png	311.2071933746338	1.6916790008544922
192	243.02971720695496	response	0	k		190.0	/experiments/knapen_AOT/AOT_stimuli/pictures/1596_fw.png	312.8506643772125	
193	243.0779252052307	picture	0		96	191.0	/experiments/knapen_AOT/AOT_stimuli/pictures/1504_fw.png	312.8988723754883	0.8417057991027832
193	243.8698501586914	response	0	k		191.0	/experiments/knapen_AOT/AOT_stimuli/pictures/1504_fw.png	313.690797328949	
194	243.9196310043335	picture	0		89	192.0	/experiments/knapen_AOT/AOT_stimuli/pictures/1845_fw.png	313.74057817459106	0.7833101749420166
194	244.65308809280396	response	0	k		192.0	/experiments/knapen_AOT/AOT_stimuli/pictures/1845_fw.png	314.4740352630615	
195	244.7029411792755	picture	0		116	193.0	/experiments/knapen_AOT/AOT_stimuli/pictures/0330_fw.png	314.5238883495331	1.000032901763916
195	245.66140604019165	response	0	j		193.0	/experiments/knapen_AOT/AOT_stimuli/pictures/0330_fw.png	315.4823532104492	
196	245.70297408103943	picture	0		289	194.0	/experiments/knapen_AOT/AOT_stimuli/pictures/0148_fw.png	315.523921251297	2.4583740234375
196	248.10314011573792	response	0	j		194.0	/experiments/knapen_AOT/AOT_stimuli/pictures/0148_fw.png	317.9240872859955	
197	248.16134810447693	picture	0		88	195.0	/experiments/knapen_AOT/AOT_stimuli/pictures/0570_fw.png	317.9822952747345	0.7844750881195068
197	248.8864941596985	response	0	k		195.0	/experiments/knapen_AOT/AOT_stimuli/pictures/0570_fw.png	318.70744132995605	
198	248.94582319259644	picture	0		96	196.0	/experiments/knapen_AOT/AOT_stimuli/pictures/2035_fw.png	318.766770362854	0.8155949115753174
198	249.7365641593933	response	0	k		196.0	/experiments/knapen_AOT/AOT_stimuli/pictures/2035_fw.png	319.5575113296509	
199	249.76141810417175	picture	0		141	197.0	/experiments/knapen_AOT/AOT_stimuli/pictures/1000_fw.png	319.5823652744293	1.205327033996582
199	250.92817211151123	response	0	k		197.0	/experiments/knapen_AOT/AOT_stimuli/pictures/1000_fw.png	320.7491192817688	
200	250.96674513816833	picture	0		107	198.0	/experiments/knapen_AOT/AOT_stimuli/pictures/0908_fw.png	320.7876923084259	0.928041934967041
200	251.85315418243408	response	0	k		198.0	/experiments/knapen_AOT/AOT_stimuli/pictures/0908_fw.png	321.67410135269165	
201	251.89478707313538	picture	0		106	199.0	/experiments/knapen_AOT/AOT_stimuli/pictures/1115_fw.png	321.71573424339294	0.9332590103149414
201	252.7699110507965	response	0	j		199.0	/experiments/knapen_AOT/AOT_stimuli/pictures/1115_fw.png	322.5908582210541	
202	252.82804608345032	picture	0		97	200.0	/experiments/knapen_AOT/AOT_stimuli/pictures/1089_fw.png	322.6489932537079	0.8500049114227295
202	253.62153220176697	response	0	k		200.0	/experiments/knapen_AOT/AOT_stimuli/pictures/1089_fw.png	323.44247937202454	
203	253.67805099487305	picture	0		151	201.0	/experiments/knapen_AOT/AOT_stimuli/pictures/0975_fw.png	323.4989981651306	1.302584171295166
203	254.92821216583252	response	0	k		201.0	/experiments/knapen_AOT/AOT_stimuli/pictures/0975_fw.png	324.7491593360901	
204	254.9806351661682	picture	0		244	202.0	/experiments/knapen_AOT/AOT_stimuli/pictures/0600_fw.png	324.8015823364258	2.0641469955444336
204	257.0032980442047	response	0	j		202.0	/experiments/knapen_AOT/AOT_stimuli/pictures/0600_fw.png	326.8242452144623	
205	257.04478216171265	picture	0		138	203.0	/experiments/knapen_AOT/AOT_stimuli/pictures/0919_fw.png	326.8657293319702	1.2000110149383545
205	258.18666100502014	response	0	k		203.0	/experiments/knapen_AOT/AOT_stimuli/pictures/0919_fw.png	328.0076081752777	
206	258.244793176651	picture	0		313	204.0	/experiments/knapen_AOT/AOT_stimuli/pictures/0721_fw.png	328.06574034690857	2.6417038440704346
206	260.84496998786926	response	0	j		204.0	/experiments/knapen_AOT/AOT_stimuli/pictures/0721_fw.png	330.66591715812683	
207	260.88649702072144	picture	0		161	205.0	/experiments/knapen_AOT/AOT_stimuli/pictures/0804_fw.png	330.707444190979	1.3926570415496826
207	262.21351504325867	response	0	k		205.0	/experiments/knapen_AOT/AOT_stimuli/pictures/0804_fw.png	332.03446221351624	
208	262.2791540622711	picture	0		89	206.0	/experiments/knapen_AOT/AOT_stimuli/pictures/0381_fw.png	332.1001012325287	0.7740609645843506
208	263.0050530433655	response	0	j		206.0	/experiments/knapen_AOT/AOT_stimuli/pictures/0381_fw.png	332.82600021362305	
209	263.05321502685547	picture	0		126	207.0	/experiments/knapen_AOT/AOT_stimuli/pictures/1700_fw.png	332.87416219711304	1.1010911464691162
209	264.09502816200256	response	0	k		207.0	/experiments/knapen_AOT/AOT_stimuli/pictures/1700_fw.png	333.91597533226013	
210	264.1543061733246	picture	0		107	208.0	/experiments/knapen_AOT/AOT_stimuli/pictures/1085_fw.png	333.97525334358215	0.9238948822021484
210	265.03672218322754	response	0	k		208.0	/experiments/knapen_AOT/AOT_stimuli/pictures/1085_fw.png	334.8576693534851	
211	265.07820105552673	picture	0		92	209.0	/experiments/knapen_AOT/AOT_stimuli/pictures/0292_fw.png	334.8991482257843	0.7773449420928955
211	265.8368890285492	response	0	j		209.0	/experiments/knapen_AOT/AOT_stimuli/pictures/0292_fw.png	335.65783619880676	
212	265.85554599761963	picture	0		217	210.0	/experiments/knapen_AOT/AOT_stimuli/pictures/0318_fw.png	335.6764931678772	1.8560900688171387
212	267.6534650325775	response	0	j		210.0	/experiments/knapen_AOT/AOT_stimuli/pictures/0318_fw.png	337.4744122028351	
213	267.71163606643677	picture	0		92	211.0	/experiments/knapen_AOT/AOT_stimuli/pictures/0095_fw.png	337.53258323669434	0.810636043548584
213	268.47010803222656	response	0	k		211.0	/experiments/knapen_AOT/AOT_stimuli/pictures/0095_fw.png	338.29105520248413	
214	268.52227210998535	picture	0		110	212.0	/experiments/knapen_AOT/AOT_stimuli/pictures/0659_fw.png	338.3432192802429	0.9644830226898193
214	269.42172503471375	response	0	k		212.0	/experiments/knapen_AOT/AOT_stimuli/pictures/0659_fw.png	339.2426722049713	
215	269.48675513267517	picture	0		194	213.0	/experiments/knapen_AOT/AOT_stimuli/pictures/1932_fw.png	339.30770230293274	1.6332180500030518
215	271.0951910018921	response	0	k		213.0	/experiments/knapen_AOT/AOT_stimuli/pictures/1932_fw.png	340.91613817214966	
216	271.1199731826782	picture	0		92	214.0	/experiments/knapen_AOT/AOT_stimuli/pictures/2154_fw.png	340.9409203529358	0.798130989074707
216	271.8784921169281	response	0	k		214.0	/experiments/knapen_AOT/AOT_stimuli/pictures/2154_fw.png	341.69943928718567	
217	271.91810417175293	picture	0		108	215.0	/experiments/knapen_AOT/AOT_stimuli/pictures/0174_fw.png	341.7390513420105	0.9376928806304932
217	272.8050820827484	response	0	k		215.0	/experiments/knapen_AOT/AOT_stimuli/pictures/0174_fw.png	342.626029253006	
218	272.8557970523834	picture	0		132	216.0	/experiments/knapen_AOT/AOT_stimuli/pictures/0684_fw.png	342.676744222641	1.1476030349731445
218	273.94525718688965	response	0	j		216.0	/experiments/knapen_AOT/AOT_stimuli/pictures/0684_fw.png	343.7662043571472	
219	274.00340008735657	picture	0		145	217.0	/experiments/knapen_AOT/AOT_stimuli/pictures/1122_fw.png	343.82434725761414	1.2202839851379395
219	275.1968741416931	response	0	k		217.0	/experiments/knapen_AOT/AOT_stimuli/pictures/1122_fw.png	345.0178213119507	
220	275.2236840724945	picture	0		99	218.0	/experiments/knapen_AOT/AOT_stimuli/pictures/0341_fw.png	345.0446312427521	0.8472530841827393
220	276.030070066452	response	0	k		218.0	/experiments/knapen_AOT/AOT_stimuli/pictures/0341_fw.png	345.8510172367096	
221	276.07093715667725	picture	0		201	219.0	/experiments/knapen_AOT/AOT_stimuli/pictures/0581_fw.png	345.8918843269348	1.7158989906311035
221	277.7369511127472	response	0	k		219.0	/experiments/knapen_AOT/AOT_stimuli/pictures/0581_fw.png	347.55789828300476	
222	277.78683614730835	picture	0		112	220.0	/experiments/knapen_AOT/AOT_stimuli/pictures/1886_fw.png	347.6077833175659	0.983245849609375
222	278.7119081020355	response	0	k		220.0	/experiments/knapen_AOT/AOT_stimuli/pictures/1886_fw.png	348.5328552722931	
223	278.7700819969177	picture	0		110	221.0	/experiments/knapen_AOT/AOT_stimuli/pictures/1298_fw.png	348.5910291671753	0.9675722122192383
223	279.67862606048584	response	0	k		221.0	/experiments/knapen_AOT/AOT_stimuli/pictures/1298_fw.png	349.4995732307434	
224	279.73765420913696	picture	0		92	222.0	/experiments/knapen_AOT/AOT_stimuli/pictures/0109_fw.png	349.55860137939453	0.7917418479919434
224	280.4952881336212	response	0	k		222.0	/experiments/knapen_AOT/AOT_stimuli/pictures/0109_fw.png	350.3162353038788	
225	280.5293960571289	picture	0		97	223.0	/experiments/knapen_AOT/AOT_stimuli/pictures/1307_fw.png	350.3503432273865	0.8406939506530762
225	281.3286499977112	response	0	k		223.0	/experiments/knapen_AOT/AOT_stimuli/pictures/1307_fw.png	351.14959716796875	
226	281.370090007782	picture	0		98	224.0	/experiments/knapen_AOT/AOT_stimuli/pictures/0836_fw.png	351.19103717803955	0.8500289916992188
226	282.1786332130432	response	0	k		224.0	/experiments/knapen_AOT/AOT_stimuli/pictures/0836_fw.png	351.9995803833008	
227	282.2201189994812	picture	0		92	225.0	/experiments/knapen_AOT/AOT_stimuli/pictures/0099_fw.png	352.04106616973877	0.8022580146789551
227	282.9787871837616	response	0	k		225.0	/experiments/knapen_AOT/AOT_stimuli/pictures/0099_fw.png	352.79973435401917	
228	283.02237701416016	picture	0		104	226.0	/experiments/knapen_AOT/AOT_stimuli/pictures/0577_fw.png	352.8433241844177	0.906121015548706
228	283.8786962032318	response	0	k		226.0	/experiments/knapen_AOT/AOT_stimuli/pictures/0577_fw.png	353.6996433734894	
229	283.92849802970886	picture	0		97	227.0	/experiments/knapen_AOT/AOT_stimuli/pictures/0393_fw.png	353.74944519996643	0.8583941459655762
229	284.7286992073059	response	0	j		227.0	/experiments/knapen_AOT/AOT_stimuli/pictures/0393_fw.png	354.5496463775635	
230	284.78689217567444	picture	0		185	228.0	/experiments/knapen_AOT/AOT_stimuli/pictures/1213_fw.png	354.607839345932	1.5749518871307373
230	286.3204720020294	response	0	j		228.0	/experiments/knapen_AOT/AOT_stimuli/pictures/1213_fw.png	356.141419172287	
231	286.3618440628052	picture	0		86	229.0	/experiments/knapen_AOT/AOT_stimuli/pictures/1485_fw.png	356.18279123306274	0.8834371566772461
231	287.0704040527344	response	0	k		229.0	/experiments/knapen_AOT/AOT_stimuli/pictures/1485_fw.png	356.89135122299194	
232	287.2452812194824	picture	0		95	230.0	/experiments/knapen_AOT/AOT_stimuli/pictures/0793_fw.png	357.06622838974	0.8332557678222656
232	288.02203822135925	response	0	k		230.0	/experiments/knapen_AOT/AOT_stimuli/pictures/0793_fw.png	357.8429853916168	
233	288.0785369873047	picture	0		94	231.0	/experiments/knapen_AOT/AOT_stimuli/pictures/1079_fw.png	357.89948415756226	0.8417370319366455
233	288.8705060482025	response	0	k		231.0	/experiments/knapen_AOT/AOT_stimuli/pictures/1079_fw.png	358.6914532184601	
234	288.92027401924133	picture	0		100	232.0	/experiments/knapen_AOT/AOT_stimuli/pictures/0936_fw.png	358.7412211894989	0.8868460655212402
234	289.7454671859741	response	0	k		232.0	/experiments/knapen_AOT/AOT_stimuli/pictures/0936_fw.png	359.5664143562317	
235	289.8071200847626	picture	0		116	233.0	/experiments/knapen_AOT/AOT_stimuli/pictures/2124_fw.png	359.62806725502014	0.9881560802459717
235	290.76207304000854	response	0	k		233.0	/experiments/knapen_AOT/AOT_stimuli/pictures/2124_fw.png	360.5830202102661	
236	290.79527616500854	picture	0		108	234.0	/experiments/knapen_AOT/AOT_stimuli/pictures/0898_fw.png	360.6162233352661	0.9166638851165771
236	291.6871221065521	response	0	j		234.0	/experiments/knapen_AOT/AOT_stimuli/pictures/0898_fw.png	361.5080692768097	
237	291.7119400501251	picture	0		109	235.0	/experiments/knapen_AOT/AOT_stimuli/pictures/0271_fw.png	361.5328872203827	0.9563300609588623
237	292.60536313056946	response	0	k		235.0	/experiments/knapen_AOT/AOT_stimuli/pictures/0271_fw.png	362.426310300827	
238	292.668270111084	picture	0		103	236.0	/experiments/knapen_AOT/AOT_stimuli/pictures/0269_fw.png	362.48921728134155	0.9103488922119141
238	293.5205600261688	response	0	k		236.0	/experiments/knapen_AOT/AOT_stimuli/pictures/0269_fw.png	363.3415071964264	
239	293.5786190032959	picture	0		177	237.0	/experiments/knapen_AOT/AOT_stimuli/pictures/1487_fw.png	363.39956617355347	1.5083210468292236
239	295.04542112350464	response	0	k		237.0	/experiments/knapen_AOT/AOT_stimuli/pictures/1487_fw.png	364.8663682937622	
240	295.0869400501251	picture	0		100	238.0	/experiments/knapen_AOT/AOT_stimuli/pictures/0851_fw.png	364.9078872203827	0.8591320514678955
240	295.9121479988098	response	0	k		238.0	/experiments/knapen_AOT/AOT_stimuli/pictures/0851_fw.png	365.7330951690674	
241	295.946072101593	picture	0		84	239.0	/experiments/knapen_AOT/AOT_stimuli/pictures/0078_fw.png	365.7670192718506	0.7325689792633057
241	296.63713216781616	response	0	k		239.0	/experiments/knapen_AOT/AOT_stimuli/pictures/0078_fw.png	366.45807933807373	
242	296.6786410808563	picture	0		90	240.0	/experiments/knapen_AOT/AOT_stimuli/pictures/0043_fw.png	366.4995882511139	0.8000791072845459
242	297.4136960506439	response	0	k		240.0	/experiments/knapen_AOT/AOT_stimuli/pictures/0043_fw.png	367.2346432209015	
243	297.47872018814087	picture	0		131	241.0	/experiments/knapen_AOT/AOT_stimuli/pictures/2039_fw.png	367.29966735839844	1.1500139236450195
243	298.56219005584717	response	0	k		241.0	/experiments/knapen_AOT/AOT_stimuli/pictures/2039_fw.png	368.38313722610474	
244	298.6287341117859	picture	0		110	242.0	/experiments/knapen_AOT/AOT_stimuli/pictures/0555_fw.png	368.44968128204346	0.9666290283203125
244	299.53716707229614	response	0	k		242.0	/experiments/knapen_AOT/AOT_stimuli/pictures/0555_fw.png	369.3581142425537	
245	299.5953631401062	picture	0		162	243.0	/experiments/knapen_AOT/AOT_stimuli/pictures/1962_fw.png	369.41631031036377	1.383316993713379
245	300.9372022151947	response	0	k		243.0	/experiments/knapen_AOT/AOT_stimuli/pictures/1962_fw.png	370.75814938545227	
246	300.9786801338196	picture	0		92	244.0	/experiments/knapen_AOT/AOT_stimuli/pictures/1440_fw.png	370.79962730407715	0.80010986328125
246	301.73732709884644	response	0	k		244.0	/experiments/knapen_AOT/AOT_stimuli/pictures/1440_fw.png	371.558274269104	
247	301.77878999710083	picture	0		200	245.0	/experiments/knapen_AOT/AOT_stimuli/pictures/0220_fw.png	371.5997371673584	1.699963092803955
247	303.43048214912415	response	0	k		245.0	/experiments/knapen_AOT/AOT_stimuli/pictures/0220_fw.png	373.2514293193817	
248	303.4787530899048	picture	0		261	246.0	/experiments/knapen_AOT/AOT_stimuli/pictures/1525_fw.png	373.29970026016235	2.2000479698181152
248	305.64567708969116	response	0	j		246.0	/experiments/knapen_AOT/AOT_stimuli/pictures/1525_fw.png	375.46662425994873	
249	305.6788010597229	picture	0		89	247.0	/experiments/knapen_AOT/AOT_stimuli/pictures/1021_fw.png	375.49974822998047	0.7749841213226318
249	306.40554904937744	response	0	j		247.0	/experiments/knapen_AOT/AOT_stimuli/pictures/1021_fw.png	376.226496219635	
250	306.45378518104553	picture	0		239	248.0	/experiments/knapen_AOT/AOT_stimuli/pictures/0420_fw.png	376.2747323513031	2.033341884613037
250	308.4306130409241	response	0	k		248.0	/experiments/knapen_AOT/AOT_stimuli/pictures/0420_fw.png	378.25156021118164	
251	308.48712706565857	picture	0		117	249.0	/experiments/knapen_AOT/AOT_stimuli/pictures/0658_fw.png	378.30807423591614	1.0167200565338135
251	309.4539520740509	response	0	k		249.0	/experiments/knapen_AOT/AOT_stimuli/pictures/0658_fw.png	379.2748992443085	
252	309.5038471221924	picture	0		109	250.0	/experiments/knapen_AOT/AOT_stimuli/pictures/0856_fw.png	379.32479429244995	0.9284749031066895
252	310.39727902412415	response	0	k		250.0	/experiments/knapen_AOT/AOT_stimuli/pictures/0856_fw.png	380.2182261943817	
253	310.4323220252991	picture	0		154	251.0	/experiments/knapen_AOT/AOT_stimuli/pictures/0494_fw.png	380.25326919555664	1.3132421970367432
253	311.7039911746979	response	0	j		251.0	/experiments/knapen_AOT/AOT_stimuli/pictures/0494_fw.png	381.52493834495544	
254	311.7455642223358	picture	0		116	252.0	/experiments/knapen_AOT/AOT_stimuli/pictures/1986_fw.png	381.5665113925934	0.9923198223114014
254	312.70406007766724	response	0	j		252.0	/experiments/knapen_AOT/AOT_stimuli/pictures/1986_fw.png	382.5250072479248	
255	312.7378840446472	picture	0		88	253.0	/experiments/knapen_AOT/AOT_stimuli/pictures/0041_fw.png	382.5588312149048	0.7777669429779053
255	313.4624102115631	response	0	k		253.0	/experiments/knapen_AOT/AOT_stimuli/pictures/0041_fw.png	383.2833573818207	
256	313.5156509876251	picture	0		143	254.0	/experiments/knapen_AOT/AOT_stimuli/pictures/0259_fw.png	383.3365981578827	1.2382280826568604
256	314.6957471370697	response	0	j		254.0	/experiments/knapen_AOT/AOT_stimuli/pictures/0259_fw.png	384.51669430732727	
257	314.753879070282	picture	0		131	255.0	/experiments/knapen_AOT/AOT_stimuli/pictures/0635_fw.png	384.57482624053955	1.125006914138794
257	315.8307590484619	response	0	k		255.0	/experiments/knapen_AOT/AOT_stimuli/pictures/0635_fw.png	385.6517062187195	
258	315.8788859844208	picture	0		95	256.0	/experiments/knapen_AOT/AOT_stimuli/pictures/1717_fw.png	385.69983315467834	0.8250291347503662
258	316.66250014305115	response	0	k		256.0	/experiments/knapen_AOT/AOT_stimuli/pictures/1717_fw.png	386.4834473133087	
259	316.70391511917114	picture	0		757	257.0	/experiments/knapen_AOT/AOT_stimuli/pictures/0456_fw.png	386.5248622894287	6.358473062515259
259	323.0041170120239	response	0	k		257.0	/experiments/knapen_AOT/AOT_stimuli/pictures/0456_fw.png	392.8250641822815	
260	323.0623881816864	picture	0		87	258.0	/experiments/knapen_AOT/AOT_stimuli/pictures/0342_fw.png	392.88333535194397	0.7666199207305908
260	323.77990102767944	response	0	j		258.0	/experiments/knapen_AOT/AOT_stimuli/pictures/0342_fw.png	393.600848197937	
261	323.829008102417	picture	0		133	259.0	/experiments/knapen_AOT/AOT_stimuli/pictures/1737_fw.png	393.64995527267456	1.1500089168548584
261	324.9291961193085	response	0	k		259.0	/experiments/knapen_AOT/AOT_stimuli/pictures/1737_fw.png	394.75014328956604	
262	324.97901701927185	picture	0		116	260.0	/experiments/knapen_AOT/AOT_stimuli/pictures/0604_fw.png	394.7999641895294	1.0000011920928955
262	325.9375422000885	response	0	j		260.0	/experiments/knapen_AOT/AOT_stimuli/pictures/0604_fw.png	395.75848937034607	
263	325.97901821136475	picture	0		110	261.0	/experiments/knapen_AOT/AOT_stimuli/pictures/1978_fw.png	395.7999653816223	0.9464428424835205
263	326.88752698898315	response	0	k		261.0	/experiments/knapen_AOT/AOT_stimuli/pictures/1978_fw.png	396.7084741592407	
264	326.92546105384827	picture	0		274	262.0	/experiments/knapen_AOT/AOT_stimuli/pictures/1999_fw.png	396.74640822410583	2.3125290870666504
264	329.1965551376343	response	0	j		262.0	/experiments/knapen_AOT/AOT_stimuli/pictures/1999_fw.png	399.01750230789185	
265	329.2379901409149	picture	0		115	263.0	/experiments/knapen_AOT/AOT_stimuli/pictures/0516_fw.png	399.0589373111725	0.9861540794372559
265	330.1875522136688	response	0	k		263.0	/experiments/knapen_AOT/AOT_stimuli/pictures/0516_fw.png	400.0084993839264	
266	330.2241442203522	picture	0		111	264.0	/experiments/knapen_AOT/AOT_stimuli/pictures/1382_fw.png	400.04509139060974	0.9513897895812988
266	331.13760805130005	response	0	k		264.0	/experiments/knapen_AOT/AOT_stimuli/pictures/1382_fw.png	400.9585552215576	
267	331.1755340099335	picture	0		553	265.0	/experiments/knapen_AOT/AOT_stimuli/pictures/2024_fw.png	400.99648118019104	4.620316982269287
267	335.7710440158844	response	0	k		265.0	/experiments/knapen_AOT/AOT_stimuli/pictures/2024_fw.png	405.59199118614197	
268	335.79585099220276	picture	0		122	266.0	/experiments/knapen_AOT/AOT_stimuli/pictures/1200_fw.png	405.6167981624603	1.0499629974365234
268	336.7975900173187	response	0	j		266.0	/experiments/knapen_AOT/AOT_stimuli/pictures/1200_fw.png	406.6185371875763	
269	336.8458139896393	picture	0		103	267.0	/experiments/knapen_AOT/AOT_stimuli/pictures/2178_fw.png	406.66676115989685	0.9083640575408936
269	337.69659900665283	response	0	k		267.0	/experiments/knapen_AOT/AOT_stimuli/pictures/2178_fw.png	407.5175461769104	
270	337.7541780471802	picture	0		99	268.0	/experiments/knapen_AOT/AOT_stimuli/pictures/0894_fw.png	407.57512521743774	0.8667869567871094
270	338.57157015800476	response	0	k		268.0	/experiments/knapen_AOT/AOT_stimuli/pictures/0894_fw.png	408.39251732826233	
271	338.6209650039673	picture	0		99	269.0	/experiments/knapen_AOT/AOT_stimuli/pictures/0984_fw.png	408.44191217422485	0.8601720333099365
271	339.43097615242004	response	0	k		269.0	/experiments/knapen_AOT/AOT_stimuli/pictures/0984_fw.png	409.2519233226776	
272	339.4811370372772	picture	0		437	270.0	/experiments/knapen_AOT/AOT_stimuli/pictures/0560_fw.png	409.3020842075348	3.681432008743286
272	343.11339807510376	response	0	k		270.0	/experiments/knapen_AOT/AOT_stimuli/pictures/0560_fw.png	412.9343452453613	
273	343.1625690460205	picture	0		123	271.0	/experiments/knapen_AOT/AOT_stimuli/pictures/0488_fw.png	412.9835162162781	1.0750150680541992
273	344.1795461177826	response	0	j		271.0	/experiments/knapen_AOT/AOT_stimuli/pictures/0488_fw.png	414.00049328804016	
274	344.2375841140747	picture	0		97	272.0	/experiments/knapen_AOT/AOT_stimuli/pictures/0669_fw.png	414.0585312843323	0.8616669178009033
274	345.03786301612854	response	0	k		272.0	/experiments/knapen_AOT/AOT_stimuli/pictures/0669_fw.png	414.8588101863861	
275	345.0992510318756	picture	0		152	273.0	/experiments/knapen_AOT/AOT_stimuli/pictures/1404_fw.png	414.9201982021332	1.2967150211334229
275	346.35456919670105	response	0	k		273.0	/experiments/knapen_AOT/AOT_stimuli/pictures/1404_fw.png	416.1755163669586	
276	346.39596605300903	picture	0		211	274.0	/experiments/knapen_AOT/AOT_stimuli/pictures/1274_fw.png	416.2169132232666	1.800529956817627
276	348.1462140083313	response	0	j		274.0	/experiments/knapen_AOT/AOT_stimuli/pictures/1274_fw.png	417.96716117858887	
277	348.19649600982666	picture	0		95	275.0	/experiments/knapen_AOT/AOT_stimuli/pictures/0033_fw.png	418.01744318008423	0.8411760330200195
277	348.9795711040497	response	0	k		275.0	/experiments/knapen_AOT/AOT_stimuli/pictures/0033_fw.png	418.80051827430725	
278	349.0376720428467	picture	0		107	276.0	/experiments/knapen_AOT/AOT_stimuli/pictures/2032_fw.png	418.85861921310425	0.9435379505157471
278	349.9211950302124	response	0	k		276.0	/experiments/knapen_AOT/AOT_stimuli/pictures/2032_fw.png	419.74214220046997	
279	349.9812099933624	picture	0		109	277.0	/experiments/knapen_AOT/AOT_stimuli/pictures/0229_fw.png	419.80215716362	0.9314591884613037
279	350.8796741962433	response	0	k		277.0	/experiments/knapen_AOT/AOT_stimuli/pictures/0229_fw.png	420.70062136650085	
280	350.91266918182373	picture	0		120	278.0	/experiments/knapen_AOT/AOT_stimuli/pictures/1734_fw.png	420.7336163520813	1.0333538055419922
280	351.90504717826843	response	0	j		278.0	/experiments/knapen_AOT/AOT_stimuli/pictures/1734_fw.png	421.725994348526	
281	351.9460229873657	picture	0		93	279.0	/experiments/knapen_AOT/AOT_stimuli/pictures/1839_fw.png	421.7669701576233	0.8269171714782715
281	352.71288108825684	response	0	k		279.0	/experiments/knapen_AOT/AOT_stimuli/pictures/1839_fw.png	422.5338282585144	
282	352.772940158844	picture	0		92	280.0	/experiments/knapen_AOT/AOT_stimuli/pictures/1003_fw.png	422.59388732910156	0.8147919178009033
282	353.5300040245056	response	0	k		280.0	/experiments/knapen_AOT/AOT_stimuli/pictures/1003_fw.png	423.3509511947632	
283	353.5877320766449	picture	0		135	281.0	/experiments/knapen_AOT/AOT_stimuli/pictures/1601_fw.png	423.40867924690247	1.166727066040039
283	354.7046880722046	response	0	k		281.0	/experiments/knapen_AOT/AOT_stimuli/pictures/1601_fw.png	424.52563524246216	
284	354.75445914268494	picture	0		127	282.0	/experiments/knapen_AOT/AOT_stimuli/pictures/0703_fw.png	424.5754063129425	1.083324909210205
284	355.8047080039978	response	0	k		282.0	/experiments/knapen_AOT/AOT_stimuli/pictures/0703_fw.png	425.62565517425537	
285	355.83778405189514	picture	0		91	283.0	/experiments/knapen_AOT/AOT_stimuli/pictures/1223_fw.png	425.6587312221527	0.7918000221252441
285	356.58791399002075	response	0	k		283.0	/experiments/knapen_AOT/AOT_stimuli/pictures/1223_fw.png	426.4088611602783	
286	356.6295840740204	picture	0		514	284.0	/experiments/knapen_AOT/AOT_stimuli/pictures/1166_fw.png	426.45053124427795	4.325015068054199
286	360.90518522262573	response	0	j		284.0	/experiments/knapen_AOT/AOT_stimuli/pictures/1166_fw.png	430.7261323928833	
287	360.9545991420746	picture	0		111	285.0	/experiments/knapen_AOT/AOT_stimuli/pictures/1661_fw.png	430.77554631233215	0.9582409858703613
287	361.8713550567627	response	0	j		285.0	/experiments/knapen_AOT/AOT_stimuli/pictures/1661_fw.png	431.69230222702026	
288	361.91284012794495	picture	0		110	286.0	/experiments/knapen_AOT/AOT_stimuli/pictures/2092_fw.png	431.7337872982025	1.033750057220459
288	362.8146290779114	response	0	k		286.0	/experiments/knapen_AOT/AOT_stimuli/pictures/2092_fw.png	432.63557624816895	
289	362.9465901851654	picture	0		139	287.0	/experiments/knapen_AOT/AOT_stimuli/pictures/2081_fw.png	432.767537355423	1.216291904449463
289	364.09648513793945	response	0	k		287.0	/experiments/knapen_AOT/AOT_stimuli/pictures/2081_fw.png	433.917432308197	
290	364.16288208961487	picture	0		120	288.0	/experiments/knapen_AOT/AOT_stimuli/pictures/1484_fw.png	433.98382925987244	1.0338079929351807
290	365.1550760269165	response	0	k		288.0	/experiments/knapen_AOT/AOT_stimuli/pictures/1484_fw.png	434.9760231971741	
291	365.19669008255005	picture	0		120	289.0	/experiments/knapen_AOT/AOT_stimuli/pictures/1107_fw.png	435.0176372528076	1.0328729152679443
291	366.18803215026855	response	0	j		289.0	/experiments/knapen_AOT/AOT_stimuli/pictures/1107_fw.png	436.0089793205261	
292	366.229562997818	picture	0		107	290.0	/experiments/knapen_AOT/AOT_stimuli/pictures/0567_fw.png	436.05051016807556	0.9249939918518066
292	367.1134080886841	response	0	k		290.0	/experiments/knapen_AOT/AOT_stimuli/pictures/0567_fw.png	436.93435525894165	
293	367.1545569896698	picture	0		129	291.0	/experiments/knapen_AOT/AOT_stimuli/pictures/2019_fw.png	436.97550415992737	1.1083590984344482
293	368.2145891189575	response	0	j		291.0	/experiments/knapen_AOT/AOT_stimuli/pictures/2019_fw.png	438.0355362892151	
294	368.26291608810425	picture	0		83	292.0	/experiments/knapen_AOT/AOT_stimuli/pictures/1993_fw.png	438.0838632583618	0.7333710193634033
294	368.9468810558319	response	0	k		292.0	/experiments/knapen_AOT/AOT_stimuli/pictures/1993_fw.png	438.7678282260895	
295	368.99628710746765	picture	0		108	293.0	/experiments/knapen_AOT/AOT_stimuli/pictures/0815_fw.png	438.8172342777252	0.9504759311676025
295	369.8881161212921	response	0	j		293.0	/experiments/knapen_AOT/AOT_stimuli/pictures/0815_fw.png	439.7090632915497	
296	369.94676303863525	picture	0		254	294.0	/experiments/knapen_AOT/AOT_stimuli/pictures/1334_fw.png	439.7677102088928	2.1495301723480225
296	372.05489921569824	response	0	k		294.0	/experiments/knapen_AOT/AOT_stimuli/pictures/1334_fw.png	441.8758463859558	
297	372.0962932109833	picture	0		438	295.0	/experiments/knapen_AOT/AOT_stimuli/pictures/0768_fw.png	441.91724038124084	3.700073003768921
297	375.76322317123413	response	0	k		295.0	/experiments/knapen_AOT/AOT_stimuli/pictures/0768_fw.png	445.5841703414917	
298	375.7963662147522	picture	0		102	296.0	/experiments/knapen_AOT/AOT_stimuli/pictures/1119_fw.png	445.61731338500977	0.8833599090576172
298	376.6314420700073	response	0	j		296.0	/experiments/knapen_AOT/AOT_stimuli/pictures/1119_fw.png	446.4523892402649	
299	376.6797261238098	picture	0		118	297.0	/experiments/knapen_AOT/AOT_stimuli/pictures/0887_fw.png	446.5006732940674	1.0333120822906494
299	377.6551821231842	response	0	k		297.0	/experiments/knapen_AOT/AOT_stimuli/pictures/0887_fw.png	447.4761292934418	
300	377.71303820610046	picture	0		97	298.0	/experiments/knapen_AOT/AOT_stimuli/pictures/1530_fw.png	447.53398537635803	0.8586819171905518
300	378.51324820518494	response	0	k		298.0	/experiments/knapen_AOT/AOT_stimuli/pictures/1530_fw.png	448.3341953754425	
301	378.571720123291	picture	0		92	299.0	/experiments/knapen_AOT/AOT_stimuli/pictures/0478_fw.png	448.3926672935486	0.8080060482025146
301	379.3299732208252	response	0	k		299.0	/experiments/knapen_AOT/AOT_stimuli/pictures/0478_fw.png	449.15092039108276	
302	379.37972617149353	picture	0		103	300.0	/experiments/knapen_AOT/AOT_stimuli/pictures/0384_fw.png	449.2006733417511	0.8917219638824463
302	380.22316217422485	response	0	j		300.0	/experiments/knapen_AOT/AOT_stimuli/pictures/0384_fw.png	450.0441093444824	
303	380.271448135376	picture	0		147	301.0	/experiments/knapen_AOT/AOT_stimuli/pictures/1594_fw.png	450.09239530563354	1.2583160400390625
303	381.48852920532227	response	0	k		301.0	/experiments/knapen_AOT/AOT_stimuli/pictures/1594_fw.png	451.30947637557983	
304	381.52976417541504	picture	0		134	302.0	/experiments/knapen_AOT/AOT_stimuli/pictures/2088_fw.png	451.3507113456726	1.1583268642425537
304	382.6382541656494	response	0	k		302.0	/experiments/knapen_AOT/AOT_stimuli/pictures/2088_fw.png	452.459201335907	
305	382.6880910396576	picture	0		109	303.0	/experiments/knapen_AOT/AOT_stimuli/pictures/0014_fw.png	452.50903820991516	1.0584700107574463
305	383.58829712867737	response	0	k		303.0	/experiments/knapen_AOT/AOT_stimuli/pictures/0014_fw.png	453.40924429893494	
306	383.74656105041504	picture	0		271	304.0	/experiments/knapen_AOT/AOT_stimuli/pictures/0177_fw.png	453.5675082206726	2.283501148223877
306	385.9967432022095	response	0	k		304.0	/experiments/knapen_AOT/AOT_stimuli/pictures/0177_fw.png	455.81769037246704	
307	386.0300621986389	picture	0		197	305.0	/experiments/knapen_AOT/AOT_stimuli/pictures/0212_fw.png	455.8510093688965	1.691464900970459
307	387.663321018219	response	0	k		305.0	/experiments/knapen_AOT/AOT_stimuli/pictures/0212_fw.png	457.48426818847656	
308	387.7215270996094	picture	0		142	306.0	/experiments/knapen_AOT/AOT_stimuli/pictures/0864_fw.png	457.54247426986694	1.2249729633331299
308	388.8967020511627	response	0	j		306.0	/experiments/knapen_AOT/AOT_stimuli/pictures/0864_fw.png	458.7176492214203	
309	388.9465000629425	picture	0		103	307.0	/experiments/knapen_AOT/AOT_stimuli/pictures/1938_fw.png	458.7674472332001	0.9100320339202881
309	389.7966980934143	response	0	k		307.0	/experiments/knapen_AOT/AOT_stimuli/pictures/1938_fw.png	459.6176452636719	
310	389.8565320968628	picture	0		92	308.0	/experiments/knapen_AOT/AOT_stimuli/pictures/1792_fw.png	459.67747926712036	0.7900369167327881
310	390.6066710948944	response	0	j		308.0	/experiments/knapen_AOT/AOT_stimuli/pictures/1792_fw.png	460.427618265152	
311	390.6465690135956	picture	0		127	309.0	/experiments/knapen_AOT/AOT_stimuli/pictures/1453_fw.png	460.46751618385315	1.0916590690612793
311	391.69700717926025	response	0	k		309.0	/experiments/knapen_AOT/AOT_stimuli/pictures/1453_fw.png	461.5179543495178	
312	391.73822808265686	picture	0		94	310.0	/experiments/knapen_AOT/AOT_stimuli/pictures/1785_fw.png	461.55917525291443	0.8083610534667969
312	392.5135099887848	response	0	j		310.0	/experiments/knapen_AOT/AOT_stimuli/pictures/1785_fw.png	462.33445715904236	
313	392.54658913612366	picture	0		89	311.0	/experiments/knapen_AOT/AOT_stimuli/pictures/1427_fw.png	462.3675363063812	0.7833340167999268
313	393.2802782058716	response	0	k		311.0	/experiments/knapen_AOT/AOT_stimuli/pictures/1427_fw.png	463.10122537612915	
314	393.3299231529236	picture	0		200	312.0	/experiments/knapen_AOT/AOT_stimuli/pictures/1230_fw.png	463.15087032318115	1.7249979972839355
314	394.988667011261	response	0	k		312.0	/experiments/knapen_AOT/AOT_stimuli/pictures/1230_fw.png	464.80961418151855	
315	395.0549211502075	picture	0		117	313.0	/experiments/knapen_AOT/AOT_stimuli/pictures/2051_fw.png	464.8758683204651	1.0083520412445068
315	396.0151062011719	response	0	k		313.0	/experiments/knapen_AOT/AOT_stimuli/pictures/2051_fw.png	465.83605337142944	
316	396.063273191452	picture	0		118	314.0	/experiments/knapen_AOT/AOT_stimuli/pictures/1589_fw.png	465.8842203617096	1.0166738033294678
316	397.03842306137085	response	0	k		314.0	/experiments/knapen_AOT/AOT_stimuli/pictures/1589_fw.png	466.8593702316284	
317	397.0799469947815	picture	0		201	315.0	/experiments/knapen_AOT/AOT_stimuli/pictures/0132_fw.png	466.90089416503906	1.70849609375
317	398.7468330860138	response	0	k		315.0	/experiments/knapen_AOT/AOT_stimuli/pictures/0132_fw.png	468.56778025627136	
318	398.7884430885315	picture	0		152	316.0	/experiments/knapen_AOT/AOT_stimuli/pictures/0094_fw.png	468.60939025878906	1.299921989440918
318	400.04684019088745	response	0	k		316.0	/experiments/knapen_AOT/AOT_stimuli/pictures/0094_fw.png	469.867787361145	
319	400.0883650779724	picture	0		441	317.0	/experiments/knapen_AOT/AOT_stimuli/pictures/0056_fw.png	469.90931224823	3.7266011238098145
319	403.755243062973	response	0	k		317.0	/experiments/knapen_AOT/AOT_stimuli/pictures/0056_fw.png	473.5761902332306	
320	403.8149662017822	picture	0		83	318.0	/experiments/knapen_AOT/AOT_stimuli/pictures/0621_fw.png	473.6359133720398	0.731759786605835
320	404.49684619903564	response	0	k		318.0	/experiments/knapen_AOT/AOT_stimuli/pictures/0621_fw.png	474.3177933692932	
321	404.54672598838806	picture	0		189	319.0	/experiments/knapen_AOT/AOT_stimuli/pictures/0823_fw.png	474.36767315864563	1.6016161441802979
321	406.1137421131134	response	0	k		319.0	/experiments/knapen_AOT/AOT_stimuli/pictures/0823_fw.png	475.934689283371	
322	406.14834213256836	picture	0		492	320.0	/experiments/knapen_AOT/AOT_stimuli/pictures/0213_fw.png	475.9692893028259	4.115108966827393
322	410.23871421813965	response	0	k		320.0	/experiments/knapen_AOT/AOT_stimuli/pictures/0213_fw.png	480.0596613883972	
323	410.26345109939575	picture	0		221	321.0	/experiments/knapen_AOT/AOT_stimuli/pictures/0989_fw.png	480.0843982696533	1.8750760555267334
323	412.096971988678	response	0	j		321.0	/experiments/knapen_AOT/AOT_stimuli/pictures/0989_fw.png	481.91791915893555	
324	412.1385271549225	picture	0		89	322.0	/experiments/knapen_AOT/AOT_stimuli/pictures/0879_fw.png	481.95947432518005	0.7916429042816162
324	412.8719551563263	response	0	k		322.0	/experiments/knapen_AOT/AOT_stimuli/pictures/0879_fw.png	482.69290232658386	
325	412.9301700592041	picture	0		109	323.0	/experiments/knapen_AOT/AOT_stimuli/pictures/0274_fw.png	482.75111722946167	0.9583261013031006
325	413.82361912727356	response	0	k		323.0	/experiments/knapen_AOT/AOT_stimuli/pictures/0274_fw.png	483.6445662975311	
326	413.8884961605072	picture	0		97	324.0	/experiments/knapen_AOT/AOT_stimuli/pictures/1631_fw.png	483.70944333076477	0.8667089939117432
326	414.6888451576233	response	0	k		324.0	/experiments/knapen_AOT/AOT_stimuli/pictures/1631_fw.png	484.50979232788086	
327	414.75520515441895	picture	0		98	325.0	/experiments/knapen_AOT/AOT_stimuli/pictures/0699_fw.png	484.5761523246765	0.841655969619751
327	415.56385612487793	response	0	k		325.0	/experiments/knapen_AOT/AOT_stimuli/pictures/0699_fw.png	485.3848032951355	
328	415.5968611240387	picture	0		194	326.0	/experiments/knapen_AOT/AOT_stimuli/pictures/1109_fw.png	485.41780829429626	1.6583609580993652
328	417.1986651420593	response	0	k		326.0	/experiments/knapen_AOT/AOT_stimuli/pictures/1109_fw.png	487.0196123123169	
329	417.25522208213806	picture	0		118	327.0	/experiments/knapen_AOT/AOT_stimuli/pictures/2161_fw.png	487.07616925239563	1.039005994796753
329	418.22358322143555	response	0	k		327.0	/experiments/knapen_AOT/AOT_stimuli/pictures/2161_fw.png	488.0445303916931	
330	418.2942280769348	picture	0		92	328.0	/experiments/knapen_AOT/AOT_stimuli/pictures/1656_fw.png	488.1151752471924	0.8276679515838623
330	419.05549120903015	response	0	j		328.0	/experiments/knapen_AOT/AOT_stimuli/pictures/1656_fw.png	488.8764383792877	
331	419.1218960285187	picture	0		164	329.0	/experiments/knapen_AOT/AOT_stimuli/pictures/0712_fw.png	488.94284319877625	1.4084911346435547
331	420.4806101322174	response	0	k		329.0	/experiments/knapen_AOT/AOT_stimuli/pictures/0712_fw.png	490.301557302475	
332	420.53038716316223	picture	0		133	330.0	/experiments/knapen_AOT/AOT_stimuli/pictures/1260_fw.png	490.3513343334198	1.141554832458496
332	421.6237030029297	response	0	k		330.0	/experiments/knapen_AOT/AOT_stimuli/pictures/1260_fw.png	491.44465017318726	
333	421.6719419956207	picture	0		116	331.0	/experiments/knapen_AOT/AOT_stimuli/pictures/1778_fw.png	491.4928891658783	1.0250980854034424
333	422.62361907958984	response	0	k		331.0	/experiments/knapen_AOT/AOT_stimuli/pictures/1778_fw.png	492.4445662498474	
334	422.69704008102417	picture	0		146	332.0	/experiments/knapen_AOT/AOT_stimuli/pictures/0816_fw.png	492.51798725128174	1.266679048538208
334	423.9055700302124	response	0	j		332.0	/experiments/knapen_AOT/AOT_stimuli/pictures/0816_fw.png	493.72651720046997	
335	423.9637191295624	picture	0		116	333.0	/experiments/knapen_AOT/AOT_stimuli/pictures/1290_fw.png	493.78466629981995	1.0166089534759521
335	424.9221410751343	response	0	k		333.0	/experiments/knapen_AOT/AOT_stimuli/pictures/1290_fw.png	494.74308824539185	
336	424.98032808303833	picture	0		283	334.0	/experiments/knapen_AOT/AOT_stimuli/pictures/2002_fw.png	494.8012752532959	2.4000661373138428
336	427.3306701183319	response	0	k		334.0	/experiments/knapen_AOT/AOT_stimuli/pictures/2002_fw.png	497.1516172885895	
337	427.3803942203522	picture	0		237	335.0	/experiments/knapen_AOT/AOT_stimuli/pictures/0899_fw.png	497.20134139060974	2.0181548595428467
337	429.34716415405273	response	0	k		335.0	/experiments/knapen_AOT/AOT_stimuli/pictures/0899_fw.png	499.1681113243103	
338	429.398549079895	picture	0		125	336.0	/experiments/knapen_AOT/AOT_stimuli/pictures/1294_fw.png	499.2194962501526	1.0694150924682617
338	430.42369318008423	response	0	k		336.0	/experiments/knapen_AOT/AOT_stimuli/pictures/1294_fw.png	500.2446403503418	
339	430.4679641723633	picture	0		79	337.0	/experiments/knapen_AOT/AOT_stimuli/pictures/1354_fw.png	500.28891134262085	0.6874339580535889
339	431.11402320861816	response	0	k		337.0	/experiments/knapen_AOT/AOT_stimuli/pictures/1354_fw.png	500.93497037887573	
340	431.15539813041687	picture	0		132	338.0	/experiments/knapen_AOT/AOT_stimuli/pictures/1149_fw.png	500.97634530067444	1.133363962173462
340	432.24721598625183	response	0	j		338.0	/experiments/knapen_AOT/AOT_stimuli/pictures/1149_fw.png	502.0681631565094	
341	432.28876209259033	picture	0		88	339.0	/experiments/knapen_AOT/AOT_stimuli/pictures/0083_fw.png	502.1097092628479	0.7667229175567627
341	433.00725507736206	response	0	k		339.0	/experiments/knapen_AOT/AOT_stimuli/pictures/0083_fw.png	502.82820224761963	
342	433.0554850101471	picture	0		152	340.0	/experiments/knapen_AOT/AOT_stimuli/pictures/2142_fw.png	502.87643218040466	1.3166329860687256
342	434.31405115127563	response	0	k		340.0	/experiments/knapen_AOT/AOT_stimuli/pictures/2142_fw.png	504.1349983215332	
343	434.3721179962158	picture	0		96	341.0	/experiments/knapen_AOT/AOT_stimuli/pictures/1358_fw.png	504.1930651664734	0.841759204864502
343	435.1640431880951	response	0	k		341.0	/experiments/knapen_AOT/AOT_stimuli/pictures/1358_fw.png	504.98499035835266	
344	435.2138772010803	picture	0		101	342.0	/experiments/knapen_AOT/AOT_stimuli/pictures/0257_fw.png	505.0348243713379	0.8749477863311768
344	436.0472581386566	response	0	k		342.0	/experiments/knapen_AOT/AOT_stimuli/pictures/0257_fw.png	505.8682053089142	
345	436.0888249874115	picture	0		106	343.0	/experiments/knapen_AOT/AOT_stimuli/pictures/2021_fw.png	505.90977215766907	0.916729211807251
345	436.96409702301025	response	0	j		343.0	/experiments/knapen_AOT/AOT_stimuli/pictures/2021_fw.png	506.7850441932678	
346	437.00555419921875	picture	0		125	344.0	/experiments/knapen_AOT/AOT_stimuli/pictures/1956_fw.png	506.8265013694763	1.091614007949829
346	438.0390250682831	response	0	k		344.0	/experiments/knapen_AOT/AOT_stimuli/pictures/1956_fw.png	507.85997223854065	
347	438.0971682071686	picture	0		96	345.0	/experiments/knapen_AOT/AOT_stimuli/pictures/0649_fw.png	507.91811537742615	0.8583498001098633
347	438.8890860080719	response	0	k		345.0	/experiments/knapen_AOT/AOT_stimuli/pictures/0649_fw.png	508.71003317832947	
348	438.95551800727844	picture	0		94	346.0	/experiments/knapen_AOT/AOT_stimuli/pictures/0369_fw.png	508.776465177536	0.8333530426025391
348	439.7308909893036	response	0	k		346.0	/experiments/knapen_AOT/AOT_stimuli/pictures/0369_fw.png	509.55183815956116	
349	439.788871049881	picture	0		114	347.0	/experiments/knapen_AOT/AOT_stimuli/pictures/0775_fw.png	509.60981822013855	0.9749791622161865
349	440.7308540344238	response	0	k		347.0	/experiments/knapen_AOT/AOT_stimuli/pictures/0775_fw.png	510.5518012046814	
350	440.76385021209717	picture	0		166	348.0	/experiments/knapen_AOT/AOT_stimuli/pictures/1154_fw.png	510.58479738235474	1.4166779518127441
350	442.1390771865845	response	0	k		348.0	/experiments/knapen_AOT/AOT_stimuli/pictures/1154_fw.png	511.96002435684204	
351	442.1805281639099	picture	0		102	349.0	/experiments/knapen_AOT/AOT_stimuli/pictures/0457_fw.png	512.0014753341675	0.8834009170532227
351	443.0157630443573	response	0	k		349.0	/experiments/knapen_AOT/AOT_stimuli/pictures/0457_fw.png	512.8367102146149	
352	443.06392908096313	picture	0		105	350.0	/experiments/knapen_AOT/AOT_stimuli/pictures/0839_fw.png	512.8848762512207	0.9166429042816162
352	443.9308211803436	response	0	k		350.0	/experiments/knapen_AOT/AOT_stimuli/pictures/0839_fw.png	513.7517683506012	
353	443.98057198524475	picture	0		138	351.0	/experiments/knapen_AOT/AOT_stimuli/pictures/0392_fw.png	513.8015191555023	1.1958370208740234
353	445.12245321273804	response	0	j		351.0	/experiments/knapen_AOT/AOT_stimuli/pictures/0392_fw.png	514.9434003829956	
354	445.1764090061188	picture	0		110	352.0	/experiments/knapen_AOT/AOT_stimuli/pictures/0927_fw.png	514.9973561763763	0.9375460147857666
354	446.0808641910553	response	0	k		352.0	/experiments/knapen_AOT/AOT_stimuli/pictures/0927_fw.png	515.9018113613129	
355	446.11395502090454	picture	0		93	353.0	/experiments/knapen_AOT/AOT_stimuli/pictures/2173_fw.png	515.9349021911621	0.8083541393280029
355	446.8808650970459	response	0	k		353.0	/experiments/knapen_AOT/AOT_stimuli/pictures/2173_fw.png	516.7018122673035	
356	446.92230916023254	picture	0		94	354.0	/experiments/knapen_AOT/AOT_stimuli/pictures/0263_fw.png	516.7432563304901	0.8333179950714111
356	447.6974391937256	response	0	j		354.0	/experiments/knapen_AOT/AOT_stimuli/pictures/0263_fw.png	517.5183863639832	
357	447.75562715530396	picture	0		151	355.0	/experiments/knapen_AOT/AOT_stimuli/pictures/0781_fw.png	517.5765743255615	1.3096909523010254
357	448.99904108047485	response	0	k		355.0	/experiments/knapen_AOT/AOT_stimuli/pictures/0781_fw.png	518.8199882507324	
358	449.065318107605	picture	0		81	356.0	/experiments/knapen_AOT/AOT_stimuli/pictures/0053_fw.png	518.8862652778625	0.7153608798980713
358	449.73095512390137	response	0	k		356.0	/experiments/knapen_AOT/AOT_stimuli/pictures/0053_fw.png	519.5519022941589	
359	449.78067898750305	picture	0		113	357.0	/experiments/knapen_AOT/AOT_stimuli/pictures/0865_fw.png	519.6016261577606	1.013824224472046
359	450.73919701576233	response	0	k		357.0	/experiments/knapen_AOT/AOT_stimuli/pictures/0865_fw.png	520.5601441860199	
360	450.7945032119751	picture	0		117	358.0	/experiments/knapen_AOT/AOT_stimuli/pictures/0122_fw.png	520.6154503822327	1.0111939907073975
360	451.76431608200073	response	0	k		358.0	/experiments/knapen_AOT/AOT_stimuli/pictures/0122_fw.png	521.5852632522583	
361	451.8056972026825	picture	0		93	359.0	/experiments/knapen_AOT/AOT_stimuli/pictures/0168_fw.png	521.6266443729401	0.8249988555908203
361	452.5725431442261	response	0	k		359.0	/experiments/knapen_AOT/AOT_stimuli/pictures/0168_fw.png	522.3934903144836	
362	452.6306960582733	stim	0		153			522.4516432285309	1.3251690864562988
362	453.897586107254	response	0	space				523.7185332775116	
