trial_nr	onset	event_type	phase	response	nr_frames	picture_index	picture_file	onset_abs	duration
0	0.16936779022216797	stim	0		970			64.96288585662842	8.097394466400146
0	8.250393867492676	response	0	space				73.04391193389893	
2	8.266762256622314	picture	0		127	0.0	/experiments/Knapen_AOT/AOT_stimuli/pictures/0009_fw.png	73.06028032302856	1.0707967281341553
2	9.317322492599487	response	0	j		0.0	/experiments/Knapen_AOT/AOT_stimuli/pictures/0009_fw.png	74.11084055900574	
3	9.33755898475647	picture	0		94	1.0	/experiments/Knapen_AOT/AOT_stimuli/pictures/1956_fw.png	74.13107705116272	0.7971982955932617
3	10.125411748886108	response	0	j		1.0	/experiments/Knapen_AOT/AOT_stimuli/pictures/1956_fw.png	74.91892981529236	
4	10.134757280349731	picture	0		99	2.0	/experiments/Knapen_AOT/AOT_stimuli/pictures/1078_fw.png	74.92827534675598	0.8264820575714111
4	10.950177907943726	response	0	k		2.0	/experiments/Knapen_AOT/AOT_stimuli/pictures/1078_fw.png	75.74369597434998	
5	10.961239337921143	picture	0		91	3.0	/experiments/Knapen_AOT/AOT_stimuli/pictures/1109_fw.png	75.75475740432739	0.7568624019622803
5	11.700908422470093	response	0	j		3.0	/experiments/Knapen_AOT/AOT_stimuli/pictures/1109_fw.png	76.49442648887634	
6	11.718101739883423	picture	0		163	4.0	/experiments/Knapen_AOT/AOT_stimuli/pictures/1329_fw.png	76.51161980628967	1.3610687255859375
6	13.061060667037964	response	0	k		4.0	/experiments/Knapen_AOT/AOT_stimuli/pictures/1329_fw.png	77.85457873344421	
7	13.07917046546936	picture	0		82	5.0	/experiments/Knapen_AOT/AOT_stimuli/pictures/1071_fw.png	77.87268853187561	0.6958868503570557
7	13.758570671081543	response	0	j		5.0	/experiments/Knapen_AOT/AOT_stimuli/pictures/1071_fw.png	78.5520887374878	
8	13.775057315826416	picture	0		108	6.0	/experiments/Knapen_AOT/AOT_stimuli/pictures/0733_fw.png	78.56857538223267	0.9084005355834961
8	14.66692590713501	response	0	k		6.0	/experiments/Knapen_AOT/AOT_stimuli/pictures/0733_fw.png	79.46044397354126	
9	14.683457851409912	picture	0		103	7.0	/experiments/Knapen_AOT/AOT_stimuli/pictures/0693_fw.png	79.47697591781616	0.8611202239990234
9	15.533652782440186	response	0	j		7.0	/experiments/Knapen_AOT/AOT_stimuli/pictures/0693_fw.png	80.32717084884644	
10	15.544578075408936	picture	0		86	8.0	/experiments/Knapen_AOT/AOT_stimuli/pictures/0366_fw.png	80.33809614181519	0.7152290344238281
10	16.25029468536377	response	0	j		8.0	/experiments/Knapen_AOT/AOT_stimuli/pictures/0366_fw.png	81.04381275177002	
11	16.259807109832764	picture	0		120	9.0	/experiments/Knapen_AOT/AOT_stimuli/pictures/0783_fw.png	81.05332517623901	1.0070767402648926
11	17.250481605529785	response	0	k		9.0	/experiments/Knapen_AOT/AOT_stimuli/pictures/0783_fw.png	82.04399967193604	
12	17.266883850097656	picture	0		187	10.0	/experiments/Knapen_AOT/AOT_stimuli/pictures/1182_fw.png	82.0604019165039	1.566575288772583
12	18.81702947616577	response	0	j		10.0	/experiments/Knapen_AOT/AOT_stimuli/pictures/1182_fw.png	83.61054754257202	
13	18.83345913887024	picture	0		82	11.0	/experiments/Knapen_AOT/AOT_stimuli/pictures/0278_fw.png	83.62697720527649	0.6834161281585693
13	19.501073122024536	response	0	j		11.0	/experiments/Knapen_AOT/AOT_stimuli/pictures/0278_fw.png	84.29459118843079	
14	19.51687526702881	picture	0		96	12.0	/experiments/Knapen_AOT/AOT_stimuli/pictures/2074_fw.png	84.31039333343506	0.8056492805480957
14	20.302006483078003	response	0	k		12.0	/experiments/Knapen_AOT/AOT_stimuli/pictures/2074_fw.png	85.09552454948425	
15	20.322524547576904	picture	0		107	13.0	/experiments/Knapen_AOT/AOT_stimuli/pictures/1805_fw.png	85.11604261398315	0.902684211730957
15	21.208760976791382	response	0	j		13.0	/experiments/Knapen_AOT/AOT_stimuli/pictures/1805_fw.png	86.00227904319763	
16	21.22520875930786	picture	0		156	14.0	/experiments/Knapen_AOT/AOT_stimuli/pictures/1709_fw.png	86.01872682571411	1.3054823875427246
16	22.517234802246094	response	0	k		14.0	/experiments/Knapen_AOT/AOT_stimuli/pictures/1709_fw.png	87.31075286865234	
17	22.530691146850586	picture	0		89	15.0	/experiments/Knapen_AOT/AOT_stimuli/pictures/1465_fw.png	87.32420921325684	0.7528538703918457
17	23.26715588569641	response	0	j		15.0	/experiments/Knapen_AOT/AOT_stimuli/pictures/1465_fw.png	88.06067395210266	
18	23.28354501724243	picture	0		133	16.0	/experiments/Knapen_AOT/AOT_stimuli/pictures/0992_fw.png	88.07706308364868	1.1083645820617676
18	24.383747339248657	response	0	k		16.0	/experiments/Knapen_AOT/AOT_stimuli/pictures/0992_fw.png	89.17726540565491	
19	24.3919095993042	picture	0		137	17.0	/experiments/Knapen_AOT/AOT_stimuli/pictures/1034_fw.png	89.18542766571045	1.1457672119140625
19	25.525425672531128	response	0	j		17.0	/experiments/Knapen_AOT/AOT_stimuli/pictures/1034_fw.png	90.31894373893738	
20	25.53767681121826	picture	0		121	18.0	/experiments/Knapen_AOT/AOT_stimuli/pictures/0588_fw.png	90.33119487762451	1.006971836090088
20	26.533878087997437	response	0	k		18.0	/experiments/Knapen_AOT/AOT_stimuli/pictures/0588_fw.png	91.32739615440369	
21	26.54464864730835	picture	0		92	19.0	/experiments/Knapen_AOT/AOT_stimuli/pictures/0117_fw.png	91.3381667137146	0.7639884948730469
21	27.293543338775635	response	0	j		19.0	/experiments/Knapen_AOT/AOT_stimuli/pictures/0117_fw.png	92.08706140518188	
22	27.308637142181396	picture	0		98	20.0	/experiments/Knapen_AOT/AOT_stimuli/pictures/0671_fw.png	92.10215520858765	0.8193621635437012
22	28.117146968841553	response	0	k		20.0	/experiments/Knapen_AOT/AOT_stimuli/pictures/0671_fw.png	92.9106650352478	
23	28.127999305725098	picture	0		99	21.0	/experiments/Knapen_AOT/AOT_stimuli/pictures/2063_fw.png	92.92151737213135	0.830601692199707
23	28.9421067237854	response	0	j		21.0	/experiments/Knapen_AOT/AOT_stimuli/pictures/2063_fw.png	93.73562479019165	
24	28.958600997924805	picture	0		95	22.0	/experiments/Knapen_AOT/AOT_stimuli/pictures/1962_fw.png	93.75211906433105	0.8000154495239258
24	29.742117643356323	response	0	j		22.0	/experiments/Knapen_AOT/AOT_stimuli/pictures/1962_fw.png	94.53563570976257	
25	29.75861644744873	picture	0		84	23.0	/experiments/Knapen_AOT/AOT_stimuli/pictures/1578_fw.png	94.55213451385498	0.702786922454834
25	30.450495958328247	response	0	j		23.0	/experiments/Knapen_AOT/AOT_stimuli/pictures/1578_fw.png	95.2440140247345	
26	30.461403369903564	picture	0		95	24.0	/experiments/Knapen_AOT/AOT_stimuli/pictures/1801_fw.png	95.25492143630981	0.797196626663208
26	31.242374658584595	response	0	j		24.0	/experiments/Knapen_AOT/AOT_stimuli/pictures/1801_fw.png	96.03589272499084	
27	31.258599996566772	picture	0		108	25.0	/experiments/Knapen_AOT/AOT_stimuli/pictures/0855_fw.png	96.05211806297302	0.9041702747344971
27	32.15048956871033	response	0	k		25.0	/experiments/Knapen_AOT/AOT_stimuli/pictures/0855_fw.png	96.94400763511658	
28	32.16277027130127	picture	0		103	26.0	/experiments/Knapen_AOT/AOT_stimuli/pictures/0635_fw.png	96.95628833770752	0.8542337417602539
28	33.00885891914368	response	0	j		26.0	/experiments/Knapen_AOT/AOT_stimuli/pictures/0635_fw.png	97.80237698554993	
29	33.01700401306152	picture	0		216	27.0	/experiments/Knapen_AOT/AOT_stimuli/pictures/1869_fw.png	97.81052207946777	1.8054170608520508
29	34.808847427368164	response	0	j		27.0	/experiments/Knapen_AOT/AOT_stimuli/pictures/1869_fw.png	99.60236549377441	
30	34.822421073913574	picture	0		92	28.0	/experiments/Knapen_AOT/AOT_stimuli/pictures/1274_fw.png	99.61593914031982	0.7709193229675293
30	35.58394742012024	response	0	k		28.0	/experiments/Knapen_AOT/AOT_stimuli/pictures/1274_fw.png	100.37746548652649	
31	35.5933403968811	picture	0		88	29.0	/experiments/Knapen_AOT/AOT_stimuli/pictures/2115_fw.png	100.38685846328735	0.7403559684753418
31	36.317185401916504	response	0	j		29.0	/experiments/Knapen_AOT/AOT_stimuli/pictures/2115_fw.png	101.11070346832275	
32	36.333696365356445	picture	0		94	30.0	/experiments/Knapen_AOT/AOT_stimuli/pictures/1622_fw.png	101.1272144317627	0.7874152660369873
32	37.101216554641724	response	0	k		30.0	/experiments/Knapen_AOT/AOT_stimuli/pictures/1622_fw.png	101.89473462104797	
33	37.12111163139343	picture	0		86	31.0	/experiments/Knapen_AOT/AOT_stimuli/pictures/1443_fw.png	101.91462969779968	0.7152845859527588
33	37.82557702064514	response	0	j		31.0	/experiments/Knapen_AOT/AOT_stimuli/pictures/1443_fw.png	102.61909508705139	
34	37.83639621734619	picture	0		101	32.0	/experiments/Knapen_AOT/AOT_stimuli/pictures/1510_fw.png	102.62991428375244	0.84731125831604
34	38.667293310165405	response	0	k		32.0	/experiments/Knapen_AOT/AOT_stimuli/pictures/1510_fw.png	103.46081137657166	
35	38.68370747566223	picture	0		89	33.0	/experiments/Knapen_AOT/AOT_stimuli/pictures/1059_fw.png	103.47722554206848	0.7500636577606201
35	39.41750359535217	response	0	k		33.0	/experiments/Knapen_AOT/AOT_stimuli/pictures/1059_fw.png	104.21102166175842	
36	39.43377113342285	picture	0		104	34.0	/experiments/Knapen_AOT/AOT_stimuli/pictures/2022_fw.png	104.2272891998291	0.8678925037384033
36	40.29222369194031	response	0	j		34.0	/experiments/Knapen_AOT/AOT_stimuli/pictures/2022_fw.png	105.08574175834656	
37	40.301663637161255	picture	0		97	35.0	/experiments/Knapen_AOT/AOT_stimuli/pictures/1184_fw.png	105.0951817035675	0.8125810623168945
37	41.10084676742554	response	0	k		35.0	/experiments/Knapen_AOT/AOT_stimuli/pictures/1184_fw.png	105.89436483383179	
38	41.11424469947815	picture	0		101	36.0	/experiments/Knapen_AOT/AOT_stimuli/pictures/1073_fw.png	105.9077627658844	0.8528232574462891
38	41.95061922073364	response	0	k		36.0	/experiments/Knapen_AOT/AOT_stimuli/pictures/1073_fw.png	106.74413728713989	
39	41.96706795692444	picture	0		99	37.0	/experiments/Knapen_AOT/AOT_stimuli/pictures/1895_fw.png	106.76058602333069	0.8276889324188232
39	42.78393602371216	response	0	k		37.0	/experiments/Knapen_AOT/AOT_stimuli/pictures/1895_fw.png	107.57745409011841	
40	42.79475688934326	picture	0		94	38.0	/experiments/Knapen_AOT/AOT_stimuli/pictures/1919_fw.png	107.58827495574951	0.784724235534668
40	43.5672767162323	response	0	k		38.0	/experiments/Knapen_AOT/AOT_stimuli/pictures/1919_fw.png	108.36079478263855	
41	43.57948112487793	picture	0		97	39.0	/experiments/Knapen_AOT/AOT_stimuli/pictures/1959_fw.png	108.37299919128418	0.8126144409179688
41	44.375627756118774	response	0	k		39.0	/experiments/Knapen_AOT/AOT_stimuli/pictures/1959_fw.png	109.16914582252502	
42	44.3920955657959	picture	0		111	40.0	/experiments/Knapen_AOT/AOT_stimuli/pictures/0515_fw.png	109.18561363220215	0.9333691596984863
42	45.30912756919861	response	0	k		40.0	/experiments/Knapen_AOT/AOT_stimuli/pictures/0515_fw.png	110.10264563560486	
43	45.325464725494385	picture	0		97	41.0	/experiments/Knapen_AOT/AOT_stimuli/pictures/1894_fw.png	110.11898279190063	0.8096368312835693
43	46.12568497657776	response	0	j		41.0	/experiments/Knapen_AOT/AOT_stimuli/pictures/1894_fw.png	110.91920304298401	
44	46.135101556777954	picture	0		100	42.0	/experiments/Knapen_AOT/AOT_stimuli/pictures/0756_fw.png	110.9286196231842	0.8333477973937988
44	46.958993673324585	response	0	k		42.0	/experiments/Knapen_AOT/AOT_stimuli/pictures/0756_fw.png	111.75251173973083	
45	46.96844935417175	picture	0		128	43.0	/experiments/Knapen_AOT/AOT_stimuli/pictures/1621_fw.png	111.761967420578	1.0694019794464111
45	48.02566623687744	response	0	k		43.0	/experiments/Knapen_AOT/AOT_stimuli/pictures/1621_fw.png	112.81918430328369	
46	48.037851333618164	picture	0		88	44.0	/experiments/Knapen_AOT/AOT_stimuli/pictures/0084_fw.png	112.83136940002441	0.7292790412902832
46	48.758981466293335	response	0	k		44.0	/experiments/Knapen_AOT/AOT_stimuli/pictures/0084_fw.png	113.55249953269958	
47	48.76713037490845	picture	0		109	45.0	/experiments/Knapen_AOT/AOT_stimuli/pictures/0095_fw.png	113.5606484413147	0.916679859161377
47	49.66732907295227	response	0	j		45.0	/experiments/Knapen_AOT/AOT_stimuli/pictures/0095_fw.png	114.46084713935852	
48	49.683810234069824	picture	0		101	46.0	/experiments/Knapen_AOT/AOT_stimuli/pictures/1253_fw.png	114.47732830047607	0.8500421047210693
48	50.517611265182495	response	0	k		46.0	/experiments/Knapen_AOT/AOT_stimuli/pictures/1253_fw.png	115.31112933158875	
49	50.533852338790894	picture	0		93	47.0	/experiments/Knapen_AOT/AOT_stimuli/pictures/1643_fw.png	115.32737040519714	0.783348560333252
49	51.30089974403381	response	0	k		47.0	/experiments/Knapen_AOT/AOT_stimuli/pictures/1643_fw.png	116.09441781044006	
50	51.317200899124146	picture	0		120	48.0	/experiments/Knapen_AOT/AOT_stimuli/pictures/0370_fw.png	116.1107189655304	1.0053765773773193
50	52.30933928489685	response	0	k		48.0	/experiments/Knapen_AOT/AOT_stimuli/pictures/0370_fw.png	117.1028573513031	
51	52.322577476501465	picture	0		133	49.0	/experiments/Knapen_AOT/AOT_stimuli/pictures/0415_fw.png	117.11609554290771	1.1112751960754395
51	53.42574501037598	response	0	k		49.0	/experiments/Knapen_AOT/AOT_stimuli/pictures/0415_fw.png	118.21926307678223	
52	53.433852672576904	picture	0		110	50.0	/experiments/Knapen_AOT/AOT_stimuli/pictures/0162_fw.png	118.22737073898315	0.9166877269744873
52	54.34241986274719	response	0	k		50.0	/experiments/Knapen_AOT/AOT_stimuli/pictures/0162_fw.png	119.13593792915344	
53	54.35054039955139	picture	0		86	51.0	/experiments/Knapen_AOT/AOT_stimuli/pictures/1373_fw.png	119.14405846595764	0.72208571434021
53	55.05910015106201	response	0	j		51.0	/experiments/Knapen_AOT/AOT_stimuli/pictures/1373_fw.png	119.85261821746826	
54	55.0726261138916	picture	0		87	52.0	/experiments/Knapen_AOT/AOT_stimuli/pictures/0656_fw.png	119.86614418029785	0.729168176651001
54	55.792441844940186	response	0	j		52.0	/experiments/Knapen_AOT/AOT_stimuli/pictures/0656_fw.png	120.58595991134644	
55	55.8017942905426	picture	0		94	53.0	/experiments/Knapen_AOT/AOT_stimuli/pictures/0053_fw.png	120.59531235694885	0.7847247123718262
55	56.57582426071167	response	0	k		53.0	/experiments/Knapen_AOT/AOT_stimuli/pictures/0053_fw.png	121.36934232711792	
56	56.58651900291443	picture	0		93	54.0	/experiments/Knapen_AOT/AOT_stimuli/pictures/0659_fw.png	121.38003706932068	0.7777771949768066
56	57.3507878780365	response	0	k		54.0	/experiments/Knapen_AOT/AOT_stimuli/pictures/0659_fw.png	122.14430594444275	
57	57.364296197891235	picture	0		82	55.0	/experiments/Knapen_AOT/AOT_stimuli/pictures/1027_fw.png	122.15781426429749	0.6948063373565674
57	58.04247307777405	response	0	j		55.0	/experiments/Knapen_AOT/AOT_stimuli/pictures/1027_fw.png	122.8359911441803	
58	58.0591025352478	picture	0		96	56.0	/experiments/Knapen_AOT/AOT_stimuli/pictures/0210_fw.png	122.85262060165405	0.8081860542297363
58	58.85086941719055	response	0	k		56.0	/experiments/Knapen_AOT/AOT_stimuli/pictures/0210_fw.png	123.6443874835968	
59	58.86728858947754	picture	0		92	57.0	/experiments/Knapen_AOT/AOT_stimuli/pictures/1288_fw.png	123.66080665588379	0.7679078578948975
59	59.62581181526184	response	0	j		57.0	/experiments/Knapen_AOT/AOT_stimuli/pictures/1288_fw.png	124.41932988166809	
60	59.63519644737244	picture	0		115	58.0	/experiments/Knapen_AOT/AOT_stimuli/pictures/1589_fw.png	124.42871451377869	0.958289623260498
60	60.58426523208618	response	0	j		58.0	/experiments/Knapen_AOT/AOT_stimuli/pictures/1589_fw.png	125.37778329849243	
61	60.593486070632935	picture	0		96	59.0	/experiments/Knapen_AOT/AOT_stimuli/pictures/1667_fw.png	125.38700413703918	0.807166576385498
61	61.3841655254364	response	0	k		59.0	/experiments/Knapen_AOT/AOT_stimuli/pictures/1667_fw.png	126.17768359184265	
62	61.40065264701843	picture	0		85	60.0	/experiments/Knapen_AOT/AOT_stimuli/pictures/0301_fw.png	126.19417071342468	0.713738203048706
62	62.09345531463623	response	0	k		60.0	/experiments/Knapen_AOT/AOT_stimuli/pictures/0301_fw.png	126.88697338104248	
63	62.11439085006714	picture	0		82	61.0	/experiments/Knapen_AOT/AOT_stimuli/pictures/1870_fw.png	126.90790891647339	0.6874687671661377
63	62.792487144470215	response	0	j		61.0	/experiments/Knapen_AOT/AOT_stimuli/pictures/1870_fw.png	127.58600521087646	
64	62.801859617233276	picture	0		100	62.0	/experiments/Knapen_AOT/AOT_stimuli/pictures/1316_fw.png	127.59537768363953	0.8332962989807129
64	63.625895261764526	response	0	k		62.0	/experiments/Knapen_AOT/AOT_stimuli/pictures/1316_fw.png	128.41941332817078	
65	63.63515591621399	picture	0		129	63.0	/experiments/Knapen_AOT/AOT_stimuli/pictures/1175_fw.png	128.42867398262024	1.0822465419769287
65	64.70108938217163	response	0	k		63.0	/experiments/Knapen_AOT/AOT_stimuli/pictures/1175_fw.png	129.49460744857788	
66	64.71740245819092	picture	0		91	64.0	/experiments/Knapen_AOT/AOT_stimuli/pictures/1569_fw.png	129.51092052459717	0.7582685947418213
66	65.4675567150116	response	0	k		64.0	/experiments/Knapen_AOT/AOT_stimuli/pictures/1569_fw.png	130.26107478141785	
67	65.47567105293274	picture	0		90	65.0	/experiments/Knapen_AOT/AOT_stimuli/pictures/0743_fw.png	130.269189119339	0.7500088214874268
67	66.21756911277771	response	0	j		65.0	/experiments/Knapen_AOT/AOT_stimuli/pictures/0743_fw.png	131.01108717918396	
68	66.22567987442017	picture	0		96	66.0	/experiments/Knapen_AOT/AOT_stimuli/pictures/0432_fw.png	131.01919794082642	0.8053429126739502
68	67.01777219772339	response	0	j		66.0	/experiments/Knapen_AOT/AOT_stimuli/pictures/0432_fw.png	131.81129026412964	
69	67.03102278709412	picture	0		97	67.0	/experiments/Knapen_AOT/AOT_stimuli/pictures/0760_fw.png	131.82454085350037	0.8126535415649414
69	67.83430337905884	response	0	k		67.0	/experiments/Knapen_AOT/AOT_stimuli/pictures/0760_fw.png	132.6278214454651	
70	67.84367632865906	picture	0		149	68.0	/experiments/Knapen_AOT/AOT_stimuli/pictures/1070_fw.png	132.6371943950653	1.2487342357635498
70	69.07591915130615	response	0	k		68.0	/experiments/Knapen_AOT/AOT_stimuli/pictures/1070_fw.png	133.8694372177124	
71	69.09241056442261	picture	0		105	69.0	/experiments/Knapen_AOT/AOT_stimuli/pictures/1276_fw.png	133.88592863082886	0.8833286762237549
71	69.95938897132874	response	0	k		69.0	/experiments/Knapen_AOT/AOT_stimuli/pictures/1276_fw.png	134.75290703773499	
72	69.97573924064636	picture	0		91	70.0	/experiments/Knapen_AOT/AOT_stimuli/pictures/0294_fw.png	134.7692573070526	0.7638094425201416
72	70.725998878479	response	0	k		70.0	/experiments/Knapen_AOT/AOT_stimuli/pictures/0294_fw.png	135.51951694488525	
73	70.7395486831665	picture	0		92	71.0	/experiments/Knapen_AOT/AOT_stimuli/pictures/0470_fw.png	135.53306674957275	0.7778987884521484
73	71.50106716156006	response	0	j		71.0	/experiments/Knapen_AOT/AOT_stimuli/pictures/0470_fw.png	136.2945852279663	
74	71.51744747161865	picture	0		106	72.0	/experiments/Knapen_AOT/AOT_stimuli/pictures/0493_fw.png	136.3109655380249	0.8886046409606934
74	72.39263224601746	response	0	k		72.0	/experiments/Knapen_AOT/AOT_stimuli/pictures/0493_fw.png	137.1861503124237	
75	72.40605211257935	picture	0		86	73.0	/experiments/Knapen_AOT/AOT_stimuli/pictures/1067_fw.png	137.1995701789856	0.7222907543182373
75	73.11785864830017	response	0	j		73.0	/experiments/Knapen_AOT/AOT_stimuli/pictures/1067_fw.png	137.91137671470642	
76	73.12834286689758	picture	0		139	74.0	/experiments/Knapen_AOT/AOT_stimuli/pictures/1649_fw.png	137.92186093330383	1.164170265197754
76	74.27635717391968	response	0	k		74.0	/experiments/Knapen_AOT/AOT_stimuli/pictures/1649_fw.png	139.06987524032593	
77	74.29251313209534	picture	0		132	75.0	/experiments/Knapen_AOT/AOT_stimuli/pictures/1227_fw.png	139.0860311985016	1.0999493598937988
77	75.38432788848877	response	0	k		75.0	/experiments/Knapen_AOT/AOT_stimuli/pictures/1227_fw.png	140.17784595489502	
78	75.39246249198914	picture	0		93	76.0	/experiments/Knapen_AOT/AOT_stimuli/pictures/1084_fw.png	140.18598055839539	0.7834057807922363
78	76.15940189361572	response	0	k		76.0	/experiments/Knapen_AOT/AOT_stimuli/pictures/1084_fw.png	140.95291996002197	
79	76.17586827278137	picture	0		90	77.0	/experiments/Knapen_AOT/AOT_stimuli/pictures/0234_fw.png	140.96938633918762	0.7583110332489014
79	76.91791296005249	response	0	k		77.0	/experiments/Knapen_AOT/AOT_stimuli/pictures/0234_fw.png	141.71143102645874	
80	76.93417930603027	picture	0		93	78.0	/experiments/Knapen_AOT/AOT_stimuli/pictures/1295_fw.png	141.72769737243652	0.7833437919616699
80	77.70110154151917	response	0	k		78.0	/experiments/Knapen_AOT/AOT_stimuli/pictures/1295_fw.png	142.49461960792542	
81	77.71752309799194	picture	0		89	79.0	/experiments/Knapen_AOT/AOT_stimuli/pictures/0853_fw.png	142.5110411643982	0.7441611289978027
81	78.45104742050171	response	0	k		79.0	/experiments/Knapen_AOT/AOT_stimuli/pictures/0853_fw.png	143.24456548690796	
82	78.46168422698975	picture	0		102	80.0	/experiments/Knapen_AOT/AOT_stimuli/pictures/1806_fw.png	143.255202293396	0.8474922180175781
82	79.30112481117249	response	0	k		80.0	/experiments/Knapen_AOT/AOT_stimuli/pictures/1806_fw.png	144.09464287757874	
83	79.30917644500732	picture	0		95	81.0	/experiments/Knapen_AOT/AOT_stimuli/pictures/1164_fw.png	144.10269451141357	0.7916779518127441
83	80.08519268035889	response	0	k		81.0	/experiments/Knapen_AOT/AOT_stimuli/pictures/1164_fw.png	144.87871074676514	
84	80.10085439682007	picture	0		87	82.0	/experiments/Knapen_AOT/AOT_stimuli/pictures/0143_fw.png	144.89437246322632	0.7289109230041504
84	80.81773018836975	response	0	j		82.0	/experiments/Knapen_AOT/AOT_stimuli/pictures/0143_fw.png	145.611248254776	
85	80.82976531982422	picture	0		96	83.0	/experiments/Knapen_AOT/AOT_stimuli/pictures/1493_fw.png	145.62328338623047	0.8044693470001221
85	81.61779427528381	response	0	k		83.0	/experiments/Knapen_AOT/AOT_stimuli/pictures/1493_fw.png	146.41131234169006	
86	81.63423466682434	picture	0		87	84.0	/experiments/Knapen_AOT/AOT_stimuli/pictures/1927_fw.png	146.4277527332306	0.7302553653717041
86	82.35109353065491	response	0	k		84.0	/experiments/Knapen_AOT/AOT_stimuli/pictures/1927_fw.png	147.14461159706116	
87	82.36449003219604	picture	0		87	85.0	/experiments/Knapen_AOT/AOT_stimuli/pictures/0241_fw.png	147.1580080986023	0.7291629314422607
87	83.0775556564331	response	0	j		85.0	/experiments/Knapen_AOT/AOT_stimuli/pictures/0241_fw.png	147.87107372283936	
88	83.0936529636383	picture	0		95	86.0	/experiments/Knapen_AOT/AOT_stimuli/pictures/1291_fw.png	147.88717103004456	0.7989614009857178
88	83.87612199783325	response	0	k		86.0	/experiments/Knapen_AOT/AOT_stimuli/pictures/1291_fw.png	148.6696400642395	
89	83.89261436462402	picture	0		234	87.0	/experiments/Knapen_AOT/AOT_stimuli/pictures/1486_fw.png	148.68613243103027	1.9583532810211182
89	85.83476257324219	response	0	k		87.0	/experiments/Knapen_AOT/AOT_stimuli/pictures/1486_fw.png	150.62828063964844	
90	85.85096764564514	picture	0		97	88.0	/experiments/Knapen_AOT/AOT_stimuli/pictures/0428_fw.png	150.6444857120514	0.8121509552001953
90	86.6511595249176	response	0	k		88.0	/experiments/Knapen_AOT/AOT_stimuli/pictures/0428_fw.png	151.44467759132385	
91	86.66311860084534	picture	0		98	89.0	/experiments/Knapen_AOT/AOT_stimuli/pictures/0051_fw.png	151.4566366672516	0.8128335475921631
91	87.46782207489014	response	0	k		89.0	/experiments/Knapen_AOT/AOT_stimuli/pictures/0051_fw.png	152.2613401412964	
92	87.4759521484375	picture	0		97	90.0	/experiments/Knapen_AOT/AOT_stimuli/pictures/0204_fw.png	152.26947021484375	0.8121669292449951
92	88.26958990097046	response	0	j		90.0	/experiments/Knapen_AOT/AOT_stimuli/pictures/0204_fw.png	153.0631079673767	
93	88.2881190776825	picture	0		84	91.0	/experiments/Knapen_AOT/AOT_stimuli/pictures/1951_fw.png	153.08163714408875	0.701430082321167
93	88.97617983818054	response	0	j		91.0	/experiments/Knapen_AOT/AOT_stimuli/pictures/1951_fw.png	153.7696979045868	
94	88.98954916000366	picture	0		98	92.0	/experiments/Knapen_AOT/AOT_stimuli/pictures/0068_fw.png	153.7830672264099	0.828120231628418
94	89.80223083496094	response	0	j		92.0	/experiments/Knapen_AOT/AOT_stimuli/pictures/0068_fw.png	154.5957489013672	
95	89.81766939163208	picture	0		95	93.0	/experiments/Knapen_AOT/AOT_stimuli/pictures/0723_fw.png	154.61118745803833	0.7968757152557373
95	90.60117793083191	response	0	k		93.0	/experiments/Knapen_AOT/AOT_stimuli/pictures/0723_fw.png	155.39469599723816	
96	90.61454510688782	picture	0		99	94.0	/experiments/Knapen_AOT/AOT_stimuli/pictures/0871_fw.png	155.40806317329407	0.8333256244659424
96	91.43451499938965	response	0	j		94.0	/experiments/Knapen_AOT/AOT_stimuli/pictures/0871_fw.png	156.2280330657959	
97	91.44787073135376	picture	0		104	95.0	/experiments/Knapen_AOT/AOT_stimuli/pictures/1041_fw.png	156.24138879776	0.8750271797180176
97	92.30953550338745	response	0	j		95.0	/experiments/Knapen_AOT/AOT_stimuli/pictures/1041_fw.png	157.1030535697937	
98	92.32289791107178	picture	0		140	96.0	/experiments/Knapen_AOT/AOT_stimuli/pictures/1406_fw.png	157.11641597747803	1.173574686050415
98	93.47696423530579	response	0	k		96.0	/experiments/Knapen_AOT/AOT_stimuli/pictures/1406_fw.png	158.27048230171204	
99	93.49647259712219	picture	0		95	97.0	/experiments/Knapen_AOT/AOT_stimuli/pictures/1713_fw.png	158.28999066352844	0.79628586769104
99	94.27630877494812	response	0	j		97.0	/experiments/Knapen_AOT/AOT_stimuli/pictures/1713_fw.png	159.06982684135437	
100	94.29275846481323	picture	0		91	98.0	/experiments/Knapen_AOT/AOT_stimuli/pictures/1967_fw.png	159.08627653121948	0.7593114376068115
100	95.04289984703064	response	0	j		98.0	/experiments/Knapen_AOT/AOT_stimuli/pictures/1967_fw.png	159.8364179134369	
101	95.05206990242004	picture	0		97	99.0	/experiments/Knapen_AOT/AOT_stimuli/pictures/1423_fw.png	159.8455879688263	0.8125293254852295
101	95.84503650665283	response	0	j		99.0	/experiments/Knapen_AOT/AOT_stimuli/pictures/1423_fw.png	160.63855457305908	
102	95.86459922790527	picture	0		96	100.0	/experiments/Knapen_AOT/AOT_stimuli/pictures/0309_fw.png	160.65811729431152	0.8114960193634033
102	96.65970039367676	response	0	j		100.0	/experiments/Knapen_AOT/AOT_stimuli/pictures/0309_fw.png	161.453218460083	
103	96.67609524726868	picture	0		99	101.0	/experiments/Knapen_AOT/AOT_stimuli/pictures/0110_fw.png	161.46961331367493	0.8333394527435303
103	97.4929563999176	response	0	k		101.0	/experiments/Knapen_AOT/AOT_stimuli/pictures/0110_fw.png	162.28647446632385	
104	97.5094347000122	picture	0		139	102.0	/experiments/Knapen_AOT/AOT_stimuli/pictures/0408_fw.png	162.30295276641846	1.160750150680542
104	98.65993046760559	response	0	k		102.0	/experiments/Knapen_AOT/AOT_stimuli/pictures/0408_fw.png	163.45344853401184	
105	98.67018485069275	picture	0		95	103.0	/experiments/Knapen_AOT/AOT_stimuli/pictures/1740_fw.png	163.463702917099	0.7976183891296387
105	99.45135068893433	response	0	j		103.0	/experiments/Knapen_AOT/AOT_stimuli/pictures/1740_fw.png	164.24486875534058	
106	99.46780323982239	picture	0		132	104.0	/experiments/Knapen_AOT/AOT_stimuli/pictures/1903_fw.png	164.26132130622864	1.1051504611968994
106	100.55966758728027	response	0	j		104.0	/experiments/Knapen_AOT/AOT_stimuli/pictures/1903_fw.png	165.35318565368652	
107	100.57295370101929	picture	0		103	105.0	/experiments/Knapen_AOT/AOT_stimuli/pictures/0298_fw.png	165.36647176742554	0.861501932144165
107	101.4264075756073	response	0	k		105.0	/experiments/Knapen_AOT/AOT_stimuli/pictures/0298_fw.png	166.21992564201355	
108	101.43445563316345	picture	0		133	106.0	/experiments/Knapen_AOT/AOT_stimuli/pictures/0076_fw.png	166.2279736995697	1.1167371273040771
108	102.53466701507568	response	0	j		106.0	/experiments/Knapen_AOT/AOT_stimuli/pictures/0076_fw.png	167.32818508148193	
109	102.55119276046753	picture	0		109	107.0	/experiments/Knapen_AOT/AOT_stimuli/pictures/1256_fw.png	167.34471082687378	0.9166691303253174
109	103.451411485672	response	0	k		107.0	/experiments/Knapen_AOT/AOT_stimuli/pictures/1256_fw.png	168.24492955207825	
110	103.46786189079285	picture	0		96	108.0	/experiments/Knapen_AOT/AOT_stimuli/pictures/0214_fw.png	168.2613799571991	0.808333158493042
110	104.2597005367279	response	0	j		108.0	/experiments/Knapen_AOT/AOT_stimuli/pictures/0214_fw.png	169.05321860313416	
111	104.27619504928589	picture	0		84	109.0	/experiments/Knapen_AOT/AOT_stimuli/pictures/0284_fw.png	169.06971311569214	0.7083311080932617
111	104.96803545951843	response	0	j		109.0	/experiments/Knapen_AOT/AOT_stimuli/pictures/0284_fw.png	169.76155352592468	
112	104.98452615737915	picture	0		125	110.0	/experiments/Knapen_AOT/AOT_stimuli/pictures/1145_fw.png	169.7780442237854	1.046839952468872
112	106.01802635192871	response	0	k		110.0	/experiments/Knapen_AOT/AOT_stimuli/pictures/1145_fw.png	170.81154441833496	
113	106.03136610984802	picture	0		106	111.0	/experiments/Knapen_AOT/AOT_stimuli/pictures/1007_fw.png	170.82488417625427	0.8888230323791504
113	106.90974879264832	response	0	k		111.0	/experiments/Knapen_AOT/AOT_stimuli/pictures/1007_fw.png	171.70326685905457	
114	106.92018914222717	picture	0		101	112.0	/experiments/Knapen_AOT/AOT_stimuli/pictures/2024_fw.png	171.71370720863342	0.8402915000915527
114	107.75144362449646	response	0	j		112.0	/experiments/Knapen_AOT/AOT_stimuli/pictures/2024_fw.png	172.5449616909027	
115	107.76048064231873	picture	0		99	113.0	/experiments/Knapen_AOT/AOT_stimuli/pictures/0587_fw.png	172.55399870872498	0.8263864517211914
115	108.57651448249817	response	0	j		113.0	/experiments/Knapen_AOT/AOT_stimuli/pictures/0587_fw.png	173.37003254890442	
116	108.58686709403992	picture	0		85	114.0	/experiments/Knapen_AOT/AOT_stimuli/pictures/1954_fw.png	173.38038516044617	0.7143831253051758
116	109.28505659103394	response	0	j		114.0	/experiments/Knapen_AOT/AOT_stimuli/pictures/1954_fw.png	174.07857465744019	
117	109.30125021934509	picture	0		119	115.0	/experiments/Knapen_AOT/AOT_stimuli/pictures/2014_fw.png	174.09476828575134	0.9940474033355713
117	110.27803897857666	response	0	k		115.0	/experiments/Knapen_AOT/AOT_stimuli/pictures/2014_fw.png	175.0715570449829	
118	110.29529762268066	picture	0		96	116.0	/experiments/Knapen_AOT/AOT_stimuli/pictures/0956_fw.png	175.0888156890869	0.8059659004211426
118	111.07758045196533	response	0	j		116.0	/experiments/Knapen_AOT/AOT_stimuli/pictures/0956_fw.png	175.87109851837158	
119	111.1012635231018	picture	0		88	117.0	/experiments/Knapen_AOT/AOT_stimuli/pictures/1890_fw.png	175.89478158950806	0.7417192459106445
119	111.82650661468506	response	0	j		117.0	/experiments/Knapen_AOT/AOT_stimuli/pictures/1890_fw.png	176.6200246810913	
120	111.84298276901245	picture	0		109	118.0	/experiments/Knapen_AOT/AOT_stimuli/pictures/2122_fw.png	176.6365008354187	0.9106626510620117
120	112.74321365356445	response	0	j		118.0	/experiments/Knapen_AOT/AOT_stimuli/pictures/2122_fw.png	177.5367317199707	
121	112.75364542007446	picture	0		147	119.0	/experiments/Knapen_AOT/AOT_stimuli/pictures/0975_fw.png	177.5471634864807	1.2309978008270264
121	113.9682354927063	response	0	j		119.0	/experiments/Knapen_AOT/AOT_stimuli/pictures/0975_fw.png	178.76175355911255	
122	113.98464322090149	picture	0		159	120.0	/experiments/Knapen_AOT/AOT_stimuli/pictures/0011_fw.png	178.77816128730774	1.3313779830932617
122	115.30180811882019	response	0	k		120.0	/experiments/Knapen_AOT/AOT_stimuli/pictures/0011_fw.png	180.09532618522644	
123	115.31602120399475	picture	0		97	121.0	/experiments/Knapen_AOT/AOT_stimuli/pictures/1081_fw.png	180.109539270401	0.8186666965484619
123	116.11820721626282	response	0	k		121.0	/experiments/Knapen_AOT/AOT_stimuli/pictures/1081_fw.png	180.91172528266907	
124	116.13468790054321	picture	0		229	122.0	/experiments/Knapen_AOT/AOT_stimuli/pictures/2028_fw.png	180.92820596694946	1.91050124168396
124	118.03486609458923	response	0	j		122.0	/experiments/Knapen_AOT/AOT_stimuli/pictures/2028_fw.png	182.82838416099548	
125	118.04518914222717	picture	0		99	123.0	/experiments/Knapen_AOT/AOT_stimuli/pictures/1339_fw.png	182.83870720863342	0.8311691284179688
125	118.85313820838928	response	0	k		123.0	/experiments/Knapen_AOT/AOT_stimuli/pictures/1339_fw.png	183.64665627479553	
126	118.87635827064514	picture	0		103	124.0	/experiments/Knapen_AOT/AOT_stimuli/pictures/2010_fw.png	183.6698763370514	0.8634417057037354
126	119.72657442092896	response	0	k		124.0	/experiments/Knapen_AOT/AOT_stimuli/pictures/2010_fw.png	184.5200924873352	
127	119.73979997634888	picture	0		157	125.0	/experiments/Knapen_AOT/AOT_stimuli/pictures/1832_fw.png	184.53331804275513	1.3199288845062256
127	121.04340291023254	response	0	k		125.0	/experiments/Knapen_AOT/AOT_stimuli/pictures/1832_fw.png	185.8369209766388	
128	121.0597288608551	picture	0		95	126.0	/experiments/Knapen_AOT/AOT_stimuli/pictures/0314_fw.png	185.85324692726135	0.8000376224517822
128	121.8432867527008	response	0	j		126.0	/experiments/Knapen_AOT/AOT_stimuli/pictures/0314_fw.png	186.63680481910706	
129	121.85976648330688	picture	0		85	127.0	/experiments/Knapen_AOT/AOT_stimuli/pictures/0808_fw.png	186.65328454971313	0.7133364677429199
129	122.55992436408997	response	0	j		127.0	/experiments/Knapen_AOT/AOT_stimuli/pictures/0808_fw.png	187.35344243049622	
130	122.5731029510498	picture	0		109	128.0	/experiments/Knapen_AOT/AOT_stimuli/pictures/1774_fw.png	187.36662101745605	0.9116637706756592
130	123.4683449268341	response	0	j		128.0	/experiments/Knapen_AOT/AOT_stimuli/pictures/1774_fw.png	188.26186299324036	
131	123.48476672172546	picture	0		125	129.0	/experiments/Knapen_AOT/AOT_stimuli/pictures/1960_fw.png	188.2782847881317	1.0466933250427246
131	124.51831245422363	response	0	k		129.0	/experiments/Knapen_AOT/AOT_stimuli/pictures/1960_fw.png	189.31183052062988	
132	124.53146004676819	picture	0		137	130.0	/experiments/Knapen_AOT/AOT_stimuli/pictures/2111_fw.png	189.32497811317444	1.1388967037200928
132	125.6600239276886	response	0	k		130.0	/experiments/Knapen_AOT/AOT_stimuli/pictures/2111_fw.png	190.45354199409485	
133	125.67035675048828	picture	0		99	131.0	/experiments/Knapen_AOT/AOT_stimuli/pictures/0299_fw.png	190.46387481689453	0.8264248371124268
133	126.48520135879517	response	0	k		131.0	/experiments/Knapen_AOT/AOT_stimuli/pictures/0299_fw.png	191.27871942520142	
134	126.49678158760071	picture	0		103	132.0	/experiments/Knapen_AOT/AOT_stimuli/pictures/0338_fw.png	191.29029965400696	0.8630335330963135
134	127.34354138374329	response	0	k		132.0	/experiments/Knapen_AOT/AOT_stimuli/pictures/0338_fw.png	192.13705945014954	
135	127.35981512069702	picture	0		92	133.0	/experiments/Knapen_AOT/AOT_stimuli/pictures/1886_fw.png	192.15333318710327	0.768883466720581
135	128.11836218833923	response	0	j		133.0	/experiments/Knapen_AOT/AOT_stimuli/pictures/1886_fw.png	192.91188025474548	
136	128.1286985874176	picture	0		90	134.0	/experiments/Knapen_AOT/AOT_stimuli/pictures/1404_fw.png	192.92221665382385	0.7561347484588623
136	128.86833691596985	response	0	j		134.0	/experiments/Knapen_AOT/AOT_stimuli/pictures/1404_fw.png	193.6618549823761	
137	128.88483333587646	picture	0		126	135.0	/experiments/Knapen_AOT/AOT_stimuli/pictures/0265_fw.png	193.67835140228271	1.05837082862854
137	129.9266927242279	response	0	k		135.0	/experiments/Knapen_AOT/AOT_stimuli/pictures/0265_fw.png	194.72021079063416	
138	129.943204164505	picture	0		205	136.0	/experiments/Knapen_AOT/AOT_stimuli/pictures/0540_fw.png	194.73672223091125	1.7166616916656494
138	131.6433765888214	response	0	k		136.0	/experiments/Knapen_AOT/AOT_stimuli/pictures/0540_fw.png	196.43689465522766	
139	131.65986585617065	picture	0		102	137.0	/experiments/Knapen_AOT/AOT_stimuli/pictures/1032_fw.png	196.4533839225769	0.8508565425872803
139	132.50173044204712	response	0	k		137.0	/experiments/Knapen_AOT/AOT_stimuli/pictures/1032_fw.png	197.29524850845337	
140	132.51072239875793	picture	0		86	138.0	/experiments/Knapen_AOT/AOT_stimuli/pictures/0667_fw.png	197.30424046516418	0.7221665382385254
140	133.21840643882751	response	0	k		138.0	/experiments/Knapen_AOT/AOT_stimuli/pictures/0667_fw.png	198.01192450523376	
141	133.23288893699646	picture	0		91	139.0	/experiments/Knapen_AOT/AOT_stimuli/pictures/0290_fw.png	198.0264070034027	0.7638900279998779
141	133.98506140708923	response	0	j		139.0	/experiments/Knapen_AOT/AOT_stimuli/pictures/0290_fw.png	198.77857947349548	
142	133.99677896499634	picture	0		104	140.0	/experiments/Knapen_AOT/AOT_stimuli/pictures/1405_fw.png	198.7902970314026	0.8680591583251953
142	134.8517746925354	response	0	k		140.0	/experiments/Knapen_AOT/AOT_stimuli/pictures/1405_fw.png	199.64529275894165	
143	134.86483812332153	picture	0		95	141.0	/experiments/Knapen_AOT/AOT_stimuli/pictures/0446_fw.png	199.65835618972778	0.7987020015716553
143	135.6517617702484	response	0	j		141.0	/experiments/Knapen_AOT/AOT_stimuli/pictures/0446_fw.png	200.44527983665466	
144	135.6635401248932	picture	0		86	142.0	/experiments/Knapen_AOT/AOT_stimuli/pictures/1905_fw.png	200.45705819129944	0.71523118019104
144	136.36847448349	response	0	j		142.0	/experiments/Knapen_AOT/AOT_stimuli/pictures/1905_fw.png	201.16199254989624	
145	136.37877130508423	picture	0		89	143.0	/experiments/Knapen_AOT/AOT_stimuli/pictures/1000_fw.png	201.17228937149048	0.7478733062744141
145	137.11037945747375	response	0	k		143.0	/experiments/Knapen_AOT/AOT_stimuli/pictures/1000_fw.png	201.90389752388	
146	137.12664461135864	picture	0		98	144.0	/experiments/Knapen_AOT/AOT_stimuli/pictures/2134_fw.png	201.9201626777649	0.8250086307525635
146	137.93507432937622	response	0	k		144.0	/experiments/Knapen_AOT/AOT_stimuli/pictures/2134_fw.png	202.72859239578247	
147	137.9516532421112	picture	0		90	145.0	/experiments/Knapen_AOT/AOT_stimuli/pictures/1508_fw.png	202.74517130851746	0.7535138130187988
147	138.69341897964478	response	0	j		145.0	/experiments/Knapen_AOT/AOT_stimuli/pictures/1508_fw.png	203.48693704605103	
148	138.70516705513	picture	0		96	146.0	/experiments/Knapen_AOT/AOT_stimuli/pictures/1320_fw.png	203.49868512153625	0.7986085414886475
148	139.49386405944824	response	0	k		146.0	/experiments/Knapen_AOT/AOT_stimuli/pictures/1320_fw.png	204.2873821258545	
149	139.50377559661865	picture	0		102	147.0	/experiments/Knapen_AOT/AOT_stimuli/pictures/0274_fw.png	204.2972936630249	0.8478362560272217
149	140.34348464012146	response	0	k		147.0	/experiments/Knapen_AOT/AOT_stimuli/pictures/0274_fw.png	205.1370027065277	
150	140.35161185264587	picture	0		87	148.0	/experiments/Knapen_AOT/AOT_stimuli/pictures/0842_fw.png	205.14512991905212	0.728593111038208
150	141.0610203742981	response	0	j		148.0	/experiments/Knapen_AOT/AOT_stimuli/pictures/0842_fw.png	205.85453844070435	
151	141.08020496368408	picture	0		92	149.0	/experiments/Knapen_AOT/AOT_stimuli/pictures/1750_fw.png	205.87372303009033	0.763831377029419
151	141.83515858650208	response	0	k		149.0	/experiments/Knapen_AOT/AOT_stimuli/pictures/1750_fw.png	206.62867665290833	
152	141.8440363407135	picture	0		90	150.0	/experiments/Knapen_AOT/AOT_stimuli/pictures/0544_fw.png	206.63755440711975	0.7576086521148682
152	142.5852644443512	response	0	j		150.0	/experiments/Knapen_AOT/AOT_stimuli/pictures/0544_fw.png	207.37878251075745	
153	142.60164499282837	picture	0		98	151.0	/experiments/Knapen_AOT/AOT_stimuli/pictures/1662_fw.png	207.39516305923462	0.8250339031219482
153	143.41031455993652	response	0	j		151.0	/experiments/Knapen_AOT/AOT_stimuli/pictures/1662_fw.png	208.20383262634277	
154	143.42667889595032	picture	0		87	152.0	/experiments/Knapen_AOT/AOT_stimuli/pictures/2154_fw.png	208.22019696235657	0.7333493232727051
154	144.1435673236847	response	0	j		152.0	/experiments/Knapen_AOT/AOT_stimuli/pictures/2154_fw.png	208.93708539009094	
155	144.16002821922302	picture	0		96	153.0	/experiments/Knapen_AOT/AOT_stimuli/pictures/1435_fw.png	208.95354628562927	0.8021805286407471
155	144.9521062374115	response	0	j		153.0	/experiments/Knapen_AOT/AOT_stimuli/pictures/1435_fw.png	209.74562430381775	
156	144.96220874786377	picture	0		104	154.0	/experiments/Knapen_AOT/AOT_stimuli/pictures/0921_fw.png	209.75572681427002	0.872840404510498
156	145.81874203681946	response	0	j		154.0	/experiments/Knapen_AOT/AOT_stimuli/pictures/0921_fw.png	210.6122601032257	
157	145.83504915237427	picture	0		107	155.0	/experiments/Knapen_AOT/AOT_stimuli/pictures/0091_fw.png	210.62856721878052	0.8979649543762207
157	146.71858429908752	response	0	j		155.0	/experiments/Knapen_AOT/AOT_stimuli/pictures/0091_fw.png	211.51210236549377	
158	146.7330141067505	picture	0		90	156.0	/experiments/Knapen_AOT/AOT_stimuli/pictures/1793_fw.png	211.52653217315674	0.7603936195373535
158	147.4696192741394	response	0	j		156.0	/experiments/Knapen_AOT/AOT_stimuli/pictures/1793_fw.png	212.26313734054565	
159	147.49340772628784	picture	0		93	157.0	/experiments/Knapen_AOT/AOT_stimuli/pictures/0109_fw.png	212.2869257926941	0.7833313941955566
159	148.26033067703247	response	0	j		157.0	/experiments/Knapen_AOT/AOT_stimuli/pictures/0109_fw.png	213.05384874343872	
160	148.2767391204834	picture	0		95	158.0	/experiments/Knapen_AOT/AOT_stimuli/pictures/1764_fw.png	213.07025718688965	0.9285478591918945
160	149.1936104297638	response	0	k		158.0	/experiments/Knapen_AOT/AOT_stimuli/pictures/1764_fw.png	213.98712849617004	
161	149.2052869796753	picture	0		98	159.0	/experiments/Knapen_AOT/AOT_stimuli/pictures/1530_fw.png	213.99880504608154	0.8131208419799805
161	150.01031374931335	response	0	k		159.0	/experiments/Knapen_AOT/AOT_stimuli/pictures/1530_fw.png	214.8038318157196	
162	150.01840782165527	picture	0		92	160.0	/experiments/Knapen_AOT/AOT_stimuli/pictures/0769_fw.png	214.81192588806152	0.7750134468078613
162	150.77707767486572	response	0	j		160.0	/experiments/Knapen_AOT/AOT_stimuli/pictures/0769_fw.png	215.57059574127197	
163	150.79342126846313	picture	0		210	161.0	/experiments/Knapen_AOT/AOT_stimuli/pictures/1157_fw.png	215.58693933486938	1.7520313262939453
163	152.53534054756165	response	0	j		161.0	/experiments/Knapen_AOT/AOT_stimuli/pictures/1157_fw.png	217.3288586139679	
164	152.54545259475708	picture	0		108	162.0	/experiments/Knapen_AOT/AOT_stimuli/pictures/2168_fw.png	217.33897066116333	0.9029719829559326
164	153.4353346824646	response	0	k		162.0	/experiments/Knapen_AOT/AOT_stimuli/pictures/2168_fw.png	218.22885274887085	
165	153.448424577713	picture	0		76	163.0	/experiments/Knapen_AOT/AOT_stimuli/pictures/1563_fw.png	218.24194264411926	0.6457474231719971
165	154.07732772827148	response	0	k		163.0	/experiments/Knapen_AOT/AOT_stimuli/pictures/1563_fw.png	218.87084579467773	
166	154.094172000885	picture	0		160	164.0	/experiments/Knapen_AOT/AOT_stimuli/pictures/2003_fw.png	218.88769006729126	1.3332312107086182
166	155.4186773300171	response	0	k		164.0	/experiments/Knapen_AOT/AOT_stimuli/pictures/2003_fw.png	220.21219539642334	
167	155.42740321159363	picture	0		102	165.0	/experiments/Knapen_AOT/AOT_stimuli/pictures/0097_fw.png	220.22092127799988	0.8542749881744385
167	156.2611906528473	response	0	k		165.0	/experiments/Knapen_AOT/AOT_stimuli/pictures/0097_fw.png	221.05470871925354	
168	156.28167819976807	picture	0		90	166.0	/experiments/Knapen_AOT/AOT_stimuli/pictures/0861_fw.png	221.07519626617432	0.7499876022338867
168	157.01867389678955	response	0	j		166.0	/experiments/Knapen_AOT/AOT_stimuli/pictures/0861_fw.png	221.8121919631958	
169	157.03166580200195	picture	0		130	167.0	/experiments/Knapen_AOT/AOT_stimuli/pictures/0648_fw.png	221.8251838684082	1.0902955532073975
169	158.1104030609131	response	0	j		167.0	/experiments/Knapen_AOT/AOT_stimuli/pictures/0648_fw.png	222.90392112731934	
170	158.12196135520935	picture	0		88	168.0	/experiments/Knapen_AOT/AOT_stimuli/pictures/0636_fw.png	222.9154794216156	0.7382385730743408
170	158.84375953674316	response	0	j		168.0	/experiments/Knapen_AOT/AOT_stimuli/pictures/0636_fw.png	223.6372776031494	
171	158.8601999282837	picture	0		101	169.0	/experiments/Knapen_AOT/AOT_stimuli/pictures/1616_fw.png	223.65371799468994	0.8500025272369385
171	159.69372272491455	response	0	k		169.0	/experiments/Knapen_AOT/AOT_stimuli/pictures/1616_fw.png	224.4872407913208	
172	159.71020245552063	picture	0		106	170.0	/experiments/Knapen_AOT/AOT_stimuli/pictures/0582_fw.png	224.50372052192688	0.8840088844299316
172	160.58542132377625	response	0	k		170.0	/experiments/Knapen_AOT/AOT_stimuli/pictures/0582_fw.png	225.3789393901825	
173	160.59421133995056	picture	0		102	171.0	/experiments/Knapen_AOT/AOT_stimuli/pictures/1885_fw.png	225.3877294063568	0.857703447341919
173	161.43542408943176	response	0	k		171.0	/experiments/Knapen_AOT/AOT_stimuli/pictures/1885_fw.png	226.228942155838	
174	161.45191478729248	picture	0		143	172.0	/experiments/Knapen_AOT/AOT_stimuli/pictures/1731_fw.png	226.24543285369873	1.2000491619110107
174	162.6354513168335	response	0	k		172.0	/experiments/Knapen_AOT/AOT_stimuli/pictures/1731_fw.png	227.42896938323975	
175	162.6519639492035	picture	0		110	173.0	/experiments/Knapen_AOT/AOT_stimuli/pictures/2152_fw.png	227.44548201560974	0.9214985370635986
175	163.56046438217163	response	0	j		173.0	/experiments/Knapen_AOT/AOT_stimuli/pictures/2152_fw.png	228.35398244857788	
176	163.5734624862671	picture	0		108	174.0	/experiments/Knapen_AOT/AOT_stimuli/pictures/1624_fw.png	228.36698055267334	0.911829948425293
176	164.4617965221405	response	0	k		174.0	/experiments/Knapen_AOT/AOT_stimuli/pictures/1624_fw.png	229.25531458854675	
177	164.48529243469238	picture	0		148	175.0	/experiments/Knapen_AOT/AOT_stimuli/pictures/2179_fw.png	229.27881050109863	1.233973741531372
177	165.7105267047882	response	0	k		175.0	/experiments/Knapen_AOT/AOT_stimuli/pictures/2179_fw.png	230.50404477119446	
178	165.71926617622375	picture	0		142	176.0	/experiments/Knapen_AOT/AOT_stimuli/pictures/0232_fw.png	230.51278424263	1.1874749660491943
178	166.89381051063538	response	0	k		176.0	/experiments/Knapen_AOT/AOT_stimuli/pictures/0232_fw.png	231.68732857704163	
179	166.90674114227295	picture	0		93	177.0	/experiments/Knapen_AOT/AOT_stimuli/pictures/1816_fw.png	231.7002592086792	0.7847437858581543
179	167.66977500915527	response	0	j		177.0	/experiments/Knapen_AOT/AOT_stimuli/pictures/1816_fw.png	232.46329307556152	
180	167.6914849281311	picture	0		94	178.0	/experiments/Knapen_AOT/AOT_stimuli/pictures/0936_fw.png	232.48500299453735	0.7854757308959961
180	168.46121859550476	response	0	j		178.0	/experiments/Knapen_AOT/AOT_stimuli/pictures/0936_fw.png	233.254736661911	
181	168.4769606590271	picture	0		138	179.0	/experiments/Knapen_AOT/AOT_stimuli/pictures/0883_fw.png	233.27047872543335	1.1520535945892334
181	169.6189103126526	response	0	j		179.0	/experiments/Knapen_AOT/AOT_stimuli/pictures/0883_fw.png	234.41242837905884	
182	169.62901425361633	picture	0		97	180.0	/experiments/Knapen_AOT/AOT_stimuli/pictures/1447_fw.png	234.42253232002258	0.8147072792053223
182	170.42720413208008	response	0	j		180.0	/experiments/Knapen_AOT/AOT_stimuli/pictures/1447_fw.png	235.22072219848633	
183	170.44372153282166	picture	0		100	181.0	/experiments/Knapen_AOT/AOT_stimuli/pictures/2001_fw.png	235.2372395992279	0.8380463123321533
183	171.26151323318481	response	0	j		181.0	/experiments/Knapen_AOT/AOT_stimuli/pictures/2001_fw.png	236.05503129959106	
184	171.2817678451538	picture	0		99	182.0	/experiments/Knapen_AOT/AOT_stimuli/pictures/1814_fw.png	236.07528591156006	0.8369467258453369
184	172.10222625732422	response	0	k		182.0	/experiments/Knapen_AOT/AOT_stimuli/pictures/1814_fw.png	236.89574432373047	
185	172.11871457099915	picture	0		95	183.0	/experiments/Knapen_AOT/AOT_stimuli/pictures/1901_fw.png	236.9122326374054	0.7950026988983154
185	172.90225911140442	response	0	j		183.0	/experiments/Knapen_AOT/AOT_stimuli/pictures/1901_fw.png	237.69577717781067	
186	172.91371726989746	picture	0		101	184.0	/experiments/Knapen_AOT/AOT_stimuli/pictures/0070_fw.png	237.7072353363037	0.8467271327972412
186	173.74395489692688	response	0	k		184.0	/experiments/Knapen_AOT/AOT_stimuli/pictures/0070_fw.png	238.53747296333313	
187	173.7604444026947	picture	0		91	185.0	/experiments/Knapen_AOT/AOT_stimuli/pictures/1887_fw.png	238.55396246910095	0.7666163444519043
187	174.51127409934998	response	0	j		185.0	/experiments/Knapen_AOT/AOT_stimuli/pictures/1887_fw.png	239.30479216575623	
188	174.5270607471466	picture	0		87	186.0	/experiments/Knapen_AOT/AOT_stimuli/pictures/0777_fw.png	239.32057881355286	0.7333581447601318
188	175.24420547485352	response	0	j		186.0	/experiments/Knapen_AOT/AOT_stimuli/pictures/0777_fw.png	240.03772354125977	
189	175.26041889190674	picture	0		88	187.0	/experiments/Knapen_AOT/AOT_stimuli/pictures/1777_fw.png	240.053936958313	0.7416524887084961
189	175.98559832572937	response	0	j		187.0	/experiments/Knapen_AOT/AOT_stimuli/pictures/1777_fw.png	240.77911639213562	
190	176.00207138061523	picture	0		116	188.0	/experiments/Knapen_AOT/AOT_stimuli/pictures/1868_fw.png	240.79558944702148	0.9672696590423584
190	176.96058654785156	response	0	j		188.0	/experiments/Knapen_AOT/AOT_stimuli/pictures/1868_fw.png	241.7541046142578	
191	176.9693410396576	picture	0		100	189.0	/experiments/Knapen_AOT/AOT_stimuli/pictures/0891_fw.png	241.76285910606384	0.8410885334014893
191	177.7939863204956	response	0	k		189.0	/experiments/Knapen_AOT/AOT_stimuli/pictures/0891_fw.png	242.58750438690186	
192	177.81042957305908	picture	0		86	190.0	/experiments/Knapen_AOT/AOT_stimuli/pictures/1095_fw.png	242.60394763946533	0.7213904857635498
192	178.51894998550415	response	0	k		190.0	/experiments/Knapen_AOT/AOT_stimuli/pictures/1095_fw.png	243.3124680519104	
193	178.53182005882263	picture	0		109	191.0	/experiments/Knapen_AOT/AOT_stimuli/pictures/0731_fw.png	243.32533812522888	0.9166836738586426
193	179.43563771247864	response	0	k		191.0	/experiments/Knapen_AOT/AOT_stimuli/pictures/0731_fw.png	244.2291557788849	
194	179.44850373268127	picture	0		85	192.0	/experiments/Knapen_AOT/AOT_stimuli/pictures/1481_fw.png	244.24202179908752	0.7152736186981201
194	180.1523129940033	response	0	k		192.0	/experiments/Knapen_AOT/AOT_stimuli/pictures/1481_fw.png	244.94583106040955	
195	180.1637773513794	picture	0		93	193.0	/experiments/Knapen_AOT/AOT_stimuli/pictures/0661_fw.png	244.95729541778564	0.7778036594390869
195	180.92733240127563	response	0	k		193.0	/experiments/Knapen_AOT/AOT_stimuli/pictures/0661_fw.png	245.72085046768188	
196	180.94158101081848	picture	0		93	194.0	/experiments/Knapen_AOT/AOT_stimuli/pictures/2178_fw.png	245.73509907722473	0.7777700424194336
196	181.71071362495422	response	0	j		194.0	/experiments/Knapen_AOT/AOT_stimuli/pictures/2178_fw.png	246.50423169136047	
197	181.71935105323792	picture	0		121	195.0	/experiments/Knapen_AOT/AOT_stimuli/pictures/1445_fw.png	246.51286911964417	1.0161609649658203
197	182.71907305717468	response	0	j		195.0	/experiments/Knapen_AOT/AOT_stimuli/pictures/1445_fw.png	247.51259112358093	
198	182.73551201820374	picture	0		93	196.0	/experiments/Knapen_AOT/AOT_stimuli/pictures/1197_fw.png	247.52903008460999	0.7833254337310791
198	183.5024790763855	response	0	j		196.0	/experiments/Knapen_AOT/AOT_stimuli/pictures/1197_fw.png	248.29599714279175	
199	183.51883745193481	picture	0		92	197.0	/experiments/Knapen_AOT/AOT_stimuli/pictures/1108_fw.png	248.31235551834106	0.7700254917144775
199	184.27750825881958	response	0	j		197.0	/experiments/Knapen_AOT/AOT_stimuli/pictures/1108_fw.png	249.07102632522583	
200	184.2888629436493	picture	0		123	198.0	/experiments/Knapen_AOT/AOT_stimuli/pictures/0197_fw.png	249.08238101005554	1.0278894901275635
200	185.30243039131165	response	0	j		198.0	/experiments/Knapen_AOT/AOT_stimuli/pictures/0197_fw.png	250.0959484577179	
201	185.31675243377686	picture	0		123	199.0	/experiments/Knapen_AOT/AOT_stimuli/pictures/0978_fw.png	250.1102705001831	1.0354440212249756
201	186.33578634262085	response	0	k		199.0	/experiments/Knapen_AOT/AOT_stimuli/pictures/0978_fw.png	251.1293044090271	
202	186.35219645500183	picture	0		94	200.0	/experiments/Knapen_AOT/AOT_stimuli/pictures/1333_fw.png	251.14571452140808	0.7838609218597412
202	187.12747073173523	response	0	j		200.0	/experiments/Knapen_AOT/AOT_stimuli/pictures/1333_fw.png	251.92098879814148	
203	187.13605737686157	picture	0		94	201.0	/experiments/Knapen_AOT/AOT_stimuli/pictures/0497_fw.png	251.92957544326782	0.7847228050231934
203	187.91078543663025	response	0	k		201.0	/experiments/Knapen_AOT/AOT_stimuli/pictures/0497_fw.png	252.7043035030365	
204	187.92078018188477	picture	0		137	202.0	/experiments/Knapen_AOT/AOT_stimuli/pictures/0443_fw.png	252.71429824829102	1.1481547355651855
204	189.0525004863739	response	0	j		202.0	/experiments/Knapen_AOT/AOT_stimuli/pictures/0443_fw.png	253.84601855278015	
205	189.06893491744995	picture	0		135	203.0	/experiments/Knapen_AOT/AOT_stimuli/pictures/1499_fw.png	253.8624529838562	1.1333274841308594
205	190.18576073646545	response	0	k		203.0	/experiments/Knapen_AOT/AOT_stimuli/pictures/1499_fw.png	254.9792788028717	
206	190.2022624015808	picture	0		107	204.0	/experiments/Knapen_AOT/AOT_stimuli/pictures/2089_fw.png	254.99578046798706	0.9000468254089355
206	191.08580112457275	response	0	j		204.0	/experiments/Knapen_AOT/AOT_stimuli/pictures/2089_fw.png	255.879319190979	
207	191.10230922698975	picture	0		119	205.0	/experiments/Knapen_AOT/AOT_stimuli/pictures/1708_fw.png	255.895827293396	0.9999690055847168
207	192.0857915878296	response	0	k		205.0	/experiments/Knapen_AOT/AOT_stimuli/pictures/1708_fw.png	256.87930965423584	
208	192.10227823257446	picture	0		94	206.0	/experiments/Knapen_AOT/AOT_stimuli/pictures/0322_fw.png	256.8957962989807	0.7916779518127441
208	192.87746906280518	response	0	k		206.0	/experiments/Knapen_AOT/AOT_stimuli/pictures/0322_fw.png	257.6709871292114	
209	192.8939561843872	picture	0		108	207.0	/experiments/Knapen_AOT/AOT_stimuli/pictures/2151_fw.png	257.68747425079346	0.9083764553070068
209	193.78582048416138	response	0	k		207.0	/experiments/Knapen_AOT/AOT_stimuli/pictures/2151_fw.png	258.5793385505676	
210	193.8023326396942	picture	0		90	208.0	/experiments/Knapen_AOT/AOT_stimuli/pictures/2093_fw.png	258.59585070610046	0.7503933906555176
210	194.54426455497742	response	0	k		208.0	/experiments/Knapen_AOT/AOT_stimuli/pictures/2093_fw.png	259.33778262138367	
211	194.55272603034973	picture	0		87	209.0	/experiments/Knapen_AOT/AOT_stimuli/pictures/0805_fw.png	259.346244096756	0.7329447269439697
211	195.26947236061096	response	0	k		209.0	/experiments/Knapen_AOT/AOT_stimuli/pictures/0805_fw.png	260.0629904270172	
212	195.2856707572937	picture	0		102	210.0	/experiments/Knapen_AOT/AOT_stimuli/pictures/1331_fw.png	260.07918882369995	0.8504581451416016
212	196.1275610923767	response	0	j		210.0	/experiments/Knapen_AOT/AOT_stimuli/pictures/1331_fw.png	260.92107915878296	
213	196.1361289024353	picture	0		104	211.0	/experiments/Knapen_AOT/AOT_stimuli/pictures/0082_fw.png	260.92964696884155	0.868053674697876
213	196.99420142173767	response	0	j		211.0	/experiments/Knapen_AOT/AOT_stimuli/pictures/0082_fw.png	261.7877194881439	
214	197.00418257713318	picture	0		177	212.0	/experiments/Knapen_AOT/AOT_stimuli/pictures/0734_fw.png	261.79770064353943	1.4815254211425781
214	198.4693479537964	response	0	j		212.0	/experiments/Knapen_AOT/AOT_stimuli/pictures/0734_fw.png	263.26286602020264	
215	198.48570799827576	picture	0		99	213.0	/experiments/Knapen_AOT/AOT_stimuli/pictures/1285_fw.png	263.279226064682	0.8311688899993896
215	199.30258178710938	response	0	j		213.0	/experiments/Knapen_AOT/AOT_stimuli/pictures/1285_fw.png	264.0960998535156	
216	199.31687688827515	picture	0		89	214.0	/experiments/Knapen_AOT/AOT_stimuli/pictures/0979_fw.png	264.1103949546814	0.7521729469299316
216	200.0527217388153	response	0	j		214.0	/experiments/Knapen_AOT/AOT_stimuli/pictures/0979_fw.png	264.84623980522156	
217	200.06904983520508	picture	0		105	215.0	/experiments/Knapen_AOT/AOT_stimuli/pictures/1759_fw.png	264.8625679016113	0.8796329498291016
217	200.93589615821838	response	0	k		215.0	/experiments/Knapen_AOT/AOT_stimuli/pictures/1759_fw.png	265.72941422462463	
218	200.94868278503418	picture	0		84	216.0	/experiments/Knapen_AOT/AOT_stimuli/pictures/2125_fw.png	265.74220085144043	0.7037286758422852
218	201.63592290878296	response	0	j		216.0	/experiments/Knapen_AOT/AOT_stimuli/pictures/2125_fw.png	266.4294409751892	
219	201.65241146087646	picture	0		91	217.0	/experiments/Knapen_AOT/AOT_stimuli/pictures/2053_fw.png	266.4459295272827	0.7667021751403809
219	202.40260362625122	response	0	j		217.0	/experiments/Knapen_AOT/AOT_stimuli/pictures/2053_fw.png	267.19612169265747	
220	202.41911363601685	picture	0		82	218.0	/experiments/Knapen_AOT/AOT_stimuli/pictures/1654_fw.png	267.2126317024231	0.6916630268096924
220	203.0942952632904	response	0	j		218.0	/experiments/Knapen_AOT/AOT_stimuli/pictures/1654_fw.png	267.88781332969666	
221	203.11077666282654	picture	0		94	219.0	/experiments/Knapen_AOT/AOT_stimuli/pictures/0017_fw.png	267.9042947292328	0.7916769981384277
221	203.88602304458618	response	0	k		219.0	/experiments/Knapen_AOT/AOT_stimuli/pictures/0017_fw.png	268.67954111099243	
222	203.90245366096497	picture	0		93	220.0	/experiments/Knapen_AOT/AOT_stimuli/pictures/0253_fw.png	268.6959717273712	0.775496244430542
222	204.66174364089966	response	0	k		220.0	/experiments/Knapen_AOT/AOT_stimuli/pictures/0253_fw.png	269.4552617073059	
223	204.6779499053955	picture	0		93	221.0	/experiments/Knapen_AOT/AOT_stimuli/pictures/1015_fw.png	269.47146797180176	0.7776803970336914
223	205.4443702697754	response	0	k		221.0	/experiments/Knapen_AOT/AOT_stimuli/pictures/1015_fw.png	270.23788833618164	
224	205.4556303024292	picture	0		122	222.0	/experiments/Knapen_AOT/AOT_stimuli/pictures/0326_fw.png	270.24914836883545	1.0138819217681885
224	206.45372819900513	response	0	k		222.0	/experiments/Knapen_AOT/AOT_stimuli/pictures/0326_fw.png	271.2472462654114	
225	206.4695122241974	picture	0		83	223.0	/experiments/Knapen_AOT/AOT_stimuli/pictures/1553_fw.png	271.26303029060364	0.6996259689331055
225	207.15266513824463	response	0	j		223.0	/experiments/Knapen_AOT/AOT_stimuli/pictures/1553_fw.png	271.9461832046509	
226	207.1691381931305	picture	0		130	224.0	/experiments/Knapen_AOT/AOT_stimuli/pictures/1021_fw.png	271.96265625953674	1.0916974544525146
226	208.24443697929382	response	0	k		224.0	/experiments/Knapen_AOT/AOT_stimuli/pictures/1021_fw.png	273.0379550457001	
227	208.260835647583	picture	0		89	225.0	/experiments/Knapen_AOT/AOT_stimuli/pictures/0890_fw.png	273.05435371398926	0.7500138282775879
227	208.99436688423157	response	0	k		225.0	/experiments/Knapen_AOT/AOT_stimuli/pictures/0890_fw.png	273.7878849506378	
228	209.0108494758606	picture	0		95	226.0	/experiments/Knapen_AOT/AOT_stimuli/pictures/0701_fw.png	273.80436754226685	0.799978494644165
228	209.79440331459045	response	0	j		226.0	/experiments/Knapen_AOT/AOT_stimuli/pictures/0701_fw.png	274.5879213809967	
229	209.81082797050476	picture	0		82	227.0	/experiments/Knapen_AOT/AOT_stimuli/pictures/0983_fw.png	274.604346036911	0.6916780471801758
229	210.48608589172363	response	0	k		227.0	/experiments/Knapen_AOT/AOT_stimuli/pictures/0983_fw.png	275.2796039581299	
230	210.50250601768494	picture	0		91	228.0	/experiments/Knapen_AOT/AOT_stimuli/pictures/2098_fw.png	275.2960240840912	0.7666878700256348
230	211.25356912612915	response	0	k		228.0	/experiments/Knapen_AOT/AOT_stimuli/pictures/2098_fw.png	276.0470871925354	
231	211.26919388771057	picture	0		98	229.0	/experiments/Knapen_AOT/AOT_stimuli/pictures/1203_fw.png	276.0627119541168	0.8250834941864014
231	212.07770657539368	response	0	k		229.0	/experiments/Knapen_AOT/AOT_stimuli/pictures/1203_fw.png	276.8712246417999	
232	212.09427738189697	picture	0		93	230.0	/experiments/Knapen_AOT/AOT_stimuli/pictures/0393_fw.png	276.8877954483032	0.7832748889923096
232	212.86133241653442	response	0	j		230.0	/experiments/Knapen_AOT/AOT_stimuli/pictures/0393_fw.png	277.6548504829407	
233	212.87755227088928	picture	0		94	231.0	/experiments/Knapen_AOT/AOT_stimuli/pictures/0678_fw.png	277.67107033729553	0.7917163372039795
233	213.65272116661072	response	0	k		231.0	/experiments/Knapen_AOT/AOT_stimuli/pictures/0678_fw.png	278.44623923301697	
234	213.66926860809326	picture	0		84	232.0	/experiments/Knapen_AOT/AOT_stimuli/pictures/1857_fw.png	278.4627866744995	0.7032225131988525
234	214.36106061935425	response	0	k		232.0	/experiments/Knapen_AOT/AOT_stimuli/pictures/1857_fw.png	279.1545786857605	
235	214.37249112129211	picture	0		91	233.0	/experiments/Knapen_AOT/AOT_stimuli/pictures/0233_fw.png	279.16600918769836	0.7634193897247314
235	215.11954426765442	response	0	k		233.0	/experiments/Knapen_AOT/AOT_stimuli/pictures/0233_fw.png	279.91306233406067	
236	215.13591051101685	picture	0		94	234.0	/experiments/Knapen_AOT/AOT_stimuli/pictures/1825_fw.png	279.9294285774231	0.7916786670684814
236	215.91120839118958	response	0	k		234.0	/experiments/Knapen_AOT/AOT_stimuli/pictures/1825_fw.png	280.7047264575958	
237	215.92758917808533	picture	0		112	235.0	/experiments/Knapen_AOT/AOT_stimuli/pictures/1554_fw.png	280.7211072444916	0.9417035579681396
237	216.85275864601135	response	0	j		235.0	/experiments/Knapen_AOT/AOT_stimuli/pictures/1554_fw.png	281.6462767124176	
238	216.86929273605347	picture	0		107	236.0	/experiments/Knapen_AOT/AOT_stimuli/pictures/0410_fw.png	281.6628108024597	0.899977445602417
238	217.752760887146	response	0	k		236.0	/experiments/Knapen_AOT/AOT_stimuli/pictures/0410_fw.png	282.54627895355225	
239	217.76927018165588	picture	0		104	237.0	/experiments/Knapen_AOT/AOT_stimuli/pictures/0334_fw.png	282.56278824806213	0.8750452995300293
239	218.62795996665955	response	0	j		237.0	/experiments/Knapen_AOT/AOT_stimuli/pictures/0334_fw.png	283.4214780330658	
240	218.6443154811859	picture	0		81	238.0	/experiments/Knapen_AOT/AOT_stimuli/pictures/0676_fw.png	283.43783354759216	0.6795079708099365
240	219.3111834526062	response	0	j		238.0	/experiments/Knapen_AOT/AOT_stimuli/pictures/0676_fw.png	284.10470151901245	
241	219.32382345199585	picture	0		88	239.0	/experiments/Knapen_AOT/AOT_stimuli/pictures/0739_fw.png	284.1173415184021	0.7371261119842529
241	220.0445146560669	response	0	k		239.0	/experiments/Knapen_AOT/AOT_stimuli/pictures/0739_fw.png	284.83803272247314	
242	220.0609495639801	picture	0		90	240.0	/experiments/Knapen_AOT/AOT_stimuli/pictures/1294_fw.png	284.85446763038635	0.758368730545044
242	220.80304527282715	response	0	j		240.0	/experiments/Knapen_AOT/AOT_stimuli/pictures/1294_fw.png	285.5965633392334	
243	220.81931829452515	picture	0		97	241.0	/experiments/Knapen_AOT/AOT_stimuli/pictures/1721_fw.png	285.6128363609314	0.8166799545288086
243	221.61963772773743	response	0	j		241.0	/experiments/Knapen_AOT/AOT_stimuli/pictures/1721_fw.png	286.4131557941437	
244	221.63599824905396	picture	0		88	242.0	/experiments/Knapen_AOT/AOT_stimuli/pictures/1671_fw.png	286.4295163154602	0.7416846752166748
244	222.3611924648285	response	0	k		242.0	/experiments/Knapen_AOT/AOT_stimuli/pictures/1671_fw.png	287.15471053123474	
245	222.37768292427063	picture	0		100	243.0	/experiments/Knapen_AOT/AOT_stimuli/pictures/0050_fw.png	287.1712009906769	0.835012674331665
245	223.2028465270996	response	0	j		243.0	/experiments/Knapen_AOT/AOT_stimuli/pictures/0050_fw.png	287.99636459350586	
246	223.2126955986023	picture	0		88	244.0	/experiments/Knapen_AOT/AOT_stimuli/pictures/1133_fw.png	288.00621366500854	0.7361624240875244
246	223.93620371818542	response	0	k		244.0	/experiments/Knapen_AOT/AOT_stimuli/pictures/1133_fw.png	288.7297217845917	
247	223.94885802268982	picture	0		128	245.0	/experiments/Knapen_AOT/AOT_stimuli/pictures/1990_fw.png	288.74237608909607	1.0704948902130127
247	225.0028531551361	response	0	k		245.0	/experiments/Knapen_AOT/AOT_stimuli/pictures/1990_fw.png	289.79637122154236	
248	225.01935291290283	picture	0		116	246.0	/experiments/Knapen_AOT/AOT_stimuli/pictures/0961_fw.png	289.8128709793091	0.9750216007232666
248	225.97808027267456	response	0	k		246.0	/experiments/Knapen_AOT/AOT_stimuli/pictures/0961_fw.png	290.7715983390808	
249	225.9943745136261	picture	0		107	247.0	/experiments/Knapen_AOT/AOT_stimuli/pictures/1980_fw.png	290.78789258003235	0.8919916152954102
249	226.87788558006287	response	0	j		247.0	/experiments/Knapen_AOT/AOT_stimuli/pictures/1980_fw.png	291.6714036464691	
250	226.8863661289215	picture	0		121	248.0	/experiments/Knapen_AOT/AOT_stimuli/pictures/0477_fw.png	291.67988419532776	1.0163700580596924
250	227.88663411140442	response	0	k		248.0	/experiments/Knapen_AOT/AOT_stimuli/pictures/0477_fw.png	292.68015217781067	
251	227.9027361869812	picture	0		104	249.0	/experiments/Knapen_AOT/AOT_stimuli/pictures/1229_fw.png	292.69625425338745	0.8750350475311279
251	228.76175928115845	response	0	j		249.0	/experiments/Knapen_AOT/AOT_stimuli/pictures/1229_fw.png	293.5552773475647	
252	228.77777123451233	picture	0		105	250.0	/experiments/Knapen_AOT/AOT_stimuli/pictures/1676_fw.png	293.5712893009186	0.8833494186401367
252	229.6446409225464	response	0	k		250.0	/experiments/Knapen_AOT/AOT_stimuli/pictures/1676_fw.png	294.43815898895264	
253	229.66112065315247	picture	0		96	251.0	/experiments/Knapen_AOT/AOT_stimuli/pictures/0255_fw.png	294.4546387195587	0.8016312122344971
253	230.44575309753418	response	0	k		251.0	/experiments/Knapen_AOT/AOT_stimuli/pictures/0255_fw.png	295.23927116394043	
254	230.46275186538696	picture	0		98	252.0	/experiments/Knapen_AOT/AOT_stimuli/pictures/2002_fw.png	295.2562699317932	0.8233554363250732
254	231.26961851119995	response	0	j		252.0	/experiments/Knapen_AOT/AOT_stimuli/pictures/2002_fw.png	296.0631365776062	
255	231.28610730171204	picture	0		97	253.0	/experiments/Knapen_AOT/AOT_stimuli/pictures/1300_fw.png	296.0796253681183	0.816657304763794
255	232.08645391464233	response	0	j		253.0	/experiments/Knapen_AOT/AOT_stimuli/pictures/1300_fw.png	296.8799719810486	
256	232.10276460647583	picture	0		81	254.0	/experiments/Knapen_AOT/AOT_stimuli/pictures/0524_fw.png	296.8962826728821	0.6834523677825928
256	232.76964473724365	response	0	j		254.0	/experiments/Knapen_AOT/AOT_stimuli/pictures/0524_fw.png	297.5631628036499	
257	232.78621697425842	picture	0		96	255.0	/experiments/Knapen_AOT/AOT_stimuli/pictures/0711_fw.png	297.5797350406647	0.8082826137542725
257	233.5783998966217	response	0	j		255.0	/experiments/Knapen_AOT/AOT_stimuli/pictures/0711_fw.png	298.37191796302795	
258	233.5944995880127	picture	0		99	256.0	/experiments/Knapen_AOT/AOT_stimuli/pictures/0101_fw.png	298.38801765441895	0.8333206176757812
258	234.4114682674408	response	0	k		256.0	/experiments/Knapen_AOT/AOT_stimuli/pictures/0101_fw.png	299.20498633384705	
259	234.42782020568848	picture	0		89	257.0	/experiments/Knapen_AOT/AOT_stimuli/pictures/2006_fw.png	299.2213382720947	0.7433121204376221
259	235.1613802909851	response	0	k		257.0	/experiments/Knapen_AOT/AOT_stimuli/pictures/2006_fw.png	299.95489835739136	
260	235.1711323261261	picture	0		86	258.0	/experiments/Knapen_AOT/AOT_stimuli/pictures/1479_fw.png	299.96465039253235	0.7233598232269287
260	235.8780734539032	response	0	k		258.0	/experiments/Knapen_AOT/AOT_stimuli/pictures/1479_fw.png	300.67159152030945	
261	235.89449214935303	picture	0		84	259.0	/experiments/Knapen_AOT/AOT_stimuli/pictures/1907_fw.png	300.6880102157593	0.7002427577972412
261	236.58636331558228	response	0	k		259.0	/experiments/Knapen_AOT/AOT_stimuli/pictures/1907_fw.png	301.3798813819885	
262	236.59473490715027	picture	0		107	260.0	/experiments/Knapen_AOT/AOT_stimuli/pictures/1455_fw.png	301.3882529735565	0.8998847007751465
262	237.47807669639587	response	0	j		260.0	/experiments/Knapen_AOT/AOT_stimuli/pictures/1455_fw.png	302.2715947628021	
263	237.49461960792542	picture	0		98	261.0	/experiments/Knapen_AOT/AOT_stimuli/pictures/0909_fw.png	302.28813767433167	0.8249189853668213
263	238.30335140228271	response	0	j		261.0	/experiments/Knapen_AOT/AOT_stimuli/pictures/0909_fw.png	303.09686946868896	
264	238.31953859329224	picture	0		89	262.0	/experiments/Knapen_AOT/AOT_stimuli/pictures/1281_fw.png	303.1130566596985	0.7474989891052246
264	239.04571413993835	response	0	k		262.0	/experiments/Knapen_AOT/AOT_stimuli/pictures/1281_fw.png	303.8392322063446	
265	239.06703758239746	picture	0		89	263.0	/experiments/Knapen_AOT/AOT_stimuli/pictures/0649_fw.png	303.8605556488037	0.752556324005127
265	239.80311918258667	response	0	k		263.0	/experiments/Knapen_AOT/AOT_stimuli/pictures/0649_fw.png	304.5966372489929	
266	239.8195939064026	picture	0		91	264.0	/experiments/Knapen_AOT/AOT_stimuli/pictures/1361_fw.png	304.61311197280884	0.7666449546813965
266	240.5698127746582	response	0	j		264.0	/experiments/Knapen_AOT/AOT_stimuli/pictures/1361_fw.png	305.36333084106445	
267	240.58623886108398	picture	0		95	265.0	/experiments/Knapen_AOT/AOT_stimuli/pictures/2067_fw.png	305.37975692749023	0.7999963760375977
267	241.3697898387909	response	0	k		265.0	/experiments/Knapen_AOT/AOT_stimuli/pictures/2067_fw.png	306.16330790519714	
268	241.38623523712158	picture	0		120	266.0	/experiments/Knapen_AOT/AOT_stimuli/pictures/0572_fw.png	306.17975330352783	1.008357286453247
268	242.37812089920044	response	0	j		266.0	/experiments/Knapen_AOT/AOT_stimuli/pictures/0572_fw.png	307.1716389656067	
269	242.39459252357483	picture	0		92	267.0	/experiments/Knapen_AOT/AOT_stimuli/pictures/1549_fw.png	307.1881105899811	0.7750110626220703
269	243.1531310081482	response	0	j		267.0	/experiments/Knapen_AOT/AOT_stimuli/pictures/1549_fw.png	307.94664907455444	
270	243.1696035861969	picture	0		85	268.0	/experiments/Knapen_AOT/AOT_stimuli/pictures/1999_fw.png	307.96312165260315	0.7166790962219238
270	243.86981177330017	response	0	k		268.0	/experiments/Knapen_AOT/AOT_stimuli/pictures/1999_fw.png	308.6633298397064	
271	243.88628268241882	picture	0		93	269.0	/experiments/Knapen_AOT/AOT_stimuli/pictures/0928_fw.png	308.6798007488251	0.7833259105682373
271	244.64546847343445	response	0	j		269.0	/experiments/Knapen_AOT/AOT_stimuli/pictures/0928_fw.png	309.4389865398407	
272	244.66960859298706	picture	0		89	270.0	/experiments/Knapen_AOT/AOT_stimuli/pictures/0504_fw.png	309.4631266593933	0.750028133392334
272	245.40315413475037	response	0	j		270.0	/experiments/Knapen_AOT/AOT_stimuli/pictures/0504_fw.png	310.1966722011566	
273	245.4196367263794	picture	0		87	271.0	/experiments/Knapen_AOT/AOT_stimuli/pictures/1988_fw.png	310.21315479278564	0.7307782173156738
273	246.1364710330963	response	0	k		271.0	/experiments/Knapen_AOT/AOT_stimuli/pictures/1988_fw.png	310.92998909950256	
274	246.15041494369507	picture	0		154	272.0	/experiments/Knapen_AOT/AOT_stimuli/pictures/1029_fw.png	310.9439330101013	1.294238567352295
274	247.4281554222107	response	0	k		272.0	/experiments/Knapen_AOT/AOT_stimuli/pictures/1029_fw.png	312.22167348861694	
275	247.44465351104736	picture	0		105	273.0	/experiments/Knapen_AOT/AOT_stimuli/pictures/2174_fw.png	312.2381715774536	0.883336067199707
275	248.31146812438965	response	0	k		273.0	/experiments/Knapen_AOT/AOT_stimuli/pictures/2174_fw.png	313.1049861907959	
276	248.32798957824707	picture	0		93	274.0	/experiments/Knapen_AOT/AOT_stimuli/pictures/0349_fw.png	313.1215076446533	0.7807233333587646
276	249.09484553337097	response	0	k		274.0	/experiments/Knapen_AOT/AOT_stimuli/pictures/0349_fw.png	313.8883635997772	
277	249.10871291160583	picture	0		88	275.0	/experiments/Knapen_AOT/AOT_stimuli/pictures/1199_fw.png	313.9022309780121	0.736133337020874
277	249.83648014068604	response	0	j		275.0	/experiments/Knapen_AOT/AOT_stimuli/pictures/1199_fw.png	314.6299982070923	
278	249.8448462486267	picture	0		89	276.0	/experiments/Knapen_AOT/AOT_stimuli/pictures/1328_fw.png	314.63836431503296	0.7500007152557373
278	250.57829809188843	response	0	j		276.0	/experiments/Knapen_AOT/AOT_stimuli/pictures/1328_fw.png	315.3718161582947	
279	250.59484696388245	picture	0		125	277.0	/experiments/Knapen_AOT/AOT_stimuli/pictures/1226_fw.png	315.3883650302887	1.049830675125122
279	251.6281623840332	response	0	j		277.0	/experiments/Knapen_AOT/AOT_stimuli/pictures/1226_fw.png	316.42168045043945	
280	251.64467763900757	picture	0		77	278.0	/experiments/Knapen_AOT/AOT_stimuli/pictures/1222_fw.png	316.4381957054138	0.6500382423400879
280	252.27824544906616	response	0	k		278.0	/experiments/Knapen_AOT/AOT_stimuli/pictures/1222_fw.png	317.0717635154724	
281	252.29471588134766	picture	0		84	279.0	/experiments/Knapen_AOT/AOT_stimuli/pictures/0845_fw.png	317.0882339477539	0.7083439826965332
281	252.98654437065125	response	0	j		279.0	/experiments/Knapen_AOT/AOT_stimuli/pictures/0845_fw.png	317.7800624370575	
282	253.0030598640442	picture	0		87	280.0	/experiments/Knapen_AOT/AOT_stimuli/pictures/1693_fw.png	317.79657793045044	0.7333354949951172
282	253.71990442276	response	0	j		280.0	/experiments/Knapen_AOT/AOT_stimuli/pictures/1693_fw.png	318.51342248916626	
283	253.7363953590393	picture	0		91	281.0	/experiments/Knapen_AOT/AOT_stimuli/pictures/1240_fw.png	318.52991342544556	0.7666723728179932
283	254.4865837097168	response	0	k		281.0	/experiments/Knapen_AOT/AOT_stimuli/pictures/1240_fw.png	319.28010177612305	
284	254.5030677318573	picture	0		97	282.0	/experiments/Knapen_AOT/AOT_stimuli/pictures/0113_fw.png	319.29658579826355	0.8141136169433594
284	255.30330753326416	response	0	k		282.0	/experiments/Knapen_AOT/AOT_stimuli/pictures/0113_fw.png	320.0968255996704	
285	255.31718134880066	picture	0		104	283.0	/experiments/Knapen_AOT/AOT_stimuli/pictures/1147_fw.png	320.1106994152069	0.8749370574951172
285	256.1782793998718	response	0	k		283.0	/experiments/Knapen_AOT/AOT_stimuli/pictures/1147_fw.png	320.9717974662781	
286	256.1921184062958	picture	0		107	284.0	/experiments/Knapen_AOT/AOT_stimuli/pictures/1090_fw.png	320.985636472702	0.902655839920044
286	257.0783908367157	response	0	k		284.0	/experiments/Knapen_AOT/AOT_stimuli/pictures/1090_fw.png	321.87190890312195	
287	257.0947742462158	picture	0		93	285.0	/experiments/Knapen_AOT/AOT_stimuli/pictures/1618_fw.png	321.88829231262207	0.7833375930786133
287	257.86165738105774	response	0	k		285.0	/experiments/Knapen_AOT/AOT_stimuli/pictures/1618_fw.png	322.655175447464	
288	257.87811183929443	picture	0		105	286.0	/experiments/Knapen_AOT/AOT_stimuli/pictures/0765_fw.png	322.6716299057007	0.8765361309051514
288	258.7450096607208	response	0	j		286.0	/experiments/Knapen_AOT/AOT_stimuli/pictures/0765_fw.png	323.5385277271271	
289	258.7546479701996	picture	0		84	287.0	/experiments/Knapen_AOT/AOT_stimuli/pictures/0378_fw.png	323.54816603660583	0.7014210224151611
289	259.437383890152	response	0	j		287.0	/experiments/Knapen_AOT/AOT_stimuli/pictures/0378_fw.png	324.2309019565582	
290	259.45606899261475	picture	0		104	288.0	/experiments/Knapen_AOT/AOT_stimuli/pictures/1648_fw.png	324.249587059021	0.868046760559082
290	260.3116385936737	response	0	k		288.0	/experiments/Knapen_AOT/AOT_stimuli/pictures/1648_fw.png	325.10515666007996	
291	260.3241157531738	picture	0		86	289.0	/experiments/Knapen_AOT/AOT_stimuli/pictures/0784_fw.png	325.1176338195801	0.7207276821136475
291	261.0283360481262	response	0	k		289.0	/experiments/Knapen_AOT/AOT_stimuli/pictures/0784_fw.png	325.82185411453247	
292	261.0448434352875	picture	0		107	290.0	/experiments/Knapen_AOT/AOT_stimuli/pictures/0926_fw.png	325.8383615016937	0.9000401496887207
292	261.9285840988159	response	0	j		290.0	/experiments/Knapen_AOT/AOT_stimuli/pictures/0926_fw.png	326.72210216522217	
293	261.9448835849762	picture	0		92	291.0	/experiments/Knapen_AOT/AOT_stimuli/pictures/2008_fw.png	326.73840165138245	0.7681047916412354
293	262.7034025192261	response	0	k		291.0	/experiments/Knapen_AOT/AOT_stimuli/pictures/2008_fw.png	327.4969205856323	
294	262.71298837661743	picture	0		84	292.0	/experiments/Knapen_AOT/AOT_stimuli/pictures/0458_fw.png	327.5065064430237	0.7014429569244385
294	263.4034230709076	response	0	j		292.0	/experiments/Knapen_AOT/AOT_stimuli/pictures/0458_fw.png	328.19694113731384	
295	263.41443133354187	picture	0		92	293.0	/experiments/Knapen_AOT/AOT_stimuli/pictures/1613_fw.png	328.2079493999481	0.7640035152435303
295	264.17002177238464	response	0	k		293.0	/experiments/Knapen_AOT/AOT_stimuli/pictures/1613_fw.png	328.9635398387909	
296	264.1784348487854	picture	0		213	294.0	/experiments/Knapen_AOT/AOT_stimuli/pictures/1995_fw.png	328.97195291519165	1.7775392532348633
296	265.9450330734253	response	0	k		294.0	/experiments/Knapen_AOT/AOT_stimuli/pictures/1995_fw.png	330.73855113983154	
297	265.95597410202026	picture	0		86	295.0	/experiments/Knapen_AOT/AOT_stimuli/pictures/0431_fw.png	330.7494921684265	0.7224185466766357
297	266.66203689575195	response	0	k		295.0	/experiments/Knapen_AOT/AOT_stimuli/pictures/0431_fw.png	331.4555549621582	
298	266.6783926486969	picture	0		119	296.0	/experiments/Knapen_AOT/AOT_stimuli/pictures/0333_fw.png	331.47191071510315	0.9929559230804443
298	267.66177678108215	response	0	j		296.0	/experiments/Knapen_AOT/AOT_stimuli/pictures/0333_fw.png	332.4552948474884	
299	267.67134857177734	picture	0		86	297.0	/experiments/Knapen_AOT/AOT_stimuli/pictures/0260_fw.png	332.4648666381836	0.715376615524292
299	268.3784484863281	response	0	k		297.0	/experiments/Knapen_AOT/AOT_stimuli/pictures/0260_fw.png	333.1719665527344	
300	268.38672518730164	picture	0		105	298.0	/experiments/Knapen_AOT/AOT_stimuli/pictures/2070_fw.png	333.1802432537079	0.8832101821899414
300	269.245982170105	response	0	k		298.0	/experiments/Knapen_AOT/AOT_stimuli/pictures/2070_fw.png	334.03950023651123	
301	269.2699353694916	picture	0		86	299.0	/experiments/Knapen_AOT/AOT_stimuli/pictures/0781_fw.png	334.0634534358978	0.7250163555145264
301	269.97846126556396	response	0	j		299.0	/experiments/Knapen_AOT/AOT_stimuli/pictures/0781_fw.png	334.7719793319702	
302	269.9949517250061	picture	0		101	300.0	/experiments/Knapen_AOT/AOT_stimuli/pictures/0188_fw.png	334.78846979141235	0.850085973739624
302	270.82859349250793	response	0	k		300.0	/experiments/Knapen_AOT/AOT_stimuli/pictures/0188_fw.png	335.6221115589142	
303	270.8450376987457	picture	0		104	301.0	/experiments/Knapen_AOT/AOT_stimuli/pictures/0903_fw.png	335.638555765152	0.8750228881835938
303	271.7034935951233	response	0	j		301.0	/experiments/Knapen_AOT/AOT_stimuli/pictures/0903_fw.png	336.49701166152954	
304	271.7200605869293	picture	0		92	302.0	/experiments/Knapen_AOT/AOT_stimuli/pictures/0530_fw.png	336.51357865333557	0.7748823165893555
304	272.47846722602844	response	0	j		302.0	/experiments/Knapen_AOT/AOT_stimuli/pictures/0530_fw.png	337.2719852924347	
305	272.4949429035187	picture	0		175	303.0	/experiments/Knapen_AOT/AOT_stimuli/pictures/1037_fw.png	337.2884609699249	1.4610917568206787
305	273.94516038894653	response	0	k		303.0	/experiments/Knapen_AOT/AOT_stimuli/pictures/1037_fw.png	338.7386784553528	
306	273.95603466033936	picture	0		157	304.0	/experiments/Knapen_AOT/AOT_stimuli/pictures/1631_fw.png	338.7495527267456	1.3140077590942383
306	275.25362062454224	response	0	j		304.0	/experiments/Knapen_AOT/AOT_stimuli/pictures/1631_fw.png	340.0471386909485	
307	275.2700424194336	picture	0		91	305.0	/experiments/Knapen_AOT/AOT_stimuli/pictures/2171_fw.png	340.06356048583984	0.762540340423584
307	276.02021956443787	response	0	k		305.0	/experiments/Knapen_AOT/AOT_stimuli/pictures/2171_fw.png	340.8137376308441	
308	276.0325827598572	picture	0		88	306.0	/experiments/Knapen_AOT/AOT_stimuli/pictures/1715_fw.png	340.8261008262634	0.7457764148712158
308	276.76221466064453	response	0	j		306.0	/experiments/Knapen_AOT/AOT_stimuli/pictures/1715_fw.png	341.5557327270508	
309	276.7783591747284	picture	0		88	307.0	/experiments/Knapen_AOT/AOT_stimuli/pictures/0435_fw.png	341.57187724113464	0.741671085357666
309	277.5035800933838	response	0	k		307.0	/experiments/Knapen_AOT/AOT_stimuli/pictures/0435_fw.png	342.29709815979004	
310	277.52003026008606	picture	0		98	308.0	/experiments/Knapen_AOT/AOT_stimuli/pictures/1672_fw.png	342.3135483264923	0.8250799179077148
310	278.3285367488861	response	0	j		308.0	/experiments/Knapen_AOT/AOT_stimuli/pictures/1672_fw.png	343.12205481529236	
311	278.3451101779938	picture	0		95	309.0	/experiments/Knapen_AOT/AOT_stimuli/pictures/2112_fw.png	343.1386282444	0.7999410629272461
311	279.128538608551	response	0	k		309.0	/experiments/Knapen_AOT/AOT_stimuli/pictures/2112_fw.png	343.9220566749573	
312	279.145051240921	picture	0		94	310.0	/experiments/Knapen_AOT/AOT_stimuli/pictures/0557_fw.png	343.93856930732727	0.7916703224182129
312	279.9202330112457	response	0	k		310.0	/experiments/Knapen_AOT/AOT_stimuli/pictures/0557_fw.png	344.713751077652	
313	279.93672156333923	picture	0		101	311.0	/experiments/Knapen_AOT/AOT_stimuli/pictures/1640_fw.png	344.7302396297455	0.8458948135375977
313	280.77028799057007	response	0	k		311.0	/experiments/Knapen_AOT/AOT_stimuli/pictures/1640_fw.png	345.5638060569763	
314	280.78261637687683	picture	0		80	312.0	/experiments/Knapen_AOT/AOT_stimuli/pictures/1840_fw.png	345.5761344432831	0.6666898727416992
314	281.42981457710266	response	0	k		312.0	/experiments/Knapen_AOT/AOT_stimuli/pictures/1840_fw.png	346.2233326435089	
315	281.44930624961853	picture	0		91	313.0	/experiments/Knapen_AOT/AOT_stimuli/pictures/1431_fw.png	346.2428243160248	0.7624521255493164
315	282.1955213546753	response	0	j		313.0	/experiments/Knapen_AOT/AOT_stimuli/pictures/1431_fw.png	346.98903942108154	
316	282.21175837516785	picture	0		98	314.0	/experiments/Knapen_AOT/AOT_stimuli/pictures/1636_fw.png	347.0052764415741	0.8250589370727539
316	283.0204360485077	response	0	j		314.0	/experiments/Knapen_AOT/AOT_stimuli/pictures/1636_fw.png	347.81395411491394	
317	283.0368173122406	picture	0		128	315.0	/experiments/Knapen_AOT/AOT_stimuli/pictures/0040_fw.png	347.83033537864685	1.0721495151519775
317	284.0953691005707	response	0	k		315.0	/experiments/Knapen_AOT/AOT_stimuli/pictures/0040_fw.png	348.88888716697693	
318	284.1089668273926	picture	0		99	316.0	/experiments/Knapen_AOT/AOT_stimuli/pictures/1964_fw.png	348.9024848937988	0.8333706855773926
318	284.92870450019836	response	0	k		316.0	/experiments/Knapen_AOT/AOT_stimuli/pictures/1964_fw.png	349.7222225666046	
319	284.94233751296997	picture	0		95	317.0	/experiments/Knapen_AOT/AOT_stimuli/pictures/0104_fw.png	349.7358555793762	0.7986242771148682
319	285.72862815856934	response	0	k		317.0	/experiments/Knapen_AOT/AOT_stimuli/pictures/0104_fw.png	350.5221462249756	
320	285.74096179008484	picture	0		125	318.0	/experiments/Knapen_AOT/AOT_stimuli/pictures/2138_fw.png	350.5344798564911	1.0458459854125977
320	286.7705338001251	response	0	j		318.0	/experiments/Knapen_AOT/AOT_stimuli/pictures/2138_fw.png	351.5640518665314	
321	286.78680777549744	picture	0		97	319.0	/experiments/Knapen_AOT/AOT_stimuli/pictures/0688_fw.png	351.5803258419037	0.8166747093200684
321	287.5870027542114	response	0	j		319.0	/experiments/Knapen_AOT/AOT_stimuli/pictures/0688_fw.png	352.3805208206177	
322	287.6034824848175	picture	0		99	320.0	/experiments/Knapen_AOT/AOT_stimuli/pictures/0005_fw.png	352.39700055122375	0.833338737487793
322	288.4203734397888	response	0	j		320.0	/experiments/Knapen_AOT/AOT_stimuli/pictures/0005_fw.png	353.21389150619507	
323	288.4368212223053	picture	0		98	321.0	/experiments/Knapen_AOT/AOT_stimuli/pictures/1647_fw.png	353.23033928871155	0.8250124454498291
323	289.23784279823303	response	0	j		321.0	/experiments/Knapen_AOT/AOT_stimuli/pictures/1647_fw.png	354.0313608646393	
324	289.2618336677551	picture	0		94	322.0	/experiments/Knapen_AOT/AOT_stimuli/pictures/0708_fw.png	354.0553517341614	0.7917141914367676
324	290.030072927475	response	0	k		322.0	/experiments/Knapen_AOT/AOT_stimuli/pictures/0708_fw.png	354.8235909938812	
325	290.0535478591919	picture	0		80	323.0	/experiments/Knapen_AOT/AOT_stimuli/pictures/0381_fw.png	354.84706592559814	0.6750068664550781
325	290.7120792865753	response	0	j		323.0	/experiments/Knapen_AOT/AOT_stimuli/pictures/0381_fw.png	355.50559735298157	
326	290.728554725647	picture	0		104	324.0	/experiments/Knapen_AOT/AOT_stimuli/pictures/1275_fw.png	355.5220727920532	0.8749721050262451
326	291.5870449542999	response	0	j		324.0	/experiments/Knapen_AOT/AOT_stimuli/pictures/1275_fw.png	356.3805630207062	
327	291.6035268306732	picture	0		87	325.0	/experiments/Knapen_AOT/AOT_stimuli/pictures/1258_fw.png	356.39704489707947	0.7333974838256836
327	292.32041001319885	response	0	k		325.0	/experiments/Knapen_AOT/AOT_stimuli/pictures/1258_fw.png	357.1139280796051	
328	292.3369243144989	picture	0		88	326.0	/experiments/Knapen_AOT/AOT_stimuli/pictures/0851_fw.png	357.13044238090515	0.7417268753051758
328	293.0621235370636	response	0	j		326.0	/experiments/Knapen_AOT/AOT_stimuli/pictures/0851_fw.png	357.85564160346985	
329	293.0786511898041	picture	0		109	327.0	/experiments/Knapen_AOT/AOT_stimuli/pictures/0538_fw.png	357.8721692562103	0.9123570919036865
329	293.9787504673004	response	0	j		327.0	/experiments/Knapen_AOT/AOT_stimuli/pictures/0538_fw.png	358.77226853370667	
330	293.99100828170776	picture	0		117	328.0	/experiments/Knapen_AOT/AOT_stimuli/pictures/0007_fw.png	358.784526348114	0.9792633056640625
330	294.9538187980652	response	0	j		328.0	/experiments/Knapen_AOT/AOT_stimuli/pictures/0007_fw.png	359.74733686447144	
331	294.9702715873718	picture	0		132	329.0	/experiments/Knapen_AOT/AOT_stimuli/pictures/1645_fw.png	359.7637896537781	1.1083285808563232
331	296.06212162971497	response	0	j		329.0	/experiments/Knapen_AOT/AOT_stimuli/pictures/1645_fw.png	360.8556396961212	
332	296.07860016822815	picture	0		114	330.0	/experiments/Knapen_AOT/AOT_stimuli/pictures/1879_fw.png	360.8721182346344	0.9540896415710449
332	297.0204565525055	response	0	j		330.0	/experiments/Knapen_AOT/AOT_stimuli/pictures/1879_fw.png	361.81397461891174	
333	297.0326898097992	picture	0		107	331.0	/experiments/Knapen_AOT/AOT_stimuli/pictures/1585_fw.png	361.82620787620544	0.8959164619445801
333	297.9121460914612	response	0	k		331.0	/experiments/Knapen_AOT/AOT_stimuli/pictures/1585_fw.png	362.70566415786743	
334	297.9286062717438	picture	0		114	332.0	/experiments/Knapen_AOT/AOT_stimuli/pictures/0972_fw.png	362.72212433815	0.9583821296691895
334	298.87074184417725	response	0	k		332.0	/experiments/Knapen_AOT/AOT_stimuli/pictures/0972_fw.png	363.6642599105835	
335	298.88698840141296	picture	0		164	333.0	/experiments/Knapen_AOT/AOT_stimuli/pictures/1395_fw.png	363.6805064678192	1.367846965789795
335	300.23788499832153	response	0	j		333.0	/experiments/Knapen_AOT/AOT_stimuli/pictures/1395_fw.png	365.0314030647278	
336	300.25483536720276	picture	0		104	334.0	/experiments/Knapen_AOT/AOT_stimuli/pictures/0651_fw.png	365.048353433609	0.8681650161743164
336	301.1121618747711	response	0	k		334.0	/experiments/Knapen_AOT/AOT_stimuli/pictures/0651_fw.png	365.90567994117737	
337	301.1230003833771	picture	0		91	335.0	/experiments/Knapen_AOT/AOT_stimuli/pictures/1286_fw.png	365.9165184497833	0.7639825344085693
337	301.87056374549866	response	0	k		335.0	/experiments/Knapen_AOT/AOT_stimuli/pictures/1286_fw.png	366.6640818119049	
338	301.88698291778564	picture	0		115	336.0	/experiments/Knapen_AOT/AOT_stimuli/pictures/2085_fw.png	366.6805009841919	0.9667060375213623
338	302.83875584602356	response	0	j		336.0	/experiments/Knapen_AOT/AOT_stimuli/pictures/2085_fw.png	367.6322739124298	
339	302.853688955307	picture	0		97	337.0	/experiments/Knapen_AOT/AOT_stimuli/pictures/0657_fw.png	367.64720702171326	0.8167436122894287
339	303.65403270721436	response	0	k		337.0	/experiments/Knapen_AOT/AOT_stimuli/pictures/0657_fw.png	368.4475507736206	
340	303.67043256759644	picture	0		88	338.0	/experiments/Knapen_AOT/AOT_stimuli/pictures/0942_fw.png	368.4639506340027	0.7415757179260254
340	304.3955807685852	response	0	j		338.0	/experiments/Knapen_AOT/AOT_stimuli/pictures/0942_fw.png	369.18909883499146	
341	304.41200828552246	picture	0		89	339.0	/experiments/Knapen_AOT/AOT_stimuli/pictures/0306_fw.png	369.2055263519287	0.750016450881958
341	305.14556217193604	response	0	j		339.0	/experiments/Knapen_AOT/AOT_stimuli/pictures/0306_fw.png	369.9390802383423	
342	305.1620247364044	picture	0		93	340.0	/experiments/Knapen_AOT/AOT_stimuli/pictures/0124_fw.png	369.95554280281067	0.7833590507507324
342	305.9289243221283	response	0	k		340.0	/experiments/Knapen_AOT/AOT_stimuli/pictures/0124_fw.png	370.72244238853455	
343	305.94538378715515	picture	0		111	341.0	/experiments/Knapen_AOT/AOT_stimuli/pictures/2150_fw.png	370.7389018535614	0.9334304332733154
343	306.8623113632202	response	0	k		341.0	/experiments/Knapen_AOT/AOT_stimuli/pictures/2150_fw.png	371.65582942962646	
344	306.87881422042847	picture	0		81	342.0	/experiments/Knapen_AOT/AOT_stimuli/pictures/1013_fw.png	371.6723322868347	0.6832504272460938
344	307.54588055610657	response	0	j		342.0	/experiments/Knapen_AOT/AOT_stimuli/pictures/1013_fw.png	372.3393986225128	
345	307.56206464767456	picture	0		124	343.0	/experiments/Knapen_AOT/AOT_stimuli/pictures/1209_fw.png	372.3555827140808	1.0416860580444336
345	308.5872344970703	response	0	j		343.0	/experiments/Knapen_AOT/AOT_stimuli/pictures/1209_fw.png	373.38075256347656	
346	308.603750705719	picture	0		100	344.0	/experiments/Knapen_AOT/AOT_stimuli/pictures/1566_fw.png	373.39726877212524	0.8416941165924072
346	309.42248463630676	response	0	j		344.0	/experiments/Knapen_AOT/AOT_stimuli/pictures/1566_fw.png	374.216002702713	
347	309.4454448223114	picture	0		94	345.0	/experiments/Knapen_AOT/AOT_stimuli/pictures/1097_fw.png	374.23896288871765	0.7916924953460693
347	310.2206745147705	response	0	k		345.0	/experiments/Knapen_AOT/AOT_stimuli/pictures/1097_fw.png	375.01419258117676	
348	310.23713731765747	picture	0		95	346.0	/experiments/Knapen_AOT/AOT_stimuli/pictures/1336_fw.png	375.0306553840637	0.7999396324157715
348	311.02076029777527	response	0	k		346.0	/experiments/Knapen_AOT/AOT_stimuli/pictures/1336_fw.png	375.8142783641815	
349	311.03707695007324	picture	0		104	347.0	/experiments/Knapen_AOT/AOT_stimuli/pictures/2012_fw.png	375.8305950164795	0.8750462532043457
349	311.8956389427185	response	0	j		347.0	/experiments/Knapen_AOT/AOT_stimuli/pictures/2012_fw.png	376.68915700912476	
350	311.9121232032776	picture	0		103	348.0	/experiments/Knapen_AOT/AOT_stimuli/pictures/0416_fw.png	376.70564126968384	0.8666996955871582
350	312.76233553886414	response	0	k		348.0	/experiments/Knapen_AOT/AOT_stimuli/pictures/0416_fw.png	377.5558536052704	
351	312.77882289886475	picture	0		100	349.0	/experiments/Knapen_AOT/AOT_stimuli/pictures/0419_fw.png	377.572340965271	0.8416354656219482
351	313.60401153564453	response	0	j		349.0	/experiments/Knapen_AOT/AOT_stimuli/pictures/0419_fw.png	378.3975296020508	
352	313.6204583644867	picture	0		116	350.0	/experiments/Knapen_AOT/AOT_stimuli/pictures/0687_fw.png	378.41397643089294	0.9750185012817383
352	314.5791320800781	response	0	j		350.0	/experiments/Knapen_AOT/AOT_stimuli/pictures/0687_fw.png	379.3726501464844	
353	314.59547686576843	picture	0		102	351.0	/experiments/Knapen_AOT/AOT_stimuli/pictures/0279_fw.png	379.3889949321747	0.8583612442016602
353	315.4376714229584	response	0	j		351.0	/experiments/Knapen_AOT/AOT_stimuli/pictures/0279_fw.png	380.2311894893646	
354	315.4538381099701	picture	0		129	352.0	/experiments/Knapen_AOT/AOT_stimuli/pictures/0249_fw.png	380.24735617637634	1.0833759307861328
354	316.5207304954529	response	0	j		352.0	/experiments/Knapen_AOT/AOT_stimuli/pictures/0249_fw.png	381.31424856185913	
355	316.5372140407562	picture	0		113	353.0	/experiments/Knapen_AOT/AOT_stimuli/pictures/1796_fw.png	381.3307321071625	0.9499771595001221
355	317.47070360183716	response	0	k		353.0	/experiments/Knapen_AOT/AOT_stimuli/pictures/1796_fw.png	382.2642216682434	
356	317.48719120025635	picture	0		102	354.0	/experiments/Knapen_AOT/AOT_stimuli/pictures/1166_fw.png	382.2807092666626	0.85833740234375
356	318.32916498184204	response	0	k		354.0	/experiments/Knapen_AOT/AOT_stimuli/pictures/1166_fw.png	383.1226830482483	
357	318.3455286026001	picture	0		91	355.0	/experiments/Knapen_AOT/AOT_stimuli/pictures/0079_fw.png	383.13904666900635	0.766711950302124
357	319.0957865715027	response	0	k		355.0	/experiments/Knapen_AOT/AOT_stimuli/pictures/0079_fw.png	383.88930463790894	
358	319.1122405529022	picture	0		91	356.0	/experiments/Knapen_AOT/AOT_stimuli/pictures/2004_fw.png	383.9057586193085	0.7666418552398682
358	319.8626329898834	response	0	k		356.0	/experiments/Knapen_AOT/AOT_stimuli/pictures/2004_fw.png	384.6561510562897	
359	319.8788824081421	picture	0		144	357.0	/experiments/Knapen_AOT/AOT_stimuli/pictures/0176_fw.png	384.67240047454834	1.2083547115325928
359	321.0707426071167	response	0	j		357.0	/experiments/Knapen_AOT/AOT_stimuli/pictures/0176_fw.png	385.86426067352295	
360	321.0872371196747	picture	0		89	358.0	/experiments/Knapen_AOT/AOT_stimuli/pictures/2157_fw.png	385.88075518608093	0.7500643730163574
360	321.82101345062256	response	0	j		358.0	/experiments/Knapen_AOT/AOT_stimuli/pictures/2157_fw.png	386.6145315170288	
361	321.83730149269104	picture	0		103	359.0	/experiments/Knapen_AOT/AOT_stimuli/pictures/1771_fw.png	386.6308195590973	0.8666207790374756
361	322.6874465942383	response	0	k		359.0	/experiments/Knapen_AOT/AOT_stimuli/pictures/1771_fw.png	387.48096466064453	
362	322.7039222717285	stim	0		417			387.49744033813477	3.493028402328491
362	326.17717599868774	response	0	space				390.970694065094	
