trial_nr	onset	event_type	phase	response	nr_frames	picture_index	picture_file	onset_abs	duration
0	0.17462420463562012	stim	0		479			65.62982082366943	4.0128209590911865
0	4.166861534118652	response	0	space				69.62205815315247	
2	4.187445163726807	picture	0		253	0.0	/experiments/Knapen_AOT/AOT_stimuli/pictures/0321_fw.png	69.64264178276062	2.1334071159362793
2	6.301156759262085	response	0	k		0.0	/experiments/Knapen_AOT/AOT_stimuli/pictures/0321_fw.png	71.7563533782959	
3	6.320852279663086	picture	0		181	1.0	/experiments/Knapen_AOT/AOT_stimuli/pictures/0267_fw.png	71.7760488986969	1.520585536956787
3	7.825156927108765	response	0	j		1.0	/experiments/Knapen_AOT/AOT_stimuli/pictures/0267_fw.png	73.28035354614258	
4	7.841437816619873	picture	0		142	2.0	/experiments/Knapen_AOT/AOT_stimuli/pictures/0209_fw.png	73.29663443565369	1.1916024684906006
4	9.016526460647583	response	0	k		2.0	/experiments/Knapen_AOT/AOT_stimuli/pictures/0209_fw.png	74.4717230796814	
5	9.033040285110474	picture	0		83	3.0	/experiments/Knapen_AOT/AOT_stimuli/pictures/0117_fw.png	74.48823690414429	0.6962077617645264
5	9.716539859771729	response	0	j		3.0	/experiments/Knapen_AOT/AOT_stimuli/pictures/0117_fw.png	75.17173647880554	
6	9.729248046875	picture	0		138	4.0	/experiments/Knapen_AOT/AOT_stimuli/pictures/0899_fw.png	75.18444466590881	1.1459050178527832
6	10.866538047790527	response	0	j		4.0	/experiments/Knapen_AOT/AOT_stimuli/pictures/0899_fw.png	76.32173466682434	
7	10.875153064727783	picture	0		157	5.0	/experiments/Knapen_AOT/AOT_stimuli/pictures/1357_fw.png	76.3303496837616	1.312450647354126
7	12.174868822097778	response	0	j		5.0	/experiments/Knapen_AOT/AOT_stimuli/pictures/1357_fw.png	77.63006544113159	
8	12.18760371208191	picture	0		109	6.0	/experiments/Knapen_AOT/AOT_stimuli/pictures/0323_fw.png	77.64280033111572	0.9166393280029297
8	13.091586351394653	response	0	k		6.0	/experiments/Knapen_AOT/AOT_stimuli/pictures/0323_fw.png	78.54678297042847	
9	13.104243040084839	picture	0		107	7.0	/experiments/Knapen_AOT/AOT_stimuli/pictures/0819_fw.png	78.55943965911865	0.8955211639404297
9	13.983267784118652	response	0	k		7.0	/experiments/Knapen_AOT/AOT_stimuli/pictures/0819_fw.png	79.43846440315247	
10	13.999764204025269	picture	0		108	8.0	/experiments/Knapen_AOT/AOT_stimuli/pictures/0131_fw.png	79.45496082305908	0.9030933380126953
10	14.891666173934937	response	0	j		8.0	/experiments/Knapen_AOT/AOT_stimuli/pictures/0131_fw.png	80.34686279296875	
11	14.902857542037964	picture	0		108	9.0	/experiments/Knapen_AOT/AOT_stimuli/pictures/1514_fw.png	80.35805416107178	0.9028396606445312
11	15.791634321212769	response	0	j		9.0	/experiments/Knapen_AOT/AOT_stimuli/pictures/1514_fw.png	81.24683094024658	
12	15.805697202682495	picture	0		117	10.0	/experiments/Knapen_AOT/AOT_stimuli/pictures/0861_fw.png	81.26089382171631	0.9791374206542969
12	16.77506709098816	response	0	k		10.0	/experiments/Knapen_AOT/AOT_stimuli/pictures/0861_fw.png	82.23026371002197	
13	16.784834623336792	picture	0		157	11.0	/experiments/Knapen_AOT/AOT_stimuli/pictures/1856_fw.png	82.2400312423706	1.3125228881835938
13	18.083341121673584	response	0	k		11.0	/experiments/Knapen_AOT/AOT_stimuli/pictures/1856_fw.png	83.5385377407074	
14	18.097357511520386	picture	0		93	12.0	/experiments/Knapen_AOT/AOT_stimuli/pictures/0476_fw.png	83.5525541305542	0.7857613563537598
14	18.866694688796997	response	0	k		12.0	/experiments/Knapen_AOT/AOT_stimuli/pictures/0476_fw.png	84.32189130783081	
15	18.883118867874146	picture	0		95	13.0	/experiments/Knapen_AOT/AOT_stimuli/pictures/1616_fw.png	84.33831548690796	0.7916646003723145
15	19.666662216186523	response	0	j		13.0	/experiments/Knapen_AOT/AOT_stimuli/pictures/1616_fw.png	85.12185883522034	
16	19.67478346824646	picture	0		177	14.0	/experiments/Knapen_AOT/AOT_stimuli/pictures/1175_fw.png	85.12998008728027	1.478036880493164
16	21.141884803771973	response	0	k		14.0	/experiments/Knapen_AOT/AOT_stimuli/pictures/1175_fw.png	86.59708142280579	
17	21.152820348739624	picture	0		86	15.0	/experiments/Knapen_AOT/AOT_stimuli/pictures/0684_fw.png	86.60801696777344	0.7153956890106201
17	21.858370542526245	response	0	j		15.0	/experiments/Knapen_AOT/AOT_stimuli/pictures/0684_fw.png	87.31356716156006	
18	21.868216037750244	picture	0		114	16.0	/experiments/Knapen_AOT/AOT_stimuli/pictures/0176_fw.png	87.32341265678406	0.956639289855957
18	22.808369874954224	response	0	k		16.0	/experiments/Knapen_AOT/AOT_stimuli/pictures/0176_fw.png	88.26356649398804	
19	22.8248553276062	picture	0		107	17.0	/experiments/Knapen_AOT/AOT_stimuli/pictures/0980_fw.png	88.28005194664001	0.9000005722045898
19	23.708711862564087	response	0	k		17.0	/experiments/Knapen_AOT/AOT_stimuli/pictures/0980_fw.png	89.1639084815979	
20	23.72485589981079	picture	0		87	18.0	/experiments/Knapen_AOT/AOT_stimuli/pictures/0439_fw.png	89.1800525188446	0.7266964912414551
20	24.441758632659912	response	0	j		18.0	/experiments/Knapen_AOT/AOT_stimuli/pictures/0439_fw.png	89.89695525169373	
21	24.451552391052246	picture	0		105	19.0	/experiments/Knapen_AOT/AOT_stimuli/pictures/1720_fw.png	89.90674901008606	0.8750638961791992
21	25.310262203216553	response	0	k		19.0	/experiments/Knapen_AOT/AOT_stimuli/pictures/1720_fw.png	90.76545882225037	
22	25.326616287231445	picture	0		97	20.0	/experiments/Knapen_AOT/AOT_stimuli/pictures/1522_fw.png	90.78181290626526	0.8124516010284424
22	26.117536783218384	response	0	k		20.0	/experiments/Knapen_AOT/AOT_stimuli/pictures/1522_fw.png	91.5727334022522	
23	26.139067888259888	picture	0		115	21.0	/experiments/Knapen_AOT/AOT_stimuli/pictures/0287_fw.png	91.5942645072937	0.9691650867462158
23	27.091763257980347	response	0	k		21.0	/experiments/Knapen_AOT/AOT_stimuli/pictures/0287_fw.png	92.54695987701416	
24	27.108232975006104	picture	0		97	22.0	/experiments/Knapen_AOT/AOT_stimuli/pictures/0271_fw.png	92.56342959403992	0.8085947036743164
24	27.908410787582397	response	0	k		22.0	/experiments/Knapen_AOT/AOT_stimuli/pictures/0271_fw.png	93.36360740661621	
25	27.91682767868042	picture	0		115	23.0	/experiments/Knapen_AOT/AOT_stimuli/pictures/1016_fw.png	93.37202429771423	0.9583721160888672
25	28.866761684417725	response	0	k		23.0	/experiments/Knapen_AOT/AOT_stimuli/pictures/1016_fw.png	94.32195830345154	
26	28.875199794769287	picture	0		96	24.0	/experiments/Knapen_AOT/AOT_stimuli/pictures/0501_fw.png	94.3303964138031	0.8055562973022461
26	29.666839122772217	response	0	j		24.0	/experiments/Knapen_AOT/AOT_stimuli/pictures/0501_fw.png	95.12203574180603	
27	29.680756092071533	picture	0		154	25.0	/experiments/Knapen_AOT/AOT_stimuli/pictures/0603_fw.png	95.13595271110535	1.2942047119140625
27	30.95868229866028	response	0	k		25.0	/experiments/Knapen_AOT/AOT_stimuli/pictures/0603_fw.png	96.41387891769409	
28	30.974960803985596	picture	0		120	26.0	/experiments/Knapen_AOT/AOT_stimuli/pictures/0740_fw.png	96.43015742301941	1.0043964385986328
28	31.966782808303833	response	0	k		26.0	/experiments/Knapen_AOT/AOT_stimuli/pictures/0740_fw.png	97.42197942733765	
29	31.97935724258423	picture	0		122	27.0	/experiments/Knapen_AOT/AOT_stimuli/pictures/1530_fw.png	97.43455386161804	1.0208203792572021
29	32.991790533065796	response	0	k		27.0	/experiments/Knapen_AOT/AOT_stimuli/pictures/1530_fw.png	98.44698715209961	
30	33.00017762184143	picture	0		92	28.0	/experiments/Knapen_AOT/AOT_stimuli/pictures/0163_fw.png	98.45537424087524	0.7748050689697266
30	33.75849103927612	response	0	k		28.0	/experiments/Knapen_AOT/AOT_stimuli/pictures/0163_fw.png	99.21368765830994	
31	33.77498269081116	picture	0		174	29.0	/experiments/Knapen_AOT/AOT_stimuli/pictures/1988_fw.png	99.23017930984497	1.4583539962768555
31	35.216869831085205	response	0	k		29.0	/experiments/Knapen_AOT/AOT_stimuli/pictures/1988_fw.png	100.67206645011902	
32	35.23333668708801	picture	0		147	30.0	/experiments/Knapen_AOT/AOT_stimuli/pictures/1136_fw.png	100.68853330612183	1.2333106994628906
32	36.45017647743225	response	0	k		30.0	/experiments/Knapen_AOT/AOT_stimuli/pictures/1136_fw.png	101.90537309646606	
33	36.4666473865509	picture	0		128	31.0	/experiments/Knapen_AOT/AOT_stimuli/pictures/0357_fw.png	101.92184400558472	1.0682952404022217
33	37.52528429031372	response	0	k		31.0	/experiments/Knapen_AOT/AOT_stimuli/pictures/0357_fw.png	102.98048090934753	
34	37.534942626953125	picture	0		142	32.0	/experiments/Knapen_AOT/AOT_stimuli/pictures/0255_fw.png	102.99013924598694	1.1875696182250977
34	38.708587884902954	response	0	j		32.0	/experiments/Knapen_AOT/AOT_stimuli/pictures/0255_fw.png	104.16378450393677	
35	38.72251224517822	picture	0		99	33.0	/experiments/Knapen_AOT/AOT_stimuli/pictures/1176_fw.png	104.17770886421204	0.8333368301391602
35	39.5419340133667	response	0	k		33.0	/experiments/Knapen_AOT/AOT_stimuli/pictures/1176_fw.png	104.99713063240051	
36	39.55584907531738	picture	0		97	34.0	/experiments/Knapen_AOT/AOT_stimuli/pictures/0556_fw.png	105.0110456943512	0.8124516010284424
36	40.358564615249634	response	0	j		34.0	/experiments/Knapen_AOT/AOT_stimuli/pictures/0556_fw.png	105.81376123428345	
37	40.368300676345825	picture	0		125	35.0	/experiments/Knapen_AOT/AOT_stimuli/pictures/1755_fw.png	105.82349729537964	1.0416548252105713
37	41.40023851394653	response	0	k		35.0	/experiments/Knapen_AOT/AOT_stimuli/pictures/1755_fw.png	106.85543513298035	
38	41.4099555015564	picture	0		139	36.0	/experiments/Knapen_AOT/AOT_stimuli/pictures/1223_fw.png	106.86515212059021	1.1597566604614258
38	42.55863881111145	response	0	k		36.0	/experiments/Knapen_AOT/AOT_stimuli/pictures/1223_fw.png	108.01383543014526	
39	42.56971216201782	picture	0		94	37.0	/experiments/Knapen_AOT/AOT_stimuli/pictures/1390_fw.png	108.02490878105164	0.7887194156646729
39	43.34188961982727	response	0	j		37.0	/experiments/Knapen_AOT/AOT_stimuli/pictures/1390_fw.png	108.79708623886108	
40	43.358431577682495	picture	0		168	38.0	/experiments/Knapen_AOT/AOT_stimuli/pictures/1570_fw.png	108.81362819671631	1.4083240032196045
40	44.75028419494629	response	0	k		38.0	/experiments/Knapen_AOT/AOT_stimuli/pictures/1570_fw.png	110.2054808139801	
41	44.7667555809021	picture	0		78	39.0	/experiments/Knapen_AOT/AOT_stimuli/pictures/0598_fw.png	110.22195219993591	0.6583325862884521
41	45.4087917804718	response	0	j		39.0	/experiments/Knapen_AOT/AOT_stimuli/pictures/0598_fw.png	110.86398839950562	
42	45.42508816719055	picture	0		99	40.0	/experiments/Knapen_AOT/AOT_stimuli/pictures/0588_fw.png	110.88028478622437	0.8252196311950684
42	46.24198579788208	response	0	k		40.0	/experiments/Knapen_AOT/AOT_stimuli/pictures/0588_fw.png	111.6971824169159	
43	46.25030779838562	picture	0		125	41.0	/experiments/Knapen_AOT/AOT_stimuli/pictures/0341_fw.png	111.70550441741943	1.0416197776794434
43	47.283652782440186	response	0	k		41.0	/experiments/Knapen_AOT/AOT_stimuli/pictures/0341_fw.png	112.738849401474	
44	47.29192757606506	picture	0		130	42.0	/experiments/Knapen_AOT/AOT_stimuli/pictures/1045_fw.png	112.74712419509888	1.091540813446045
44	48.36701726913452	response	0	k		42.0	/experiments/Knapen_AOT/AOT_stimuli/pictures/1045_fw.png	113.82221388816833	
45	48.38346838951111	picture	0		269	43.0	/experiments/Knapen_AOT/AOT_stimuli/pictures/1473_fw.png	113.83866500854492	2.2500364780426025
45	50.617072105407715	response	0	j		43.0	/experiments/Knapen_AOT/AOT_stimuli/pictures/1473_fw.png	116.07226872444153	
46	50.63350486755371	picture	0		95	44.0	/experiments/Knapen_AOT/AOT_stimuli/pictures/1941_fw.png	116.08870148658752	0.797370195388794
46	51.41701912879944	response	0	j		44.0	/experiments/Knapen_AOT/AOT_stimuli/pictures/1941_fw.png	116.87221574783325	
47	51.430875062942505	picture	0		130	45.0	/experiments/Knapen_AOT/AOT_stimuli/pictures/0883_fw.png	116.88607168197632	1.0943152904510498
47	52.508686780929565	response	0	k		45.0	/experiments/Knapen_AOT/AOT_stimuli/pictures/0883_fw.png	117.96388339996338	
48	52.525190353393555	picture	0		89	46.0	/experiments/Knapen_AOT/AOT_stimuli/pictures/1615_fw.png	117.98038697242737	0.7459716796875
48	53.25869607925415	response	0	j		46.0	/experiments/Knapen_AOT/AOT_stimuli/pictures/1615_fw.png	118.71389269828796	
49	53.271162033081055	picture	0		120	47.0	/experiments/Knapen_AOT/AOT_stimuli/pictures/0157_fw.png	118.72635865211487	1.0040295124053955
49	54.2587206363678	response	0	j		47.0	/experiments/Knapen_AOT/AOT_stimuli/pictures/0157_fw.png	119.71391725540161	
50	54.27519154548645	picture	0		107	48.0	/experiments/Knapen_AOT/AOT_stimuli/pictures/1934_fw.png	119.73038816452026	0.8917951583862305
50	55.158721923828125	response	0	j		48.0	/experiments/Knapen_AOT/AOT_stimuli/pictures/1934_fw.png	120.61391854286194	
51	55.16698670387268	picture	0		114	49.0	/experiments/Knapen_AOT/AOT_stimuli/pictures/0928_fw.png	120.6221833229065	0.9582712650299072
51	56.10233664512634	response	0	j		49.0	/experiments/Knapen_AOT/AOT_stimuli/pictures/0928_fw.png	121.55753326416016	
52	56.12525796890259	picture	0		93	50.0	/experiments/Knapen_AOT/AOT_stimuli/pictures/0550_fw.png	121.5804545879364	0.7779672145843506
52	56.892130851745605	response	0	j		50.0	/experiments/Knapen_AOT/AOT_stimuli/pictures/0550_fw.png	122.34732747077942	
53	56.90322518348694	picture	0		97	51.0	/experiments/Knapen_AOT/AOT_stimuli/pictures/0071_fw.png	122.35842180252075	0.8136708736419678
53	57.6935658454895	response	0	k		51.0	/experiments/Knapen_AOT/AOT_stimuli/pictures/0071_fw.png	123.14876246452332	
54	57.716896057128906	picture	0		96	52.0	/experiments/Knapen_AOT/AOT_stimuli/pictures/0545_fw.png	123.17209267616272	0.8083536624908447
54	58.50199055671692	response	0	k		52.0	/experiments/Knapen_AOT/AOT_stimuli/pictures/0545_fw.png	123.95718717575073	
55	58.52524971961975	picture	0		85	53.0	/experiments/Knapen_AOT/AOT_stimuli/pictures/0371_fw.png	123.98044633865356	0.7112483978271484
55	59.225427865982056	response	0	j		53.0	/experiments/Knapen_AOT/AOT_stimuli/pictures/0371_fw.png	124.68062448501587	
56	59.2364981174469	picture	0		103	54.0	/experiments/Knapen_AOT/AOT_stimuli/pictures/1456_fw.png	124.69169473648071	0.8610830307006836
56	60.08411407470703	response	0	j		54.0	/experiments/Knapen_AOT/AOT_stimuli/pictures/1456_fw.png	125.53931069374084	
57	60.09758114814758	picture	0		100	55.0	/experiments/Knapen_AOT/AOT_stimuli/pictures/1505_fw.png	125.5527777671814	0.8403339385986328
57	60.92550182342529	response	0	k		55.0	/experiments/Knapen_AOT/AOT_stimuli/pictures/1505_fw.png	126.3806984424591	
58	60.937915086746216	picture	0		100	56.0	/experiments/Knapen_AOT/AOT_stimuli/pictures/2015_fw.png	126.39311170578003	0.8333027362823486
58	61.75878405570984	response	0	k		56.0	/experiments/Knapen_AOT/AOT_stimuli/pictures/2015_fw.png	127.21398067474365	
59	61.771217823028564	picture	0		148	57.0	/experiments/Knapen_AOT/AOT_stimuli/pictures/1796_fw.png	127.22641444206238	1.243044137954712
59	63.000783920288086	response	0	k		57.0	/experiments/Knapen_AOT/AOT_stimuli/pictures/1796_fw.png	128.4559805393219	
60	63.014261960983276	picture	0		111	58.0	/experiments/Knapen_AOT/AOT_stimuli/pictures/1351_fw.png	128.4694585800171	0.9305868148803711
60	63.93383431434631	response	0	k		58.0	/experiments/Knapen_AOT/AOT_stimuli/pictures/1351_fw.png	129.38903093338013	
61	63.94484877586365	picture	0		132	59.0	/experiments/Knapen_AOT/AOT_stimuli/pictures/2118_fw.png	129.40004539489746	1.105461835861206
61	65.03387403488159	response	0	k		59.0	/experiments/Knapen_AOT/AOT_stimuli/pictures/2118_fw.png	130.4890706539154	
62	65.05031061172485	picture	0		156	60.0	/experiments/Knapen_AOT/AOT_stimuli/pictures/1549_fw.png	130.50550723075867	1.3083491325378418
62	66.3422303199768	response	0	k		60.0	/experiments/Knapen_AOT/AOT_stimuli/pictures/1549_fw.png	131.79742693901062	
63	66.3586597442627	picture	0		130	61.0	/experiments/Knapen_AOT/AOT_stimuli/pictures/1182_fw.png	131.8138563632965	1.0861754417419434
63	67.43384170532227	response	0	j		61.0	/experiments/Knapen_AOT/AOT_stimuli/pictures/1182_fw.png	132.88903832435608	
64	67.44483518600464	picture	0		114	62.0	/experiments/Knapen_AOT/AOT_stimuli/pictures/0986_fw.png	132.90003180503845	0.9513943195343018
64	68.3838381767273	response	0	k		62.0	/experiments/Knapen_AOT/AOT_stimuli/pictures/0986_fw.png	133.8390347957611	
65	68.39622950553894	picture	0		139	63.0	/experiments/Knapen_AOT/AOT_stimuli/pictures/0295_fw.png	133.85142612457275	1.1597399711608887
65	69.54232549667358	response	0	j		63.0	/experiments/Knapen_AOT/AOT_stimuli/pictures/0295_fw.png	134.9975221157074	
66	69.55596947669983	picture	0		125	64.0	/experiments/Knapen_AOT/AOT_stimuli/pictures/1770_fw.png	135.01116609573364	1.048619270324707
66	70.59220933914185	response	0	j		64.0	/experiments/Knapen_AOT/AOT_stimuli/pictures/1770_fw.png	136.04740595817566	
67	70.60458874702454	picture	0		163	65.0	/experiments/Knapen_AOT/AOT_stimuli/pictures/1882_fw.png	136.05978536605835	1.354102373123169
67	71.95057225227356	response	0	j		65.0	/experiments/Knapen_AOT/AOT_stimuli/pictures/1882_fw.png	137.40576887130737	
68	71.9586911201477	picture	0		136	66.0	/experiments/Knapen_AOT/AOT_stimuli/pictures/1968_fw.png	137.41388773918152	1.1389720439910889
68	73.08402061462402	response	0	k		66.0	/experiments/Knapen_AOT/AOT_stimuli/pictures/1968_fw.png	138.53921723365784	
69	73.0976631641388	picture	0		97	67.0	/experiments/Knapen_AOT/AOT_stimuli/pictures/0950_fw.png	138.5528597831726	0.8125038146972656
69	73.89421772956848	response	0	j		67.0	/experiments/Knapen_AOT/AOT_stimuli/pictures/0950_fw.png	139.3494143486023	
70	73.91016697883606	picture	0		95	68.0	/experiments/Knapen_AOT/AOT_stimuli/pictures/0408_fw.png	139.36536359786987	0.7988123893737793
70	74.69243311882019	response	0	j		68.0	/experiments/Knapen_AOT/AOT_stimuli/pictures/0408_fw.png	140.147629737854	
71	74.70897936820984	picture	0		121	69.0	/experiments/Knapen_AOT/AOT_stimuli/pictures/0792_fw.png	140.16417598724365	1.013685703277588
71	75.70168733596802	response	0	k		69.0	/experiments/Knapen_AOT/AOT_stimuli/pictures/0792_fw.png	141.15688395500183	
72	75.72266507148743	picture	0		111	70.0	/experiments/Knapen_AOT/AOT_stimuli/pictures/1773_fw.png	141.17786169052124	0.9361062049865723
72	76.6423008441925	response	0	k		70.0	/experiments/Knapen_AOT/AOT_stimuli/pictures/1773_fw.png	142.09749746322632	
73	76.658771276474	picture	0		209	71.0	/experiments/Knapen_AOT/AOT_stimuli/pictures/0006_fw.png	142.1139678955078	1.7444355487823486
73	78.39231395721436	response	0	j		71.0	/experiments/Knapen_AOT/AOT_stimuli/pictures/0006_fw.png	143.84751057624817	
74	78.40320682525635	picture	0		101	72.0	/experiments/Knapen_AOT/AOT_stimuli/pictures/0053_fw.png	143.85840344429016	0.840343713760376
74	79.23399424552917	response	0	k		72.0	/experiments/Knapen_AOT/AOT_stimuli/pictures/0053_fw.png	144.689190864563	
75	79.24355053901672	picture	0		127	73.0	/experiments/Knapen_AOT/AOT_stimuli/pictures/0320_fw.png	144.69874715805054	1.0652692317962646
75	80.29274845123291	response	0	j		73.0	/experiments/Knapen_AOT/AOT_stimuli/pictures/0320_fw.png	145.74794507026672	
76	80.30881977081299	picture	0		157	74.0	/experiments/Knapen_AOT/AOT_stimuli/pictures/1040_fw.png	145.7640163898468	1.3167142868041992
76	81.6090669631958	response	0	j		74.0	/experiments/Knapen_AOT/AOT_stimuli/pictures/1040_fw.png	147.06426358222961	
77	81.62553405761719	picture	0		172	75.0	/experiments/Knapen_AOT/AOT_stimuli/pictures/1111_fw.png	147.080730676651	1.4373536109924316
77	83.05067873001099	response	0	k		75.0	/experiments/Knapen_AOT/AOT_stimuli/pictures/1111_fw.png	148.5058753490448	
78	83.06288766860962	picture	0		188	76.0	/experiments/Knapen_AOT/AOT_stimuli/pictures/1367_fw.png	148.51808428764343	1.5709679126739502
78	84.61743497848511	response	0	k		76.0	/experiments/Knapen_AOT/AOT_stimuli/pictures/1367_fw.png	150.07263159751892	
79	84.63385558128357	picture	0		147	77.0	/experiments/Knapen_AOT/AOT_stimuli/pictures/1547_fw.png	150.08905220031738	1.2333531379699707
79	85.85089254379272	response	0	k		77.0	/experiments/Knapen_AOT/AOT_stimuli/pictures/1547_fw.png	151.30608916282654	
80	85.86720871925354	picture	0		101	78.0	/experiments/Knapen_AOT/AOT_stimuli/pictures/1702_fw.png	151.32240533828735	0.8417003154754639
80	86.6936707496643	response	0	k		78.0	/experiments/Knapen_AOT/AOT_stimuli/pictures/1702_fw.png	152.14886736869812	
81	86.708909034729	picture	0		131	79.0	/experiments/Knapen_AOT/AOT_stimuli/pictures/1515_fw.png	152.16410565376282	1.0971577167510986
81	87.79240036010742	response	0	k		79.0	/experiments/Knapen_AOT/AOT_stimuli/pictures/1515_fw.png	153.24759697914124	
82	87.8060667514801	picture	0		102	80.0	/experiments/Knapen_AOT/AOT_stimuli/pictures/0261_fw.png	153.26126337051392	0.8541824817657471
82	88.65076303482056	response	0	j		80.0	/experiments/Knapen_AOT/AOT_stimuli/pictures/0261_fw.png	154.10595965385437	
83	88.66024923324585	picture	0		176	81.0	/experiments/Knapen_AOT/AOT_stimuli/pictures/1444_fw.png	154.11544585227966	1.4736833572387695
83	90.11749076843262	response	0	k		81.0	/experiments/Knapen_AOT/AOT_stimuli/pictures/1444_fw.png	155.57268738746643	
84	90.13393259048462	picture	0		105	82.0	/experiments/Knapen_AOT/AOT_stimuli/pictures/1932_fw.png	155.58912920951843	0.8806066513061523
84	91.00080800056458	response	0	k		82.0	/experiments/Knapen_AOT/AOT_stimuli/pictures/1932_fw.png	156.4560046195984	
85	91.01453924179077	picture	0		91	83.0	/experiments/Knapen_AOT/AOT_stimuli/pictures/0265_fw.png	156.46973586082458	0.763808012008667
85	91.76748538017273	response	0	j		83.0	/experiments/Knapen_AOT/AOT_stimuli/pictures/0265_fw.png	157.22268199920654	
86	91.77834725379944	picture	0		99	84.0	/experiments/Knapen_AOT/AOT_stimuli/pictures/2112_fw.png	157.23354387283325	0.8263964653015137
86	92.59247827529907	response	0	k		84.0	/experiments/Knapen_AOT/AOT_stimuli/pictures/2112_fw.png	158.04767489433289	
87	92.60474371910095	picture	0		135	85.0	/experiments/Knapen_AOT/AOT_stimuli/pictures/0730_fw.png	158.05994033813477	1.1250128746032715
87	93.71747899055481	response	0	k		85.0	/experiments/Knapen_AOT/AOT_stimuli/pictures/0730_fw.png	159.17267560958862	
88	93.72975659370422	picture	0		219	86.0	/experiments/Knapen_AOT/AOT_stimuli/pictures/0742_fw.png	159.18495321273804	1.8262813091278076
88	95.54249906539917	response	0	j		86.0	/experiments/Knapen_AOT/AOT_stimuli/pictures/0742_fw.png	160.99769568443298	
89	95.55603790283203	picture	0		94	87.0	/experiments/Knapen_AOT/AOT_stimuli/pictures/1707_fw.png	161.01123452186584	0.7917437553405762
89	96.33424258232117	response	0	k		87.0	/experiments/Knapen_AOT/AOT_stimuli/pictures/1707_fw.png	161.78943920135498	
90	96.34778165817261	picture	0		120	88.0	/experiments/Knapen_AOT/AOT_stimuli/pictures/1802_fw.png	161.80297827720642	1.0069570541381836
90	97.34273767471313	response	0	k		88.0	/experiments/Knapen_AOT/AOT_stimuli/pictures/1802_fw.png	162.79793429374695	
91	97.35473871231079	picture	0		104	89.0	/experiments/Knapen_AOT/AOT_stimuli/pictures/0086_fw.png	162.8099353313446	0.8680691719055176
91	98.20917820930481	response	0	j		89.0	/experiments/Knapen_AOT/AOT_stimuli/pictures/0086_fw.png	163.66437482833862	
92	98.22280788421631	picture	0		278	90.0	/experiments/Knapen_AOT/AOT_stimuli/pictures/0202_fw.png	163.67800450325012	2.3195226192474365
92	100.5345368385315	response	0	k		90.0	/experiments/Knapen_AOT/AOT_stimuli/pictures/0202_fw.png	165.9897334575653	
93	100.54233050346375	picture	0		132	91.0	/experiments/Knapen_AOT/AOT_stimuli/pictures/1776_fw.png	165.99752712249756	1.1041245460510254
93	101.63424444198608	response	0	j		91.0	/experiments/Knapen_AOT/AOT_stimuli/pictures/1776_fw.png	167.0894410610199	
94	101.64645504951477	picture	0		108	92.0	/experiments/Knapen_AOT/AOT_stimuli/pictures/2151_fw.png	167.10165166854858	0.8958983421325684
94	102.53452348709106	response	0	j		92.0	/experiments/Knapen_AOT/AOT_stimuli/pictures/2151_fw.png	167.98972010612488	
95	102.54235339164734	picture	0		178	93.0	/experiments/Knapen_AOT/AOT_stimuli/pictures/1028_fw.png	167.99755001068115	1.4917280673980713
95	104.01763439178467	response	0	k		93.0	/experiments/Knapen_AOT/AOT_stimuli/pictures/1028_fw.png	169.47283101081848	
96	104.03408145904541	picture	0		94	94.0	/experiments/Knapen_AOT/AOT_stimuli/pictures/0892_fw.png	169.48927807807922	0.7917406558990479
96	104.80933928489685	response	0	j		94.0	/experiments/Knapen_AOT/AOT_stimuli/pictures/0892_fw.png	170.26453590393066	
97	104.82582211494446	picture	0		113	95.0	/experiments/Knapen_AOT/AOT_stimuli/pictures/1599_fw.png	170.28101873397827	0.945641279220581
97	105.75926733016968	response	0	k		95.0	/experiments/Knapen_AOT/AOT_stimuli/pictures/1599_fw.png	171.2144639492035	
98	105.77146339416504	picture	0		116	96.0	/experiments/Knapen_AOT/AOT_stimuli/pictures/2165_fw.png	171.22666001319885	0.970980167388916
98	106.7261061668396	response	0	k		96.0	/experiments/Knapen_AOT/AOT_stimuli/pictures/2165_fw.png	172.1813027858734	
99	106.74244356155396	picture	0		119	97.0	/experiments/Knapen_AOT/AOT_stimuli/pictures/1585_fw.png	172.19764018058777	1.0000083446502686
99	107.72598481178284	response	0	k		97.0	/experiments/Knapen_AOT/AOT_stimuli/pictures/1585_fw.png	173.18118143081665	
100	107.74245190620422	picture	0		116	98.0	/experiments/Knapen_AOT/AOT_stimuli/pictures/1849_fw.png	173.19764852523804	0.9666335582733154
100	108.69333624839783	response	0	k		98.0	/experiments/Knapen_AOT/AOT_stimuli/pictures/1849_fw.png	174.14853286743164	
101	108.70908546447754	picture	0		153	99.0	/experiments/Knapen_AOT/AOT_stimuli/pictures/0648_fw.png	174.16428208351135	1.2834126949310303
101	109.97617697715759	response	0	j		99.0	/experiments/Knapen_AOT/AOT_stimuli/pictures/0648_fw.png	175.4313735961914	
102	109.99249815940857	picture	0		148	100.0	/experiments/Knapen_AOT/AOT_stimuli/pictures/1745_fw.png	175.44769477844238	1.241633653640747
102	111.21773791313171	response	0	k		100.0	/experiments/Knapen_AOT/AOT_stimuli/pictures/1745_fw.png	176.67293453216553	
103	111.23413181304932	picture	0		131	101.0	/experiments/Knapen_AOT/AOT_stimuli/pictures/2039_fw.png	176.68932843208313	1.100017786026001
103	112.31780743598938	response	0	j		101.0	/experiments/Knapen_AOT/AOT_stimuli/pictures/2039_fw.png	177.7730040550232	
104	112.33414959907532	picture	0		118	102.0	/experiments/Knapen_AOT/AOT_stimuli/pictures/1399_fw.png	177.78934621810913	0.991701602935791
104	113.3094732761383	response	0	k		102.0	/experiments/Knapen_AOT/AOT_stimuli/pictures/1399_fw.png	178.76466989517212	
105	113.32585120201111	picture	0		127	103.0	/experiments/Knapen_AOT/AOT_stimuli/pictures/1301_fw.png	178.78104782104492	1.0667366981506348
105	114.37603688240051	response	0	k		103.0	/experiments/Knapen_AOT/AOT_stimuli/pictures/1301_fw.png	179.83123350143433	
106	114.39258790016174	picture	0		177	104.0	/experiments/Knapen_AOT/AOT_stimuli/pictures/0897_fw.png	179.84778451919556	1.4760432243347168
106	115.85941982269287	response	0	k		104.0	/experiments/Knapen_AOT/AOT_stimuli/pictures/0897_fw.png	181.31461644172668	
107	115.86863112449646	picture	0		102	105.0	/experiments/Knapen_AOT/AOT_stimuli/pictures/2096_fw.png	181.32382774353027	0.8542611598968506
107	116.70188808441162	response	0	k		105.0	/experiments/Knapen_AOT/AOT_stimuli/pictures/2096_fw.png	182.15708470344543	
108	116.72289228439331	picture	0		102	106.0	/experiments/Knapen_AOT/AOT_stimuli/pictures/1134_fw.png	182.17808890342712	0.8613090515136719
108	117.56775879859924	response	0	k		106.0	/experiments/Knapen_AOT/AOT_stimuli/pictures/1134_fw.png	183.02295541763306	
109	117.58420133590698	picture	0		112	107.0	/experiments/Knapen_AOT/AOT_stimuli/pictures/1139_fw.png	183.0393979549408	0.9375095367431641
109	118.50182104110718	response	0	k		107.0	/experiments/Knapen_AOT/AOT_stimuli/pictures/1139_fw.png	183.957017660141	
110	118.52171087265015	picture	0		110	108.0	/experiments/Knapen_AOT/AOT_stimuli/pictures/1161_fw.png	183.97690749168396	0.9234118461608887
110	119.43448114395142	response	0	k		108.0	/experiments/Knapen_AOT/AOT_stimuli/pictures/1161_fw.png	184.88967776298523	
111	119.44512271881104	picture	0		99	109.0	/experiments/Knapen_AOT/AOT_stimuli/pictures/1181_fw.png	184.90031933784485	0.8264832496643066
111	120.25945234298706	response	0	k		109.0	/experiments/Knapen_AOT/AOT_stimuli/pictures/1181_fw.png	185.71464896202087	
112	120.27160596847534	picture	0		161	110.0	/experiments/Knapen_AOT/AOT_stimuli/pictures/0917_fw.png	185.72680258750916	1.3401215076446533
112	121.60112810134888	response	0	k		110.0	/experiments/Knapen_AOT/AOT_stimuli/pictures/0917_fw.png	187.0563247203827	
113	121.61172747612	picture	0		120	111.0	/experiments/Knapen_AOT/AOT_stimuli/pictures/0033_fw.png	187.0669240951538	1.000138759613037
113	122.60113024711609	response	0	j		111.0	/experiments/Knapen_AOT/AOT_stimuli/pictures/0033_fw.png	188.0563268661499	
114	122.61186623573303	picture	0		108	112.0	/experiments/Knapen_AOT/AOT_stimuli/pictures/0029_fw.png	188.06706285476685	0.902745246887207
114	123.50134134292603	response	0	k		112.0	/experiments/Knapen_AOT/AOT_stimuli/pictures/0029_fw.png	188.95653796195984	
115	123.51461148262024	picture	0		275	113.0	/experiments/Knapen_AOT/AOT_stimuli/pictures/0786_fw.png	188.96980810165405	2.3030476570129395
115	125.80119919776917	response	0	k		113.0	/experiments/Knapen_AOT/AOT_stimuli/pictures/0786_fw.png	191.25639581680298	
116	125.81765913963318	picture	0		131	114.0	/experiments/Knapen_AOT/AOT_stimuli/pictures/0204_fw.png	191.272855758667	1.092829704284668
116	126.89400053024292	response	0	j		114.0	/experiments/Knapen_AOT/AOT_stimuli/pictures/0204_fw.png	192.34919714927673	
117	126.91048884391785	picture	0		115	115.0	/experiments/Knapen_AOT/AOT_stimuli/pictures/0618_fw.png	192.36568546295166	0.965491533279419
117	127.85977435112	response	0	k		115.0	/experiments/Knapen_AOT/AOT_stimuli/pictures/0618_fw.png	193.3149709701538	
118	127.87598037719727	picture	0		124	116.0	/experiments/Knapen_AOT/AOT_stimuli/pictures/1999_fw.png	193.33117699623108	1.034510612487793
118	128.89489936828613	response	0	k		116.0	/experiments/Knapen_AOT/AOT_stimuli/pictures/1999_fw.png	194.35009598731995	
119	128.91049098968506	picture	0		104	117.0	/experiments/Knapen_AOT/AOT_stimuli/pictures/1825_fw.png	194.36568760871887	0.8680663108825684
119	129.76789140701294	response	0	k		117.0	/experiments/Knapen_AOT/AOT_stimuli/pictures/1825_fw.png	195.22308802604675	
120	129.77855730056763	picture	0		120	118.0	/experiments/Knapen_AOT/AOT_stimuli/pictures/1728_fw.png	195.23375391960144	1.005889892578125
120	130.76814937591553	response	0	k		118.0	/experiments/Knapen_AOT/AOT_stimuli/pictures/1728_fw.png	196.22334599494934	
121	130.78444719314575	picture	0		92	119.0	/experiments/Knapen_AOT/AOT_stimuli/pictures/1837_fw.png	196.23964381217957	0.7718889713287354
121	131.54289364814758	response	0	k		119.0	/experiments/Knapen_AOT/AOT_stimuli/pictures/1837_fw.png	196.9980902671814	
122	131.5563361644745	picture	0		90	120.0	/experiments/Knapen_AOT/AOT_stimuli/pictures/0594_fw.png	197.0115327835083	0.7569615840911865
122	132.29354333877563	response	0	j		120.0	/experiments/Knapen_AOT/AOT_stimuli/pictures/0594_fw.png	197.74873995780945	
123	132.31329774856567	picture	0		121	121.0	/experiments/Knapen_AOT/AOT_stimuli/pictures/0055_fw.png	197.7684943675995	1.0128557682037354
123	133.30964517593384	response	0	j		121.0	/experiments/Knapen_AOT/AOT_stimuli/pictures/0055_fw.png	198.76484179496765	
124	133.3261535167694	picture	0		103	122.0	/experiments/Knapen_AOT/AOT_stimuli/pictures/0266_fw.png	198.78135013580322	0.8621375560760498
124	134.17628407478333	response	0	k		122.0	/experiments/Knapen_AOT/AOT_stimuli/pictures/0266_fw.png	199.63148069381714	
125	134.18829107284546	picture	0		168	123.0	/experiments/Knapen_AOT/AOT_stimuli/pictures/1798_fw.png	199.64348769187927	1.3961186408996582
125	135.57630348205566	response	0	j		123.0	/experiments/Knapen_AOT/AOT_stimuli/pictures/1798_fw.png	201.03150010108948	
126	135.58440971374512	picture	0		95	124.0	/experiments/Knapen_AOT/AOT_stimuli/pictures/0625_fw.png	201.03960633277893	0.7916646003723145
126	136.36794781684875	response	0	k		124.0	/experiments/Knapen_AOT/AOT_stimuli/pictures/0625_fw.png	201.82314443588257	
127	136.37607431411743	picture	0		117	125.0	/experiments/Knapen_AOT/AOT_stimuli/pictures/1913_fw.png	201.83127093315125	0.9833869934082031
127	137.3429946899414	response	0	k		125.0	/experiments/Knapen_AOT/AOT_stimuli/pictures/1913_fw.png	202.79819130897522	
128	137.35946130752563	picture	0		103	126.0	/experiments/Knapen_AOT/AOT_stimuli/pictures/1120_fw.png	202.81465792655945	0.8636186122894287
128	138.20961594581604	response	0	j		126.0	/experiments/Knapen_AOT/AOT_stimuli/pictures/1120_fw.png	203.66481256484985	
129	138.22307991981506	picture	0		114	127.0	/experiments/Knapen_AOT/AOT_stimuli/pictures/1233_fw.png	203.67827653884888	0.9583618640899658
129	139.16802740097046	response	0	k		127.0	/experiments/Knapen_AOT/AOT_stimuli/pictures/1233_fw.png	204.62322402000427	
130	139.18144178390503	picture	0		107	128.0	/experiments/Knapen_AOT/AOT_stimuli/pictures/0715_fw.png	204.63663840293884	0.8957846164703369
130	140.06222939491272	response	0	j		128.0	/experiments/Knapen_AOT/AOT_stimuli/pictures/0715_fw.png	205.51742601394653	
131	140.07722640037537	picture	0		95	129.0	/experiments/Knapen_AOT/AOT_stimuli/pictures/0077_fw.png	205.53242301940918	0.7916955947875977
131	140.85973191261292	response	0	j		129.0	/experiments/Knapen_AOT/AOT_stimuli/pictures/0077_fw.png	206.31492853164673	
132	140.86892199516296	picture	0		139	130.0	/experiments/Knapen_AOT/AOT_stimuli/pictures/0107_fw.png	206.32411861419678	1.165621280670166
132	142.01799058914185	response	0	j		130.0	/experiments/Knapen_AOT/AOT_stimuli/pictures/0107_fw.png	207.47318720817566	
133	142.03454327583313	picture	0		90	131.0	/experiments/Knapen_AOT/AOT_stimuli/pictures/0731_fw.png	207.48973989486694	0.7510457038879395
133	142.77646207809448	response	0	j		131.0	/experiments/Knapen_AOT/AOT_stimuli/pictures/0731_fw.png	208.2316586971283	
134	142.78558897972107	picture	0		120	132.0	/experiments/Knapen_AOT/AOT_stimuli/pictures/0774_fw.png	208.24078559875488	1.0072581768035889
134	143.7766215801239	response	0	k		132.0	/experiments/Knapen_AOT/AOT_stimuli/pictures/0774_fw.png	209.23181819915771	
135	143.79284715652466	picture	0		121	133.0	/experiments/Knapen_AOT/AOT_stimuli/pictures/1976_fw.png	209.24804377555847	1.016685962677002
135	144.7930302619934	response	0	k		133.0	/experiments/Knapen_AOT/AOT_stimuli/pictures/1976_fw.png	210.24822688102722	
136	144.80953311920166	picture	0		115	134.0	/experiments/Knapen_AOT/AOT_stimuli/pictures/0848_fw.png	210.26472973823547	0.9666707515716553
136	145.7597517967224	response	0	j		134.0	/experiments/Knapen_AOT/AOT_stimuli/pictures/0848_fw.png	211.21494841575623	
137	145.77620387077332	picture	0		140	135.0	/experiments/Knapen_AOT/AOT_stimuli/pictures/0078_fw.png	211.23140048980713	1.1750335693359375
137	146.93474411964417	response	0	j		135.0	/experiments/Knapen_AOT/AOT_stimuli/pictures/0078_fw.png	212.38994073867798	
138	146.95123744010925	picture	0		116	136.0	/experiments/Knapen_AOT/AOT_stimuli/pictures/0021_fw.png	212.40643405914307	0.966627836227417
138	147.90978360176086	response	0	k		136.0	/experiments/Knapen_AOT/AOT_stimuli/pictures/0021_fw.png	213.36498022079468	
139	147.91786527633667	picture	0		233	137.0	/experiments/Knapen_AOT/AOT_stimuli/pictures/0902_fw.png	213.37306189537048	1.9500885009765625
139	149.85142874717712	response	0	j		137.0	/experiments/Knapen_AOT/AOT_stimuli/pictures/0902_fw.png	215.30662536621094	
140	149.86795377731323	picture	0		104	138.0	/experiments/Knapen_AOT/AOT_stimuli/pictures/1489_fw.png	215.32315039634705	0.8749990463256836
140	150.72654032707214	response	0	k		138.0	/experiments/Knapen_AOT/AOT_stimuli/pictures/1489_fw.png	216.18173694610596	
141	150.74295282363892	picture	0		125	139.0	/experiments/Knapen_AOT/AOT_stimuli/pictures/0479_fw.png	216.19814944267273	1.1834125518798828
141	151.91287875175476	response	0	k		139.0	/experiments/Knapen_AOT/AOT_stimuli/pictures/0479_fw.png	217.36807537078857	
142	151.9263653755188	picture	0		94	140.0	/experiments/Knapen_AOT/AOT_stimuli/pictures/1716_fw.png	217.3815619945526	0.791663408279419
142	152.70181131362915	response	0	j		140.0	/experiments/Knapen_AOT/AOT_stimuli/pictures/1716_fw.png	218.15700793266296	
143	152.71802878379822	picture	0		107	141.0	/experiments/Knapen_AOT/AOT_stimuli/pictures/1116_fw.png	218.17322540283203	0.8999607563018799
143	153.60166931152344	response	0	j		141.0	/experiments/Knapen_AOT/AOT_stimuli/pictures/1116_fw.png	219.05686593055725	
144	153.6179895401001	picture	0		121	142.0	/experiments/Knapen_AOT/AOT_stimuli/pictures/1477_fw.png	219.0731861591339	1.0148627758026123
144	154.61814904212952	response	0	k		142.0	/experiments/Knapen_AOT/AOT_stimuli/pictures/1477_fw.png	220.07334566116333	
145	154.6328523159027	picture	0		102	143.0	/experiments/Knapen_AOT/AOT_stimuli/pictures/0720_fw.png	220.08804893493652	0.8601346015930176
145	155.47656059265137	response	0	j		143.0	/experiments/Knapen_AOT/AOT_stimuli/pictures/0720_fw.png	220.93175721168518	
146	155.49298691749573	picture	0		191	144.0	/experiments/Knapen_AOT/AOT_stimuli/pictures/1765_fw.png	220.94818353652954	1.6000380516052246
146	157.07655429840088	response	0	k		144.0	/experiments/Knapen_AOT/AOT_stimuli/pictures/1765_fw.png	222.5317509174347	
147	157.09302496910095	picture	0		95	145.0	/experiments/Knapen_AOT/AOT_stimuli/pictures/1878_fw.png	222.54822158813477	0.7999846935272217
147	157.87653994560242	response	0	j		145.0	/experiments/Knapen_AOT/AOT_stimuli/pictures/1878_fw.png	223.33173656463623	
148	157.89300966262817	picture	0		153	146.0	/experiments/Knapen_AOT/AOT_stimuli/pictures/0548_fw.png	223.348206281662	1.2749812602996826
148	159.15990138053894	response	0	k		146.0	/experiments/Knapen_AOT/AOT_stimuli/pictures/0548_fw.png	224.61509799957275	
149	159.16799092292786	picture	0		114	147.0	/experiments/Knapen_AOT/AOT_stimuli/pictures/0865_fw.png	224.62318754196167	0.9583570957183838
149	160.10993313789368	response	0	k		147.0	/experiments/Knapen_AOT/AOT_stimuli/pictures/0865_fw.png	225.5651297569275	
150	160.12634801864624	picture	0		127	148.0	/experiments/Knapen_AOT/AOT_stimuli/pictures/1404_fw.png	225.58154463768005	1.0667657852172852
150	161.17655515670776	response	0	k		148.0	/experiments/Knapen_AOT/AOT_stimuli/pictures/1404_fw.png	226.63175177574158	
151	161.19311380386353	picture	0		133	149.0	/experiments/Knapen_AOT/AOT_stimuli/pictures/0901_fw.png	226.64831042289734	1.1134991645812988
151	162.2868218421936	response	0	k		149.0	/experiments/Knapen_AOT/AOT_stimuli/pictures/0901_fw.png	227.74201846122742	
152	162.30661296844482	picture	0		124	150.0	/experiments/Knapen_AOT/AOT_stimuli/pictures/0377_fw.png	227.76180958747864	1.0448253154754639
152	163.33493041992188	response	0	k		150.0	/experiments/Knapen_AOT/AOT_stimuli/pictures/0377_fw.png	228.7901270389557	
153	163.3514382839203	picture	0		88	151.0	/experiments/Knapen_AOT/AOT_stimuli/pictures/0229_fw.png	228.8066349029541	0.7416667938232422
153	164.0702691078186	response	0	k		151.0	/experiments/Knapen_AOT/AOT_stimuli/pictures/0229_fw.png	229.52546572685242	
154	164.09310507774353	picture	0		99	152.0	/experiments/Knapen_AOT/AOT_stimuli/pictures/1824_fw.png	229.54830169677734	0.833331823348999
154	164.90994095802307	response	0	j		152.0	/experiments/Knapen_AOT/AOT_stimuli/pictures/1824_fw.png	230.36513757705688	
155	164.92643690109253	picture	0		98	153.0	/experiments/Knapen_AOT/AOT_stimuli/pictures/0095_fw.png	230.38163352012634	0.8176631927490234
155	165.73496174812317	response	0	j		153.0	/experiments/Knapen_AOT/AOT_stimuli/pictures/0095_fw.png	231.19015836715698	
156	165.74410009384155	picture	0		105	154.0	/experiments/Knapen_AOT/AOT_stimuli/pictures/1621_fw.png	231.19929671287537	0.8749423027038574
156	166.60993814468384	response	0	k		154.0	/experiments/Knapen_AOT/AOT_stimuli/pictures/1621_fw.png	232.06513476371765	
157	166.6190423965454	picture	0		115	155.0	/experiments/Knapen_AOT/AOT_stimuli/pictures/0343_fw.png	232.07423901557922	0.965728759765625
157	167.5685727596283	response	0	k		155.0	/experiments/Knapen_AOT/AOT_stimuli/pictures/0343_fw.png	233.0237693786621	
158	167.58477115631104	picture	0		110	156.0	/experiments/Knapen_AOT/AOT_stimuli/pictures/0263_fw.png	233.03996777534485	0.9250800609588623
158	168.4862823486328	response	0	k		156.0	/experiments/Knapen_AOT/AOT_stimuli/pictures/0263_fw.png	233.94147896766663	
159	168.5098512172699	picture	0		105	157.0	/experiments/Knapen_AOT/AOT_stimuli/pictures/2073_fw.png	233.9650478363037	0.8800203800201416
159	169.37665247917175	response	0	k		157.0	/experiments/Knapen_AOT/AOT_stimuli/pictures/2073_fw.png	234.83184909820557	
160	169.38987159729004	picture	0		101	158.0	/experiments/Knapen_AOT/AOT_stimuli/pictures/1600_fw.png	234.84506821632385	0.8533201217651367
160	170.22666835784912	response	0	j		158.0	/experiments/Knapen_AOT/AOT_stimuli/pictures/1600_fw.png	235.68186497688293	
161	170.24319171905518	picture	0		99	159.0	/experiments/Knapen_AOT/AOT_stimuli/pictures/1519_fw.png	235.698388338089	0.8272647857666016
161	171.0601143836975	response	0	k		159.0	/experiments/Knapen_AOT/AOT_stimuli/pictures/1519_fw.png	236.51531100273132	
162	171.07045650482178	picture	0		115	160.0	/experiments/Knapen_AOT/AOT_stimuli/pictures/1118_fw.png	236.5256531238556	0.9643819332122803
162	172.01854419708252	response	0	j		160.0	/experiments/Knapen_AOT/AOT_stimuli/pictures/1118_fw.png	237.47374081611633	
163	172.03483843803406	picture	0		128	161.0	/experiments/Knapen_AOT/AOT_stimuli/pictures/0498_fw.png	237.49003505706787	1.070408582687378
163	173.0859215259552	response	0	k		161.0	/experiments/Knapen_AOT/AOT_stimuli/pictures/0498_fw.png	238.541118144989	
164	173.10524702072144	picture	0		95	162.0	/experiments/Knapen_AOT/AOT_stimuli/pictures/1739_fw.png	238.56044363975525	0.7916185855865479
164	173.87815284729004	response	0	k		162.0	/experiments/Knapen_AOT/AOT_stimuli/pictures/1739_fw.png	239.33334946632385	
165	173.89686560630798	picture	0		178	163.0	/experiments/Knapen_AOT/AOT_stimuli/pictures/0612_fw.png	239.3520622253418	1.4880423545837402
165	175.36841320991516	response	0	k		163.0	/experiments/Knapen_AOT/AOT_stimuli/pictures/0612_fw.png	240.82360982894897	
166	175.38490796089172	picture	0		276	164.0	/experiments/Knapen_AOT/AOT_stimuli/pictures/1354_fw.png	240.84010457992554	2.3083600997924805
166	177.66978645324707	response	0	k		164.0	/experiments/Knapen_AOT/AOT_stimuli/pictures/1354_fw.png	243.12498307228088	
167	177.6932680606842	picture	0		88	165.0	/experiments/Knapen_AOT/AOT_stimuli/pictures/1082_fw.png	243.14846467971802	0.7383661270141602
167	178.41843008995056	response	0	k		165.0	/experiments/Knapen_AOT/AOT_stimuli/pictures/1082_fw.png	243.87362670898438	
168	178.43163418769836	picture	0		98	166.0	/experiments/Knapen_AOT/AOT_stimuli/pictures/1436_fw.png	243.88683080673218	0.8263916969299316
168	179.24351620674133	response	0	k		166.0	/experiments/Knapen_AOT/AOT_stimuli/pictures/1436_fw.png	244.69871282577515	
169	179.2580258846283	picture	0		114	167.0	/experiments/Knapen_AOT/AOT_stimuli/pictures/1937_fw.png	244.7132225036621	0.9602413177490234
169	180.20183515548706	response	0	k		167.0	/experiments/Knapen_AOT/AOT_stimuli/pictures/1937_fw.png	245.65703177452087	
170	180.21826720237732	picture	0		114	168.0	/experiments/Knapen_AOT/AOT_stimuli/pictures/0915_fw.png	245.67346382141113	0.9564108848571777
170	181.16013932228088	response	0	j		168.0	/experiments/Knapen_AOT/AOT_stimuli/pictures/0915_fw.png	246.6153359413147	
171	181.1746780872345	picture	0		123	169.0	/experiments/Knapen_AOT/AOT_stimuli/pictures/2091_fw.png	246.6298747062683	1.0278143882751465
171	182.1934835910797	response	0	k		169.0	/experiments/Knapen_AOT/AOT_stimuli/pictures/2091_fw.png	247.64868021011353	
172	182.20249247550964	picture	0		134	170.0	/experiments/Knapen_AOT/AOT_stimuli/pictures/1487_fw.png	247.65768909454346	1.1180319786071777
172	183.31020283699036	response	0	k		170.0	/experiments/Knapen_AOT/AOT_stimuli/pictures/1487_fw.png	248.76539945602417	
173	183.32052445411682	picture	0		138	171.0	/experiments/Knapen_AOT/AOT_stimuli/pictures/0846_fw.png	248.77572107315063	1.1527862548828125
173	184.46016097068787	response	0	k		171.0	/experiments/Knapen_AOT/AOT_stimuli/pictures/0846_fw.png	249.91535758972168	
174	184.47331070899963	picture	0		142	172.0	/experiments/Knapen_AOT/AOT_stimuli/pictures/0782_fw.png	249.92850732803345	1.1805908679962158
174	185.64382696151733	response	0	k		172.0	/experiments/Knapen_AOT/AOT_stimuli/pictures/0782_fw.png	251.09902358055115	
175	185.65390157699585	picture	0		104	173.0	/experiments/Knapen_AOT/AOT_stimuli/pictures/1280_fw.png	251.10909819602966	0.8680920600891113
175	186.51019835472107	response	0	k		173.0	/experiments/Knapen_AOT/AOT_stimuli/pictures/1280_fw.png	251.96539497375488	
176	186.52199363708496	picture	0		172	174.0	/experiments/Knapen_AOT/AOT_stimuli/pictures/1095_fw.png	251.97719025611877	1.438033103942871
176	187.94361996650696	response	0	k		174.0	/experiments/Knapen_AOT/AOT_stimuli/pictures/1095_fw.png	253.39881658554077	
177	187.96002674102783	picture	0		96	175.0	/experiments/Knapen_AOT/AOT_stimuli/pictures/1001_fw.png	253.41522336006165	0.8083698749542236
177	188.75187277793884	response	0	j		175.0	/experiments/Knapen_AOT/AOT_stimuli/pictures/1001_fw.png	254.20706939697266	
178	188.76839661598206	picture	0		133	176.0	/experiments/Knapen_AOT/AOT_stimuli/pictures/0431_fw.png	254.22359323501587	1.1082873344421387
178	189.86859273910522	response	0	j		176.0	/experiments/Knapen_AOT/AOT_stimuli/pictures/0431_fw.png	255.32378935813904	
179	189.8766839504242	picture	0		84	177.0	/experiments/Knapen_AOT/AOT_stimuli/pictures/1081_fw.png	255.331880569458	0.7083725929260254
179	190.56870794296265	response	0	k		177.0	/experiments/Knapen_AOT/AOT_stimuli/pictures/1081_fw.png	256.02390456199646	
180	190.58505654335022	picture	0		97	178.0	/experiments/Knapen_AOT/AOT_stimuli/pictures/1618_fw.png	256.04025316238403	0.816716194152832
180	191.3852550983429	response	0	j		178.0	/experiments/Knapen_AOT/AOT_stimuli/pictures/1618_fw.png	256.8404517173767	
181	191.40177273750305	picture	0		104	179.0	/experiments/Knapen_AOT/AOT_stimuli/pictures/0327_fw.png	256.85696935653687	0.870250940322876
181	192.26028537750244	response	0	j		179.0	/experiments/Knapen_AOT/AOT_stimuli/pictures/0327_fw.png	257.71548199653625	
182	192.27202367782593	picture	0		171	180.0	/experiments/Knapen_AOT/AOT_stimuli/pictures/1586_fw.png	257.72722029685974	1.4297609329223633
182	193.67797446250916	response	0	j		180.0	/experiments/Knapen_AOT/AOT_stimuli/pictures/1586_fw.png	259.13317108154297	
183	193.7017846107483	picture	0		94	181.0	/experiments/Knapen_AOT/AOT_stimuli/pictures/0511_fw.png	259.1569812297821	0.7855279445648193
183	194.4696786403656	response	0	k		181.0	/experiments/Knapen_AOT/AOT_stimuli/pictures/0511_fw.png	259.9248752593994	
184	194.4873125553131	picture	0		235	182.0	/experiments/Knapen_AOT/AOT_stimuli/pictures/1439_fw.png	259.9425091743469	1.964571475982666
184	196.4355812072754	response	0	j		182.0	/experiments/Knapen_AOT/AOT_stimuli/pictures/1439_fw.png	261.8907778263092	
185	196.45188403129578	picture	0		103	183.0	/experiments/Knapen_AOT/AOT_stimuli/pictures/1764_fw.png	261.9070806503296	0.8665771484375
185	197.30207467079163	response	0	j		183.0	/experiments/Knapen_AOT/AOT_stimuli/pictures/1764_fw.png	262.75727128982544	
186	197.31846117973328	picture	0		125	184.0	/experiments/Knapen_AOT/AOT_stimuli/pictures/1573_fw.png	262.7736577987671	1.0438363552093506
186	198.35199117660522	response	0	k		184.0	/experiments/Knapen_AOT/AOT_stimuli/pictures/1573_fw.png	263.80718779563904	
187	198.36229753494263	picture	0		150	185.0	/experiments/Knapen_AOT/AOT_stimuli/pictures/0908_fw.png	263.81749415397644	1.25620436668396
187	199.60227632522583	response	0	k		185.0	/experiments/Knapen_AOT/AOT_stimuli/pictures/0908_fw.png	265.05747294425964	
188	199.6185019016266	picture	0		116	186.0	/experiments/Knapen_AOT/AOT_stimuli/pictures/0424_fw.png	265.0736985206604	0.97501540184021
188	200.57707238197327	response	0	j		186.0	/experiments/Knapen_AOT/AOT_stimuli/pictures/0424_fw.png	266.0322690010071	
189	200.5935173034668	picture	0		163	187.0	/experiments/Knapen_AOT/AOT_stimuli/pictures/1230_fw.png	266.0487139225006	1.3667142391204834
189	201.9437415599823	response	0	j		187.0	/experiments/Knapen_AOT/AOT_stimuli/pictures/1230_fw.png	267.3989381790161	
190	201.96023154258728	picture	0		125	188.0	/experiments/Knapen_AOT/AOT_stimuli/pictures/2046_fw.png	267.4154281616211	1.0499870777130127
190	202.99396538734436	response	0	k		188.0	/experiments/Knapen_AOT/AOT_stimuli/pictures/2046_fw.png	268.4491620063782	
191	203.0102186203003	picture	0		90	189.0	/experiments/Knapen_AOT/AOT_stimuli/pictures/0687_fw.png	268.4654152393341	0.7548933029174805
191	203.75203227996826	response	0	j		189.0	/experiments/Knapen_AOT/AOT_stimuli/pictures/0687_fw.png	269.2072288990021	
192	203.76511192321777	picture	0		225	190.0	/experiments/Knapen_AOT/AOT_stimuli/pictures/2044_fw.png	269.2203085422516	1.8784546852111816
192	205.62708115577698	response	0	k		190.0	/experiments/Knapen_AOT/AOT_stimuli/pictures/2044_fw.png	271.0822777748108	
193	205.64356660842896	picture	0		121	191.0	/experiments/Knapen_AOT/AOT_stimuli/pictures/1277_fw.png	271.09876322746277	1.0167052745819092
193	206.6438810825348	response	0	j		191.0	/experiments/Knapen_AOT/AOT_stimuli/pictures/1277_fw.png	272.0990777015686	
194	206.66027188301086	picture	0		248	192.0	/experiments/Knapen_AOT/AOT_stimuli/pictures/0727_fw.png	272.1154685020447	2.0750248432159424
194	208.71879053115845	response	0	k		192.0	/experiments/Knapen_AOT/AOT_stimuli/pictures/0727_fw.png	274.17398715019226	
195	208.7352967262268	picture	0		107	193.0	/experiments/Knapen_AOT/AOT_stimuli/pictures/1961_fw.png	274.1904933452606	0.8978917598724365
195	209.61879801750183	response	0	k		193.0	/experiments/Knapen_AOT/AOT_stimuli/pictures/1961_fw.png	275.07399463653564	
196	209.63318848609924	picture	0		120	194.0	/experiments/Knapen_AOT/AOT_stimuli/pictures/0038_fw.png	275.08838510513306	1.0104422569274902
196	210.6271722316742	response	0	k		194.0	/experiments/Knapen_AOT/AOT_stimuli/pictures/0038_fw.png	276.082368850708	
197	210.64363074302673	picture	0		110	195.0	/experiments/Knapen_AOT/AOT_stimuli/pictures/0739_fw.png	276.09882736206055	0.9201226234436035
197	211.55216073989868	response	0	k		195.0	/experiments/Knapen_AOT/AOT_stimuli/pictures/0739_fw.png	277.0073573589325	
198	211.56375336647034	picture	0		100	196.0	/experiments/Knapen_AOT/AOT_stimuli/pictures/1834_fw.png	277.01894998550415	0.8382248878479004
198	212.38555812835693	response	0	k		196.0	/experiments/Knapen_AOT/AOT_stimuli/pictures/1834_fw.png	277.84075474739075	
199	212.40197825431824	picture	0		124	197.0	/experiments/Knapen_AOT/AOT_stimuli/pictures/1141_fw.png	277.85717487335205	1.0368075370788574
199	213.42719078063965	response	0	k		197.0	/experiments/Knapen_AOT/AOT_stimuli/pictures/1141_fw.png	278.88238739967346	
200	213.4387857913971	picture	0		110	198.0	/experiments/Knapen_AOT/AOT_stimuli/pictures/1221_fw.png	278.8939824104309	0.9166738986968994
200	214.34384441375732	response	0	k		198.0	/experiments/Knapen_AOT/AOT_stimuli/pictures/1221_fw.png	279.79904103279114	
201	214.355459690094	picture	0		110	199.0	/experiments/Knapen_AOT/AOT_stimuli/pictures/1349_fw.png	279.8106563091278	0.916668176651001
201	215.26052284240723	response	0	k		199.0	/experiments/Knapen_AOT/AOT_stimuli/pictures/1349_fw.png	280.71571946144104	
202	215.272127866745	picture	0		105	200.0	/experiments/Knapen_AOT/AOT_stimuli/pictures/0364_fw.png	280.7273244857788	0.874992847442627
202	216.13552927970886	response	0	k		200.0	/experiments/Knapen_AOT/AOT_stimuli/pictures/0364_fw.png	281.5907258987427	
203	216.14712071418762	picture	0		133	201.0	/experiments/Knapen_AOT/AOT_stimuli/pictures/1537_fw.png	281.60231733322144	1.1111493110656738
203	217.24391531944275	response	0	j		201.0	/experiments/Knapen_AOT/AOT_stimuli/pictures/1537_fw.png	282.69911193847656	
204	217.2582700252533	picture	0		140	202.0	/experiments/Knapen_AOT/AOT_stimuli/pictures/0801_fw.png	282.7134666442871	1.1735987663269043
204	218.41888856887817	response	0	k		202.0	/experiments/Knapen_AOT/AOT_stimuli/pictures/0801_fw.png	283.874085187912	
205	218.4318687915802	picture	0		90	203.0	/experiments/Knapen_AOT/AOT_stimuli/pictures/1792_fw.png	283.887065410614	0.7535452842712402
205	219.16890835762024	response	0	j		203.0	/experiments/Knapen_AOT/AOT_stimuli/pictures/1792_fw.png	284.62410497665405	
206	219.18541407585144	picture	0		104	204.0	/experiments/Knapen_AOT/AOT_stimuli/pictures/1667_fw.png	284.64061069488525	0.8714933395385742
206	220.04391503334045	response	0	k		204.0	/experiments/Knapen_AOT/AOT_stimuli/pictures/1667_fw.png	285.49911165237427	
207	220.05690741539001	picture	0		117	205.0	/experiments/Knapen_AOT/AOT_stimuli/pictures/1964_fw.png	285.5121040344238	0.9791676998138428
207	221.0272605419159	response	0	k		205.0	/experiments/Knapen_AOT/AOT_stimuli/pictures/1964_fw.png	286.4824571609497	
208	221.03607511520386	picture	0		102	206.0	/experiments/Knapen_AOT/AOT_stimuli/pictures/1163_fw.png	286.49127173423767	0.8541419506072998
208	221.86963295936584	response	0	k		206.0	/experiments/Knapen_AOT/AOT_stimuli/pictures/1163_fw.png	287.32482957839966	
209	221.89021706581116	picture	0		101	207.0	/experiments/Knapen_AOT/AOT_stimuli/pictures/1235_fw.png	287.34541368484497	0.8402886390686035
209	222.71897768974304	response	0	k		207.0	/experiments/Knapen_AOT/AOT_stimuli/pictures/1235_fw.png	288.17417430877686	
210	222.73050570487976	picture	0		259	208.0	/experiments/Knapen_AOT/AOT_stimuli/pictures/0686_fw.png	288.1857023239136	2.159641742706299
210	224.87767052650452	response	0	j		208.0	/experiments/Knapen_AOT/AOT_stimuli/pictures/0686_fw.png	290.33286714553833	
211	224.89014744758606	picture	0		237	209.0	/experiments/Knapen_AOT/AOT_stimuli/pictures/0778_fw.png	290.3453440666199	1.9870052337646484
211	226.86086797714233	response	0	j		209.0	/experiments/Knapen_AOT/AOT_stimuli/pictures/0778_fw.png	292.31606459617615	
212	226.8771526813507	picture	0		144	210.0	/experiments/Knapen_AOT/AOT_stimuli/pictures/0744_fw.png	292.3323493003845	1.2005693912506104
212	228.06251859664917	response	0	k		210.0	/experiments/Knapen_AOT/AOT_stimuli/pictures/0744_fw.png	293.517715215683	
213	228.07772207260132	picture	0		102	211.0	/experiments/Knapen_AOT/AOT_stimuli/pictures/1057_fw.png	293.53291869163513	0.8542108535766602
213	228.91902375221252	response	0	k		211.0	/experiments/Knapen_AOT/AOT_stimuli/pictures/1057_fw.png	294.37422037124634	
214	228.93193292617798	picture	0		97	212.0	/experiments/Knapen_AOT/AOT_stimuli/pictures/1309_fw.png	294.3871295452118	0.8055517673492432
214	229.727472782135	response	0	j		212.0	/experiments/Knapen_AOT/AOT_stimuli/pictures/1309_fw.png	295.1826694011688	
215	229.73748469352722	picture	0		115	213.0	/experiments/Knapen_AOT/AOT_stimuli/pictures/0404_fw.png	295.19268131256104	0.9652729034423828
215	230.68599891662598	response	0	k		213.0	/experiments/Knapen_AOT/AOT_stimuli/pictures/0404_fw.png	296.1411955356598	
216	230.7027575969696	picture	0		113	214.0	/experiments/Knapen_AOT/AOT_stimuli/pictures/0836_fw.png	296.1579542160034	0.9444670677185059
216	231.63572430610657	response	0	k		214.0	/experiments/Knapen_AOT/AOT_stimuli/pictures/0836_fw.png	297.0909209251404	
217	231.6472246646881	picture	0		101	215.0	/experiments/Knapen_AOT/AOT_stimuli/pictures/0381_fw.png	297.1024212837219	0.8402807712554932
217	232.46971035003662	response	0	k		215.0	/experiments/Knapen_AOT/AOT_stimuli/pictures/0381_fw.png	297.92490696907043	
218	232.4875054359436	picture	0		135	216.0	/experiments/Knapen_AOT/AOT_stimuli/pictures/0753_fw.png	297.9427020549774	1.1251094341278076
218	233.60243248939514	response	0	k		216.0	/experiments/Knapen_AOT/AOT_stimuli/pictures/0753_fw.png	299.05762910842896	
219	233.6126148700714	picture	0		105	217.0	/experiments/Knapen_AOT/AOT_stimuli/pictures/1146_fw.png	299.0678114891052	0.8749382495880127
219	234.47056245803833	response	0	k		217.0	/experiments/Knapen_AOT/AOT_stimuli/pictures/1146_fw.png	299.92575907707214	
220	234.48755311965942	picture	0		99	218.0	/experiments/Knapen_AOT/AOT_stimuli/pictures/1974_fw.png	299.94274973869324	0.8313448429107666
220	235.30244708061218	response	0	k		218.0	/experiments/Knapen_AOT/AOT_stimuli/pictures/1974_fw.png	300.757643699646	
221	235.3188979625702	picture	0		118	219.0	/experiments/Knapen_AOT/AOT_stimuli/pictures/1839_fw.png	300.774094581604	0.991722583770752
221	236.29434990882874	response	0	k		219.0	/experiments/Knapen_AOT/AOT_stimuli/pictures/1839_fw.png	301.74954652786255	
222	236.31062054634094	picture	0		113	220.0	/experiments/Knapen_AOT/AOT_stimuli/pictures/1896_fw.png	301.76581716537476	0.9500086307525635
222	237.24417352676392	response	0	k		220.0	/experiments/Knapen_AOT/AOT_stimuli/pictures/1896_fw.png	302.69937014579773	
223	237.2606291770935	picture	0		113	221.0	/experiments/Knapen_AOT/AOT_stimuli/pictures/0154_fw.png	302.7158257961273	0.9499833583831787
223	238.19414567947388	response	0	j		221.0	/experiments/Knapen_AOT/AOT_stimuli/pictures/0154_fw.png	303.6493422985077	
224	238.21061253547668	picture	0		135	222.0	/experiments/Knapen_AOT/AOT_stimuli/pictures/1334_fw.png	303.6658091545105	1.1333458423614502
224	239.3280119895935	response	0	k		222.0	/experiments/Knapen_AOT/AOT_stimuli/pictures/1334_fw.png	304.7832086086273	
225	239.34395837783813	picture	0		97	223.0	/experiments/Knapen_AOT/AOT_stimuli/pictures/1678_fw.png	304.79915499687195	0.8102695941925049
225	240.14418482780457	response	0	j		223.0	/experiments/Knapen_AOT/AOT_stimuli/pictures/1678_fw.png	305.5993814468384	
226	240.15422797203064	picture	0		131	224.0	/experiments/Knapen_AOT/AOT_stimuli/pictures/1950_fw.png	305.60942459106445	1.098088264465332
226	241.2359652519226	response	0	k		224.0	/experiments/Knapen_AOT/AOT_stimuli/pictures/1950_fw.png	306.6911618709564	
227	241.25231623649597	picture	0		117	225.0	/experiments/Knapen_AOT/AOT_stimuli/pictures/0097_fw.png	306.7075128555298	0.9833767414093018
227	242.219571352005	response	0	k		225.0	/experiments/Knapen_AOT/AOT_stimuli/pictures/0097_fw.png	307.6747679710388	
228	242.23569297790527	picture	0		133	226.0	/experiments/Knapen_AOT/AOT_stimuli/pictures/1098_fw.png	307.6908895969391	1.116650104522705
228	243.33586192131042	response	0	j		226.0	/experiments/Knapen_AOT/AOT_stimuli/pictures/1098_fw.png	308.79105854034424	
229	243.35234308242798	picture	0		117	227.0	/experiments/Knapen_AOT/AOT_stimuli/pictures/1953_fw.png	308.8075397014618	0.9833211898803711
229	244.31921076774597	response	0	k		227.0	/experiments/Knapen_AOT/AOT_stimuli/pictures/1953_fw.png	309.7744073867798	
230	244.33566427230835	picture	0		110	228.0	/experiments/Knapen_AOT/AOT_stimuli/pictures/1177_fw.png	309.79086089134216	0.9250459671020508
230	245.24425172805786	response	0	j		228.0	/experiments/Knapen_AOT/AOT_stimuli/pictures/1177_fw.png	310.6994483470917	
231	245.2607102394104	picture	0		106	229.0	/experiments/Knapen_AOT/AOT_stimuli/pictures/0867_fw.png	310.7159068584442	0.8916621208190918
231	246.13589334487915	response	0	k		229.0	/experiments/Knapen_AOT/AOT_stimuli/pictures/0867_fw.png	311.59108996391296	
232	246.1523723602295	picture	0		138	230.0	/experiments/Knapen_AOT/AOT_stimuli/pictures/0298_fw.png	311.6075689792633	1.154726505279541
232	247.29425740242004	response	0	k		230.0	/experiments/Knapen_AOT/AOT_stimuli/pictures/0298_fw.png	312.74945402145386	
233	247.30709886550903	picture	0		109	231.0	/experiments/Knapen_AOT/AOT_stimuli/pictures/0180_fw.png	312.76229548454285	0.9166064262390137
233	248.21090483665466	response	0	j		231.0	/experiments/Knapen_AOT/AOT_stimuli/pictures/0180_fw.png	313.6661014556885	
234	248.22370529174805	picture	0		212	232.0	/experiments/Knapen_AOT/AOT_stimuli/pictures/1059_fw.png	313.67890191078186	1.7707486152648926
234	249.98594212532043	response	0	k		232.0	/experiments/Knapen_AOT/AOT_stimuli/pictures/1059_fw.png	315.44113874435425	
235	249.99445390701294	picture	0		91	233.0	/experiments/Knapen_AOT/AOT_stimuli/pictures/0670_fw.png	315.44965052604675	0.7663137912750244
235	250.7442967891693	response	0	j		233.0	/experiments/Knapen_AOT/AOT_stimuli/pictures/0670_fw.png	316.1994934082031	
236	250.76076769828796	picture	0		98	234.0	/experiments/Knapen_AOT/AOT_stimuli/pictures/0099_fw.png	316.2159643173218	0.8171417713165283
236	251.56932830810547	response	0	k		234.0	/experiments/Knapen_AOT/AOT_stimuli/pictures/0099_fw.png	317.0245249271393	
237	251.5779094696045	picture	0		126	235.0	/experiments/Knapen_AOT/AOT_stimuli/pictures/1556_fw.png	317.0331060886383	1.0578858852386475
237	252.6193368434906	response	0	k		235.0	/experiments/Knapen_AOT/AOT_stimuli/pictures/1556_fw.png	318.0745334625244	
238	252.63579535484314	picture	0		89	236.0	/experiments/Knapen_AOT/AOT_stimuli/pictures/1446_fw.png	318.09099197387695	0.7477247714996338
238	253.36931991577148	response	0	k		236.0	/experiments/Knapen_AOT/AOT_stimuli/pictures/1446_fw.png	318.8245165348053	
239	253.38352012634277	picture	0		94	237.0	/experiments/Knapen_AOT/AOT_stimuli/pictures/0817_fw.png	318.8387167453766	0.7916598320007324
239	254.16098260879517	response	0	k		237.0	/experiments/Knapen_AOT/AOT_stimuli/pictures/0817_fw.png	319.616179227829	
240	254.1751799583435	picture	0		103	238.0	/experiments/Knapen_AOT/AOT_stimuli/pictures/1068_fw.png	319.6303765773773	0.8689432144165039
240	255.0276539325714	response	0	k		238.0	/experiments/Knapen_AOT/AOT_stimuli/pictures/1068_fw.png	320.4828505516052	
241	255.04412317276	picture	0		107	239.0	/experiments/Knapen_AOT/AOT_stimuli/pictures/1207_fw.png	320.4993197917938	0.9000358581542969
241	255.9279100894928	response	0	k		239.0	/experiments/Knapen_AOT/AOT_stimuli/pictures/1207_fw.png	321.3831067085266	
242	255.9441590309143	picture	0		93	240.0	/experiments/Knapen_AOT/AOT_stimuli/pictures/0308_fw.png	321.3993556499481	0.7833642959594727
242	256.7110016345978	response	0	k		240.0	/experiments/Knapen_AOT/AOT_stimuli/pictures/0308_fw.png	322.1661982536316	
243	256.7275233268738	picture	0		131	241.0	/experiments/Knapen_AOT/AOT_stimuli/pictures/1189_fw.png	322.1827199459076	1.0999934673309326
243	257.81105279922485	response	0	k		241.0	/experiments/Knapen_AOT/AOT_stimuli/pictures/1189_fw.png	323.26624941825867	
244	257.8275167942047	picture	0		168	242.0	/experiments/Knapen_AOT/AOT_stimuli/pictures/1020_fw.png	323.2827134132385	1.4031250476837158
244	259.21939420700073	response	0	k		242.0	/experiments/Knapen_AOT/AOT_stimuli/pictures/1020_fw.png	324.67459082603455	
245	259.2306418418884	picture	0		94	243.0	/experiments/Knapen_AOT/AOT_stimuli/pictures/0927_fw.png	324.68583846092224	0.7848324775695801
245	260.00270915031433	response	0	k		243.0	/experiments/Knapen_AOT/AOT_stimuli/pictures/0927_fw.png	325.45790576934814	
246	260.015474319458	picture	0		218	244.0	/experiments/Knapen_AOT/AOT_stimuli/pictures/1768_fw.png	325.4706709384918	1.828758955001831
246	261.8279528617859	response	0	k		244.0	/experiments/Knapen_AOT/AOT_stimuli/pictures/1768_fw.png	327.2831494808197	
247	261.84423327445984	picture	0		124	245.0	/experiments/Knapen_AOT/AOT_stimuli/pictures/1449_fw.png	327.29942989349365	1.0416650772094727
247	262.86301016807556	response	0	k		245.0	/experiments/Knapen_AOT/AOT_stimuli/pictures/1449_fw.png	328.3182067871094	
248	262.8858983516693	picture	0		139	246.0	/experiments/Knapen_AOT/AOT_stimuli/pictures/2062_fw.png	328.3410949707031	1.1643404960632324
248	264.036185503006	response	0	k		246.0	/experiments/Knapen_AOT/AOT_stimuli/pictures/2062_fw.png	329.4913821220398	
249	264.05023884773254	picture	0		114	247.0	/experiments/Knapen_AOT/AOT_stimuli/pictures/0779_fw.png	329.50543546676636	0.9583406448364258
249	264.9944574832916	response	0	j		247.0	/experiments/Knapen_AOT/AOT_stimuli/pictures/0779_fw.png	330.44965410232544	
250	265.00857949256897	picture	0		123	248.0	/experiments/Knapen_AOT/AOT_stimuli/pictures/0732_fw.png	330.4637761116028	1.0277771949768066
250	266.0278353691101	response	0	k		248.0	/experiments/Knapen_AOT/AOT_stimuli/pictures/0732_fw.png	331.4830319881439	
251	266.0363566875458	picture	0		108	249.0	/experiments/Knapen_AOT/AOT_stimuli/pictures/1330_fw.png	331.4915533065796	0.9079318046569824
251	266.92783784866333	response	0	j		249.0	/experiments/Knapen_AOT/AOT_stimuli/pictures/1330_fw.png	332.38303446769714	
252	266.94428849220276	picture	0		110	250.0	/experiments/Knapen_AOT/AOT_stimuli/pictures/2167_fw.png	332.3994851112366	0.9184248447418213
252	267.8528118133545	response	0	k		250.0	/experiments/Knapen_AOT/AOT_stimuli/pictures/2167_fw.png	333.3080084323883	
253	267.8627133369446	picture	0		116	251.0	/experiments/Knapen_AOT/AOT_stimuli/pictures/1289_fw.png	333.3179099559784	0.9732553958892822
253	268.819611787796	response	0	k		251.0	/experiments/Knapen_AOT/AOT_stimuli/pictures/1289_fw.png	334.27480840682983	
254	268.83596873283386	picture	0		100	252.0	/experiments/Knapen_AOT/AOT_stimuli/pictures/1876_fw.png	334.2911653518677	0.8416807651519775
254	269.6544952392578	response	0	k		252.0	/experiments/Knapen_AOT/AOT_stimuli/pictures/1876_fw.png	335.1096918582916	
255	269.67764949798584	picture	0		119	253.0	/experiments/Knapen_AOT/AOT_stimuli/pictures/0186_fw.png	335.13284611701965	1.0000250339508057
255	270.6545248031616	response	0	k		253.0	/experiments/Knapen_AOT/AOT_stimuli/pictures/0186_fw.png	336.10972142219543	
256	270.67767453193665	picture	0		105	254.0	/experiments/Knapen_AOT/AOT_stimuli/pictures/0215_fw.png	336.13287115097046	0.8795506954193115
256	271.54453206062317	response	0	k		254.0	/experiments/Knapen_AOT/AOT_stimuli/pictures/0215_fw.png	336.999728679657	
257	271.55722522735596	picture	0		105	255.0	/experiments/Knapen_AOT/AOT_stimuli/pictures/0703_fw.png	337.01242184638977	0.8871665000915527
257	272.4281573295593	response	0	k		255.0	/experiments/Knapen_AOT/AOT_stimuli/pictures/0703_fw.png	337.88335394859314	
258	272.4443917274475	picture	0		88	256.0	/experiments/Knapen_AOT/AOT_stimuli/pictures/0120_fw.png	337.8995883464813	0.741642951965332
258	273.16950273513794	response	0	k		256.0	/experiments/Knapen_AOT/AOT_stimuli/pictures/0120_fw.png	338.62469935417175	
259	273.18603467941284	picture	0		112	257.0	/experiments/Knapen_AOT/AOT_stimuli/pictures/0016_fw.png	338.64123129844666	0.9416489601135254
259	274.1111602783203	response	0	j		257.0	/experiments/Knapen_AOT/AOT_stimuli/pictures/0016_fw.png	339.5663568973541	
260	274.12768363952637	picture	0		105	258.0	/experiments/Knapen_AOT/AOT_stimuli/pictures/1823_fw.png	339.5828802585602	0.8833696842193604
260	274.9949424266815	response	0	k		258.0	/experiments/Knapen_AOT/AOT_stimuli/pictures/1823_fw.png	340.45013904571533	
261	275.0110533237457	picture	0		147	259.0	/experiments/Knapen_AOT/AOT_stimuli/pictures/1611_fw.png	340.46624994277954	1.2334458827972412
261	276.2280993461609	response	0	k		259.0	/experiments/Knapen_AOT/AOT_stimuli/pictures/1611_fw.png	341.6832959651947	
262	276.24449920654297	picture	0		96	260.0	/experiments/Knapen_AOT/AOT_stimuli/pictures/2019_fw.png	341.6996958255768	0.805931806564331
262	277.03624987602234	response	0	k		260.0	/experiments/Knapen_AOT/AOT_stimuli/pictures/2019_fw.png	342.49144649505615	
263	277.0504310131073	picture	0		122	261.0	/experiments/Knapen_AOT/AOT_stimuli/pictures/1581_fw.png	342.5056276321411	1.0207149982452393
263	278.0537066459656	response	0	j		261.0	/experiments/Knapen_AOT/AOT_stimuli/pictures/1581_fw.png	343.5089032649994	
264	278.07114601135254	picture	0		99	262.0	/experiments/Knapen_AOT/AOT_stimuli/pictures/1006_fw.png	343.52634263038635	0.8316397666931152
264	278.8862862586975	response	0	j		262.0	/experiments/Knapen_AOT/AOT_stimuli/pictures/1006_fw.png	344.3414828777313	
265	278.90278577804565	picture	0		101	263.0	/experiments/Knapen_AOT/AOT_stimuli/pictures/1835_fw.png	344.35798239707947	0.8419580459594727
265	279.7362883090973	response	0	k		263.0	/experiments/Knapen_AOT/AOT_stimuli/pictures/1835_fw.png	345.1914849281311	
266	279.7447438240051	picture	0		176	264.0	/experiments/Knapen_AOT/AOT_stimuli/pictures/0110_fw.png	345.19994044303894	1.4747612476348877
266	281.20300936698914	response	0	j		264.0	/experiments/Knapen_AOT/AOT_stimuli/pictures/0110_fw.png	346.65820598602295	
267	281.21950507164	picture	0		138	265.0	/experiments/Knapen_AOT/AOT_stimuli/pictures/0174_fw.png	346.6747016906738	1.158294916152954
267	282.3613123893738	response	0	k		265.0	/experiments/Knapen_AOT/AOT_stimuli/pictures/0174_fw.png	347.8165090084076	
268	282.37779998779297	picture	0		90	266.0	/experiments/Knapen_AOT/AOT_stimuli/pictures/0082_fw.png	347.8329966068268	0.7558867931365967
268	283.1196472644806	response	0	j		266.0	/experiments/Knapen_AOT/AOT_stimuli/pictures/0082_fw.png	348.5748438835144	
269	283.13368678092957	picture	0		94	267.0	/experiments/Knapen_AOT/AOT_stimuli/pictures/2079_fw.png	348.5888833999634	0.7941567897796631
269	283.9113245010376	response	0	k		267.0	/experiments/Knapen_AOT/AOT_stimuli/pictures/2079_fw.png	349.3665211200714	
270	283.92784357070923	picture	0		111	268.0	/experiments/Knapen_AOT/AOT_stimuli/pictures/2069_fw.png	349.38304018974304	0.9333062171936035
270	284.8449034690857	response	0	k		268.0	/experiments/Knapen_AOT/AOT_stimuli/pictures/2069_fw.png	350.3001000881195	
271	284.86114978790283	picture	0		107	269.0	/experiments/Knapen_AOT/AOT_stimuli/pictures/0480_fw.png	350.31634640693665	0.9000234603881836
271	285.74497747421265	response	0	k		269.0	/experiments/Knapen_AOT/AOT_stimuli/pictures/0480_fw.png	351.20017409324646	
272	285.761173248291	picture	0		133	270.0	/experiments/Knapen_AOT/AOT_stimuli/pictures/0640_fw.png	351.21636986732483	1.1166701316833496
272	286.85415863990784	response	0	k		270.0	/experiments/Knapen_AOT/AOT_stimuli/pictures/0640_fw.png	352.30935525894165	
273	286.87784337997437	picture	0		81	271.0	/experiments/Knapen_AOT/AOT_stimuli/pictures/0985_fw.png	352.3330399990082	0.6833393573760986
273	287.54472613334656	response	0	k		271.0	/experiments/Knapen_AOT/AOT_stimuli/pictures/0985_fw.png	352.99992275238037	
274	287.56118273735046	picture	0		122	272.0	/experiments/Knapen_AOT/AOT_stimuli/pictures/1649_fw.png	353.0163793563843	1.0250945091247559
274	288.5697019100189	response	0	j		272.0	/experiments/Knapen_AOT/AOT_stimuli/pictures/1649_fw.png	354.02489852905273	
275	288.5862772464752	picture	0		92	273.0	/experiments/Knapen_AOT/AOT_stimuli/pictures/1412_fw.png	354.04147386550903	0.7749745845794678
275	289.34497594833374	response	0	k		273.0	/experiments/Knapen_AOT/AOT_stimuli/pictures/1412_fw.png	354.80017256736755	
276	289.3612518310547	picture	0		112	274.0	/experiments/Knapen_AOT/AOT_stimuli/pictures/1731_fw.png	354.8164484500885	0.9391574859619141
276	290.28641390800476	response	0	k		274.0	/experiments/Knapen_AOT/AOT_stimuli/pictures/1731_fw.png	355.7416105270386	
277	290.3004093170166	picture	0		89	275.0	/experiments/Knapen_AOT/AOT_stimuli/pictures/0752_fw.png	355.7556059360504	0.7500021457672119
277	291.03650164604187	response	0	k		275.0	/experiments/Knapen_AOT/AOT_stimuli/pictures/0752_fw.png	356.4916982650757	
278	291.0504114627838	picture	0		91	276.0	/experiments/Knapen_AOT/AOT_stimuli/pictures/2177_fw.png	356.5056080818176	0.7691731452941895
278	291.8031544685364	response	0	k		276.0	/experiments/Knapen_AOT/AOT_stimuli/pictures/2177_fw.png	357.2583510875702	
279	291.819584608078	picture	0		145	277.0	/experiments/Knapen_AOT/AOT_stimuli/pictures/1699_fw.png	357.2747812271118	1.2170157432556152
279	293.01998925209045	response	0	k		277.0	/experiments/Knapen_AOT/AOT_stimuli/pictures/1699_fw.png	358.47518587112427	
280	293.0366003513336	picture	0		135	278.0	/experiments/Knapen_AOT/AOT_stimuli/pictures/0843_fw.png	358.49179697036743	1.1249349117279053
280	294.15310406684875	response	0	k		278.0	/experiments/Knapen_AOT/AOT_stimuli/pictures/0843_fw.png	359.60830068588257	
281	294.1615352630615	picture	0		96	279.0	/experiments/Knapen_AOT/AOT_stimuli/pictures/1598_fw.png	359.61673188209534	0.8080770969390869
281	294.9533545970917	response	0	k		279.0	/experiments/Knapen_AOT/AOT_stimuli/pictures/1598_fw.png	360.4085512161255	
282	294.9696123600006	picture	0		128	280.0	/experiments/Knapen_AOT/AOT_stimuli/pictures/1198_fw.png	360.4248089790344	1.0750062465667725
282	296.0281705856323	response	0	j		280.0	/experiments/Knapen_AOT/AOT_stimuli/pictures/1198_fw.png	361.48336720466614	
283	296.0446186065674	picture	0		142	281.0	/experiments/Knapen_AOT/AOT_stimuli/pictures/1259_fw.png	361.4998152256012	1.1916875839233398
283	297.21982622146606	response	0	k		281.0	/experiments/Knapen_AOT/AOT_stimuli/pictures/1259_fw.png	362.6750228404999	
284	297.2363061904907	picture	0		260	282.0	/experiments/Knapen_AOT/AOT_stimuli/pictures/1183_fw.png	362.69150280952454	2.1682069301605225
284	299.3951098918915	response	0	k		282.0	/experiments/Knapen_AOT/AOT_stimuli/pictures/1183_fw.png	364.8503065109253	
285	299.40451312065125	picture	0		93	283.0	/experiments/Knapen_AOT/AOT_stimuli/pictures/0813_fw.png	364.85970973968506	0.7818303108215332
285	300.16980957984924	response	0	j		283.0	/experiments/Knapen_AOT/AOT_stimuli/pictures/0813_fw.png	365.62500619888306	
286	300.1863434314728	picture	0		95	284.0	/experiments/Knapen_AOT/AOT_stimuli/pictures/0127_fw.png	365.6415400505066	0.7999966144561768
286	300.96993470191956	response	0	j		284.0	/experiments/Knapen_AOT/AOT_stimuli/pictures/0127_fw.png	366.42513132095337	
287	300.98634004592896	picture	0		142	285.0	/experiments/Knapen_AOT/AOT_stimuli/pictures/1273_fw.png	366.44153666496277	1.191699504852295
287	302.1615500450134	response	0	k		285.0	/experiments/Knapen_AOT/AOT_stimuli/pictures/1273_fw.png	367.61674666404724	
288	302.17803955078125	picture	0		122	286.0	/experiments/Knapen_AOT/AOT_stimuli/pictures/0566_fw.png	367.63323616981506	1.0250184535980225
288	303.1865921020508	response	0	k		286.0	/experiments/Knapen_AOT/AOT_stimuli/pictures/0566_fw.png	368.6417887210846	
289	303.2030580043793	picture	0		104	287.0	/experiments/Knapen_AOT/AOT_stimuli/pictures/1296_fw.png	368.6582546234131	0.8750057220458984
289	304.06177830696106	response	0	k		287.0	/experiments/Knapen_AOT/AOT_stimuli/pictures/1296_fw.png	369.5169749259949	
290	304.07806372642517	picture	0		115	288.0	/experiments/Knapen_AOT/AOT_stimuli/pictures/0161_fw.png	369.533260345459	0.9585161209106445
290	305.0282983779907	response	0	k		288.0	/experiments/Knapen_AOT/AOT_stimuli/pictures/0161_fw.png	370.48349499702454	
291	305.0365798473358	picture	0		121	289.0	/experiments/Knapen_AOT/AOT_stimuli/pictures/0443_fw.png	370.49177646636963	1.0164968967437744
291	306.0366048812866	response	0	k		289.0	/experiments/Knapen_AOT/AOT_stimuli/pictures/0443_fw.png	371.49180150032043	
292	306.0530767440796	picture	0		101	290.0	/experiments/Knapen_AOT/AOT_stimuli/pictures/2145_fw.png	371.5082733631134	0.8499960899353027
292	306.88662242889404	response	0	k		290.0	/experiments/Knapen_AOT/AOT_stimuli/pictures/2145_fw.png	372.34181904792786	
293	306.9030728340149	picture	0		88	291.0	/experiments/Knapen_AOT/AOT_stimuli/pictures/2143_fw.png	372.3582694530487	0.74173903465271
293	307.62828969955444	response	0	k		291.0	/experiments/Knapen_AOT/AOT_stimuli/pictures/2143_fw.png	373.08348631858826	
294	307.6448118686676	picture	0		106	292.0	/experiments/Knapen_AOT/AOT_stimuli/pictures/1568_fw.png	373.1000084877014	0.8917982578277588
294	308.52023005485535	response	0	j		292.0	/experiments/Knapen_AOT/AOT_stimuli/pictures/1568_fw.png	373.97542667388916	
295	308.53661012649536	picture	0		103	293.0	/experiments/Knapen_AOT/AOT_stimuli/pictures/1162_fw.png	373.9918067455292	0.8665025234222412
295	309.38668489456177	response	0	k		293.0	/experiments/Knapen_AOT/AOT_stimuli/pictures/1162_fw.png	374.8418815135956	
296	309.4031126499176	picture	0		124	294.0	/experiments/Knapen_AOT/AOT_stimuli/pictures/0657_fw.png	374.8583092689514	1.041675090789795
296	310.4283366203308	response	0	j		294.0	/experiments/Knapen_AOT/AOT_stimuli/pictures/0657_fw.png	375.8835332393646	
297	310.4447877407074	picture	0		100	295.0	/experiments/Knapen_AOT/AOT_stimuli/pictures/2114_fw.png	375.8999843597412	0.8417036533355713
297	311.2700045108795	response	0	j		295.0	/experiments/Knapen_AOT/AOT_stimuli/pictures/2114_fw.png	376.72520112991333	
298	311.28649139404297	picture	0		97	296.0	/experiments/Knapen_AOT/AOT_stimuli/pictures/0100_fw.png	376.7416880130768	0.8126490116119385
298	312.08668518066406	response	0	k		296.0	/experiments/Knapen_AOT/AOT_stimuli/pictures/0100_fw.png	377.5418817996979	
299	312.0991404056549	picture	0		145	297.0	/experiments/Knapen_AOT/AOT_stimuli/pictures/1375_fw.png	377.5543370246887	1.2123596668243408
299	313.2952399253845	response	0	j		297.0	/experiments/Knapen_AOT/AOT_stimuli/pictures/1375_fw.png	378.75043654441833	
300	313.31150007247925	picture	0		88	298.0	/experiments/Knapen_AOT/AOT_stimuli/pictures/1693_fw.png	378.76669669151306	0.7417125701904297
300	314.0369176864624	response	0	j		298.0	/experiments/Knapen_AOT/AOT_stimuli/pictures/1693_fw.png	379.4921143054962	
301	314.0532126426697	picture	0		106	299.0	/experiments/Knapen_AOT/AOT_stimuli/pictures/0758_fw.png	379.5084092617035	0.8916504383087158
301	314.9283583164215	response	0	k		299.0	/experiments/Knapen_AOT/AOT_stimuli/pictures/0758_fw.png	380.3835549354553	
302	314.9448630809784	picture	0		119	300.0	/experiments/Knapen_AOT/AOT_stimuli/pictures/1623_fw.png	380.4000597000122	1.000032663345337
302	315.9285807609558	response	0	k		300.0	/experiments/Knapen_AOT/AOT_stimuli/pictures/1623_fw.png	381.3837773799896	
303	315.94489574432373	picture	0		143	301.0	/experiments/Knapen_AOT/AOT_stimuli/pictures/0961_fw.png	381.40009236335754	1.200019121170044
303	317.12845730781555	response	0	k		301.0	/experiments/Knapen_AOT/AOT_stimuli/pictures/0961_fw.png	382.58365392684937	
304	317.1449148654938	picture	0		140	302.0	/experiments/Knapen_AOT/AOT_stimuli/pictures/0280_fw.png	382.6001114845276	1.1749746799468994
304	318.303427696228	response	0	j		302.0	/experiments/Knapen_AOT/AOT_stimuli/pictures/0280_fw.png	383.75862431526184	
305	318.3198895454407	picture	0		86	303.0	/experiments/Knapen_AOT/AOT_stimuli/pictures/0660_fw.png	383.7750861644745	0.7250134944915771
305	319.028445482254	response	0	k		303.0	/experiments/Knapen_AOT/AOT_stimuli/pictures/0660_fw.png	384.48364210128784	
306	319.04490303993225	picture	0		96	304.0	/experiments/Knapen_AOT/AOT_stimuli/pictures/0859_fw.png	384.50009965896606	0.8083431720733643
306	319.83702397346497	response	0	k		304.0	/experiments/Knapen_AOT/AOT_stimuli/pictures/0859_fw.png	385.2922205924988	
307	319.8532462120056	picture	0		156	305.0	/experiments/Knapen_AOT/AOT_stimuli/pictures/0708_fw.png	385.30844283103943	1.3015220165252686
307	321.14510846138	response	0	k		305.0	/experiments/Knapen_AOT/AOT_stimuli/pictures/0708_fw.png	386.6003050804138	
308	321.1547682285309	picture	0		109	306.0	/experiments/Knapen_AOT/AOT_stimuli/pictures/0833_fw.png	386.6099648475647	0.909743070602417
308	322.04579520225525	response	0	j		306.0	/experiments/Knapen_AOT/AOT_stimuli/pictures/0833_fw.png	387.50099182128906	
309	322.0645112991333	picture	0		95	307.0	/experiments/Knapen_AOT/AOT_stimuli/pictures/1890_fw.png	387.5197079181671	0.7916879653930664
309	322.8381567001343	response	0	k		307.0	/experiments/Knapen_AOT/AOT_stimuli/pictures/1890_fw.png	388.2933533191681	
310	322.85619926452637	picture	0		117	308.0	/experiments/Knapen_AOT/AOT_stimuli/pictures/0193_fw.png	388.3113958835602	0.9722261428833008
310	323.8137414455414	response	0	j		308.0	/experiments/Knapen_AOT/AOT_stimuli/pictures/0193_fw.png	389.2689380645752	
311	323.82842540740967	picture	0		106	309.0	/experiments/Knapen_AOT/AOT_stimuli/pictures/0658_fw.png	389.2836220264435	0.888850212097168
311	324.70360016822815	response	0	k		309.0	/experiments/Knapen_AOT/AOT_stimuli/pictures/0658_fw.png	390.15879678726196	
312	324.71727561950684	picture	0		111	310.0	/experiments/Knapen_AOT/AOT_stimuli/pictures/2115_fw.png	390.17247223854065	0.9360260963439941
312	325.6368327140808	response	0	j		310.0	/experiments/Knapen_AOT/AOT_stimuli/pictures/2115_fw.png	391.0920293331146	
313	325.65330171585083	picture	0		93	311.0	/experiments/Knapen_AOT/AOT_stimuli/pictures/2029_fw.png	391.10849833488464	0.7833807468414307
313	326.42027378082275	response	0	k		311.0	/experiments/Knapen_AOT/AOT_stimuli/pictures/2029_fw.png	391.87547039985657	
314	326.43668246269226	picture	0		86	312.0	/experiments/Knapen_AOT/AOT_stimuli/pictures/0830_fw.png	391.8918790817261	0.7251746654510498
314	327.1452066898346	response	0	k		312.0	/experiments/Knapen_AOT/AOT_stimuli/pictures/0830_fw.png	392.6004033088684	
315	327.1618571281433	picture	0		104	313.0	/experiments/Knapen_AOT/AOT_stimuli/pictures/1185_fw.png	392.6170537471771	0.8749589920043945
315	328.0202827453613	response	0	k		313.0	/experiments/Knapen_AOT/AOT_stimuli/pictures/1185_fw.png	393.47547936439514	
316	328.0368161201477	picture	0		92	314.0	/experiments/Knapen_AOT/AOT_stimuli/pictures/1389_fw.png	393.4920127391815	0.7707912921905518
316	328.7951862812042	response	0	k		314.0	/experiments/Knapen_AOT/AOT_stimuli/pictures/1389_fw.png	394.25038290023804	
317	328.80760741233826	picture	0		113	315.0	/experiments/Knapen_AOT/AOT_stimuli/pictures/0024_fw.png	394.26280403137207	0.9457597732543945
317	329.73686480522156	response	0	k		315.0	/experiments/Knapen_AOT/AOT_stimuli/pictures/0024_fw.png	395.19206142425537	
318	329.75336718559265	picture	0		109	316.0	/experiments/Knapen_AOT/AOT_stimuli/pictures/1681_fw.png	395.20856380462646	0.9084413051605225
318	330.6468029022217	response	0	k		316.0	/experiments/Knapen_AOT/AOT_stimuli/pictures/1681_fw.png	396.1019995212555	
319	330.6618084907532	picture	0		146	317.0	/experiments/Knapen_AOT/AOT_stimuli/pictures/1324_fw.png	396.117005109787	1.224912166595459
319	331.8705897331238	response	0	k		317.0	/experiments/Knapen_AOT/AOT_stimuli/pictures/1324_fw.png	397.3257863521576	
320	331.88672065734863	picture	0		193	318.0	/experiments/Knapen_AOT/AOT_stimuli/pictures/0832_fw.png	397.34191727638245	1.6083266735076904
320	333.4868714809418	response	0	j		318.0	/experiments/Knapen_AOT/AOT_stimuli/pictures/0832_fw.png	398.9420680999756	
321	333.4950473308563	picture	0		140	319.0	/experiments/Knapen_AOT/AOT_stimuli/pictures/1122_fw.png	398.95024394989014	1.166811466217041
321	334.64595913887024	response	0	k		319.0	/experiments/Knapen_AOT/AOT_stimuli/pictures/1122_fw.png	400.10115575790405	
322	334.66185879707336	picture	0		146	320.0	/experiments/Knapen_AOT/AOT_stimuli/pictures/0442_fw.png	400.1170554161072	1.224949598312378
322	335.87047243118286	response	0	k		320.0	/experiments/Knapen_AOT/AOT_stimuli/pictures/0442_fw.png	401.3256690502167	
323	335.88680839538574	picture	0		103	321.0	/experiments/Knapen_AOT/AOT_stimuli/pictures/1380_fw.png	401.34200501441956	0.8666613101959229
323	336.73695039749146	response	0	j		321.0	/experiments/Knapen_AOT/AOT_stimuli/pictures/1380_fw.png	402.19214701652527	
324	336.75346970558167	picture	0		101	322.0	/experiments/Knapen_AOT/AOT_stimuli/pictures/1612_fw.png	402.2086663246155	0.8500056266784668
324	337.5869870185852	response	0	j		322.0	/experiments/Knapen_AOT/AOT_stimuli/pictures/1612_fw.png	403.042183637619	
325	337.60347533226013	picture	0		91	323.0	/experiments/Knapen_AOT/AOT_stimuli/pictures/1083_fw.png	403.05867195129395	0.7667412757873535
325	338.3536341190338	response	0	k		323.0	/experiments/Knapen_AOT/AOT_stimuli/pictures/1083_fw.png	403.8088307380676	
326	338.3702166080475	picture	0		77	324.0	/experiments/Knapen_AOT/AOT_stimuli/pictures/1281_fw.png	403.8254132270813	0.6499333381652832
326	339.003794670105	response	0	k		324.0	/experiments/Knapen_AOT/AOT_stimuli/pictures/1281_fw.png	404.4589912891388	
327	339.02014994621277	picture	0		114	325.0	/experiments/Knapen_AOT/AOT_stimuli/pictures/1101_fw.png	404.4753465652466	0.9583745002746582
327	339.9620931148529	response	0	k		325.0	/experiments/Knapen_AOT/AOT_stimuli/pictures/1101_fw.png	405.4172897338867	
328	339.9785244464874	picture	0		117	326.0	/experiments/Knapen_AOT/AOT_stimuli/pictures/0635_fw.png	405.43372106552124	0.983309268951416
328	340.9453446865082	response	0	k		326.0	/experiments/Knapen_AOT/AOT_stimuli/pictures/0635_fw.png	406.400541305542	
329	340.96183371543884	picture	0		91	327.0	/experiments/Knapen_AOT/AOT_stimuli/pictures/1509_fw.png	406.41703033447266	0.7666559219360352
329	341.71203422546387	response	0	j		327.0	/experiments/Knapen_AOT/AOT_stimuli/pictures/1509_fw.png	407.1672308444977	
330	341.7284896373749	picture	0		106	328.0	/experiments/Knapen_AOT/AOT_stimuli/pictures/0469_fw.png	407.1836862564087	0.8847193717956543
330	342.60367822647095	response	0	k		328.0	/experiments/Knapen_AOT/AOT_stimuli/pictures/0469_fw.png	408.05887484550476	
331	342.61320900917053	picture	0		102	329.0	/experiments/Knapen_AOT/AOT_stimuli/pictures/1844_fw.png	408.06840562820435	0.8569936752319336
331	343.44635939598083	response	0	j		329.0	/experiments/Knapen_AOT/AOT_stimuli/pictures/1844_fw.png	408.90155601501465	
332	343.47020268440247	picture	0		327	330.0	/experiments/Knapen_AOT/AOT_stimuli/pictures/0253_fw.png	408.9253993034363	2.7333877086639404
332	346.18705463409424	response	0	j		330.0	/experiments/Knapen_AOT/AOT_stimuli/pictures/0253_fw.png	411.64225125312805	
333	346.2035903930664	picture	0		92	331.0	/experiments/Knapen_AOT/AOT_stimuli/pictures/1190_fw.png	411.6587870121002	0.770775318145752
333	346.96208000183105	response	0	j		331.0	/experiments/Knapen_AOT/AOT_stimuli/pictures/1190_fw.png	412.41727662086487	
334	346.97436571121216	picture	0		112	332.0	/experiments/Knapen_AOT/AOT_stimuli/pictures/0538_fw.png	412.429562330246	0.937575101852417
334	347.89554142951965	response	0	j		332.0	/experiments/Knapen_AOT/AOT_stimuli/pictures/0538_fw.png	413.35073804855347	
335	347.9119408130646	picture	0		136	333.0	/experiments/Knapen_AOT/AOT_stimuli/pictures/1736_fw.png	413.3671374320984	1.1416559219360352
335	349.0371673107147	response	0	j		333.0	/experiments/Knapen_AOT/AOT_stimuli/pictures/1736_fw.png	414.49236392974854	
336	349.0535967350006	picture	0		90	334.0	/experiments/Knapen_AOT/AOT_stimuli/pictures/1227_fw.png	414.5087933540344	0.7583527565002441
336	349.79554867744446	response	0	j		334.0	/experiments/Knapen_AOT/AOT_stimuli/pictures/1227_fw.png	415.25074529647827	
337	349.81194949150085	picture	0		131	335.0	/experiments/Knapen_AOT/AOT_stimuli/pictures/1713_fw.png	415.26714611053467	1.099989891052246
337	350.8955457210541	response	0	j		335.0	/experiments/Knapen_AOT/AOT_stimuli/pictures/1713_fw.png	416.3507423400879	
338	350.9119393825531	picture	0		92	336.0	/experiments/Knapen_AOT/AOT_stimuli/pictures/0714_fw.png	416.3671360015869	0.7708010673522949
338	351.6704947948456	response	0	j		336.0	/experiments/Knapen_AOT/AOT_stimuli/pictures/0714_fw.png	417.1256914138794	
339	351.6827404499054	picture	0		95	337.0	/experiments/Knapen_AOT/AOT_stimuli/pictures/1972_fw.png	417.1379370689392	0.7959034442901611
339	352.46218156814575	response	0	j		337.0	/experiments/Knapen_AOT/AOT_stimuli/pictures/1972_fw.png	417.91737818717957	
340	352.47864389419556	picture	0		111	338.0	/experiments/Knapen_AOT/AOT_stimuli/pictures/0012_fw.png	417.93384051322937	0.9333341121673584
340	353.39548897743225	response	0	k		338.0	/experiments/Knapen_AOT/AOT_stimuli/pictures/0012_fw.png	418.85068559646606	
341	353.4119780063629	picture	0		111	339.0	/experiments/Knapen_AOT/AOT_stimuli/pictures/0871_fw.png	418.86717462539673	0.9333653450012207
341	354.3289020061493	response	0	k		339.0	/experiments/Knapen_AOT/AOT_stimuli/pictures/0871_fw.png	419.7840986251831	
342	354.34534335136414	picture	0		92	340.0	/experiments/Knapen_AOT/AOT_stimuli/pictures/0103_fw.png	419.80053997039795	0.774982213973999
342	355.1041450500488	response	0	k		340.0	/experiments/Knapen_AOT/AOT_stimuli/pictures/0103_fw.png	420.55934166908264	
343	355.12032556533813	picture	0		106	341.0	/experiments/Knapen_AOT/AOT_stimuli/pictures/0952_fw.png	420.57552218437195	0.8916833400726318
343	355.99562072753906	response	0	k		341.0	/experiments/Knapen_AOT/AOT_stimuli/pictures/0952_fw.png	421.4508173465729	
344	356.01200890541077	picture	0		96	342.0	/experiments/Knapen_AOT/AOT_stimuli/pictures/1696_fw.png	421.4672055244446	0.808351993560791
344	356.8038637638092	response	0	k		342.0	/experiments/Knapen_AOT/AOT_stimuli/pictures/1696_fw.png	422.259060382843	
345	356.82036089897156	picture	0		117	343.0	/experiments/Knapen_AOT/AOT_stimuli/pictures/1292_fw.png	422.27555751800537	0.9805364608764648
345	357.78720688819885	response	0	k		343.0	/experiments/Knapen_AOT/AOT_stimuli/pictures/1292_fw.png	423.24240350723267	
346	357.800897359848	picture	0		151	344.0	/experiments/Knapen_AOT/AOT_stimuli/pictures/1058_fw.png	423.25609397888184	1.2695002555847168
346	359.05415654182434	response	0	j		344.0	/experiments/Knapen_AOT/AOT_stimuli/pictures/1058_fw.png	424.50935316085815	
347	359.07039761543274	picture	0		86	345.0	/experiments/Knapen_AOT/AOT_stimuli/pictures/0065_fw.png	424.52559423446655	0.7250125408172607
347	359.7789046764374	response	0	k		345.0	/experiments/Knapen_AOT/AOT_stimuli/pictures/0065_fw.png	425.2341012954712	
348	359.79541015625	picture	0		83	346.0	/experiments/Knapen_AOT/AOT_stimuli/pictures/0942_fw.png	425.2506067752838	0.6999969482421875
348	360.4789354801178	response	0	k		346.0	/experiments/Knapen_AOT/AOT_stimuli/pictures/0942_fw.png	425.9341320991516	
349	360.4954071044922	picture	0		115	347.0	/experiments/Knapen_AOT/AOT_stimuli/pictures/0248_fw.png	425.950603723526	0.9583539962768555
349	361.4381585121155	response	0	j		347.0	/experiments/Knapen_AOT/AOT_stimuli/pictures/0248_fw.png	426.8933551311493	
350	361.45376110076904	picture	0		103	348.0	/experiments/Knapen_AOT/AOT_stimuli/pictures/1460_fw.png	426.90895771980286	0.8666629791259766
350	362.303955078125	response	0	j		348.0	/experiments/Knapen_AOT/AOT_stimuli/pictures/1460_fw.png	427.7591516971588	
351	362.320424079895	picture	0		161	349.0	/experiments/Knapen_AOT/AOT_stimuli/pictures/1326_fw.png	427.77562069892883	1.350020170211792
351	363.65424275398254	response	0	k		349.0	/experiments/Knapen_AOT/AOT_stimuli/pictures/1326_fw.png	429.10943937301636	
352	363.6704442501068	picture	0		88	350.0	/experiments/Knapen_AOT/AOT_stimuli/pictures/1673_fw.png	429.1256408691406	0.7416563034057617
352	364.3956732749939	response	0	k		350.0	/experiments/Knapen_AOT/AOT_stimuli/pictures/1673_fw.png	429.8508698940277	
353	364.4121005535126	picture	0		110	351.0	/experiments/Knapen_AOT/AOT_stimuli/pictures/1196_fw.png	429.8672971725464	0.9250345230102539
353	365.3207838535309	response	0	k		351.0	/experiments/Knapen_AOT/AOT_stimuli/pictures/1196_fw.png	430.7759804725647	
354	365.3371350765228	picture	0		111	352.0	/experiments/Knapen_AOT/AOT_stimuli/pictures/0355_fw.png	430.79233169555664	0.9333369731903076
354	366.25402545928955	response	0	k		352.0	/experiments/Knapen_AOT/AOT_stimuli/pictures/0355_fw.png	431.70922207832336	
355	366.27047204971313	picture	0		86	353.0	/experiments/Knapen_AOT/AOT_stimuli/pictures/0402_fw.png	431.72566866874695	0.7250337600708008
355	366.9791989326477	response	0	k		353.0	/experiments/Knapen_AOT/AOT_stimuli/pictures/0402_fw.png	432.4343955516815	
356	366.99550580978394	picture	0		83	354.0	/experiments/Knapen_AOT/AOT_stimuli/pictures/1715_fw.png	432.45070242881775	0.6999857425689697
356	367.67915534973145	response	0	k		354.0	/experiments/Knapen_AOT/AOT_stimuli/pictures/1715_fw.png	433.13435196876526	
357	367.6954915523529	picture	0		105	355.0	/experiments/Knapen_AOT/AOT_stimuli/pictures/1312_fw.png	433.1506881713867	0.8762638568878174
357	368.5623126029968	response	0	j		355.0	/experiments/Knapen_AOT/AOT_stimuli/pictures/1312_fw.png	434.01750922203064	
358	368.5717554092407	picture	0		97	356.0	/experiments/Knapen_AOT/AOT_stimuli/pictures/1954_fw.png	434.02695202827454	0.8154122829437256
358	369.37081956863403	response	0	j		356.0	/experiments/Knapen_AOT/AOT_stimuli/pictures/1954_fw.png	434.82601618766785	
359	369.38716769218445	picture	0		106	357.0	/experiments/Knapen_AOT/AOT_stimuli/pictures/0804_fw.png	434.84236431121826	0.8916754722595215
359	370.262412071228	response	0	k		357.0	/experiments/Knapen_AOT/AOT_stimuli/pictures/0804_fw.png	435.71760869026184	
360	370.27884316444397	picture	0		146	358.0	/experiments/Knapen_AOT/AOT_stimuli/pictures/0999_fw.png	435.7340397834778	1.2250299453735352
360	371.4874129295349	response	0	j		358.0	/experiments/Knapen_AOT/AOT_stimuli/pictures/0999_fw.png	436.9426095485687	
361	371.5038731098175	picture	0		117	359.0	/experiments/Knapen_AOT/AOT_stimuli/pictures/1279_fw.png	436.9590697288513	0.9833362102508545
361	372.4707465171814	response	0	j		359.0	/experiments/Knapen_AOT/AOT_stimuli/pictures/1279_fw.png	437.9259431362152	
362	372.48720932006836	stim	0		323			437.9424059391022	2.71419095993042
362	375.1769587993622	response	0	space				440.632155418396	
