trial_nr	onset	event_type	phase	response	nr_frames	picture_index	picture_file	onset_abs	duration
0	0.17943263053894043	stim	0		469			61.28594446182251	3.9236083030700684
0	4.083508729934692	response	0	space				65.19002056121826	
2	4.103040933609009	picture	0		219	0.0	/experiments/Knapen_AOT/AOT_stimuli/pictures/0492_fw.png	65.20955276489258	1.844139814376831
2	5.9225754737854	response	0	k		0.0	/experiments/Knapen_AOT/AOT_stimuli/pictures/0492_fw.png	67.02908730506897	
3	5.94718074798584	picture	0		95	1.0	/experiments/Knapen_AOT/AOT_stimuli/pictures/1583_fw.png	67.05369257926941	0.8026843070983887
3	6.741810083389282	response	0	k		1.0	/experiments/Knapen_AOT/AOT_stimuli/pictures/1583_fw.png	67.84832191467285	
4	6.7498650550842285	picture	0		117	2.0	/experiments/Knapen_AOT/AOT_stimuli/pictures/1459_fw.png	67.8563768863678	0.9782981872558594
4	7.716828107833862	response	0	k		2.0	/experiments/Knapen_AOT/AOT_stimuli/pictures/1459_fw.png	68.82333993911743	
5	7.728163242340088	picture	0		112	3.0	/experiments/Knapen_AOT/AOT_stimuli/pictures/0035_fw.png	68.83467507362366	0.9306192398071289
5	8.65014934539795	response	0	k		3.0	/experiments/Knapen_AOT/AOT_stimuli/pictures/0035_fw.png	69.75666117668152	
6	8.658782482147217	picture	0		153	4.0	/experiments/Knapen_AOT/AOT_stimuli/pictures/2151_fw.png	69.76529431343079	1.2777369022369385
6	9.925292491912842	response	0	k		4.0	/experiments/Knapen_AOT/AOT_stimuli/pictures/2151_fw.png	71.03180432319641	
7	9.936519384384155	picture	0		101	5.0	/experiments/Knapen_AOT/AOT_stimuli/pictures/1245_fw.png	71.04303121566772	0.8467504978179932
7	10.767034530639648	response	0	j		5.0	/experiments/Knapen_AOT/AOT_stimuli/pictures/1245_fw.png	71.87354636192322	
8	10.783269882202148	picture	0		121	6.0	/experiments/Knapen_AOT/AOT_stimuli/pictures/0716_fw.png	71.88978171348572	1.0083074569702148
8	11.78346562385559	response	0	k		6.0	/experiments/Knapen_AOT/AOT_stimuli/pictures/0716_fw.png	72.88997745513916	
9	11.791577339172363	picture	0		141	7.0	/experiments/Knapen_AOT/AOT_stimuli/pictures/0854_fw.png	72.89808917045593	1.1833717823028564
9	12.95844316482544	response	0	j		7.0	/experiments/Knapen_AOT/AOT_stimuli/pictures/0854_fw.png	74.06495499610901	
10	12.97494912147522	picture	0		122	8.0	/experiments/Knapen_AOT/AOT_stimuli/pictures/1304_fw.png	74.08146095275879	1.0250351428985596
10	13.983659267425537	response	0	j		8.0	/experiments/Knapen_AOT/AOT_stimuli/pictures/1304_fw.png	75.0901710987091	
11	13.99998426437378	picture	0		137	9.0	/experiments/Knapen_AOT/AOT_stimuli/pictures/1162_fw.png	75.10649609565735	1.1448428630828857
11	15.13350772857666	response	0	k		9.0	/experiments/Knapen_AOT/AOT_stimuli/pictures/1162_fw.png	76.24001955986023	
12	15.144827127456665	picture	0		94	10.0	/experiments/Knapen_AOT/AOT_stimuli/pictures/1742_fw.png	76.25133895874023	0.7847495079040527
12	15.91681981086731	response	0	k		10.0	/experiments/Knapen_AOT/AOT_stimuli/pictures/1742_fw.png	77.02333164215088	
13	15.929576635360718	picture	0		89	11.0	/experiments/Knapen_AOT/AOT_stimuli/pictures/0568_fw.png	77.03608846664429	0.7500214576721191
13	16.66685152053833	response	0	k		11.0	/experiments/Knapen_AOT/AOT_stimuli/pictures/0568_fw.png	77.7733633518219	
14	16.679598093032837	picture	0		143	12.0	/experiments/Knapen_AOT/AOT_stimuli/pictures/1042_fw.png	77.7861099243164	1.2013757228851318
14	17.86686134338379	response	0	k		12.0	/experiments/Knapen_AOT/AOT_stimuli/pictures/1042_fw.png	78.97337317466736	
15	17.88097381591797	picture	0		105	13.0	/experiments/Knapen_AOT/AOT_stimuli/pictures/0209_fw.png	78.98748564720154	0.8819735050201416
15	18.750175714492798	response	0	k		13.0	/experiments/Knapen_AOT/AOT_stimuli/pictures/0209_fw.png	79.85668754577637	
16	18.76294732093811	picture	0		130	14.0	/experiments/Knapen_AOT/AOT_stimuli/pictures/1730_fw.png	79.86945915222168	1.0902721881866455
16	19.84190607070923	response	0	j		14.0	/experiments/Knapen_AOT/AOT_stimuli/pictures/1730_fw.png	80.9484179019928	
17	19.853219509124756	picture	0		126	15.0	/experiments/Knapen_AOT/AOT_stimuli/pictures/1827_fw.png	80.95973134040833	1.048612117767334
17	20.89195418357849	response	0	k		15.0	/experiments/Knapen_AOT/AOT_stimuli/pictures/1827_fw.png	81.99846601486206	
18	20.90183162689209	picture	0		329	16.0	/experiments/Knapen_AOT/AOT_stimuli/pictures/2099_fw.png	82.00834345817566	2.748258590698242
18	23.633809804916382	response	0	k		16.0	/experiments/Knapen_AOT/AOT_stimuli/pictures/2099_fw.png	84.74032163619995	
19	23.650090217590332	picture	0		94	17.0	/experiments/Knapen_AOT/AOT_stimuli/pictures/0952_fw.png	84.7566020488739	0.7864949703216553
19	24.425254344940186	response	0	j		17.0	/experiments/Knapen_AOT/AOT_stimuli/pictures/0952_fw.png	85.53176617622375	
20	24.436585187911987	picture	0		130	18.0	/experiments/Knapen_AOT/AOT_stimuli/pictures/2008_fw.png	85.54309701919556	1.0833160877227783
20	25.508679389953613	response	0	j		18.0	/experiments/Knapen_AOT/AOT_stimuli/pictures/2008_fw.png	86.61519122123718	
21	25.519901275634766	picture	0		179	19.0	/experiments/Knapen_AOT/AOT_stimuli/pictures/1649_fw.png	86.62641310691833	1.4929850101470947
21	27.00029945373535	response	0	k		19.0	/experiments/Knapen_AOT/AOT_stimuli/pictures/1649_fw.png	88.10681128501892	
22	27.01288628578186	picture	0		121	20.0	/experiments/Knapen_AOT/AOT_stimuli/pictures/1177_fw.png	88.11939811706543	1.0070645809173584
22	28.008678913116455	response	0	k		20.0	/experiments/Knapen_AOT/AOT_stimuli/pictures/1177_fw.png	89.11519074440002	
23	28.01995086669922	picture	0		91	21.0	/experiments/Knapen_AOT/AOT_stimuli/pictures/1957_fw.png	89.12646269798279	0.7569990158081055
23	28.767049551010132	response	0	k		21.0	/experiments/Knapen_AOT/AOT_stimuli/pictures/1957_fw.png	89.8735613822937	
24	28.776949882507324	picture	0		118	22.0	/experiments/Knapen_AOT/AOT_stimuli/pictures/2016_fw.png	89.8834617137909	0.9860661029815674
24	29.750322341918945	response	0	k		22.0	/experiments/Knapen_AOT/AOT_stimuli/pictures/2016_fw.png	90.85683417320251	
25	29.76301598548889	picture	0		112	23.0	/experiments/Knapen_AOT/AOT_stimuli/pictures/0990_fw.png	90.86952781677246	0.9454619884490967
25	30.692262411117554	response	0	j		23.0	/experiments/Knapen_AOT/AOT_stimuli/pictures/0990_fw.png	91.79877424240112	
26	30.70847797393799	picture	0		108	24.0	/experiments/Knapen_AOT/AOT_stimuli/pictures/0141_fw.png	91.81498980522156	0.9017636775970459
26	31.60036587715149	response	0	j		24.0	/experiments/Knapen_AOT/AOT_stimuli/pictures/0141_fw.png	92.70687770843506	
27	31.610241651535034	picture	0		89	25.0	/experiments/Knapen_AOT/AOT_stimuli/pictures/0911_fw.png	92.7167534828186	0.7430484294891357
27	32.342013359069824	response	0	k		25.0	/experiments/Knapen_AOT/AOT_stimuli/pictures/0911_fw.png	93.4485251903534	
28	32.35329008102417	picture	0		95	26.0	/experiments/Knapen_AOT/AOT_stimuli/pictures/1569_fw.png	93.45980191230774	0.7968764305114746
28	33.133687019348145	response	0	k		26.0	/experiments/Knapen_AOT/AOT_stimuli/pictures/1569_fw.png	94.24019885063171	
29	33.150166511535645	picture	0		108	27.0	/experiments/Knapen_AOT/AOT_stimuli/pictures/1843_fw.png	94.25667834281921	0.9045102596282959
29	34.04203987121582	response	0	k		27.0	/experiments/Knapen_AOT/AOT_stimuli/pictures/1843_fw.png	95.14855170249939	
30	34.05467677116394	picture	0		94	28.0	/experiments/Knapen_AOT/AOT_stimuli/pictures/0980_fw.png	95.16118860244751	0.7956624031066895
30	34.8337459564209	response	0	k		28.0	/experiments/Knapen_AOT/AOT_stimuli/pictures/0980_fw.png	95.94025778770447	
31	34.85033917427063	picture	0		104	29.0	/experiments/Knapen_AOT/AOT_stimuli/pictures/1839_fw.png	95.9568510055542	0.8710107803344727
31	35.70870494842529	response	0	k		29.0	/experiments/Knapen_AOT/AOT_stimuli/pictures/1839_fw.png	96.81521677970886	
32	35.7213499546051	picture	0		116	30.0	/experiments/Knapen_AOT/AOT_stimuli/pictures/0444_fw.png	96.82786178588867	0.9788706302642822
32	36.68377113342285	response	0	j		30.0	/experiments/Knapen_AOT/AOT_stimuli/pictures/0444_fw.png	97.79028296470642	
33	36.700220584869385	picture	0		106	31.0	/experiments/Knapen_AOT/AOT_stimuli/pictures/1592_fw.png	97.80673241615295	0.8892242908477783
33	37.57560443878174	response	0	k		31.0	/experiments/Knapen_AOT/AOT_stimuli/pictures/1592_fw.png	98.68211627006531	
34	37.58944487571716	picture	0		93	32.0	/experiments/Knapen_AOT/AOT_stimuli/pictures/0582_fw.png	98.69595670700073	0.7777869701385498
34	38.35875201225281	response	0	j		32.0	/experiments/Knapen_AOT/AOT_stimuli/pictures/0582_fw.png	99.46526384353638	
35	38.36723184585571	picture	0		158	33.0	/experiments/Knapen_AOT/AOT_stimuli/pictures/1956_fw.png	99.47374367713928	1.324699878692627
35	39.67548203468323	response	0	k		33.0	/experiments/Knapen_AOT/AOT_stimuli/pictures/1956_fw.png	100.7819938659668	
36	39.69193172454834	picture	0		181	34.0	/experiments/Knapen_AOT/AOT_stimuli/pictures/0355_fw.png	100.79844355583191	1.5085203647613525
36	41.192187547683716	response	0	k		34.0	/experiments/Knapen_AOT/AOT_stimuli/pictures/0355_fw.png	102.29869937896729	
37	41.20045208930969	picture	0		110	35.0	/experiments/Knapen_AOT/AOT_stimuli/pictures/1248_fw.png	102.30696392059326	0.9248573780059814
37	42.108832359313965	response	0	k		35.0	/experiments/Knapen_AOT/AOT_stimuli/pictures/1248_fw.png	103.21534419059753	
38	42.125309467315674	picture	0		128	36.0	/experiments/Knapen_AOT/AOT_stimuli/pictures/0149_fw.png	103.23182129859924	1.0683579444885254
38	43.183791637420654	response	0	j		36.0	/experiments/Knapen_AOT/AOT_stimuli/pictures/0149_fw.png	104.29030346870422	
39	43.1936674118042	picture	0		95	37.0	/experiments/Knapen_AOT/AOT_stimuli/pictures/0965_fw.png	104.30017924308777	0.7983410358428955
39	43.975746631622314	response	0	k		37.0	/experiments/Knapen_AOT/AOT_stimuli/pictures/0965_fw.png	105.08225846290588	
40	43.992008447647095	picture	0		90	38.0	/experiments/Knapen_AOT/AOT_stimuli/pictures/1204_fw.png	105.09852027893066	0.7582921981811523
40	44.73414444923401	response	0	j		38.0	/experiments/Knapen_AOT/AOT_stimuli/pictures/1204_fw.png	105.84065628051758	
41	44.75030064582825	picture	0		101	39.0	/experiments/Knapen_AOT/AOT_stimuli/pictures/0627_fw.png	105.85681247711182	0.8461704254150391
41	45.58385467529297	response	0	k		39.0	/experiments/Knapen_AOT/AOT_stimuli/pictures/0627_fw.png	106.69036650657654	
42	45.596471071243286	picture	0		141	40.0	/experiments/Knapen_AOT/AOT_stimuli/pictures/1446_fw.png	106.70298290252686	1.1805610656738281
42	46.76003432273865	response	0	k		40.0	/experiments/Knapen_AOT/AOT_stimuli/pictures/1446_fw.png	107.86654615402222	
43	46.777032136917114	picture	0		147	41.0	/experiments/Knapen_AOT/AOT_stimuli/pictures/1058_fw.png	107.88354396820068	1.2291550636291504
43	47.992223024368286	response	0	k		41.0	/experiments/Knapen_AOT/AOT_stimuli/pictures/1058_fw.png	109.09873485565186	
44	48.006187200546265	picture	0		153	42.0	/experiments/Knapen_AOT/AOT_stimuli/pictures/0177_fw.png	109.11269903182983	1.2858390808105469
44	49.27562761306763	response	0	k		42.0	/experiments/Knapen_AOT/AOT_stimuli/pictures/0177_fw.png	110.3821394443512	
45	49.29202628135681	picture	0		102	43.0	/experiments/Knapen_AOT/AOT_stimuli/pictures/1014_fw.png	110.39853811264038	0.8531486988067627
45	50.13396501541138	response	0	k		43.0	/experiments/Knapen_AOT/AOT_stimuli/pictures/1014_fw.png	111.24047684669495	
46	50.145174980163574	picture	0		91	44.0	/experiments/Knapen_AOT/AOT_stimuli/pictures/1640_fw.png	111.25168681144714	0.7568418979644775
46	50.89224910736084	response	0	j		44.0	/experiments/Knapen_AOT/AOT_stimuli/pictures/1640_fw.png	111.99876093864441	
47	50.90201687812805	picture	0		87	45.0	/experiments/Knapen_AOT/AOT_stimuli/pictures/1951_fw.png	112.00852870941162	0.7291526794433594
47	51.617257595062256	response	0	j		45.0	/experiments/Knapen_AOT/AOT_stimuli/pictures/1951_fw.png	112.72376942634583	
48	51.63116955757141	picture	0		103	46.0	/experiments/Knapen_AOT/AOT_stimuli/pictures/0098_fw.png	112.73768138885498	0.8692717552185059
48	52.483919620513916	response	0	j		46.0	/experiments/Knapen_AOT/AOT_stimuli/pictures/0098_fw.png	113.59043145179749	
49	52.50044131278992	picture	0		133	47.0	/experiments/Knapen_AOT/AOT_stimuli/pictures/2170_fw.png	113.60695314407349	1.1168444156646729
49	53.600807189941406	response	0	k		47.0	/experiments/Knapen_AOT/AOT_stimuli/pictures/2170_fw.png	114.70731902122498	
50	53.61728572845459	picture	0		136	48.0	/experiments/Knapen_AOT/AOT_stimuli/pictures/1342_fw.png	114.72379755973816	1.138899803161621
50	54.7422730922699	response	0	k		48.0	/experiments/Knapen_AOT/AOT_stimuli/pictures/1342_fw.png	115.84878492355347	
51	54.75618553161621	picture	0		85	49.0	/experiments/Knapen_AOT/AOT_stimuli/pictures/1716_fw.png	115.86269736289978	0.7153050899505615
51	55.45891809463501	response	0	k		49.0	/experiments/Knapen_AOT/AOT_stimuli/pictures/1716_fw.png	116.56542992591858	
52	55.47149062156677	picture	0		119	50.0	/experiments/Knapen_AOT/AOT_stimuli/pictures/2104_fw.png	116.57800245285034	1.0000014305114746
52	56.4589364528656	response	0	k		50.0	/experiments/Knapen_AOT/AOT_stimuli/pictures/2104_fw.png	117.56544828414917	
53	56.47149205207825	picture	0		95	51.0	/experiments/Knapen_AOT/AOT_stimuli/pictures/0538_fw.png	117.57800388336182	0.791656494140625
53	57.250572681427	response	0	k		51.0	/experiments/Knapen_AOT/AOT_stimuli/pictures/0538_fw.png	118.35708451271057	
54	57.26314854621887	picture	0		94	52.0	/experiments/Knapen_AOT/AOT_stimuli/pictures/1310_fw.png	118.36966037750244	0.7847459316253662
54	58.034159421920776	response	0	k		52.0	/experiments/Knapen_AOT/AOT_stimuli/pictures/1310_fw.png	119.14067125320435	
55	58.04789447784424	picture	0		111	53.0	/experiments/Knapen_AOT/AOT_stimuli/pictures/1193_fw.png	119.15440630912781	0.9359261989593506
55	58.96095418930054	response	0	k		53.0	/experiments/Knapen_AOT/AOT_stimuli/pictures/1193_fw.png	120.0674660205841	
56	58.98382067680359	picture	0		114	54.0	/experiments/Knapen_AOT/AOT_stimuli/pictures/0791_fw.png	120.09033250808716	0.9583168029785156
56	59.92564630508423	response	0	k		54.0	/experiments/Knapen_AOT/AOT_stimuli/pictures/0791_fw.png	121.0321581363678	
57	59.942137479782104	picture	0		155	55.0	/experiments/Knapen_AOT/AOT_stimuli/pictures/0995_fw.png	121.04864931106567	1.3001048564910889
57	61.22572112083435	response	0	j		55.0	/experiments/Knapen_AOT/AOT_stimuli/pictures/0995_fw.png	122.33223295211792	
58	61.24224233627319	picture	0		106	56.0	/experiments/Knapen_AOT/AOT_stimuli/pictures/1406_fw.png	122.34875416755676	0.8916435241699219
58	62.11736512184143	response	0	j		56.0	/experiments/Knapen_AOT/AOT_stimuli/pictures/1406_fw.png	123.223876953125	
59	62.133885860443115	picture	0		406	57.0	/experiments/Knapen_AOT/AOT_stimuli/pictures/1289_fw.png	123.24039769172668	3.3916702270507812
59	65.50914096832275	response	0	j		57.0	/experiments/Knapen_AOT/AOT_stimuli/pictures/1289_fw.png	126.61565279960632	
60	65.5255560874939	picture	0		94	58.0	/experiments/Knapen_AOT/AOT_stimuli/pictures/0026_fw.png	126.63206791877747	0.7862732410430908
60	66.30073618888855	response	0	j		58.0	/experiments/Knapen_AOT/AOT_stimuli/pictures/0026_fw.png	127.40724802017212	
61	66.31182932853699	picture	0		94	59.0	/experiments/Knapen_AOT/AOT_stimuli/pictures/0342_fw.png	127.41834115982056	0.7848429679870605
61	67.08406686782837	response	0	j		59.0	/experiments/Knapen_AOT/AOT_stimuli/pictures/0342_fw.png	128.19057869911194	
62	67.09667229652405	picture	0		105	60.0	/experiments/Knapen_AOT/AOT_stimuli/pictures/0683_fw.png	128.20318412780762	0.8818221092224121
62	67.96763134002686	response	0	j		60.0	/experiments/Knapen_AOT/AOT_stimuli/pictures/0683_fw.png	129.07414317131042	
63	67.97849440574646	picture	0		125	61.0	/experiments/Knapen_AOT/AOT_stimuli/pictures/2007_fw.png	129.08500623703003	1.0418634414672852
63	69.009113073349	response	0	j		61.0	/experiments/Knapen_AOT/AOT_stimuli/pictures/2007_fw.png	130.11562490463257	
64	69.02035784721375	picture	0		233	62.0	/experiments/Knapen_AOT/AOT_stimuli/pictures/0356_fw.png	130.12686967849731	1.944197654724121
64	70.94415044784546	response	0	k		62.0	/experiments/Knapen_AOT/AOT_stimuli/pictures/0356_fw.png	132.05066227912903	
65	70.96455550193787	picture	0		89	63.0	/experiments/Knapen_AOT/AOT_stimuli/pictures/1405_fw.png	132.07106733322144	0.7527234554290771
65	71.70117235183716	response	0	k		63.0	/experiments/Knapen_AOT/AOT_stimuli/pictures/1405_fw.png	132.80768418312073	
66	71.71727895736694	picture	0		89	64.0	/experiments/Knapen_AOT/AOT_stimuli/pictures/0639_fw.png	132.8237907886505	0.7473759651184082
66	72.45076489448547	response	0	j		64.0	/experiments/Knapen_AOT/AOT_stimuli/pictures/0639_fw.png	133.55727672576904	
67	72.46465492248535	picture	0		156	65.0	/experiments/Knapen_AOT/AOT_stimuli/pictures/1213_fw.png	133.57116675376892	1.3055546283721924
67	73.75144267082214	response	0	j		65.0	/experiments/Knapen_AOT/AOT_stimuli/pictures/1213_fw.png	134.8579545021057	
68	73.77020955085754	picture	0		137	66.0	/experiments/Knapen_AOT/AOT_stimuli/pictures/1317_fw.png	134.8767213821411	1.1470952033996582
68	74.9008297920227	response	0	k		66.0	/experiments/Knapen_AOT/AOT_stimuli/pictures/1317_fw.png	136.00734162330627	
69	74.9173047542572	picture	0		275	67.0	/experiments/Knapen_AOT/AOT_stimuli/pictures/1119_fw.png	136.02381658554077	2.2972817420959473
69	77.20092034339905	response	0	j		67.0	/experiments/Knapen_AOT/AOT_stimuli/pictures/1119_fw.png	138.30743217468262	
70	77.21458649635315	picture	0		98	68.0	/experiments/Knapen_AOT/AOT_stimuli/pictures/2005_fw.png	138.32109832763672	0.819633960723877
70	78.02592086791992	response	0	k		68.0	/experiments/Knapen_AOT/AOT_stimuli/pictures/2005_fw.png	139.1324326992035	
71	78.03422045707703	picture	0		94	69.0	/experiments/Knapen_AOT/AOT_stimuli/pictures/0870_fw.png	139.1407322883606	0.7845940589904785
71	78.80924224853516	response	0	k		69.0	/experiments/Knapen_AOT/AOT_stimuli/pictures/0870_fw.png	139.91575407981873	
72	78.8188145160675	picture	0		88	70.0	/experiments/Knapen_AOT/AOT_stimuli/pictures/1779_fw.png	139.92532634735107	0.7361495494842529
72	79.54255986213684	response	0	j		70.0	/experiments/Knapen_AOT/AOT_stimuli/pictures/1779_fw.png	140.6490716934204	
73	79.55496406555176	picture	0		129	71.0	/experiments/Knapen_AOT/AOT_stimuli/pictures/0384_fw.png	140.66147589683533	1.0764155387878418
73	80.61771368980408	response	0	k		71.0	/experiments/Knapen_AOT/AOT_stimuli/pictures/0384_fw.png	141.72422552108765	
74	80.6313796043396	picture	0		107	72.0	/experiments/Knapen_AOT/AOT_stimuli/pictures/0614_fw.png	141.73789143562317	0.8958210945129395
74	81.517587184906	response	0	k		72.0	/experiments/Knapen_AOT/AOT_stimuli/pictures/0614_fw.png	142.62409901618958	
75	81.52720069885254	picture	0		182	73.0	/experiments/Knapen_AOT/AOT_stimuli/pictures/0160_fw.png	142.6337125301361	1.5207619667053223
75	83.03427720069885	response	0	k		73.0	/experiments/Knapen_AOT/AOT_stimuli/pictures/0160_fw.png	144.14078903198242	
76	83.04796266555786	picture	0		104	74.0	/experiments/Knapen_AOT/AOT_stimuli/pictures/1991_fw.png	144.15447449684143	0.8751101493835449
76	83.90943670272827	response	0	j		74.0	/experiments/Knapen_AOT/AOT_stimuli/pictures/1991_fw.png	145.01594853401184	
77	83.9230728149414	picture	0		143	75.0	/experiments/Knapen_AOT/AOT_stimuli/pictures/2122_fw.png	145.02958464622498	1.194509506225586
77	85.10934901237488	response	0	k		75.0	/experiments/Knapen_AOT/AOT_stimuli/pictures/2122_fw.png	146.21586084365845	
78	85.11758232116699	picture	0		89	76.0	/experiments/Knapen_AOT/AOT_stimuli/pictures/1853_fw.png	146.22409415245056	0.7429924011230469
78	85.85094213485718	response	0	j		76.0	/experiments/Knapen_AOT/AOT_stimuli/pictures/1853_fw.png	146.95745396614075	
79	85.86057472229004	picture	0		104	77.0	/experiments/Knapen_AOT/AOT_stimuli/pictures/0702_fw.png	146.9670865535736	0.873553991317749
79	86.71837282180786	response	0	k		77.0	/experiments/Knapen_AOT/AOT_stimuli/pictures/0702_fw.png	147.82488465309143	
80	86.73412871360779	picture	0		136	78.0	/experiments/Knapen_AOT/AOT_stimuli/pictures/1944_fw.png	147.84064054489136	1.1333978176116943
80	87.8593053817749	response	0	k		78.0	/experiments/Knapen_AOT/AOT_stimuli/pictures/1944_fw.png	148.96581721305847	
81	87.86752653121948	picture	0		90	79.0	/experiments/Knapen_AOT/AOT_stimuli/pictures/0667_fw.png	148.97403836250305	0.7582836151123047
81	88.6093213558197	response	0	j		79.0	/experiments/Knapen_AOT/AOT_stimuli/pictures/0667_fw.png	149.71583318710327	
82	88.62581014633179	picture	0		192	80.0	/experiments/Knapen_AOT/AOT_stimuli/pictures/0872_fw.png	149.73232197761536	1.6027297973632812
82	90.21767449378967	response	0	j		80.0	/experiments/Knapen_AOT/AOT_stimuli/pictures/0872_fw.png	151.32418632507324	
83	90.22853994369507	picture	0		82	81.0	/experiments/Knapen_AOT/AOT_stimuli/pictures/1648_fw.png	151.33505177497864	0.6889560222625732
83	90.90100264549255	response	0	j		81.0	/experiments/Knapen_AOT/AOT_stimuli/pictures/1648_fw.png	152.00751447677612	
84	90.91749596595764	picture	0		90	82.0	/experiments/Knapen_AOT/AOT_stimuli/pictures/1124_fw.png	152.0240077972412	0.7555913925170898
84	91.65945625305176	response	0	j		82.0	/experiments/Knapen_AOT/AOT_stimuli/pictures/1124_fw.png	152.76596808433533	
85	91.67308735847473	picture	0		97	83.0	/experiments/Knapen_AOT/AOT_stimuli/pictures/0910_fw.png	152.7795991897583	0.8125157356262207
85	92.47606801986694	response	0	k		83.0	/experiments/Knapen_AOT/AOT_stimuli/pictures/0910_fw.png	153.5825798511505	
86	92.48560309410095	picture	0		161	84.0	/experiments/Knapen_AOT/AOT_stimuli/pictures/0192_fw.png	153.59211492538452	1.3486742973327637
86	93.8177137374878	response	0	j		84.0	/experiments/Knapen_AOT/AOT_stimuli/pictures/0192_fw.png	154.92422556877136	
87	93.83427739143372	picture	0		94	85.0	/experiments/Knapen_AOT/AOT_stimuli/pictures/1318_fw.png	154.94078922271729	0.7916762828826904
87	94.61000466346741	response	0	k		85.0	/experiments/Knapen_AOT/AOT_stimuli/pictures/1318_fw.png	155.71651649475098	
88	94.6259536743164	picture	0		110	86.0	/experiments/Knapen_AOT/AOT_stimuli/pictures/2123_fw.png	155.73246550559998	0.922260046005249
88	95.53446221351624	response	0	k		86.0	/experiments/Knapen_AOT/AOT_stimuli/pictures/2123_fw.png	156.6409740447998	
89	95.54821372032166	picture	0		148	87.0	/experiments/Knapen_AOT/AOT_stimuli/pictures/0880_fw.png	156.65472555160522	1.2443439960479736
89	96.77610158920288	response	0	j		87.0	/experiments/Knapen_AOT/AOT_stimuli/pictures/0880_fw.png	157.88261342048645	
90	96.79255771636963	picture	0		130	88.0	/experiments/Knapen_AOT/AOT_stimuli/pictures/1904_fw.png	157.8990695476532	1.0916876792907715
90	97.8677875995636	response	0	k		88.0	/experiments/Knapen_AOT/AOT_stimuli/pictures/1904_fw.png	158.97429943084717	
91	97.8842453956604	picture	0		113	89.0	/experiments/Knapen_AOT/AOT_stimuli/pictures/1346_fw.png	158.99075722694397	0.9417319297790527
91	98.81779408454895	response	0	k		89.0	/experiments/Knapen_AOT/AOT_stimuli/pictures/1346_fw.png	159.92430591583252	
92	98.82597732543945	picture	0		91	90.0	/experiments/Knapen_AOT/AOT_stimuli/pictures/2177_fw.png	159.93248915672302	0.7638962268829346
92	99.5762128829956	response	0	j		90.0	/experiments/Knapen_AOT/AOT_stimuli/pictures/2177_fw.png	160.68272471427917	
93	99.58987355232239	picture	0		94	91.0	/experiments/Knapen_AOT/AOT_stimuli/pictures/0074_fw.png	160.69638538360596	0.7916452884674072
93	100.36794662475586	response	0	k		91.0	/experiments/Knapen_AOT/AOT_stimuli/pictures/0074_fw.png	161.47445845603943	
94	100.3815188407898	picture	0		95	92.0	/experiments/Knapen_AOT/AOT_stimuli/pictures/1876_fw.png	161.48803067207336	0.802783727645874
94	101.16793894767761	response	0	j		92.0	/experiments/Knapen_AOT/AOT_stimuli/pictures/1876_fw.png	162.27445077896118	
95	101.18430256843567	picture	0		121	93.0	/experiments/Knapen_AOT/AOT_stimuli/pictures/1644_fw.png	162.29081439971924	1.0097050666809082
95	102.18451809883118	response	0	j		93.0	/experiments/Knapen_AOT/AOT_stimuli/pictures/1644_fw.png	163.29102993011475	
96	102.19400763511658	picture	0		229	94.0	/experiments/Knapen_AOT/AOT_stimuli/pictures/0875_fw.png	163.30051946640015	1.9153380393981934
96	104.09310340881348	response	0	k		94.0	/experiments/Knapen_AOT/AOT_stimuli/pictures/0875_fw.png	165.19961524009705	
97	104.10934567451477	picture	0		93	95.0	/experiments/Knapen_AOT/AOT_stimuli/pictures/0373_fw.png	165.21585750579834	0.77909255027771
97	104.87619233131409	response	0	j		95.0	/experiments/Knapen_AOT/AOT_stimuli/pictures/0373_fw.png	165.98270416259766	
98	104.88843822479248	picture	0		85	96.0	/experiments/Knapen_AOT/AOT_stimuli/pictures/1276_fw.png	165.99495005607605	0.7083544731140137
98	105.58450961112976	response	0	j		96.0	/experiments/Knapen_AOT/AOT_stimuli/pictures/1276_fw.png	166.69102144241333	
99	105.5967926979065	picture	0		120	97.0	/experiments/Knapen_AOT/AOT_stimuli/pictures/0486_fw.png	166.70330452919006	1.0002546310424805
99	106.58452010154724	response	0	k		97.0	/experiments/Knapen_AOT/AOT_stimuli/pictures/0486_fw.png	167.6910319328308	
100	106.59704732894897	picture	0		104	98.0	/experiments/Knapen_AOT/AOT_stimuli/pictures/0802_fw.png	167.70355916023254	0.874732255935669
100	107.45952820777893	response	0	j		98.0	/experiments/Knapen_AOT/AOT_stimuli/pictures/0802_fw.png	168.5660400390625	
101	107.47177958488464	picture	0		118	99.0	/experiments/Knapen_AOT/AOT_stimuli/pictures/0700_fw.png	168.5782914161682	0.9792606830596924
101	108.44287824630737	response	0	k		99.0	/experiments/Knapen_AOT/AOT_stimuli/pictures/0700_fw.png	169.54939007759094	
102	108.45104026794434	picture	0		98	100.0	/experiments/Knapen_AOT/AOT_stimuli/pictures/0784_fw.png	169.5575520992279	0.8194019794464111
102	109.25965428352356	response	0	k		100.0	/experiments/Knapen_AOT/AOT_stimuli/pictures/0784_fw.png	170.36616611480713	
103	109.27044224739075	picture	0		85	101.0	/experiments/Knapen_AOT/AOT_stimuli/pictures/1303_fw.png	170.37695407867432	0.7082870006561279
103	109.96793723106384	response	0	k		101.0	/experiments/Knapen_AOT/AOT_stimuli/pictures/1303_fw.png	171.0744490623474	
104	109.97872924804688	picture	0		107	102.0	/experiments/Knapen_AOT/AOT_stimuli/pictures/0606_fw.png	171.08524107933044	0.8973336219787598
104	110.85956144332886	response	0	j		102.0	/experiments/Knapen_AOT/AOT_stimuli/pictures/0606_fw.png	171.96607327461243	
105	110.87606287002563	picture	0		132	103.0	/experiments/Knapen_AOT/AOT_stimuli/pictures/0971_fw.png	171.9825747013092	1.1027095317840576
105	111.96798825263977	response	0	j		103.0	/experiments/Knapen_AOT/AOT_stimuli/pictures/0971_fw.png	173.07450008392334	
106	111.97877240180969	picture	0		101	104.0	/experiments/Knapen_AOT/AOT_stimuli/pictures/0561_fw.png	173.08528423309326	0.840306282043457
106	112.80959153175354	response	0	j		104.0	/experiments/Knapen_AOT/AOT_stimuli/pictures/0561_fw.png	173.9161033630371	
107	112.81907868385315	picture	0		127	105.0	/experiments/Knapen_AOT/AOT_stimuli/pictures/1080_fw.png	173.92559051513672	1.0624921321868896
107	113.86812043190002	response	0	j		105.0	/experiments/Knapen_AOT/AOT_stimuli/pictures/1080_fw.png	174.9746322631836	
108	113.88157081604004	picture	0		115	106.0	/experiments/Knapen_AOT/AOT_stimuli/pictures/1624_fw.png	174.9880826473236	0.9695789813995361
108	114.83459568023682	response	0	j		106.0	/experiments/Knapen_AOT/AOT_stimuli/pictures/1624_fw.png	175.94110751152039	
109	114.85114979743958	picture	0		84	107.0	/experiments/Knapen_AOT/AOT_stimuli/pictures/1113_fw.png	175.95766162872314	0.7040081024169922
109	115.53582406044006	response	0	j		107.0	/experiments/Knapen_AOT/AOT_stimuli/pictures/1113_fw.png	176.64233589172363	
110	115.55515789985657	picture	0		97	108.0	/experiments/Knapen_AOT/AOT_stimuli/pictures/0619_fw.png	176.66166973114014	0.8056650161743164
110	116.34410858154297	response	0	j		108.0	/experiments/Knapen_AOT/AOT_stimuli/pictures/0619_fw.png	177.45062041282654	
111	116.36082291603088	picture	0		121	109.0	/experiments/Knapen_AOT/AOT_stimuli/pictures/2077_fw.png	177.46733474731445	1.006946086883545
111	117.359623670578	response	0	k		109.0	/experiments/Knapen_AOT/AOT_stimuli/pictures/2077_fw.png	178.46613550186157	
112	117.36776900291443	picture	0		85	110.0	/experiments/Knapen_AOT/AOT_stimuli/pictures/0106_fw.png	178.474280834198	0.716738224029541
112	118.06801199913025	response	0	k		110.0	/experiments/Knapen_AOT/AOT_stimuli/pictures/0106_fw.png	179.17452383041382	
113	118.08450722694397	picture	0		110	111.0	/experiments/Knapen_AOT/AOT_stimuli/pictures/1084_fw.png	179.19101905822754	0.9221041202545166
113	118.99310564994812	response	0	j		111.0	/experiments/Knapen_AOT/AOT_stimuli/pictures/1084_fw.png	180.0996174812317	
114	119.00661134719849	picture	0		105	112.0	/experiments/Knapen_AOT/AOT_stimuli/pictures/2145_fw.png	180.11312317848206	0.881951093673706
114	119.8763313293457	response	0	j		112.0	/experiments/Knapen_AOT/AOT_stimuli/pictures/2145_fw.png	180.98284316062927	
115	119.88856244087219	picture	0		88	113.0	/experiments/Knapen_AOT/AOT_stimuli/pictures/1677_fw.png	180.99507427215576	0.72965407371521
115	120.60966444015503	response	0	j		113.0	/experiments/Knapen_AOT/AOT_stimuli/pictures/1677_fw.png	181.7161762714386	
116	120.6182165145874	picture	0		92	114.0	/experiments/Knapen_AOT/AOT_stimuli/pictures/0528_fw.png	181.72472834587097	0.774627685546875
116	121.37640810012817	response	0	k		114.0	/experiments/Knapen_AOT/AOT_stimuli/pictures/0528_fw.png	182.48291993141174	
117	121.39284420013428	picture	0		101	115.0	/experiments/Knapen_AOT/AOT_stimuli/pictures/1211_fw.png	182.49935603141785	0.8500111103057861
117	122.2264051437378	response	0	k		115.0	/experiments/Knapen_AOT/AOT_stimuli/pictures/1211_fw.png	183.33291697502136	
118	122.24285531044006	picture	0		85	116.0	/experiments/Knapen_AOT/AOT_stimuli/pictures/1899_fw.png	183.34936714172363	0.7083160877227783
118	122.94302439689636	response	0	k		116.0	/experiments/Knapen_AOT/AOT_stimuli/pictures/1899_fw.png	184.04953622817993	
119	122.95117139816284	picture	0		99	117.0	/experiments/Knapen_AOT/AOT_stimuli/pictures/0350_fw.png	184.0576832294464	0.826251745223999
119	123.76806426048279	response	0	j		117.0	/experiments/Knapen_AOT/AOT_stimuli/pictures/0350_fw.png	184.87457609176636	
120	123.77742314338684	picture	0		137	118.0	/experiments/Knapen_AOT/AOT_stimuli/pictures/1056_fw.png	184.8839349746704	1.1487972736358643
120	124.90987300872803	response	0	k		118.0	/experiments/Knapen_AOT/AOT_stimuli/pictures/1056_fw.png	186.0163848400116	
121	124.9262204170227	picture	0		81	119.0	/experiments/Knapen_AOT/AOT_stimuli/pictures/1353_fw.png	186.03273224830627	0.6833806037902832
121	125.59312558174133	response	0	j		119.0	/experiments/Knapen_AOT/AOT_stimuli/pictures/1353_fw.png	186.6996374130249	
122	125.60960102081299	picture	0		105	120.0	/experiments/Knapen_AOT/AOT_stimuli/pictures/1007_fw.png	186.71611285209656	0.8832850456237793
122	126.4764187335968	response	0	j		120.0	/experiments/Knapen_AOT/AOT_stimuli/pictures/1007_fw.png	187.58293056488037	
123	126.49288606643677	picture	0		133	121.0	/experiments/Knapen_AOT/AOT_stimuli/pictures/1797_fw.png	187.59939789772034	1.1110825538635254
123	127.59311890602112	response	0	j		121.0	/experiments/Knapen_AOT/AOT_stimuli/pictures/1797_fw.png	188.6996307373047	
124	127.6039686203003	picture	0		127	122.0	/experiments/Knapen_AOT/AOT_stimuli/pictures/0991_fw.png	188.71048045158386	1.0639548301696777
124	128.6514720916748	response	0	k		122.0	/experiments/Knapen_AOT/AOT_stimuli/pictures/0991_fw.png	189.75798392295837	
125	128.66792345046997	picture	0		87	123.0	/experiments/Knapen_AOT/AOT_stimuli/pictures/1504_fw.png	189.77443528175354	0.7333419322967529
125	129.3850040435791	response	0	k		123.0	/experiments/Knapen_AOT/AOT_stimuli/pictures/1504_fw.png	190.49151587486267	
126	129.40126538276672	picture	0		90	124.0	/experiments/Knapen_AOT/AOT_stimuli/pictures/0511_fw.png	190.5077772140503	0.7512187957763672
126	130.13589763641357	response	0	k		124.0	/experiments/Knapen_AOT/AOT_stimuli/pictures/0511_fw.png	191.24240946769714	
127	130.1524841785431	picture	0		97	125.0	/experiments/Knapen_AOT/AOT_stimuli/pictures/0361_fw.png	191.25899600982666	0.8154876232147217
127	130.94407653808594	response	0	j		125.0	/experiments/Knapen_AOT/AOT_stimuli/pictures/0361_fw.png	192.0505883693695	
128	130.9679718017578	picture	0		95	126.0	/experiments/Knapen_AOT/AOT_stimuli/pictures/0508_fw.png	192.07448363304138	0.8000285625457764
128	131.7517442703247	response	0	k		126.0	/experiments/Knapen_AOT/AOT_stimuli/pictures/0508_fw.png	192.85825610160828	
129	131.7680003643036	picture	0		95	127.0	/experiments/Knapen_AOT/AOT_stimuli/pictures/1106_fw.png	192.87451219558716	0.7942495346069336
129	132.54412627220154	response	0	j		127.0	/experiments/Knapen_AOT/AOT_stimuli/pictures/1106_fw.png	193.6506381034851	
130	132.56224989891052	picture	0		120	128.0	/experiments/Knapen_AOT/AOT_stimuli/pictures/0596_fw.png	193.6687617301941	0.9999899864196777
130	133.55171942710876	response	0	k		128.0	/experiments/Knapen_AOT/AOT_stimuli/pictures/0596_fw.png	194.65823125839233	
131	133.5622398853302	picture	0		98	129.0	/experiments/Knapen_AOT/AOT_stimuli/pictures/1814_fw.png	194.66875171661377	0.8194689750671387
131	134.36822390556335	response	0	k		129.0	/experiments/Knapen_AOT/AOT_stimuli/pictures/1814_fw.png	195.47473573684692	
132	134.38170886039734	picture	0		174	130.0	/experiments/Knapen_AOT/AOT_stimuli/pictures/1815_fw.png	195.4882206916809	1.461301326751709
132	135.82651233673096	response	0	j		130.0	/experiments/Knapen_AOT/AOT_stimuli/pictures/1815_fw.png	196.93302416801453	
133	135.84301018714905	picture	0		99	131.0	/experiments/Knapen_AOT/AOT_stimuli/pictures/1115_fw.png	196.94952201843262	0.8303682804107666
133	136.65984559059143	response	0	k		131.0	/experiments/Knapen_AOT/AOT_stimuli/pictures/1115_fw.png	197.766357421875	
134	136.67337846755981	picture	0		102	132.0	/experiments/Knapen_AOT/AOT_stimuli/pictures/0230_fw.png	197.77989029884338	0.8613135814666748
134	137.51818537712097	response	0	k		132.0	/experiments/Knapen_AOT/AOT_stimuli/pictures/0230_fw.png	198.62469720840454	
135	137.5346920490265	picture	0		85	133.0	/experiments/Knapen_AOT/AOT_stimuli/pictures/1082_fw.png	198.64120388031006	0.716688871383667
135	138.23486804962158	response	0	k		133.0	/experiments/Knapen_AOT/AOT_stimuli/pictures/1082_fw.png	199.34137988090515	
136	138.25138092041016	picture	0		100	134.0	/experiments/Knapen_AOT/AOT_stimuli/pictures/2010_fw.png	199.35789275169373	0.8417341709136963
136	139.07658457756042	response	0	k		134.0	/experiments/Knapen_AOT/AOT_stimuli/pictures/2010_fw.png	200.183096408844	
137	139.09311509132385	picture	0		105	135.0	/experiments/Knapen_AOT/AOT_stimuli/pictures/1062_fw.png	200.19962692260742	0.8789021968841553
137	139.95994567871094	response	0	j		135.0	/experiments/Knapen_AOT/AOT_stimuli/pictures/1062_fw.png	201.0664575099945	
138	139.972017288208	picture	0		86	136.0	/experiments/Knapen_AOT/AOT_stimuli/pictures/0598_fw.png	201.07852911949158	0.7152607440948486
138	140.67661905288696	response	0	k		136.0	/experiments/Knapen_AOT/AOT_stimuli/pictures/0598_fw.png	201.78313088417053	
139	140.68727803230286	picture	0		94	137.0	/experiments/Knapen_AOT/AOT_stimuli/pictures/0179_fw.png	201.79378986358643	0.7891221046447754
139	141.45992279052734	response	0	j		137.0	/experiments/Knapen_AOT/AOT_stimuli/pictures/0179_fw.png	202.5664346218109	
140	141.47640013694763	picture	0		112	138.0	/experiments/Knapen_AOT/AOT_stimuli/pictures/0323_fw.png	202.5829119682312	0.9400293827056885
140	142.401593208313	response	0	j		138.0	/experiments/Knapen_AOT/AOT_stimuli/pictures/0323_fw.png	203.50810503959656	
141	142.41642951965332	picture	0		97	139.0	/experiments/Knapen_AOT/AOT_stimuli/pictures/2056_fw.png	203.5229413509369	0.8126358985900879
141	143.21827793121338	response	0	j		139.0	/experiments/Knapen_AOT/AOT_stimuli/pictures/2056_fw.png	204.32478976249695	
142	143.2290654182434	picture	0		225	140.0	/experiments/Knapen_AOT/AOT_stimuli/pictures/0707_fw.png	204.33557724952698	1.880885362625122
142	145.09358191490173	response	0	j		140.0	/experiments/Knapen_AOT/AOT_stimuli/pictures/0707_fw.png	206.2000937461853	
143	145.10995078086853	picture	0		101	141.0	/experiments/Knapen_AOT/AOT_stimuli/pictures/1734_fw.png	206.2164626121521	0.849881649017334
143	145.9368815422058	response	0	j		141.0	/experiments/Knapen_AOT/AOT_stimuli/pictures/1734_fw.png	207.04339337348938	
144	145.95983242988586	picture	0		105	142.0	/experiments/Knapen_AOT/AOT_stimuli/pictures/0378_fw.png	207.06634426116943	0.8833110332489014
144	146.82661938667297	response	0	k		142.0	/experiments/Knapen_AOT/AOT_stimuli/pictures/0378_fw.png	207.93313121795654	
145	146.84314346313477	picture	0		103	143.0	/experiments/Knapen_AOT/AOT_stimuli/pictures/1692_fw.png	207.94965529441833	0.8587808609008789
145	147.6933672428131	response	0	j		143.0	/experiments/Knapen_AOT/AOT_stimuli/pictures/1692_fw.png	208.79987907409668	
146	147.70192432403564	picture	0		110	144.0	/experiments/Knapen_AOT/AOT_stimuli/pictures/0387_fw.png	208.8084361553192	0.9161992073059082
146	148.61005568504333	response	0	k		144.0	/experiments/Knapen_AOT/AOT_stimuli/pictures/0387_fw.png	209.7165675163269	
147	148.61812353134155	picture	0		99	145.0	/experiments/Knapen_AOT/AOT_stimuli/pictures/1786_fw.png	209.72463536262512	0.8334457874298096
147	149.43502473831177	response	0	j		145.0	/experiments/Knapen_AOT/AOT_stimuli/pictures/1786_fw.png	210.54153656959534	
148	149.45156931877136	picture	0		226	146.0	/experiments/Knapen_AOT/AOT_stimuli/pictures/0100_fw.png	210.55808115005493	1.888474702835083
148	151.32018899917603	response	0	j		146.0	/experiments/Knapen_AOT/AOT_stimuli/pictures/0100_fw.png	212.4267008304596	
149	151.34004402160645	picture	0		81	147.0	/experiments/Knapen_AOT/AOT_stimuli/pictures/0951_fw.png	212.44655585289001	0.8125896453857422
149	152.13585925102234	response	0	k		147.0	/experiments/Knapen_AOT/AOT_stimuli/pictures/0951_fw.png	213.2423710823059	
150	152.1526336669922	picture	0		114	148.0	/experiments/Knapen_AOT/AOT_stimuli/pictures/1764_fw.png	213.25914549827576	0.957237958908081
150	153.09347915649414	response	0	k		148.0	/experiments/Knapen_AOT/AOT_stimuli/pictures/1764_fw.png	214.1999909877777	
151	153.10987162590027	picture	0		99	149.0	/experiments/Knapen_AOT/AOT_stimuli/pictures/0433_fw.png	214.21638345718384	0.8333466053009033
151	153.92680716514587	response	0	k		149.0	/experiments/Knapen_AOT/AOT_stimuli/pictures/0433_fw.png	215.03331899642944	
152	153.94321823120117	picture	0		115	150.0	/experiments/Knapen_AOT/AOT_stimuli/pictures/1635_fw.png	215.04973006248474	0.9666905403137207
152	154.89344000816345	response	0	k		150.0	/experiments/Knapen_AOT/AOT_stimuli/pictures/1635_fw.png	215.99995183944702	
153	154.9099087715149	picture	0		102	151.0	/experiments/Knapen_AOT/AOT_stimuli/pictures/0861_fw.png	216.01642060279846	0.8583557605743408
153	155.75173211097717	response	0	j		151.0	/experiments/Knapen_AOT/AOT_stimuli/pictures/0861_fw.png	216.85824394226074	
154	155.76826453208923	picture	0		91	152.0	/experiments/Knapen_AOT/AOT_stimuli/pictures/1721_fw.png	216.8747763633728	0.7666797637939453
154	156.51857495307922	response	0	j		152.0	/experiments/Knapen_AOT/AOT_stimuli/pictures/1721_fw.png	217.6250867843628	
155	156.53494429588318	picture	0		116	153.0	/experiments/Knapen_AOT/AOT_stimuli/pictures/0996_fw.png	217.64145612716675	0.9749891757965088
155	157.49342513084412	response	0	k		153.0	/experiments/Knapen_AOT/AOT_stimuli/pictures/0996_fw.png	218.59993696212769	
156	157.5099334716797	picture	0		92	154.0	/experiments/Knapen_AOT/AOT_stimuli/pictures/0609_fw.png	218.61644530296326	0.7749831676483154
156	158.26849675178528	response	0	j		154.0	/experiments/Knapen_AOT/AOT_stimuli/pictures/0609_fw.png	219.37500858306885	
157	158.284916639328	picture	0		127	155.0	/experiments/Knapen_AOT/AOT_stimuli/pictures/1849_fw.png	219.39142847061157	1.0621864795684814
157	159.3351595401764	response	0	j		155.0	/experiments/Knapen_AOT/AOT_stimuli/pictures/1849_fw.png	220.44167137145996	
158	159.34710311889648	picture	0		117	156.0	/experiments/Knapen_AOT/AOT_stimuli/pictures/1184_fw.png	220.45361495018005	0.9795215129852295
158	160.31013536453247	response	0	k		156.0	/experiments/Knapen_AOT/AOT_stimuli/pictures/1184_fw.png	221.41664719581604	
159	160.3266246318817	picture	0		174	157.0	/experiments/Knapen_AOT/AOT_stimuli/pictures/1127_fw.png	221.43313646316528	1.4583461284637451
159	161.76877784729004	response	0	j		157.0	/experiments/Knapen_AOT/AOT_stimuli/pictures/1127_fw.png	222.8752896785736	
160	161.78497076034546	picture	0		248	158.0	/experiments/Knapen_AOT/AOT_stimuli/pictures/1055_fw.png	222.89148259162903	2.069014310836792
160	163.84349870681763	response	0	k		158.0	/experiments/Knapen_AOT/AOT_stimuli/pictures/1055_fw.png	224.9500105381012	
161	163.85398507118225	picture	0		100	159.0	/experiments/Knapen_AOT/AOT_stimuli/pictures/0084_fw.png	224.96049690246582	0.8393630981445312
161	164.67698431015015	response	0	k		159.0	/experiments/Knapen_AOT/AOT_stimuli/pictures/0084_fw.png	225.78349614143372	
162	164.69334816932678	picture	0		229	160.0	/experiments/Knapen_AOT/AOT_stimuli/pictures/0565_fw.png	225.79986000061035	1.9167239665985107
162	166.59358096122742	response	0	k		160.0	/experiments/Knapen_AOT/AOT_stimuli/pictures/0565_fw.png	227.700092792511	
163	166.6100721359253	picture	0		80	161.0	/experiments/Knapen_AOT/AOT_stimuli/pictures/1284_fw.png	227.71658396720886	0.6676437854766846
163	167.26854920387268	response	0	k		161.0	/experiments/Knapen_AOT/AOT_stimuli/pictures/1284_fw.png	228.37506103515625	
164	167.27771592140198	picture	0		116	162.0	/experiments/Knapen_AOT/AOT_stimuli/pictures/1682_fw.png	228.38422775268555	0.9723494052886963
164	168.23539209365845	response	0	k		162.0	/experiments/Knapen_AOT/AOT_stimuli/pictures/1682_fw.png	229.34190392494202	
165	168.25006532669067	picture	0		88	163.0	/experiments/Knapen_AOT/AOT_stimuli/pictures/1319_fw.png	229.35657715797424	0.736053466796875
165	168.97707772254944	response	0	k		163.0	/experiments/Knapen_AOT/AOT_stimuli/pictures/1319_fw.png	230.083589553833	
166	168.98611879348755	picture	0		92	164.0	/experiments/Knapen_AOT/AOT_stimuli/pictures/0600_fw.png	230.09263062477112	0.7740020751953125
166	169.74375915527344	response	0	k		164.0	/experiments/Knapen_AOT/AOT_stimuli/pictures/0600_fw.png	230.850270986557	
167	169.76012086868286	picture	0		119	165.0	/experiments/Knapen_AOT/AOT_stimuli/pictures/0532_fw.png	230.86663269996643	0.9999599456787109
167	170.73583507537842	response	0	k		165.0	/experiments/Knapen_AOT/AOT_stimuli/pictures/0532_fw.png	231.842346906662	
168	170.76008081436157	picture	0		100	166.0	/experiments/Knapen_AOT/AOT_stimuli/pictures/0759_fw.png	231.86659264564514	0.8416805267333984
168	171.58526921272278	response	0	k		166.0	/experiments/Knapen_AOT/AOT_stimuli/pictures/0759_fw.png	232.69178104400635	
169	171.60176134109497	picture	0		167	167.0	/experiments/Knapen_AOT/AOT_stimuli/pictures/0923_fw.png	232.70827317237854	1.4000258445739746
169	172.9853298664093	response	0	k		167.0	/experiments/Knapen_AOT/AOT_stimuli/pictures/0923_fw.png	234.09184169769287	
170	173.00178718566895	picture	0		162	168.0	/experiments/Knapen_AOT/AOT_stimuli/pictures/0864_fw.png	234.10829901695251	1.3522670269012451
170	174.34381413459778	response	0	k		168.0	/experiments/Knapen_AOT/AOT_stimuli/pictures/0864_fw.png	235.45032596588135	
171	174.3540542125702	picture	0		119	169.0	/experiments/Knapen_AOT/AOT_stimuli/pictures/0829_fw.png	235.46056604385376	0.993145227432251
171	175.32777428627014	response	0	j		169.0	/experiments/Knapen_AOT/AOT_stimuli/pictures/0829_fw.png	236.4342861175537	
172	175.34719944000244	picture	0		100	170.0	/experiments/Knapen_AOT/AOT_stimuli/pictures/0071_fw.png	236.453711271286	0.8333885669708252
172	176.16866779327393	response	0	k		170.0	/experiments/Knapen_AOT/AOT_stimuli/pictures/0071_fw.png	237.2751796245575	
173	176.18058800697327	picture	0		120	171.0	/experiments/Knapen_AOT/AOT_stimuli/pictures/1521_fw.png	237.28709983825684	0.9999802112579346
173	177.16870093345642	response	0	k		171.0	/experiments/Knapen_AOT/AOT_stimuli/pictures/1521_fw.png	238.27521276474	
174	177.1805682182312	picture	0		112	172.0	/experiments/Knapen_AOT/AOT_stimuli/pictures/2065_fw.png	238.28708004951477	0.9306142330169678
174	178.10203981399536	response	0	j		172.0	/experiments/Knapen_AOT/AOT_stimuli/pictures/2065_fw.png	239.20855164527893	
175	178.11118245124817	picture	0		182	173.0	/experiments/Knapen_AOT/AOT_stimuli/pictures/0964_fw.png	239.21769428253174	1.5240004062652588
175	179.61873507499695	response	0	k		173.0	/experiments/Knapen_AOT/AOT_stimuli/pictures/0964_fw.png	240.72524690628052	
176	179.63518285751343	picture	0		127	174.0	/experiments/Knapen_AOT/AOT_stimuli/pictures/1442_fw.png	240.741694688797	1.0666661262512207
176	180.68539333343506	response	0	k		174.0	/experiments/Knapen_AOT/AOT_stimuli/pictures/1442_fw.png	241.79190516471863	
177	180.70184898376465	picture	0		83	175.0	/experiments/Knapen_AOT/AOT_stimuli/pictures/1395_fw.png	241.80836081504822	0.7000303268432617
177	181.38549041748047	response	0	k		175.0	/experiments/Knapen_AOT/AOT_stimuli/pictures/1395_fw.png	242.49200224876404	
178	181.4018793106079	picture	0		90	176.0	/experiments/Knapen_AOT/AOT_stimuli/pictures/0783_fw.png	242.50839114189148	0.7583451271057129
178	182.14380860328674	response	0	k		176.0	/experiments/Knapen_AOT/AOT_stimuli/pictures/0783_fw.png	243.2503204345703	
179	182.16022443771362	picture	0		116	177.0	/experiments/Knapen_AOT/AOT_stimuli/pictures/0941_fw.png	243.2667362689972	0.9750230312347412
179	183.11882400512695	response	0	k		177.0	/experiments/Knapen_AOT/AOT_stimuli/pictures/0941_fw.png	244.22533583641052	
180	183.13524746894836	picture	0		149	178.0	/experiments/Knapen_AOT/AOT_stimuli/pictures/1698_fw.png	244.24175930023193	1.246739149093628
180	184.3687298297882	response	0	j		178.0	/experiments/Knapen_AOT/AOT_stimuli/pictures/1698_fw.png	245.47524166107178	
181	184.381986618042	picture	0		88	179.0	/experiments/Knapen_AOT/AOT_stimuli/pictures/0438_fw.png	245.48849844932556	0.7365875244140625
181	185.11037707328796	response	0	k		179.0	/experiments/Knapen_AOT/AOT_stimuli/pictures/0438_fw.png	246.21688890457153	
182	185.11857414245605	picture	0		97	180.0	/experiments/Knapen_AOT/AOT_stimuli/pictures/0243_fw.png	246.22508597373962	0.8166909217834473
182	185.91882395744324	response	0	k		180.0	/experiments/Knapen_AOT/AOT_stimuli/pictures/0243_fw.png	247.0253357887268	
183	185.9352650642395	picture	0		129	181.0	/experiments/Knapen_AOT/AOT_stimuli/pictures/1417_fw.png	247.04177689552307	1.0833923816680908
183	187.00215125083923	response	0	j		181.0	/experiments/Knapen_AOT/AOT_stimuli/pictures/1417_fw.png	248.1086630821228	
184	187.0186574459076	picture	0		136	182.0	/experiments/Knapen_AOT/AOT_stimuli/pictures/1867_fw.png	248.12516927719116	1.141597032546997
184	188.13776326179504	response	0	j		182.0	/experiments/Knapen_AOT/AOT_stimuli/pictures/1867_fw.png	249.2442750930786	
185	188.1602544784546	picture	0		83	183.0	/experiments/Knapen_AOT/AOT_stimuli/pictures/2004_fw.png	249.26676630973816	0.7000730037689209
185	188.84393858909607	response	0	k		183.0	/experiments/Knapen_AOT/AOT_stimuli/pictures/2004_fw.png	249.95045042037964	
186	188.8603274822235	picture	0		145	184.0	/experiments/Knapen_AOT/AOT_stimuli/pictures/1940_fw.png	249.96683931350708	1.2091832160949707
186	190.06050992012024	response	0	k		184.0	/experiments/Knapen_AOT/AOT_stimuli/pictures/1940_fw.png	251.1670217514038	
187	190.06951069831848	picture	0		108	185.0	/experiments/Knapen_AOT/AOT_stimuli/pictures/0545_fw.png	251.17602252960205	0.9074718952178955
187	190.96056079864502	response	0	j		185.0	/experiments/Knapen_AOT/AOT_stimuli/pictures/0545_fw.png	252.0670726299286	
188	190.97698259353638	picture	0		136	186.0	/experiments/Knapen_AOT/AOT_stimuli/pictures/0633_fw.png	252.08349442481995	1.1342463493347168
188	192.1021933555603	response	0	j		186.0	/experiments/Knapen_AOT/AOT_stimuli/pictures/0633_fw.png	253.20870518684387	
189	192.1112289428711	picture	0		78	187.0	/experiments/Knapen_AOT/AOT_stimuli/pictures/0519_fw.png	253.21774077415466	0.6574337482452393
189	192.75218033790588	response	0	j		187.0	/experiments/Knapen_AOT/AOT_stimuli/pictures/0519_fw.png	253.85869216918945	
190	192.76866269111633	picture	0		90	188.0	/experiments/Knapen_AOT/AOT_stimuli/pictures/0285_fw.png	253.8751745223999	0.7583394050598145
190	193.51137328147888	response	0	j		188.0	/experiments/Knapen_AOT/AOT_stimuli/pictures/0285_fw.png	254.61788511276245	
191	193.52700209617615	picture	0		98	189.0	/experiments/Knapen_AOT/AOT_stimuli/pictures/2138_fw.png	254.63351392745972	0.8203549385070801
191	194.33588814735413	response	0	j		189.0	/experiments/Knapen_AOT/AOT_stimuli/pictures/2138_fw.png	255.4423999786377	
192	194.34735703468323	picture	0		79	190.0	/experiments/Knapen_AOT/AOT_stimuli/pictures/0454_fw.png	255.4538688659668	0.6596798896789551
192	194.9938449859619	response	0	j		190.0	/experiments/Knapen_AOT/AOT_stimuli/pictures/0454_fw.png	256.1003568172455	
193	195.00703692436218	picture	0		100	191.0	/experiments/Knapen_AOT/AOT_stimuli/pictures/0484_fw.png	256.11354875564575	0.8450708389282227
193	195.83560132980347	response	0	k		191.0	/experiments/Knapen_AOT/AOT_stimuli/pictures/0484_fw.png	256.94211316108704	
194	195.8521077632904	picture	0		129	192.0	/experiments/Knapen_AOT/AOT_stimuli/pictures/1990_fw.png	256.958619594574	1.0838520526885986
194	196.9188985824585	response	0	k		192.0	/experiments/Knapen_AOT/AOT_stimuli/pictures/1990_fw.png	258.02541041374207	
195	196.935959815979	picture	0		123	193.0	/experiments/Knapen_AOT/AOT_stimuli/pictures/1385_fw.png	258.0424716472626	1.029442310333252
195	197.9522466659546	response	0	k		193.0	/experiments/Knapen_AOT/AOT_stimuli/pictures/1385_fw.png	259.05875849723816	
196	197.96540212631226	picture	0		132	194.0	/experiments/Knapen_AOT/AOT_stimuli/pictures/1240_fw.png	259.0719139575958	1.1116666793823242
196	199.06059002876282	response	0	k		194.0	/experiments/Knapen_AOT/AOT_stimuli/pictures/1240_fw.png	260.1671018600464	
197	199.07706880569458	picture	0		95	195.0	/experiments/Knapen_AOT/AOT_stimuli/pictures/0820_fw.png	260.18358063697815	0.7916409969329834
197	199.8606321811676	response	0	k		195.0	/experiments/Knapen_AOT/AOT_stimuli/pictures/0820_fw.png	260.9671440124512	
198	199.86870980262756	picture	0		91	196.0	/experiments/Knapen_AOT/AOT_stimuli/pictures/1024_fw.png	260.97522163391113	0.7633864879608154
198	200.61891913414001	response	0	k		196.0	/experiments/Knapen_AOT/AOT_stimuli/pictures/1024_fw.png	261.7254309654236	
199	200.63209629058838	picture	0		105	197.0	/experiments/Knapen_AOT/AOT_stimuli/pictures/0574_fw.png	261.73860812187195	0.8820145130157471
199	201.50231289863586	response	0	k		197.0	/experiments/Knapen_AOT/AOT_stimuli/pictures/0574_fw.png	262.60882472991943	
200	201.51411080360413	picture	0		95	198.0	/experiments/Knapen_AOT/AOT_stimuli/pictures/0425_fw.png	262.6206226348877	0.7963254451751709
200	202.29393601417542	response	0	k		198.0	/experiments/Knapen_AOT/AOT_stimuli/pictures/0425_fw.png	263.400447845459	
201	202.3104362487793	picture	0		102	199.0	/experiments/Knapen_AOT/AOT_stimuli/pictures/0362_fw.png	263.41694808006287	0.8563816547393799
201	203.15238308906555	response	0	j		199.0	/experiments/Knapen_AOT/AOT_stimuli/pictures/0362_fw.png	264.2588949203491	
202	203.16681790351868	picture	0		89	200.0	/experiments/Knapen_AOT/AOT_stimuli/pictures/2135_fw.png	264.27332973480225	0.7500240802764893
202	203.9023015499115	response	0	k		200.0	/experiments/Knapen_AOT/AOT_stimuli/pictures/2135_fw.png	265.00881338119507	
203	203.91684198379517	picture	0		112	201.0	/experiments/Knapen_AOT/AOT_stimuli/pictures/1060_fw.png	265.02335381507874	0.9436285495758057
203	204.84403920173645	response	0	j		201.0	/experiments/Knapen_AOT/AOT_stimuli/pictures/1060_fw.png	265.95055103302	
204	204.86047053337097	picture	0		99	202.0	/experiments/Knapen_AOT/AOT_stimuli/pictures/0526_fw.png	265.96698236465454	0.8272249698638916
204	205.67736268043518	response	0	k		202.0	/experiments/Knapen_AOT/AOT_stimuli/pictures/0526_fw.png	266.78387451171875	
205	205.68769550323486	picture	0		89	203.0	/experiments/Knapen_AOT/AOT_stimuli/pictures/1643_fw.png	266.79420733451843	0.7477784156799316
205	206.41908717155457	response	0	k		203.0	/experiments/Knapen_AOT/AOT_stimuli/pictures/1643_fw.png	267.52559900283813	
206	206.4354739189148	picture	0		93	204.0	/experiments/Knapen_AOT/AOT_stimuli/pictures/1264_fw.png	267.54198575019836	0.7833783626556396
206	207.20235562324524	response	0	k		204.0	/experiments/Knapen_AOT/AOT_stimuli/pictures/1264_fw.png	268.3088674545288	
207	207.21885228157043	picture	0		383	205.0	/experiments/Knapen_AOT/AOT_stimuli/pictures/0324_fw.png	268.325364112854	3.2000279426574707
207	210.40237855911255	response	0	k		205.0	/experiments/Knapen_AOT/AOT_stimuli/pictures/0324_fw.png	271.5088903903961	
208	210.4188802242279	picture	0		87	206.0	/experiments/Knapen_AOT/AOT_stimuli/pictures/1064_fw.png	271.5253920555115	0.7334051132202148
208	211.12835216522217	response	0	k		206.0	/experiments/Knapen_AOT/AOT_stimuli/pictures/1064_fw.png	272.23486399650574	
209	211.15228533744812	picture	0		110	207.0	/experiments/Knapen_AOT/AOT_stimuli/pictures/1684_fw.png	272.2587971687317	0.9249236583709717
209	212.06075382232666	response	0	j		207.0	/experiments/Knapen_AOT/AOT_stimuli/pictures/1684_fw.png	273.16726565361023	
210	212.0772089958191	picture	0		88	208.0	/experiments/Knapen_AOT/AOT_stimuli/pictures/1762_fw.png	273.18372082710266	0.7416894435882568
210	212.8024401664734	response	0	k		208.0	/experiments/Knapen_AOT/AOT_stimuli/pictures/1762_fw.png	273.90895199775696	
211	212.81889843940735	picture	0		88	209.0	/experiments/Knapen_AOT/AOT_stimuli/pictures/0498_fw.png	273.9254102706909	0.7369234561920166
211	213.54409790039062	response	0	k		209.0	/experiments/Knapen_AOT/AOT_stimuli/pictures/0498_fw.png	274.6506097316742	
212	213.55582189559937	picture	0		140	210.0	/experiments/Knapen_AOT/AOT_stimuli/pictures/1488_fw.png	274.66233372688293	1.1714198589324951
212	214.71078872680664	response	0	k		210.0	/experiments/Knapen_AOT/AOT_stimuli/pictures/1488_fw.png	275.8173005580902	
213	214.72724175453186	picture	0		84	211.0	/experiments/Knapen_AOT/AOT_stimuli/pictures/1591_fw.png	275.83375358581543	0.7035307884216309
213	215.4191083908081	response	0	j		211.0	/experiments/Knapen_AOT/AOT_stimuli/pictures/1591_fw.png	276.5256202220917	
214	215.4307725429535	picture	0		111	212.0	/experiments/Knapen_AOT/AOT_stimuli/pictures/1639_fw.png	276.53728437423706	0.9298291206359863
214	216.34412479400635	response	0	k		212.0	/experiments/Knapen_AOT/AOT_stimuli/pictures/1639_fw.png	277.4506366252899	
215	216.36060166358948	picture	0		179	213.0	/experiments/Knapen_AOT/AOT_stimuli/pictures/0610_fw.png	277.46711349487305	1.5000367164611816
215	217.84411931037903	response	0	j		213.0	/experiments/Knapen_AOT/AOT_stimuli/pictures/0610_fw.png	278.9506311416626	
216	217.86063838005066	picture	0		128	214.0	/experiments/Knapen_AOT/AOT_stimuli/pictures/0955_fw.png	278.96715021133423	1.0750186443328857
216	218.91914629936218	response	0	j		214.0	/experiments/Knapen_AOT/AOT_stimuli/pictures/0955_fw.png	280.02565813064575	
217	218.93565702438354	picture	0		95	215.0	/experiments/Knapen_AOT/AOT_stimuli/pictures/0366_fw.png	280.0421688556671	0.7999904155731201
217	219.71943259239197	response	0	k		215.0	/experiments/Knapen_AOT/AOT_stimuli/pictures/0366_fw.png	280.82594442367554	
218	219.73564743995667	picture	0		86	216.0	/experiments/Knapen_AOT/AOT_stimuli/pictures/2098_fw.png	280.84215927124023	0.7229480743408203
218	220.44416666030884	response	0	j		216.0	/experiments/Knapen_AOT/AOT_stimuli/pictures/2098_fw.png	281.5506784915924	
219	220.45859551429749	picture	0		123	217.0	/experiments/Knapen_AOT/AOT_stimuli/pictures/1535_fw.png	281.56510734558105	1.0353753566741943
219	221.4775426387787	response	0	j		217.0	/experiments/Knapen_AOT/AOT_stimuli/pictures/1535_fw.png	282.58405447006226	
220	221.49397087097168	picture	0		91	218.0	/experiments/Knapen_AOT/AOT_stimuli/pictures/0065_fw.png	282.60048270225525	0.7666950225830078
220	222.24420976638794	response	0	k		218.0	/experiments/Knapen_AOT/AOT_stimuli/pictures/0065_fw.png	283.3507215976715	
221	222.2606658935547	picture	0		112	219.0	/experiments/Knapen_AOT/AOT_stimuli/pictures/1998_fw.png	283.36717772483826	0.9423093795776367
221	223.18592429161072	response	0	k		219.0	/experiments/Knapen_AOT/AOT_stimuli/pictures/1998_fw.png	284.2924361228943	
222	223.20297527313232	picture	0		86	220.0	/experiments/Knapen_AOT/AOT_stimuli/pictures/1981_fw.png	284.3094871044159	0.7243776321411133
222	223.9045569896698	response	0	k		220.0	/experiments/Knapen_AOT/AOT_stimuli/pictures/1981_fw.png	285.01106882095337	
223	223.92735290527344	picture	0		137	221.0	/experiments/Knapen_AOT/AOT_stimuli/pictures/0108_fw.png	285.033864736557	1.142448902130127
223	225.06087613105774	response	0	j		221.0	/experiments/Knapen_AOT/AOT_stimuli/pictures/0108_fw.png	286.1673879623413	
224	225.06980180740356	picture	0		98	222.0	/experiments/Knapen_AOT/AOT_stimuli/pictures/2068_fw.png	286.17631363868713	0.819483757019043
224	225.8775405883789	response	0	j		222.0	/experiments/Knapen_AOT/AOT_stimuli/pictures/2068_fw.png	286.9840524196625	
225	225.8892855644226	picture	0		200	223.0	/experiments/Knapen_AOT/AOT_stimuli/pictures/0004_fw.png	286.9957973957062	1.6803998947143555
225	227.5532660484314	response	0	j		223.0	/experiments/Knapen_AOT/AOT_stimuli/pictures/0004_fw.png	288.65977787971497	
226	227.56968545913696	picture	0		106	224.0	/experiments/Knapen_AOT/AOT_stimuli/pictures/1542_fw.png	288.67619729042053	0.8911120891571045
226	228.44425916671753	response	0	k		224.0	/experiments/Knapen_AOT/AOT_stimuli/pictures/1542_fw.png	289.5507709980011	
227	228.46079754829407	picture	0		94	225.0	/experiments/Knapen_AOT/AOT_stimuli/pictures/0110_fw.png	289.56730937957764	0.7916216850280762
227	229.23601651191711	response	0	k		225.0	/experiments/Knapen_AOT/AOT_stimuli/pictures/0110_fw.png	290.3425283432007	
228	229.25241923332214	picture	0		133	226.0	/experiments/Knapen_AOT/AOT_stimuli/pictures/1396_fw.png	290.3589310646057	1.11668062210083
228	230.35261940956116	response	0	j		226.0	/experiments/Knapen_AOT/AOT_stimuli/pictures/1396_fw.png	291.4591312408447	
229	230.36909985542297	picture	0		113	227.0	/experiments/Knapen_AOT/AOT_stimuli/pictures/0296_fw.png	291.47561168670654	0.9500114917755127
229	231.30266690254211	response	0	k		227.0	/experiments/Knapen_AOT/AOT_stimuli/pictures/0296_fw.png	292.4091787338257	
230	231.3191113471985	picture	0		91	228.0	/experiments/Knapen_AOT/AOT_stimuli/pictures/0892_fw.png	292.42562317848206	0.7667438983917236
230	232.0700101852417	response	0	k		228.0	/experiments/Knapen_AOT/AOT_stimuli/pictures/0892_fw.png	293.17652201652527	
231	232.0858552455902	picture	0		136	229.0	/experiments/Knapen_AOT/AOT_stimuli/pictures/1634_fw.png	293.1923670768738	1.136718988418579
231	233.2109568119049	response	0	k		229.0	/experiments/Knapen_AOT/AOT_stimuli/pictures/1634_fw.png	294.3174686431885	
232	233.2225742340088	picture	0		89	230.0	/experiments/Knapen_AOT/AOT_stimuli/pictures/0912_fw.png	294.32908606529236	0.7434618473052979
232	233.95264744758606	response	0	k		230.0	/experiments/Knapen_AOT/AOT_stimuli/pictures/0912_fw.png	295.05915927886963	
233	233.9660360813141	picture	0		79	231.0	/experiments/Knapen_AOT/AOT_stimuli/pictures/1633_fw.png	295.07254791259766	0.666287899017334
233	234.61936473846436	response	0	j		231.0	/experiments/Knapen_AOT/AOT_stimuli/pictures/1633_fw.png	295.7258765697479	
234	234.63232398033142	picture	0		122	232.0	/experiments/Knapen_AOT/AOT_stimuli/pictures/1154_fw.png	295.738835811615	1.0138678550720215
234	235.6359453201294	response	0	k		232.0	/experiments/Knapen_AOT/AOT_stimuli/pictures/1154_fw.png	296.74245715141296	
235	235.64619183540344	picture	0		111	233.0	/experiments/Knapen_AOT/AOT_stimuli/pictures/0739_fw.png	296.752703666687	0.9235742092132568
235	236.56100940704346	response	0	k		233.0	/experiments/Knapen_AOT/AOT_stimuli/pictures/0739_fw.png	297.667521238327	
236	236.5697660446167	picture	0		86	234.0	/experiments/Knapen_AOT/AOT_stimuli/pictures/2011_fw.png	297.67627787590027	0.7244250774383545
236	237.27768278121948	response	0	j		234.0	/experiments/Knapen_AOT/AOT_stimuli/pictures/2011_fw.png	298.38419461250305	
237	237.29419112205505	picture	0		104	235.0	/experiments/Knapen_AOT/AOT_stimuli/pictures/0723_fw.png	298.4007029533386	0.8749897480010986
237	238.15281105041504	response	0	k		235.0	/experiments/Knapen_AOT/AOT_stimuli/pictures/0723_fw.png	299.2593228816986	
238	238.16918087005615	picture	0		106	236.0	/experiments/Knapen_AOT/AOT_stimuli/pictures/0920_fw.png	299.2756927013397	0.8868069648742676
238	239.04440259933472	response	0	j		236.0	/experiments/Knapen_AOT/AOT_stimuli/pictures/0920_fw.png	300.1509144306183	
239	239.05598783493042	picture	0		103	237.0	/experiments/Knapen_AOT/AOT_stimuli/pictures/1890_fw.png	300.162499666214	0.8632237911224365
239	239.89596939086914	response	0	k		237.0	/experiments/Knapen_AOT/AOT_stimuli/pictures/1890_fw.png	301.0024812221527	
240	239.91921162605286	picture	0		83	238.0	/experiments/Knapen_AOT/AOT_stimuli/pictures/0785_fw.png	301.0257234573364	0.6999812126159668
240	240.60271334648132	response	0	j		238.0	/experiments/Knapen_AOT/AOT_stimuli/pictures/0785_fw.png	301.7092251777649	
241	240.61919283866882	picture	0		97	239.0	/experiments/Knapen_AOT/AOT_stimuli/pictures/0581_fw.png	301.7257046699524	0.8117625713348389
241	241.41939687728882	response	0	k		239.0	/experiments/Knapen_AOT/AOT_stimuli/pictures/0581_fw.png	302.5259087085724	
242	241.43095541000366	picture	0		101	240.0	/experiments/Knapen_AOT/AOT_stimuli/pictures/2023_fw.png	302.53746724128723	0.8403785228729248
242	242.26115202903748	response	0	j		240.0	/experiments/Knapen_AOT/AOT_stimuli/pictures/2023_fw.png	303.36766386032104	
243	242.2713339328766	picture	0		133	241.0	/experiments/Knapen_AOT/AOT_stimuli/pictures/0534_fw.png	303.37784576416016	1.1109874248504639
243	243.369469165802	response	0	k		241.0	/experiments/Knapen_AOT/AOT_stimuli/pictures/0534_fw.png	304.47598099708557	
244	243.38232135772705	picture	0		100	242.0	/experiments/Knapen_AOT/AOT_stimuli/pictures/1755_fw.png	304.4888331890106	0.8403122425079346
244	244.211110830307	response	0	k		242.0	/experiments/Knapen_AOT/AOT_stimuli/pictures/1755_fw.png	305.3176226615906	
245	244.22263360023499	picture	0		90	243.0	/experiments/Knapen_AOT/AOT_stimuli/pictures/1280_fw.png	305.32914543151855	0.7549741268157959
245	244.9611279964447	response	0	k		243.0	/experiments/Knapen_AOT/AOT_stimuli/pictures/1280_fw.png	306.06763982772827	
246	244.97760772705078	picture	0		115	244.0	/experiments/Knapen_AOT/AOT_stimuli/pictures/0634_fw.png	306.08411955833435	0.9667015075683594
246	245.92790746688843	response	0	j		244.0	/experiments/Knapen_AOT/AOT_stimuli/pictures/0634_fw.png	307.034419298172	
247	245.94430923461914	picture	0		160	245.0	/experiments/Knapen_AOT/AOT_stimuli/pictures/1611_fw.png	307.0508210659027	1.3416640758514404
247	247.26950979232788	response	0	k		245.0	/experiments/Knapen_AOT/AOT_stimuli/pictures/1611_fw.png	308.37602162361145	
248	247.28597331047058	picture	0		100	246.0	/experiments/Knapen_AOT/AOT_stimuli/pictures/0049_fw.png	308.39248514175415	0.8416702747344971
248	248.10399913787842	response	0	k		246.0	/experiments/Knapen_AOT/AOT_stimuli/pictures/0049_fw.png	309.210510969162	
249	248.12764358520508	picture	0		98	247.0	/experiments/Knapen_AOT/AOT_stimuli/pictures/1818_fw.png	309.23415541648865	0.8172004222869873
249	248.93616318702698	response	0	k		247.0	/experiments/Knapen_AOT/AOT_stimuli/pictures/1818_fw.png	310.04267501831055	
250	248.94484400749207	picture	0		92	248.0	/experiments/Knapen_AOT/AOT_stimuli/pictures/0589_fw.png	310.05135583877563	0.774503231048584
250	249.70284986495972	response	0	j		248.0	/experiments/Knapen_AOT/AOT_stimuli/pictures/0589_fw.png	310.8093616962433	
251	249.71934723854065	picture	0		97	249.0	/experiments/Knapen_AOT/AOT_stimuli/pictures/1942_fw.png	310.8258590698242	0.8088886737823486
251	250.5133502483368	response	0	k		249.0	/experiments/Knapen_AOT/AOT_stimuli/pictures/1942_fw.png	311.61986207962036	
252	250.528235912323	picture	0		127	250.0	/experiments/Knapen_AOT/AOT_stimuli/pictures/1493_fw.png	311.63474774360657	1.0661189556121826
252	251.57783436775208	response	0	k		250.0	/experiments/Knapen_AOT/AOT_stimuli/pictures/1493_fw.png	312.68434619903564	
253	251.59435486793518	picture	0		89	251.0	/experiments/Knapen_AOT/AOT_stimuli/pictures/1741_fw.png	312.70086669921875	0.7500183582305908
253	252.32039141654968	response	0	j		251.0	/experiments/Knapen_AOT/AOT_stimuli/pictures/1741_fw.png	313.42690324783325	
254	252.34437322616577	picture	0		102	252.0	/experiments/Knapen_AOT/AOT_stimuli/pictures/1838_fw.png	313.45088505744934	0.858361005783081
254	253.18624448776245	response	0	j		252.0	/experiments/Knapen_AOT/AOT_stimuli/pictures/1838_fw.png	314.292756319046	
255	253.20273423194885	picture	0		174	253.0	/experiments/Knapen_AOT/AOT_stimuli/pictures/0827_fw.png	314.3092460632324	1.4583182334899902
255	254.64455795288086	response	0	j		253.0	/experiments/Knapen_AOT/AOT_stimuli/pictures/0827_fw.png	315.75106978416443	
256	254.66105246543884	picture	0		96	254.0	/experiments/Knapen_AOT/AOT_stimuli/pictures/0477_fw.png	315.7675642967224	0.8083510398864746
256	255.452871799469	response	0	k		254.0	/experiments/Knapen_AOT/AOT_stimuli/pictures/0477_fw.png	316.55938363075256	
257	255.46940350532532	picture	0		119	255.0	/experiments/Knapen_AOT/AOT_stimuli/pictures/1344_fw.png	316.5759153366089	1.0000088214874268
257	256.4529025554657	response	0	j		255.0	/experiments/Knapen_AOT/AOT_stimuli/pictures/1344_fw.png	317.55941438674927	
258	256.46941232681274	picture	0		86	256.0	/experiments/Knapen_AOT/AOT_stimuli/pictures/0768_fw.png	317.5759241580963	0.7186214923858643
258	257.1779294013977	response	0	k		256.0	/experiments/Knapen_AOT/AOT_stimuli/pictures/0768_fw.png	318.2844412326813	
259	257.1880338191986	picture	0		101	257.0	/experiments/Knapen_AOT/AOT_stimuli/pictures/0649_fw.png	318.2945456504822	0.8480610847473145
259	258.0195860862732	response	0	k		257.0	/experiments/Knapen_AOT/AOT_stimuli/pictures/0649_fw.png	319.12609791755676	
260	258.0360949039459	picture	0		93	258.0	/experiments/Knapen_AOT/AOT_stimuli/pictures/0316_fw.png	319.1426067352295	0.7769207954406738
260	258.80300402641296	response	0	j		258.0	/experiments/Knapen_AOT/AOT_stimuli/pictures/0316_fw.png	319.90951585769653	
261	258.8130156993866	picture	0		99	259.0	/experiments/Knapen_AOT/AOT_stimuli/pictures/0799_fw.png	319.91952753067017	0.8314254283905029
261	259.62797927856445	response	0	j		259.0	/experiments/Knapen_AOT/AOT_stimuli/pictures/0799_fw.png	320.734491109848	
262	259.6444411277771	picture	0		87	260.0	/experiments/Knapen_AOT/AOT_stimuli/pictures/1235_fw.png	320.75095295906067	0.7333309650421143
262	260.3613042831421	response	0	j		260.0	/experiments/Knapen_AOT/AOT_stimuli/pictures/1235_fw.png	321.46781611442566	
263	260.3777720928192	picture	0		123	261.0	/experiments/Knapen_AOT/AOT_stimuli/pictures/0167_fw.png	321.4842839241028	1.0335912704467773
263	261.3947551250458	response	0	j		261.0	/experiments/Knapen_AOT/AOT_stimuli/pictures/0167_fw.png	322.50126695632935	
264	261.411363363266	picture	0		116	262.0	/experiments/Knapen_AOT/AOT_stimuli/pictures/2105_fw.png	322.51787519454956	0.9711005687713623
264	262.3696279525757	response	0	j		262.0	/experiments/Knapen_AOT/AOT_stimuli/pictures/2105_fw.png	323.47613978385925	
265	262.38246393203735	picture	0		86	263.0	/experiments/Knapen_AOT/AOT_stimuli/pictures/0544_fw.png	323.4889757633209	0.7286858558654785
265	263.0946662425995	response	0	k		263.0	/experiments/Knapen_AOT/AOT_stimuli/pictures/0544_fw.png	324.20117807388306	
266	263.11114978790283	picture	0		118	264.0	/experiments/Knapen_AOT/AOT_stimuli/pictures/2133_fw.png	324.2176616191864	0.9916632175445557
266	264.08636832237244	response	0	k		264.0	/experiments/Knapen_AOT/AOT_stimuli/pictures/2133_fw.png	325.192880153656	
267	264.1028130054474	picture	0		99	265.0	/experiments/Knapen_AOT/AOT_stimuli/pictures/0134_fw.png	325.20932483673096	0.8333656787872314
267	264.91982197761536	response	0	j		265.0	/experiments/Knapen_AOT/AOT_stimuli/pictures/0134_fw.png	326.0263338088989	
268	264.9361786842346	picture	0		165	266.0	/experiments/Knapen_AOT/AOT_stimuli/pictures/0637_fw.png	326.0426905155182	1.3833506107330322
268	266.30337285995483	response	0	k		266.0	/experiments/Knapen_AOT/AOT_stimuli/pictures/0637_fw.png	327.4098846912384	
269	266.31952929496765	picture	0		86	267.0	/experiments/Knapen_AOT/AOT_stimuli/pictures/1761_fw.png	327.4260411262512	0.7227182388305664
269	267.028035402298	response	0	k		267.0	/experiments/Knapen_AOT/AOT_stimuli/pictures/1761_fw.png	328.13454723358154	
270	267.0422475337982	picture	0		106	268.0	/experiments/Knapen_AOT/AOT_stimuli/pictures/1185_fw.png	328.1487593650818	0.893993616104126
270	267.91985964775085	response	0	k		268.0	/experiments/Knapen_AOT/AOT_stimuli/pictures/1185_fw.png	329.0263714790344	
271	267.93624114990234	picture	0		82	269.0	/experiments/Knapen_AOT/AOT_stimuli/pictures/1852_fw.png	329.0427529811859	0.6916391849517822
271	268.61142659187317	response	0	j		269.0	/experiments/Knapen_AOT/AOT_stimuli/pictures/1852_fw.png	329.71793842315674	
272	268.6278803348541	picture	0		102	270.0	/experiments/Knapen_AOT/AOT_stimuli/pictures/1885_fw.png	329.7343921661377	0.8583433628082275
272	269.4697117805481	response	0	j		270.0	/experiments/Knapen_AOT/AOT_stimuli/pictures/1885_fw.png	330.57622361183167	
273	269.48622369766235	picture	0		108	271.0	/experiments/Knapen_AOT/AOT_stimuli/pictures/0558_fw.png	330.5927355289459	0.90834641456604
273	270.37830662727356	response	0	j		271.0	/experiments/Knapen_AOT/AOT_stimuli/pictures/0558_fw.png	331.48481845855713	
274	270.3945701122284	picture	0		89	272.0	/experiments/Knapen_AOT/AOT_stimuli/pictures/0852_fw.png	331.50108194351196	0.7500495910644531
274	271.1283402442932	response	0	j		272.0	/experiments/Knapen_AOT/AOT_stimuli/pictures/0852_fw.png	332.2348520755768	
275	271.14461970329285	picture	0		89	273.0	/experiments/Knapen_AOT/AOT_stimuli/pictures/0551_fw.png	332.2511315345764	0.7499651908874512
275	271.87816405296326	response	0	k		273.0	/experiments/Knapen_AOT/AOT_stimuli/pictures/0551_fw.png	332.9846758842468	
276	271.8945848941803	picture	0		103	274.0	/experiments/Knapen_AOT/AOT_stimuli/pictures/0040_fw.png	333.00109672546387	0.8666660785675049
276	272.74474596977234	response	0	k		274.0	/experiments/Knapen_AOT/AOT_stimuli/pictures/0040_fw.png	333.8512578010559	
277	272.7612509727478	picture	0		102	275.0	/experiments/Knapen_AOT/AOT_stimuli/pictures/1251_fw.png	333.8677628040314	0.850430965423584
277	273.60309743881226	response	0	j		275.0	/experiments/Knapen_AOT/AOT_stimuli/pictures/1251_fw.png	334.7096092700958	
278	273.6116819381714	picture	0		110	276.0	/experiments/Knapen_AOT/AOT_stimuli/pictures/0973_fw.png	334.71819376945496	0.9246060848236084
278	274.5129692554474	response	0	j		276.0	/experiments/Knapen_AOT/AOT_stimuli/pictures/0973_fw.png	335.61948108673096	
279	274.536288022995	picture	0		88	277.0	/experiments/Knapen_AOT/AOT_stimuli/pictures/0060_fw.png	335.64279985427856	0.741668701171875
279	275.2617666721344	response	0	k		277.0	/experiments/Knapen_AOT/AOT_stimuli/pictures/0060_fw.png	336.36827850341797	
280	275.27795672416687	picture	0		97	278.0	/experiments/Knapen_AOT/AOT_stimuli/pictures/1123_fw.png	336.38446855545044	0.8166751861572266
280	276.07813119888306	response	0	k		278.0	/experiments/Knapen_AOT/AOT_stimuli/pictures/1123_fw.png	337.1846430301666	
281	276.0946319103241	picture	0		78	279.0	/experiments/Knapen_AOT/AOT_stimuli/pictures/0370_fw.png	337.20114374160767	0.6583297252655029
281	276.73648500442505	response	0	k		279.0	/experiments/Knapen_AOT/AOT_stimuli/pictures/0370_fw.png	337.8429968357086	
282	276.7529616355896	picture	0		106	280.0	/experiments/Knapen_AOT/AOT_stimuli/pictures/2062_fw.png	337.85947346687317	0.8916723728179932
282	277.6283073425293	response	0	k		280.0	/experiments/Knapen_AOT/AOT_stimuli/pictures/2062_fw.png	338.73481917381287	
283	277.6446340084076	picture	0		80	281.0	/experiments/Knapen_AOT/AOT_stimuli/pictures/1003_fw.png	338.75114583969116	0.6754195690155029
283	278.2957594394684	response	0	k		281.0	/experiments/Knapen_AOT/AOT_stimuli/pictures/1003_fw.png	339.40227127075195	
284	278.3200535774231	picture	0		96	282.0	/experiments/Knapen_AOT/AOT_stimuli/pictures/1929_fw.png	339.42656540870667	0.8056056499481201
284	279.1043794155121	response	0	k		282.0	/experiments/Knapen_AOT/AOT_stimuli/pictures/1929_fw.png	340.21089124679565	
285	279.1256592273712	picture	0		93	283.0	/experiments/Knapen_AOT/AOT_stimuli/pictures/1451_fw.png	340.2321710586548	0.7856559753417969
285	279.89477729797363	response	0	j		283.0	/experiments/Knapen_AOT/AOT_stimuli/pictures/1451_fw.png	341.0012891292572	
286	279.911315202713	picture	0		81	284.0	/experiments/Knapen_AOT/AOT_stimuli/pictures/0937_fw.png	341.0178270339966	0.6833658218383789
286	280.5781636238098	response	0	k		284.0	/experiments/Knapen_AOT/AOT_stimuli/pictures/0937_fw.png	341.6846754550934	
287	280.5946810245514	picture	0		104	285.0	/experiments/Knapen_AOT/AOT_stimuli/pictures/0652_fw.png	341.70119285583496	0.8712360858917236
287	281.45317935943604	response	0	j		285.0	/experiments/Knapen_AOT/AOT_stimuli/pictures/0652_fw.png	342.5596911907196	
288	281.4659171104431	picture	0		212	286.0	/experiments/Knapen_AOT/AOT_stimuli/pictures/0595_fw.png	342.5724289417267	1.7638130187988281
288	283.21988892555237	response	0	k		286.0	/experiments/Knapen_AOT/AOT_stimuli/pictures/0595_fw.png	344.32640075683594	
289	283.22973012924194	picture	0		95	287.0	/experiments/Knapen_AOT/AOT_stimuli/pictures/1709_fw.png	344.3362419605255	0.7983198165893555
289	284.01153445243835	response	0	k		287.0	/experiments/Knapen_AOT/AOT_stimuli/pictures/1709_fw.png	345.1180462837219	
290	284.0280499458313	picture	0		86	288.0	/experiments/Knapen_AOT/AOT_stimuli/pictures/0500_fw.png	345.13456177711487	0.7250316143035889
290	284.736585855484	response	0	j		288.0	/experiments/Knapen_AOT/AOT_stimuli/pictures/0500_fw.png	345.8430976867676	
291	284.7530815601349	picture	0		146	289.0	/experiments/Knapen_AOT/AOT_stimuli/pictures/1478_fw.png	345.85959339141846	1.2250545024871826
291	285.96162581443787	response	0	k		289.0	/experiments/Knapen_AOT/AOT_stimuli/pictures/1478_fw.png	347.06813764572144	
292	285.97813606262207	picture	0		135	290.0	/experiments/Knapen_AOT/AOT_stimuli/pictures/0520_fw.png	347.08464789390564	1.1267225742340088
292	287.0950081348419	response	0	j		290.0	/experiments/Knapen_AOT/AOT_stimuli/pictures/0520_fw.png	348.2015199661255	
293	287.1048586368561	picture	0		100	291.0	/experiments/Knapen_AOT/AOT_stimuli/pictures/0485_fw.png	348.21137046813965	0.8399038314819336
293	287.92829966545105	response	0	j		291.0	/experiments/Knapen_AOT/AOT_stimuli/pictures/0485_fw.png	349.0348114967346	
294	287.944762468338	picture	0		109	292.0	/experiments/Knapen_AOT/AOT_stimuli/pictures/1381_fw.png	349.0512742996216	0.9167068004608154
294	288.84500455856323	response	0	k		292.0	/experiments/Knapen_AOT/AOT_stimuli/pictures/1381_fw.png	349.9515163898468	
295	288.8614692687988	picture	0		142	293.0	/experiments/Knapen_AOT/AOT_stimuli/pictures/1075_fw.png	349.9679811000824	1.1916794776916504
295	290.03659987449646	response	0	k		293.0	/experiments/Knapen_AOT/AOT_stimuli/pictures/1075_fw.png	351.14311170578003	
296	290.0531487464905	picture	0		83	294.0	/experiments/Knapen_AOT/AOT_stimuli/pictures/1305_fw.png	351.15966057777405	0.699974536895752
296	290.73664259910583	response	0	k		294.0	/experiments/Knapen_AOT/AOT_stimuli/pictures/1305_fw.png	351.8431544303894	
297	290.75312328338623	picture	0		117	295.0	/experiments/Knapen_AOT/AOT_stimuli/pictures/1117_fw.png	351.8596351146698	0.9833548069000244
297	291.72001814842224	response	0	k		295.0	/experiments/Knapen_AOT/AOT_stimuli/pictures/1117_fw.png	352.8265299797058	
298	291.73647809028625	picture	0		92	296.0	/experiments/Knapen_AOT/AOT_stimuli/pictures/0981_fw.png	352.8429899215698	0.7750067710876465
298	292.49514627456665	response	0	k		296.0	/experiments/Knapen_AOT/AOT_stimuli/pictures/0981_fw.png	353.6016581058502	
299	292.5114848613739	picture	0		137	297.0	/experiments/Knapen_AOT/AOT_stimuli/pictures/0343_fw.png	353.61799669265747	1.1500377655029297
299	293.64504766464233	response	0	j		297.0	/experiments/Knapen_AOT/AOT_stimuli/pictures/0343_fw.png	354.7515594959259	
300	293.66152262687683	picture	0		85	298.0	/experiments/Knapen_AOT/AOT_stimuli/pictures/1373_fw.png	354.7680344581604	0.7166483402252197
300	294.36194348335266	response	0	k		298.0	/experiments/Knapen_AOT/AOT_stimuli/pictures/1373_fw.png	355.46845531463623	
301	294.37817096710205	picture	0		89	299.0	/experiments/Knapen_AOT/AOT_stimuli/pictures/0882_fw.png	355.4846827983856	0.7500522136688232
301	295.10412549972534	response	0	k		299.0	/experiments/Knapen_AOT/AOT_stimuli/pictures/0882_fw.png	356.2106373310089	
302	295.1282231807709	picture	0		199	300.0	/experiments/Knapen_AOT/AOT_stimuli/pictures/0647_fw.png	356.23473501205444	1.6641440391540527
302	296.77838587760925	response	0	k		300.0	/experiments/Knapen_AOT/AOT_stimuli/pictures/0647_fw.png	357.8848977088928	
303	296.7923672199249	picture	0		137	301.0	/experiments/Knapen_AOT/AOT_stimuli/pictures/0660_fw.png	357.8988790512085	1.1525154113769531
303	297.9283938407898	response	0	k		301.0	/experiments/Knapen_AOT/AOT_stimuli/pictures/0660_fw.png	359.03490567207336	
304	297.9448826313019	picture	0		132	302.0	/experiments/Knapen_AOT/AOT_stimuli/pictures/1529_fw.png	359.05139446258545	1.1044983863830566
304	299.03675150871277	response	0	j		302.0	/experiments/Knapen_AOT/AOT_stimuli/pictures/1529_fw.png	360.14326333999634	
305	299.04938101768494	picture	0		107	303.0	/experiments/Knapen_AOT/AOT_stimuli/pictures/0005_fw.png	360.1558928489685	0.8958437442779541
305	299.9293866157532	response	0	k		303.0	/experiments/Knapen_AOT/AOT_stimuli/pictures/0005_fw.png	361.03589844703674	
306	299.9452247619629	picture	0		126	304.0	/experiments/Knapen_AOT/AOT_stimuli/pictures/0529_fw.png	361.05173659324646	1.0580191612243652
306	300.98669624328613	response	0	j		304.0	/experiments/Knapen_AOT/AOT_stimuli/pictures/0529_fw.png	362.0932080745697	
307	301.00324392318726	picture	0		188	305.0	/experiments/Knapen_AOT/AOT_stimuli/pictures/2166_fw.png	362.1097557544708	1.5750315189361572
307	302.5617332458496	response	0	k		305.0	/experiments/Knapen_AOT/AOT_stimuli/pictures/2166_fw.png	363.6682450771332	
308	302.5782754421234	picture	0		82	306.0	/experiments/Knapen_AOT/AOT_stimuli/pictures/1290_fw.png	363.684787273407	0.6916587352752686
308	303.25338315963745	response	0	j		306.0	/experiments/Knapen_AOT/AOT_stimuli/pictures/1290_fw.png	364.359894990921	
309	303.2699341773987	picture	0		112	307.0	/experiments/Knapen_AOT/AOT_stimuli/pictures/0385_fw.png	364.37644600868225	0.9416866302490234
309	304.1950981616974	response	0	j		307.0	/experiments/Knapen_AOT/AOT_stimuli/pictures/0385_fw.png	365.30160999298096	
310	304.2116208076477	picture	0		147	308.0	/experiments/Knapen_AOT/AOT_stimuli/pictures/1413_fw.png	365.3181326389313	1.2333338260650635
310	305.42919969558716	response	0	j		308.0	/experiments/Knapen_AOT/AOT_stimuli/pictures/1413_fw.png	366.5357115268707	
311	305.44495463371277	picture	0		76	309.0	/experiments/Knapen_AOT/AOT_stimuli/pictures/1010_fw.png	366.55146646499634	0.641761064529419
311	306.07011246681213	response	0	k		309.0	/experiments/Knapen_AOT/AOT_stimuli/pictures/1010_fw.png	367.1766242980957	
312	306.0867156982422	picture	0		97	310.0	/experiments/Knapen_AOT/AOT_stimuli/pictures/1279_fw.png	367.19322752952576	0.8165955543518066
312	306.88688611984253	response	0	k		310.0	/experiments/Knapen_AOT/AOT_stimuli/pictures/1279_fw.png	367.9933979511261	
313	306.903311252594	picture	0		93	311.0	/experiments/Knapen_AOT/AOT_stimuli/pictures/0393_fw.png	368.00982308387756	0.7833473682403564
313	307.6703591346741	response	0	k		311.0	/experiments/Knapen_AOT/AOT_stimuli/pictures/0393_fw.png	368.77687096595764	
314	307.68665862083435	picture	0		98	312.0	/experiments/Knapen_AOT/AOT_stimuli/pictures/0709_fw.png	368.7931704521179	0.8210971355438232
314	308.4879460334778	response	0	k		312.0	/experiments/Knapen_AOT/AOT_stimuli/pictures/0709_fw.png	369.59445786476135	
315	308.5077557563782	picture	0		175	313.0	/experiments/Knapen_AOT/AOT_stimuli/pictures/0001_fw.png	369.61426758766174	1.4622721672058105
315	309.95348715782166	response	0	k		313.0	/experiments/Knapen_AOT/AOT_stimuli/pictures/0001_fw.png	371.0599989891052	
316	309.970027923584	picture	0		100	314.0	/experiments/Knapen_AOT/AOT_stimuli/pictures/1767_fw.png	371.07653975486755	0.8416721820831299
316	310.7951695919037	response	0	k		314.0	/experiments/Knapen_AOT/AOT_stimuli/pictures/1767_fw.png	371.90168142318726	
317	310.8117001056671	picture	0		109	315.0	/experiments/Knapen_AOT/AOT_stimuli/pictures/1188_fw.png	371.9182119369507	0.9166805744171143
317	311.71186804771423	response	0	j		315.0	/experiments/Knapen_AOT/AOT_stimuli/pictures/1188_fw.png	372.8183798789978	
318	311.72838068008423	picture	0		130	316.0	/experiments/Knapen_AOT/AOT_stimuli/pictures/0653_fw.png	372.8348925113678	1.0926518440246582
318	312.8037724494934	response	0	j		316.0	/experiments/Knapen_AOT/AOT_stimuli/pictures/0653_fw.png	373.910284280777	
319	312.8210325241089	picture	0		106	317.0	/experiments/Knapen_AOT/AOT_stimuli/pictures/1782_fw.png	373.92754435539246	0.8907144069671631
319	313.68794536590576	response	0	k		317.0	/experiments/Knapen_AOT/AOT_stimuli/pictures/1782_fw.png	374.79445719718933	
320	313.71174693107605	picture	0		94	318.0	/experiments/Knapen_AOT/AOT_stimuli/pictures/1516_fw.png	374.8182587623596	0.7916820049285889
320	314.4868371486664	response	0	k		318.0	/experiments/Knapen_AOT/AOT_stimuli/pictures/1516_fw.png	375.59334897994995	
321	314.50342893600464	picture	0		108	319.0	/experiments/Knapen_AOT/AOT_stimuli/pictures/1301_fw.png	375.6099407672882	0.9083118438720703
321	315.3951847553253	response	0	k		319.0	/experiments/Knapen_AOT/AOT_stimuli/pictures/1301_fw.png	376.5016965866089	
322	315.4117407798767	picture	0		83	320.0	/experiments/Knapen_AOT/AOT_stimuli/pictures/0690_fw.png	376.5182526111603	0.7000296115875244
322	316.0953781604767	response	0	k		320.0	/experiments/Knapen_AOT/AOT_stimuli/pictures/0690_fw.png	377.20188999176025	
323	316.11177039146423	picture	0		109	321.0	/experiments/Knapen_AOT/AOT_stimuli/pictures/2111_fw.png	377.2182822227478	0.9166629314422607
323	317.01193165779114	response	0	k		321.0	/experiments/Knapen_AOT/AOT_stimuli/pictures/2111_fw.png	378.1184434890747	
324	317.0284333229065	picture	0		92	322.0	/experiments/Knapen_AOT/AOT_stimuli/pictures/0347_fw.png	378.13494515419006	0.7750012874603271
324	317.7869119644165	response	0	k		322.0	/experiments/Knapen_AOT/AOT_stimuli/pictures/0347_fw.png	378.8934237957001	
325	317.8034346103668	picture	0		142	323.0	/experiments/Knapen_AOT/AOT_stimuli/pictures/1109_fw.png	378.9099464416504	1.1835343837738037
325	318.97862792015076	response	0	k		323.0	/experiments/Knapen_AOT/AOT_stimuli/pictures/1109_fw.png	380.0851397514343	
326	318.9869689941406	picture	0		137	324.0	/experiments/Knapen_AOT/AOT_stimuli/pictures/1088_fw.png	380.0934808254242	1.1500089168548584
326	320.1203489303589	response	0	j		324.0	/experiments/Knapen_AOT/AOT_stimuli/pictures/1088_fw.png	381.22686076164246	
327	320.1369779109955	picture	0		84	325.0	/experiments/Knapen_AOT/AOT_stimuli/pictures/0793_fw.png	381.24348974227905	0.7081968784332275
327	320.82856726646423	response	0	k		325.0	/experiments/Knapen_AOT/AOT_stimuli/pictures/0793_fw.png	381.9350790977478	
328	320.8451747894287	picture	0		115	326.0	/experiments/Knapen_AOT/AOT_stimuli/pictures/0220_fw.png	381.9516866207123	0.9666550159454346
328	321.79526567459106	response	0	j		326.0	/experiments/Knapen_AOT/AOT_stimuli/pictures/0220_fw.png	382.90177750587463	
329	321.81182980537415	picture	0		249	327.0	/experiments/Knapen_AOT/AOT_stimuli/pictures/1045_fw.png	382.9183416366577	2.0833725929260254
329	323.87864351272583	response	0	k		327.0	/experiments/Knapen_AOT/AOT_stimuli/pictures/1045_fw.png	384.9851553440094	
330	323.89520239830017	picture	0		103	328.0	/experiments/Knapen_AOT/AOT_stimuli/pictures/1894_fw.png	385.00171422958374	0.8666632175445557
330	324.74532079696655	response	0	j		328.0	/experiments/Knapen_AOT/AOT_stimuli/pictures/1894_fw.png	385.8518326282501	
331	324.7618656158447	picture	0		164	329.0	/experiments/Knapen_AOT/AOT_stimuli/pictures/0045_fw.png	385.8683774471283	1.3750042915344238
331	326.12033581733704	response	0	k		329.0	/experiments/Knapen_AOT/AOT_stimuli/pictures/0045_fw.png	387.2268476486206	
332	326.13686990737915	picture	0		81	330.0	/experiments/Knapen_AOT/AOT_stimuli/pictures/1824_fw.png	387.2433817386627	0.6834897994995117
332	326.80366373062134	response	0	k		330.0	/experiments/Knapen_AOT/AOT_stimuli/pictures/1824_fw.png	387.9101755619049	
333	326.82035970687866	picture	0		98	331.0	/experiments/Knapen_AOT/AOT_stimuli/pictures/0663_fw.png	387.92687153816223	0.8255941867828369
333	327.6286618709564	response	0	k		331.0	/experiments/Knapen_AOT/AOT_stimuli/pictures/0663_fw.png	388.73517370224	
334	327.6459538936615	picture	0		154	332.0	/experiments/Knapen_AOT/AOT_stimuli/pictures/1747_fw.png	388.75246572494507	1.2855329513549805
334	328.92035150527954	response	0	j		332.0	/experiments/Knapen_AOT/AOT_stimuli/pictures/1747_fw.png	390.0268633365631	
335	328.9314868450165	picture	0		151	333.0	/experiments/Knapen_AOT/AOT_stimuli/pictures/1004_fw.png	390.03799867630005	1.2637693881988525
335	330.1787359714508	response	0	k		333.0	/experiments/Knapen_AOT/AOT_stimuli/pictures/1004_fw.png	391.2852478027344	
336	330.19525623321533	picture	0		86	334.0	/experiments/Knapen_AOT/AOT_stimuli/pictures/0499_fw.png	391.3017680644989	0.7250027656555176
336	330.9038827419281	response	0	k		334.0	/experiments/Knapen_AOT/AOT_stimuli/pictures/0499_fw.png	392.01039457321167	
337	330.92025899887085	picture	0		96	335.0	/experiments/Knapen_AOT/AOT_stimuli/pictures/0369_fw.png	392.0267708301544	0.808361291885376
337	331.7047815322876	response	0	k		335.0	/experiments/Knapen_AOT/AOT_stimuli/pictures/0369_fw.png	392.81129336357117	
338	331.7286202907562	picture	0		102	336.0	/experiments/Knapen_AOT/AOT_stimuli/pictures/1252_fw.png	392.8351321220398	0.858381986618042
338	332.57043194770813	response	0	k		336.0	/experiments/Knapen_AOT/AOT_stimuli/pictures/1252_fw.png	393.6769437789917	
339	332.58700227737427	picture	0		103	337.0	/experiments/Knapen_AOT/AOT_stimuli/pictures/1361_fw.png	393.69351410865784	0.8584318161010742
339	333.43708777427673	response	0	j		337.0	/experiments/Knapen_AOT/AOT_stimuli/pictures/1361_fw.png	394.5435996055603	
340	333.44543409347534	picture	0		111	338.0	/experiments/Knapen_AOT/AOT_stimuli/pictures/1471_fw.png	394.5519459247589	0.9331967830657959
340	334.3621258735657	response	0	j		338.0	/experiments/Knapen_AOT/AOT_stimuli/pictures/1471_fw.png	395.46863770484924	
341	334.37863087654114	picture	0		86	339.0	/experiments/Knapen_AOT/AOT_stimuli/pictures/0701_fw.png	395.4851427078247	0.7250082492828369
341	335.0871493816376	response	0	j		339.0	/experiments/Knapen_AOT/AOT_stimuli/pictures/0701_fw.png	396.19366121292114	
342	335.103639125824	picture	0		111	340.0	/experiments/Knapen_AOT/AOT_stimuli/pictures/1163_fw.png	396.21015095710754	0.9333350658416748
342	336.0204360485077	response	0	k		340.0	/experiments/Knapen_AOT/AOT_stimuli/pictures/1163_fw.png	397.12694787979126	
343	336.03697419166565	picture	0		111	341.0	/experiments/Knapen_AOT/AOT_stimuli/pictures/1829_fw.png	397.1434860229492	0.9333655834197998
343	336.95377683639526	response	0	j		341.0	/experiments/Knapen_AOT/AOT_stimuli/pictures/1829_fw.png	398.06028866767883	
344	336.97033977508545	picture	0		134	342.0	/experiments/Knapen_AOT/AOT_stimuli/pictures/2079_fw.png	398.076851606369	1.1250004768371582
344	338.07881236076355	response	0	k		342.0	/experiments/Knapen_AOT/AOT_stimuli/pictures/2079_fw.png	399.1853241920471	
345	338.0953402519226	picture	0		101	343.0	/experiments/Knapen_AOT/AOT_stimuli/pictures/0414_fw.png	399.2018520832062	0.8500247001647949
345	338.9288833141327	response	0	k		343.0	/experiments/Knapen_AOT/AOT_stimuli/pictures/0414_fw.png	400.03539514541626	
346	338.9453649520874	picture	0		149	344.0	/experiments/Knapen_AOT/AOT_stimuli/pictures/0493_fw.png	400.051876783371	1.250011682510376
346	340.17883229255676	response	0	k		344.0	/experiments/Knapen_AOT/AOT_stimuli/pictures/0493_fw.png	401.28534412384033	
347	340.1953766345978	picture	0		100	345.0	/experiments/Knapen_AOT/AOT_stimuli/pictures/2064_fw.png	401.30188846588135	0.8416991233825684
347	341.02058839797974	response	0	j		345.0	/experiments/Knapen_AOT/AOT_stimuli/pictures/2064_fw.png	402.1271002292633	
348	341.03707575798035	picture	0		102	346.0	/experiments/Knapen_AOT/AOT_stimuli/pictures/0171_fw.png	402.1435875892639	0.8582942485809326
348	341.87883138656616	response	0	k		346.0	/experiments/Knapen_AOT/AOT_stimuli/pictures/0171_fw.png	402.98534321784973	
349	341.8953700065613	picture	0		93	347.0	/experiments/Knapen_AOT/AOT_stimuli/pictures/1637_fw.png	403.00188183784485	0.7833430767059326
349	342.66218066215515	response	0	j		347.0	/experiments/Knapen_AOT/AOT_stimuli/pictures/1637_fw.png	403.7686924934387	
350	342.6787130832672	picture	0		98	348.0	/experiments/Knapen_AOT/AOT_stimuli/pictures/0795_fw.png	403.7852249145508	0.8250141143798828
350	343.4800479412079	response	0	k		348.0	/experiments/Knapen_AOT/AOT_stimuli/pictures/0795_fw.png	404.58655977249146	
351	343.5037271976471	picture	0		96	349.0	/experiments/Knapen_AOT/AOT_stimuli/pictures/1232_fw.png	404.61023902893066	0.8084132671356201
351	344.28807735443115	response	0	j		349.0	/experiments/Knapen_AOT/AOT_stimuli/pictures/1232_fw.png	405.3945891857147	
352	344.3121404647827	picture	0		151	350.0	/experiments/Knapen_AOT/AOT_stimuli/pictures/0881_fw.png	405.4186522960663	1.2666294574737549
352	345.5622625350952	response	0	j		350.0	/experiments/Knapen_AOT/AOT_stimuli/pictures/0881_fw.png	406.6687743663788	
353	345.57876992225647	picture	0		125	351.0	/experiments/Knapen_AOT/AOT_stimuli/pictures/1628_fw.png	406.68528175354004	1.0499913692474365
353	346.61245608329773	response	0	k		351.0	/experiments/Knapen_AOT/AOT_stimuli/pictures/1628_fw.png	407.7189679145813	
354	346.6287612915039	picture	0		99	352.0	/experiments/Knapen_AOT/AOT_stimuli/pictures/1159_fw.png	407.7352731227875	0.8333923816680908
354	347.4456961154938	response	0	k		352.0	/experiments/Knapen_AOT/AOT_stimuli/pictures/1159_fw.png	408.55220794677734	
355	347.462153673172	picture	0		81	353.0	/experiments/Knapen_AOT/AOT_stimuli/pictures/0458_fw.png	408.56866550445557	0.6833117008209229
355	348.1289494037628	response	0	k		353.0	/experiments/Knapen_AOT/AOT_stimuli/pictures/0458_fw.png	409.2354612350464	
356	348.1454653739929	picture	0		92	354.0	/experiments/Knapen_AOT/AOT_stimuli/pictures/0550_fw.png	409.2519772052765	0.7722647190093994
356	348.89637064933777	response	0	k		354.0	/experiments/Knapen_AOT/AOT_stimuli/pictures/0550_fw.png	410.00288248062134	
357	348.9177300930023	picture	0		105	355.0	/experiments/Knapen_AOT/AOT_stimuli/pictures/1866_fw.png	410.0242419242859	0.8860828876495361
357	349.7873330116272	response	0	k		355.0	/experiments/Knapen_AOT/AOT_stimuli/pictures/1866_fw.png	410.89384484291077	
358	349.80381298065186	picture	0		101	356.0	/experiments/Knapen_AOT/AOT_stimuli/pictures/1798_fw.png	410.9103248119354	0.8501400947570801
358	350.63743925094604	response	0	k		356.0	/experiments/Knapen_AOT/AOT_stimuli/pictures/1798_fw.png	411.7439510822296	
359	350.65395307540894	picture	0		75	357.0	/experiments/Knapen_AOT/AOT_stimuli/pictures/0794_fw.png	411.7604649066925	0.6250107288360596
359	351.2706561088562	response	0	k		357.0	/experiments/Knapen_AOT/AOT_stimuli/pictures/0794_fw.png	412.37716794013977	
360	351.278963804245	picture	0		134	358.0	/experiments/Knapen_AOT/AOT_stimuli/pictures/1799_fw.png	412.38547563552856	1.1250712871551514
360	352.3873121738434	response	0	j		358.0	/experiments/Knapen_AOT/AOT_stimuli/pictures/1799_fw.png	413.49382400512695	
361	352.40403509140015	picture	0		104	359.0	/experiments/Knapen_AOT/AOT_stimuli/pictures/1601_fw.png	413.5105469226837	0.8749165534973145
361	353.2623336315155	response	0	j		359.0	/experiments/Knapen_AOT/AOT_stimuli/pictures/1601_fw.png	414.3688454627991	
362	353.27895164489746	stim	0		411			414.38546347618103	3.444918632507324
362	356.70398473739624	response	0	space				417.8104965686798	
