trial_nr	onset	event_type	phase	response	nr_frames	picture_index	picture_file	onset_abs	duration
0	0.19455289840698242	stim	0		416			127.16881489753723	3.479151964187622
0	3.6499428749084473	response	0	space				130.6242048740387	
2	3.6737048625946045	picture	0		112	0.0	/experiments/knapen_AOT/AOT_stimuli/pictures/1081_fw.png	130.64796686172485	0.9779031276702881
2	4.631869792938232	response	0	k		0.0	/experiments/knapen_AOT/AOT_stimuli/pictures/1081_fw.png	131.60613179206848	
3	4.651607990264893	picture	0		133	1.0	/experiments/knapen_AOT/AOT_stimuli/pictures/0717_fw.png	131.62586998939514	1.1137118339538574
3	5.750520944595337	response	0	j		1.0	/experiments/knapen_AOT/AOT_stimuli/pictures/0717_fw.png	132.7247829437256	
4	5.76531982421875	picture	0		114	2.0	/experiments/knapen_AOT/AOT_stimuli/pictures/1548_fw.png	132.739581823349	0.9501640796661377
4	6.70703387260437	response	0	j		2.0	/experiments/knapen_AOT/AOT_stimuli/pictures/1548_fw.png	133.68129587173462	
5	6.715483903884888	picture	0		96	3.0	/experiments/knapen_AOT/AOT_stimuli/pictures/2004_fw.png	133.68974590301514	0.8053848743438721
5	7.507171869277954	response	0	k		3.0	/experiments/knapen_AOT/AOT_stimuli/pictures/2004_fw.png	134.4814338684082	
6	7.52086877822876	picture	0		105	4.0	/experiments/knapen_AOT/AOT_stimuli/pictures/1664_fw.png	134.495130777359	0.8819870948791504
6	8.390367984771729	response	0	k		4.0	/experiments/knapen_AOT/AOT_stimuli/pictures/1664_fw.png	135.36462998390198	
7	8.40285587310791	picture	0		105	5.0	/experiments/knapen_AOT/AOT_stimuli/pictures/1361_fw.png	135.37711787223816	0.8749699592590332
7	9.265486001968384	response	0	k		5.0	/experiments/knapen_AOT/AOT_stimuli/pictures/1361_fw.png	136.23974800109863	
8	9.277825832366943	picture	0		99	6.0	/experiments/knapen_AOT/AOT_stimuli/pictures/0706_fw.png	136.2520878314972	0.826308012008667
8	10.090619802474976	response	0	j		6.0	/experiments/knapen_AOT/AOT_stimuli/pictures/0706_fw.png	137.06488180160522	
9	10.10413384437561	picture	0		97	7.0	/experiments/knapen_AOT/AOT_stimuli/pictures/0345_fw.png	137.07839584350586	0.8126320838928223
9	10.90704894065857	response	0	j		7.0	/experiments/knapen_AOT/AOT_stimuli/pictures/0345_fw.png	137.88131093978882	
10	10.916765928268433	picture	0		118	8.0	/experiments/knapen_AOT/AOT_stimuli/pictures/0140_fw.png	137.89102792739868	0.9861299991607666
10	11.890542984008789	response	0	j		8.0	/experiments/knapen_AOT/AOT_stimuli/pictures/0140_fw.png	138.86480498313904	
11	11.9028959274292	picture	0		104	9.0	/experiments/knapen_AOT/AOT_stimuli/pictures/0608_fw.png	138.87715792655945	0.8680858612060547
11	12.750370979309082	response	0	k		9.0	/experiments/knapen_AOT/AOT_stimuli/pictures/0608_fw.png	139.72463297843933	
12	12.770981788635254	picture	0		99	10.0	/experiments/knapen_AOT/AOT_stimuli/pictures/1166_fw.png	139.7452437877655	0.83333420753479
12	13.590603828430176	response	0	j		10.0	/experiments/knapen_AOT/AOT_stimuli/pictures/1166_fw.png	140.56486582756042	
13	13.604315996170044	picture	0		115	11.0	/experiments/knapen_AOT/AOT_stimuli/pictures/1756_fw.png	140.5785779953003	0.9653258323669434
13	14.55727481842041	response	0	k		11.0	/experiments/knapen_AOT/AOT_stimuli/pictures/1756_fw.png	141.53153681755066	
14	14.569641828536987	picture	0		100	12.0	/experiments/knapen_AOT/AOT_stimuli/pictures/0146_fw.png	141.54390382766724	0.8332700729370117
14	15.390558958053589	response	0	k		12.0	/experiments/knapen_AOT/AOT_stimuli/pictures/0146_fw.png	142.36482095718384	
15	15.402911901473999	picture	0		103	13.0	/experiments/knapen_AOT/AOT_stimuli/pictures/0169_fw.png	142.37717390060425	0.8541650772094727
15	16.248905897140503	response	0	j		13.0	/experiments/knapen_AOT/AOT_stimuli/pictures/0169_fw.png	143.22316789627075	
16	16.25707697868347	picture	0		99	14.0	/experiments/knapen_AOT/AOT_stimuli/pictures/0145_fw.png	143.23133897781372	0.8263578414916992
16	17.073866844177246	response	0	j		14.0	/experiments/knapen_AOT/AOT_stimuli/pictures/0145_fw.png	144.0481288433075	
17	17.08343482017517	picture	0		105	15.0	/experiments/knapen_AOT/AOT_stimuli/pictures/0216_fw.png	144.05769681930542	0.8750841617584229
17	17.942221879959106	response	0	k		15.0	/experiments/knapen_AOT/AOT_stimuli/pictures/0216_fw.png	144.91648387908936	
18	17.958518981933594	picture	0		133	16.0	/experiments/knapen_AOT/AOT_stimuli/pictures/0247_fw.png	144.93278098106384	1.1110849380493164
18	19.05720090866089	response	0	k		16.0	/experiments/knapen_AOT/AOT_stimuli/pictures/0247_fw.png	146.03146290779114	
19	19.06960391998291	picture	0		94	17.0	/experiments/knapen_AOT/AOT_stimuli/pictures/0594_fw.png	146.04386591911316	0.7791280746459961
19	19.84061598777771	response	0	j		17.0	/experiments/knapen_AOT/AOT_stimuli/pictures/0594_fw.png	146.81487798690796	
20	19.848731994628906	picture	0		97	18.0	/experiments/knapen_AOT/AOT_stimuli/pictures/0994_fw.png	146.82299399375916	0.8111639022827148
20	20.648871898651123	response	0	j		18.0	/experiments/knapen_AOT/AOT_stimuli/pictures/0994_fw.png	147.62313389778137	
21	20.65989589691162	picture	0		148	19.0	/experiments/knapen_AOT/AOT_stimuli/pictures/1947_fw.png	147.63415789604187	1.2361199855804443
21	21.882298946380615	response	0	k		19.0	/experiments/knapen_AOT/AOT_stimuli/pictures/1947_fw.png	148.85656094551086	
22	21.896015882492065	picture	0		108	20.0	/experiments/knapen_AOT/AOT_stimuli/pictures/0411_fw.png	148.87027788162231	0.9028971195220947
22	22.790642976760864	response	0	k		20.0	/experiments/knapen_AOT/AOT_stimuli/pictures/0411_fw.png	149.7649049758911	
23	22.79891300201416	picture	0		102	21.0	/experiments/knapen_AOT/AOT_stimuli/pictures/0894_fw.png	149.7731750011444	0.8540668487548828
23	23.640719890594482	response	0	j		21.0	/experiments/knapen_AOT/AOT_stimuli/pictures/0894_fw.png	150.61498188972473	
24	23.652979850769043	picture	0		99	22.0	/experiments/knapen_AOT/AOT_stimuli/pictures/0483_fw.png	150.6272418498993	0.8263900279998779
24	24.465654850006104	response	0	j		22.0	/experiments/knapen_AOT/AOT_stimuli/pictures/0483_fw.png	151.43991684913635	
25	24.47936987876892	picture	0		92	23.0	/experiments/knapen_AOT/AOT_stimuli/pictures/2161_fw.png	151.45363187789917	0.7707650661468506
25	25.24059796333313	response	0	j		23.0	/experiments/knapen_AOT/AOT_stimuli/pictures/2161_fw.png	152.21485996246338	
26	25.25013494491577	picture	0		132	24.0	/experiments/knapen_AOT/AOT_stimuli/pictures/1562_fw.png	152.22439694404602	1.0987169742584229
26	26.333838939666748	response	0	k		24.0	/experiments/knapen_AOT/AOT_stimuli/pictures/1562_fw.png	153.308100938797	
27	26.348851919174194	picture	0		91	25.0	/experiments/knapen_AOT/AOT_stimuli/pictures/0221_fw.png	153.32311391830444	0.762444019317627
27	27.099034786224365	response	0	j		25.0	/experiments/knapen_AOT/AOT_stimuli/pictures/0221_fw.png	154.07329678535461	
28	27.11129593849182	picture	0		149	26.0	/experiments/knapen_AOT/AOT_stimuli/pictures/2164_fw.png	154.08555793762207	1.2376048564910889
28	28.333812952041626	response	0	k		26.0	/experiments/knapen_AOT/AOT_stimuli/pictures/2164_fw.png	155.30807495117188	
29	28.34890079498291	picture	0		98	27.0	/experiments/knapen_AOT/AOT_stimuli/pictures/1517_fw.png	155.32316279411316	0.8179540634155273
29	29.157445907592773	response	0	j		27.0	/experiments/knapen_AOT/AOT_stimuli/pictures/1517_fw.png	156.13170790672302	
30	29.166854858398438	picture	0		90	28.0	/experiments/knapen_AOT/AOT_stimuli/pictures/1857_fw.png	156.1411168575287	0.750075101852417
30	29.907323837280273	response	0	j		28.0	/experiments/knapen_AOT/AOT_stimuli/pictures/1857_fw.png	156.88158583641052	
31	29.916929960250854	picture	0		115	29.0	/experiments/knapen_AOT/AOT_stimuli/pictures/1066_fw.png	156.8911919593811	0.9582538604736328
31	30.865633010864258	response	0	k		29.0	/experiments/knapen_AOT/AOT_stimuli/pictures/1066_fw.png	157.8398950099945	
32	30.875183820724487	picture	0		157	30.0	/experiments/knapen_AOT/AOT_stimuli/pictures/1556_fw.png	157.84944581985474	1.3124799728393555
32	32.174129009246826	response	0	k		30.0	/experiments/knapen_AOT/AOT_stimuli/pictures/1556_fw.png	159.14839100837708	
33	32.18766379356384	picture	0		99	31.0	/experiments/knapen_AOT/AOT_stimuli/pictures/1685_fw.png	159.1619257926941	0.8333652019500732
33	33.0073459148407	response	0	j		31.0	/experiments/knapen_AOT/AOT_stimuli/pictures/1685_fw.png	159.98160791397095	
34	33.021028995513916	picture	0		128	32.0	/experiments/knapen_AOT/AOT_stimuli/pictures/2100_fw.png	159.99529099464417	1.069532871246338
34	34.08235192298889	response	0	k		32.0	/experiments/knapen_AOT/AOT_stimuli/pictures/2100_fw.png	161.05661392211914	
35	34.090561866760254	picture	0		110	33.0	/experiments/knapen_AOT/AOT_stimuli/pictures/2083_fw.png	161.0648238658905	0.9166591167449951
35	34.99903583526611	response	0	k		33.0	/experiments/knapen_AOT/AOT_stimuli/pictures/2083_fw.png	161.97329783439636	
36	35.00722098350525	picture	0		101	34.0	/experiments/knapen_AOT/AOT_stimuli/pictures/0857_fw.png	161.9814829826355	0.8472499847412109
36	35.84077787399292	response	0	k		34.0	/experiments/knapen_AOT/AOT_stimuli/pictures/0857_fw.png	162.81503987312317	
37	35.85447096824646	picture	0		110	35.0	/experiments/knapen_AOT/AOT_stimuli/pictures/0037_fw.png	162.8287329673767	0.9235398769378662
37	36.7590057849884	response	0	k		35.0	/experiments/knapen_AOT/AOT_stimuli/pictures/0037_fw.png	163.73326778411865	
38	36.778010845184326	picture	0		120	36.0	/experiments/knapen_AOT/AOT_stimuli/pictures/0265_fw.png	163.75227284431458	1.0000059604644775
38	37.76573300361633	response	0	k		36.0	/experiments/knapen_AOT/AOT_stimuli/pictures/0265_fw.png	164.73999500274658	
39	37.778016805648804	picture	0		93	37.0	/experiments/knapen_AOT/AOT_stimuli/pictures/1039_fw.png	164.75227880477905	0.7710261344909668
39	38.53401589393616	response	0	j		37.0	/experiments/knapen_AOT/AOT_stimuli/pictures/1039_fw.png	165.5082778930664	
40	38.54904294013977	picture	0		116	38.0	/experiments/knapen_AOT/AOT_stimuli/pictures/2112_fw.png	165.52330493927002	0.9720418453216553
40	39.50742697715759	response	0	k		38.0	/experiments/knapen_AOT/AOT_stimuli/pictures/2112_fw.png	166.48168897628784	
41	39.521084785461426	picture	0		113	39.0	/experiments/knapen_AOT/AOT_stimuli/pictures/1085_fw.png	166.49534678459167	0.9445650577545166
41	40.45749497413635	response	0	j		39.0	/experiments/knapen_AOT/AOT_stimuli/pictures/1085_fw.png	167.4317569732666	
42	40.46564984321594	picture	0		109	40.0	/experiments/knapen_AOT/AOT_stimuli/pictures/0551_fw.png	167.4399118423462	0.9096360206604004
42	41.36578178405762	response	0	k		40.0	/experiments/knapen_AOT/AOT_stimuli/pictures/0551_fw.png	168.34004378318787	
43	41.37528586387634	picture	0		116	41.0	/experiments/knapen_AOT/AOT_stimuli/pictures/0496_fw.png	168.3495478630066	0.9654281139373779
43	42.32584500312805	response	0	k		41.0	/experiments/knapen_AOT/AOT_stimuli/pictures/0496_fw.png	169.3001070022583	
44	42.34071397781372	picture	0		94	42.0	/experiments/knapen_AOT/AOT_stimuli/pictures/0991_fw.png	169.31497597694397	0.8123350143432617
44	43.13409781455994	response	0	j		42.0	/experiments/knapen_AOT/AOT_stimuli/pictures/0991_fw.png	170.10835981369019	
45	43.15304899215698	picture	0		104	43.0	/experiments/knapen_AOT/AOT_stimuli/pictures/0433_fw.png	170.12731099128723	0.8680768013000488
45	44.00751495361328	response	0	k		43.0	/experiments/knapen_AOT/AOT_stimuli/pictures/0433_fw.png	170.98177695274353	
46	44.02112579345703	picture	0		165	44.0	/experiments/knapen_AOT/AOT_stimuli/pictures/1701_fw.png	170.99538779258728	1.3818590641021729
46	45.39086198806763	response	0	k		44.0	/experiments/knapen_AOT/AOT_stimuli/pictures/1701_fw.png	172.36512398719788	
47	45.402984857559204	picture	0		153	45.0	/experiments/knapen_AOT/AOT_stimuli/pictures/1407_fw.png	172.37724685668945	1.2710411548614502
47	46.665947914123535	response	0	k		45.0	/experiments/knapen_AOT/AOT_stimuli/pictures/1407_fw.png	173.64020991325378	
48	46.674026012420654	picture	0		106	46.0	/experiments/knapen_AOT/AOT_stimuli/pictures/0968_fw.png	173.6482880115509	0.8889060020446777
48	47.54269981384277	response	0	j		46.0	/experiments/knapen_AOT/AOT_stimuli/pictures/0968_fw.png	174.51696181297302	
49	47.56293201446533	picture	0		93	47.0	/experiments/knapen_AOT/AOT_stimuli/pictures/0619_fw.png	174.53719401359558	0.7778458595275879
49	48.32588481903076	response	0	j		47.0	/experiments/knapen_AOT/AOT_stimuli/pictures/0619_fw.png	175.300146818161	
50	48.34077787399292	picture	0		99	48.0	/experiments/knapen_AOT/AOT_stimuli/pictures/1406_fw.png	175.31503987312317	0.826200008392334
50	49.151094913482666	response	0	j		48.0	/experiments/knapen_AOT/AOT_stimuli/pictures/1406_fw.png	176.12535691261292	
51	49.166977882385254	picture	0		116	49.0	/experiments/knapen_AOT/AOT_stimuli/pictures/0117_fw.png	176.1412398815155	0.9654281139373779
51	50.12426686286926	response	0	k		49.0	/experiments/knapen_AOT/AOT_stimuli/pictures/0117_fw.png	177.0985288619995	
52	50.13240599632263	picture	0		115	50.0	/experiments/knapen_AOT/AOT_stimuli/pictures/0249_fw.png	177.10666799545288	0.9584259986877441
52	51.082602977752686	response	0	k		50.0	/experiments/knapen_AOT/AOT_stimuli/pictures/0249_fw.png	178.05686497688293	
53	51.090831995010376	picture	0		106	51.0	/experiments/knapen_AOT/AOT_stimuli/pictures/0983_fw.png	178.06509399414062	0.8887829780578613
53	51.966036796569824	response	0	k		51.0	/experiments/knapen_AOT/AOT_stimuli/pictures/0983_fw.png	178.94029879570007	
54	51.97961497306824	picture	0		113	52.0	/experiments/knapen_AOT/AOT_stimuli/pictures/2020_fw.png	178.9538769721985	0.9445769786834717
54	52.91598296165466	response	0	k		52.0	/experiments/knapen_AOT/AOT_stimuli/pictures/2020_fw.png	179.8902449607849	
55	52.92419195175171	picture	0		110	53.0	/experiments/knapen_AOT/AOT_stimuli/pictures/0663_fw.png	179.89845395088196	0.9166209697723389
55	53.832695960998535	response	0	k		53.0	/experiments/knapen_AOT/AOT_stimuli/pictures/0663_fw.png	180.80695796012878	
56	53.84081292152405	picture	0		117	54.0	/experiments/knapen_AOT/AOT_stimuli/pictures/0391_fw.png	180.8150749206543	0.9790019989013672
56	54.807679891586304	response	0	k		54.0	/experiments/knapen_AOT/AOT_stimuli/pictures/0391_fw.png	181.78194189071655	
57	54.819814920425415	picture	0		110	55.0	/experiments/knapen_AOT/AOT_stimuli/pictures/0287_fw.png	181.79407691955566	0.9167990684509277
57	55.72449278831482	response	0	k		55.0	/experiments/knapen_AOT/AOT_stimuli/pictures/0287_fw.png	182.69875478744507	
58	55.73661398887634	picture	0		141	56.0	/experiments/knapen_AOT/AOT_stimuli/pictures/1916_fw.png	182.7108759880066	1.1734998226165771
58	56.89936685562134	response	0	k		56.0	/experiments/knapen_AOT/AOT_stimuli/pictures/1916_fw.png	183.8736288547516	
59	56.91011381149292	picture	0		104	57.0	/experiments/knapen_AOT/AOT_stimuli/pictures/0703_fw.png	183.88437581062317	0.8680801391601562
59	57.76599597930908	response	0	j		57.0	/experiments/knapen_AOT/AOT_stimuli/pictures/0703_fw.png	184.74025797843933	
60	57.778193950653076	picture	0		102	58.0	/experiments/knapen_AOT/AOT_stimuli/pictures/2168_fw.png	184.75245594978333	0.8472669124603271
60	58.615991830825806	response	0	j		58.0	/experiments/knapen_AOT/AOT_stimuli/pictures/2168_fw.png	185.59025382995605	
61	58.6254608631134	picture	0		100	59.0	/experiments/knapen_AOT/AOT_stimuli/pictures/0415_fw.png	185.59972286224365	0.8333759307861328
61	59.449333906173706	response	0	j		59.0	/experiments/knapen_AOT/AOT_stimuli/pictures/0415_fw.png	186.42359590530396	
62	59.458836793899536	picture	0		155	60.0	/experiments/knapen_AOT/AOT_stimuli/pictures/0712_fw.png	186.43309879302979	1.2916011810302734
62	60.73476600646973	response	0	j		60.0	/experiments/knapen_AOT/AOT_stimuli/pictures/0712_fw.png	187.70902800559998	
63	60.75043797492981	picture	0		144	61.0	/experiments/knapen_AOT/AOT_stimuli/pictures/1841_fw.png	187.72469997406006	1.2013959884643555
63	61.93443584442139	response	0	k		61.0	/experiments/knapen_AOT/AOT_stimuli/pictures/1841_fw.png	188.90869784355164	
64	61.951833963394165	picture	0		107	62.0	/experiments/knapen_AOT/AOT_stimuli/pictures/2085_fw.png	188.9260959625244	0.8890628814697266
64	62.83282685279846	response	0	k		62.0	/experiments/knapen_AOT/AOT_stimuli/pictures/2085_fw.png	189.8070888519287	
65	62.84089684486389	picture	0		108	63.0	/experiments/knapen_AOT/AOT_stimuli/pictures/0881_fw.png	189.81515884399414	0.9026219844818115
65	63.725995779037476	response	0	k		63.0	/experiments/knapen_AOT/AOT_stimuli/pictures/0881_fw.png	190.70025777816772	
66	63.7435188293457	picture	0		151	64.0	/experiments/knapen_AOT/AOT_stimuli/pictures/0565_fw.png	190.71778082847595	1.2570250034332275
66	64.99108982086182	response	0	j		64.0	/experiments/knapen_AOT/AOT_stimuli/pictures/0565_fw.png	191.96535181999207	
67	65.00054383277893	picture	0		104	65.0	/experiments/knapen_AOT/AOT_stimuli/pictures/0859_fw.png	191.97480583190918	0.8679940700531006
67	65.85776591300964	response	0	k		65.0	/experiments/knapen_AOT/AOT_stimuli/pictures/0859_fw.png	192.8320279121399	
68	65.86853790283203	picture	0		101	66.0	/experiments/knapen_AOT/AOT_stimuli/pictures/0855_fw.png	192.84279990196228	0.8403489589691162
68	66.6995198726654	response	0	j		66.0	/experiments/knapen_AOT/AOT_stimuli/pictures/0855_fw.png	193.67378187179565	
69	66.70888686180115	picture	0		97	67.0	/experiments/knapen_AOT/AOT_stimuli/pictures/0148_fw.png	193.6831488609314	0.812446117401123
69	67.50777697563171	response	0	j		67.0	/experiments/knapen_AOT/AOT_stimuli/pictures/0148_fw.png	194.48203897476196	
70	67.52133297920227	picture	0		101	68.0	/experiments/knapen_AOT/AOT_stimuli/pictures/1891_fw.png	194.49559497833252	0.8471989631652832
70	68.3510389328003	response	0	j		68.0	/experiments/knapen_AOT/AOT_stimuli/pictures/1891_fw.png	195.32530093193054	
71	68.36853194236755	picture	0		102	69.0	/experiments/knapen_AOT/AOT_stimuli/pictures/0958_fw.png	195.3427939414978	0.8474490642547607
71	69.20797395706177	response	0	k		69.0	/experiments/knapen_AOT/AOT_stimuli/pictures/0958_fw.png	196.18223595619202	
72	69.21598100662231	picture	0		102	70.0	/experiments/knapen_AOT/AOT_stimuli/pictures/2086_fw.png	196.19024300575256	0.8539469242095947
72	70.05799078941345	response	0	j		70.0	/experiments/knapen_AOT/AOT_stimuli/pictures/2086_fw.png	197.0322527885437	
73	70.06992793083191	picture	0		100	71.0	/experiments/knapen_AOT/AOT_stimuli/pictures/1425_fw.png	197.04418992996216	0.8334660530090332
73	70.89117479324341	response	0	j		71.0	/experiments/knapen_AOT/AOT_stimuli/pictures/1425_fw.png	197.86543679237366	
74	70.90339398384094	picture	0		94	72.0	/experiments/knapen_AOT/AOT_stimuli/pictures/0106_fw.png	197.8776559829712	0.7846269607543945
74	71.67448592185974	response	0	j		72.0	/experiments/knapen_AOT/AOT_stimuli/pictures/0106_fw.png	198.64874792099	
75	71.68802094459534	picture	0		96	73.0	/experiments/knapen_AOT/AOT_stimuli/pictures/1136_fw.png	198.6622829437256	0.8056468963623047
75	72.48294186592102	response	0	k		73.0	/experiments/knapen_AOT/AOT_stimuli/pictures/1136_fw.png	199.45720386505127	
76	72.49366784095764	picture	0		117	74.0	/experiments/knapen_AOT/AOT_stimuli/pictures/1915_fw.png	199.4679298400879	0.9723711013793945
76	73.45801401138306	response	0	j		74.0	/experiments/knapen_AOT/AOT_stimuli/pictures/1915_fw.png	200.4322760105133	
77	73.46603894233704	picture	0		119	75.0	/experiments/knapen_AOT/AOT_stimuli/pictures/1385_fw.png	200.44030094146729	0.9929170608520508
77	74.44955587387085	response	0	k		75.0	/experiments/knapen_AOT/AOT_stimuli/pictures/1385_fw.png	201.4238178730011	
78	74.45895600318909	picture	0		111	76.0	/experiments/knapen_AOT/AOT_stimuli/pictures/0031_fw.png	201.43321800231934	0.9238078594207764
78	75.37471079826355	response	0	k		76.0	/experiments/knapen_AOT/AOT_stimuli/pictures/0031_fw.png	202.3489727973938	
79	75.38276386260986	picture	0		97	77.0	/experiments/knapen_AOT/AOT_stimuli/pictures/0780_fw.png	202.3570258617401	0.8122119903564453
79	76.18297386169434	response	0	j		77.0	/experiments/knapen_AOT/AOT_stimuli/pictures/0780_fw.png	203.15723586082458	
80	76.19497585296631	picture	0		96	78.0	/experiments/knapen_AOT/AOT_stimuli/pictures/1243_fw.png	203.16923785209656	0.8264710903167725
80	77.00789999961853	response	0	k		78.0	/experiments/knapen_AOT/AOT_stimuli/pictures/1243_fw.png	203.98216199874878	
81	77.02144694328308	picture	0		100	79.0	/experiments/knapen_AOT/AOT_stimuli/pictures/0312_fw.png	203.99570894241333	0.8402578830718994
81	77.84978699684143	response	0	j		79.0	/experiments/knapen_AOT/AOT_stimuli/pictures/0312_fw.png	204.82404899597168	
82	77.86170482635498	picture	0		103	80.0	/experiments/knapen_AOT/AOT_stimuli/pictures/1125_fw.png	204.83596682548523	0.8544020652770996
82	78.70803499221802	response	0	k		80.0	/experiments/knapen_AOT/AOT_stimuli/pictures/1125_fw.png	205.68229699134827	
83	78.71610689163208	picture	0		100	81.0	/experiments/knapen_AOT/AOT_stimuli/pictures/1824_fw.png	205.69036889076233	0.8333580493927002
83	79.53458595275879	response	0	k		81.0	/experiments/knapen_AOT/AOT_stimuli/pictures/1824_fw.png	206.50884795188904	
84	79.54946494102478	picture	0		122	82.0	/experiments/knapen_AOT/AOT_stimuli/pictures/0079_fw.png	206.52372694015503	1.0205600261688232
84	80.55132985115051	response	0	j		82.0	/experiments/knapen_AOT/AOT_stimuli/pictures/0079_fw.png	207.52559185028076	
85	80.5700249671936	picture	0		102	83.0	/experiments/knapen_AOT/AOT_stimuli/pictures/0791_fw.png	207.54428696632385	0.8473429679870605
85	81.40797281265259	response	0	k		83.0	/experiments/knapen_AOT/AOT_stimuli/pictures/0791_fw.png	208.38223481178284	
86	81.41736793518066	picture	0		101	84.0	/experiments/knapen_AOT/AOT_stimuli/pictures/2136_fw.png	208.3916299343109	0.8404600620269775
86	82.24971580505371	response	0	k		84.0	/experiments/knapen_AOT/AOT_stimuli/pictures/2136_fw.png	209.22397780418396	
87	82.25782799720764	picture	0		102	85.0	/experiments/knapen_AOT/AOT_stimuli/pictures/1933_fw.png	209.2320899963379	0.8540549278259277
87	83.09973382949829	response	0	j		85.0	/experiments/knapen_AOT/AOT_stimuli/pictures/1933_fw.png	210.07399582862854	
88	83.11188292503357	picture	0		102	86.0	/experiments/knapen_AOT/AOT_stimuli/pictures/2102_fw.png	210.08614492416382	0.8470470905303955
88	83.94292378425598	response	0	j		86.0	/experiments/knapen_AOT/AOT_stimuli/pictures/2102_fw.png	210.91718578338623	
89	83.95893001556396	picture	0		93	87.0	/experiments/knapen_AOT/AOT_stimuli/pictures/1437_fw.png	210.9331920146942	0.7778148651123047
89	84.72468781471252	response	0	k		87.0	/experiments/knapen_AOT/AOT_stimuli/pictures/1437_fw.png	211.69894981384277	
90	84.73674488067627	picture	0		117	88.0	/experiments/knapen_AOT/AOT_stimuli/pictures/1726_fw.png	211.71100687980652	0.9722530841827393
90	85.69969296455383	response	0	j		88.0	/experiments/knapen_AOT/AOT_stimuli/pictures/1726_fw.png	212.67395496368408	
91	85.70899796485901	picture	0		95	89.0	/experiments/knapen_AOT/AOT_stimuli/pictures/0583_fw.png	212.68325996398926	0.7917439937591553
91	86.49137997627258	response	0	k		89.0	/experiments/knapen_AOT/AOT_stimuli/pictures/0583_fw.png	213.46564197540283	
92	86.50074195861816	picture	0		105	90.0	/experiments/knapen_AOT/AOT_stimuli/pictures/1678_fw.png	213.4750039577484	0.8749940395355225
92	87.35982298851013	response	0	j		90.0	/experiments/knapen_AOT/AOT_stimuli/pictures/1678_fw.png	214.33408498764038	
93	87.37573599815369	picture	0		102	91.0	/experiments/knapen_AOT/AOT_stimuli/pictures/1599_fw.png	214.34999799728394	0.8541009426116943
93	88.21636891365051	response	0	j		91.0	/experiments/knapen_AOT/AOT_stimuli/pictures/1599_fw.png	215.19063091278076	
94	88.22983694076538	picture	0		98	92.0	/experiments/knapen_AOT/AOT_stimuli/pictures/0985_fw.png	215.20409893989563	0.8197839260101318
94	89.0414309501648	response	0	j		92.0	/experiments/knapen_AOT/AOT_stimuli/pictures/0985_fw.png	216.01569294929504	
95	89.04962086677551	picture	0		103	93.0	/experiments/knapen_AOT/AOT_stimuli/pictures/1386_fw.png	216.02388286590576	0.8607709407806396
95	89.89972496032715	response	0	k		93.0	/experiments/knapen_AOT/AOT_stimuli/pictures/1386_fw.png	216.8739869594574	
96	89.91039180755615	picture	0		102	94.0	/experiments/knapen_AOT/AOT_stimuli/pictures/0231_fw.png	216.8846538066864	0.8475470542907715
96	90.74295783042908	response	0	j		94.0	/experiments/knapen_AOT/AOT_stimuli/pictures/0231_fw.png	217.71721982955933	
97	90.75793886184692	picture	0		325	95.0	/experiments/knapen_AOT/AOT_stimuli/pictures/0692_fw.png	217.73220086097717	2.7167840003967285
97	93.45830488204956	response	0	k		95.0	/experiments/knapen_AOT/AOT_stimuli/pictures/0692_fw.png	220.4325668811798	
98	93.47472286224365	picture	0		103	96.0	/experiments/knapen_AOT/AOT_stimuli/pictures/1776_fw.png	220.4489848613739	0.8593001365661621
98	94.32481980323792	response	0	j		96.0	/experiments/knapen_AOT/AOT_stimuli/pictures/1776_fw.png	221.29908180236816	
99	94.33402299880981	picture	0		95	97.0	/experiments/knapen_AOT/AOT_stimuli/pictures/0232_fw.png	221.30828499794006	0.791705846786499
99	95.11650896072388	response	0	j		97.0	/experiments/knapen_AOT/AOT_stimuli/pictures/0232_fw.png	222.09077095985413	
100	95.12572884559631	picture	0		119	98.0	/experiments/knapen_AOT/AOT_stimuli/pictures/0456_fw.png	222.09999084472656	0.993056058883667
100	96.10814499855042	response	0	j		98.0	/experiments/knapen_AOT/AOT_stimuli/pictures/0456_fw.png	223.08240699768066	
101	96.11878490447998	picture	0		102	99.0	/experiments/knapen_AOT/AOT_stimuli/pictures/2007_fw.png	223.09304690361023	0.847585916519165
101	96.95828485488892	response	0	j		99.0	/experiments/knapen_AOT/AOT_stimuli/pictures/2007_fw.png	223.93254685401917	
102	96.96637082099915	picture	0		103	100.0	/experiments/knapen_AOT/AOT_stimuli/pictures/0010_fw.png	223.9406328201294	0.8607170581817627
102	97.81652593612671	response	0	k		100.0	/experiments/knapen_AOT/AOT_stimuli/pictures/0010_fw.png	224.79078793525696	
103	97.82708787918091	picture	0		128	101.0	/experiments/knapen_AOT/AOT_stimuli/pictures/1196_fw.png	224.80134987831116	1.0695290565490723
103	98.88320684432983	response	0	k		101.0	/experiments/knapen_AOT/AOT_stimuli/pictures/1196_fw.png	225.85746884346008	
104	98.89661693572998	picture	0		96	102.0	/experiments/knapen_AOT/AOT_stimuli/pictures/1288_fw.png	225.87087893486023	0.8054900169372559
104	99.69159698486328	response	0	k		102.0	/experiments/knapen_AOT/AOT_stimuli/pictures/1288_fw.png	226.66585898399353	
105	99.70210695266724	picture	0		104	103.0	/experiments/knapen_AOT/AOT_stimuli/pictures/0067_fw.png	226.67636895179749	0.8680779933929443
105	100.55841898918152	response	0	k		103.0	/experiments/knapen_AOT/AOT_stimuli/pictures/0067_fw.png	227.53268098831177	
106	100.57018494606018	picture	0		85	104.0	/experiments/knapen_AOT/AOT_stimuli/pictures/1456_fw.png	227.54444694519043	0.7083609104156494
106	101.26658296585083	response	0	j		104.0	/experiments/knapen_AOT/AOT_stimuli/pictures/1456_fw.png	228.24084496498108	
107	101.27854585647583	picture	0		113	105.0	/experiments/knapen_AOT/AOT_stimuli/pictures/0615_fw.png	228.25280785560608	0.9379029273986816
107	102.20830583572388	response	0	j		105.0	/experiments/knapen_AOT/AOT_stimuli/pictures/0615_fw.png	229.18256783485413	
108	102.21644878387451	picture	0		205	106.0	/experiments/knapen_AOT/AOT_stimuli/pictures/1473_fw.png	229.19071078300476	1.7084391117095947
108	103.9166808128357	response	0	k		106.0	/experiments/knapen_AOT/AOT_stimuli/pictures/1473_fw.png	230.89094281196594	
109	103.9248878955841	picture	0		104	107.0	/experiments/knapen_AOT/AOT_stimuli/pictures/1998_fw.png	230.89914989471436	0.867621898651123
109	104.78333783149719	response	0	j		107.0	/experiments/knapen_AOT/AOT_stimuli/pictures/1998_fw.png	231.75759983062744	
110	104.79250979423523	picture	0		99	108.0	/experiments/knapen_AOT/AOT_stimuli/pictures/0543_fw.png	231.76677179336548	0.8263180255889893
110	105.60831999778748	response	0	j		108.0	/experiments/knapen_AOT/AOT_stimuli/pictures/0543_fw.png	232.58258199691772	
111	105.61882781982422	picture	0		102	109.0	/experiments/knapen_AOT/AOT_stimuli/pictures/1492_fw.png	232.59308981895447	0.8476769924163818
111	106.4584219455719	response	0	k		109.0	/experiments/knapen_AOT/AOT_stimuli/pictures/1492_fw.png	233.43268394470215	
112	106.4665048122406	picture	0		104	110.0	/experiments/knapen_AOT/AOT_stimuli/pictures/0161_fw.png	233.44076681137085	0.8675820827484131
112	107.32495594024658	response	0	k		110.0	/experiments/knapen_AOT/AOT_stimuli/pictures/0161_fw.png	234.29921793937683	
113	107.33408689498901	picture	0		118	111.0	/experiments/knapen_AOT/AOT_stimuli/pictures/2048_fw.png	234.30834889411926	0.9861528873443604
113	108.30838084220886	response	0	j		111.0	/experiments/knapen_AOT/AOT_stimuli/pictures/2048_fw.png	235.2826428413391	
114	108.32023978233337	picture	0		160	112.0	/experiments/knapen_AOT/AOT_stimuli/pictures/0973_fw.png	235.29450178146362	1.3332560062408447
114	109.64170598983765	response	0	k		112.0	/experiments/knapen_AOT/AOT_stimuli/pictures/0973_fw.png	236.6159679889679	
115	109.65349578857422	picture	0		133	113.0	/experiments/knapen_AOT/AOT_stimuli/pictures/0977_fw.png	236.62775778770447	1.1181981563568115
115	110.75846982002258	response	0	k		113.0	/experiments/knapen_AOT/AOT_stimuli/pictures/0977_fw.png	237.73273181915283	
116	110.77169394493103	picture	0		211	114.0	/experiments/knapen_AOT/AOT_stimuli/pictures/0639_fw.png	237.74595594406128	1.7638659477233887
116	112.52510690689087	response	0	k		114.0	/experiments/knapen_AOT/AOT_stimuli/pictures/0639_fw.png	239.49936890602112	
117	112.53555989265442	picture	0		105	115.0	/experiments/knapen_AOT/AOT_stimuli/pictures/0475_fw.png	239.50982189178467	0.874993085861206
117	113.40002989768982	response	0	k		115.0	/experiments/knapen_AOT/AOT_stimuli/pictures/0475_fw.png	240.37429189682007	
118	113.41055297851562	picture	0		107	116.0	/experiments/knapen_AOT/AOT_stimuli/pictures/1704_fw.png	240.38481497764587	0.8893430233001709
118	114.29181599617004	response	0	k		116.0	/experiments/knapen_AOT/AOT_stimuli/pictures/1704_fw.png	241.2660779953003	
119	114.2998960018158	picture	0		102	117.0	/experiments/knapen_AOT/AOT_stimuli/pictures/1242_fw.png	241.27415800094604	0.8537619113922119
119	115.13509392738342	response	0	k		117.0	/experiments/knapen_AOT/AOT_stimuli/pictures/1242_fw.png	242.10935592651367	
120	115.15365791320801	picture	0		105	118.0	/experiments/knapen_AOT/AOT_stimuli/pictures/0627_fw.png	242.12791991233826	0.8749909400939941
120	116.01681995391846	response	0	j		118.0	/experiments/knapen_AOT/AOT_stimuli/pictures/0627_fw.png	242.9910819530487	
121	116.028648853302	picture	0		114	119.0	/experiments/knapen_AOT/AOT_stimuli/pictures/1028_fw.png	243.00291085243225	0.9513580799102783
121	116.96674990653992	response	0	j		119.0	/experiments/knapen_AOT/AOT_stimuli/pictures/1028_fw.png	243.94101190567017	
122	116.98000693321228	picture	0		129	120.0	/experiments/knapen_AOT/AOT_stimuli/pictures/0854_fw.png	243.95426893234253	1.083453893661499
122	118.05008482933044	response	0	k		120.0	/experiments/knapen_AOT/AOT_stimuli/pictures/0854_fw.png	245.0243468284607	
123	118.06346082687378	picture	0		103	121.0	/experiments/knapen_AOT/AOT_stimuli/pictures/0227_fw.png	245.03772282600403	0.8614959716796875
123	118.91681480407715	response	0	j		121.0	/experiments/knapen_AOT/AOT_stimuli/pictures/0227_fw.png	245.8910768032074	
124	118.92495679855347	picture	0		100	122.0	/experiments/knapen_AOT/AOT_stimuli/pictures/1068_fw.png	245.89921879768372	0.8334710597991943
124	119.74333691596985	response	0	j		122.0	/experiments/knapen_AOT/AOT_stimuli/pictures/1068_fw.png	246.7175989151001	
125	119.75842785835266	picture	0		103	123.0	/experiments/knapen_AOT/AOT_stimuli/pictures/1902_fw.png	246.7326898574829	0.8605120182037354
125	120.60852384567261	response	0	j		123.0	/experiments/knapen_AOT/AOT_stimuli/pictures/1902_fw.png	247.58278584480286	
126	120.6189398765564	picture	0		141	124.0	/experiments/knapen_AOT/AOT_stimuli/pictures/1326_fw.png	247.59320187568665	1.1736640930175781
126	121.78355979919434	response	0	j		124.0	/experiments/knapen_AOT/AOT_stimuli/pictures/1326_fw.png	248.75782179832458	
127	121.79260396957397	picture	0		134	125.0	/experiments/knapen_AOT/AOT_stimuli/pictures/0654_fw.png	248.76686596870422	1.1181538105010986
127	122.90016484260559	response	0	k		125.0	/experiments/knapen_AOT/AOT_stimuli/pictures/0654_fw.png	249.87442684173584	
128	122.91075778007507	picture	0		105	126.0	/experiments/knapen_AOT/AOT_stimuli/pictures/1335_fw.png	249.88501977920532	0.9027700424194336
128	123.80016088485718	response	0	j		126.0	/experiments/knapen_AOT/AOT_stimuli/pictures/1335_fw.png	250.77442288398743	
129	123.8135278224945	picture	0		105	127.0	/experiments/knapen_AOT/AOT_stimuli/pictures/2165_fw.png	250.78778982162476	0.8818681240081787
129	124.68357396125793	response	0	k		127.0	/experiments/knapen_AOT/AOT_stimuli/pictures/2165_fw.png	251.65783596038818	
130	124.69539594650269	picture	0		111	128.0	/experiments/knapen_AOT/AOT_stimuli/pictures/0377_fw.png	251.66965794563293	0.9236059188842773
130	125.60860085487366	response	0	k		128.0	/experiments/knapen_AOT/AOT_stimuli/pictures/0377_fw.png	252.5828628540039	
131	125.61900186538696	picture	0		104	129.0	/experiments/knapen_AOT/AOT_stimuli/pictures/1259_fw.png	252.5932638645172	0.8680250644683838
131	126.47525095939636	response	0	k		129.0	/experiments/knapen_AOT/AOT_stimuli/pictures/1259_fw.png	253.4495129585266	
132	126.48702692985535	picture	0		110	130.0	/experiments/knapen_AOT/AOT_stimuli/pictures/1062_fw.png	253.4612889289856	0.9214820861816406
132	127.39199185371399	response	0	k		130.0	/experiments/knapen_AOT/AOT_stimuli/pictures/1062_fw.png	254.36625385284424	
133	127.40850901603699	picture	0		115	131.0	/experiments/knapen_AOT/AOT_stimuli/pictures/0541_fw.png	254.38277101516724	0.9604849815368652
133	128.35872292518616	response	0	k		131.0	/experiments/knapen_AOT/AOT_stimuli/pictures/0541_fw.png	255.3329849243164	
134	128.36899399757385	picture	0		109	132.0	/experiments/knapen_AOT/AOT_stimuli/pictures/0101_fw.png	255.3432559967041	0.9097909927368164
134	129.2670168876648	response	0	j		132.0	/experiments/knapen_AOT/AOT_stimuli/pictures/0101_fw.png	256.24127888679504	
135	129.27878499031067	picture	0		113	133.0	/experiments/knapen_AOT/AOT_stimuli/pictures/0901_fw.png	256.2530469894409	0.938086986541748
135	130.2087299823761	response	0	k		133.0	/experiments/knapen_AOT/AOT_stimuli/pictures/0901_fw.png	257.18299198150635	
136	130.21687197685242	picture	0		112	134.0	/experiments/knapen_AOT/AOT_stimuli/pictures/0180_fw.png	257.19113397598267	0.9368898868560791
136	131.13613486289978	response	0	k		134.0	/experiments/knapen_AOT/AOT_stimuli/pictures/0180_fw.png	258.11039686203003	
137	131.1537618637085	picture	0		110	135.0	/experiments/knapen_AOT/AOT_stimuli/pictures/1104_fw.png	258.12802386283875	0.9167139530181885
137	132.05882000923157	response	0	j		135.0	/experiments/knapen_AOT/AOT_stimuli/pictures/1104_fw.png	259.0330820083618	
138	132.07047581672668	picture	0		100	136.0	/experiments/knapen_AOT/AOT_stimuli/pictures/0745_fw.png	259.04473781585693	0.8333151340484619
138	132.8920660018921	response	0	j		136.0	/experiments/knapen_AOT/AOT_stimuli/pictures/0745_fw.png	259.86632800102234	
139	132.90379095077515	picture	0		113	137.0	/experiments/knapen_AOT/AOT_stimuli/pictures/0632_fw.png	259.8780529499054	0.938060998916626
139	133.8337378501892	response	0	k		137.0	/experiments/knapen_AOT/AOT_stimuli/pictures/0632_fw.png	260.80799984931946	
140	133.84185194969177	picture	0		105	138.0	/experiments/knapen_AOT/AOT_stimuli/pictures/1603_fw.png	260.816113948822	0.8749940395355225
140	134.70867800712585	response	0	k		138.0	/experiments/knapen_AOT/AOT_stimuli/pictures/1603_fw.png	261.6829400062561	
141	134.7168459892273	picture	0		107	139.0	/experiments/knapen_AOT/AOT_stimuli/pictures/1190_fw.png	261.69110798835754	0.8952529430389404
141	135.60044980049133	response	0	k		139.0	/experiments/knapen_AOT/AOT_stimuli/pictures/1190_fw.png	262.5747117996216	
142	135.61209893226624	picture	0		110	140.0	/experiments/knapen_AOT/AOT_stimuli/pictures/1679_fw.png	262.5863609313965	0.9166829586029053
142	136.51701092720032	response	0	k		140.0	/experiments/knapen_AOT/AOT_stimuli/pictures/1679_fw.png	263.49127292633057	
143	136.52878189086914	picture	0		123	141.0	/experiments/knapen_AOT/AOT_stimuli/pictures/1649_fw.png	263.5030438899994	1.0278339385986328
143	137.53554892539978	response	0	j		141.0	/experiments/knapen_AOT/AOT_stimuli/pictures/1649_fw.png	264.50981092453003	
144	137.55661582946777	picture	0		121	142.0	/experiments/knapen_AOT/AOT_stimuli/pictures/1640_fw.png	264.530877828598	1.013875961303711
144	138.55215191841125	response	0	k		142.0	/experiments/knapen_AOT/AOT_stimuli/pictures/1640_fw.png	265.5264139175415	
145	138.57049179077148	picture	0		117	143.0	/experiments/knapen_AOT/AOT_stimuli/pictures/1290_fw.png	265.54475378990173	0.9722931385040283
145	139.5271189212799	response	0	j		143.0	/experiments/knapen_AOT/AOT_stimuli/pictures/1290_fw.png	266.50138092041016	
146	139.5427849292755	picture	0		173	144.0	/experiments/knapen_AOT/AOT_stimuli/pictures/1700_fw.png	266.51704692840576	1.4442620277404785
146	140.97553491592407	response	0	k		144.0	/experiments/knapen_AOT/AOT_stimuli/pictures/1700_fw.png	267.9497969150543	
147	140.987046957016	picture	0		103	145.0	/experiments/knapen_AOT/AOT_stimuli/pictures/1996_fw.png	267.96130895614624	0.8634078502655029
147	141.8345489501953	response	0	k		145.0	/experiments/knapen_AOT/AOT_stimuli/pictures/1996_fw.png	268.80881094932556	
148	141.8504548072815	picture	0		114	146.0	/experiments/knapen_AOT/AOT_stimuli/pictures/0054_fw.png	268.82471680641174	0.9562201499938965
148	142.79222989082336	response	0	j		146.0	/experiments/knapen_AOT/AOT_stimuli/pictures/0054_fw.png	269.7664918899536	
149	142.8066749572754	picture	0		107	147.0	/experiments/knapen_AOT/AOT_stimuli/pictures/0465_fw.png	269.78093695640564	0.8957459926605225
149	143.6921467781067	response	0	k		147.0	/experiments/knapen_AOT/AOT_stimuli/pictures/0465_fw.png	270.66640877723694	
150	143.7024209499359	picture	0		113	148.0	/experiments/knapen_AOT/AOT_stimuli/pictures/1526_fw.png	270.67668294906616	0.9445068836212158
150	144.63384294509888	response	0	j		148.0	/experiments/knapen_AOT/AOT_stimuli/pictures/1526_fw.png	271.6081049442291	
151	144.64692783355713	picture	0		105	149.0	/experiments/knapen_AOT/AOT_stimuli/pictures/1639_fw.png	271.6211898326874	0.8819801807403564
151	145.51717495918274	response	0	k		149.0	/experiments/knapen_AOT/AOT_stimuli/pictures/1639_fw.png	272.491436958313	
152	145.52890801429749	picture	0		114	150.0	/experiments/knapen_AOT/AOT_stimuli/pictures/1106_fw.png	272.50317001342773	0.9513199329376221
152	146.4671277999878	response	0	k		150.0	/experiments/knapen_AOT/AOT_stimuli/pictures/1106_fw.png	273.44138979911804	
153	146.4802279472351	picture	0		115	151.0	/experiments/knapen_AOT/AOT_stimuli/pictures/1557_fw.png	273.45448994636536	0.9584648609161377
153	147.42558884620667	response	0	k		151.0	/experiments/knapen_AOT/AOT_stimuli/pictures/1557_fw.png	274.3998508453369	
154	147.43869280815125	picture	0		108	152.0	/experiments/knapen_AOT/AOT_stimuli/pictures/0381_fw.png	274.4129548072815	0.9096941947937012
154	148.32709097862244	response	0	k		152.0	/experiments/knapen_AOT/AOT_stimuli/pictures/0381_fw.png	275.3013529777527	
155	148.34838700294495	picture	0		111	153.0	/experiments/knapen_AOT/AOT_stimuli/pictures/1563_fw.png	275.3226490020752	0.9304978847503662
155	149.26721596717834	response	0	j		153.0	/experiments/knapen_AOT/AOT_stimuli/pictures/1563_fw.png	276.2414779663086	
156	149.2788848876953	picture	0		334	154.0	/experiments/knapen_AOT/AOT_stimuli/pictures/1878_fw.png	276.25314688682556	2.784651041030884
156	152.05058479309082	response	0	j		154.0	/experiments/knapen_AOT/AOT_stimuli/pictures/1878_fw.png	279.02484679222107	
157	152.0635359287262	picture	0		104	155.0	/experiments/knapen_AOT/AOT_stimuli/pictures/1501_fw.png	279.03779792785645	0.8751540184020996
157	152.91958498954773	response	0	j		155.0	/experiments/knapen_AOT/AOT_stimuli/pictures/1501_fw.png	279.893846988678	
158	152.9386899471283	picture	0		141	156.0	/experiments/knapen_AOT/AOT_stimuli/pictures/1464_fw.png	279.91295194625854	1.1735689640045166
158	154.1007537841797	response	0	k		156.0	/experiments/knapen_AOT/AOT_stimuli/pictures/1464_fw.png	281.07501578330994	
159	154.1122589111328	picture	0		97	157.0	/experiments/knapen_AOT/AOT_stimuli/pictures/1216_fw.png	281.08652091026306	0.8055860996246338
159	154.90898394584656	response	0	j		157.0	/experiments/knapen_AOT/AOT_stimuli/pictures/1216_fw.png	281.8832459449768	
160	154.91784501075745	picture	0		99	158.0	/experiments/knapen_AOT/AOT_stimuli/pictures/1378_fw.png	281.8921070098877	0.82639479637146
160	155.72722482681274	response	0	k		158.0	/experiments/knapen_AOT/AOT_stimuli/pictures/1378_fw.png	282.701486825943	
161	155.7442398071289	picture	0		109	159.0	/experiments/knapen_AOT/AOT_stimuli/pictures/1459_fw.png	282.71850180625916	0.90968918800354
161	156.6424069404602	response	0	j		159.0	/experiments/knapen_AOT/AOT_stimuli/pictures/1459_fw.png	283.61666893959045	
162	156.65392899513245	picture	0		107	160.0	/experiments/knapen_AOT/AOT_stimuli/pictures/1746_fw.png	283.6281909942627	0.8890078067779541
162	157.52730894088745	response	0	k		160.0	/experiments/knapen_AOT/AOT_stimuli/pictures/1746_fw.png	284.5015709400177	
163	157.5429368019104	picture	0		98	161.0	/experiments/knapen_AOT/AOT_stimuli/pictures/0744_fw.png	284.51719880104065	0.8193440437316895
163	158.34401082992554	response	0	k		161.0	/experiments/knapen_AOT/AOT_stimuli/pictures/0744_fw.png	285.3182728290558	
164	158.3622808456421	picture	0		97	162.0	/experiments/knapen_AOT/AOT_stimuli/pictures/2011_fw.png	285.33654284477234	0.8055870532989502
164	159.152174949646	response	0	j		162.0	/experiments/knapen_AOT/AOT_stimuli/pictures/2011_fw.png	286.12643694877625	
165	159.16786789894104	picture	0		100	163.0	/experiments/knapen_AOT/AOT_stimuli/pictures/0360_fw.png	286.1421298980713	0.8610949516296387
165	160.01745200157166	response	0	j		163.0	/experiments/knapen_AOT/AOT_stimuli/pictures/0360_fw.png	286.9917140007019	
166	160.02896285057068	picture	0		100	164.0	/experiments/knapen_AOT/AOT_stimuli/pictures/0604_fw.png	287.0032248497009	0.8333280086517334
166	160.85071897506714	response	0	j		164.0	/experiments/knapen_AOT/AOT_stimuli/pictures/0604_fw.png	287.8249809741974	
167	160.8622908592224	picture	0		108	165.0	/experiments/knapen_AOT/AOT_stimuli/pictures/0906_fw.png	287.83655285835266	0.9050140380859375
167	161.75130796432495	response	0	k		165.0	/experiments/knapen_AOT/AOT_stimuli/pictures/0906_fw.png	288.7255699634552	
168	161.76730489730835	picture	0		107	166.0	/experiments/knapen_AOT/AOT_stimuli/pictures/1653_fw.png	288.7415668964386	0.8936269283294678
168	162.65067100524902	response	0	j		166.0	/experiments/knapen_AOT/AOT_stimuli/pictures/1653_fw.png	289.6249330043793	
169	162.66093182563782	picture	0		97	167.0	/experiments/knapen_AOT/AOT_stimuli/pictures/0920_fw.png	289.63519382476807	0.8146381378173828
169	163.45975995063782	response	0	j		167.0	/experiments/knapen_AOT/AOT_stimuli/pictures/0920_fw.png	290.43402194976807	
170	163.4755699634552	picture	0		104	168.0	/experiments/knapen_AOT/AOT_stimuli/pictures/0628_fw.png	290.44983196258545	0.8750269412994385
170	164.32724690437317	response	0	k		168.0	/experiments/knapen_AOT/AOT_stimuli/pictures/0628_fw.png	291.3015089035034	
171	164.35059690475464	picture	0		92	169.0	/experiments/knapen_AOT/AOT_stimuli/pictures/1881_fw.png	291.3248589038849	0.7687408924102783
171	165.10904693603516	response	0	j		169.0	/experiments/knapen_AOT/AOT_stimuli/pictures/1881_fw.png	292.0833089351654	
172	165.11933779716492	picture	0		113	170.0	/experiments/knapen_AOT/AOT_stimuli/pictures/1748_fw.png	292.09359979629517	0.944465160369873
172	166.05079698562622	response	0	j		170.0	/experiments/knapen_AOT/AOT_stimuli/pictures/1748_fw.png	293.02505898475647	
173	166.0638029575348	picture	0		112	171.0	/experiments/knapen_AOT/AOT_stimuli/pictures/0187_fw.png	293.03806495666504	0.937518835067749
173	166.99250888824463	response	0	k		171.0	/experiments/knapen_AOT/AOT_stimuli/pictures/0187_fw.png	293.9667708873749	
174	167.00132179260254	picture	0		121	172.0	/experiments/knapen_AOT/AOT_stimuli/pictures/1543_fw.png	293.9755837917328	1.016059160232544
174	168.00146389007568	response	0	j		172.0	/experiments/knapen_AOT/AOT_stimuli/pictures/1543_fw.png	294.97572588920593	
175	168.01738095283508	picture	0		98	173.0	/experiments/knapen_AOT/AOT_stimuli/pictures/1825_fw.png	294.99164295196533	0.8250429630279541
175	168.825847864151	response	0	j		173.0	/experiments/knapen_AOT/AOT_stimuli/pictures/1825_fw.png	295.80010986328125	
176	168.84242391586304	picture	0		95	174.0	/experiments/knapen_AOT/AOT_stimuli/pictures/0463_fw.png	295.8166859149933	0.7999799251556396
176	169.62648677825928	response	0	j		174.0	/experiments/knapen_AOT/AOT_stimuli/pictures/0463_fw.png	296.6007487773895	
177	169.64240384101868	picture	0		104	175.0	/experiments/knapen_AOT/AOT_stimuli/pictures/1241_fw.png	296.6166658401489	0.8750400543212891
177	170.5014820098877	response	0	j		175.0	/experiments/knapen_AOT/AOT_stimuli/pictures/1241_fw.png	297.47574400901794	
178	170.51744389533997	picture	0		102	176.0	/experiments/knapen_AOT/AOT_stimuli/pictures/1076_fw.png	297.4917058944702	0.851938009262085
178	171.3524148464203	response	0	j		176.0	/experiments/knapen_AOT/AOT_stimuli/pictures/1076_fw.png	298.32667684555054	
179	171.36938190460205	picture	0		103	177.0	/experiments/knapen_AOT/AOT_stimuli/pictures/2137_fw.png	298.3436439037323	0.8646249771118164
179	172.21765899658203	response	0	k		177.0	/experiments/knapen_AOT/AOT_stimuli/pictures/2137_fw.png	299.1919209957123	
180	172.23400688171387	picture	0		104	178.0	/experiments/knapen_AOT/AOT_stimuli/pictures/1422_fw.png	299.2082688808441	0.8714821338653564
180	173.09264588356018	response	0	k		178.0	/experiments/knapen_AOT/AOT_stimuli/pictures/1422_fw.png	300.06690788269043	
181	173.10548901557922	picture	0		99	179.0	/experiments/knapen_AOT/AOT_stimuli/pictures/1318_fw.png	300.0797510147095	0.8333699703216553
181	173.91969180107117	response	0	j		179.0	/experiments/knapen_AOT/AOT_stimuli/pictures/1318_fw.png	300.8939538002014	
182	173.93885898590088	picture	0		104	180.0	/experiments/knapen_AOT/AOT_stimuli/pictures/0743_fw.png	300.9131209850311	0.8701980113983154
182	174.79311800003052	response	0	k		180.0	/experiments/knapen_AOT/AOT_stimuli/pictures/0743_fw.png	301.76737999916077	
183	174.8090569972992	picture	0		97	181.0	/experiments/knapen_AOT/AOT_stimuli/pictures/0378_fw.png	301.78331899642944	0.8104019165039062
183	175.6091718673706	response	0	k		181.0	/experiments/knapen_AOT/AOT_stimuli/pictures/0378_fw.png	302.58343386650085	
184	175.6194589138031	picture	0		103	182.0	/experiments/knapen_AOT/AOT_stimuli/pictures/0918_fw.png	302.59372091293335	0.86114501953125
184	176.46766591072083	response	0	k		182.0	/experiments/knapen_AOT/AOT_stimuli/pictures/0918_fw.png	303.4419279098511	
185	176.48060393333435	picture	0		103	183.0	/experiments/knapen_AOT/AOT_stimuli/pictures/0960_fw.png	303.4548659324646	0.8540358543395996
185	177.31931281089783	response	0	k		183.0	/experiments/knapen_AOT/AOT_stimuli/pictures/0960_fw.png	304.2935748100281	
186	177.33463978767395	picture	0		94	184.0	/experiments/knapen_AOT/AOT_stimuli/pictures/0301_fw.png	304.3089017868042	0.7911760807037354
186	178.10923981666565	response	0	j		184.0	/experiments/knapen_AOT/AOT_stimuli/pictures/0301_fw.png	305.0835018157959	
187	178.12581586837769	picture	0		97	185.0	/experiments/knapen_AOT/AOT_stimuli/pictures/1030_fw.png	305.10007786750793	0.8166539669036865
187	178.91973280906677	response	0	j		185.0	/experiments/knapen_AOT/AOT_stimuli/pictures/1030_fw.png	305.893994808197	
188	178.94246983528137	picture	0		101	186.0	/experiments/knapen_AOT/AOT_stimuli/pictures/1200_fw.png	305.9167318344116	0.8435640335083008
188	179.77600193023682	response	0	j		186.0	/experiments/knapen_AOT/AOT_stimuli/pictures/1200_fw.png	306.75026392936707	
189	179.78603386878967	picture	0		104	187.0	/experiments/knapen_AOT/AOT_stimuli/pictures/0826_fw.png	306.7602958679199	0.8680930137634277
189	180.6426157951355	response	0	j		187.0	/experiments/knapen_AOT/AOT_stimuli/pictures/0826_fw.png	307.61687779426575	
190	180.6541268825531	picture	0		99	188.0	/experiments/knapen_AOT/AOT_stimuli/pictures/1428_fw.png	307.62838888168335	0.8264260292053223
190	181.46774291992188	response	0	j		188.0	/experiments/knapen_AOT/AOT_stimuli/pictures/1428_fw.png	308.4420049190521	
191	181.48055291175842	picture	0		100	189.0	/experiments/knapen_AOT/AOT_stimuli/pictures/0271_fw.png	308.4548149108887	0.8332750797271729
191	182.30099081993103	response	0	k		189.0	/experiments/knapen_AOT/AOT_stimuli/pictures/0271_fw.png	309.2752528190613	
192	182.3138279914856	picture	0		107	190.0	/experiments/knapen_AOT/AOT_stimuli/pictures/1221_fw.png	309.28808999061584	0.8890089988708496
192	183.1926908493042	response	0	j		190.0	/experiments/knapen_AOT/AOT_stimuli/pictures/1221_fw.png	310.16695284843445	
193	183.20283699035645	picture	0		103	191.0	/experiments/knapen_AOT/AOT_stimuli/pictures/1844_fw.png	310.1770989894867	0.8610429763793945
193	184.05098295211792	response	0	k		191.0	/experiments/knapen_AOT/AOT_stimuli/pictures/1844_fw.png	311.02524495124817	
194	184.06387996673584	picture	0		103	192.0	/experiments/knapen_AOT/AOT_stimuli/pictures/1787_fw.png	311.0381419658661	0.8541049957275391
194	184.90941500663757	response	0	k		192.0	/experiments/knapen_AOT/AOT_stimuli/pictures/1787_fw.png	311.8836770057678	
195	184.91798496246338	picture	0		108	193.0	/experiments/knapen_AOT/AOT_stimuli/pictures/0556_fw.png	311.8922469615936	0.9028868675231934
195	185.80941486358643	response	0	k		193.0	/experiments/knapen_AOT/AOT_stimuli/pictures/0556_fw.png	312.7836768627167	
196	185.82087182998657	picture	0		162	194.0	/experiments/knapen_AOT/AOT_stimuli/pictures/0521_fw.png	312.7951338291168	1.3470499515533447
196	187.1525959968567	response	0	k		194.0	/experiments/knapen_AOT/AOT_stimuli/pictures/0521_fw.png	314.12685799598694	
197	187.16792178153992	picture	0		99	195.0	/experiments/knapen_AOT/AOT_stimuli/pictures/0050_fw.png	314.14218378067017	0.8265130519866943
197	187.98437690734863	response	0	k		195.0	/experiments/knapen_AOT/AOT_stimuli/pictures/0050_fw.png	314.9586389064789	
198	187.9944348335266	picture	0		100	196.0	/experiments/knapen_AOT/AOT_stimuli/pictures/0561_fw.png	314.96869683265686	0.833482027053833
198	188.8177239894867	response	0	k		196.0	/experiments/knapen_AOT/AOT_stimuli/pictures/0561_fw.png	315.79198598861694	
199	188.82791686058044	picture	0		129	197.0	/experiments/knapen_AOT/AOT_stimuli/pictures/0796_fw.png	315.8021788597107	1.0814549922943115
199	189.89276099205017	response	0	j		197.0	/experiments/knapen_AOT/AOT_stimuli/pictures/0796_fw.png	316.8670229911804	
200	189.90937185287476	picture	0		411	198.0	/experiments/knapen_AOT/AOT_stimuli/pictures/0061_fw.png	316.883633852005	3.4253950119018555
200	193.31943893432617	response	0	j		198.0	/experiments/knapen_AOT/AOT_stimuli/pictures/0061_fw.png	320.2937009334564	
201	193.3347668647766	picture	0		88	199.0	/experiments/knapen_AOT/AOT_stimuli/pictures/1604_fw.png	320.30902886390686	0.7662179470062256
201	194.0849359035492	response	0	k		199.0	/experiments/knapen_AOT/AOT_stimuli/pictures/1604_fw.png	321.05919790267944	
202	194.10098481178284	picture	0		92	200.0	/experiments/knapen_AOT/AOT_stimuli/pictures/0592_fw.png	321.0752468109131	0.7685420513153076
202	194.8594617843628	response	0	k		200.0	/experiments/knapen_AOT/AOT_stimuli/pictures/0592_fw.png	321.83372378349304	
203	194.86952686309814	picture	0		105	201.0	/experiments/knapen_AOT/AOT_stimuli/pictures/0913_fw.png	321.8437888622284	0.8750319480895996
203	195.72772979736328	response	0	k		201.0	/experiments/knapen_AOT/AOT_stimuli/pictures/0913_fw.png	322.70199179649353	
204	195.74455881118774	picture	0		101	202.0	/experiments/knapen_AOT/AOT_stimuli/pictures/0522_fw.png	322.718820810318	0.8402061462402344
204	196.5761377811432	response	0	k		202.0	/experiments/knapen_AOT/AOT_stimuli/pictures/0522_fw.png	323.55039978027344	
205	196.58476495742798	picture	0		182	203.0	/experiments/knapen_AOT/AOT_stimuli/pictures/0266_fw.png	323.5590269565582	1.5207910537719727
205	198.09288597106934	response	0	k		203.0	/experiments/knapen_AOT/AOT_stimuli/pictures/0266_fw.png	325.0671479701996	
206	198.10555601119995	picture	0		344	204.0	/experiments/knapen_AOT/AOT_stimuli/pictures/2141_fw.png	325.0798180103302	2.868095874786377
206	200.9526858329773	response	0	k		204.0	/experiments/knapen_AOT/AOT_stimuli/pictures/2141_fw.png	327.92694783210754	
207	200.97365188598633	picture	0		97	205.0	/experiments/knapen_AOT/AOT_stimuli/pictures/2019_fw.png	327.9479138851166	0.8126471042633057
207	201.77617383003235	response	0	j		205.0	/experiments/knapen_AOT/AOT_stimuli/pictures/2019_fw.png	328.7504358291626	
208	201.78629899024963	picture	0		100	206.0	/experiments/knapen_AOT/AOT_stimuli/pictures/1622_fw.png	328.7605609893799	0.8333489894866943
208	202.60957193374634	response	0	j		206.0	/experiments/knapen_AOT/AOT_stimuli/pictures/1622_fw.png	329.5838339328766	
209	202.61964797973633	picture	0		157	207.0	/experiments/knapen_AOT/AOT_stimuli/pictures/0096_fw.png	329.5939099788666	1.3124480247497559
209	203.91831398010254	response	0	j		207.0	/experiments/knapen_AOT/AOT_stimuli/pictures/0096_fw.png	330.8925759792328	
210	203.93209600448608	picture	0		105	208.0	/experiments/knapen_AOT/AOT_stimuli/pictures/1539_fw.png	330.90635800361633	0.8819229602813721
210	204.80123281478882	response	0	k		208.0	/experiments/knapen_AOT/AOT_stimuli/pictures/1539_fw.png	331.77549481391907	
211	204.81401896476746	picture	0		184	209.0	/experiments/knapen_AOT/AOT_stimuli/pictures/0316_fw.png	331.7882809638977	1.53718900680542
211	206.32799196243286	response	0	j		209.0	/experiments/knapen_AOT/AOT_stimuli/pictures/0316_fw.png	333.3022539615631	
212	206.35120797157288	picture	0		93	210.0	/experiments/knapen_AOT/AOT_stimuli/pictures/2054_fw.png	333.3254699707031	0.775291919708252
212	207.11798691749573	response	0	j		210.0	/experiments/knapen_AOT/AOT_stimuli/pictures/2054_fw.png	334.092248916626	
213	207.12649989128113	picture	0		101	211.0	/experiments/knapen_AOT/AOT_stimuli/pictures/2015_fw.png	334.1007618904114	0.847322940826416
213	207.96002888679504	response	0	j		211.0	/experiments/knapen_AOT/AOT_stimuli/pictures/2015_fw.png	334.9342908859253	
214	207.97382283210754	picture	0		148	212.0	/experiments/knapen_AOT/AOT_stimuli/pictures/1762_fw.png	334.9480848312378	1.2360360622406006
214	209.2013499736786	response	0	j		212.0	/experiments/knapen_AOT/AOT_stimuli/pictures/1762_fw.png	336.17561197280884	
215	209.20985889434814	picture	0		159	213.0	/experiments/knapen_AOT/AOT_stimuli/pictures/0944_fw.png	336.1841208934784	1.3264439105987549
215	210.52634692192078	response	0	j		213.0	/experiments/knapen_AOT/AOT_stimuli/pictures/0944_fw.png	337.500608921051	
216	210.5363028049469	picture	0		121	214.0	/experiments/knapen_AOT/AOT_stimuli/pictures/1811_fw.png	337.51056480407715	1.006904125213623
216	211.5279529094696	response	0	k		214.0	/experiments/knapen_AOT/AOT_stimuli/pictures/1811_fw.png	338.50221490859985	
217	211.54320693016052	picture	0		119	215.0	/experiments/knapen_AOT/AOT_stimuli/pictures/1294_fw.png	338.51746892929077	0.9931979179382324
217	212.52637481689453	response	0	k		215.0	/experiments/knapen_AOT/AOT_stimuli/pictures/1294_fw.png	339.5006368160248	
218	212.53640484809875	picture	0		94	216.0	/experiments/knapen_AOT/AOT_stimuli/pictures/0713_fw.png	339.510666847229	0.7846150398254395
218	213.30966997146606	response	0	j		216.0	/experiments/knapen_AOT/AOT_stimuli/pictures/0713_fw.png	340.2839319705963	
219	213.3210198879242	picture	0		109	217.0	/experiments/knapen_AOT/AOT_stimuli/pictures/1740_fw.png	340.29528188705444	0.9136109352111816
219	214.21802186965942	response	0	k		217.0	/experiments/knapen_AOT/AOT_stimuli/pictures/1740_fw.png	341.1922838687897	
220	214.23463082313538	picture	0		103	218.0	/experiments/knapen_AOT/AOT_stimuli/pictures/0334_fw.png	341.2088928222656	0.8643150329589844
220	215.08508682250977	response	0	k		218.0	/experiments/knapen_AOT/AOT_stimuli/pictures/0334_fw.png	342.05934882164	
221	215.09894585609436	picture	0		105	219.0	/experiments/knapen_AOT/AOT_stimuli/pictures/1807_fw.png	342.0732078552246	0.8818891048431396
221	215.96803283691406	response	0	k		219.0	/experiments/knapen_AOT/AOT_stimuli/pictures/1807_fw.png	342.9422948360443	
222	215.9808349609375	picture	0		94	220.0	/experiments/knapen_AOT/AOT_stimuli/pictures/1438_fw.png	342.95509696006775	0.7847869396209717
222	216.75188279151917	response	0	j		220.0	/experiments/knapen_AOT/AOT_stimuli/pictures/1438_fw.png	343.7261447906494	
223	216.76562190055847	picture	0		112	221.0	/experiments/knapen_AOT/AOT_stimuli/pictures/0534_fw.png	343.7398838996887	0.9373230934143066
223	217.69315791130066	response	0	j		221.0	/experiments/knapen_AOT/AOT_stimuli/pictures/0534_fw.png	344.6674199104309	
224	217.70294499397278	picture	0		106	222.0	/experiments/knapen_AOT/AOT_stimuli/pictures/1803_fw.png	344.677206993103	0.881889820098877
224	218.576584815979	response	0	j		222.0	/experiments/knapen_AOT/AOT_stimuli/pictures/1803_fw.png	345.55084681510925	
225	218.58483481407166	picture	0		106	223.0	/experiments/knapen_AOT/AOT_stimuli/pictures/1821_fw.png	345.5590968132019	0.888930082321167
225	219.4599928855896	response	0	k		223.0	/experiments/knapen_AOT/AOT_stimuli/pictures/1821_fw.png	346.43425488471985	
226	219.47376489639282	picture	0		101	224.0	/experiments/knapen_AOT/AOT_stimuli/pictures/1115_fw.png	346.44802689552307	0.8526051044464111
226	220.30992197990417	response	0	j		224.0	/experiments/knapen_AOT/AOT_stimuli/pictures/1115_fw.png	347.2841839790344	
227	220.32637000083923	picture	0		116	225.0	/experiments/knapen_AOT/AOT_stimuli/pictures/0254_fw.png	347.3006319999695	0.9749929904937744
227	221.28488898277283	response	0	k		225.0	/experiments/knapen_AOT/AOT_stimuli/pictures/0254_fw.png	348.2591509819031	
228	221.301362991333	picture	0		96	226.0	/experiments/knapen_AOT/AOT_stimuli/pictures/0506_fw.png	348.27562499046326	0.8044629096984863
228	222.09321784973145	response	0	j		226.0	/experiments/knapen_AOT/AOT_stimuli/pictures/0506_fw.png	349.0674798488617	
229	222.1058259010315	picture	0		96	227.0	/experiments/knapen_AOT/AOT_stimuli/pictures/1429_fw.png	349.08008790016174	0.7985470294952393
229	222.89322996139526	response	0	j		227.0	/experiments/knapen_AOT/AOT_stimuli/pictures/1429_fw.png	349.8674919605255	
230	222.90437293052673	picture	0		97	228.0	/experiments/knapen_AOT/AOT_stimuli/pictures/2128_fw.png	349.878634929657	0.8055059909820557
230	223.70161986351013	response	0	j		228.0	/experiments/knapen_AOT/AOT_stimuli/pictures/2128_fw.png	350.6758818626404	
231	223.7098789215088	picture	0		126	229.0	/experiments/knapen_AOT/AOT_stimuli/pictures/0027_fw.png	350.68414092063904	1.0581669807434082
231	224.7518630027771	response	0	k		229.0	/experiments/knapen_AOT/AOT_stimuli/pictures/0027_fw.png	351.72612500190735	
232	224.7680459022522	picture	0		95	230.0	/experiments/knapen_AOT/AOT_stimuli/pictures/1789_fw.png	351.74230790138245	0.796044111251831
232	225.54507088661194	response	0	j		230.0	/experiments/knapen_AOT/AOT_stimuli/pictures/1789_fw.png	352.5193328857422	
233	225.56409001350403	picture	0		88	231.0	/experiments/knapen_AOT/AOT_stimuli/pictures/1148_fw.png	352.5383520126343	0.7291879653930664
233	226.2849359512329	response	0	j		231.0	/experiments/knapen_AOT/AOT_stimuli/pictures/1148_fw.png	353.25919795036316	
234	226.2932779788971	picture	0		105	232.0	/experiments/knapen_AOT/AOT_stimuli/pictures/0862_fw.png	353.26753997802734	0.8749818801879883
234	227.15996599197388	response	0	j		232.0	/experiments/knapen_AOT/AOT_stimuli/pictures/0862_fw.png	354.1342279911041	
235	227.16825985908508	picture	0		99	233.0	/experiments/knapen_AOT/AOT_stimuli/pictures/1594_fw.png	354.14252185821533	0.8264501094818115
235	227.98494291305542	response	0	k		233.0	/experiments/knapen_AOT/AOT_stimuli/pictures/1594_fw.png	354.95920491218567	
236	227.9947099685669	picture	0		95	234.0	/experiments/knapen_AOT/AOT_stimuli/pictures/1792_fw.png	354.96897196769714	0.791813850402832
236	228.77674293518066	response	0	k		234.0	/experiments/knapen_AOT/AOT_stimuli/pictures/1792_fw.png	355.7510049343109	
237	228.78652381896973	picture	0		98	235.0	/experiments/knapen_AOT/AOT_stimuli/pictures/0003_fw.png	355.7607858181	0.8193070888519287
237	229.59330296516418	response	0	j		235.0	/experiments/knapen_AOT/AOT_stimuli/pictures/0003_fw.png	356.56756496429443	
238	229.60583090782166	picture	0		101	236.0	/experiments/knapen_AOT/AOT_stimuli/pictures/1287_fw.png	356.5800929069519	0.8402481079101562
238	230.43494486808777	response	0	k		236.0	/experiments/knapen_AOT/AOT_stimuli/pictures/1287_fw.png	357.409206867218	
239	230.4460790157318	picture	0		106	237.0	/experiments/knapen_AOT/AOT_stimuli/pictures/1498_fw.png	357.42034101486206	0.8887457847595215
239	231.3184449672699	response	0	k		237.0	/experiments/knapen_AOT/AOT_stimuli/pictures/1498_fw.png	358.29270696640015	
240	231.33482480049133	picture	0		100	238.0	/experiments/knapen_AOT/AOT_stimuli/pictures/0684_fw.png	358.3090867996216	0.8334991931915283
240	232.15321278572083	response	0	j		238.0	/experiments/knapen_AOT/AOT_stimuli/pictures/0684_fw.png	359.1274747848511	
241	232.16832399368286	picture	0		96	239.0	/experiments/knapen_AOT/AOT_stimuli/pictures/1637_fw.png	359.1425859928131	0.8055558204650879
241	232.95335483551025	response	0	j		239.0	/experiments/knapen_AOT/AOT_stimuli/pictures/1637_fw.png	359.9276168346405	
242	232.97387981414795	picture	0		89	240.0	/experiments/knapen_AOT/AOT_stimuli/pictures/1904_fw.png	359.9481418132782	0.7500081062316895
242	233.7101128101349	response	0	j		240.0	/experiments/knapen_AOT/AOT_stimuli/pictures/1904_fw.png	360.68437480926514	
243	233.72388792037964	picture	0		99	241.0	/experiments/knapen_AOT/AOT_stimuli/pictures/0398_fw.png	360.6981499195099	0.84722900390625
243	234.5533800125122	response	0	j		241.0	/experiments/knapen_AOT/AOT_stimuli/pictures/0398_fw.png	361.52764201164246	
244	234.5711169242859	picture	0		100	242.0	/experiments/knapen_AOT/AOT_stimuli/pictures/1070_fw.png	361.54537892341614	0.8333470821380615
244	235.39343786239624	response	0	k		242.0	/experiments/knapen_AOT/AOT_stimuli/pictures/1070_fw.png	362.3676998615265	
245	235.40446400642395	picture	0		100	243.0	/experiments/knapen_AOT/AOT_stimuli/pictures/1012_fw.png	362.3787260055542	0.8334047794342041
245	236.22680282592773	response	0	j		243.0	/experiments/knapen_AOT/AOT_stimuli/pictures/1012_fw.png	363.201064825058	
246	236.23786878585815	picture	0		110	244.0	/experiments/knapen_AOT/AOT_stimuli/pictures/0371_fw.png	363.2121307849884	0.9167070388793945
246	237.13663291931152	response	0	j		244.0	/experiments/knapen_AOT/AOT_stimuli/pictures/0371_fw.png	364.1108949184418	
247	237.15457582473755	picture	0		100	245.0	/experiments/knapen_AOT/AOT_stimuli/pictures/1689_fw.png	364.1288378238678	0.8332550525665283
247	237.97684788703918	response	0	k		245.0	/experiments/knapen_AOT/AOT_stimuli/pictures/1689_fw.png	364.95110988616943	
248	237.98783087730408	picture	0		104	246.0	/experiments/knapen_AOT/AOT_stimuli/pictures/1058_fw.png	364.9620928764343	0.868027925491333
248	238.8435299396515	response	0	j		246.0	/experiments/knapen_AOT/AOT_stimuli/pictures/1058_fw.png	365.81779193878174	
249	238.8558588027954	picture	0		93	247.0	/experiments/knapen_AOT/AOT_stimuli/pictures/2047_fw.png	365.83012080192566	0.7708032131195068
249	239.6185269355774	response	0	j		247.0	/experiments/knapen_AOT/AOT_stimuli/pictures/2047_fw.png	366.59278893470764	
250	239.62666201591492	picture	0		124	248.0	/experiments/knapen_AOT/AOT_stimuli/pictures/2151_fw.png	366.60092401504517	1.0349388122558594
250	240.65188097953796	response	0	j		248.0	/experiments/knapen_AOT/AOT_stimuli/pictures/2151_fw.png	367.6261429786682	
251	240.66160082817078	picture	0		114	249.0	/experiments/knapen_AOT/AOT_stimuli/pictures/0234_fw.png	367.635862827301	0.9512660503387451
251	241.6018669605255	response	0	k		249.0	/experiments/knapen_AOT/AOT_stimuli/pictures/0234_fw.png	368.57612895965576	
252	241.61286687850952	picture	0		100	250.0	/experiments/knapen_AOT/AOT_stimuli/pictures/0163_fw.png	368.58712887763977	0.8333520889282227
252	242.43513584136963	response	0	j		250.0	/experiments/knapen_AOT/AOT_stimuli/pictures/0163_fw.png	369.4093978404999	
253	242.44621896743774	picture	0		95	251.0	/experiments/knapen_AOT/AOT_stimuli/pictures/0390_fw.png	369.420480966568	0.7916209697723389
253	243.22687697410583	response	0	j		251.0	/experiments/knapen_AOT/AOT_stimuli/pictures/0390_fw.png	370.2011389732361	
254	243.23783993721008	picture	0		97	252.0	/experiments/knapen_AOT/AOT_stimuli/pictures/1448_fw.png	370.21210193634033	0.8055319786071777
254	244.03516578674316	response	0	j		252.0	/experiments/knapen_AOT/AOT_stimuli/pictures/1448_fw.png	371.0094277858734	
255	244.04337191581726	picture	0		107	253.0	/experiments/knapen_AOT/AOT_stimuli/pictures/0806_fw.png	371.0176339149475	0.8959510326385498
255	244.92019391059875	response	0	k		253.0	/experiments/knapen_AOT/AOT_stimuli/pictures/0806_fw.png	371.894455909729	
256	244.9393229484558	picture	0		90	254.0	/experiments/knapen_AOT/AOT_stimuli/pictures/0500_fw.png	371.91358494758606	0.7499828338623047
256	245.67694878578186	response	0	j		254.0	/experiments/knapen_AOT/AOT_stimuli/pictures/0500_fw.png	372.6512107849121	
257	245.68930578231812	picture	0		92	255.0	/experiments/knapen_AOT/AOT_stimuli/pictures/1848_fw.png	372.66356778144836	0.7639172077178955
257	246.44364190101624	response	0	j		255.0	/experiments/knapen_AOT/AOT_stimuli/pictures/1848_fw.png	373.4179039001465	
258	246.453222990036	picture	0		120	256.0	/experiments/knapen_AOT/AOT_stimuli/pictures/1725_fw.png	373.42748498916626	0.999985933303833
258	247.44364094734192	response	0	k		256.0	/experiments/knapen_AOT/AOT_stimuli/pictures/1725_fw.png	374.41790294647217	
259	247.45320892333984	picture	0		105	257.0	/experiments/knapen_AOT/AOT_stimuli/pictures/1927_fw.png	374.4274709224701	0.8750760555267334
259	248.31862497329712	response	0	k		257.0	/experiments/knapen_AOT/AOT_stimuli/pictures/1927_fw.png	375.29288697242737	
260	248.32828497886658	picture	0		92	258.0	/experiments/knapen_AOT/AOT_stimuli/pictures/1928_fw.png	375.3025469779968	0.7734739780426025
260	249.08526587486267	response	0	k		258.0	/experiments/knapen_AOT/AOT_stimuli/pictures/1928_fw.png	376.0595278739929	
261	249.10175895690918	picture	0		104	259.0	/experiments/knapen_AOT/AOT_stimuli/pictures/0238_fw.png	376.07602095603943	0.8750109672546387
261	249.95369482040405	response	0	j		259.0	/experiments/knapen_AOT/AOT_stimuli/pictures/0238_fw.png	376.9279568195343	
262	249.97676992416382	picture	0		102	260.0	/experiments/knapen_AOT/AOT_stimuli/pictures/0554_fw.png	376.95103192329407	0.8583149909973145
262	250.81864285469055	response	0	j		260.0	/experiments/knapen_AOT/AOT_stimuli/pictures/0554_fw.png	377.7929048538208	
263	250.83508491516113	picture	0		102	261.0	/experiments/knapen_AOT/AOT_stimuli/pictures/1077_fw.png	377.8093469142914	0.8543360233306885
263	251.67700481414795	response	0	k		261.0	/experiments/knapen_AOT/AOT_stimuli/pictures/1077_fw.png	378.6512668132782	
264	251.68942093849182	picture	0		110	262.0	/experiments/knapen_AOT/AOT_stimuli/pictures/1887_fw.png	378.66368293762207	0.9165520668029785
264	252.59362483024597	response	0	k		262.0	/experiments/knapen_AOT/AOT_stimuli/pictures/1887_fw.png	379.5678868293762	
265	252.6059730052948	picture	0		110	263.0	/experiments/knapen_AOT/AOT_stimuli/pictures/1618_fw.png	379.58023500442505	0.9166898727416992
265	253.51025795936584	response	0	k		263.0	/experiments/knapen_AOT/AOT_stimuli/pictures/1618_fw.png	380.4845199584961	
266	253.5226628780365	picture	0		96	264.0	/experiments/knapen_AOT/AOT_stimuli/pictures/2163_fw.png	380.49692487716675	0.7986040115356445
266	254.31027579307556	response	0	j		264.0	/experiments/knapen_AOT/AOT_stimuli/pictures/2163_fw.png	381.2845377922058	
267	254.32126688957214	picture	0		104	265.0	/experiments/knapen_AOT/AOT_stimuli/pictures/1884_fw.png	381.2955288887024	0.8681249618530273
267	255.17700386047363	response	0	k		265.0	/experiments/knapen_AOT/AOT_stimuli/pictures/1884_fw.png	382.1512658596039	
268	255.18939185142517	picture	0		97	266.0	/experiments/knapen_AOT/AOT_stimuli/pictures/1958_fw.png	382.1636538505554	0.8124639987945557
268	255.98528385162354	response	0	k		266.0	/experiments/knapen_AOT/AOT_stimuli/pictures/1958_fw.png	382.9595458507538	
269	256.0018558502197	picture	0		116	267.0	/experiments/knapen_AOT/AOT_stimuli/pictures/0358_fw.png	382.97611784935	0.9750070571899414
269	256.96039390563965	response	0	j		267.0	/experiments/knapen_AOT/AOT_stimuli/pictures/0358_fw.png	383.9346559047699	
270	256.97686290740967	picture	0		212	268.0	/experiments/knapen_AOT/AOT_stimuli/pictures/1389_fw.png	383.9511249065399	1.7680270671844482
270	258.7287509441376	response	0	j		268.0	/experiments/knapen_AOT/AOT_stimuli/pictures/1389_fw.png	385.7030129432678	
271	258.7448899745941	picture	0		101	269.0	/experiments/knapen_AOT/AOT_stimuli/pictures/1402_fw.png	385.71915197372437	0.8486058712005615
271	259.5770878791809	response	0	k		269.0	/experiments/knapen_AOT/AOT_stimuli/pictures/1402_fw.png	386.55134987831116	
272	259.5934958457947	picture	0		101	270.0	/experiments/knapen_AOT/AOT_stimuli/pictures/0471_fw.png	386.5677578449249	0.845890998840332
272	260.42703580856323	response	0	k		270.0	/experiments/knapen_AOT/AOT_stimuli/pictures/0471_fw.png	387.4012978076935	
273	260.439386844635	picture	0		108	271.0	/experiments/knapen_AOT/AOT_stimuli/pictures/1920_fw.png	387.41364884376526	0.9041249752044678
273	261.32042694091797	response	0	k		271.0	/experiments/knapen_AOT/AOT_stimuli/pictures/1920_fw.png	388.2946889400482	
274	261.3435118198395	picture	0		104	272.0	/experiments/knapen_AOT/AOT_stimuli/pictures/0735_fw.png	388.3177738189697	0.8667380809783936
274	262.2021019458771	response	0	k		272.0	/experiments/knapen_AOT/AOT_stimuli/pictures/0735_fw.png	389.1763639450073	
275	262.21024990081787	picture	0		104	273.0	/experiments/knapen_AOT/AOT_stimuli/pictures/0761_fw.png	389.1845118999481	0.8680779933929443
275	263.06888699531555	response	0	k		273.0	/experiments/knapen_AOT/AOT_stimuli/pictures/0761_fw.png	390.0431489944458	
276	263.0783278942108	picture	0		101	274.0	/experiments/knapen_AOT/AOT_stimuli/pictures/1344_fw.png	390.05258989334106	0.8485689163208008
276	263.910484790802	response	0	j		274.0	/experiments/knapen_AOT/AOT_stimuli/pictures/1344_fw.png	390.88474678993225	
277	263.9268968105316	picture	0		114	275.0	/experiments/knapen_AOT/AOT_stimuli/pictures/0891_fw.png	390.90115880966187	0.9499859809875488
277	264.8689079284668	response	0	j		275.0	/experiments/knapen_AOT/AOT_stimuli/pictures/0891_fw.png	391.84316992759705	
278	264.87688279151917	picture	0		116	276.0	/experiments/knapen_AOT/AOT_stimuli/pictures/0527_fw.png	391.8511447906494	0.9750251770019531
278	265.83544182777405	response	0	j		276.0	/experiments/knapen_AOT/AOT_stimuli/pictures/0527_fw.png	392.8097038269043	
279	265.8519079685211	picture	0		108	277.0	/experiments/knapen_AOT/AOT_stimuli/pictures/1128_fw.png	392.82616996765137	0.9000258445739746
279	266.73702692985535	response	0	j		277.0	/experiments/knapen_AOT/AOT_stimuli/pictures/1128_fw.png	393.7112889289856	
280	266.7519338130951	picture	0		99	278.0	/experiments/knapen_AOT/AOT_stimuli/pictures/1569_fw.png	393.72619581222534	0.8264310359954834
280	267.56890988349915	response	0	j		278.0	/experiments/knapen_AOT/AOT_stimuli/pictures/1569_fw.png	394.5431718826294	
281	267.5783648490906	picture	0		101	279.0	/experiments/knapen_AOT/AOT_stimuli/pictures/0406_fw.png	394.5526268482208	0.8735740184783936
281	268.43553495407104	response	0	j		279.0	/experiments/knapen_AOT/AOT_stimuli/pictures/0406_fw.png	395.4097969532013	
282	268.45193886756897	picture	0		99	280.0	/experiments/knapen_AOT/AOT_stimuli/pictures/2135_fw.png	395.4262008666992	0.8333530426025391
282	269.268914937973	response	0	k		280.0	/experiments/knapen_AOT/AOT_stimuli/pictures/2135_fw.png	396.24317693710327	
283	269.2852919101715	picture	0		96	281.0	/experiments/knapen_AOT/AOT_stimuli/pictures/0609_fw.png	396.25955390930176	0.800044059753418
283	270.07716393470764	response	0	j		281.0	/experiments/knapen_AOT/AOT_stimuli/pictures/0609_fw.png	397.0514259338379	
284	270.0853359699249	picture	0		97	282.0	/experiments/knapen_AOT/AOT_stimuli/pictures/0802_fw.png	397.0595979690552	0.8166508674621582
284	270.88553500175476	response	0	j		282.0	/experiments/knapen_AOT/AOT_stimuli/pictures/0802_fw.png	397.859797000885	
285	270.9019868373871	picture	0		99	283.0	/experiments/knapen_AOT/AOT_stimuli/pictures/0832_fw.png	397.87624883651733	0.8291971683502197
285	271.71892189979553	response	0	j		283.0	/experiments/knapen_AOT/AOT_stimuli/pictures/0832_fw.png	398.6931838989258	
286	271.7311840057373	picture	0		102	284.0	/experiments/knapen_AOT/AOT_stimuli/pictures/1015_fw.png	398.70544600486755	0.8472909927368164
286	272.56891894340515	response	0	j		284.0	/experiments/knapen_AOT/AOT_stimuli/pictures/1015_fw.png	399.5431809425354	
287	272.5784749984741	picture	0		121	285.0	/experiments/knapen_AOT/AOT_stimuli/pictures/1619_fw.png	399.55273699760437	1.0068879127502441
287	273.57720398902893	response	0	j		285.0	/experiments/knapen_AOT/AOT_stimuli/pictures/1619_fw.png	400.5514659881592	
288	273.58536291122437	picture	0		95	286.0	/experiments/knapen_AOT/AOT_stimuli/pictures/0784_fw.png	400.5596249103546	0.799983024597168
288	274.3690068721771	response	0	j		286.0	/experiments/knapen_AOT/AOT_stimuli/pictures/0784_fw.png	401.3432688713074	
289	274.38534593582153	picture	0		151	287.0	/experiments/knapen_AOT/AOT_stimuli/pictures/1278_fw.png	401.3596079349518	1.2624938488006592
289	275.63562393188477	response	0	k		287.0	/experiments/knapen_AOT/AOT_stimuli/pictures/1278_fw.png	402.609885931015	
290	275.6478397846222	picture	0		97	288.0	/experiments/knapen_AOT/AOT_stimuli/pictures/2063_fw.png	402.62210178375244	0.8056130409240723
290	276.4439888000488	response	0	k		288.0	/experiments/knapen_AOT/AOT_stimuli/pictures/2063_fw.png	403.4182507991791	
291	276.45345282554626	picture	0		100	289.0	/experiments/knapen_AOT/AOT_stimuli/pictures/0240_fw.png	403.4277148246765	0.8334231376647949
291	277.2773787975311	response	0	j		289.0	/experiments/knapen_AOT/AOT_stimuli/pictures/0240_fw.png	404.2516407966614	
292	277.28687596321106	picture	0		106	290.0	/experiments/knapen_AOT/AOT_stimuli/pictures/1974_fw.png	404.2611379623413	0.8818800449371338
292	278.1539089679718	response	0	j		290.0	/experiments/knapen_AOT/AOT_stimuli/pictures/1974_fw.png	405.12817096710205	
293	278.1687560081482	picture	0		106	291.0	/experiments/knapen_AOT/AOT_stimuli/pictures/1009_fw.png	405.14301800727844	0.8888139724731445
293	279.04391980171204	response	0	k		291.0	/experiments/knapen_AOT/AOT_stimuli/pictures/1009_fw.png	406.0181818008423	
294	279.05756998062134	picture	0		105	292.0	/experiments/knapen_AOT/AOT_stimuli/pictures/1728_fw.png	406.0318319797516	0.8819489479064941
294	279.9204409122467	response	0	j		292.0	/experiments/knapen_AOT/AOT_stimuli/pictures/1728_fw.png	406.89470291137695	
295	279.93951892852783	picture	0		98	293.0	/experiments/knapen_AOT/AOT_stimuli/pictures/0444_fw.png	406.9137809276581	0.8125920295715332
295	280.73731994628906	response	0	k		293.0	/experiments/knapen_AOT/AOT_stimuli/pictures/0444_fw.png	407.7115819454193	
296	280.75211095809937	picture	0		95	294.0	/experiments/knapen_AOT/AOT_stimuli/pictures/0532_fw.png	407.7263729572296	0.7916719913482666
296	281.52898383140564	response	0	j		294.0	/experiments/knapen_AOT/AOT_stimuli/pictures/0532_fw.png	408.5032458305359	
297	281.54378294944763	picture	0		103	295.0	/experiments/knapen_AOT/AOT_stimuli/pictures/2095_fw.png	408.5180449485779	0.8611140251159668
297	282.3939869403839	response	0	j		295.0	/experiments/knapen_AOT/AOT_stimuli/pictures/2095_fw.png	409.36824893951416	
298	282.4048969745636	picture	0		181	296.0	/experiments/knapen_AOT/AOT_stimuli/pictures/0267_fw.png	409.37915897369385	1.5140268802642822
298	283.9024329185486	response	0	k		296.0	/experiments/knapen_AOT/AOT_stimuli/pictures/0267_fw.png	410.87669491767883	
299	283.9189238548279	picture	0		104	297.0	/experiments/knapen_AOT/AOT_stimuli/pictures/1153_fw.png	410.89318585395813	0.8678929805755615
299	284.7774279117584	response	0	j		297.0	/experiments/knapen_AOT/AOT_stimuli/pictures/1153_fw.png	411.7516899108887	
300	284.78681683540344	picture	0		99	298.0	/experiments/knapen_AOT/AOT_stimuli/pictures/1581_fw.png	411.7610788345337	0.8263649940490723
300	285.602520942688	response	0	k		298.0	/experiments/knapen_AOT/AOT_stimuli/pictures/1581_fw.png	412.57678294181824	
301	285.6131818294525	picture	0		92	299.0	/experiments/knapen_AOT/AOT_stimuli/pictures/0597_fw.png	412.58744382858276	0.7723960876464844
301	286.36902379989624	response	0	j		299.0	/experiments/knapen_AOT/AOT_stimuli/pictures/0597_fw.png	413.3432857990265	
302	286.385577917099	picture	0		109	300.0	/experiments/knapen_AOT/AOT_stimuli/pictures/0529_fw.png	413.35983991622925	0.908250093460083
302	287.28577494621277	response	0	k		300.0	/experiments/knapen_AOT/AOT_stimuli/pictures/0529_fw.png	414.260036945343	
303	287.2938280105591	picture	0		147	301.0	/experiments/knapen_AOT/AOT_stimuli/pictures/0576_fw.png	414.26809000968933	1.2290828227996826
303	288.5107808113098	response	0	j		301.0	/experiments/knapen_AOT/AOT_stimuli/pictures/0576_fw.png	415.48504281044006	
304	288.52291083335876	picture	0		159	302.0	/experiments/knapen_AOT/AOT_stimuli/pictures/0364_fw.png	415.497172832489	1.3293850421905518
304	289.8357048034668	response	0	j		302.0	/experiments/knapen_AOT/AOT_stimuli/pictures/0364_fw.png	416.80996680259705	
305	289.8522958755493	picture	0		108	303.0	/experiments/knapen_AOT/AOT_stimuli/pictures/0293_fw.png	416.82655787467957	0.90830397605896
305	290.7373778820038	response	0	k		303.0	/experiments/knapen_AOT/AOT_stimuli/pictures/0293_fw.png	417.71163988113403	
306	290.7605998516083	picture	0		96	304.0	/experiments/knapen_AOT/AOT_stimuli/pictures/1861_fw.png	417.7348618507385	0.8083410263061523
306	291.54558992385864	response	0	k		304.0	/experiments/knapen_AOT/AOT_stimuli/pictures/1861_fw.png	418.5198519229889	
307	291.56894087791443	picture	0		104	305.0	/experiments/knapen_AOT/AOT_stimuli/pictures/1968_fw.png	418.5432028770447	0.8706789016723633
307	292.42759895324707	response	0	k		305.0	/experiments/knapen_AOT/AOT_stimuli/pictures/1968_fw.png	419.4018609523773	
308	292.4396197795868	picture	0		97	306.0	/experiments/knapen_AOT/AOT_stimuli/pictures/2077_fw.png	419.41388177871704	0.8057520389556885
308	293.235878944397	response	0	j		306.0	/experiments/knapen_AOT/AOT_stimuli/pictures/2077_fw.png	420.2101409435272	
309	293.2453718185425	picture	0		92	307.0	/experiments/knapen_AOT/AOT_stimuli/pictures/1461_fw.png	420.21963381767273	0.7736029624938965
309	294.0024437904358	response	0	k		307.0	/experiments/knapen_AOT/AOT_stimuli/pictures/1461_fw.png	420.97670578956604	
310	294.0189747810364	picture	0		98	308.0	/experiments/knapen_AOT/AOT_stimuli/pictures/0694_fw.png	420.9932367801666	0.8166201114654541
310	294.82765197753906	response	0	j		308.0	/experiments/knapen_AOT/AOT_stimuli/pictures/0694_fw.png	421.8019139766693	
311	294.83559489250183	picture	0		140	309.0	/experiments/knapen_AOT/AOT_stimuli/pictures/0166_fw.png	421.8098568916321	1.1750431060791016
311	295.9941349029541	response	0	k		309.0	/experiments/knapen_AOT/AOT_stimuli/pictures/0166_fw.png	422.96839690208435	
312	296.01063799858093	picture	0		154	310.0	/experiments/knapen_AOT/AOT_stimuli/pictures/1949_fw.png	422.9848999977112	1.2917377948760986
312	297.28594279289246	response	0	k		310.0	/experiments/knapen_AOT/AOT_stimuli/pictures/1949_fw.png	424.2602047920227	
313	297.30237579345703	picture	0		89	311.0	/experiments/knapen_AOT/AOT_stimuli/pictures/1724_fw.png	424.2766377925873	0.7500381469726562
313	298.03596091270447	response	0	j		311.0	/experiments/knapen_AOT/AOT_stimuli/pictures/1724_fw.png	425.0102229118347	
314	298.0524139404297	picture	0		86	312.0	/experiments/knapen_AOT/AOT_stimuli/pictures/0788_fw.png	425.02667593955994	0.7249720096588135
314	298.76084995269775	response	0	j		312.0	/experiments/knapen_AOT/AOT_stimuli/pictures/0788_fw.png	425.735111951828	
315	298.7773859500885	picture	0		93	313.0	/experiments/knapen_AOT/AOT_stimuli/pictures/0209_fw.png	425.75164794921875	0.7803399562835693
315	299.53749799728394	response	0	k		313.0	/experiments/knapen_AOT/AOT_stimuli/pictures/0209_fw.png	426.5117599964142	
316	299.55772590637207	picture	0		90	314.0	/experiments/knapen_AOT/AOT_stimuli/pictures/0493_fw.png	426.5319879055023	0.7613229751586914
316	300.30269479751587	response	0	j		314.0	/experiments/knapen_AOT/AOT_stimuli/pictures/0493_fw.png	427.2769567966461	
317	300.31904888153076	picture	0		131	315.0	/experiments/knapen_AOT/AOT_stimuli/pictures/0178_fw.png	427.293310880661	1.0928559303283691
317	301.40269684791565	response	0	j		315.0	/experiments/knapen_AOT/AOT_stimuli/pictures/0178_fw.png	428.3769588470459	
318	301.41190481185913	picture	0		99	316.0	/experiments/knapen_AOT/AOT_stimuli/pictures/2024_fw.png	428.3861668109894	0.832144021987915
318	302.2277338504791	response	0	k		316.0	/experiments/knapen_AOT/AOT_stimuli/pictures/2024_fw.png	429.2019958496094	
319	302.24404883384705	picture	0		96	317.0	/experiments/knapen_AOT/AOT_stimuli/pictures/1684_fw.png	429.2183108329773	0.808380126953125
319	303.0359950065613	response	0	k		317.0	/experiments/knapen_AOT/AOT_stimuli/pictures/1684_fw.png	430.0102570056915	
320	303.05242896080017	picture	0		93	318.0	/experiments/knapen_AOT/AOT_stimuli/pictures/2056_fw.png	430.0266909599304	0.7833478450775146
320	303.8192369937897	response	0	j		318.0	/experiments/knapen_AOT/AOT_stimuli/pictures/2056_fw.png	430.7934989929199	
321	303.8357768058777	picture	0		209	319.0	/experiments/knapen_AOT/AOT_stimuli/pictures/1392_fw.png	430.81003880500793	1.7499949932098389
321	305.569237947464	response	0	j		319.0	/experiments/knapen_AOT/AOT_stimuli/pictures/1392_fw.png	432.54349994659424	
322	305.5857717990875	picture	0		92	320.0	/experiments/knapen_AOT/AOT_stimuli/pictures/1075_fw.png	432.5600337982178	0.7706611156463623
322	306.33748388290405	response	0	j		320.0	/experiments/knapen_AOT/AOT_stimuli/pictures/1075_fw.png	433.3117458820343	
323	306.3564329147339	picture	0		121	321.0	/experiments/knapen_AOT/AOT_stimuli/pictures/0196_fw.png	433.33069491386414	1.0070440769195557
323	307.3458309173584	response	0	j		321.0	/experiments/knapen_AOT/AOT_stimuli/pictures/0196_fw.png	434.32009291648865	
324	307.36347699165344	picture	0		92	322.0	/experiments/knapen_AOT/AOT_stimuli/pictures/1174_fw.png	434.3377389907837	0.797400951385498
324	308.1375939846039	response	0	j		322.0	/experiments/knapen_AOT/AOT_stimuli/pictures/1174_fw.png	435.11185598373413	
325	308.16087794303894	picture	0		127	323.0	/experiments/knapen_AOT/AOT_stimuli/pictures/0291_fw.png	435.1351399421692	1.0666530132293701
325	309.21094489097595	response	0	j		323.0	/experiments/knapen_AOT/AOT_stimuli/pictures/0291_fw.png	436.1852068901062	
326	309.2275309562683	picture	0		114	324.0	/experiments/knapen_AOT/AOT_stimuli/pictures/2014_fw.png	436.20179295539856	0.9583158493041992
326	310.16928791999817	response	0	k		324.0	/experiments/knapen_AOT/AOT_stimuli/pictures/2014_fw.png	437.1435499191284	
327	310.1858468055725	picture	0		81	325.0	/experiments/knapen_AOT/AOT_stimuli/pictures/0468_fw.png	437.16010880470276	0.6834080219268799
327	310.8528079986572	response	0	k		325.0	/experiments/knapen_AOT/AOT_stimuli/pictures/0468_fw.png	437.8270699977875	
328	310.8692548274994	picture	0		88	326.0	/experiments/knapen_AOT/AOT_stimuli/pictures/1814_fw.png	437.84351682662964	0.7371950149536133
328	311.5943269729614	response	0	j		326.0	/experiments/knapen_AOT/AOT_stimuli/pictures/1814_fw.png	438.5685889720917	
329	311.606449842453	picture	0		97	327.0	/experiments/knapen_AOT/AOT_stimuli/pictures/1520_fw.png	438.58071184158325	0.8127341270446777
329	312.4028899669647	response	0	k		327.0	/experiments/knapen_AOT/AOT_stimuli/pictures/1520_fw.png	439.37715196609497	
330	312.4191839694977	picture	0		96	328.0	/experiments/knapen_AOT/AOT_stimuli/pictures/0952_fw.png	439.39344596862793	0.8053319454193115
330	313.211003780365	response	0	k		328.0	/experiments/knapen_AOT/AOT_stimuli/pictures/0952_fw.png	440.18526577949524	
331	313.224515914917	picture	0		89	329.0	/experiments/knapen_AOT/AOT_stimuli/pictures/2092_fw.png	440.19877791404724	0.753032922744751
331	313.9610710144043	response	0	j		329.0	/experiments/knapen_AOT/AOT_stimuli/pictures/2092_fw.png	440.93533301353455	
332	313.97754883766174	picture	0		95	330.0	/experiments/knapen_AOT/AOT_stimuli/pictures/0480_fw.png	440.951810836792	0.795583963394165
332	314.754252910614	response	0	j		330.0	/experiments/knapen_AOT/AOT_stimuli/pictures/0480_fw.png	441.72851490974426	
333	314.7731328010559	picture	0		91	331.0	/experiments/knapen_AOT/AOT_stimuli/pictures/1694_fw.png	441.74739480018616	0.7627770900726318
333	315.5194339752197	response	0	j		331.0	/experiments/knapen_AOT/AOT_stimuli/pictures/1694_fw.png	442.49369597435	
334	315.53590989112854	picture	0		92	332.0	/experiments/knapen_AOT/AOT_stimuli/pictures/0072_fw.png	442.5101718902588	0.7719600200653076
334	316.2943859100342	response	0	j		332.0	/experiments/knapen_AOT/AOT_stimuli/pictures/0072_fw.png	443.26864790916443	
335	316.30786991119385	picture	0		110	333.0	/experiments/knapen_AOT/AOT_stimuli/pictures/1523_fw.png	443.2821319103241	0.9280591011047363
335	317.2194459438324	response	0	k		333.0	/experiments/knapen_AOT/AOT_stimuli/pictures/1523_fw.png	444.19370794296265	
336	317.2359290122986	picture	0		103	334.0	/experiments/knapen_AOT/AOT_stimuli/pictures/0749_fw.png	444.21019101142883	0.8636159896850586
336	318.0860857963562	response	0	k		334.0	/experiments/knapen_AOT/AOT_stimuli/pictures/0749_fw.png	445.06034779548645	
337	318.09954500198364	picture	0		90	335.0	/experiments/knapen_AOT/AOT_stimuli/pictures/1000_fw.png	445.0738070011139	0.7569949626922607
337	318.8444929122925	response	0	j		335.0	/experiments/knapen_AOT/AOT_stimuli/pictures/1000_fw.png	445.81875491142273	
338	318.8565399646759	picture	0		95	336.0	/experiments/knapen_AOT/AOT_stimuli/pictures/1354_fw.png	445.83080196380615	0.7916438579559326
338	319.63621187210083	response	0	k		336.0	/experiments/knapen_AOT/AOT_stimuli/pictures/1354_fw.png	446.6104738712311	
339	319.64818382263184	picture	0		98	337.0	/experiments/knapen_AOT/AOT_stimuli/pictures/2051_fw.png	446.6224458217621	0.8211231231689453
339	320.45295882225037	response	0	j		337.0	/experiments/knapen_AOT/AOT_stimuli/pictures/2051_fw.png	447.4272208213806	
340	320.4693069458008	picture	0		128	338.0	/experiments/knapen_AOT/AOT_stimuli/pictures/0513_fw.png	447.44356894493103	1.0677809715270996
340	321.5210678577423	response	0	k		338.0	/experiments/knapen_AOT/AOT_stimuli/pictures/0513_fw.png	448.49532985687256	
341	321.5370879173279	picture	0		98	339.0	/experiments/knapen_AOT/AOT_stimuli/pictures/0022_fw.png	448.51134991645813	0.8239109516143799
341	322.33768486976624	response	0	k		339.0	/experiments/knapen_AOT/AOT_stimuli/pictures/0022_fw.png	449.3119468688965	
342	322.36099886894226	picture	0		103	340.0	/experiments/knapen_AOT/AOT_stimuli/pictures/0555_fw.png	449.3352608680725	0.8636260032653809
342	323.211140871048	response	0	k		340.0	/experiments/knapen_AOT/AOT_stimuli/pictures/0555_fw.png	450.1854028701782	
343	323.22462487220764	picture	0		115	341.0	/experiments/knapen_AOT/AOT_stimuli/pictures/2076_fw.png	450.1988868713379	0.9652490615844727
343	324.17795300483704	response	0	k		341.0	/experiments/knapen_AOT/AOT_stimuli/pictures/2076_fw.png	451.1522150039673	
344	324.1898739337921	picture	0		200	342.0	/experiments/knapen_AOT/AOT_stimuli/pictures/1576_fw.png	451.16413593292236	1.6711959838867188
344	325.84456181526184	response	0	k		342.0	/experiments/knapen_AOT/AOT_stimuli/pictures/1576_fw.png	452.8188238143921	
345	325.86106991767883	picture	0		120	343.0	/experiments/knapen_AOT/AOT_stimuli/pictures/1854_fw.png	452.8353319168091	1.0083539485931396
345	326.8529667854309	response	0	k		343.0	/experiments/knapen_AOT/AOT_stimuli/pictures/1854_fw.png	453.82722878456116	
346	326.869423866272	picture	0		97	344.0	/experiments/knapen_AOT/AOT_stimuli/pictures/0497_fw.png	453.8436858654022	0.8166379928588867
346	327.6696779727936	response	0	k		344.0	/experiments/knapen_AOT/AOT_stimuli/pictures/0497_fw.png	454.6439399719238	
347	327.68606185913086	picture	0		98	345.0	/experiments/knapen_AOT/AOT_stimuli/pictures/0961_fw.png	454.6603238582611	0.8166840076446533
347	328.494637966156	response	0	j		345.0	/experiments/knapen_AOT/AOT_stimuli/pictures/0961_fw.png	455.46889996528625	
348	328.5027458667755	picture	0		101	346.0	/experiments/knapen_AOT/AOT_stimuli/pictures/1208_fw.png	455.47700786590576	0.8500189781188965
348	329.32971000671387	response	0	k		346.0	/experiments/knapen_AOT/AOT_stimuli/pictures/1208_fw.png	456.3039720058441	
349	329.3527648448944	picture	0		98	347.0	/experiments/knapen_AOT/AOT_stimuli/pictures/0331_fw.png	456.32702684402466	0.8167049884796143
349	330.15462589263916	response	0	k		347.0	/experiments/knapen_AOT/AOT_stimuli/pictures/0331_fw.png	457.1288878917694	
350	330.169469833374	picture	0		102	348.0	/experiments/knapen_AOT/AOT_stimuli/pictures/0578_fw.png	457.1437318325043	0.8537790775299072
350	331.0113549232483	response	0	j		348.0	/experiments/knapen_AOT/AOT_stimuli/pictures/0578_fw.png	457.98561692237854	
351	331.02324891090393	picture	0		105	349.0	/experiments/knapen_AOT/AOT_stimuli/pictures/1160_fw.png	457.9975109100342	0.8795709609985352
351	331.8864598274231	response	0	k		349.0	/experiments/knapen_AOT/AOT_stimuli/pictures/1160_fw.png	458.86072182655334	
352	331.90281987190247	picture	0		105	350.0	/experiments/knapen_AOT/AOT_stimuli/pictures/1921_fw.png	458.8770818710327	0.8832869529724121
352	332.7696018218994	response	0	j		350.0	/experiments/knapen_AOT/AOT_stimuli/pictures/1921_fw.png	459.74386382102966	
353	332.7861068248749	picture	0		92	351.0	/experiments/knapen_AOT/AOT_stimuli/pictures/0915_fw.png	459.7603688240051	0.7751669883728027
353	333.5378928184509	response	0	k		351.0	/experiments/knapen_AOT/AOT_stimuli/pictures/0915_fw.png	460.5121548175812	
354	333.5612738132477	picture	0		87	352.0	/experiments/knapen_AOT/AOT_stimuli/pictures/2090_fw.png	460.53553581237793	0.7332069873809814
354	334.27800488471985	response	0	j		352.0	/experiments/knapen_AOT/AOT_stimuli/pictures/2090_fw.png	461.2522668838501	
355	334.29448080062866	picture	0		104	353.0	/experiments/knapen_AOT/AOT_stimuli/pictures/0847_fw.png	461.2687427997589	0.8678600788116455
355	335.1462228298187	response	0	k		353.0	/experiments/knapen_AOT/AOT_stimuli/pictures/0847_fw.png	462.120484828949	
356	335.1623408794403	picture	0		100	354.0	/experiments/knapen_AOT/AOT_stimuli/pictures/1752_fw.png	462.13660287857056	0.84049391746521
356	335.9864809513092	response	0	k		354.0	/experiments/knapen_AOT/AOT_stimuli/pictures/1752_fw.png	462.96074295043945	
357	336.0028347969055	picture	0		126	355.0	/experiments/knapen_AOT/AOT_stimuli/pictures/0326_fw.png	462.97709679603577	1.055185079574585
357	337.0446457862854	response	0	j		355.0	/experiments/knapen_AOT/AOT_stimuli/pictures/0326_fw.png	464.01890778541565	
358	337.0580198764801	picture	0		175	356.0	/experiments/knapen_AOT/AOT_stimuli/pictures/1374_fw.png	464.03228187561035	1.4654219150543213
358	338.5114848613739	response	0	k		356.0	/experiments/knapen_AOT/AOT_stimuli/pictures/1374_fw.png	465.48574686050415	
359	338.5234417915344	picture	0		86	357.0	/experiments/knapen_AOT/AOT_stimuli/pictures/1481_fw.png	465.4977037906647	0.721127986907959
359	339.22813987731934	response	0	j		357.0	/experiments/knapen_AOT/AOT_stimuli/pictures/1481_fw.png	466.2024018764496	
360	339.2445697784424	picture	0		100	358.0	/experiments/knapen_AOT/AOT_stimuli/pictures/0069_fw.png	466.21883177757263	0.8416481018066406
360	340.0697648525238	response	0	k		358.0	/experiments/knapen_AOT/AOT_stimuli/pictures/0069_fw.png	467.04402685165405	
361	340.086217880249	picture	0		112	359.0	/experiments/knapen_AOT/AOT_stimuli/pictures/1186_fw.png	467.0604798793793	0.9371180534362793
361	341.011501789093	response	0	k		359.0	/experiments/knapen_AOT/AOT_stimuli/pictures/1186_fw.png	467.98576378822327	
362	341.0233359336853	stim	0		496			467.99759793281555	4.148298978805542
362	345.151939868927	response	0	space				472.12620186805725	
