trial_nr	onset	event_type	phase	response	nr_frames	picture_index	picture_file	onset_abs	duration
0	0.17354750633239746	stim	0		410			62.341984033584595	3.4487862586975098
0	3.5978965759277344	response	0	space				65.76633310317993	
2	3.6223337650299072	picture	0		131	0.0	/experiments/Knapen_AOT/AOT_stimuli/pictures/0528_fw.png	65.7907702922821	1.10986328125
2	4.7127838134765625	response	0	k		0.0	/experiments/Knapen_AOT/AOT_stimuli/pictures/0528_fw.png	66.88122034072876	
3	4.732197046279907	picture	0		141	1.0	/experiments/Knapen_AOT/AOT_stimuli/pictures/1136_fw.png	66.9006335735321	1.184511661529541
3	5.906987190246582	response	0	k		1.0	/experiments/Knapen_AOT/AOT_stimuli/pictures/1136_fw.png	68.07542371749878	
4	5.916708707809448	picture	0		112	2.0	/experiments/Knapen_AOT/AOT_stimuli/pictures/1500_fw.png	68.08514523506165	0.9375298023223877
4	6.840285539627075	response	0	j		2.0	/experiments/Knapen_AOT/AOT_stimuli/pictures/1500_fw.png	69.00872206687927	
5	6.854238510131836	picture	0		109	3.0	/experiments/Knapen_AOT/AOT_stimuli/pictures/0550_fw.png	69.02267503738403	0.9166300296783447
5	7.7569146156311035	response	0	k		3.0	/experiments/Knapen_AOT/AOT_stimuli/pictures/0550_fw.png	69.9253511428833	
6	7.770868539810181	picture	0		195	4.0	/experiments/Knapen_AOT/AOT_stimuli/pictures/0377_fw.png	69.93930506706238	1.6318836212158203
6	9.390271425247192	response	0	k		4.0	/experiments/Knapen_AOT/AOT_stimuli/pictures/0377_fw.png	71.55870795249939	
7	9.402752161026001	picture	0		121	5.0	/experiments/Knapen_AOT/AOT_stimuli/pictures/0677_fw.png	71.5711886882782	1.0206713676452637
7	10.406943559646606	response	0	j		5.0	/experiments/Knapen_AOT/AOT_stimuli/pictures/0677_fw.png	72.5753800868988	
8	10.423423528671265	picture	0		117	6.0	/experiments/Knapen_AOT/AOT_stimuli/pictures/0711_fw.png	72.59186005592346	0.9794087409973145
8	11.390305995941162	response	0	k		6.0	/experiments/Knapen_AOT/AOT_stimuli/pictures/0711_fw.png	73.55874252319336	
9	11.402832269668579	picture	0		106	7.0	/experiments/Knapen_AOT/AOT_stimuli/pictures/0476_fw.png	73.57126879692078	0.8956153392791748
9	12.281972169876099	response	0	j		7.0	/experiments/Knapen_AOT/AOT_stimuli/pictures/0476_fw.png	74.4504086971283	
10	12.298447608947754	picture	0		137	8.0	/experiments/Knapen_AOT/AOT_stimuli/pictures/1137_fw.png	74.46688413619995	1.146064043045044
10	13.431975841522217	response	0	k		8.0	/experiments/Knapen_AOT/AOT_stimuli/pictures/1137_fw.png	75.60041236877441	
11	13.444511651992798	picture	0		96	9.0	/experiments/Knapen_AOT/AOT_stimuli/pictures/2080_fw.png	75.612948179245	0.7986199855804443
11	14.23199462890625	response	0	k		9.0	/experiments/Knapen_AOT/AOT_stimuli/pictures/2080_fw.png	76.40043115615845	
12	14.243131637573242	picture	0		132	10.0	/experiments/Knapen_AOT/AOT_stimuli/pictures/0630_fw.png	76.41156816482544	1.0972280502319336
12	15.331995725631714	response	0	k		10.0	/experiments/Knapen_AOT/AOT_stimuli/pictures/0630_fw.png	77.50043225288391	
13	15.340359687805176	picture	0		113	11.0	/experiments/Knapen_AOT/AOT_stimuli/pictures/0800_fw.png	77.50879621505737	0.9497830867767334
13	16.27392816543579	response	0	j		11.0	/experiments/Knapen_AOT/AOT_stimuli/pictures/0800_fw.png	78.44236469268799	
14	16.29014277458191	picture	0		84	12.0	/experiments/Knapen_AOT/AOT_stimuli/pictures/0070_fw.png	78.4585793018341	0.7030386924743652
14	16.98203206062317	response	0	k		12.0	/experiments/Knapen_AOT/AOT_stimuli/pictures/0070_fw.png	79.15046858787537	
15	16.993181467056274	picture	0		103	13.0	/experiments/Knapen_AOT/AOT_stimuli/pictures/1242_fw.png	79.16161799430847	0.8611314296722412
15	17.84038472175598	response	0	k		13.0	/experiments/Knapen_AOT/AOT_stimuli/pictures/1242_fw.png	80.00882124900818	
16	17.854312896728516	picture	0		118	14.0	/experiments/Knapen_AOT/AOT_stimuli/pictures/2112_fw.png	80.02274942398071	0.9860846996307373
16	18.83202815055847	response	0	k		14.0	/experiments/Knapen_AOT/AOT_stimuli/pictures/2112_fw.png	81.00046467781067	
17	18.840397596359253	picture	0		86	15.0	/experiments/Knapen_AOT/AOT_stimuli/pictures/0213_fw.png	81.00883412361145	0.722210168838501
17	19.548727989196777	response	0	k		15.0	/experiments/Knapen_AOT/AOT_stimuli/pictures/0213_fw.png	81.71716451644897	
18	19.562607765197754	picture	0		156	16.0	/experiments/Knapen_AOT/AOT_stimuli/pictures/0867_fw.png	81.73104429244995	1.3056869506835938
18	20.85709810256958	response	0	j		16.0	/experiments/Knapen_AOT/AOT_stimuli/pictures/0867_fw.png	83.02553462982178	
19	20.868294715881348	picture	0		76	17.0	/experiments/Knapen_AOT/AOT_stimuli/pictures/0115_fw.png	83.03673124313354	0.6318514347076416
19	21.483137845993042	response	0	j		17.0	/experiments/Knapen_AOT/AOT_stimuli/pictures/0115_fw.png	83.65157437324524	
20	21.50014615058899	picture	0		210	18.0	/experiments/Knapen_AOT/AOT_stimuli/pictures/0738_fw.png	83.66858267784119	1.7568278312683105
20	23.24069118499756	response	0	j		18.0	/experiments/Knapen_AOT/AOT_stimuli/pictures/0738_fw.png	85.40912771224976	
21	23.2569739818573	picture	0		93	19.0	/experiments/Knapen_AOT/AOT_stimuli/pictures/0798_fw.png	85.4254105091095	0.7778744697570801
21	24.023771047592163	response	0	j		19.0	/experiments/Knapen_AOT/AOT_stimuli/pictures/0798_fw.png	86.19220757484436	
22	24.03484845161438	picture	0		139	20.0	/experiments/Knapen_AOT/AOT_stimuli/pictures/0741_fw.png	86.20328497886658	1.1597399711608887
22	25.182093858718872	response	0	j		20.0	/experiments/Knapen_AOT/AOT_stimuli/pictures/0741_fw.png	87.35053038597107	
23	25.19458842277527	picture	0		79	21.0	/experiments/Knapen_AOT/AOT_stimuli/pictures/0754_fw.png	87.36302495002747	0.6597776412963867
23	25.84048080444336	response	0	j		21.0	/experiments/Knapen_AOT/AOT_stimuli/pictures/0754_fw.png	88.00891733169556	
24	25.854366064071655	picture	0		101	22.0	/experiments/Knapen_AOT/AOT_stimuli/pictures/0496_fw.png	88.02280259132385	0.8471722602844238
24	26.68280577659607	response	0	k		22.0	/experiments/Knapen_AOT/AOT_stimuli/pictures/0496_fw.png	88.85124230384827	
25	26.70153832435608	picture	0		116	23.0	/experiments/Knapen_AOT/AOT_stimuli/pictures/1374_fw.png	88.86997485160828	0.9652817249298096
25	27.657090425491333	response	0	k		23.0	/experiments/Knapen_AOT/AOT_stimuli/pictures/1374_fw.png	89.82552695274353	
26	27.66682004928589	picture	0		170	24.0	/experiments/Knapen_AOT/AOT_stimuli/pictures/1928_fw.png	89.83525657653809	1.41658353805542
26	29.0738205909729	response	0	k		24.0	/experiments/Knapen_AOT/AOT_stimuli/pictures/1928_fw.png	91.2422571182251	
27	29.08340358734131	picture	0		99	25.0	/experiments/Knapen_AOT/AOT_stimuli/pictures/0745_fw.png	91.2518401145935	0.8319032192230225
27	29.8988938331604	response	0	k		25.0	/experiments/Knapen_AOT/AOT_stimuli/pictures/0745_fw.png	92.0673303604126	
28	29.91530680656433	picture	0		94	26.0	/experiments/Knapen_AOT/AOT_stimuli/pictures/0433_fw.png	92.08374333381653	0.7917129993438721
28	30.69076442718506	response	0	k		26.0	/experiments/Knapen_AOT/AOT_stimuli/pictures/0433_fw.png	92.85920095443726	
29	30.707019805908203	picture	0		92	27.0	/experiments/Knapen_AOT/AOT_stimuli/pictures/2019_fw.png	92.8754563331604	0.7723731994628906
29	31.465532064437866	response	0	k		27.0	/experiments/Knapen_AOT/AOT_stimuli/pictures/2019_fw.png	93.63396859169006	
30	31.479393005371094	picture	0		97	28.0	/experiments/Knapen_AOT/AOT_stimuli/pictures/2175_fw.png	93.64782953262329	0.8124456405639648
30	32.27501440048218	response	0	k		28.0	/experiments/Knapen_AOT/AOT_stimuli/pictures/2175_fw.png	94.44345092773438	
31	32.29183864593506	picture	0		110	29.0	/experiments/Knapen_AOT/AOT_stimuli/pictures/0428_fw.png	94.46027517318726	0.9166665077209473
31	33.19883441925049	response	0	k		29.0	/experiments/Knapen_AOT/AOT_stimuli/pictures/0428_fw.png	95.36727094650269	
32	33.208505153656006	picture	0		111	30.0	/experiments/Knapen_AOT/AOT_stimuli/pictures/1835_fw.png	95.3769416809082	0.9236154556274414
32	34.12388730049133	response	0	k		30.0	/experiments/Knapen_AOT/AOT_stimuli/pictures/1835_fw.png	96.29232382774353	
33	34.13212060928345	picture	0		120	31.0	/experiments/Knapen_AOT/AOT_stimuli/pictures/1405_fw.png	96.30055713653564	1.000138282775879
33	35.12391018867493	response	0	k		31.0	/experiments/Knapen_AOT/AOT_stimuli/pictures/1405_fw.png	97.29234671592712	
34	35.132258892059326	picture	0		116	32.0	/experiments/Knapen_AOT/AOT_stimuli/pictures/1540_fw.png	97.30069541931152	0.9721288681030273
34	36.083011627197266	response	0	k		32.0	/experiments/Knapen_AOT/AOT_stimuli/pictures/1540_fw.png	98.25144815444946	
35	36.10438776016235	picture	0		118	33.0	/experiments/Knapen_AOT/AOT_stimuli/pictures/0869_fw.png	98.27282428741455	0.9943509101867676
35	37.074706077575684	response	0	j		33.0	/experiments/Knapen_AOT/AOT_stimuli/pictures/0869_fw.png	99.24314260482788	
36	37.09873867034912	picture	0		155	34.0	/experiments/Knapen_AOT/AOT_stimuli/pictures/1318_fw.png	99.26717519760132	1.300039529800415
36	38.38244295120239	response	0	k		34.0	/experiments/Knapen_AOT/AOT_stimuli/pictures/1318_fw.png	100.55087947845459	
37	38.398778200149536	picture	0		128	35.0	/experiments/Knapen_AOT/AOT_stimuli/pictures/0046_fw.png	100.56721472740173	1.0668821334838867
37	39.457316637039185	response	0	k		35.0	/experiments/Knapen_AOT/AOT_stimuli/pictures/0046_fw.png	101.62575316429138	
38	39.46566033363342	picture	0		125	36.0	/experiments/Knapen_AOT/AOT_stimuli/pictures/0826_fw.png	101.63409686088562	1.0497686862945557
38	40.49893522262573	response	0	j		36.0	/experiments/Knapen_AOT/AOT_stimuli/pictures/0826_fw.png	102.66737174987793	
39	40.51542901992798	picture	0		92	37.0	/experiments/Knapen_AOT/AOT_stimuli/pictures/0889_fw.png	102.68386554718018	0.7750215530395508
39	41.27394700050354	response	0	j		37.0	/experiments/Knapen_AOT/AOT_stimuli/pictures/0889_fw.png	103.44238352775574	
40	41.29045057296753	picture	0		132	38.0	/experiments/Knapen_AOT/AOT_stimuli/pictures/1518_fw.png	103.45888710021973	1.1083412170410156
40	42.38246250152588	response	0	j		38.0	/experiments/Knapen_AOT/AOT_stimuli/pictures/1518_fw.png	104.55089902877808	
41	42.398791790008545	picture	0		91	39.0	/experiments/Knapen_AOT/AOT_stimuli/pictures/1647_fw.png	104.56722831726074	0.7667052745819092
41	43.14897012710571	response	0	j		39.0	/experiments/Knapen_AOT/AOT_stimuli/pictures/1647_fw.png	105.31740665435791	
42	43.165497064590454	picture	0		194	40.0	/experiments/Knapen_AOT/AOT_stimuli/pictures/1935_fw.png	105.33393359184265	1.6193828582763672
42	44.77398490905762	response	0	k		40.0	/experiments/Knapen_AOT/AOT_stimuli/pictures/1935_fw.png	106.94242143630981	
43	44.78487992286682	picture	0		86	41.0	/experiments/Knapen_AOT/AOT_stimuli/pictures/0053_fw.png	106.95331645011902	0.7154049873352051
43	45.49081301689148	response	0	k		41.0	/experiments/Knapen_AOT/AOT_stimuli/pictures/0053_fw.png	107.65924954414368	
44	45.500284910202026	picture	0		110	42.0	/experiments/Knapen_AOT/AOT_stimuli/pictures/2036_fw.png	107.66872143745422	0.9236810207366943
44	46.407423973083496	response	0	k		42.0	/experiments/Knapen_AOT/AOT_stimuli/pictures/2036_fw.png	108.5758605003357	
45	46.42396593093872	picture	0		96	43.0	/experiments/Knapen_AOT/AOT_stimuli/pictures/0418_fw.png	108.59240245819092	0.8055579662322998
45	47.21581792831421	response	0	k		43.0	/experiments/Knapen_AOT/AOT_stimuli/pictures/0418_fw.png	109.3842544555664	
46	47.22952389717102	picture	0		99	44.0	/experiments/Knapen_AOT/AOT_stimuli/pictures/0411_fw.png	109.39796042442322	0.8359999656677246
46	48.049150228500366	response	0	k		44.0	/experiments/Knapen_AOT/AOT_stimuli/pictures/0411_fw.png	110.21758675575256	
47	48.065523862838745	picture	0		111	45.0	/experiments/Knapen_AOT/AOT_stimuli/pictures/1465_fw.png	110.23396039009094	0.9333207607269287
47	48.98242497444153	response	0	k		45.0	/experiments/Knapen_AOT/AOT_stimuli/pictures/1465_fw.png	111.15086150169373	
48	48.998844623565674	picture	0		106	46.0	/experiments/Knapen_AOT/AOT_stimuli/pictures/1268_fw.png	111.16728115081787	0.891693115234375
48	49.874022245407104	response	0	k		46.0	/experiments/Knapen_AOT/AOT_stimuli/pictures/1268_fw.png	112.0424587726593	
49	49.89053773880005	picture	0		119	47.0	/experiments/Knapen_AOT/AOT_stimuli/pictures/1272_fw.png	112.05897426605225	0.9999966621398926
49	50.868149757385254	response	0	k		47.0	/experiments/Knapen_AOT/AOT_stimuli/pictures/1272_fw.png	113.03658628463745	
50	50.89053440093994	picture	0		120	48.0	/experiments/Knapen_AOT/AOT_stimuli/pictures/0436_fw.png	113.05897092819214	1.0055954456329346
50	51.88285207748413	response	0	j		48.0	/experiments/Knapen_AOT/AOT_stimuli/pictures/0436_fw.png	114.05128860473633	
51	51.896129846572876	picture	0		188	49.0	/experiments/Knapen_AOT/AOT_stimuli/pictures/0250_fw.png	114.06456637382507	1.5694172382354736
51	53.45739507675171	response	0	k		49.0	/experiments/Knapen_AOT/AOT_stimuli/pictures/0250_fw.png	115.6258316040039	
52	53.46554708480835	picture	0		78	50.0	/experiments/Knapen_AOT/AOT_stimuli/pictures/1662_fw.png	115.63398361206055	0.6528418064117432
52	54.10761070251465	response	0	k		50.0	/experiments/Knapen_AOT/AOT_stimuli/pictures/1662_fw.png	116.27604722976685	
53	54.11838889122009	picture	0		111	51.0	/experiments/Knapen_AOT/AOT_stimuli/pictures/0546_fw.png	116.28682541847229	0.9306423664093018
53	55.03249764442444	response	0	j		51.0	/experiments/Knapen_AOT/AOT_stimuli/pictures/0546_fw.png	117.20093417167664	
54	55.049031257629395	picture	0		94	52.0	/experiments/Knapen_AOT/AOT_stimuli/pictures/2150_fw.png	117.21746778488159	0.7846419811248779
54	55.82412600517273	response	0	j		52.0	/experiments/Knapen_AOT/AOT_stimuli/pictures/2150_fw.png	117.99256253242493	
55	55.83367323875427	picture	0		86	53.0	/experiments/Knapen_AOT/AOT_stimuli/pictures/0737_fw.png	118.00210976600647	0.7236449718475342
55	56.541093587875366	response	0	j		53.0	/experiments/Knapen_AOT/AOT_stimuli/pictures/0737_fw.png	118.70953011512756	
56	56.55731821060181	picture	0		186	54.0	/experiments/Knapen_AOT/AOT_stimuli/pictures/1849_fw.png	118.725754737854	1.554044246673584
56	58.09915518760681	response	0	k		54.0	/experiments/Knapen_AOT/AOT_stimuli/pictures/1849_fw.png	120.26759171485901	
57	58.11136245727539	picture	0		101	55.0	/experiments/Knapen_AOT/AOT_stimuli/pictures/0036_fw.png	120.27979898452759	0.8404378890991211
57	58.94087219238281	response	0	k		55.0	/experiments/Knapen_AOT/AOT_stimuli/pictures/0036_fw.png	121.10930871963501	
58	58.95180034637451	picture	0		94	56.0	/experiments/Knapen_AOT/AOT_stimuli/pictures/1099_fw.png	121.12023687362671	0.7888674736022949
58	59.72415375709534	response	0	k		56.0	/experiments/Knapen_AOT/AOT_stimuli/pictures/1099_fw.png	121.89259028434753	
59	59.74066781997681	picture	0		92	57.0	/experiments/Knapen_AOT/AOT_stimuli/pictures/1503_fw.png	121.909104347229	0.7749991416931152
59	60.49980568885803	response	0	j		57.0	/experiments/Knapen_AOT/AOT_stimuli/pictures/1503_fw.png	122.66824221611023	
60	60.51566696166992	picture	0		132	58.0	/experiments/Knapen_AOT/AOT_stimuli/pictures/1997_fw.png	122.68410348892212	1.1027343273162842
60	61.6074697971344	response	0	k		58.0	/experiments/Knapen_AOT/AOT_stimuli/pictures/1997_fw.png	123.7759063243866	
61	61.618401288986206	picture	0		92	59.0	/experiments/Knapen_AOT/AOT_stimuli/pictures/1979_fw.png	123.7868378162384	0.7723212242126465
61	62.37414622306824	response	0	j		59.0	/experiments/Knapen_AOT/AOT_stimuli/pictures/1979_fw.png	124.54258275032043	
62	62.39072251319885	picture	0		86	60.0	/experiments/Knapen_AOT/AOT_stimuli/pictures/1607_fw.png	124.55915904045105	0.7207498550415039
62	63.099188804626465	response	0	j		60.0	/experiments/Knapen_AOT/AOT_stimuli/pictures/1607_fw.png	125.26762533187866	
63	63.111472368240356	picture	0		119	61.0	/experiments/Knapen_AOT/AOT_stimuli/pictures/1945_fw.png	125.27990889549255	0.995896577835083
63	64.09090924263	response	0	k		61.0	/experiments/Knapen_AOT/AOT_stimuli/pictures/1945_fw.png	126.2593457698822	
64	64.10736894607544	picture	0		90	62.0	/experiments/Knapen_AOT/AOT_stimuli/pictures/0916_fw.png	126.27580547332764	0.7541604042053223
64	64.84924101829529	response	0	k		62.0	/experiments/Knapen_AOT/AOT_stimuli/pictures/0916_fw.png	127.01767754554749	
65	64.86152935028076	picture	0		94	63.0	/experiments/Knapen_AOT/AOT_stimuli/pictures/1373_fw.png	127.02996587753296	0.7875170707702637
65	65.63257884979248	response	0	j		63.0	/experiments/Knapen_AOT/AOT_stimuli/pictures/1373_fw.png	127.80101537704468	
66	65.64904642105103	picture	0		124	64.0	/experiments/Knapen_AOT/AOT_stimuli/pictures/0050_fw.png	127.81748294830322	1.0388665199279785
66	66.67426204681396	response	0	j		64.0	/experiments/Knapen_AOT/AOT_stimuli/pictures/0050_fw.png	128.84269857406616	
67	66.687912940979	picture	0		84	65.0	/experiments/Knapen_AOT/AOT_stimuli/pictures/0666_fw.png	128.8563494682312	0.708324670791626
67	67.38266682624817	response	0	j		65.0	/experiments/Knapen_AOT/AOT_stimuli/pictures/0666_fw.png	129.55110335350037	
68	67.39623761177063	picture	0		110	66.0	/experiments/Knapen_AOT/AOT_stimuli/pictures/0419_fw.png	129.56467413902283	0.9278528690338135
68	68.3075852394104	response	0	j		66.0	/experiments/Knapen_AOT/AOT_stimuli/pictures/0419_fw.png	130.4760217666626	
69	68.32409048080444	picture	0		120	67.0	/experiments/Knapen_AOT/AOT_stimuli/pictures/1901_fw.png	130.49252700805664	1.0026981830596924
69	69.31594944000244	response	0	k		67.0	/experiments/Knapen_AOT/AOT_stimuli/pictures/1901_fw.png	131.48438596725464	
70	69.32678866386414	picture	0		91	68.0	/experiments/Knapen_AOT/AOT_stimuli/pictures/2048_fw.png	131.49522519111633	0.7569952011108398
70	70.06738615036011	response	0	j		68.0	/experiments/Knapen_AOT/AOT_stimuli/pictures/2048_fw.png	132.2358226776123	
71	70.08378386497498	picture	0		136	69.0	/experiments/Knapen_AOT/AOT_stimuli/pictures/0705_fw.png	132.25222039222717	1.1320335865020752
71	71.20776128768921	response	0	k		69.0	/experiments/Knapen_AOT/AOT_stimuli/pictures/0705_fw.png	133.3761978149414	
72	71.21581745147705	picture	0		116	70.0	/experiments/Knapen_AOT/AOT_stimuli/pictures/0851_fw.png	133.38425397872925	0.9720830917358398
72	72.1743221282959	response	0	j		70.0	/experiments/Knapen_AOT/AOT_stimuli/pictures/0851_fw.png	134.3427586555481	
73	72.18790054321289	picture	0		96	71.0	/experiments/Knapen_AOT/AOT_stimuli/pictures/1437_fw.png	134.3563370704651	0.8112337589263916
73	72.98266983032227	response	0	j		71.0	/experiments/Knapen_AOT/AOT_stimuli/pictures/1437_fw.png	135.15110635757446	
74	72.99913430213928	picture	0		131	72.0	/experiments/Knapen_AOT/AOT_stimuli/pictures/0057_fw.png	135.16757082939148	1.0916454792022705
74	74.08286809921265	response	0	j		72.0	/experiments/Knapen_AOT/AOT_stimuli/pictures/0057_fw.png	136.25130462646484	
75	74.09077978134155	picture	0		107	73.0	/experiments/Knapen_AOT/AOT_stimuli/pictures/0106_fw.png	136.25921630859375	0.900036096572876
75	74.97434258460999	response	0	k		73.0	/experiments/Knapen_AOT/AOT_stimuli/pictures/0106_fw.png	137.14277911186218	
76	74.99081587791443	picture	0		106	74.0	/experiments/Knapen_AOT/AOT_stimuli/pictures/0756_fw.png	137.15925240516663	0.8848068714141846
76	75.86602187156677	response	0	j		74.0	/experiments/Knapen_AOT/AOT_stimuli/pictures/0756_fw.png	138.03445839881897	
77	75.87562274932861	picture	0		97	75.0	/experiments/Knapen_AOT/AOT_stimuli/pictures/0453_fw.png	138.0440592765808	0.8123385906219482
77	76.66754078865051	response	0	j		75.0	/experiments/Knapen_AOT/AOT_stimuli/pictures/0453_fw.png	138.8359773159027	
78	76.68796133995056	picture	0		111	76.0	/experiments/Knapen_AOT/AOT_stimuli/pictures/0427_fw.png	138.85639786720276	0.930544376373291
78	77.60772156715393	response	0	k		76.0	/experiments/Knapen_AOT/AOT_stimuli/pictures/0427_fw.png	139.77615809440613	
79	77.61850571632385	picture	0		100	77.0	/experiments/Knapen_AOT/AOT_stimuli/pictures/0271_fw.png	139.78694224357605	0.8390336036682129
79	78.44106316566467	response	0	k		77.0	/experiments/Knapen_AOT/AOT_stimuli/pictures/0271_fw.png	140.60949969291687	
80	78.45753931999207	picture	0		95	78.0	/experiments/Knapen_AOT/AOT_stimuli/pictures/0959_fw.png	140.62597584724426	0.7999677658081055
80	79.2410569190979	response	0	k		78.0	/experiments/Knapen_AOT/AOT_stimuli/pictures/0959_fw.png	141.4094934463501	
81	79.25750708580017	picture	0		91	79.0	/experiments/Knapen_AOT/AOT_stimuli/pictures/1863_fw.png	141.42594361305237	0.7637817859649658
81	80.0077018737793	response	0	j		79.0	/experiments/Knapen_AOT/AOT_stimuli/pictures/1863_fw.png	142.1761384010315	
82	80.02128887176514	picture	0		99	80.0	/experiments/Knapen_AOT/AOT_stimuli/pictures/0845_fw.png	142.18972539901733	0.83341383934021
82	80.84113502502441	response	0	k		80.0	/experiments/Knapen_AOT/AOT_stimuli/pictures/0845_fw.png	143.0095715522766	
83	80.85470271110535	picture	0		89	81.0	/experiments/Knapen_AOT/AOT_stimuli/pictures/1046_fw.png	143.02313923835754	0.7528774738311768
83	81.59113574028015	response	0	j		81.0	/experiments/Knapen_AOT/AOT_stimuli/pictures/1046_fw.png	143.75957226753235	
84	81.60758018493652	picture	0		151	82.0	/experiments/Knapen_AOT/AOT_stimuli/pictures/0718_fw.png	143.77601671218872	1.2666735649108887
84	82.85802674293518	response	0	j		82.0	/experiments/Knapen_AOT/AOT_stimuli/pictures/0718_fw.png	145.02646327018738	
85	82.87425374984741	picture	0		180	83.0	/experiments/Knapen_AOT/AOT_stimuli/pictures/1315_fw.png	145.0426902770996	1.5083374977111816
85	84.36610841751099	response	0	k		83.0	/experiments/Knapen_AOT/AOT_stimuli/pictures/1315_fw.png	146.53454494476318	
86	84.3825912475586	picture	0		128	84.0	/experiments/Knapen_AOT/AOT_stimuli/pictures/1731_fw.png	146.5510277748108	1.0693225860595703
86	85.44120502471924	response	0	j		84.0	/experiments/Knapen_AOT/AOT_stimuli/pictures/1731_fw.png	147.60964155197144	
87	85.45191383361816	picture	0		95	85.0	/experiments/Knapen_AOT/AOT_stimuli/pictures/1635_fw.png	147.62035036087036	0.7917420864105225
87	86.23275351524353	response	0	j		85.0	/experiments/Knapen_AOT/AOT_stimuli/pictures/1635_fw.png	148.40119004249573	
88	86.24365592002869	picture	0		102	86.0	/experiments/Knapen_AOT/AOT_stimuli/pictures/1754_fw.png	148.41209244728088	0.8472745418548584
88	87.08277130126953	response	0	j		86.0	/experiments/Knapen_AOT/AOT_stimuli/pictures/1754_fw.png	149.25120782852173	
89	87.09093046188354	picture	0		134	87.0	/experiments/Knapen_AOT/AOT_stimuli/pictures/0512_fw.png	149.25936698913574	1.1250226497650146
89	88.19941329956055	response	0	k		87.0	/experiments/Knapen_AOT/AOT_stimuli/pictures/0512_fw.png	150.36784982681274	
90	88.21595311164856	picture	0		110	88.0	/experiments/Knapen_AOT/AOT_stimuli/pictures/1911_fw.png	150.38438963890076	0.9166581630706787
90	89.1244809627533	response	0	k		88.0	/experiments/Knapen_AOT/AOT_stimuli/pictures/1911_fw.png	151.2929174900055	
91	89.13261127471924	picture	0		115	89.0	/experiments/Knapen_AOT/AOT_stimuli/pictures/1543_fw.png	151.30104780197144	0.9584498405456543
91	90.08298230171204	response	0	k		89.0	/experiments/Knapen_AOT/AOT_stimuli/pictures/1543_fw.png	152.25141882896423	
92	90.09106111526489	picture	0		89	90.0	/experiments/Knapen_AOT/AOT_stimuli/pictures/1469_fw.png	152.2594976425171	0.7428092956542969
92	90.82454323768616	response	0	j		90.0	/experiments/Knapen_AOT/AOT_stimuli/pictures/1469_fw.png	152.99297976493835	
93	90.83387041091919	picture	0		108	91.0	/experiments/Knapen_AOT/AOT_stimuli/pictures/0505_fw.png	153.0023069381714	0.9072051048278809
93	91.72459936141968	response	0	j		91.0	/experiments/Knapen_AOT/AOT_stimuli/pictures/0505_fw.png	153.89303588867188	
94	91.74107551574707	picture	0		105	92.0	/experiments/Knapen_AOT/AOT_stimuli/pictures/1320_fw.png	153.90951204299927	0.877528190612793
94	92.60792446136475	response	0	k		92.0	/experiments/Knapen_AOT/AOT_stimuli/pictures/1320_fw.png	154.77636098861694	
95	92.61860370635986	picture	0		126	93.0	/experiments/Knapen_AOT/AOT_stimuli/pictures/1773_fw.png	154.78704023361206	1.0486366748809814
95	93.6578848361969	response	0	j		93.0	/experiments/Knapen_AOT/AOT_stimuli/pictures/1773_fw.png	155.8263213634491	
96	93.66724038124084	picture	0		101	94.0	/experiments/Knapen_AOT/AOT_stimuli/pictures/1103_fw.png	155.83567690849304	0.8404405117034912
96	94.4995756149292	response	0	j		94.0	/experiments/Knapen_AOT/AOT_stimuli/pictures/1103_fw.png	156.6680121421814	
97	94.50768089294434	picture	0		101	95.0	/experiments/Knapen_AOT/AOT_stimuli/pictures/0569_fw.png	156.67611742019653	0.8470549583435059
97	95.34127855300903	response	0	k		95.0	/experiments/Knapen_AOT/AOT_stimuli/pictures/0569_fw.png	157.50971508026123	
98	95.35473585128784	picture	0		96	96.0	/experiments/Knapen_AOT/AOT_stimuli/pictures/0440_fw.png	157.52317237854004	0.805572509765625
98	96.14959836006165	response	0	k		96.0	/experiments/Knapen_AOT/AOT_stimuli/pictures/0440_fw.png	158.31803488731384	
99	96.16030836105347	picture	0		366	97.0	/experiments/Knapen_AOT/AOT_stimuli/pictures/2120_fw.png	158.32874488830566	3.0485169887542725
99	99.19959449768066	response	0	k		97.0	/experiments/Knapen_AOT/AOT_stimuli/pictures/2120_fw.png	161.36803102493286	
100	99.20882534980774	picture	0		136	98.0	/experiments/Knapen_AOT/AOT_stimuli/pictures/0398_fw.png	161.37726187705994	1.1322572231292725
100	100.33306169509888	response	0	k		98.0	/experiments/Knapen_AOT/AOT_stimuli/pictures/0398_fw.png	162.50149822235107	
101	100.34108257293701	picture	0		139	99.0	/experiments/Knapen_AOT/AOT_stimuli/pictures/1362_fw.png	162.5095191001892	1.1666855812072754
101	101.49133348464966	response	0	k		99.0	/experiments/Knapen_AOT/AOT_stimuli/pictures/1362_fw.png	163.65977001190186	
102	101.50776815414429	picture	0		276	100.0	/experiments/Knapen_AOT/AOT_stimuli/pictures/1407_fw.png	163.67620468139648	2.3052732944488525
102	103.79964756965637	response	0	k		100.0	/experiments/Knapen_AOT/AOT_stimuli/pictures/1407_fw.png	165.96808409690857	
103	103.81304144859314	picture	0		148	101.0	/experiments/Knapen_AOT/AOT_stimuli/pictures/0455_fw.png	165.98147797584534	1.2364270687103271
103	105.04140496253967	response	0	k		101.0	/experiments/Knapen_AOT/AOT_stimuli/pictures/0455_fw.png	167.20984148979187	
104	105.04946851730347	picture	0		106	102.0	/experiments/Knapen_AOT/AOT_stimuli/pictures/1274_fw.png	167.21790504455566	0.8917272090911865
104	105.9246826171875	response	0	k		102.0	/experiments/Knapen_AOT/AOT_stimuli/pictures/1274_fw.png	168.0931191444397	
105	105.94119572639465	picture	0		116	103.0	/experiments/Knapen_AOT/AOT_stimuli/pictures/0653_fw.png	168.10963225364685	0.9691507816314697
105	106.89970517158508	response	0	k		103.0	/experiments/Knapen_AOT/AOT_stimuli/pictures/0653_fw.png	169.06814169883728	
106	106.91034650802612	picture	0		127	104.0	/experiments/Knapen_AOT/AOT_stimuli/pictures/0943_fw.png	169.07878303527832	1.0558202266693115
106	107.95809507369995	response	0	j		104.0	/experiments/Knapen_AOT/AOT_stimuli/pictures/0943_fw.png	170.12653160095215	
107	107.96616673469543	picture	0		108	105.0	/experiments/Knapen_AOT/AOT_stimuli/pictures/1943_fw.png	170.13460326194763	0.9025223255157471
107	108.85806846618652	response	0	k		105.0	/experiments/Knapen_AOT/AOT_stimuli/pictures/1943_fw.png	171.02650499343872	
108	108.86868906021118	picture	0		125	106.0	/experiments/Knapen_AOT/AOT_stimuli/pictures/0380_fw.png	171.03712558746338	1.047525405883789
108	109.89979314804077	response	0	j		106.0	/experiments/Knapen_AOT/AOT_stimuli/pictures/0380_fw.png	172.06822967529297	
109	109.91621446609497	picture	0		184	107.0	/experiments/Knapen_AOT/AOT_stimuli/pictures/1209_fw.png	172.08465099334717	1.5357389450073242
109	111.44144368171692	response	0	k		107.0	/experiments/Knapen_AOT/AOT_stimuli/pictures/1209_fw.png	173.60988020896912	
110	111.4519534111023	picture	0		279	108.0	/experiments/Knapen_AOT/AOT_stimuli/pictures/1576_fw.png	173.6203899383545	2.326414108276367
110	113.76644921302795	response	0	k		108.0	/experiments/Knapen_AOT/AOT_stimuli/pictures/1576_fw.png	175.93488574028015	
111	113.77836751937866	picture	0		188	109.0	/experiments/Knapen_AOT/AOT_stimuli/pictures/0364_fw.png	175.94680404663086	1.571265697479248
111	115.33316040039062	response	0	k		109.0	/experiments/Knapen_AOT/AOT_stimuli/pictures/0364_fw.png	177.50159692764282	
112	115.34963321685791	picture	0		108	110.0	/experiments/Knapen_AOT/AOT_stimuli/pictures/0333_fw.png	177.5180697441101	0.9083225727081299
112	116.24164843559265	response	0	j		110.0	/experiments/Knapen_AOT/AOT_stimuli/pictures/0333_fw.png	178.41008496284485	
113	116.25795578956604	picture	0		87	111.0	/experiments/Knapen_AOT/AOT_stimuli/pictures/1165_fw.png	178.42639231681824	0.7288711071014404
113	116.97481513023376	response	0	j		111.0	/experiments/Knapen_AOT/AOT_stimuli/pictures/1165_fw.png	179.14325165748596	
114	116.98682689666748	picture	0		111	112.0	/experiments/Knapen_AOT/AOT_stimuli/pictures/1778_fw.png	179.15526342391968	0.9294881820678711
114	117.89983439445496	response	0	j		112.0	/experiments/Knapen_AOT/AOT_stimuli/pictures/1778_fw.png	180.06827092170715	
115	117.91631507873535	picture	0		122	113.0	/experiments/Knapen_AOT/AOT_stimuli/pictures/1732_fw.png	180.08475160598755	1.0219261646270752
115	118.92482852935791	response	0	k		113.0	/experiments/Knapen_AOT/AOT_stimuli/pictures/1732_fw.png	181.0932650566101	
116	118.93824124336243	picture	0		121	114.0	/experiments/Knapen_AOT/AOT_stimuli/pictures/1976_fw.png	181.10667777061462	1.0197577476501465
116	119.94175744056702	response	0	j		114.0	/experiments/Knapen_AOT/AOT_stimuli/pictures/1976_fw.png	182.1101939678192	
117	119.95799899101257	picture	0		89	115.0	/experiments/Knapen_AOT/AOT_stimuli/pictures/1508_fw.png	182.12643551826477	0.7500271797180176
117	120.69158506393433	response	0	j		115.0	/experiments/Knapen_AOT/AOT_stimuli/pictures/1508_fw.png	182.86002159118652	
118	120.70802617073059	picture	0		98	116.0	/experiments/Knapen_AOT/AOT_stimuli/pictures/0075_fw.png	182.8764626979828	0.8250288963317871
118	121.51658272743225	response	0	k		116.0	/experiments/Knapen_AOT/AOT_stimuli/pictures/0075_fw.png	183.68501925468445	
119	121.53305506706238	picture	0		105	117.0	/experiments/Knapen_AOT/AOT_stimuli/pictures/1174_fw.png	183.70149159431458	0.8774454593658447
119	122.39990401268005	response	0	k		117.0	/experiments/Knapen_AOT/AOT_stimuli/pictures/1174_fw.png	184.56834053993225	
120	122.41050052642822	picture	0		117	118.0	/experiments/Knapen_AOT/AOT_stimuli/pictures/0941_fw.png	184.57893705368042	0.972508430480957
120	123.37491297721863	response	0	j		118.0	/experiments/Knapen_AOT/AOT_stimuli/pictures/0941_fw.png	185.54334950447083	
121	123.38300895690918	picture	0		113	119.0	/experiments/Knapen_AOT/AOT_stimuli/pictures/1955_fw.png	185.55144548416138	0.9442236423492432
121	124.31658887863159	response	0	j		119.0	/experiments/Knapen_AOT/AOT_stimuli/pictures/1955_fw.png	186.4850254058838	
122	124.32723259925842	picture	0		172	120.0	/experiments/Knapen_AOT/AOT_stimuli/pictures/0168_fw.png	186.49566912651062	1.4391961097717285
122	125.75018739700317	response	0	j		120.0	/experiments/Knapen_AOT/AOT_stimuli/pictures/0168_fw.png	187.91862392425537	
123	125.76642870903015	picture	0		127	121.0	/experiments/Knapen_AOT/AOT_stimuli/pictures/0894_fw.png	187.93486523628235	1.0666804313659668
123	126.8166196346283	response	0	k		121.0	/experiments/Knapen_AOT/AOT_stimuli/pictures/0894_fw.png	188.9850561618805	
124	126.83310914039612	picture	0		104	122.0	/experiments/Knapen_AOT/AOT_stimuli/pictures/1024_fw.png	189.00154566764832	0.8749866485595703
124	127.69166612625122	response	0	k		122.0	/experiments/Knapen_AOT/AOT_stimuli/pictures/1024_fw.png	189.86010265350342	
125	127.70809578895569	picture	0		113	123.0	/experiments/Knapen_AOT/AOT_stimuli/pictures/1750_fw.png	189.87653231620789	0.9454605579376221
125	128.64157676696777	response	0	k		123.0	/experiments/Knapen_AOT/AOT_stimuli/pictures/1750_fw.png	190.81001329421997	
126	128.6535563468933	picture	0		90	124.0	/experiments/Knapen_AOT/AOT_stimuli/pictures/2016_fw.png	190.8219928741455	0.7499992847442627
126	129.39169764518738	response	0	k		124.0	/experiments/Knapen_AOT/AOT_stimuli/pictures/2016_fw.png	191.56013417243958	
127	129.40355563163757	picture	0		95	125.0	/experiments/Knapen_AOT/AOT_stimuli/pictures/0564_fw.png	191.57199215888977	0.7962398529052734
127	130.1834750175476	response	0	k		125.0	/experiments/Knapen_AOT/AOT_stimuli/pictures/0564_fw.png	192.3519115447998	
128	130.19979548454285	picture	0		184	126.0	/experiments/Knapen_AOT/AOT_stimuli/pictures/1241_fw.png	192.36823201179504	1.5370125770568848
128	131.72492575645447	response	0	j		126.0	/experiments/Knapen_AOT/AOT_stimuli/pictures/1241_fw.png	193.89336228370667	
129	131.73680806159973	picture	0		99	127.0	/experiments/Knapen_AOT/AOT_stimuli/pictures/1632_fw.png	193.90524458885193	0.8297581672668457
129	132.5502691268921	response	0	k		127.0	/experiments/Knapen_AOT/AOT_stimuli/pictures/1632_fw.png	194.7187056541443	
130	132.56656622886658	picture	0		143	128.0	/experiments/Knapen_AOT/AOT_stimuli/pictures/0858_fw.png	194.73500275611877	1.1999428272247314
130	133.75002646446228	response	0	k		128.0	/experiments/Knapen_AOT/AOT_stimuli/pictures/0858_fw.png	195.91846299171448	
131	133.7665090560913	picture	0		463	129.0	/experiments/Knapen_AOT/AOT_stimuli/pictures/1728_fw.png	195.9349455833435	3.859222173690796
131	137.6167356967926	response	0	k		129.0	/experiments/Knapen_AOT/AOT_stimuli/pictures/1728_fw.png	199.7851722240448	
132	137.6257312297821	picture	0		246	130.0	/experiments/Knapen_AOT/AOT_stimuli/pictures/2100_fw.png	199.7941677570343	2.0555918216705322
132	139.66695308685303	response	0	k		130.0	/experiments/Knapen_AOT/AOT_stimuli/pictures/2100_fw.png	201.83538961410522	
133	139.68132305145264	picture	0		93	131.0	/experiments/Knapen_AOT/AOT_stimuli/pictures/2096_fw.png	201.84975957870483	0.785243034362793
133	140.4501633644104	response	0	k		131.0	/experiments/Knapen_AOT/AOT_stimuli/pictures/2096_fw.png	202.6185998916626	
134	140.46656608581543	picture	0		89	132.0	/experiments/Knapen_AOT/AOT_stimuli/pictures/2090_fw.png	202.63500261306763	0.7500462532043457
134	141.2001552581787	response	0	j		132.0	/experiments/Knapen_AOT/AOT_stimuli/pictures/2090_fw.png	203.3685917854309	
135	141.21661233901978	picture	0		108	133.0	/experiments/Knapen_AOT/AOT_stimuli/pictures/1356_fw.png	203.38504886627197	0.9083247184753418
135	142.10868430137634	response	0	k		133.0	/experiments/Knapen_AOT/AOT_stimuli/pictures/1356_fw.png	204.27712082862854	
136	142.12493705749512	picture	0		153	134.0	/experiments/Knapen_AOT/AOT_stimuli/pictures/1166_fw.png	204.29337358474731	1.2833287715911865
136	143.39178252220154	response	0	k		134.0	/experiments/Knapen_AOT/AOT_stimuli/pictures/1166_fw.png	205.56021904945374	
137	143.4082658290863	picture	0		279	135.0	/experiments/Knapen_AOT/AOT_stimuli/pictures/1568_fw.png	205.5767023563385	2.3333659172058105
137	145.72515845298767	response	0	k		135.0	/experiments/Knapen_AOT/AOT_stimuli/pictures/1568_fw.png	207.89359498023987	
138	145.74163174629211	picture	0		147	136.0	/experiments/Knapen_AOT/AOT_stimuli/pictures/0758_fw.png	207.9100682735443	1.2334065437316895
138	146.95848321914673	response	0	j		136.0	/experiments/Knapen_AOT/AOT_stimuli/pictures/0758_fw.png	209.12691974639893	
139	146.9750382900238	picture	0		101	137.0	/experiments/Knapen_AOT/AOT_stimuli/pictures/0189_fw.png	209.143474817276	0.8453032970428467
139	147.80850791931152	response	0	k		137.0	/experiments/Knapen_AOT/AOT_stimuli/pictures/0189_fw.png	209.97694444656372	
140	147.82034158706665	picture	0		139	138.0	/experiments/Knapen_AOT/AOT_stimuli/pictures/0508_fw.png	209.98877811431885	1.1629886627197266
140	148.96682119369507	response	0	k		138.0	/experiments/Knapen_AOT/AOT_stimuli/pictures/0508_fw.png	211.13525772094727	
141	148.98333024978638	picture	0		107	139.0	/experiments/Knapen_AOT/AOT_stimuli/pictures/1603_fw.png	211.15176677703857	0.8999998569488525
141	149.86725521087646	response	0	j		139.0	/experiments/Knapen_AOT/AOT_stimuli/pictures/1603_fw.png	212.03569173812866	
142	149.88333010673523	picture	0		167	140.0	/experiments/Knapen_AOT/AOT_stimuli/pictures/2022_fw.png	212.05176663398743	1.400148630142212
142	151.26699471473694	response	0	k		140.0	/experiments/Knapen_AOT/AOT_stimuli/pictures/2022_fw.png	213.43543124198914	
143	151.28347873687744	picture	0		87	141.0	/experiments/Knapen_AOT/AOT_stimuli/pictures/1129_fw.png	213.45191526412964	0.8632915019989014
143	152.1337697505951	response	0	j		141.0	/experiments/Knapen_AOT/AOT_stimuli/pictures/1129_fw.png	214.3022062778473	
144	152.14677023887634	picture	0		95	142.0	/experiments/Knapen_AOT/AOT_stimuli/pictures/1064_fw.png	214.31520676612854	0.7986705303192139
144	152.9335904121399	response	0	j		142.0	/experiments/Knapen_AOT/AOT_stimuli/pictures/1064_fw.png	215.1020269393921	
145	152.94544076919556	picture	0		156	143.0	/experiments/Knapen_AOT/AOT_stimuli/pictures/1257_fw.png	215.11387729644775	1.298541784286499
145	154.2336254119873	response	0	k		143.0	/experiments/Knapen_AOT/AOT_stimuli/pictures/1257_fw.png	216.4020619392395	
146	154.24398255348206	picture	0		118	144.0	/experiments/Knapen_AOT/AOT_stimuli/pictures/1556_fw.png	216.41241908073425	0.9894399642944336
146	155.21689200401306	response	0	k		144.0	/experiments/Knapen_AOT/AOT_stimuli/pictures/1556_fw.png	217.38532853126526	
147	155.2334225177765	picture	0		108	145.0	/experiments/Knapen_AOT/AOT_stimuli/pictures/0325_fw.png	217.4018590450287	0.9083421230316162
147	156.12531971931458	response	0	j		145.0	/experiments/Knapen_AOT/AOT_stimuli/pictures/0325_fw.png	218.29375624656677	
148	156.1417646408081	picture	0		124	146.0	/experiments/Knapen_AOT/AOT_stimuli/pictures/0789_fw.png	218.3102011680603	1.0416579246520996
148	157.16693949699402	response	0	k		146.0	/experiments/Knapen_AOT/AOT_stimuli/pictures/0789_fw.png	219.33537602424622	
149	157.1834225654602	picture	0		348	147.0	/experiments/Knapen_AOT/AOT_stimuli/pictures/1429_fw.png	219.3518590927124	2.9083964824676514
149	160.07531094551086	response	0	k		147.0	/experiments/Knapen_AOT/AOT_stimuli/pictures/1429_fw.png	222.24374747276306	
150	160.09181904792786	picture	0		111	148.0	/experiments/Knapen_AOT/AOT_stimuli/pictures/1776_fw.png	222.26025557518005	0.9299719333648682
150	161.008633852005	response	0	k		148.0	/experiments/Knapen_AOT/AOT_stimuli/pictures/1776_fw.png	223.1770703792572	
151	161.02179098129272	picture	0		87	149.0	/experiments/Knapen_AOT/AOT_stimuli/pictures/0688_fw.png	223.19022750854492	0.7366747856140137
151	161.7422058582306	response	0	j		149.0	/experiments/Knapen_AOT/AOT_stimuli/pictures/0688_fw.png	223.9106423854828	
152	161.75846576690674	picture	0		102	150.0	/experiments/Knapen_AOT/AOT_stimuli/pictures/2018_fw.png	223.92690229415894	0.8583407402038574
152	162.6005609035492	response	0	k		150.0	/experiments/Knapen_AOT/AOT_stimuli/pictures/2018_fw.png	224.7689974308014	
153	162.6168065071106	picture	0		131	151.0	/experiments/Knapen_AOT/AOT_stimuli/pictures/0806_fw.png	224.7852430343628	1.1000120639801025
153	163.70033884048462	response	0	k		151.0	/experiments/Knapen_AOT/AOT_stimuli/pictures/0806_fw.png	225.86877536773682	
154	163.7168185710907	picture	0		105	152.0	/experiments/Knapen_AOT/AOT_stimuli/pictures/0423_fw.png	225.8852550983429	0.8833842277526855
154	164.58372497558594	response	0	j		152.0	/experiments/Knapen_AOT/AOT_stimuli/pictures/0423_fw.png	226.75216150283813	
155	164.60020279884338	picture	0		225	153.0	/experiments/Knapen_AOT/AOT_stimuli/pictures/1203_fw.png	226.76863932609558	1.8833370208740234
155	166.46704196929932	response	0	j		153.0	/experiments/Knapen_AOT/AOT_stimuli/pictures/1203_fw.png	228.6354784965515	
156	166.4835398197174	picture	0		104	154.0	/experiments/Knapen_AOT/AOT_stimuli/pictures/0238_fw.png	228.6519763469696	0.8717000484466553
156	167.34207153320312	response	0	k		154.0	/experiments/Knapen_AOT/AOT_stimuli/pictures/0238_fw.png	229.51050806045532	
157	167.35523986816406	picture	0		105	155.0	/experiments/Knapen_AOT/AOT_stimuli/pictures/1581_fw.png	229.52367639541626	0.8866300582885742
157	168.22541332244873	response	0	k		155.0	/experiments/Knapen_AOT/AOT_stimuli/pictures/1581_fw.png	230.39384984970093	
158	168.24186992645264	picture	0		159	156.0	/experiments/Knapen_AOT/AOT_stimuli/pictures/1297_fw.png	230.41030645370483	1.328500509262085
158	169.55873847007751	response	0	j		156.0	/experiments/Knapen_AOT/AOT_stimuli/pictures/1297_fw.png	231.7271749973297	
159	169.57037043571472	picture	0		186	157.0	/experiments/Knapen_AOT/AOT_stimuli/pictures/1152_fw.png	231.73880696296692	1.5486211776733398
159	171.10877132415771	response	0	j		157.0	/experiments/Knapen_AOT/AOT_stimuli/pictures/1152_fw.png	233.2772078514099	
160	171.11899161338806	picture	0		116	158.0	/experiments/Knapen_AOT/AOT_stimuli/pictures/0336_fw.png	233.28742814064026	0.9654102325439453
160	172.07547283172607	response	0	k		158.0	/experiments/Knapen_AOT/AOT_stimuli/pictures/0336_fw.png	234.24390935897827	
161	172.084401845932	picture	0		110	159.0	/experiments/Knapen_AOT/AOT_stimuli/pictures/0696_fw.png	234.2528383731842	0.9166429042816162
161	172.99214601516724	response	0	k		159.0	/experiments/Knapen_AOT/AOT_stimuli/pictures/0696_fw.png	235.16058254241943	
162	173.00104475021362	picture	0		95	160.0	/experiments/Knapen_AOT/AOT_stimuli/pictures/1648_fw.png	235.16948127746582	0.7992203235626221
162	173.7837917804718	response	0	k		160.0	/experiments/Knapen_AOT/AOT_stimuli/pictures/1648_fw.png	235.952228307724	
163	173.80026507377625	picture	0		157	161.0	/experiments/Knapen_AOT/AOT_stimuli/pictures/0746_fw.png	235.96870160102844	1.3118188381195068
163	175.10050344467163	response	0	k		161.0	/experiments/Knapen_AOT/AOT_stimuli/pictures/0746_fw.png	237.26893997192383	
164	175.11208391189575	picture	0		88	162.0	/experiments/Knapen_AOT/AOT_stimuli/pictures/1580_fw.png	237.28052043914795	0.7382287979125977
164	175.8341507911682	response	0	j		162.0	/experiments/Knapen_AOT/AOT_stimuli/pictures/1580_fw.png	238.0025873184204	
165	175.85031270980835	picture	0		198	163.0	/experiments/Knapen_AOT/AOT_stimuli/pictures/0837_fw.png	238.01874923706055	1.6583480834960938
165	177.49222803115845	response	0	j		163.0	/experiments/Knapen_AOT/AOT_stimuli/pictures/0837_fw.png	239.66066455841064	
166	177.50866079330444	picture	0		219	164.0	/experiments/Knapen_AOT/AOT_stimuli/pictures/0558_fw.png	239.67709732055664	1.8333632946014404
166	179.3255593776703	response	0	k		164.0	/experiments/Knapen_AOT/AOT_stimuli/pictures/0558_fw.png	241.49399590492249	
167	179.34202408790588	picture	0		207	165.0	/experiments/Knapen_AOT/AOT_stimuli/pictures/0467_fw.png	241.51046061515808	1.7284281253814697
167	181.05133390426636	response	0	j		165.0	/experiments/Knapen_AOT/AOT_stimuli/pictures/0467_fw.png	243.21977043151855	
168	181.07045221328735	picture	0		130	166.0	/experiments/Knapen_AOT/AOT_stimuli/pictures/1853_fw.png	243.23888874053955	1.088277816772461
168	182.14237213134766	response	0	k		166.0	/experiments/Knapen_AOT/AOT_stimuli/pictures/1853_fw.png	244.31080865859985	
169	182.15873003005981	picture	0		77	167.0	/experiments/Knapen_AOT/AOT_stimuli/pictures/0381_fw.png	244.327166557312	0.6479442119598389
169	182.79229140281677	response	0	j		167.0	/experiments/Knapen_AOT/AOT_stimuli/pictures/0381_fw.png	244.96072793006897	
170	182.80667424201965	picture	0		111	168.0	/experiments/Knapen_AOT/AOT_stimuli/pictures/0196_fw.png	244.97511076927185	0.9353795051574707
170	183.72580790519714	response	0	k		168.0	/experiments/Knapen_AOT/AOT_stimuli/pictures/0196_fw.png	245.89424443244934	
171	183.74205374717712	picture	0		92	169.0	/experiments/Knapen_AOT/AOT_stimuli/pictures/1306_fw.png	245.91049027442932	0.7750484943389893
171	184.50059723854065	response	0	k		169.0	/experiments/Knapen_AOT/AOT_stimuli/pictures/1306_fw.png	246.66903376579285	
172	184.5171022415161	picture	0		123	170.0	/experiments/Knapen_AOT/AOT_stimuli/pictures/1657_fw.png	246.6855387687683	1.033313512802124
172	185.53414678573608	response	0	k		170.0	/experiments/Knapen_AOT/AOT_stimuli/pictures/1657_fw.png	247.70258331298828	
173	185.55041575431824	picture	0		97	171.0	/experiments/Knapen_AOT/AOT_stimuli/pictures/1532_fw.png	247.71885228157043	0.8166718482971191
173	186.35066151618958	response	0	k		171.0	/experiments/Knapen_AOT/AOT_stimuli/pictures/1532_fw.png	248.51909804344177	
174	186.36708760261536	picture	0		91	172.0	/experiments/Knapen_AOT/AOT_stimuli/pictures/1971_fw.png	248.53552412986755	0.7590935230255127
174	187.117249250412	response	0	j		172.0	/experiments/Knapen_AOT/AOT_stimuli/pictures/1971_fw.png	249.28568577766418	
175	187.12618112564087	picture	0		111	173.0	/experiments/Knapen_AOT/AOT_stimuli/pictures/1049_fw.png	249.29461765289307	0.9305336475372314
175	188.03484654426575	response	0	k		173.0	/experiments/Knapen_AOT/AOT_stimuli/pictures/1049_fw.png	250.20328307151794	
176	188.0567147731781	picture	0		107	174.0	/experiments/Knapen_AOT/AOT_stimuli/pictures/1638_fw.png	250.2251513004303	0.9021170139312744
176	188.94231963157654	response	0	k		174.0	/experiments/Knapen_AOT/AOT_stimuli/pictures/1638_fw.png	251.11075615882874	
177	188.95883178710938	picture	0		385	175.0	/experiments/Knapen_AOT/AOT_stimuli/pictures/0799_fw.png	251.12726831436157	3.216670513153076
177	192.15903186798096	response	0	k		175.0	/experiments/Knapen_AOT/AOT_stimuli/pictures/0799_fw.png	254.32746839523315	
178	192.17550230026245	picture	0		188	176.0	/experiments/Knapen_AOT/AOT_stimuli/pictures/2012_fw.png	254.34393882751465	1.568629503250122
178	193.73402333259583	response	0	j		176.0	/experiments/Knapen_AOT/AOT_stimuli/pictures/2012_fw.png	255.90245985984802	
179	193.74413180351257	picture	0		79	177.0	/experiments/Knapen_AOT/AOT_stimuli/pictures/0466_fw.png	255.91256833076477	0.6598351001739502
179	194.39235925674438	response	0	j		177.0	/experiments/Knapen_AOT/AOT_stimuli/pictures/0466_fw.png	256.5607957839966	
180	194.40396690368652	picture	0		123	178.0	/experiments/Knapen_AOT/AOT_stimuli/pictures/0615_fw.png	256.5724034309387	1.029900312423706
180	195.41735243797302	response	0	j		178.0	/experiments/Knapen_AOT/AOT_stimuli/pictures/0615_fw.png	257.5857889652252	
181	195.43386721611023	picture	0		124	179.0	/experiments/Knapen_AOT/AOT_stimuli/pictures/0625_fw.png	257.6023037433624	1.0416901111602783
181	196.45909786224365	response	0	k		179.0	/experiments/Knapen_AOT/AOT_stimuli/pictures/0625_fw.png	258.62753438949585	
182	196.4755573272705	picture	0		258	180.0	/experiments/Knapen_AOT/AOT_stimuli/pictures/1669_fw.png	258.6439938545227	2.158363103866577
182	198.61749291419983	response	0	k		180.0	/experiments/Knapen_AOT/AOT_stimuli/pictures/1669_fw.png	260.785929441452	
183	198.63392043113708	picture	0		107	181.0	/experiments/Knapen_AOT/AOT_stimuli/pictures/1941_fw.png	260.8023569583893	0.8999812602996826
183	199.51744723320007	response	0	k		181.0	/experiments/Knapen_AOT/AOT_stimuli/pictures/1941_fw.png	261.68588376045227	
184	199.53390169143677	picture	0		241	182.0	/experiments/Knapen_AOT/AOT_stimuli/pictures/1573_fw.png	261.70233821868896	2.0167205333709717
184	201.53418159484863	response	0	k		182.0	/experiments/Knapen_AOT/AOT_stimuli/pictures/1573_fw.png	263.70261812210083	
185	201.55062222480774	picture	0		85	183.0	/experiments/Knapen_AOT/AOT_stimuli/pictures/0543_fw.png	263.71905875205994	0.7166597843170166
185	202.25092363357544	response	0	j		183.0	/experiments/Knapen_AOT/AOT_stimuli/pictures/0543_fw.png	264.41936016082764	
186	202.26728200912476	picture	0		143	184.0	/experiments/Knapen_AOT/AOT_stimuli/pictures/1697_fw.png	264.43571853637695	1.1999905109405518
186	203.45151090621948	response	0	k		184.0	/experiments/Knapen_AOT/AOT_stimuli/pictures/1697_fw.png	265.6199474334717	
187	203.4672725200653	picture	0		128	185.0	/experiments/Knapen_AOT/AOT_stimuli/pictures/0876_fw.png	265.6357090473175	1.0688304901123047
187	204.52590107917786	response	0	k		185.0	/experiments/Knapen_AOT/AOT_stimuli/pictures/0876_fw.png	266.69433760643005	
188	204.5361030101776	picture	0		91	186.0	/experiments/Knapen_AOT/AOT_stimuli/pictures/0062_fw.png	266.7045395374298	0.7645461559295654
188	205.2841498851776	response	0	k		186.0	/experiments/Knapen_AOT/AOT_stimuli/pictures/0062_fw.png	267.4525864124298	
189	205.30064916610718	picture	0		133	187.0	/experiments/Knapen_AOT/AOT_stimuli/pictures/0965_fw.png	267.4690856933594	1.1166727542877197
189	206.40088391304016	response	0	k		187.0	/experiments/Knapen_AOT/AOT_stimuli/pictures/0965_fw.png	268.56932044029236	
190	206.4173219203949	picture	0		102	188.0	/experiments/Knapen_AOT/AOT_stimuli/pictures/1930_fw.png	268.5857584476471	0.8583853244781494
190	207.2591986656189	response	0	j		188.0	/experiments/Knapen_AOT/AOT_stimuli/pictures/1930_fw.png	269.4276351928711	
191	207.27570724487305	picture	0		124	189.0	/experiments/Knapen_AOT/AOT_stimuli/pictures/1020_fw.png	269.44414377212524	1.0416538715362549
191	208.3008930683136	response	0	k		189.0	/experiments/Knapen_AOT/AOT_stimuli/pictures/1020_fw.png	270.4693295955658	
192	208.3173611164093	picture	0		93	190.0	/experiments/Knapen_AOT/AOT_stimuli/pictures/1575_fw.png	270.4857976436615	0.7833452224731445
192	209.08426594734192	response	0	j		190.0	/experiments/Knapen_AOT/AOT_stimuli/pictures/1575_fw.png	271.2527024745941	
193	209.10070633888245	picture	0		131	191.0	/experiments/Knapen_AOT/AOT_stimuli/pictures/0618_fw.png	271.26914286613464	1.1000409126281738
193	210.18426036834717	response	0	k		191.0	/experiments/Knapen_AOT/AOT_stimuli/pictures/0618_fw.png	272.35269689559937	
194	210.20074725151062	picture	0		127	192.0	/experiments/Knapen_AOT/AOT_stimuli/pictures/1559_fw.png	272.3691837787628	1.0666465759277344
194	211.2511215209961	response	0	k		192.0	/experiments/Knapen_AOT/AOT_stimuli/pictures/1559_fw.png	273.4195580482483	
195	211.26739382743835	picture	0		96	193.0	/experiments/Knapen_AOT/AOT_stimuli/pictures/2053_fw.png	273.43583035469055	0.8033628463745117
195	212.05929231643677	response	0	j		193.0	/experiments/Knapen_AOT/AOT_stimuli/pictures/2053_fw.png	274.22772884368896	
196	212.07075667381287	picture	0		103	194.0	/experiments/Knapen_AOT/AOT_stimuli/pictures/0457_fw.png	274.23919320106506	0.8633248805999756
196	212.9175524711609	response	0	k		194.0	/experiments/Knapen_AOT/AOT_stimuli/pictures/0457_fw.png	275.0859889984131	
197	212.93408155441284	picture	0		85	195.0	/experiments/Knapen_AOT/AOT_stimuli/pictures/0093_fw.png	275.10251808166504	0.7166659832000732
197	213.63425636291504	response	0	j		195.0	/experiments/Knapen_AOT/AOT_stimuli/pictures/0093_fw.png	275.80269289016724	
198	213.65074753761292	picture	0		112	196.0	/experiments/Knapen_AOT/AOT_stimuli/pictures/0716_fw.png	275.8191840648651	0.9416577816009521
198	214.57591700553894	response	0	k		196.0	/experiments/Knapen_AOT/AOT_stimuli/pictures/0716_fw.png	276.74435353279114	
199	214.59240531921387	picture	0		95	197.0	/experiments/Knapen_AOT/AOT_stimuli/pictures/0231_fw.png	276.76084184646606	0.7978103160858154
199	215.37600588798523	response	0	k		197.0	/experiments/Knapen_AOT/AOT_stimuli/pictures/0231_fw.png	277.5444424152374	
200	215.39021563529968	picture	0		105	198.0	/experiments/Knapen_AOT/AOT_stimuli/pictures/2121_fw.png	277.5586521625519	0.8855669498443604
200	216.25931811332703	response	0	k		198.0	/experiments/Knapen_AOT/AOT_stimuli/pictures/2121_fw.png	278.4277546405792	
201	216.27578258514404	picture	0		213	199.0	/experiments/Knapen_AOT/AOT_stimuli/pictures/1222_fw.png	278.44421911239624	1.7833678722381592
201	218.03503966331482	response	0	j		199.0	/experiments/Knapen_AOT/AOT_stimuli/pictures/1222_fw.png	280.203476190567	
202	218.0591504573822	picture	0		77	200.0	/experiments/Knapen_AOT/AOT_stimuli/pictures/0839_fw.png	280.2275869846344	0.6435680389404297
202	218.69272756576538	response	0	j		200.0	/experiments/Knapen_AOT/AOT_stimuli/pictures/0839_fw.png	280.8611640930176	
203	218.70271849632263	picture	0		169	201.0	/experiments/Knapen_AOT/AOT_stimuli/pictures/1855_fw.png	280.87115502357483	1.4147686958312988
203	220.1010241508484	response	0	j		201.0	/experiments/Knapen_AOT/AOT_stimuli/pictures/1855_fw.png	282.2694606781006	
204	220.11748719215393	picture	0		178	202.0	/experiments/Knapen_AOT/AOT_stimuli/pictures/2129_fw.png	282.2859237194061	1.4917223453521729
204	221.59289026260376	response	0	j		202.0	/experiments/Knapen_AOT/AOT_stimuli/pictures/2129_fw.png	283.76132678985596	
205	221.6092095375061	picture	0		95	203.0	/experiments/Knapen_AOT/AOT_stimuli/pictures/0209_fw.png	283.7776460647583	0.7949910163879395
205	222.39271306991577	response	0	j		203.0	/experiments/Knapen_AOT/AOT_stimuli/pictures/0209_fw.png	284.56114959716797	
206	222.40420055389404	picture	0		97	204.0	/experiments/Knapen_AOT/AOT_stimuli/pictures/0673_fw.png	284.57263708114624	0.8133082389831543
206	223.20103645324707	response	0	k		204.0	/experiments/Knapen_AOT/AOT_stimuli/pictures/0673_fw.png	285.36947298049927	
207	223.2175087928772	picture	0		122	205.0	/experiments/Knapen_AOT/AOT_stimuli/pictures/0161_fw.png	285.3859453201294	1.0199790000915527
207	224.226083278656	response	0	k		205.0	/experiments/Knapen_AOT/AOT_stimuli/pictures/0161_fw.png	286.3945198059082	
208	224.23748779296875	picture	0		99	206.0	/experiments/Knapen_AOT/AOT_stimuli/pictures/1975_fw.png	286.40592432022095	0.8300597667694092
208	225.0510413646698	response	0	j		206.0	/experiments/Knapen_AOT/AOT_stimuli/pictures/1975_fw.png	287.219477891922	
209	225.06754755973816	picture	0		90	207.0	/experiments/Knapen_AOT/AOT_stimuli/pictures/0390_fw.png	287.23598408699036	0.7583673000335693
209	225.80967617034912	response	0	j		207.0	/experiments/Knapen_AOT/AOT_stimuli/pictures/0390_fw.png	287.9781126976013	
210	225.82591485977173	picture	0		114	208.0	/experiments/Knapen_AOT/AOT_stimuli/pictures/2063_fw.png	287.9943513870239	0.953315258026123
210	226.76781487464905	response	0	k		208.0	/experiments/Knapen_AOT/AOT_stimuli/pictures/2063_fw.png	288.93625140190125	
211	226.77923011779785	picture	0		206	209.0	/experiments/Knapen_AOT/AOT_stimuli/pictures/0468_fw.png	288.94766664505005	1.7151203155517578
211	228.4844353199005	response	0	k		209.0	/experiments/Knapen_AOT/AOT_stimuli/pictures/0468_fw.png	290.6528718471527	
212	228.4943504333496	picture	0		115	210.0	/experiments/Knapen_AOT/AOT_stimuli/pictures/0139_fw.png	290.6627869606018	0.9584662914276123
212	229.44302940368652	response	0	k		210.0	/experiments/Knapen_AOT/AOT_stimuli/pictures/0139_fw.png	291.6114659309387	
213	229.45281672477722	picture	0		117	211.0	/experiments/Knapen_AOT/AOT_stimuli/pictures/1501_fw.png	291.6212532520294	0.9814598560333252
213	230.41780757904053	response	0	j		211.0	/experiments/Knapen_AOT/AOT_stimuli/pictures/1501_fw.png	292.5862441062927	
214	230.43427658081055	picture	0		96	212.0	/experiments/Knapen_AOT/AOT_stimuli/pictures/0495_fw.png	292.60271310806274	0.8083183765411377
214	231.2264461517334	response	0	j		212.0	/experiments/Knapen_AOT/AOT_stimuli/pictures/0495_fw.png	293.3948826789856	
215	231.24259495735168	picture	0		107	213.0	/experiments/Knapen_AOT/AOT_stimuli/pictures/1718_fw.png	293.4110314846039	0.8977351188659668
215	232.12619042396545	response	0	k		213.0	/experiments/Knapen_AOT/AOT_stimuli/pictures/1718_fw.png	294.29462695121765	
216	232.14033007621765	picture	0		93	214.0	/experiments/Knapen_AOT/AOT_stimuli/pictures/1443_fw.png	294.30876660346985	0.7856178283691406
216	232.9095015525818	response	0	k		214.0	/experiments/Knapen_AOT/AOT_stimuli/pictures/1443_fw.png	295.077938079834	
217	232.9259479045868	picture	0		221	215.0	/experiments/Knapen_AOT/AOT_stimuli/pictures/1385_fw.png	295.094384431839	1.8500421047210693
217	234.75949573516846	response	0	k		215.0	/experiments/Knapen_AOT/AOT_stimuli/pictures/1385_fw.png	296.92793226242065	
218	234.77599000930786	picture	0		153	216.0	/experiments/Knapen_AOT/AOT_stimuli/pictures/0761_fw.png	296.94442653656006	1.2833423614501953
218	236.04307889938354	response	0	k		216.0	/experiments/Knapen_AOT/AOT_stimuli/pictures/0761_fw.png	298.21151542663574	
219	236.05933237075806	picture	0		145	217.0	/experiments/Knapen_AOT/AOT_stimuli/pictures/0599_fw.png	298.22776889801025	1.2167038917541504
219	237.2595191001892	response	0	k		217.0	/experiments/Knapen_AOT/AOT_stimuli/pictures/0599_fw.png	299.4279556274414	
220	237.2760362625122	picture	0		194	218.0	/experiments/Knapen_AOT/AOT_stimuli/pictures/0064_fw.png	299.4444727897644	1.6211719512939453
220	238.88454461097717	response	0	j		218.0	/experiments/Knapen_AOT/AOT_stimuli/pictures/0064_fw.png	301.05298113822937	
221	238.89720821380615	picture	0		111	219.0	/experiments/Knapen_AOT/AOT_stimuli/pictures/0803_fw.png	301.06564474105835	0.9288575649261475
221	239.80964708328247	response	0	j		219.0	/experiments/Knapen_AOT/AOT_stimuli/pictures/0803_fw.png	301.97808361053467	
222	239.8260657787323	picture	0		97	220.0	/experiments/Knapen_AOT/AOT_stimuli/pictures/0669_fw.png	301.9945023059845	0.8142998218536377
222	240.62627577781677	response	0	k		220.0	/experiments/Knapen_AOT/AOT_stimuli/pictures/0669_fw.png	302.79471230506897	
223	240.64036560058594	picture	0		126	221.0	/experiments/Knapen_AOT/AOT_stimuli/pictures/0362_fw.png	302.80880212783813	1.0555710792541504
223	241.68452763557434	response	0	k		221.0	/experiments/Knapen_AOT/AOT_stimuli/pictures/0362_fw.png	303.85296416282654	
224	241.6959366798401	picture	0		113	222.0	/experiments/Knapen_AOT/AOT_stimuli/pictures/0846_fw.png	303.8643732070923	0.944411039352417
224	242.62629318237305	response	0	k		222.0	/experiments/Knapen_AOT/AOT_stimuli/pictures/0846_fw.png	304.79472970962524	
225	242.6403477191925	picture	0		244	223.0	/experiments/Knapen_AOT/AOT_stimuli/pictures/1516_fw.png	304.8087842464447	2.041654109954834
225	244.66797280311584	response	0	j		223.0	/experiments/Knapen_AOT/AOT_stimuli/pictures/1516_fw.png	306.83640933036804	
226	244.68200182914734	picture	0		82	224.0	/experiments/Knapen_AOT/AOT_stimuli/pictures/0160_fw.png	306.85043835639954	0.687535285949707
226	245.3597137928009	response	0	j		224.0	/experiments/Knapen_AOT/AOT_stimuli/pictures/0160_fw.png	307.5281503200531	
227	245.36953711509705	picture	0		100	225.0	/experiments/Knapen_AOT/AOT_stimuli/pictures/2159_fw.png	307.53797364234924	0.8399364948272705
227	246.19304084777832	response	0	k		225.0	/experiments/Knapen_AOT/AOT_stimuli/pictures/2159_fw.png	308.3614773750305	
228	246.20947360992432	picture	0		142	226.0	/experiments/Knapen_AOT/AOT_stimuli/pictures/1842_fw.png	308.3779101371765	1.187903881072998
228	247.3846459388733	response	0	k		226.0	/experiments/Knapen_AOT/AOT_stimuli/pictures/1842_fw.png	309.5530824661255	
229	247.39737749099731	picture	0		115	227.0	/experiments/Knapen_AOT/AOT_stimuli/pictures/0503_fw.png	309.5658140182495	0.9621071815490723
229	248.34299659729004	response	0	k		227.0	/experiments/Knapen_AOT/AOT_stimuli/pictures/0503_fw.png	310.51143312454224	
230	248.3594846725464	picture	0		91	228.0	/experiments/Knapen_AOT/AOT_stimuli/pictures/0296_fw.png	310.5279211997986	0.7667176723480225
230	249.1099407672882	response	0	j		228.0	/experiments/Knapen_AOT/AOT_stimuli/pictures/0296_fw.png	311.2783772945404	
231	249.1262023448944	picture	0		120	229.0	/experiments/Knapen_AOT/AOT_stimuli/pictures/1458_fw.png	311.2946388721466	1.0082757472991943
231	250.1180477142334	response	0	k		229.0	/experiments/Knapen_AOT/AOT_stimuli/pictures/1458_fw.png	312.2864842414856	
232	250.1344780921936	picture	0		97	230.0	/experiments/Knapen_AOT/AOT_stimuli/pictures/0480_fw.png	312.3029146194458	0.8115234375
232	250.9347014427185	response	0	k		230.0	/experiments/Knapen_AOT/AOT_stimuli/pictures/0480_fw.png	313.1031379699707	
233	250.9460015296936	picture	0		102	231.0	/experiments/Knapen_AOT/AOT_stimuli/pictures/1187_fw.png	313.1144380569458	0.8552098274230957
233	251.7847936153412	response	0	j		231.0	/experiments/Knapen_AOT/AOT_stimuli/pictures/1187_fw.png	313.9532301425934	
234	251.8012113571167	picture	0		128	232.0	/experiments/Knapen_AOT/AOT_stimuli/pictures/1940_fw.png	313.9696478843689	1.075002908706665
234	252.85977864265442	response	0	k		232.0	/experiments/Knapen_AOT/AOT_stimuli/pictures/1940_fw.png	315.0282151699066	
235	252.87621426582336	picture	0		99	233.0	/experiments/Knapen_AOT/AOT_stimuli/pictures/0356_fw.png	315.04465079307556	0.833336591720581
235	253.6930854320526	response	0	j		233.0	/experiments/Knapen_AOT/AOT_stimuli/pictures/0356_fw.png	315.8615219593048	
236	253.70955085754395	picture	0		110	234.0	/experiments/Knapen_AOT/AOT_stimuli/pictures/0962_fw.png	315.87798738479614	0.9249956607818604
236	254.61126708984375	response	0	j		234.0	/experiments/Knapen_AOT/AOT_stimuli/pictures/0962_fw.png	316.77970361709595	
237	254.6345465183258	picture	0		301	235.0	/experiments/Knapen_AOT/AOT_stimuli/pictures/1413_fw.png	316.802983045578	2.5167160034179688
237	257.13476824760437	response	0	j		235.0	/experiments/Knapen_AOT/AOT_stimuli/pictures/1413_fw.png	319.30320477485657	
238	257.1512625217438	picture	0		116	236.0	/experiments/Knapen_AOT/AOT_stimuli/pictures/0975_fw.png	319.319699048996	0.9683933258056641
238	258.1098003387451	response	0	j		236.0	/experiments/Knapen_AOT/AOT_stimuli/pictures/0975_fw.png	320.2782368659973	
239	258.11965584754944	picture	0		87	237.0	/experiments/Knapen_AOT/AOT_stimuli/pictures/0989_fw.png	320.28809237480164	0.7291712760925293
239	258.82727098464966	response	0	j		237.0	/experiments/Knapen_AOT/AOT_stimuli/pictures/0989_fw.png	320.99570751190186	
240	258.84882712364197	picture	0		106	238.0	/experiments/Knapen_AOT/AOT_stimuli/pictures/0585_fw.png	321.01726365089417	0.8889427185058594
240	259.7264630794525	response	0	k		238.0	/experiments/Knapen_AOT/AOT_stimuli/pictures/0585_fw.png	321.8948996067047	
241	259.7377698421478	picture	0		119	239.0	/experiments/Knapen_AOT/AOT_stimuli/pictures/1478_fw.png	321.9062063694	1.0051774978637695
241	260.7265775203705	response	0	j		239.0	/experiments/Knapen_AOT/AOT_stimuli/pictures/1478_fw.png	322.8950140476227	
242	260.7429473400116	picture	0		78	240.0	/experiments/Knapen_AOT/AOT_stimuli/pictures/1043_fw.png	322.9113838672638	0.6544909477233887
242	261.38485884666443	response	0	j		240.0	/experiments/Knapen_AOT/AOT_stimuli/pictures/1043_fw.png	323.5532953739166	
243	261.397438287735	picture	0		171	241.0	/experiments/Knapen_AOT/AOT_stimuli/pictures/2163_fw.png	323.5658748149872	1.4235270023345947
243	262.80982875823975	response	0	k		241.0	/experiments/Knapen_AOT/AOT_stimuli/pictures/2163_fw.png	324.97826528549194	
244	262.8209652900696	picture	0		121	242.0	/experiments/Knapen_AOT/AOT_stimuli/pictures/0856_fw.png	324.9894018173218	1.0137367248535156
244	263.8184027671814	response	0	j		242.0	/experiments/Knapen_AOT/AOT_stimuli/pictures/0856_fw.png	325.9868392944336	
245	263.8347020149231	picture	0		130	243.0	/experiments/Knapen_AOT/AOT_stimuli/pictures/2034_fw.png	326.0031385421753	1.0916242599487305
245	264.909859418869	response	0	k		243.0	/experiments/Knapen_AOT/AOT_stimuli/pictures/2034_fw.png	327.0782959461212	
246	264.9263262748718	picture	0		97	244.0	/experiments/Knapen_AOT/AOT_stimuli/pictures/0529_fw.png	327.094762802124	0.8166837692260742
246	265.7266092300415	response	0	k		244.0	/experiments/Knapen_AOT/AOT_stimuli/pictures/0529_fw.png	327.8950457572937	
247	265.7430100440979	picture	0		95	245.0	/experiments/Knapen_AOT/AOT_stimuli/pictures/0105_fw.png	327.9114465713501	0.7933447360992432
247	266.52655363082886	response	0	k		245.0	/experiments/Knapen_AOT/AOT_stimuli/pictures/0105_fw.png	328.69499015808105	
248	266.53635478019714	picture	0		101	246.0	/experiments/Knapen_AOT/AOT_stimuli/pictures/0451_fw.png	328.70479130744934	0.8483245372772217
248	267.3684639930725	response	0	j		246.0	/experiments/Knapen_AOT/AOT_stimuli/pictures/0451_fw.png	329.5369005203247	
249	267.38467931747437	picture	0		125	247.0	/experiments/Knapen_AOT/AOT_stimuli/pictures/2043_fw.png	329.55311584472656	1.0500447750091553
249	268.41850113868713	response	0	j		247.0	/experiments/Knapen_AOT/AOT_stimuli/pictures/2043_fw.png	330.58693766593933	
250	268.4347240924835	picture	0		85	248.0	/experiments/Knapen_AOT/AOT_stimuli/pictures/1704_fw.png	330.6031606197357	0.7166867256164551
250	269.13492345809937	response	0	j		248.0	/experiments/Knapen_AOT/AOT_stimuli/pictures/1704_fw.png	331.30335998535156	
251	269.1514108181	picture	0		106	249.0	/experiments/Knapen_AOT/AOT_stimuli/pictures/0122_fw.png	331.3198473453522	0.89166259765625
251	270.0189402103424	response	0	k		249.0	/experiments/Knapen_AOT/AOT_stimuli/pictures/0122_fw.png	332.1873767375946	
252	270.0430734157562	picture	0		96	250.0	/experiments/Knapen_AOT/AOT_stimuli/pictures/0011_fw.png	332.2115099430084	0.8057985305786133
252	270.82735443115234	response	0	k		250.0	/experiments/Knapen_AOT/AOT_stimuli/pictures/0011_fw.png	332.99579095840454	
253	270.84887194633484	picture	0		108	251.0	/experiments/Knapen_AOT/AOT_stimuli/pictures/0487_fw.png	333.01730847358704	0.9027729034423828
253	271.7432701587677	response	0	j		251.0	/experiments/Knapen_AOT/AOT_stimuli/pictures/0487_fw.png	333.9117066860199	
254	271.7516448497772	picture	0		188	252.0	/experiments/Knapen_AOT/AOT_stimuli/pictures/2123_fw.png	333.9200813770294	1.5748186111450195
254	273.3099970817566	response	0	k		252.0	/experiments/Knapen_AOT/AOT_stimuli/pictures/2123_fw.png	335.4784336090088	
255	273.32646346092224	picture	0		90	253.0	/experiments/Knapen_AOT/AOT_stimuli/pictures/1258_fw.png	335.49489998817444	0.7583262920379639
255	274.0683283805847	response	0	j		253.0	/experiments/Knapen_AOT/AOT_stimuli/pictures/1258_fw.png	336.2367649078369	
256	274.0847897529602	picture	0		124	254.0	/experiments/Knapen_AOT/AOT_stimuli/pictures/0260_fw.png	336.2532262802124	1.0349631309509277
256	275.11007261276245	response	0	j		254.0	/experiments/Knapen_AOT/AOT_stimuli/pictures/0260_fw.png	337.27850914001465	
257	275.11975288391113	picture	0		94	255.0	/experiments/Knapen_AOT/AOT_stimuli/pictures/1270_fw.png	337.28818941116333	0.7900481224060059
257	275.8934061527252	response	0	k		255.0	/experiments/Knapen_AOT/AOT_stimuli/pictures/1270_fw.png	338.0618426799774	
258	275.90980100631714	picture	0		172	256.0	/experiments/Knapen_AOT/AOT_stimuli/pictures/0672_fw.png	338.07823753356934	1.4416847229003906
258	277.3350405693054	response	0	j		256.0	/experiments/Knapen_AOT/AOT_stimuli/pictures/0672_fw.png	339.5034770965576	
259	277.35148572921753	picture	0		96	257.0	/experiments/Knapen_AOT/AOT_stimuli/pictures/0150_fw.png	339.5199222564697	0.808340311050415
259	278.1435968875885	response	0	k		257.0	/experiments/Knapen_AOT/AOT_stimuli/pictures/0150_fw.png	340.3120334148407	
260	278.15982604026794	picture	0		106	258.0	/experiments/Knapen_AOT/AOT_stimuli/pictures/1879_fw.png	340.32826256752014	0.8916664123535156
260	279.02772545814514	response	0	j		258.0	/experiments/Knapen_AOT/AOT_stimuli/pictures/1879_fw.png	341.19616198539734	
261	279.05149245262146	picture	0		104	259.0	/experiments/Knapen_AOT/AOT_stimuli/pictures/0884_fw.png	341.21992897987366	0.8750143051147461
261	279.910031080246	response	0	k		259.0	/experiments/Knapen_AOT/AOT_stimuli/pictures/0884_fw.png	342.07846760749817	
262	279.9265067577362	picture	0		107	260.0	/experiments/Knapen_AOT/AOT_stimuli/pictures/0284_fw.png	342.0949432849884	0.8999984264373779
262	280.8103151321411	response	0	k		260.0	/experiments/Knapen_AOT/AOT_stimuli/pictures/0284_fw.png	342.9787516593933	
263	280.8265051841736	picture	0		113	261.0	/experiments/Knapen_AOT/AOT_stimuli/pictures/0860_fw.png	342.9949417114258	0.9460573196411133
263	281.7600677013397	response	0	k		261.0	/experiments/Knapen_AOT/AOT_stimuli/pictures/0860_fw.png	343.9285042285919	
264	281.7725625038147	picture	0		153	262.0	/experiments/Knapen_AOT/AOT_stimuli/pictures/0048_fw.png	343.9409990310669	1.2790088653564453
264	283.02767276763916	response	0	k		262.0	/experiments/Knapen_AOT/AOT_stimuli/pictures/0048_fw.png	345.19610929489136	
265	283.05157136917114	picture	0		167	263.0	/experiments/Knapen_AOT/AOT_stimuli/pictures/0290_fw.png	345.22000789642334	1.3945364952087402
265	284.4285669326782	response	0	k		263.0	/experiments/Knapen_AOT/AOT_stimuli/pictures/0290_fw.png	346.5970034599304	
266	284.4461078643799	picture	0		100	264.0	/experiments/Knapen_AOT/AOT_stimuli/pictures/1788_fw.png	346.6145443916321	0.8388051986694336
266	285.2684283256531	response	0	k		264.0	/experiments/Knapen_AOT/AOT_stimuli/pictures/1788_fw.png	347.4368648529053	
267	285.2849130630493	picture	0		181	265.0	/experiments/Knapen_AOT/AOT_stimuli/pictures/1831_fw.png	347.4533495903015	1.516730785369873
267	286.78513264656067	response	0	j		265.0	/experiments/Knapen_AOT/AOT_stimuli/pictures/1831_fw.png	348.95356917381287	
268	286.8016438484192	picture	0		97	266.0	/experiments/Knapen_AOT/AOT_stimuli/pictures/2161_fw.png	348.9700803756714	0.8112502098083496
268	287.60178780555725	response	0	j		266.0	/experiments/Knapen_AOT/AOT_stimuli/pictures/2161_fw.png	349.77022433280945	
269	287.61289405822754	picture	0		103	267.0	/experiments/Knapen_AOT/AOT_stimuli/pictures/0278_fw.png	349.78133058547974	0.8637118339538574
269	288.46023201942444	response	0	k		267.0	/experiments/Knapen_AOT/AOT_stimuli/pictures/0278_fw.png	350.62866854667664	
270	288.4766058921814	picture	0		135	268.0	/experiments/Knapen_AOT/AOT_stimuli/pictures/0035_fw.png	350.6450424194336	1.129335880279541
270	289.5934135913849	response	0	k		268.0	/experiments/Knapen_AOT/AOT_stimuli/pictures/0035_fw.png	351.7618501186371	
271	289.60594177246094	picture	0		91	269.0	/experiments/Knapen_AOT/AOT_stimuli/pictures/0979_fw.png	351.77437829971313	0.7623422145843506
271	290.35181307792664	response	0	k		269.0	/experiments/Knapen_AOT/AOT_stimuli/pictures/0979_fw.png	352.52024960517883	
272	290.3682839870453	picture	0		252	270.0	/experiments/Knapen_AOT/AOT_stimuli/pictures/1208_fw.png	352.5367205142975	2.1056623458862305
272	292.46021938323975	response	0	j		270.0	/experiments/Knapen_AOT/AOT_stimuli/pictures/1208_fw.png	354.62865591049194	
273	292.4739463329315	picture	0		112	271.0	/experiments/Knapen_AOT/AOT_stimuli/pictures/0142_fw.png	354.6423828601837	0.9444003105163574
273	293.4019031524658	response	0	k		271.0	/experiments/Knapen_AOT/AOT_stimuli/pictures/0142_fw.png	355.570339679718	
274	293.4183466434479	picture	0		117	272.0	/experiments/Knapen_AOT/AOT_stimuli/pictures/0479_fw.png	355.5867831707001	0.9793188571929932
274	294.38543009757996	response	0	k		272.0	/experiments/Knapen_AOT/AOT_stimuli/pictures/0479_fw.png	356.55386662483215	
275	294.39766550064087	picture	0		110	273.0	/experiments/Knapen_AOT/AOT_stimuli/pictures/1590_fw.png	356.56610202789307	0.916658878326416
275	295.3018615245819	response	0	k		273.0	/experiments/Knapen_AOT/AOT_stimuli/pictures/1590_fw.png	357.4702980518341	
276	295.3143243789673	picture	0		109	274.0	/experiments/Knapen_AOT/AOT_stimuli/pictures/0463_fw.png	357.4827609062195	0.9124016761779785
276	296.2103066444397	response	0	k		274.0	/experiments/Knapen_AOT/AOT_stimuli/pictures/0463_fw.png	358.3787431716919	
277	296.22672605514526	picture	0		173	275.0	/experiments/Knapen_AOT/AOT_stimuli/pictures/1044_fw.png	358.39516258239746	1.44167160987854
277	297.66025853157043	response	0	j		275.0	/experiments/Knapen_AOT/AOT_stimuli/pictures/1044_fw.png	359.82869505882263	
278	297.6683976650238	picture	0		140	276.0	/experiments/Knapen_AOT/AOT_stimuli/pictures/1564_fw.png	359.836834192276	1.1667592525482178
278	298.8200979232788	response	0	j		276.0	/experiments/Knapen_AOT/AOT_stimuli/pictures/1564_fw.png	360.988534450531	
279	298.835156917572	picture	0		81	277.0	/experiments/Knapen_AOT/AOT_stimuli/pictures/2130_fw.png	361.0035934448242	0.683253288269043
279	299.5019681453705	response	0	k		277.0	/experiments/Knapen_AOT/AOT_stimuli/pictures/2130_fw.png	361.6704046726227	
280	299.51841020584106	picture	0		120	278.0	/experiments/Knapen_AOT/AOT_stimuli/pictures/2013_fw.png	361.68684673309326	1.008366346359253
280	300.51028323173523	response	0	k		278.0	/experiments/Knapen_AOT/AOT_stimuli/pictures/2013_fw.png	362.6787197589874	
281	300.5267765522003	picture	0		105	279.0	/experiments/Knapen_AOT/AOT_stimuli/pictures/0986_fw.png	362.6952130794525	0.88334059715271
281	301.39360642433167	response	0	k		279.0	/experiments/Knapen_AOT/AOT_stimuli/pictures/0986_fw.png	363.56204295158386	
282	301.410117149353	picture	0		89	280.0	/experiments/Knapen_AOT/AOT_stimuli/pictures/1468_fw.png	363.5785536766052	0.7446250915527344
282	302.1436667442322	response	0	k		280.0	/experiments/Knapen_AOT/AOT_stimuli/pictures/1468_fw.png	364.3121032714844	
283	302.15474224090576	picture	0		114	281.0	/experiments/Knapen_AOT/AOT_stimuli/pictures/1968_fw.png	364.32317876815796	0.9637041091918945
283	303.1019697189331	response	0	k		281.0	/experiments/Knapen_AOT/AOT_stimuli/pictures/1968_fw.png	365.2704062461853	
284	303.11844635009766	picture	0		131	282.0	/experiments/Knapen_AOT/AOT_stimuli/pictures/1924_fw.png	365.28688287734985	1.100010633468628
284	304.2019736766815	response	0	k		282.0	/experiments/Knapen_AOT/AOT_stimuli/pictures/1924_fw.png	366.3704102039337	
285	304.2184569835663	picture	0		120	283.0	/experiments/Knapen_AOT/AOT_stimuli/pictures/1364_fw.png	366.3868935108185	1.0083856582641602
285	305.2103867530823	response	0	j		283.0	/experiments/Knapen_AOT/AOT_stimuli/pictures/1364_fw.png	367.3788232803345	
286	305.22684264183044	picture	0		121	284.0	/experiments/Knapen_AOT/AOT_stimuli/pictures/1118_fw.png	367.39527916908264	1.016643762588501
286	306.2272288799286	response	0	k		284.0	/experiments/Knapen_AOT/AOT_stimuli/pictures/1118_fw.png	368.3956654071808	
287	306.24348640441895	picture	0		113	285.0	/experiments/Knapen_AOT/AOT_stimuli/pictures/1891_fw.png	368.41192293167114	0.950045108795166
287	307.17703199386597	response	0	k		285.0	/experiments/Knapen_AOT/AOT_stimuli/pictures/1891_fw.png	369.34546852111816	
288	307.1935315132141	picture	0		87	286.0	/experiments/Knapen_AOT/AOT_stimuli/pictures/0392_fw.png	369.3619680404663	0.7251005172729492
288	307.9103374481201	response	0	k		286.0	/experiments/Knapen_AOT/AOT_stimuli/pictures/0392_fw.png	370.0787739753723	
289	307.91863203048706	picture	0		94	287.0	/experiments/Knapen_AOT/AOT_stimuli/pictures/0912_fw.png	370.08706855773926	0.7846651077270508
289	308.69366812705994	response	0	j		287.0	/experiments/Knapen_AOT/AOT_stimuli/pictures/0912_fw.png	370.86210465431213	
290	308.7032971382141	picture	0		123	288.0	/experiments/Knapen_AOT/AOT_stimuli/pictures/1926_fw.png	370.8717336654663	1.0318968296051025
290	309.71876859664917	response	0	j		288.0	/experiments/Knapen_AOT/AOT_stimuli/pictures/1926_fw.png	371.88720512390137	
291	309.7351939678192	picture	0		133	289.0	/experiments/Knapen_AOT/AOT_stimuli/pictures/1082_fw.png	371.9036304950714	1.1166846752166748
291	310.83551001548767	response	0	k		289.0	/experiments/Knapen_AOT/AOT_stimuli/pictures/1082_fw.png	373.00394654273987	
292	310.8518786430359	picture	0		133	290.0	/experiments/Knapen_AOT/AOT_stimuli/pictures/1123_fw.png	373.0203151702881	1.1166722774505615
292	311.9520914554596	response	0	k		290.0	/experiments/Knapen_AOT/AOT_stimuli/pictures/1123_fw.png	374.1205279827118	
293	311.96855092048645	picture	0		177	291.0	/experiments/Knapen_AOT/AOT_stimuli/pictures/0703_fw.png	374.13698744773865	1.483391284942627
293	313.4355437755585	response	0	k		291.0	/experiments/Knapen_AOT/AOT_stimuli/pictures/0703_fw.png	375.60398030281067	
294	313.4519422054291	picture	0		144	292.0	/experiments/Knapen_AOT/AOT_stimuli/pictures/0515_fw.png	375.6203787326813	1.2083113193511963
294	314.64380645751953	response	0	k		292.0	/experiments/Knapen_AOT/AOT_stimuli/pictures/0515_fw.png	376.81224298477173	
295	314.6602535247803	picture	0		110	293.0	/experiments/Knapen_AOT/AOT_stimuli/pictures/0233_fw.png	376.82869005203247	0.9252371788024902
295	315.5688977241516	response	0	j		293.0	/experiments/Knapen_AOT/AOT_stimuli/pictures/0233_fw.png	377.7373342514038	
296	315.58549070358276	picture	0		102	294.0	/experiments/Knapen_AOT/AOT_stimuli/pictures/1921_fw.png	377.75392723083496	0.8540065288543701
296	316.4202160835266	response	0	j		294.0	/experiments/Knapen_AOT/AOT_stimuli/pictures/1921_fw.png	378.5886526107788	
297	316.43949723243713	picture	0		155	295.0	/experiments/Knapen_AOT/AOT_stimuli/pictures/1328_fw.png	378.60793375968933	1.2958259582519531
297	317.71884417533875	response	0	j		295.0	/experiments/Knapen_AOT/AOT_stimuli/pictures/1328_fw.png	379.88728070259094	
298	317.7353231906891	picture	0		84	296.0	/experiments/Knapen_AOT/AOT_stimuli/pictures/1009_fw.png	379.9037597179413	0.7083785533905029
298	318.4194896221161	response	0	k		296.0	/experiments/Knapen_AOT/AOT_stimuli/pictures/1009_fw.png	380.5879261493683	
299	318.4437017440796	picture	0		92	297.0	/experiments/Knapen_AOT/AOT_stimuli/pictures/1751_fw.png	380.6121382713318	0.7749621868133545
299	319.2021975517273	response	0	k		297.0	/experiments/Knapen_AOT/AOT_stimuli/pictures/1751_fw.png	381.3706340789795	
300	319.21866393089294	picture	0		256	298.0	/experiments/Knapen_AOT/AOT_stimuli/pictures/1048_fw.png	381.38710045814514	2.1416587829589844
300	321.3438608646393	response	0	k		298.0	/experiments/Knapen_AOT/AOT_stimuli/pictures/1048_fw.png	383.5122973918915	
301	321.36032271385193	picture	0		114	299.0	/experiments/Knapen_AOT/AOT_stimuli/pictures/0542_fw.png	383.5287592411041	0.954164981842041
301	322.302227973938	response	0	k		299.0	/experiments/Knapen_AOT/AOT_stimuli/pictures/0542_fw.png	384.4706645011902	
302	322.31448769569397	picture	0		113	300.0	/experiments/Knapen_AOT/AOT_stimuli/pictures/1872_fw.png	384.48292422294617	0.945864200592041
302	323.2439112663269	response	0	j		300.0	/experiments/Knapen_AOT/AOT_stimuli/pictures/1872_fw.png	385.4123477935791	
303	323.260351896286	picture	0		153	301.0	/experiments/Knapen_AOT/AOT_stimuli/pictures/0220_fw.png	385.4287884235382	1.2833704948425293
303	324.52721905708313	response	0	k		301.0	/experiments/Knapen_AOT/AOT_stimuli/pictures/0220_fw.png	386.6956555843353	
304	324.54372239112854	picture	0		125	302.0	/experiments/Knapen_AOT/AOT_stimuli/pictures/0283_fw.png	386.71215891838074	1.0499882698059082
304	325.5772457122803	response	0	j		302.0	/experiments/Knapen_AOT/AOT_stimuli/pictures/0283_fw.png	387.74568223953247	
305	325.59371066093445	picture	0		99	303.0	/experiments/Knapen_AOT/AOT_stimuli/pictures/0855_fw.png	387.76214718818665	0.8250253200531006
305	326.4031217098236	response	0	j		303.0	/experiments/Knapen_AOT/AOT_stimuli/pictures/0855_fw.png	388.5715582370758	
306	326.41873598098755	picture	0		103	304.0	/experiments/Knapen_AOT/AOT_stimuli/pictures/0783_fw.png	388.58717250823975	0.8666412830352783
306	327.26897621154785	response	0	k		304.0	/experiments/Knapen_AOT/AOT_stimuli/pictures/0783_fw.png	389.43741273880005	
307	327.2853772640228	picture	0		328	305.0	/experiments/Knapen_AOT/AOT_stimuli/pictures/0887_fw.png	389.453813791275	2.7417213916778564
307	330.0106029510498	response	0	k		305.0	/experiments/Knapen_AOT/AOT_stimuli/pictures/0887_fw.png	392.179039478302	
308	330.0270986557007	picture	0		96	306.0	/experiments/Knapen_AOT/AOT_stimuli/pictures/0769_fw.png	392.1955351829529	0.8083217144012451
308	330.8195149898529	response	0	k		306.0	/experiments/Knapen_AOT/AOT_stimuli/pictures/0769_fw.png	392.9879515171051	
309	330.83542037010193	picture	0		91	307.0	/experiments/Knapen_AOT/AOT_stimuli/pictures/0793_fw.png	393.0038568973541	0.7667043209075928
309	331.5856111049652	response	0	j		307.0	/experiments/Knapen_AOT/AOT_stimuli/pictures/0793_fw.png	393.7540476322174	
310	331.6021246910095	picture	0		107	308.0	/experiments/Knapen_AOT/AOT_stimuli/pictures/2113_fw.png	393.7705612182617	0.90000319480896
310	332.48584842681885	response	0	k		308.0	/experiments/Knapen_AOT/AOT_stimuli/pictures/2113_fw.png	394.65428495407104	
311	332.5021278858185	picture	0		103	309.0	/experiments/Knapen_AOT/AOT_stimuli/pictures/1247_fw.png	394.6705644130707	0.8666732311248779
311	333.35235500335693	response	0	j		309.0	/experiments/Knapen_AOT/AOT_stimuli/pictures/1247_fw.png	395.52079153060913	
312	333.36880111694336	picture	0		143	310.0	/experiments/Knapen_AOT/AOT_stimuli/pictures/1679_fw.png	395.53723764419556	1.1999998092651367
312	334.55232214927673	response	0	k		310.0	/experiments/Knapen_AOT/AOT_stimuli/pictures/1679_fw.png	396.72075867652893	
313	334.5688009262085	picture	0		103	311.0	/experiments/Knapen_AOT/AOT_stimuli/pictures/0976_fw.png	396.7372374534607	0.8638279438018799
313	335.4114463329315	response	0	j		311.0	/experiments/Knapen_AOT/AOT_stimuli/pictures/0976_fw.png	397.5798828601837	
314	335.4326288700104	picture	0		103	312.0	/experiments/Knapen_AOT/AOT_stimuli/pictures/0834_fw.png	397.6010653972626	0.8695485591888428
314	336.2856831550598	response	0	k		312.0	/experiments/Knapen_AOT/AOT_stimuli/pictures/0834_fw.png	398.454119682312	
315	336.3021774291992	picture	0		135	313.0	/experiments/Knapen_AOT/AOT_stimuli/pictures/0772_fw.png	398.4706139564514	1.1333286762237549
315	337.4113869667053	response	0	k		313.0	/experiments/Knapen_AOT/AOT_stimuli/pictures/0772_fw.png	399.5798234939575	
316	337.435506105423	picture	0		114	314.0	/experiments/Knapen_AOT/AOT_stimuli/pictures/1682_fw.png	399.60394263267517	0.9583637714385986
316	338.3774013519287	response	0	k		314.0	/experiments/Knapen_AOT/AOT_stimuli/pictures/1682_fw.png	400.5458378791809	
317	338.3938698768616	picture	0		110	315.0	/experiments/Knapen_AOT/AOT_stimuli/pictures/0225_fw.png	400.56230640411377	0.9207236766815186
317	339.3023900985718	response	0	k		315.0	/experiments/Knapen_AOT/AOT_stimuli/pictures/0225_fw.png	401.470826625824	
318	339.3145935535431	picture	0		98	316.0	/experiments/Knapen_AOT/AOT_stimuli/pictures/1327_fw.png	401.4830300807953	0.8209612369537354
318	340.11906003952026	response	0	k		316.0	/experiments/Knapen_AOT/AOT_stimuli/pictures/1327_fw.png	402.28749656677246	
319	340.1355547904968	picture	0		102	317.0	/experiments/Knapen_AOT/AOT_stimuli/pictures/1133_fw.png	402.303991317749	0.858328104019165
319	340.9774520397186	response	0	k		317.0	/experiments/Knapen_AOT/AOT_stimuli/pictures/1133_fw.png	403.1458885669708	
320	340.993882894516	picture	0		100	318.0	/experiments/Knapen_AOT/AOT_stimuli/pictures/0904_fw.png	403.1623194217682	0.8416812419891357
320	341.8193175792694	response	0	j		318.0	/experiments/Knapen_AOT/AOT_stimuli/pictures/0904_fw.png	403.9877541065216	
321	341.8355641365051	picture	0		154	319.0	/experiments/Knapen_AOT/AOT_stimuli/pictures/0351_fw.png	404.0040006637573	1.2916615009307861
321	343.1108145713806	response	0	j		319.0	/experiments/Knapen_AOT/AOT_stimuli/pictures/0351_fw.png	405.2792510986328	
322	343.1272256374359	picture	0		127	320.0	/experiments/Knapen_AOT/AOT_stimuli/pictures/1868_fw.png	405.2956621646881	1.0667057037353516
322	344.177437543869	response	0	j		320.0	/experiments/Knapen_AOT/AOT_stimuli/pictures/1868_fw.png	406.3458740711212	
323	344.19393134117126	picture	0		196	321.0	/experiments/Knapen_AOT/AOT_stimuli/pictures/1946_fw.png	406.36236786842346	1.6416795253753662
323	345.8192050457001	response	0	k		321.0	/experiments/Knapen_AOT/AOT_stimuli/pictures/1946_fw.png	407.98764157295227	
324	345.83561086654663	picture	0		138	322.0	/experiments/Knapen_AOT/AOT_stimuli/pictures/0330_fw.png	408.0040473937988	1.1583878993988037
324	346.977650642395	response	0	k		322.0	/experiments/Knapen_AOT/AOT_stimuli/pictures/0330_fw.png	409.1460871696472	
325	346.99399876594543	picture	0		111	323.0	/experiments/Knapen_AOT/AOT_stimuli/pictures/1295_fw.png	409.16243529319763	0.9333195686340332
325	347.91082978248596	response	0	k		323.0	/experiments/Knapen_AOT/AOT_stimuli/pictures/1295_fw.png	410.07926630973816	
326	347.92731833457947	picture	0		163	324.0	/experiments/Knapen_AOT/AOT_stimuli/pictures/1925_fw.png	410.09575486183167	1.3666715621948242
326	349.2774999141693	response	0	j		324.0	/experiments/Knapen_AOT/AOT_stimuli/pictures/1925_fw.png	411.4459364414215	
327	349.2939898967743	picture	0		134	325.0	/experiments/Knapen_AOT/AOT_stimuli/pictures/0788_fw.png	411.4624264240265	1.125032901763916
327	350.4026017189026	response	0	k		325.0	/experiments/Knapen_AOT/AOT_stimuli/pictures/0788_fw.png	412.5710382461548	
328	350.4190227985382	picture	0		113	326.0	/experiments/Knapen_AOT/AOT_stimuli/pictures/1787_fw.png	412.5874593257904	0.9499731063842773
328	351.35263109207153	response	0	j		326.0	/experiments/Knapen_AOT/AOT_stimuli/pictures/1787_fw.png	413.52106761932373	
329	351.3689959049225	picture	0		96	327.0	/experiments/Knapen_AOT/AOT_stimuli/pictures/0678_fw.png	413.5374324321747	0.8083629608154297
329	352.1612207889557	response	0	j		327.0	/experiments/Knapen_AOT/AOT_stimuli/pictures/0678_fw.png	414.3296573162079	
330	352.1773588657379	picture	0		144	328.0	/experiments/Knapen_AOT/AOT_stimuli/pictures/1410_fw.png	414.3457953929901	1.2083542346954346
330	353.36985182762146	response	0	k		328.0	/experiments/Knapen_AOT/AOT_stimuli/pictures/1410_fw.png	415.53828835487366	
331	353.38571310043335	picture	0		116	329.0	/experiments/Knapen_AOT/AOT_stimuli/pictures/0829_fw.png	415.55414962768555	0.9706170558929443
331	354.34418535232544	response	0	k		329.0	/experiments/Knapen_AOT/AOT_stimuli/pictures/0829_fw.png	416.51262187957764	
332	354.3563301563263	picture	0		226	330.0	/experiments/Knapen_AOT/AOT_stimuli/pictures/0348_fw.png	416.5247666835785	1.8878166675567627
332	356.2275376319885	response	0	k		330.0	/experiments/Knapen_AOT/AOT_stimuli/pictures/0348_fw.png	418.3959741592407	
333	356.24414682388306	picture	0		95	331.0	/experiments/Knapen_AOT/AOT_stimuli/pictures/0435_fw.png	418.41258335113525	0.7999231815338135
333	357.02764916419983	response	0	j		331.0	/experiments/Knapen_AOT/AOT_stimuli/pictures/0435_fw.png	419.196085691452	
334	357.04407000541687	picture	0		102	332.0	/experiments/Knapen_AOT/AOT_stimuli/pictures/1150_fw.png	419.21250653266907	0.8584144115447998
334	357.88594007492065	response	0	k		332.0	/experiments/Knapen_AOT/AOT_stimuli/pictures/1150_fw.png	420.05437660217285	
335	357.90248441696167	picture	0		141	333.0	/experiments/Knapen_AOT/AOT_stimuli/pictures/1025_fw.png	420.07092094421387	1.1832690238952637
335	359.0695812702179	response	0	k		333.0	/experiments/Knapen_AOT/AOT_stimuli/pictures/1025_fw.png	421.2380177974701	
336	359.08575344085693	picture	0		247	334.0	/experiments/Knapen_AOT/AOT_stimuli/pictures/2002_fw.png	421.25418996810913	2.0622243881225586
336	361.13597416877747	response	0	k		334.0	/experiments/Knapen_AOT/AOT_stimuli/pictures/2002_fw.png	423.30441069602966	
337	361.1479778289795	picture	0		245	335.0	/experiments/Knapen_AOT/AOT_stimuli/pictures/1722_fw.png	423.3164143562317	2.0461947917938232
337	363.17766404151917	response	0	k		335.0	/experiments/Knapen_AOT/AOT_stimuli/pictures/1722_fw.png	425.34610056877136	
338	363.1941726207733	picture	0		103	336.0	/experiments/Knapen_AOT/AOT_stimuli/pictures/1204_fw.png	425.3626091480255	0.8666596412658691
338	364.04440569877625	response	0	k		336.0	/experiments/Knapen_AOT/AOT_stimuli/pictures/1204_fw.png	426.21284222602844	
339	364.0608322620392	picture	0		109	337.0	/experiments/Knapen_AOT/AOT_stimuli/pictures/1907_fw.png	426.2292687892914	0.9136416912078857
339	364.9610011577606	response	0	j		337.0	/experiments/Knapen_AOT/AOT_stimuli/pictures/1907_fw.png	427.1294376850128	
340	364.97447395324707	picture	0		97	338.0	/experiments/Knapen_AOT/AOT_stimuli/pictures/2029_fw.png	427.14291048049927	0.8196969032287598
340	365.7776846885681	response	0	j		338.0	/experiments/Knapen_AOT/AOT_stimuli/pictures/2029_fw.png	427.9461212158203	
341	365.79417085647583	picture	0		102	339.0	/experiments/Knapen_AOT/AOT_stimuli/pictures/0658_fw.png	427.962607383728	0.8583614826202393
341	366.63617753982544	response	0	j		339.0	/experiments/Knapen_AOT/AOT_stimuli/pictures/0658_fw.png	428.80461406707764	
342	366.65253233909607	picture	0		110	340.0	/experiments/Knapen_AOT/AOT_stimuli/pictures/0002_fw.png	428.82096886634827	0.9250044822692871
342	367.5611162185669	response	0	k		340.0	/experiments/Knapen_AOT/AOT_stimuli/pictures/0002_fw.png	429.7295527458191	
343	367.57753682136536	picture	0		253	341.0	/experiments/Knapen_AOT/AOT_stimuli/pictures/1900_fw.png	429.74597334861755	2.1166903972625732
343	369.6777355670929	response	0	k		341.0	/experiments/Knapen_AOT/AOT_stimuli/pictures/1900_fw.png	431.8461720943451	
344	369.69422721862793	picture	0		111	342.0	/experiments/Knapen_AOT/AOT_stimuli/pictures/0421_fw.png	431.8626637458801	0.9333322048187256
344	370.61146068573	response	0	k		342.0	/experiments/Knapen_AOT/AOT_stimuli/pictures/0421_fw.png	432.7798972129822	
345	370.62755942344666	picture	0		129	343.0	/experiments/Knapen_AOT/AOT_stimuli/pictures/1889_fw.png	432.79599595069885	1.0833396911621094
345	371.6944749355316	response	0	k		343.0	/experiments/Knapen_AOT/AOT_stimuli/pictures/1889_fw.png	433.8629114627838	
346	371.71089911460876	picture	0		131	344.0	/experiments/Knapen_AOT/AOT_stimuli/pictures/0731_fw.png	433.87933564186096	1.0969812870025635
346	372.79442858695984	response	0	k		344.0	/experiments/Knapen_AOT/AOT_stimuli/pictures/0731_fw.png	434.96286511421204	
347	372.8078804016113	picture	0		134	345.0	/experiments/Knapen_AOT/AOT_stimuli/pictures/0685_fw.png	434.9763169288635	1.1280817985534668
347	373.9195234775543	response	0	k		345.0	/experiments/Knapen_AOT/AOT_stimuli/pictures/0685_fw.png	436.0879600048065	
348	373.9359622001648	picture	0		102	346.0	/experiments/Knapen_AOT/AOT_stimuli/pictures/0662_fw.png	436.104398727417	0.858314037322998
348	374.77786660194397	response	0	j		346.0	/experiments/Knapen_AOT/AOT_stimuli/pictures/0662_fw.png	436.94630312919617	
349	374.7942762374878	picture	0		114	347.0	/experiments/Knapen_AOT/AOT_stimuli/pictures/1953_fw.png	436.96271276474	0.9583320617675781
349	375.7361783981323	response	0	k		347.0	/experiments/Knapen_AOT/AOT_stimuli/pictures/1953_fw.png	437.9046149253845	
350	375.75260829925537	picture	0		139	348.0	/experiments/Knapen_AOT/AOT_stimuli/pictures/1197_fw.png	437.92104482650757	1.166689157485962
350	376.9028115272522	response	0	k		348.0	/experiments/Knapen_AOT/AOT_stimuli/pictures/1197_fw.png	439.0712480545044	
351	376.91929745674133	picture	0		109	349.0	/experiments/Knapen_AOT/AOT_stimuli/pictures/1284_fw.png	439.08773398399353	0.9094603061676025
351	377.819518327713	response	0	k		349.0	/experiments/Knapen_AOT/AOT_stimuli/pictures/1284_fw.png	439.9879548549652	
352	377.82875776290894	picture	0		103	350.0	/experiments/Knapen_AOT/AOT_stimuli/pictures/0219_fw.png	439.99719429016113	0.8655762672424316
352	378.67783761024475	response	0	k		350.0	/experiments/Knapen_AOT/AOT_stimuli/pictures/0219_fw.png	440.84627413749695	
353	378.69433403015137	picture	0		258	351.0	/experiments/Knapen_AOT/AOT_stimuli/pictures/1138_fw.png	440.86277055740356	2.158374547958374
353	380.83619928359985	response	0	k		351.0	/experiments/Knapen_AOT/AOT_stimuli/pictures/1138_fw.png	443.00463581085205	
354	380.85270857810974	picture	0		273	352.0	/experiments/Knapen_AOT/AOT_stimuli/pictures/1419_fw.png	443.02114510536194	2.2815260887145996
354	383.11957001686096	response	0	k		352.0	/experiments/Knapen_AOT/AOT_stimuli/pictures/1419_fw.png	445.28800654411316	
355	383.13423466682434	picture	0		140	353.0	/experiments/Knapen_AOT/AOT_stimuli/pictures/0441_fw.png	445.30267119407654	1.1768453121185303
355	384.2945439815521	response	0	j		353.0	/experiments/Knapen_AOT/AOT_stimuli/pictures/0441_fw.png	446.4629805088043	
356	384.31107997894287	picture	0		97	354.0	/experiments/Knapen_AOT/AOT_stimuli/pictures/1017_fw.png	446.47951650619507	0.8166327476501465
356	385.1112639904022	response	0	j		354.0	/experiments/Knapen_AOT/AOT_stimuli/pictures/1017_fw.png	447.2797005176544	
357	385.127712726593	picture	0		127	355.0	/experiments/Knapen_AOT/AOT_stimuli/pictures/1089_fw.png	447.2961492538452	1.066735029220581
357	386.17794370651245	response	0	k		355.0	/experiments/Knapen_AOT/AOT_stimuli/pictures/1089_fw.png	448.34638023376465	
358	386.1944477558136	picture	0		96	356.0	/experiments/Knapen_AOT/AOT_stimuli/pictures/0045_fw.png	448.3628842830658	0.8083009719848633
358	386.9863097667694	response	0	j		356.0	/experiments/Knapen_AOT/AOT_stimuli/pictures/0045_fw.png	449.1547462940216	
359	387.00274872779846	picture	0		102	357.0	/experiments/Knapen_AOT/AOT_stimuli/pictures/1983_fw.png	449.17118525505066	0.8583590984344482
359	387.8446412086487	response	0	j		357.0	/experiments/Knapen_AOT/AOT_stimuli/pictures/1983_fw.png	450.0130777359009	
360	387.8611078262329	picture	0		137	358.0	/experiments/Knapen_AOT/AOT_stimuli/pictures/2147_fw.png	450.0295443534851	1.1500422954559326
360	388.9880380630493	response	0	j		358.0	/experiments/Knapen_AOT/AOT_stimuli/pictures/2147_fw.png	451.1564745903015	
361	389.01115012168884	picture	0		112	359.0	/experiments/Knapen_AOT/AOT_stimuli/pictures/0724_fw.png	451.17958664894104	0.9416558742523193
361	389.9363090991974	response	0	j		359.0	/experiments/Knapen_AOT/AOT_stimuli/pictures/0724_fw.png	452.1047456264496	
362	389.95280599594116	stim	0		772			452.12124252319336	6.45409369468689
362	396.3870828151703	response	0	space				458.5555193424225	
