trial_nr	onset	event_type	phase	response	nr_frames	picture_index	picture_file	onset_abs	duration
0	0.155656099319458	stim	0		335			119.0566201210022	2.816499948501587
0	2.9472591876983643	response	0	space				121.8482232093811	
2	2.972156047821045	picture	0		153	0.0	/experiments/knapen_aot/AOT/AOT_stimuli/pictures/1997_fw.png	121.87312006950378	1.2774791717529297
2	4.238980054855347	response	0	j		0.0	/experiments/knapen_aot/AOT/AOT_stimuli/pictures/1997_fw.png	123.13994407653809	
3	4.249635219573975	picture	0		229	1.0	/experiments/knapen_aot/AOT/AOT_stimuli/pictures/1774_fw.png	123.15059924125671	1.9097259044647217
3	6.1472179889678955	response	0	k		1.0	/experiments/knapen_aot/AOT/AOT_stimuli/pictures/1774_fw.png	125.04818201065063	
4	6.159361124038696	picture	0		106	2.0	/experiments/knapen_aot/AOT/AOT_stimuli/pictures/1259_fw.png	125.06032514572144	0.8819420337677002
4	7.030546188354492	response	0	j		2.0	/experiments/knapen_aot/AOT/AOT_stimuli/pictures/1259_fw.png	125.93151021003723	
5	7.0413031578063965	picture	0		95	3.0	/experiments/knapen_aot/AOT/AOT_stimuli/pictures/1419_fw.png	125.94226717948914	0.7916569709777832
5	7.822205066680908	response	0	j		3.0	/experiments/knapen_aot/AOT/AOT_stimuli/pictures/1419_fw.png	126.72316908836365	
6	7.83296012878418	picture	0		83	4.0	/experiments/knapen_aot/AOT/AOT_stimuli/pictures/0533_fw.png	126.73392415046692	0.6944029331207275
6	8.513806104660034	response	0	j		4.0	/experiments/knapen_aot/AOT/AOT_stimuli/pictures/0533_fw.png	127.41477012634277	
7	8.527363061904907	picture	0		140	5.0	/experiments/knapen_aot/AOT/AOT_stimuli/pictures/1211_fw.png	127.42832708358765	1.178076982498169
7	9.688927173614502	response	0	k		5.0	/experiments/knapen_aot/AOT/AOT_stimuli/pictures/1211_fw.png	128.58989119529724	
8	9.705440044403076	picture	0		76	6.0	/experiments/knapen_aot/AOT/AOT_stimuli/pictures/0428_fw.png	128.60640406608582	0.6344101428985596
8	10.330524206161499	response	0	j		6.0	/experiments/knapen_aot/AOT/AOT_stimuli/pictures/0428_fw.png	129.23148822784424	
9	10.339850187301636	picture	0		136	7.0	/experiments/knapen_aot/AOT/AOT_stimuli/pictures/1205_fw.png	129.24081420898438	1.1322669982910156
9	11.457098007202148	response	0	k		7.0	/experiments/knapen_aot/AOT/AOT_stimuli/pictures/1205_fw.png	130.3580620288849	
10	11.472117185592651	picture	0		105	8.0	/experiments/knapen_aot/AOT/AOT_stimuli/pictures/0625_fw.png	130.3730812072754	0.8749988079071045
10	12.338963031768799	response	0	j		8.0	/experiments/knapen_aot/AOT/AOT_stimuli/pictures/0625_fw.png	131.23992705345154	
11	12.347115993499756	picture	0		118	9.0	/experiments/knapen_aot/AOT/AOT_stimuli/pictures/1798_fw.png	131.2480800151825	0.9857950210571289
11	13.32218313217163	response	0	j		9.0	/experiments/knapen_aot/AOT/AOT_stimuli/pictures/1798_fw.png	132.22314715385437	
12	13.332911014556885	picture	0		110	10.0	/experiments/knapen_aot/AOT/AOT_stimuli/pictures/1778_fw.png	132.23387503623962	0.9166390895843506
12	14.238864183425903	response	0	k		10.0	/experiments/knapen_aot/AOT/AOT_stimuli/pictures/1778_fw.png	133.13982820510864	
13	14.249550104141235	picture	0		125	11.0	/experiments/knapen_aot/AOT/AOT_stimuli/pictures/0963_fw.png	133.15051412582397	1.0416679382324219
13	15.280543088912964	response	0	k		11.0	/experiments/knapen_aot/AOT/AOT_stimuli/pictures/0963_fw.png	134.1815071105957	
14	15.291218042373657	picture	0		102	12.0	/experiments/knapen_aot/AOT/AOT_stimuli/pictures/0067_fw.png	134.1921820640564	0.8474960327148438
14	16.13047218322754	response	0	j		12.0	/experiments/knapen_aot/AOT/AOT_stimuli/pictures/0067_fw.png	135.03143620491028	
15	16.1387140750885	picture	0		505	13.0	/experiments/knapen_aot/AOT/AOT_stimuli/pictures/0630_fw.png	135.03967809677124	4.216771125793457
15	20.338847160339355	response	0	j		13.0	/experiments/knapen_aot/AOT/AOT_stimuli/pictures/0630_fw.png	139.2398111820221	
16	20.355485200881958	picture	0		103	14.0	/experiments/knapen_aot/AOT/AOT_stimuli/pictures/0161_fw.png	139.2564492225647	0.8592548370361328
16	21.205535173416138	response	0	j		14.0	/experiments/knapen_aot/AOT/AOT_stimuli/pictures/0161_fw.png	140.10649919509888	
17	21.21474003791809	picture	0		122	15.0	/experiments/knapen_aot/AOT/AOT_stimuli/pictures/1371_fw.png	140.11570405960083	1.020838975906372
17	22.222180128097534	response	0	k		15.0	/experiments/knapen_aot/AOT/AOT_stimuli/pictures/1371_fw.png	141.12314414978027	
18	22.235579013824463	picture	0		107	16.0	/experiments/knapen_aot/AOT/AOT_stimuli/pictures/0839_fw.png	141.1365430355072	0.8958110809326172
18	23.122106075286865	response	0	j		16.0	/experiments/knapen_aot/AOT/AOT_stimuli/pictures/0839_fw.png	142.0230700969696	
19	23.13139009475708	picture	0		102	17.0	/experiments/knapen_aot/AOT/AOT_stimuli/pictures/2127_fw.png	142.03235411643982	0.8541669845581055
19	23.972169160842896	response	0	k		17.0	/experiments/knapen_aot/AOT/AOT_stimuli/pictures/2127_fw.png	142.87313318252563	
20	23.985557079315186	picture	0		98	18.0	/experiments/knapen_aot/AOT/AOT_stimuli/pictures/1181_fw.png	142.88652110099792	0.8264110088348389
20	24.7971830368042	response	0	j		18.0	/experiments/knapen_aot/AOT/AOT_stimuli/pictures/1181_fw.png	143.69814705848694	
21	24.811968088150024	picture	0		182	19.0	/experiments/knapen_aot/AOT/AOT_stimuli/pictures/2048_fw.png	143.71293210983276	1.5208909511566162
21	26.322136163711548	response	0	j		19.0	/experiments/knapen_aot/AOT/AOT_stimuli/pictures/2048_fw.png	145.2231001853943	
22	26.33285903930664	picture	0		112	20.0	/experiments/knapen_aot/AOT/AOT_stimuli/pictures/1838_fw.png	145.23382306098938	0.9307889938354492
22	27.248569011688232	response	0	j		20.0	/experiments/knapen_aot/AOT/AOT_stimuli/pictures/1838_fw.png	146.14953303337097	
23	27.26364803314209	picture	0		332	21.0	/experiments/knapen_aot/AOT/AOT_stimuli/pictures/1230_fw.png	146.16461205482483	2.770480155944824
23	30.022107124328613	response	0	k		21.0	/experiments/knapen_aot/AOT/AOT_stimuli/pictures/1230_fw.png	148.92307114601135	
24	30.034128189086914	picture	0		136	22.0	/experiments/knapen_aot/AOT/AOT_stimuli/pictures/0950_fw.png	148.93509221076965	1.1319499015808105
24	31.155513048171997	response	0	j		22.0	/experiments/knapen_aot/AOT/AOT_stimuli/pictures/0950_fw.png	150.05647706985474	
25	31.166078090667725	picture	0		210	23.0	/experiments/knapen_aot/AOT/AOT_stimuli/pictures/1381_fw.png	150.06704211235046	1.7499339580535889
25	32.90544819831848	response	0	j		23.0	/experiments/knapen_aot/AOT/AOT_stimuli/pictures/1381_fw.png	151.80641222000122	
26	32.91601204872131	picture	0		141	24.0	/experiments/knapen_aot/AOT/AOT_stimuli/pictures/0978_fw.png	151.81697607040405	1.1736280918121338
26	34.073660135269165	response	0	k		24.0	/experiments/knapen_aot/AOT/AOT_stimuli/pictures/0978_fw.png	152.9746241569519	
27	34.08964014053345	picture	0		114	25.0	/experiments/knapen_aot/AOT/AOT_stimuli/pictures/0273_fw.png	152.9906041622162	0.9513819217681885
27	35.03047299385071	response	0	k		25.0	/experiments/knapen_aot/AOT/AOT_stimuli/pictures/0273_fw.png	153.93143701553345	
28	35.041022062301636	picture	0		97	26.0	/experiments/knapen_aot/AOT/AOT_stimuli/pictures/2001_fw.png	153.94198608398438	0.8059730529785156
28	35.83875107765198	response	0	k		26.0	/experiments/knapen_aot/AOT/AOT_stimuli/pictures/2001_fw.png	154.73971509933472	
29	35.84699511528015	picture	0		94	27.0	/experiments/knapen_aot/AOT/AOT_stimuli/pictures/0019_fw.png	154.7479591369629	0.7842860221862793
29	36.62208914756775	response	0	k		27.0	/experiments/knapen_aot/AOT/AOT_stimuli/pictures/0019_fw.png	155.5230531692505	
30	36.63128113746643	picture	0		106	28.0	/experiments/knapen_aot/AOT/AOT_stimuli/pictures/1127_fw.png	155.53224515914917	0.8823800086975098
30	37.505441188812256	response	0	j		28.0	/experiments/knapen_aot/AOT/AOT_stimuli/pictures/1127_fw.png	156.406405210495	
31	37.51366114616394	picture	0		256	29.0	/experiments/knapen_aot/AOT/AOT_stimuli/pictures/0849_fw.png	156.41462516784668	2.1384170055389404
31	39.6328980922699	response	0	k		29.0	/experiments/knapen_aot/AOT/AOT_stimuli/pictures/0849_fw.png	158.53386211395264	
32	39.65207815170288	picture	0		119	30.0	/experiments/knapen_aot/AOT/AOT_stimuli/pictures/1744_fw.png	158.55304217338562	0.9999759197235107
32	40.63878321647644	response	0	j		30.0	/experiments/knapen_aot/AOT/AOT_stimuli/pictures/1744_fw.png	159.53974723815918	
33	40.65205407142639	picture	0		95	31.0	/experiments/knapen_aot/AOT/AOT_stimuli/pictures/0831_fw.png	159.55301809310913	0.7986011505126953
33	41.43877720832825	response	0	k		31.0	/experiments/knapen_aot/AOT/AOT_stimuli/pictures/0831_fw.png	160.339741230011	
34	41.45065522193909	picture	0		100	32.0	/experiments/knapen_aot/AOT/AOT_stimuli/pictures/0053_fw.png	160.35161924362183	0.8333439826965332
34	42.2652862071991	response	0	k		32.0	/experiments/knapen_aot/AOT/AOT_stimuli/pictures/0053_fw.png	161.16625022888184	
35	42.28399920463562	picture	0		105	33.0	/experiments/knapen_aot/AOT/AOT_stimuli/pictures/0201_fw.png	161.18496322631836	0.8749828338623047
35	43.147056102752686	response	0	j		33.0	/experiments/knapen_aot/AOT/AOT_stimuli/pictures/0201_fw.png	162.04802012443542	
36	43.158982038497925	picture	0		121	34.0	/experiments/knapen_aot/AOT/AOT_stimuli/pictures/2173_fw.png	162.05994606018066	1.0068960189819336
36	44.155418157577515	response	0	k		34.0	/experiments/knapen_aot/AOT/AOT_stimuli/pictures/2173_fw.png	163.05638217926025	
37	44.16587805747986	picture	0		127	35.0	/experiments/knapen_aot/AOT/AOT_stimuli/pictures/1713_fw.png	163.0668420791626	1.0561139583587646
37	45.21371102333069	response	0	j		35.0	/experiments/knapen_aot/AOT/AOT_stimuli/pictures/1713_fw.png	164.11467504501343	
38	45.22199201583862	picture	0		146	36.0	/experiments/knapen_aot/AOT/AOT_stimuli/pictures/1544_fw.png	164.12295603752136	1.2250831127166748
38	46.430482149124146	response	0	j		36.0	/experiments/knapen_aot/AOT/AOT_stimuli/pictures/1544_fw.png	165.33144617080688	
39	46.4470751285553	picture	0		120	37.0	/experiments/knapen_aot/AOT/AOT_stimuli/pictures/0151_fw.png	165.34803915023804	1.003504991531372
39	47.438722133636475	response	0	j		37.0	/experiments/knapen_aot/AOT/AOT_stimuli/pictures/0151_fw.png	166.3396861553192	
40	47.45058012008667	picture	0		127	38.0	/experiments/knapen_aot/AOT/AOT_stimuli/pictures/0078_fw.png	166.3515441417694	1.055577039718628
40	48.49712300300598	response	0	k		38.0	/experiments/knapen_aot/AOT/AOT_stimuli/pictures/0078_fw.png	167.39808702468872	
41	48.5061571598053	picture	0		81	39.0	/experiments/knapen_aot/AOT/AOT_stimuli/pictures/0915_fw.png	167.40712118148804	0.6741089820861816
41	49.1720449924469	response	0	j		39.0	/experiments/knapen_aot/AOT/AOT_stimuli/pictures/0915_fw.png	168.07300901412964	
42	49.18026614189148	picture	0		99	40.0	/experiments/knapen_aot/AOT/AOT_stimuli/pictures/0061_fw.png	168.08123016357422	0.8258869647979736
42	49.99699807167053	response	0	j		40.0	/experiments/knapen_aot/AOT/AOT_stimuli/pictures/0061_fw.png	168.89796209335327	
43	50.00615310668945	picture	0		112	41.0	/experiments/knapen_aot/AOT/AOT_stimuli/pictures/0695_fw.png	168.9071171283722	0.9374940395355225
43	50.93041205406189	response	0	k		41.0	/experiments/knapen_aot/AOT/AOT_stimuli/pictures/0695_fw.png	169.83137607574463	
44	50.943647146224976	picture	0		109	42.0	/experiments/knapen_aot/AOT/AOT_stimuli/pictures/2170_fw.png	169.84461116790771	0.9199659824371338
44	51.84703302383423	response	0	k		42.0	/experiments/knapen_aot/AOT/AOT_stimuli/pictures/2170_fw.png	170.74799704551697	
45	51.86361312866211	picture	0		97	43.0	/experiments/knapen_aot/AOT/AOT_stimuli/pictures/0797_fw.png	170.76457715034485	0.8091700077056885
45	52.656941175460815	response	0	k		43.0	/experiments/knapen_aot/AOT/AOT_stimuli/pictures/0797_fw.png	171.55790519714355	
46	52.6727831363678	picture	0		105	44.0	/experiments/knapen_aot/AOT/AOT_stimuli/pictures/0481_fw.png	171.57374715805054	0.8750128746032715
46	53.53889608383179	response	0	k		44.0	/experiments/knapen_aot/AOT/AOT_stimuli/pictures/0481_fw.png	172.43986010551453	
47	53.54779601097107	picture	0		98	45.0	/experiments/knapen_aot/AOT/AOT_stimuli/pictures/0640_fw.png	172.4487600326538	0.8193821907043457
47	54.355401039123535	response	0	k		45.0	/experiments/knapen_aot/AOT/AOT_stimuli/pictures/0640_fw.png	173.25636506080627	
48	54.367178201675415	picture	0		281	46.0	/experiments/knapen_aot/AOT/AOT_stimuli/pictures/1608_fw.png	173.26814222335815	2.340287923812866
48	56.69703412055969	response	0	k		46.0	/experiments/knapen_aot/AOT/AOT_stimuli/pictures/1608_fw.png	175.59799814224243	
49	56.70746612548828	picture	0		124	47.0	/experiments/knapen_aot/AOT/AOT_stimuli/pictures/0989_fw.png	175.60843014717102	1.0394539833068848
49	57.73037910461426	response	0	j		47.0	/experiments/knapen_aot/AOT/AOT_stimuli/pictures/0989_fw.png	176.631343126297	
50	57.746920108795166	picture	0		93	48.0	/experiments/knapen_aot/AOT/AOT_stimuli/pictures/1328_fw.png	176.6478841304779	0.7799680233001709
50	58.51367521286011	response	0	j		48.0	/experiments/knapen_aot/AOT/AOT_stimuli/pictures/1328_fw.png	177.41463923454285	
51	58.52688813209534	picture	0		135	49.0	/experiments/knapen_aot/AOT/AOT_stimuli/pictures/0758_fw.png	177.42785215377808	1.1319410800933838
51	59.64702320098877	response	0	j		49.0	/experiments/knapen_aot/AOT/AOT_stimuli/pictures/0758_fw.png	178.5479872226715	
52	59.65882921218872	picture	0		247	50.0	/experiments/knapen_aot/AOT/AOT_stimuli/pictures/1372_fw.png	178.55979323387146	2.071410894393921
52	61.714516162872314	response	0	k		50.0	/experiments/knapen_aot/AOT/AOT_stimuli/pictures/1372_fw.png	180.61548018455505	
53	61.73024010658264	picture	0		163	51.0	/experiments/knapen_aot/AOT/AOT_stimuli/pictures/0279_fw.png	180.63120412826538	1.366636037826538
53	63.07355713844299	response	0	k		51.0	/experiments/knapen_aot/AOT/AOT_stimuli/pictures/0279_fw.png	181.97452116012573	
54	63.09687614440918	picture	0		100	52.0	/experiments/knapen_aot/AOT/AOT_stimuli/pictures/0930_fw.png	181.99784016609192	0.8416860103607178
54	63.9228150844574	response	0	j		52.0	/experiments/knapen_aot/AOT/AOT_stimuli/pictures/0930_fw.png	182.82377910614014	
55	63.9385621547699	picture	0		141	53.0	/experiments/knapen_aot/AOT/AOT_stimuli/pictures/1908_fw.png	182.83952617645264	1.17854905128479
55	65.09854006767273	response	0	k		53.0	/experiments/knapen_aot/AOT/AOT_stimuli/pictures/1908_fw.png	183.99950408935547	
56	65.11711120605469	picture	0		110	54.0	/experiments/knapen_aot/AOT/AOT_stimuli/pictures/2037_fw.png	184.01807522773743	0.923616886138916
56	66.0303270816803	response	0	j		54.0	/experiments/knapen_aot/AOT/AOT_stimuli/pictures/2037_fw.png	184.93129110336304	
57	66.0407280921936	picture	0		102	55.0	/experiments/knapen_aot/AOT/AOT_stimuli/pictures/0206_fw.png	184.94169211387634	0.8561360836029053
57	66.88110208511353	response	0	j		55.0	/experiments/knapen_aot/AOT/AOT_stimuli/pictures/0206_fw.png	185.78206610679626	
58	66.89686417579651	picture	0		88	56.0	/experiments/knapen_aot/AOT/AOT_stimuli/pictures/1066_fw.png	185.79782819747925	0.7416918277740479
58	67.6219310760498	response	0	j		56.0	/experiments/knapen_aot/AOT/AOT_stimuli/pictures/1066_fw.png	186.52289509773254	
59	67.63855600357056	picture	0		103	57.0	/experiments/knapen_aot/AOT/AOT_stimuli/pictures/1170_fw.png	186.5395200252533	0.8604512214660645
59	68.48186707496643	response	0	j		57.0	/experiments/knapen_aot/AOT/AOT_stimuli/pictures/1170_fw.png	187.38283109664917	
60	68.49900722503662	picture	0		92	58.0	/experiments/knapen_aot/AOT/AOT_stimuli/pictures/1833_fw.png	187.39997124671936	0.7728497982025146
60	69.25608706474304	response	0	j		58.0	/experiments/knapen_aot/AOT/AOT_stimuli/pictures/1833_fw.png	188.15705108642578	
61	69.27185702323914	picture	0		433	59.0	/experiments/knapen_aot/AOT/AOT_stimuli/pictures/0024_fw.png	188.17282104492188	3.609042167663574
61	72.87198519706726	response	0	j		59.0	/experiments/knapen_aot/AOT/AOT_stimuli/pictures/0024_fw.png	191.77294921875	
62	72.88089919090271	picture	0		408	60.0	/experiments/knapen_aot/AOT/AOT_stimuli/pictures/0133_fw.png	191.78186321258545	3.402737855911255
62	76.27198219299316	response	0	j		60.0	/experiments/knapen_aot/AOT/AOT_stimuli/pictures/0133_fw.png	195.1729462146759	
63	76.28363704681396	picture	0		172	61.0	/experiments/knapen_aot/AOT/AOT_stimuli/pictures/0559_fw.png	195.1846010684967	1.4305741786956787
63	77.70526719093323	response	0	k		61.0	/experiments/knapen_aot/AOT/AOT_stimuli/pictures/0559_fw.png	196.60623121261597	
64	77.71421122550964	picture	0		144	62.0	/experiments/knapen_aot/AOT/AOT_stimuli/pictures/2042_fw.png	196.61517524719238	1.2013487815856934
64	78.89851021766663	response	0	k		62.0	/experiments/knapen_aot/AOT/AOT_stimuli/pictures/2042_fw.png	197.79947423934937	
65	78.91556000709534	picture	0		105	63.0	/experiments/knapen_aot/AOT/AOT_stimuli/pictures/1504_fw.png	197.81652402877808	0.8750150203704834
65	79.78025221824646	response	0	k		63.0	/experiments/knapen_aot/AOT/AOT_stimuli/pictures/1504_fw.png	198.6812162399292	
66	79.79057502746582	picture	0		119	64.0	/experiments/knapen_aot/AOT/AOT_stimuli/pictures/1143_fw.png	198.69153904914856	0.9930541515350342
66	80.77188515663147	response	0	j		64.0	/experiments/knapen_aot/AOT/AOT_stimuli/pictures/1143_fw.png	199.6728491783142	
67	80.78362917900085	picture	0		112	65.0	/experiments/knapen_aot/AOT/AOT_stimuli/pictures/2140_fw.png	199.6845932006836	0.9305460453033447
67	81.70533108711243	response	0	k		65.0	/experiments/knapen_aot/AOT/AOT_stimuli/pictures/2140_fw.png	200.60629510879517	
68	81.7141752243042	picture	0		121	66.0	/experiments/knapen_aot/AOT/AOT_stimuli/pictures/0237_fw.png	200.61513924598694	1.0159258842468262
68	82.71423506736755	response	0	j		66.0	/experiments/knapen_aot/AOT/AOT_stimuli/pictures/0237_fw.png	201.6151990890503	
69	82.73010110855103	picture	0		113	67.0	/experiments/knapen_aot/AOT/AOT_stimuli/pictures/0967_fw.png	201.63106513023376	0.9423799514770508
69	83.66353011131287	response	0	k		67.0	/experiments/knapen_aot/AOT/AOT_stimuli/pictures/0967_fw.png	202.5644941329956	
70	83.67248106002808	picture	0		109	68.0	/experiments/knapen_aot/AOT/AOT_stimuli/pictures/1566_fw.png	202.57344508171082	0.9096970558166504
70	84.57190608978271	response	0	j		68.0	/experiments/knapen_aot/AOT/AOT_stimuli/pictures/1566_fw.png	203.47287011146545	
71	84.58217811584473	picture	0		110	69.0	/experiments/knapen_aot/AOT/AOT_stimuli/pictures/1018_fw.png	203.48314213752747	0.9167330265045166
71	85.48177814483643	response	0	k		69.0	/experiments/knapen_aot/AOT/AOT_stimuli/pictures/1018_fw.png	204.38274216651917	
72	85.49891114234924	picture	0		91	70.0	/experiments/knapen_aot/AOT/AOT_stimuli/pictures/0746_fw.png	204.39987516403198	0.7568769454956055
72	86.24692702293396	response	0	j		70.0	/experiments/knapen_aot/AOT/AOT_stimuli/pictures/0746_fw.png	205.1478910446167	
73	86.25578808784485	picture	0		104	71.0	/experiments/knapen_aot/AOT/AOT_stimuli/pictures/0762_fw.png	205.1567521095276	0.8680849075317383
73	87.10671901702881	response	0	k		71.0	/experiments/knapen_aot/AOT/AOT_stimuli/pictures/0762_fw.png	206.00768303871155	
74	87.12387299537659	picture	0		142	72.0	/experiments/knapen_aot/AOT/AOT_stimuli/pictures/2003_fw.png	206.02483701705933	1.1896002292633057
74	88.2975389957428	response	0	k		72.0	/experiments/knapen_aot/AOT/AOT_stimuli/pictures/2003_fw.png	207.19850301742554	
75	88.31347322463989	picture	0		85	73.0	/experiments/knapen_aot/AOT/AOT_stimuli/pictures/1839_fw.png	207.21443724632263	0.713141918182373
75	89.013592004776	response	0	j		73.0	/experiments/knapen_aot/AOT/AOT_stimuli/pictures/1839_fw.png	207.91455602645874	
76	89.02661514282227	picture	0		96	74.0	/experiments/knapen_aot/AOT/AOT_stimuli/pictures/0308_fw.png	207.927579164505	0.8055529594421387
76	89.82191014289856	response	0	j		74.0	/experiments/knapen_aot/AOT/AOT_stimuli/pictures/0308_fw.png	208.7228741645813	
77	89.8321681022644	picture	0		162	75.0	/experiments/knapen_aot/AOT/AOT_stimuli/pictures/0163_fw.png	208.73313212394714	1.3562660217285156
77	91.172532081604	response	0	j		75.0	/experiments/knapen_aot/AOT/AOT_stimuli/pictures/0163_fw.png	210.07349610328674	
78	91.18843412399292	picture	0		139	76.0	/experiments/knapen_aot/AOT/AOT_stimuli/pictures/2139_fw.png	210.08939814567566	1.166640043258667
78	92.3391752243042	response	0	k		76.0	/experiments/knapen_aot/AOT/AOT_stimuli/pictures/2139_fw.png	211.24013924598694	
79	92.35507416725159	picture	0		130	77.0	/experiments/knapen_aot/AOT/AOT_stimuli/pictures/1569_fw.png	211.25603818893433	1.0881829261779785
79	93.43020415306091	response	0	j		77.0	/experiments/knapen_aot/AOT/AOT_stimuli/pictures/1569_fw.png	212.33116817474365	
80	93.44325709342957	picture	0		110	78.0	/experiments/knapen_aot/AOT/AOT_stimuli/pictures/1775_fw.png	212.3442211151123	0.9235489368438721
80	94.35515999794006	response	0	k		78.0	/experiments/knapen_aot/AOT/AOT_stimuli/pictures/1775_fw.png	213.2561240196228	
81	94.36680603027344	picture	0		89	79.0	/experiments/knapen_aot/AOT/AOT_stimuli/pictures/1360_fw.png	213.26777005195618	0.7430670261383057
81	95.09064412117004	response	0	j		79.0	/experiments/knapen_aot/AOT/AOT_stimuli/pictures/1360_fw.png	213.99160814285278	
82	95.10987305641174	picture	0		106	80.0	/experiments/knapen_aot/AOT/AOT_stimuli/pictures/0830_fw.png	214.01083707809448	0.8952879905700684
82	95.98851609230042	response	0	j		80.0	/experiments/knapen_aot/AOT/AOT_stimuli/pictures/0830_fw.png	214.88948011398315	
83	96.00516104698181	picture	0		115	81.0	/experiments/knapen_aot/AOT/AOT_stimuli/pictures/1848_fw.png	214.90612506866455	0.9588701725006104
83	96.95514011383057	response	0	j		81.0	/experiments/knapen_aot/AOT/AOT_stimuli/pictures/1848_fw.png	215.8561041355133	
84	96.96403121948242	picture	0		96	82.0	/experiments/knapen_aot/AOT/AOT_stimuli/pictures/1875_fw.png	215.86499524116516	0.8076798915863037
84	97.75574922561646	response	0	j		82.0	/experiments/knapen_aot/AOT/AOT_stimuli/pictures/1875_fw.png	216.6567132472992	
85	97.77171111106873	picture	0		132	83.0	/experiments/knapen_aot/AOT/AOT_stimuli/pictures/1117_fw.png	216.67267513275146	1.1020410060882568
85	98.86349105834961	response	0	k		83.0	/experiments/knapen_aot/AOT/AOT_stimuli/pictures/1117_fw.png	217.76445508003235	
86	98.87375211715698	picture	0		93	84.0	/experiments/knapen_aot/AOT/AOT_stimuli/pictures/1641_fw.png	217.77471613883972	0.7813079357147217
86	99.63850712776184	response	0	j		84.0	/experiments/knapen_aot/AOT/AOT_stimuli/pictures/1641_fw.png	218.53947114944458	
87	99.6550600528717	picture	0		112	85.0	/experiments/knapen_aot/AOT/AOT_stimuli/pictures/1974_fw.png	218.55602407455444	0.9339401721954346
87	100.58012914657593	response	0	j		85.0	/experiments/knapen_aot/AOT/AOT_stimuli/pictures/1974_fw.png	219.48109316825867	
88	100.58900022506714	picture	0		250	86.0	/experiments/knapen_aot/AOT/AOT_stimuli/pictures/2119_fw.png	219.48996424674988	2.0832839012145996
88	102.6634612083435	response	0	k		86.0	/experiments/knapen_aot/AOT/AOT_stimuli/pictures/2119_fw.png	221.56442523002625	
89	102.67228412628174	picture	0		110	87.0	/experiments/knapen_aot/AOT/AOT_stimuli/pictures/0311_fw.png	221.57324814796448	0.91668701171875
89	103.5801830291748	response	0	k		87.0	/experiments/knapen_aot/AOT/AOT_stimuli/pictures/0311_fw.png	222.48114705085754	
90	103.58897113800049	picture	0		94	88.0	/experiments/knapen_aot/AOT/AOT_stimuli/pictures/0748_fw.png	222.48993515968323	0.7846930027008057
90	104.36351418495178	response	0	j		88.0	/experiments/knapen_aot/AOT/AOT_stimuli/pictures/0748_fw.png	223.26447820663452	
91	104.3736641407013	picture	0		125	89.0	/experiments/knapen_aot/AOT/AOT_stimuli/pictures/1590_fw.png	223.27462816238403	1.041693925857544
91	105.40512204170227	response	0	j		89.0	/experiments/knapen_aot/AOT/AOT_stimuli/pictures/1590_fw.png	224.306086063385	
92	105.41535806655884	picture	0		124	90.0	/experiments/knapen_aot/AOT/AOT_stimuli/pictures/0750_fw.png	224.31632208824158	1.0346801280975342
92	106.43848013877869	response	0	k		90.0	/experiments/knapen_aot/AOT/AOT_stimuli/pictures/0750_fw.png	225.33944416046143	
93	106.45003819465637	picture	0		331	91.0	/experiments/knapen_aot/AOT/AOT_stimuli/pictures/0626_fw.png	225.3510022163391	2.75691294670105
93	109.19676303863525	response	0	j		91.0	/experiments/knapen_aot/AOT/AOT_stimuli/pictures/0626_fw.png	228.097727060318	
94	109.20695114135742	picture	0		149	92.0	/experiments/knapen_aot/AOT/AOT_stimuli/pictures/1156_fw.png	228.10791516304016	1.2430548667907715
94	110.43848514556885	response	0	k		92.0	/experiments/knapen_aot/AOT/AOT_stimuli/pictures/1156_fw.png	229.3394491672516	
95	110.4500060081482	picture	0		180	93.0	/experiments/knapen_aot/AOT/AOT_stimuli/pictures/1637_fw.png	229.35097002983093	1.499986171722412
95	111.93861222267151	response	0	k		93.0	/experiments/knapen_aot/AOT/AOT_stimuli/pictures/1637_fw.png	230.83957624435425	
96	111.9499921798706	picture	0		136	94.0	/experiments/knapen_aot/AOT/AOT_stimuli/pictures/2124_fw.png	230.85095620155334	1.1318998336791992
96	113.0717761516571	response	0	j		94.0	/experiments/knapen_aot/AOT/AOT_stimuli/pictures/2124_fw.png	231.97274017333984	
97	113.0818920135498	picture	0		115	95.0	/experiments/knapen_aot/AOT/AOT_stimuli/pictures/2018_fw.png	231.98285603523254	0.9584050178527832
97	114.03012919425964	response	0	j		95.0	/experiments/knapen_aot/AOT/AOT_stimuli/pictures/2018_fw.png	232.93109321594238	
98	114.04029703140259	picture	0		165	96.0	/experiments/knapen_aot/AOT/AOT_stimuli/pictures/1304_fw.png	232.94126105308533	1.3749451637268066
98	115.4050772190094	response	0	k		96.0	/experiments/knapen_aot/AOT/AOT_stimuli/pictures/1304_fw.png	234.30604124069214	
99	115.4152421951294	picture	0		129	97.0	/experiments/knapen_aot/AOT/AOT_stimuli/pictures/0376_fw.png	234.31620621681213	1.0763368606567383
99	116.48009204864502	response	0	j		97.0	/experiments/knapen_aot/AOT/AOT_stimuli/pictures/0376_fw.png	235.38105607032776	
100	116.49157905578613	picture	0		103	98.0	/experiments/knapen_aot/AOT/AOT_stimuli/pictures/2110_fw.png	235.39254307746887	0.8634741306304932
100	117.33895111083984	response	0	j		98.0	/experiments/knapen_aot/AOT/AOT_stimuli/pictures/2110_fw.png	236.23991513252258	
101	117.35505318641663	picture	0		127	99.0	/experiments/knapen_aot/AOT/AOT_stimuli/pictures/0330_fw.png	236.25601720809937	1.060128927230835
101	118.40509414672852	response	0	k		99.0	/experiments/knapen_aot/AOT/AOT_stimuli/pictures/0330_fw.png	237.30605816841125	
102	118.41518211364746	picture	0		243	100.0	/experiments/knapen_aot/AOT/AOT_stimuli/pictures/0515_fw.png	237.3161461353302	2.027803897857666
102	120.43006801605225	response	0	k		100.0	/experiments/knapen_aot/AOT/AOT_stimuli/pictures/0515_fw.png	239.33103203773499	
103	120.44298601150513	picture	0		215	101.0	/experiments/knapen_aot/AOT/AOT_stimuli/pictures/1125_fw.png	239.34395003318787	1.7985410690307617
103	122.23010301589966	response	0	k		101.0	/experiments/knapen_aot/AOT/AOT_stimuli/pictures/1125_fw.png	241.1310670375824	
104	122.24152708053589	picture	0		188	102.0	/experiments/knapen_aot/AOT/AOT_stimuli/pictures/1515_fw.png	241.14249110221863	1.571777105331421
104	123.79719018936157	response	0	k		102.0	/experiments/knapen_aot/AOT/AOT_stimuli/pictures/1515_fw.png	242.6981542110443	
105	123.81330418586731	picture	0		154	103.0	/experiments/knapen_aot/AOT/AOT_stimuli/pictures/0925_fw.png	242.71426820755005	1.291672945022583
105	125.08884620666504	response	0	k		103.0	/experiments/knapen_aot/AOT/AOT_stimuli/pictures/0925_fw.png	243.98981022834778	
106	125.10497713088989	picture	0		118	104.0	/experiments/knapen_aot/AOT/AOT_stimuli/pictures/1841_fw.png	244.00594115257263	0.9916460514068604
106	126.080078125	response	0	j		104.0	/experiments/knapen_aot/AOT/AOT_stimuli/pictures/1841_fw.png	244.98104214668274	
107	126.09662318229675	picture	0		116	105.0	/experiments/knapen_aot/AOT/AOT_stimuli/pictures/1916_fw.png	244.9975872039795	0.9713089466094971
107	127.05507206916809	response	0	k		105.0	/experiments/knapen_aot/AOT/AOT_stimuli/pictures/1916_fw.png	245.95603609085083	
108	127.06793212890625	picture	0		109	106.0	/experiments/knapen_aot/AOT/AOT_stimuli/pictures/1277_fw.png	245.968896150589	0.9166290760040283
108	127.97172212600708	response	0	k		106.0	/experiments/knapen_aot/AOT/AOT_stimuli/pictures/1277_fw.png	246.87268614768982	
109	127.98456120491028	picture	0		132	107.0	/experiments/knapen_aot/AOT/AOT_stimuli/pictures/0370_fw.png	246.88552522659302	1.1041479110717773
109	129.08001112937927	response	0	k		107.0	/experiments/knapen_aot/AOT/AOT_stimuli/pictures/0370_fw.png	247.980975151062	
110	129.08870911598206	picture	0		101	108.0	/experiments/knapen_aot/AOT/AOT_stimuli/pictures/1883_fw.png	247.9896731376648	0.8495769500732422
110	129.92212104797363	response	0	k		108.0	/experiments/knapen_aot/AOT/AOT_stimuli/pictures/1883_fw.png	248.82308506965637	
111	129.9382860660553	picture	0		119	109.0	/experiments/knapen_aot/AOT/AOT_stimuli/pictures/1722_fw.png	248.83925008773804	0.9999940395355225
111	130.91483211517334	response	0	k		109.0	/experiments/knapen_aot/AOT/AOT_stimuli/pictures/1722_fw.png	249.81579613685608	
112	130.93828010559082	picture	0		128	110.0	/experiments/knapen_aot/AOT/AOT_stimuli/pictures/1649_fw.png	249.83924412727356	1.0670769214630127
112	131.99669003486633	response	0	j		110.0	/experiments/knapen_aot/AOT/AOT_stimuli/pictures/1649_fw.png	250.89765405654907	
113	132.00535702705383	picture	0		132	111.0	/experiments/knapen_aot/AOT/AOT_stimuli/pictures/1627_fw.png	250.90632104873657	1.1041409969329834
113	133.09029817581177	response	0	j		111.0	/experiments/knapen_aot/AOT/AOT_stimuli/pictures/1627_fw.png	251.9912621974945	
114	133.10949802398682	picture	0		103	112.0	/experiments/knapen_aot/AOT/AOT_stimuli/pictures/0868_fw.png	252.01046204566956	0.854154109954834
114	133.95500421524048	response	0	j		112.0	/experiments/knapen_aot/AOT/AOT_stimuli/pictures/0868_fw.png	252.85596823692322	
115	133.96365213394165	picture	0		154	113.0	/experiments/knapen_aot/AOT/AOT_stimuli/pictures/0796_fw.png	252.8646161556244	1.2847340106964111
115	135.23839211463928	response	0	k		113.0	/experiments/knapen_aot/AOT/AOT_stimuli/pictures/0796_fw.png	254.13935613632202	
116	135.24838614463806	picture	0		92	114.0	/experiments/knapen_aot/AOT/AOT_stimuli/pictures/1823_fw.png	254.1493501663208	0.7708349227905273
116	136.0053791999817	response	0	j		114.0	/experiments/knapen_aot/AOT/AOT_stimuli/pictures/1823_fw.png	254.90634322166443	
117	136.0192210674286	picture	0		103	115.0	/experiments/knapen_aot/AOT/AOT_stimuli/pictures/0970_fw.png	254.92018508911133	0.8611140251159668
117	136.87163710594177	response	0	k		115.0	/experiments/knapen_aot/AOT/AOT_stimuli/pictures/0970_fw.png	255.7726011276245	
118	136.88033509254456	picture	0		110	116.0	/experiments/knapen_aot/AOT/AOT_stimuli/pictures/0137_fw.png	255.7812991142273	0.9165921211242676
118	137.78839707374573	response	0	k		116.0	/experiments/knapen_aot/AOT/AOT_stimuli/pictures/0137_fw.png	256.68936109542847	
119	137.79692721366882	picture	0		163	117.0	/experiments/knapen_aot/AOT/AOT_stimuli/pictures/0420_fw.png	256.69789123535156	1.3663849830627441
119	139.14661622047424	response	0	j		117.0	/experiments/knapen_aot/AOT/AOT_stimuli/pictures/0420_fw.png	258.047580242157	
120	139.16331219673157	picture	0		96	118.0	/experiments/knapen_aot/AOT/AOT_stimuli/pictures/1981_fw.png	258.0642762184143	0.8003799915313721
120	139.95504117012024	response	0	j		118.0	/experiments/knapen_aot/AOT/AOT_stimuli/pictures/1981_fw.png	258.856005191803	
121	139.96369218826294	picture	0		122	119.0	/experiments/knapen_aot/AOT/AOT_stimuli/pictures/1982_fw.png	258.8646562099457	1.0207469463348389
121	140.9715940952301	response	0	k		119.0	/experiments/knapen_aot/AOT/AOT_stimuli/pictures/1982_fw.png	259.87255811691284	
122	140.98443913459778	picture	0		124	120.0	/experiments/knapen_aot/AOT/AOT_stimuli/pictures/0710_fw.png	259.8854031562805	1.0347349643707275
122	142.0054190158844	response	0	j		120.0	/experiments/knapen_aot/AOT/AOT_stimuli/pictures/0710_fw.png	260.90638303756714	
123	142.0191740989685	picture	0		115	121.0	/experiments/knapen_aot/AOT/AOT_stimuli/pictures/0276_fw.png	260.92013812065125	0.9652669429779053
123	142.97163915634155	response	0	k		121.0	/experiments/knapen_aot/AOT/AOT_stimuli/pictures/0276_fw.png	261.8726031780243	
124	142.9844410419464	picture	0		105	122.0	/experiments/knapen_aot/AOT/AOT_stimuli/pictures/1728_fw.png	261.88540506362915	0.88710618019104
124	143.8550021648407	response	0	j		122.0	/experiments/knapen_aot/AOT/AOT_stimuli/pictures/1728_fw.png	262.75596618652344	
125	143.87154722213745	picture	0		125	123.0	/experiments/knapen_aot/AOT/AOT_stimuli/pictures/1966_fw.png	262.7725112438202	1.0433788299560547
125	144.89812207221985	response	0	k		123.0	/experiments/knapen_aot/AOT/AOT_stimuli/pictures/1966_fw.png	263.7990860939026	
126	144.9149260520935	picture	0		142	124.0	/experiments/knapen_aot/AOT/AOT_stimuli/pictures/0427_fw.png	263.81589007377625	1.1899070739746094
126	146.08867502212524	response	0	k		124.0	/experiments/knapen_aot/AOT/AOT_stimuli/pictures/0427_fw.png	264.989639043808	
127	146.10483312606812	picture	0		131	125.0	/experiments/knapen_aot/AOT/AOT_stimuli/pictures/0835_fw.png	265.00579714775085	1.094810962677002
127	147.18823504447937	response	0	j		125.0	/experiments/knapen_aot/AOT/AOT_stimuli/pictures/0835_fw.png	266.0891990661621	
128	147.19964408874512	picture	0		353	126.0	/experiments/knapen_aot/AOT/AOT_stimuli/pictures/1153_fw.png	266.10060811042786	2.946934938430786
128	150.1232089996338	response	0	k		126.0	/experiments/knapen_aot/AOT/AOT_stimuli/pictures/1153_fw.png	269.0241730213165	
129	150.1465790271759	picture	0		163	127.0	/experiments/knapen_aot/AOT/AOT_stimuli/pictures/1651_fw.png	269.04754304885864	1.3585991859436035
129	151.49669408798218	response	0	k		127.0	/experiments/knapen_aot/AOT/AOT_stimuli/pictures/1651_fw.png	270.3976581096649	
130	151.5051782131195	picture	0		110	128.0	/experiments/knapen_aot/AOT/AOT_stimuli/pictures/0318_fw.png	270.40614223480225	0.9166748523712158
130	152.4132330417633	response	0	k		128.0	/experiments/knapen_aot/AOT/AOT_stimuli/pictures/0318_fw.png	271.31419706344604	
131	152.42185306549072	picture	0		115	129.0	/experiments/knapen_aot/AOT/AOT_stimuli/pictures/1473_fw.png	271.32281708717346	0.9582560062408447
131	153.37161016464233	response	0	j		129.0	/experiments/knapen_aot/AOT/AOT_stimuli/pictures/1473_fw.png	272.2725741863251	
132	153.38010907173157	picture	0		141	130.0	/experiments/knapen_aot/AOT/AOT_stimuli/pictures/1742_fw.png	272.2810730934143	1.1830110549926758
132	154.5397810935974	response	0	k		130.0	/experiments/knapen_aot/AOT/AOT_stimuli/pictures/1742_fw.png	273.44074511528015	
133	154.56312012672424	picture	0		168	131.0	/experiments/knapen_aot/AOT/AOT_stimuli/pictures/1061_fw.png	273.464084148407	1.408505916595459
133	155.95494103431702	response	0	j		131.0	/experiments/knapen_aot/AOT/AOT_stimuli/pictures/1061_fw.png	274.85590505599976	
134	155.9716260433197	picture	0		107	132.0	/experiments/knapen_aot/AOT/AOT_stimuli/pictures/2081_fw.png	274.87259006500244	0.8945879936218262
134	156.85487508773804	response	0	k		132.0	/experiments/knapen_aot/AOT/AOT_stimuli/pictures/2081_fw.png	275.7558391094208	
135	156.86621403694153	picture	0		144	133.0	/experiments/knapen_aot/AOT/AOT_stimuli/pictures/0314_fw.png	275.76717805862427	1.2013990879058838
135	158.05484414100647	response	0	k		133.0	/experiments/knapen_aot/AOT/AOT_stimuli/pictures/0314_fw.png	276.9558081626892	
136	158.0676131248474	picture	0		162	134.0	/experiments/knapen_aot/AOT/AOT_stimuli/pictures/1207_fw.png	276.96857714653015	1.3471949100494385
136	159.40486216545105	response	0	k		134.0	/experiments/knapen_aot/AOT/AOT_stimuli/pictures/1207_fw.png	278.3058261871338	
137	159.41480803489685	picture	0		110	135.0	/experiments/knapen_aot/AOT/AOT_stimuli/pictures/1359_fw.png	278.3157720565796	0.9166760444641113
137	160.31479001045227	response	0	j		135.0	/experiments/knapen_aot/AOT/AOT_stimuli/pictures/1359_fw.png	279.215754032135	
138	160.33148407936096	picture	0		114	136.0	/experiments/knapen_aot/AOT/AOT_stimuli/pictures/1629_fw.png	279.2324481010437	0.9513680934906006
138	161.2716121673584	response	0	k		136.0	/experiments/knapen_aot/AOT/AOT_stimuli/pictures/1629_fw.png	280.17257618904114	
139	161.28285217285156	picture	0		101	137.0	/experiments/knapen_aot/AOT/AOT_stimuli/pictures/1214_fw.png	280.1838161945343	0.840256929397583
139	162.10635900497437	response	0	k		137.0	/experiments/knapen_aot/AOT/AOT_stimuli/pictures/1214_fw.png	281.0073230266571	
140	162.12310910224915	picture	0		162	138.0	/experiments/knapen_aot/AOT/AOT_stimuli/pictures/0700_fw.png	281.0240731239319	1.3542070388793945
140	163.4634871482849	response	0	j		138.0	/experiments/knapen_aot/AOT/AOT_stimuli/pictures/0700_fw.png	282.36445116996765	
141	163.47731614112854	picture	0		89	139.0	/experiments/knapen_aot/AOT/AOT_stimuli/pictures/0892_fw.png	282.3782801628113	0.7499699592590332
141	164.21350622177124	response	0	j		139.0	/experiments/knapen_aot/AOT/AOT_stimuli/pictures/0892_fw.png	283.114470243454	
142	164.22728610038757	picture	0		220	140.0	/experiments/knapen_aot/AOT/AOT_stimuli/pictures/0436_fw.png	283.1282501220703	1.8402400016784668
142	166.05494213104248	response	0	k		140.0	/experiments/knapen_aot/AOT/AOT_stimuli/pictures/0436_fw.png	284.9559061527252	
143	166.06752610206604	picture	0		239	141.0	/experiments/knapen_aot/AOT/AOT_stimuli/pictures/1344_fw.png	284.9684901237488	1.9955840110778809
143	168.04679203033447	response	0	j		141.0	/experiments/knapen_aot/AOT/AOT_stimuli/pictures/1344_fw.png	286.9477560520172	
144	168.06311011314392	picture	0		309	142.0	/experiments/knapen_aot/AOT/AOT_stimuli/pictures/1507_fw.png	286.96407413482666	2.5834290981292725
144	170.63008999824524	response	0	j		142.0	/experiments/knapen_aot/AOT/AOT_stimuli/pictures/1507_fw.png	289.531054019928	
145	170.6465392112732	picture	0		98	143.0	/experiments/knapen_aot/AOT/AOT_stimuli/pictures/1384_fw.png	289.54750323295593	0.8167150020599365
145	171.45487022399902	response	0	j		143.0	/experiments/knapen_aot/AOT/AOT_stimuli/pictures/1384_fw.png	290.35583424568176	
146	171.46325421333313	picture	0		104	144.0	/experiments/knapen_aot/AOT/AOT_stimuli/pictures/1942_fw.png	290.36421823501587	0.868088960647583
146	172.3147201538086	response	0	j		144.0	/experiments/knapen_aot/AOT/AOT_stimuli/pictures/1942_fw.png	291.21568417549133	
147	172.3313431739807	picture	0		140	145.0	/experiments/knapen_aot/AOT/AOT_stimuli/pictures/1263_fw.png	291.23230719566345	1.166623830795288
147	173.48816204071045	response	0	j		145.0	/experiments/knapen_aot/AOT/AOT_stimuli/pictures/1263_fw.png	292.3891260623932	
148	173.497967004776	picture	0		188	146.0	/experiments/knapen_aot/AOT/AOT_stimuli/pictures/1481_fw.png	292.39893102645874	1.5694820880889893
148	175.05478405952454	response	0	k		146.0	/experiments/knapen_aot/AOT/AOT_stimuli/pictures/1481_fw.png	293.9557480812073	
149	175.067449092865	picture	0		214	147.0	/experiments/knapen_aot/AOT/AOT_stimuli/pictures/0887_fw.png	293.96841311454773	1.7873060703277588
149	176.83837699890137	response	0	k		147.0	/experiments/knapen_aot/AOT/AOT_stimuli/pictures/0887_fw.png	295.7393410205841	
150	176.85475516319275	picture	0		222	148.0	/experiments/knapen_aot/AOT/AOT_stimuli/pictures/1976_fw.png	295.7557191848755	1.8584270477294922
150	178.69660019874573	response	0	k		148.0	/experiments/knapen_aot/AOT/AOT_stimuli/pictures/1976_fw.png	297.59756422042847	
151	178.71318221092224	picture	0		107	149.0	/experiments/knapen_aot/AOT/AOT_stimuli/pictures/1385_fw.png	297.614146232605	0.8959188461303711
151	179.59651112556458	response	0	k		149.0	/experiments/knapen_aot/AOT/AOT_stimuli/pictures/1385_fw.png	298.4974751472473	
152	179.6091010570526	picture	0		141	150.0	/experiments/knapen_aot/AOT/AOT_stimuli/pictures/0826_fw.png	298.51006507873535	1.1789679527282715
152	180.7714080810547	response	0	k		150.0	/experiments/knapen_aot/AOT/AOT_stimuli/pictures/0826_fw.png	299.6723721027374	
153	180.78806900978088	picture	0		121	151.0	/experiments/knapen_aot/AOT/AOT_stimuli/pictures/1069_fw.png	299.6890330314636	1.0085361003875732
153	181.78812909126282	response	0	k		151.0	/experiments/knapen_aot/AOT/AOT_stimuli/pictures/1069_fw.png	300.68909311294556	
154	181.79660511016846	picture	0		131	152.0	/experiments/knapen_aot/AOT/AOT_stimuli/pictures/1865_fw.png	300.6975691318512	1.0997779369354248
154	182.8799250125885	response	0	k		152.0	/experiments/knapen_aot/AOT/AOT_stimuli/pictures/1865_fw.png	301.78088903427124	
155	182.89638304710388	picture	0		128	153.0	/experiments/knapen_aot/AOT/AOT_stimuli/pictures/2083_fw.png	301.7973470687866	1.0751030445098877
155	183.95478415489197	response	0	j		153.0	/experiments/knapen_aot/AOT/AOT_stimuli/pictures/2083_fw.png	302.8557481765747	
156	183.97148609161377	picture	0		94	154.0	/experiments/knapen_aot/AOT/AOT_stimuli/pictures/0579_fw.png	302.8724501132965	0.7833590507507324
156	184.7396161556244	response	0	j		154.0	/experiments/knapen_aot/AOT/AOT_stimuli/pictures/0579_fw.png	303.64058017730713	
157	184.7548451423645	picture	0		397	155.0	/experiments/knapen_aot/AOT/AOT_stimuli/pictures/1163_fw.png	303.65580916404724	3.3124589920043945
157	188.05476999282837	response	0	k		155.0	/experiments/knapen_aot/AOT/AOT_stimuli/pictures/1163_fw.png	306.9557340145111	
158	188.0673041343689	picture	0		118	156.0	/experiments/knapen_aot/AOT/AOT_stimuli/pictures/0858_fw.png	306.96826815605164	0.9791669845581055
158	189.03810119628906	response	0	j		156.0	/experiments/knapen_aot/AOT/AOT_stimuli/pictures/0858_fw.png	307.9390652179718	
159	189.046471118927	picture	0		258	157.0	/experiments/knapen_aot/AOT/AOT_stimuli/pictures/0238_fw.png	307.94743514060974	2.158202886581421
159	191.18808722496033	response	0	k		157.0	/experiments/knapen_aot/AOT/AOT_stimuli/pictures/0238_fw.png	310.08905124664307	
160	191.20467400550842	picture	0		103	158.0	/experiments/knapen_aot/AOT/AOT_stimuli/pictures/0439_fw.png	310.10563802719116	0.8626070022583008
160	192.05474305152893	response	0	j		158.0	/experiments/knapen_aot/AOT/AOT_stimuli/pictures/0439_fw.png	310.95570707321167	
161	192.06728100776672	picture	0		105	159.0	/experiments/knapen_aot/AOT/AOT_stimuli/pictures/0174_fw.png	310.96824502944946	0.8749580383300781
161	192.92316913604736	response	0	k		159.0	/experiments/knapen_aot/AOT/AOT_stimuli/pictures/0174_fw.png	311.8241331577301	
162	192.9422390460968	picture	0		123	160.0	/experiments/knapen_aot/AOT/AOT_stimuli/pictures/0569_fw.png	311.84320306777954	1.020838975906372
162	193.95481300354004	response	0	k		160.0	/experiments/knapen_aot/AOT/AOT_stimuli/pictures/0569_fw.png	312.8557770252228	
163	193.96307802200317	picture	0		98	161.0	/experiments/knapen_aot/AOT/AOT_stimuli/pictures/1613_fw.png	312.8640420436859	0.824951171875
163	194.77130007743835	response	0	j		161.0	/experiments/knapen_aot/AOT/AOT_stimuli/pictures/1613_fw.png	313.6722640991211	
164	194.78802919387817	picture	0		107	162.0	/experiments/knapen_aot/AOT/AOT_stimuli/pictures/1031_fw.png	313.6889932155609	0.8972489833831787
164	195.67151618003845	response	0	j		162.0	/experiments/knapen_aot/AOT/AOT_stimuli/pictures/1031_fw.png	314.5724802017212	
165	195.68527817726135	picture	0		112	163.0	/experiments/knapen_aot/AOT/AOT_stimuli/pictures/1508_fw.png	314.5862421989441	0.9443869590759277
165	196.61316919326782	response	0	k		163.0	/experiments/knapen_aot/AOT/AOT_stimuli/pictures/1508_fw.png	315.51413321495056	
166	196.62966513633728	picture	0		95	164.0	/experiments/knapen_aot/AOT/AOT_stimuli/pictures/0894_fw.png	315.53062915802	0.7917180061340332
166	197.4130940437317	response	0	j		164.0	/experiments/knapen_aot/AOT/AOT_stimuli/pictures/0894_fw.png	316.31405806541443	
167	197.4213831424713	picture	0		111	165.0	/experiments/knapen_aot/AOT/AOT_stimuli/pictures/1058_fw.png	316.32234716415405	0.9307708740234375
167	198.33143019676208	response	0	j		165.0	/experiments/knapen_aot/AOT/AOT_stimuli/pictures/1058_fw.png	317.2323942184448	
168	198.35215401649475	picture	0		99	166.0	/experiments/knapen_aot/AOT/AOT_stimuli/pictures/0999_fw.png	317.2531180381775	0.8331210613250732
168	199.17148208618164	response	0	j		166.0	/experiments/knapen_aot/AOT/AOT_stimuli/pictures/0999_fw.png	318.0724461078644	
169	199.18527507781982	picture	0		117	167.0	/experiments/knapen_aot/AOT/AOT_stimuli/pictures/1199_fw.png	318.08623909950256	0.9791231155395508
169	200.15474319458008	response	0	k		167.0	/experiments/knapen_aot/AOT/AOT_stimuli/pictures/1199_fw.png	319.0557072162628	
170	200.16439819335938	picture	0		103	168.0	/experiments/knapen_aot/AOT/AOT_stimuli/pictures/1026_fw.png	319.0653622150421	0.8611388206481934
170	201.01303720474243	response	0	k		168.0	/experiments/knapen_aot/AOT/AOT_stimuli/pictures/1026_fw.png	319.91400122642517	
171	201.02553701400757	picture	0		90	169.0	/experiments/knapen_aot/AOT/AOT_stimuli/pictures/1494_fw.png	319.9265010356903	0.7500061988830566
171	201.76302313804626	response	0	j		169.0	/experiments/knapen_aot/AOT/AOT_stimuli/pictures/1494_fw.png	320.663987159729	
172	201.77554321289062	picture	0		110	170.0	/experiments/knapen_aot/AOT/AOT_stimuli/pictures/1298_fw.png	320.67650723457336	0.9166247844696045
172	202.67965006828308	response	0	k		170.0	/experiments/knapen_aot/AOT/AOT_stimuli/pictures/1298_fw.png	321.5806140899658	
173	202.69216799736023	picture	0		97	171.0	/experiments/knapen_aot/AOT/AOT_stimuli/pictures/1217_fw.png	321.59313201904297	0.8055469989776611
173	203.48805809020996	response	0	j		171.0	/experiments/knapen_aot/AOT/AOT_stimuli/pictures/1217_fw.png	322.3890221118927	
174	203.4977149963379	picture	0		106	172.0	/experiments/knapen_aot/AOT/AOT_stimuli/pictures/0731_fw.png	322.39867901802063	0.8903322219848633
174	204.37140822410583	response	0	j		172.0	/experiments/knapen_aot/AOT/AOT_stimuli/pictures/0731_fw.png	323.2723722457886	
175	204.38804721832275	picture	0		152	173.0	/experiments/knapen_aot/AOT/AOT_stimuli/pictures/0933_fw.png	323.2890112400055	1.2748827934265137
175	205.64637804031372	response	0	k		173.0	/experiments/knapen_aot/AOT/AOT_stimuli/pictures/0933_fw.png	324.54734206199646	
176	205.66293001174927	picture	0		175	174.0	/experiments/knapen_aot/AOT/AOT_stimuli/pictures/0774_fw.png	324.563894033432	1.4597771167755127
176	207.1130621433258	response	0	j		174.0	/experiments/knapen_aot/AOT/AOT_stimuli/pictures/0774_fw.png	326.01402616500854	
177	207.12270712852478	picture	0		112	175.0	/experiments/knapen_aot/AOT/AOT_stimuli/pictures/1349_fw.png	326.0236711502075	0.9374980926513672
177	208.0464072227478	response	0	j		175.0	/experiments/knapen_aot/AOT/AOT_stimuli/pictures/1349_fw.png	326.94737124443054	
178	208.06020522117615	picture	0		116	176.0	/experiments/knapen_aot/AOT/AOT_stimuli/pictures/2063_fw.png	326.9611692428589	0.9778409004211426
178	209.02140307426453	response	0	k		176.0	/experiments/knapen_aot/AOT/AOT_stimuli/pictures/2063_fw.png	327.92236709594727	
179	209.0380461215973	picture	0		167	177.0	/experiments/knapen_aot/AOT/AOT_stimuli/pictures/0409_fw.png	327.93901014328003	1.3971190452575684
179	210.42141819000244	response	0	k		177.0	/experiments/knapen_aot/AOT/AOT_stimuli/pictures/0409_fw.png	329.3223822116852	
180	210.43516516685486	picture	0		149	178.0	/experiments/knapen_aot/AOT/AOT_stimuli/pictures/0845_fw.png	329.3361291885376	1.2499990463256836
180	211.6714220046997	response	0	k		178.0	/experiments/knapen_aot/AOT/AOT_stimuli/pictures/0845_fw.png	330.57238602638245	
181	211.68516421318054	picture	0		90	179.0	/experiments/knapen_aot/AOT/AOT_stimuli/pictures/0607_fw.png	330.5861282348633	0.7569179534912109
181	212.42969799041748	response	0	j		179.0	/experiments/knapen_aot/AOT/AOT_stimuli/pictures/0607_fw.png	331.3306620121002	
182	212.44208216667175	picture	0		81	180.0	/experiments/knapen_aot/AOT/AOT_stimuli/pictures/1510_fw.png	331.3430461883545	0.6805338859558105
182	213.11302399635315	response	0	j		180.0	/experiments/knapen_aot/AOT/AOT_stimuli/pictures/1510_fw.png	332.0139880180359	
183	213.12261605262756	picture	0		114	181.0	/experiments/knapen_aot/AOT/AOT_stimuli/pictures/1594_fw.png	332.0235800743103	0.9513821601867676
183	214.06293201446533	response	0	k		181.0	/experiments/knapen_aot/AOT/AOT_stimuli/pictures/1594_fw.png	332.96389603614807	
184	214.07399821281433	picture	0		192	182.0	/experiments/knapen_aot/AOT/AOT_stimuli/pictures/1383_fw.png	332.97496223449707	1.605569839477539
184	215.66303706169128	response	0	j		182.0	/experiments/knapen_aot/AOT/AOT_stimuli/pictures/1383_fw.png	334.564001083374	
185	215.67956805229187	picture	0		181	183.0	/experiments/knapen_aot/AOT/AOT_stimuli/pictures/0456_fw.png	334.5805320739746	1.5124690532684326
185	217.17956709861755	response	0	j		183.0	/experiments/knapen_aot/AOT/AOT_stimuli/pictures/0456_fw.png	336.0805311203003	
186	217.1920371055603	picture	0		155	184.0	/experiments/knapen_aot/AOT/AOT_stimuli/pictures/0617_fw.png	336.09300112724304	1.2986419200897217
186	218.479660987854	response	0	k		184.0	/experiments/knapen_aot/AOT/AOT_stimuli/pictures/0617_fw.png	337.38062500953674	
187	218.49067902565002	picture	0		128	185.0	/experiments/knapen_aot/AOT/AOT_stimuli/pictures/1688_fw.png	337.39164304733276	1.0694701671600342
187	219.5395622253418	response	0	k		185.0	/experiments/knapen_aot/AOT/AOT_stimuli/pictures/1688_fw.png	338.44052624702454	
188	219.56014919281006	picture	0		109	186.0	/experiments/knapen_aot/AOT/AOT_stimuli/pictures/0216_fw.png	338.4611132144928	0.9166569709777832
188	220.46299815177917	response	0	k		186.0	/experiments/knapen_aot/AOT/AOT_stimuli/pictures/0216_fw.png	339.3639621734619	
189	220.47680616378784	picture	0		113	187.0	/experiments/knapen_aot/AOT/AOT_stimuli/pictures/0851_fw.png	339.3777701854706	0.9443948268890381
189	221.41299104690552	response	0	j		187.0	/experiments/knapen_aot/AOT/AOT_stimuli/pictures/0851_fw.png	340.31395506858826	
190	221.42120099067688	picture	0		91	188.0	/experiments/knapen_aot/AOT/AOT_stimuli/pictures/0379_fw.png	340.3221650123596	0.7639350891113281
190	222.17132019996643	response	0	j		188.0	/experiments/knapen_aot/AOT/AOT_stimuli/pictures/0379_fw.png	341.07228422164917	
191	222.1851360797882	picture	0		121	189.0	/experiments/knapen_aot/AOT/AOT_stimuli/pictures/2097_fw.png	341.08610010147095	1.019454002380371
191	223.1880121231079	response	0	k		189.0	/experiments/knapen_aot/AOT/AOT_stimuli/pictures/2097_fw.png	342.08897614479065	
192	223.20459008216858	picture	0		115	190.0	/experiments/knapen_aot/AOT/AOT_stimuli/pictures/1460_fw.png	342.1055541038513	0.9596381187438965
192	224.1478991508484	response	0	j		190.0	/experiments/knapen_aot/AOT/AOT_stimuli/pictures/1460_fw.png	343.0488631725311	
193	224.16422820091248	picture	0		122	191.0	/experiments/knapen_aot/AOT/AOT_stimuli/pictures/1786_fw.png	343.0651922225952	1.0207788944244385
193	225.16448616981506	response	0	k		191.0	/experiments/knapen_aot/AOT/AOT_stimuli/pictures/1786_fw.png	344.0654501914978	
194	225.1850070953369	picture	0		148	192.0	/experiments/knapen_aot/AOT/AOT_stimuli/pictures/2126_fw.png	344.08597111701965	1.2445199489593506
194	226.41293716430664	response	0	j		192.0	/experiments/knapen_aot/AOT/AOT_stimuli/pictures/2126_fw.png	345.3139011859894	
195	226.42952704429626	picture	0		152	193.0	/experiments/knapen_aot/AOT/AOT_stimuli/pictures/1872_fw.png	345.330491065979	1.2750799655914307
195	227.68795919418335	response	0	k		193.0	/experiments/knapen_aot/AOT/AOT_stimuli/pictures/1872_fw.png	346.5889232158661	
196	227.7046070098877	picture	0		104	194.0	/experiments/knapen_aot/AOT/AOT_stimuli/pictures/0406_fw.png	346.60557103157043	0.8748910427093506
196	228.55612111091614	response	0	j		194.0	/experiments/knapen_aot/AOT/AOT_stimuli/pictures/0406_fw.png	347.4570851325989	
197	228.57949805259705	picture	0		113	195.0	/experiments/knapen_aot/AOT/AOT_stimuli/pictures/0736_fw.png	347.4804620742798	0.9457480907440186
197	229.51289916038513	response	0	j		195.0	/experiments/knapen_aot/AOT/AOT_stimuli/pictures/0736_fw.png	348.41386318206787	
198	229.52524614334106	picture	0		95	196.0	/experiments/knapen_aot/AOT/AOT_stimuli/pictures/0392_fw.png	348.4262101650238	0.7916748523712158
198	230.30460715293884	response	0	j		196.0	/experiments/knapen_aot/AOT/AOT_stimuli/pictures/0392_fw.png	349.2055711746216	
199	230.31692099571228	picture	0		140	197.0	/experiments/knapen_aot/AOT/AOT_stimuli/pictures/0454_fw.png	349.217885017395	1.170915126800537
199	231.47128319740295	response	0	k		197.0	/experiments/knapen_aot/AOT/AOT_stimuli/pictures/0454_fw.png	350.3722472190857	
200	231.48783612251282	picture	0		94	198.0	/experiments/knapen_aot/AOT/AOT_stimuli/pictures/1172_fw.png	350.38880014419556	0.7917180061340332
200	232.26287412643433	response	0	j		198.0	/experiments/knapen_aot/AOT/AOT_stimuli/pictures/1172_fw.png	351.16383814811707	
201	232.27955412864685	picture	0		113	199.0	/experiments/knapen_aot/AOT/AOT_stimuli/pictures/0632_fw.png	351.1805181503296	0.9499199390411377
201	233.21295714378357	response	0	j		199.0	/experiments/knapen_aot/AOT/AOT_stimuli/pictures/0632_fw.png	352.1139211654663	
202	233.229474067688	picture	0		121	200.0	/experiments/knapen_aot/AOT/AOT_stimuli/pictures/1215_fw.png	352.1304380893707	1.01102614402771
202	234.22960209846497	response	0	j		200.0	/experiments/knapen_aot/AOT/AOT_stimuli/pictures/1215_fw.png	353.1305661201477	
203	234.2405002117157	picture	0		128	201.0	/experiments/knapen_aot/AOT/AOT_stimuli/pictures/1547_fw.png	353.14146423339844	1.0695099830627441
203	235.29627799987793	response	0	j		201.0	/experiments/knapen_aot/AOT/AOT_stimuli/pictures/1547_fw.png	354.19724202156067	
204	235.31001019477844	picture	0		119	202.0	/experiments/knapen_aot/AOT/AOT_stimuli/pictures/1039_fw.png	354.2109742164612	0.9999020099639893
204	236.29626321792603	response	0	k		202.0	/experiments/knapen_aot/AOT/AOT_stimuli/pictures/1039_fw.png	355.19722723960876	
205	236.30991220474243	picture	0		103	203.0	/experiments/knapen_aot/AOT/AOT_stimuli/pictures/0794_fw.png	355.21087622642517	0.8611769676208496
205	237.15610098838806	response	0	j		203.0	/experiments/knapen_aot/AOT/AOT_stimuli/pictures/0794_fw.png	356.0570650100708	
206	237.17108917236328	picture	0		104	204.0	/experiments/knapen_aot/AOT/AOT_stimuli/pictures/1074_fw.png	356.072053194046	0.8679978847503662
206	238.02955222129822	response	0	k		204.0	/experiments/knapen_aot/AOT/AOT_stimuli/pictures/1074_fw.png	356.93051624298096	
207	238.03908705711365	picture	0		149	205.0	/experiments/knapen_aot/AOT/AOT_stimuli/pictures/1060_fw.png	356.9400510787964	1.2429890632629395
207	239.27118515968323	response	0	k		205.0	/experiments/knapen_aot/AOT/AOT_stimuli/pictures/1060_fw.png	358.17214918136597	
208	239.2820761203766	picture	0		132	206.0	/experiments/knapen_aot/AOT/AOT_stimuli/pictures/1787_fw.png	358.1830401420593	1.0973849296569824
208	240.36437702178955	response	0	k		206.0	/experiments/knapen_aot/AOT/AOT_stimuli/pictures/1787_fw.png	359.2653410434723	
209	240.37946105003357	picture	0		110	207.0	/experiments/knapen_aot/AOT/AOT_stimuli/pictures/0936_fw.png	359.2804250717163	0.9167160987854004
209	241.28791499137878	response	0	j		207.0	/experiments/knapen_aot/AOT/AOT_stimuli/pictures/0936_fw.png	360.1888790130615	
210	241.29617714881897	picture	0		106	208.0	/experiments/knapen_aot/AOT/AOT_stimuli/pictures/1436_fw.png	360.1971411705017	0.8887078762054443
210	242.16442799568176	response	0	k		208.0	/experiments/knapen_aot/AOT/AOT_stimuli/pictures/1436_fw.png	361.0653920173645	
211	242.1848850250244	picture	0		101	209.0	/experiments/knapen_aot/AOT/AOT_stimuli/pictures/0213_fw.png	361.08584904670715	0.8471641540527344
211	243.0211730003357	response	0	k		209.0	/experiments/knapen_aot/AOT/AOT_stimuli/pictures/0213_fw.png	361.92213702201843	
212	243.03204917907715	picture	0		112	210.0	/experiments/knapen_aot/AOT/AOT_stimuli/pictures/0905_fw.png	361.9330132007599	0.9391310214996338
212	243.94771099090576	response	0	k		210.0	/experiments/knapen_aot/AOT/AOT_stimuli/pictures/0905_fw.png	362.8486750125885	
213	243.97118020057678	picture	0		104	211.0	/experiments/knapen_aot/AOT/AOT_stimuli/pictures/0922_fw.png	362.8721442222595	0.8748970031738281
213	244.82961320877075	response	0	j		211.0	/experiments/knapen_aot/AOT/AOT_stimuli/pictures/0922_fw.png	363.7305772304535	
214	244.8460772037506	picture	0		135	212.0	/experiments/knapen_aot/AOT/AOT_stimuli/pictures/2000_fw.png	363.74704122543335	1.1304450035095215
214	245.95614409446716	response	0	j		212.0	/experiments/knapen_aot/AOT/AOT_stimuli/pictures/2000_fw.png	364.8571081161499	
215	245.97652220726013	picture	0		108	213.0	/experiments/knapen_aot/AOT/AOT_stimuli/pictures/0504_fw.png	364.87748622894287	0.9113178253173828
215	246.87121319770813	response	0	k		213.0	/experiments/knapen_aot/AOT/AOT_stimuli/pictures/0504_fw.png	365.77217721939087	
216	246.88784003257751	picture	0		101	214.0	/experiments/knapen_aot/AOT/AOT_stimuli/pictures/1716_fw.png	365.78880405426025	0.8499100208282471
216	247.7211790084839	response	0	k		214.0	/experiments/knapen_aot/AOT/AOT_stimuli/pictures/1716_fw.png	366.6221430301666	
217	247.73775005340576	picture	0		114	215.0	/experiments/knapen_aot/AOT/AOT_stimuli/pictures/1923_fw.png	366.6387140750885	0.9584109783172607
217	248.67949509620667	response	0	j		215.0	/experiments/knapen_aot/AOT/AOT_stimuli/pictures/1923_fw.png	367.5804591178894	
218	248.69616103172302	picture	0		90	216.0	/experiments/knapen_aot/AOT/AOT_stimuli/pictures/0074_fw.png	367.59712505340576	0.7524981498718262
218	249.43783807754517	response	0	k		216.0	/experiments/knapen_aot/AOT/AOT_stimuli/pictures/0074_fw.png	368.3388020992279	
219	249.44865918159485	picture	0		116	217.0	/experiments/knapen_aot/AOT/AOT_stimuli/pictures/1113_fw.png	368.3496232032776	0.9725348949432373
219	250.40448713302612	response	0	k		217.0	/experiments/knapen_aot/AOT/AOT_stimuli/pictures/1113_fw.png	369.30545115470886	
220	250.4211940765381	picture	0		100	218.0	/experiments/knapen_aot/AOT/AOT_stimuli/pictures/1563_fw.png	369.3221580982208	0.8332009315490723
220	251.24618005752563	response	0	j		218.0	/experiments/knapen_aot/AOT/AOT_stimuli/pictures/1563_fw.png	370.1471440792084	
221	251.25439500808716	picture	0		105	219.0	/experiments/knapen_aot/AOT/AOT_stimuli/pictures/1284_fw.png	370.1553590297699	0.8749241828918457
221	252.12118411064148	response	0	j		219.0	/experiments/knapen_aot/AOT/AOT_stimuli/pictures/1284_fw.png	371.0221481323242	
222	252.129319190979	picture	0		208	220.0	/experiments/knapen_aot/AOT/AOT_stimuli/pictures/0977_fw.png	371.03028321266174	1.7359559535980225
222	253.85443210601807	response	0	j		220.0	/experiments/knapen_aot/AOT/AOT_stimuli/pictures/0977_fw.png	372.7553961277008	
223	253.86527514457703	picture	0		105	221.0	/experiments/knapen_aot/AOT/AOT_stimuli/pictures/1808_fw.png	372.76623916625977	0.8808300495147705
223	254.7295641899109	response	0	j		221.0	/experiments/knapen_aot/AOT/AOT_stimuli/pictures/1808_fw.png	373.6305282115936	
224	254.7461051940918	picture	0		126	222.0	/experiments/knapen_aot/AOT/AOT_stimuli/pictures/0573_fw.png	373.64706921577454	1.0583000183105469
224	255.7877860069275	response	0	k		222.0	/experiments/knapen_aot/AOT/AOT_stimuli/pictures/0573_fw.png	374.68875002861023	
225	255.80440521240234	picture	0		95	223.0	/experiments/knapen_aot/AOT/AOT_stimuli/pictures/1593_fw.png	374.7053692340851	0.7970139980316162
225	256.5809950828552	response	0	k		223.0	/experiments/knapen_aot/AOT/AOT_stimuli/pictures/1593_fw.png	375.48195910453796	
226	256.60141921043396	picture	0		109	224.0	/experiments/knapen_aot/AOT/AOT_stimuli/pictures/1829_fw.png	375.5023832321167	0.9196569919586182
226	257.5044901371002	response	0	j		224.0	/experiments/knapen_aot/AOT/AOT_stimuli/pictures/1829_fw.png	376.40545415878296	
227	257.5210762023926	picture	0		110	225.0	/experiments/knapen_aot/AOT/AOT_stimuli/pictures/1620_fw.png	376.4220402240753	0.9206058979034424
227	258.4295082092285	response	0	j		225.0	/experiments/knapen_aot/AOT/AOT_stimuli/pictures/1620_fw.png	377.33047223091125	
228	258.441682100296	picture	0		154	226.0	/experiments/knapen_aot/AOT/AOT_stimuli/pictures/0567_fw.png	377.34264612197876	1.2847011089324951
228	259.7128291130066	response	0	k		226.0	/experiments/knapen_aot/AOT/AOT_stimuli/pictures/0567_fw.png	378.61379313468933	
229	259.7263832092285	picture	0		100	227.0	/experiments/knapen_aot/AOT/AOT_stimuli/pictures/1927_fw.png	378.62734723091125	0.8446660041809082
229	260.5476760864258	response	0	k		227.0	/experiments/knapen_aot/AOT/AOT_stimuli/pictures/1927_fw.png	379.4486401081085	
230	260.5710492134094	picture	0		98	228.0	/experiments/knapen_aot/AOT/AOT_stimuli/pictures/0562_fw.png	379.47201323509216	0.8219668865203857
230	261.3725781440735	response	0	j		228.0	/experiments/knapen_aot/AOT/AOT_stimuli/pictures/0562_fw.png	380.2735421657562	
231	261.3930160999298	picture	0		118	229.0	/experiments/knapen_aot/AOT/AOT_stimuli/pictures/1726_fw.png	380.29398012161255	0.9931550025939941
231	262.36428713798523	response	0	k		229.0	/experiments/knapen_aot/AOT/AOT_stimuli/pictures/1726_fw.png	381.26525115966797	
232	262.3861711025238	picture	0		176	230.0	/experiments/knapen_aot/AOT/AOT_stimuli/pictures/1105_fw.png	381.28713512420654	1.4720649719238281
232	263.8461000919342	response	0	k		230.0	/experiments/knapen_aot/AOT/AOT_stimuli/pictures/1105_fw.png	382.74706411361694	
233	263.85823607444763	picture	0		152	231.0	/experiments/knapen_aot/AOT/AOT_stimuli/pictures/1317_fw.png	382.75920009613037	1.2711830139160156
233	265.11277508735657	response	0	k		231.0	/experiments/knapen_aot/AOT/AOT_stimuli/pictures/1317_fw.png	384.0137391090393	
234	265.12941908836365	picture	0		123	232.0	/experiments/knapen_aot/AOT/AOT_stimuli/pictures/1002_fw.png	384.0303831100464	1.0274081230163574
234	266.1460950374603	response	0	k		232.0	/experiments/knapen_aot/AOT/AOT_stimuli/pictures/1002_fw.png	385.04705905914307	
235	266.15682721138	picture	0		128	233.0	/experiments/knapen_aot/AOT/AOT_stimuli/pictures/1300_fw.png	385.05779123306274	1.0694668292999268
235	267.2127311229706	response	0	k		233.0	/experiments/knapen_aot/AOT/AOT_stimuli/pictures/1300_fw.png	386.1136951446533	
236	267.22629404067993	picture	0		100	234.0	/experiments/knapen_aot/AOT/AOT_stimuli/pictures/0561_fw.png	386.12725806236267	0.8447451591491699
236	268.05443811416626	response	0	j		234.0	/experiments/knapen_aot/AOT/AOT_stimuli/pictures/0561_fw.png	386.955402135849	
237	268.0710391998291	picture	0		90	235.0	/experiments/knapen_aot/AOT/AOT_stimuli/pictures/0055_fw.png	386.97200322151184	0.7582998275756836
237	268.81277418136597	response	0	j		235.0	/experiments/knapen_aot/AOT/AOT_stimuli/pictures/0055_fw.png	387.7137382030487	
238	268.8293390274048	picture	0		88	236.0	/experiments/knapen_aot/AOT/AOT_stimuli/pictures/1980_fw.png	387.7303030490875	0.7420821189880371
238	269.55444407463074	response	0	j		236.0	/experiments/knapen_aot/AOT/AOT_stimuli/pictures/1980_fw.png	388.4554080963135	
239	269.5714211463928	picture	0		95	237.0	/experiments/knapen_aot/AOT/AOT_stimuli/pictures/1693_fw.png	388.47238516807556	0.7995989322662354
239	270.3544080257416	response	0	j		237.0	/experiments/knapen_aot/AOT/AOT_stimuli/pictures/1693_fw.png	389.2553720474243	
240	270.37102007865906	picture	0		117	238.0	/experiments/knapen_aot/AOT/AOT_stimuli/pictures/0869_fw.png	389.2719841003418	0.9835259914398193
240	271.3377511501312	response	0	j		238.0	/experiments/knapen_aot/AOT/AOT_stimuli/pictures/0869_fw.png	390.23871517181396	
241	271.3545460700989	picture	0		88	239.0	/experiments/knapen_aot/AOT/AOT_stimuli/pictures/0670_fw.png	390.2555100917816	0.7414839267730713
241	272.07941007614136	response	0	j		239.0	/experiments/knapen_aot/AOT/AOT_stimuli/pictures/0670_fw.png	390.9803740978241	
242	272.09602999687195	picture	0		122	240.0	/experiments/knapen_aot/AOT/AOT_stimuli/pictures/1503_fw.png	390.9969940185547	1.019085168838501
242	273.10443019866943	response	0	k		240.0	/experiments/knapen_aot/AOT/AOT_stimuli/pictures/1503_fw.png	392.0053942203522	
243	273.11511516571045	picture	0		120	241.0	/experiments/knapen_aot/AOT/AOT_stimuli/pictures/1290_fw.png	392.0160791873932	1.005871057510376
243	274.1044201850891	response	0	j		241.0	/experiments/knapen_aot/AOT/AOT_stimuli/pictures/1290_fw.png	393.00538420677185	
244	274.1209862232208	picture	0		113	242.0	/experiments/knapen_aot/AOT/AOT_stimuli/pictures/0081_fw.png	393.02195024490356	0.9499928951263428
244	275.0543270111084	response	0	j		242.0	/experiments/knapen_aot/AOT/AOT_stimuli/pictures/0081_fw.png	393.95529103279114	
245	275.07097911834717	picture	0		112	243.0	/experiments/knapen_aot/AOT/AOT_stimuli/pictures/1998_fw.png	393.9719431400299	0.9416780471801758
245	275.9960231781006	response	0	k		243.0	/experiments/knapen_aot/AOT/AOT_stimuli/pictures/1998_fw.png	394.8969871997833	
246	276.01265716552734	picture	0		271	244.0	/experiments/knapen_aot/AOT/AOT_stimuli/pictures/1332_fw.png	394.9136211872101	2.2621049880981445
246	278.262668132782	response	0	j		244.0	/experiments/knapen_aot/AOT/AOT_stimuli/pictures/1332_fw.png	397.1636321544647	
247	278.2747621536255	picture	0		182	245.0	/experiments/knapen_aot/AOT/AOT_stimuli/pictures/0499_fw.png	397.1757261753082	1.5139319896697998
247	279.77254915237427	response	0	j		245.0	/experiments/knapen_aot/AOT/AOT_stimuli/pictures/0499_fw.png	398.673513174057	
248	279.7886941432953	picture	0		105	246.0	/experiments/knapen_aot/AOT/AOT_stimuli/pictures/0618_fw.png	398.689658164978	0.8750360012054443
248	280.6543490886688	response	0	k		246.0	/experiments/knapen_aot/AOT/AOT_stimuli/pictures/0618_fw.png	399.55531311035156	
249	280.66373014450073	picture	0		114	247.0	/experiments/knapen_aot/AOT/AOT_stimuli/pictures/0600_fw.png	399.5646941661835	0.9576749801635742
249	281.60432600975037	response	0	k		247.0	/experiments/knapen_aot/AOT/AOT_stimuli/pictures/0600_fw.png	400.5052900314331	
250	281.6214051246643	picture	0		87	248.0	/experiments/knapen_aot/AOT/AOT_stimuli/pictures/2160_fw.png	400.52236914634705	0.7297310829162598
250	282.33770418167114	response	0	j		248.0	/experiments/knapen_aot/AOT/AOT_stimuli/pictures/2160_fw.png	401.2386682033539	
251	282.35113620758057	picture	0		93	249.0	/experiments/knapen_aot/AOT/AOT_stimuli/pictures/1902_fw.png	401.2521002292633	0.7864699363708496
251	283.1209440231323	response	0	j		249.0	/experiments/knapen_aot/AOT/AOT_stimuli/pictures/1902_fw.png	402.02190804481506	
252	283.1376061439514	picture	0		100	250.0	/experiments/knapen_aot/AOT/AOT_stimuli/pictures/2038_fw.png	402.03857016563416	0.8385009765625
252	283.9626522064209	response	0	k		250.0	/experiments/knapen_aot/AOT/AOT_stimuli/pictures/2038_fw.png	402.86361622810364	
253	283.9761071205139	picture	0		96	251.0	/experiments/knapen_aot/AOT/AOT_stimuli/pictures/0986_fw.png	402.87707114219666	0.8115029335021973
253	284.7643141746521	response	0	k		251.0	/experiments/knapen_aot/AOT/AOT_stimuli/pictures/0986_fw.png	403.66527819633484	
254	284.7876100540161	picture	0		98	252.0	/experiments/knapen_aot/AOT/AOT_stimuli/pictures/0570_fw.png	403.68857407569885	0.8253970146179199
254	285.58918714523315	response	0	k		252.0	/experiments/knapen_aot/AOT/AOT_stimuli/pictures/0570_fw.png	404.4901511669159	
255	285.61300706863403	picture	0		111	253.0	/experiments/knapen_aot/AOT/AOT_stimuli/pictures/1227_fw.png	404.5139710903168	0.9330401420593262
255	286.529314994812	response	0	k		253.0	/experiments/knapen_aot/AOT/AOT_stimuli/pictures/1227_fw.png	405.43027901649475	
256	286.54604721069336	picture	0		103	254.0	/experiments/knapen_aot/AOT/AOT_stimuli/pictures/0701_fw.png	405.4470112323761	0.8606128692626953
256	287.39600920677185	response	0	j		254.0	/experiments/knapen_aot/AOT/AOT_stimuli/pictures/0701_fw.png	406.2969732284546	
257	287.40666007995605	picture	0		113	255.0	/experiments/knapen_aot/AOT/AOT_stimuli/pictures/0316_fw.png	406.3076241016388	0.944525957107544
257	288.3376522064209	response	0	k		255.0	/experiments/knapen_aot/AOT/AOT_stimuli/pictures/0316_fw.png	407.23861622810364	
258	288.3511860370636	picture	0		102	256.0	/experiments/knapen_aot/AOT/AOT_stimuli/pictures/0162_fw.png	407.25215005874634	0.8540439605712891
258	289.18927907943726	response	0	j		256.0	/experiments/knapen_aot/AOT/AOT_stimuli/pictures/0162_fw.png	408.09024310112	
259	289.2052299976349	picture	0		152	257.0	/experiments/knapen_aot/AOT/AOT_stimuli/pictures/0940_fw.png	408.1061940193176	1.2708210945129395
259	290.46265411376953	response	0	k		257.0	/experiments/knapen_aot/AOT/AOT_stimuli/pictures/0940_fw.png	409.36361813545227	
260	290.4760510921478	picture	0		85	258.0	/experiments/knapen_aot/AOT/AOT_stimuli/pictures/1210_fw.png	409.37701511383057	0.7152719497680664
260	291.17252111434937	response	0	j		258.0	/experiments/knapen_aot/AOT/AOT_stimuli/pictures/1210_fw.png	410.0734851360321	
261	291.1913230419159	picture	0		106	259.0	/experiments/knapen_aot/AOT/AOT_stimuli/pictures/1921_fw.png	410.09228706359863	0.8819680213928223
261	292.0626471042633	response	0	j		259.0	/experiments/knapen_aot/AOT/AOT_stimuli/pictures/1921_fw.png	410.96361112594604	
262	292.0732910633087	picture	0		107	260.0	/experiments/knapen_aot/AOT/AOT_stimuli/pictures/1493_fw.png	410.97425508499146	0.8976161479949951
262	292.95433807373047	response	0	k		260.0	/experiments/knapen_aot/AOT/AOT_stimuli/pictures/1493_fw.png	411.8553020954132	
263	292.9709072113037	picture	0		117	261.0	/experiments/knapen_aot/AOT/AOT_stimuli/pictures/1807_fw.png	411.87187123298645	0.9833469390869141
263	293.9376790523529	response	0	k		261.0	/experiments/knapen_aot/AOT/AOT_stimuli/pictures/1807_fw.png	412.83864307403564	
264	293.9542541503906	picture	0		113	262.0	/experiments/knapen_aot/AOT/AOT_stimuli/pictures/0223_fw.png	412.85521817207336	0.9499950408935547
264	294.88755917549133	response	0	j		262.0	/experiments/knapen_aot/AOT/AOT_stimuli/pictures/0223_fw.png	413.7885231971741	
265	294.9042491912842	picture	0		120	263.0	/experiments/knapen_aot/AOT/AOT_stimuli/pictures/0664_fw.png	413.8052132129669	1.0083789825439453
265	295.89587903022766	response	0	j		263.0	/experiments/knapen_aot/AOT/AOT_stimuli/pictures/0664_fw.png	414.7968430519104	
266	295.9126281738281	picture	0		103	264.0	/experiments/knapen_aot/AOT/AOT_stimuli/pictures/1881_fw.png	414.81359219551086	0.8668258190155029
266	296.76263213157654	response	0	k		264.0	/experiments/knapen_aot/AOT/AOT_stimuli/pictures/1881_fw.png	415.6635961532593	
267	296.7794539928436	picture	0		272	265.0	/experiments/knapen_aot/AOT/AOT_stimuli/pictures/1929_fw.png	415.68041801452637	2.2747859954833984
267	299.03763914108276	response	0	k		265.0	/experiments/knapen_aot/AOT/AOT_stimuli/pictures/1929_fw.png	417.9386031627655	
268	299.054239988327	picture	0		191	266.0	/experiments/knapen_aot/AOT/AOT_stimuli/pictures/1435_fw.png	417.95520401000977	1.5999770164489746
268	300.6376361846924	response	0	k		266.0	/experiments/knapen_aot/AOT/AOT_stimuli/pictures/1435_fw.png	419.5386002063751	
269	300.654217004776	picture	0		155	267.0	/experiments/knapen_aot/AOT/AOT_stimuli/pictures/1025_fw.png	419.55518102645874	1.2999820709228516
269	301.93765902519226	response	0	k		267.0	/experiments/knapen_aot/AOT/AOT_stimuli/pictures/1025_fw.png	420.838623046875	
270	301.95419907569885	picture	0		136	268.0	/experiments/knapen_aot/AOT/AOT_stimuli/pictures/0199_fw.png	420.8551630973816	1.1417131423950195
270	303.0792181491852	response	0	k		268.0	/experiments/knapen_aot/AOT/AOT_stimuli/pictures/0199_fw.png	421.9801821708679	
271	303.0959122180939	picture	0		119	269.0	/experiments/knapen_aot/AOT/AOT_stimuli/pictures/1938_fw.png	421.9968762397766	0.9999909400939941
271	304.07921409606934	response	0	k		269.0	/experiments/knapen_aot/AOT/AOT_stimuli/pictures/1938_fw.png	422.9801781177521	
272	304.09590315818787	picture	0		141	270.0	/experiments/knapen_aot/AOT/AOT_stimuli/pictures/0981_fw.png	422.9968671798706	1.1833288669586182
272	305.2625222206116	response	0	j		270.0	/experiments/knapen_aot/AOT/AOT_stimuli/pictures/0981_fw.png	424.1634862422943	
273	305.2792320251465	picture	0		138	271.0	/experiments/knapen_aot/AOT/AOT_stimuli/pictures/0336_fw.png	424.1801960468292	1.1582920551300049
273	306.42094016075134	response	0	k		271.0	/experiments/knapen_aot/AOT/AOT_stimuli/pictures/0336_fw.png	425.3219041824341	
274	306.4375240802765	picture	0		114	272.0	/experiments/knapen_aot/AOT/AOT_stimuli/pictures/1361_fw.png	425.33848810195923	0.9589569568634033
274	307.37238907814026	response	0	k		272.0	/experiments/knapen_aot/AOT/AOT_stimuli/pictures/1361_fw.png	426.273353099823	
275	307.3964810371399	picture	0		104	273.0	/experiments/knapen_aot/AOT/AOT_stimuli/pictures/0904_fw.png	426.29744505882263	0.8744111061096191
275	308.2542381286621	response	0	k		273.0	/experiments/knapen_aot/AOT/AOT_stimuli/pictures/0904_fw.png	427.15520215034485	
276	308.2708921432495	picture	0		118	274.0	/experiments/knapen_aot/AOT/AOT_stimuli/pictures/1325_fw.png	427.17185616493225	0.992095947265625
276	309.2459180355072	response	0	k		274.0	/experiments/knapen_aot/AOT/AOT_stimuli/pictures/1325_fw.png	428.14688205718994	
277	309.26298809051514	picture	0		114	275.0	/experiments/knapen_aot/AOT/AOT_stimuli/pictures/0472_fw.png	428.1639521121979	0.9579761028289795
277	310.1974301338196	response	0	k		275.0	/experiments/knapen_aot/AOT/AOT_stimuli/pictures/0472_fw.png	429.0983941555023	
278	310.2209641933441	picture	0		111	276.0	/experiments/knapen_aot/AOT/AOT_stimuli/pictures/1577_fw.png	429.12192821502686	0.933175802230835
278	311.13755106925964	response	0	k		276.0	/experiments/knapen_aot/AOT/AOT_stimuli/pictures/1577_fw.png	430.0385150909424	
279	311.15413999557495	picture	0		82	277.0	/experiments/knapen_aot/AOT/AOT_stimuli/pictures/1659_fw.png	430.0551040172577	0.6916751861572266
279	311.8292350769043	response	0	j		277.0	/experiments/knapen_aot/AOT/AOT_stimuli/pictures/1659_fw.png	430.73019909858704	
280	311.8458151817322	picture	0		103	278.0	/experiments/knapen_aot/AOT/AOT_stimuli/pictures/1137_fw.png	430.7467792034149	0.8667800426483154
280	312.69590306282043	response	0	k		278.0	/experiments/knapen_aot/AOT/AOT_stimuli/pictures/1137_fw.png	431.5968670845032	
281	312.7125952243805	picture	0		108	279.0	/experiments/knapen_aot/AOT/AOT_stimuli/pictures/1674_fw.png	431.61355924606323	0.9085288047790527
281	313.59742522239685	response	0	k		279.0	/experiments/knapen_aot/AOT/AOT_stimuli/pictures/1674_fw.png	432.4983892440796	
282	313.62112402915955	picture	0		95	280.0	/experiments/knapen_aot/AOT/AOT_stimuli/pictures/0518_fw.png	432.5220880508423	0.7999131679534912
282	314.40426111221313	response	0	j		280.0	/experiments/knapen_aot/AOT/AOT_stimuli/pictures/0518_fw.png	433.3052251338959	
283	314.42103719711304	picture	0		114	281.0	/experiments/knapen_aot/AOT/AOT_stimuli/pictures/0366_fw.png	433.3220012187958	0.958500862121582
283	315.3625190258026	response	0	k		281.0	/experiments/knapen_aot/AOT/AOT_stimuli/pictures/0366_fw.png	434.26348304748535	
284	315.3795380592346	picture	0		98	282.0	/experiments/knapen_aot/AOT/AOT_stimuli/pictures/0271_fw.png	434.28050208091736	0.8185131549835205
284	316.1808080673218	response	0	k		282.0	/experiments/knapen_aot/AOT/AOT_stimuli/pictures/0271_fw.png	435.0817720890045	
285	316.19805121421814	picture	0		89	283.0	/experiments/knapen_aot/AOT/AOT_stimuli/pictures/0757_fw.png	435.0990152359009	0.7482099533081055
285	316.92921018600464	response	0	j		283.0	/experiments/knapen_aot/AOT/AOT_stimuli/pictures/0757_fw.png	435.8301742076874	
286	316.94626116752625	picture	0		100	284.0	/experiments/knapen_aot/AOT/AOT_stimuli/pictures/0578_fw.png	435.847225189209	0.8411870002746582
286	317.77091002464294	response	0	j		284.0	/experiments/knapen_aot/AOT/AOT_stimuli/pictures/0578_fw.png	436.6718740463257	
287	317.7874481678009	picture	0		163	285.0	/experiments/knapen_aot/AOT/AOT_stimuli/pictures/0122_fw.png	436.68841218948364	1.366715908050537
287	319.1374580860138	response	0	j		285.0	/experiments/knapen_aot/AOT/AOT_stimuli/pictures/0122_fw.png	438.03842210769653	
288	319.15416407585144	picture	0		102	286.0	/experiments/knapen_aot/AOT/AOT_stimuli/pictures/1470_fw.png	438.0551280975342	0.8584139347076416
288	319.9890570640564	response	0	k		286.0	/experiments/knapen_aot/AOT/AOT_stimuli/pictures/1470_fw.png	438.89002108573914	
289	320.0125780105591	picture	0		132	287.0	/experiments/knapen_aot/AOT/AOT_stimuli/pictures/0455_fw.png	438.9135420322418	1.108220100402832
289	321.10418915748596	response	0	j		287.0	/experiments/knapen_aot/AOT/AOT_stimuli/pictures/0455_fw.png	440.0051531791687	
290	321.1207981109619	picture	0		128	288.0	/experiments/knapen_aot/AOT/AOT_stimuli/pictures/0597_fw.png	440.02176213264465	1.070223093032837
290	322.1724331378937	response	0	j		288.0	/experiments/knapen_aot/AOT/AOT_stimuli/pictures/0597_fw.png	441.0733971595764	
291	322.19102120399475	picture	0		105	289.0	/experiments/knapen_aot/AOT/AOT_stimuli/pictures/1139_fw.png	441.0919852256775	0.8801629543304443
291	323.05421018600464	response	0	k		289.0	/experiments/knapen_aot/AOT/AOT_stimuli/pictures/1139_fw.png	441.9551742076874	
292	323.0711841583252	picture	0		146	290.0	/experiments/knapen_aot/AOT/AOT_stimuli/pictures/0639_fw.png	441.97214818000793	1.2245969772338867
292	324.27921414375305	response	0	k		290.0	/experiments/knapen_aot/AOT/AOT_stimuli/pictures/0639_fw.png	443.1801781654358	
293	324.2957811355591	picture	0		150	291.0	/experiments/knapen_aot/AOT/AOT_stimuli/pictures/0141_fw.png	443.1967451572418	1.2588820457458496
293	325.5383632183075	response	0	j		291.0	/experiments/knapen_aot/AOT/AOT_stimuli/pictures/0141_fw.png	444.43932723999023	
294	325.55466318130493	picture	0		100	292.0	/experiments/knapen_aot/AOT/AOT_stimuli/pictures/2023_fw.png	444.45562720298767	0.8377540111541748
294	326.37321519851685	response	0	k		292.0	/experiments/knapen_aot/AOT/AOT_stimuli/pictures/2023_fw.png	445.2741792201996	
295	326.3924171924591	picture	0		94	293.0	/experiments/knapen_aot/AOT/AOT_stimuli/pictures/0517_fw.png	445.29338121414185	0.7953989505767822
295	327.16480898857117	response	0	j		293.0	/experiments/knapen_aot/AOT/AOT_stimuli/pictures/0517_fw.png	446.0657730102539	
296	327.1878161430359	picture	0		110	294.0	/experiments/knapen_aot/AOT/AOT_stimuli/pictures/1247_fw.png	446.0887801647186	0.924659013748169
296	328.09574604034424	response	0	k		294.0	/experiments/knapen_aot/AOT/AOT_stimuli/pictures/1247_fw.png	446.996710062027	
297	328.11247515678406	picture	0		92	295.0	/experiments/knapen_aot/AOT/AOT_stimuli/pictures/1141_fw.png	447.0134391784668	0.774940013885498
297	328.87074613571167	response	0	k		295.0	/experiments/knapen_aot/AOT/AOT_stimuli/pictures/1141_fw.png	447.7717101573944	
298	328.88741517066956	picture	0		83	296.0	/experiments/knapen_aot/AOT/AOT_stimuli/pictures/0878_fw.png	447.7883791923523	0.7001779079437256
298	329.5708100795746	response	0	j		296.0	/experiments/knapen_aot/AOT/AOT_stimuli/pictures/0878_fw.png	448.4717741012573	
299	329.5875930786133	picture	0		159	297.0	/experiments/knapen_aot/AOT/AOT_stimuli/pictures/1706_fw.png	448.488557100296	1.3331940174102783
299	330.9041471481323	response	0	j		297.0	/experiments/knapen_aot/AOT/AOT_stimuli/pictures/1706_fw.png	449.80511116981506	
300	330.92078709602356	picture	0		93	298.0	/experiments/knapen_aot/AOT/AOT_stimuli/pictures/1367_fw.png	449.8217511177063	0.7837619781494141
300	331.6874420642853	response	0	j		298.0	/experiments/knapen_aot/AOT/AOT_stimuli/pictures/1367_fw.png	450.588406085968	
301	331.704549074173	picture	0		136	299.0	/experiments/knapen_aot/AOT/AOT_stimuli/pictures/1557_fw.png	450.6055130958557	1.1412200927734375
301	332.83003306388855	response	0	k		299.0	/experiments/knapen_aot/AOT/AOT_stimuli/pictures/1557_fw.png	451.7309970855713	
302	332.8457691669464	picture	0		85	300.0	/experiments/knapen_aot/AOT/AOT_stimuli/pictures/0228_fw.png	451.74673318862915	0.7166318893432617
302	333.5457880496979	response	0	j		300.0	/experiments/knapen_aot/AOT/AOT_stimuli/pictures/0228_fw.png	452.4467520713806	
303	333.5624010562897	picture	0		96	301.0	/experiments/knapen_aot/AOT/AOT_stimuli/pictures/0212_fw.png	452.4633650779724	0.8083319664001465
303	334.3541100025177	response	0	j		301.0	/experiments/knapen_aot/AOT/AOT_stimuli/pictures/0212_fw.png	453.25507402420044	
304	334.3707330226898	picture	0		160	302.0	/experiments/knapen_aot/AOT/AOT_stimuli/pictures/1336_fw.png	453.27169704437256	1.3416810035705566
304	335.6957731246948	response	0	k		302.0	/experiments/knapen_aot/AOT/AOT_stimuli/pictures/1336_fw.png	454.59673714637756	
305	335.7124140262604	picture	0		98	303.0	/experiments/knapen_aot/AOT/AOT_stimuli/pictures/0863_fw.png	454.6133780479431	0.8249771595001221
305	336.5208041667938	response	0	j		303.0	/experiments/knapen_aot/AOT/AOT_stimuli/pictures/0863_fw.png	455.42176818847656	
306	336.5373911857605	picture	0		120	304.0	/experiments/knapen_aot/AOT/AOT_stimuli/pictures/0232_fw.png	455.43835520744324	1.008340835571289
306	337.5291211605072	response	0	k		304.0	/experiments/knapen_aot/AOT/AOT_stimuli/pictures/0232_fw.png	456.43008518218994	
307	337.5457320213318	picture	0		133	305.0	/experiments/knapen_aot/AOT/AOT_stimuli/pictures/0725_fw.png	456.4466960430145	1.1167211532592773
307	338.64581513404846	response	0	k		305.0	/experiments/knapen_aot/AOT/AOT_stimuli/pictures/0725_fw.png	457.5467791557312	
308	338.66245317459106	picture	0		338	306.0	/experiments/knapen_aot/AOT/AOT_stimuli/pictures/0240_fw.png	457.5634171962738	2.8249309062957764
308	341.4707741737366	response	0	k		306.0	/experiments/knapen_aot/AOT/AOT_stimuli/pictures/0240_fw.png	460.3717381954193	
309	341.48738408088684	picture	0		87	307.0	/experiments/knapen_aot/AOT/AOT_stimuli/pictures/1941_fw.png	460.3883481025696	0.7337539196014404
309	342.204843044281	response	0	k		307.0	/experiments/knapen_aot/AOT/AOT_stimuli/pictures/1941_fw.png	461.10580706596375	
310	342.2211380004883	picture	0		86	308.0	/experiments/knapen_aot/AOT/AOT_stimuli/pictures/0513_fw.png	461.122102022171	0.7245421409606934
310	342.92906403541565	response	0	j		308.0	/experiments/knapen_aot/AOT/AOT_stimuli/pictures/0513_fw.png	461.8300280570984	
311	342.945680141449	picture	0		92	309.0	/experiments/knapen_aot/AOT/AOT_stimuli/pictures/0263_fw.png	461.8466441631317	0.7753739356994629
311	343.7047851085663	response	0	j		309.0	/experiments/knapen_aot/AOT/AOT_stimuli/pictures/0263_fw.png	462.605749130249	
312	343.72105407714844	picture	0		91	310.0	/experiments/knapen_aot/AOT/AOT_stimuli/pictures/0120_fw.png	462.6220180988312	0.7614150047302246
312	344.4707372188568	response	0	j		310.0	/experiments/knapen_aot/AOT/AOT_stimuli/pictures/0120_fw.png	463.37170124053955	
313	344.48246908187866	picture	0		117	311.0	/experiments/knapen_aot/AOT/AOT_stimuli/pictures/2021_fw.png	463.3834331035614	0.9802761077880859
313	345.4457371234894	response	0	j		311.0	/experiments/knapen_aot/AOT/AOT_stimuli/pictures/2021_fw.png	464.3467011451721	
314	345.46274518966675	picture	0		245	312.0	/experiments/knapen_aot/AOT/AOT_stimuli/pictures/1819_fw.png	464.3637092113495	2.0496649742126465
314	347.49645709991455	response	0	k		312.0	/experiments/knapen_aot/AOT/AOT_stimuli/pictures/1819_fw.png	466.3974211215973	
315	347.5124101638794	picture	0		118	313.0	/experiments/knapen_aot/AOT/AOT_stimuli/pictures/0678_fw.png	466.41337418556213	0.9839398860931396
315	348.4874050617218	response	0	k		313.0	/experiments/knapen_aot/AOT/AOT_stimuli/pictures/0678_fw.png	467.38836908340454	
316	348.49635004997253	picture	0		210	314.0	/experiments/knapen_aot/AOT/AOT_stimuli/pictures/0129_fw.png	467.3973140716553	1.7499909400939941
316	350.2374460697174	response	0	k		314.0	/experiments/knapen_aot/AOT/AOT_stimuli/pictures/0129_fw.png	469.13841009140015	
317	350.2463409900665	picture	0		189	315.0	/experiments/knapen_aot/AOT/AOT_stimuli/pictures/1167_fw.png	469.14730501174927	1.582766056060791
317	351.8056561946869	response	0	k		315.0	/experiments/knapen_aot/AOT/AOT_stimuli/pictures/1167_fw.png	470.70662021636963	
318	351.8291070461273	picture	0		131	316.0	/experiments/knapen_aot/AOT/AOT_stimuli/pictures/1811_fw.png	470.73007106781006	1.099912166595459
318	352.9130971431732	response	0	k		316.0	/experiments/knapen_aot/AOT/AOT_stimuli/pictures/1811_fw.png	471.81406116485596	
319	352.9290192127228	picture	0		130	317.0	/experiments/knapen_aot/AOT/AOT_stimuli/pictures/1223_fw.png	471.8299832344055	1.0916199684143066
319	353.9980080127716	response	0	k		317.0	/experiments/knapen_aot/AOT/AOT_stimuli/pictures/1223_fw.png	472.89897203445435	
320	354.0206391811371	picture	0		79	318.0	/experiments/knapen_aot/AOT/AOT_stimuli/pictures/1047_fw.png	472.9216032028198	0.6668689250946045
320	354.67072010040283	response	0	j		318.0	/experiments/knapen_aot/AOT/AOT_stimuli/pictures/1047_fw.png	473.57168412208557	
321	354.6875081062317	picture	0		124	319.0	/experiments/knapen_aot/AOT/AOT_stimuli/pictures/2044_fw.png	473.58847212791443	1.0414910316467285
321	355.7124140262604	response	0	j		319.0	/experiments/knapen_aot/AOT/AOT_stimuli/pictures/2044_fw.png	474.6133780479431	
322	355.7289991378784	picture	0		106	320.0	/experiments/knapen_aot/AOT/AOT_stimuli/pictures/0822_fw.png	474.62996315956116	0.8916740417480469
322	356.59722900390625	response	0	j		320.0	/experiments/knapen_aot/AOT/AOT_stimuli/pictures/0822_fw.png	475.498193025589	
323	356.62067317962646	picture	0		103	321.0	/experiments/knapen_aot/AOT/AOT_stimuli/pictures/0877_fw.png	475.5216372013092	0.8616960048675537
323	357.47071719169617	response	0	j		321.0	/experiments/knapen_aot/AOT/AOT_stimuli/pictures/0877_fw.png	476.3716812133789	
324	357.482369184494	picture	0		118	322.0	/experiments/knapen_aot/AOT/AOT_stimuli/pictures/0968_fw.png	476.38333320617676	0.9965939521789551
324	358.45469212532043	response	0	k		322.0	/experiments/knapen_aot/AOT/AOT_stimuli/pictures/0968_fw.png	477.3556561470032	
325	358.478963136673	picture	0		111	323.0	/experiments/knapen_aot/AOT/AOT_stimuli/pictures/0575_fw.png	477.3799271583557	1.2499730587005615
325	359.3889000415802	response	0	k		323.0	/experiments/knapen_aot/AOT/AOT_stimuli/pictures/0575_fw.png	478.28986406326294	
326	359.72893619537354	picture	0		141	324.0	/experiments/knapen_aot/AOT/AOT_stimuli/pictures/0195_fw.png	478.6299002170563	1.183349847793579
326	360.8957130908966	response	0	j		324.0	/experiments/knapen_aot/AOT/AOT_stimuli/pictures/0195_fw.png	479.79667711257935	
327	360.9122860431671	picture	0		91	325.0	/experiments/knapen_aot/AOT/AOT_stimuli/pictures/1254_fw.png	479.81325006484985	0.7715020179748535
327	361.6630229949951	response	0	j		325.0	/experiments/knapen_aot/AOT/AOT_stimuli/pictures/1254_fw.png	480.56398701667786	
328	361.68378806114197	picture	0		126	326.0	/experiments/knapen_aot/AOT/AOT_stimuli/pictures/0410_fw.png	480.5847520828247	1.0626919269561768
328	362.72902607917786	response	0	k		326.0	/experiments/knapen_aot/AOT/AOT_stimuli/pictures/0410_fw.png	481.6299901008606	
329	362.74647998809814	picture	0		88	327.0	/experiments/knapen_aot/AOT/AOT_stimuli/pictures/1085_fw.png	481.6474440097809	0.7428610324859619
329	363.4707431793213	response	0	j		327.0	/experiments/knapen_aot/AOT/AOT_stimuli/pictures/1085_fw.png	482.371707201004	
330	363.4893410205841	picture	0		101	328.0	/experiments/knapen_aot/AOT/AOT_stimuli/pictures/2024_fw.png	482.39030504226685	0.8480021953582764
330	364.32071900367737	response	0	j		328.0	/experiments/knapen_aot/AOT/AOT_stimuli/pictures/2024_fw.png	483.2216830253601	
331	364.3373432159424	picture	0		99	329.0	/experiments/knapen_aot/AOT/AOT_stimuli/pictures/0185_fw.png	483.2383072376251	0.8332748413085938
331	365.1539912223816	response	0	j		329.0	/experiments/knapen_aot/AOT/AOT_stimuli/pictures/0185_fw.png	484.05495524406433	
332	365.170618057251	picture	0		120	330.0	/experiments/knapen_aot/AOT/AOT_stimuli/pictures/1727_fw.png	484.0715820789337	1.008418083190918
332	366.16306710243225	response	0	k		330.0	/experiments/knapen_aot/AOT/AOT_stimuli/pictures/1727_fw.png	485.064031124115	
333	366.1790361404419	picture	0		104	331.0	/experiments/knapen_aot/AOT/AOT_stimuli/pictures/0798_fw.png	485.08000016212463	0.8749110698699951
333	367.03794503211975	response	0	j		331.0	/experiments/knapen_aot/AOT/AOT_stimuli/pictures/0798_fw.png	485.9389090538025	
334	367.0539472103119	picture	0		104	332.0	/experiments/knapen_aot/AOT/AOT_stimuli/pictures/0109_fw.png	485.95491123199463	0.8751559257507324
334	367.9129421710968	response	0	k		332.0	/experiments/knapen_aot/AOT/AOT_stimuli/pictures/0109_fw.png	486.81390619277954	
335	367.9291031360626	picture	0		88	333.0	/experiments/knapen_aot/AOT/AOT_stimuli/pictures/1043_fw.png	486.83006715774536	0.7415289878845215
335	368.65401005744934	response	0	j		333.0	/experiments/knapen_aot/AOT/AOT_stimuli/pictures/1043_fw.png	487.5549740791321	
336	368.67063212394714	picture	0		120	334.0	/experiments/knapen_aot/AOT/AOT_stimuli/pictures/1910_fw.png	487.5715961456299	1.00844407081604
336	369.66293501853943	response	0	k		334.0	/experiments/knapen_aot/AOT/AOT_stimuli/pictures/1910_fw.png	488.56389904022217	
337	369.6790761947632	picture	0		148	335.0	/experiments/knapen_aot/AOT/AOT_stimuli/pictures/0496_fw.png	488.5800402164459	1.2418549060821533
337	370.90397906303406	response	0	k		335.0	/experiments/knapen_aot/AOT/AOT_stimuli/pictures/0496_fw.png	489.8049430847168	
338	370.92093110084534	picture	0		106	336.0	/experiments/knapen_aot/AOT/AOT_stimuli/pictures/1485_fw.png	489.8218951225281	0.8916609287261963
338	371.7894220352173	response	0	k		336.0	/experiments/knapen_aot/AOT/AOT_stimuli/pictures/1485_fw.png	490.6903860569	
339	371.81259202957153	picture	0		98	337.0	/experiments/knapen_aot/AOT/AOT_stimuli/pictures/1979_fw.png	490.7135560512543	0.8246650695800781
339	372.6212000846863	response	0	k		337.0	/experiments/knapen_aot/AOT/AOT_stimuli/pictures/1979_fw.png	491.522164106369	
340	372.6372570991516	picture	0		152	338.0	/experiments/knapen_aot/AOT/AOT_stimuli/pictures/0516_fw.png	491.53822112083435	1.2756431102752686
340	373.8956661224365	response	0	k		338.0	/experiments/knapen_aot/AOT/AOT_stimuli/pictures/0516_fw.png	492.79663014411926	
341	373.9129002094269	picture	0		135	339.0	/experiments/knapen_aot/AOT/AOT_stimuli/pictures/0309_fw.png	492.8138642311096	1.1327409744262695
341	375.02219414711	response	0	j		339.0	/experiments/knapen_aot/AOT/AOT_stimuli/pictures/0309_fw.png	493.9231581687927	
342	375.04564118385315	picture	0		146	340.0	/experiments/knapen_aot/AOT/AOT_stimuli/pictures/1781_fw.png	493.9466052055359	1.2249269485473633
342	376.2539451122284	response	0	j		340.0	/experiments/knapen_aot/AOT/AOT_stimuli/pictures/1781_fw.png	495.15490913391113	
343	376.2705681324005	picture	0		87	341.0	/experiments/knapen_aot/AOT/AOT_stimuli/pictures/1430_fw.png	495.17153215408325	0.7334110736846924
343	376.98730301856995	response	0	k		341.0	/experiments/knapen_aot/AOT/AOT_stimuli/pictures/1430_fw.png	495.8882670402527	
344	377.0039792060852	picture	0		93	342.0	/experiments/knapen_aot/AOT/AOT_stimuli/pictures/1776_fw.png	495.90494322776794	0.7839889526367188
344	377.7706050872803	response	0	k		342.0	/experiments/knapen_aot/AOT/AOT_stimuli/pictures/1776_fw.png	496.671569108963	
345	377.7879681587219	picture	0		104	343.0	/experiments/knapen_aot/AOT/AOT_stimuli/pictures/1628_fw.png	496.68893218040466	0.8751389980316162
345	378.64562702178955	response	0	k		343.0	/experiments/knapen_aot/AOT/AOT_stimuli/pictures/1628_fw.png	497.5465910434723	
346	378.66310715675354	picture	0		142	344.0	/experiments/knapen_aot/AOT/AOT_stimuli/pictures/1345_fw.png	497.5640711784363	1.1911699771881104
346	379.8372449874878	response	0	k		344.0	/experiments/knapen_aot/AOT/AOT_stimuli/pictures/1345_fw.png	498.73820900917053	
347	379.85427713394165	picture	0		102	345.0	/experiments/knapen_aot/AOT/AOT_stimuli/pictures/0391_fw.png	498.7552411556244	0.8579659461975098
347	380.69556307792664	response	0	k		345.0	/experiments/knapen_aot/AOT/AOT_stimuli/pictures/0391_fw.png	499.5965270996094	
348	380.71224308013916	picture	0		115	346.0	/experiments/knapen_aot/AOT/AOT_stimuli/pictures/0763_fw.png	499.6132071018219	0.9666681289672852
348	381.66305208206177	response	0	j		346.0	/experiments/knapen_aot/AOT/AOT_stimuli/pictures/0763_fw.png	500.5640161037445	
349	381.67891120910645	picture	0		227	347.0	/experiments/knapen_aot/AOT/AOT_stimuli/pictures/1000_fw.png	500.5798752307892	1.900527000427246
349	383.56232810020447	response	0	k		347.0	/experiments/knapen_aot/AOT/AOT_stimuli/pictures/1000_fw.png	502.4632921218872	
350	383.5794382095337	picture	0		106	348.0	/experiments/knapen_aot/AOT/AOT_stimuli/pictures/0674_fw.png	502.48040223121643	0.8914380073547363
350	384.45444202423096	response	0	j		348.0	/experiments/knapen_aot/AOT/AOT_stimuli/pictures/0674_fw.png	503.3554060459137	
351	384.4708762168884	picture	0		111	349.0	/experiments/knapen_aot/AOT/AOT_stimuli/pictures/0824_fw.png	503.37184023857117	0.9330058097839355
351	385.3872060775757	response	0	j		349.0	/experiments/knapen_aot/AOT/AOT_stimuli/pictures/0824_fw.png	504.2881700992584	
352	385.40388202667236	picture	0		92	350.0	/experiments/knapen_aot/AOT/AOT_stimuli/pictures/1003_fw.png	504.3048460483551	0.7752370834350586
352	386.1628441810608	response	0	k		350.0	/experiments/knapen_aot/AOT/AOT_stimuli/pictures/1003_fw.png	505.06380820274353	
353	386.1791191101074	picture	0		106	351.0	/experiments/knapen_aot/AOT/AOT_stimuli/pictures/1221_fw.png	505.08008313179016	0.8917288780212402
353	387.05385518074036	response	0	k		351.0	/experiments/knapen_aot/AOT/AOT_stimuli/pictures/1221_fw.png	505.9548192024231	
354	387.07084798812866	picture	0		113	352.0	/experiments/knapen_aot/AOT/AOT_stimuli/pictures/1756_fw.png	505.9718120098114	0.9497630596160889
354	387.9976260662079	response	0	k		352.0	/experiments/knapen_aot/AOT/AOT_stimuli/pictures/1756_fw.png	506.8985900878906	
355	388.02061104774475	picture	0		134	353.0	/experiments/knapen_aot/AOT/AOT_stimuli/pictures/1295_fw.png	506.9215750694275	1.1253621578216553
355	389.12894916534424	response	0	k		353.0	/experiments/knapen_aot/AOT/AOT_stimuli/pictures/1295_fw.png	508.029913187027	
356	389.1459732055664	picture	0		122	354.0	/experiments/knapen_aot/AOT/AOT_stimuli/pictures/0724_fw.png	508.04693722724915	1.0245258808135986
356	390.1539001464844	response	0	k		354.0	/experiments/knapen_aot/AOT/AOT_stimuli/pictures/0724_fw.png	509.0548641681671	
357	390.17049908638	picture	0		122	355.0	/experiments/knapen_aot/AOT/AOT_stimuli/pictures/0935_fw.png	509.07146310806274	1.0250780582427979
357	391.1788852214813	response	0	k		355.0	/experiments/knapen_aot/AOT/AOT_stimuli/pictures/0935_fw.png	510.07984924316406	
358	391.1955771446228	picture	0		498	356.0	/experiments/knapen_aot/AOT/AOT_stimuli/pictures/1455_fw.png	510.09654116630554	4.158504962921143
358	395.33718609809875	response	0	k		356.0	/experiments/knapen_aot/AOT/AOT_stimuli/pictures/1455_fw.png	514.2381501197815	
359	395.35408210754395	picture	0		102	357.0	/experiments/knapen_aot/AOT/AOT_stimuli/pictures/1933_fw.png	514.2550461292267	0.8580749034881592
359	396.19562220573425	response	0	k		357.0	/experiments/knapen_aot/AOT/AOT_stimuli/pictures/1933_fw.png	515.096586227417	
360	396.2121570110321	picture	0		91	358.0	/experiments/knapen_aot/AOT/AOT_stimuli/pictures/1562_fw.png	515.1131210327148	0.767038106918335
360	396.9622571468353	response	0	k		358.0	/experiments/knapen_aot/AOT/AOT_stimuli/pictures/1562_fw.png	515.8632211685181	
361	396.97919511795044	picture	0		97	359.0	/experiments/knapen_aot/AOT/AOT_stimuli/pictures/1676_fw.png	515.8801591396332	0.8163409233093262
361	397.77887320518494	response	0	k		359.0	/experiments/knapen_aot/AOT/AOT_stimuli/pictures/1676_fw.png	516.6798372268677	
362	397.79553604125977	stim	0		182			516.6965000629425	1.5197951793670654
362	399.3038260936737	response	0	space				518.2047901153564	
