trial_nr	onset	event_type	phase	response	nr_frames	picture_index	picture_file	onset_abs	duration
0	0.14349627494812012	stim	0		1119			62.94122505187988	9.333303451538086
0	9.458848476409912	response	0	space				72.25657725334167	
2	9.476799726486206	picture	0		215	0.0	/experiments/Knapen_AOT/AOT_stimuli/pictures/0712_fw.png	72.27452850341797	1.8024113178253174
2	11.264194250106812	response	0	j		0.0	/experiments/Knapen_AOT/AOT_stimuli/pictures/0712_fw.png	74.06192302703857	
3	11.279211044311523	picture	0		186	1.0	/experiments/Knapen_AOT/AOT_stimuli/pictures/0536_fw.png	74.07693982124329	1.5656578540802002
3	12.83350133895874	response	0	j		1.0	/experiments/Knapen_AOT/AOT_stimuli/pictures/0536_fw.png	75.6312301158905	
4	12.844868898391724	picture	0		119	2.0	/experiments/Knapen_AOT/AOT_stimuli/pictures/1740_fw.png	75.64259767532349	0.9931559562683105
4	13.825186491012573	response	0	j		2.0	/experiments/Knapen_AOT/AOT_stimuli/pictures/1740_fw.png	76.62291526794434	
5	13.838024854660034	picture	0		115	3.0	/experiments/Knapen_AOT/AOT_stimuli/pictures/1351_fw.png	76.6357536315918	0.9703369140625
5	14.79185938835144	response	0	j		3.0	/experiments/Knapen_AOT/AOT_stimuli/pictures/1351_fw.png	77.5895881652832	
6	14.808361768722534	picture	0		160	4.0	/experiments/Knapen_AOT/AOT_stimuli/pictures/2072_fw.png	77.6060905456543	1.3351457118988037
6	16.13361144065857	response	0	j		4.0	/experiments/Knapen_AOT/AOT_stimuli/pictures/2072_fw.png	78.93134021759033	
7	16.143507480621338	picture	0		91	5.0	/experiments/Knapen_AOT/AOT_stimuli/pictures/1218_fw.png	78.9412362575531	0.7570371627807617
7	16.891896724700928	response	0	j		5.0	/experiments/Knapen_AOT/AOT_stimuli/pictures/1218_fw.png	79.68962550163269	
8	16.9005446434021	picture	0		132	6.0	/experiments/Knapen_AOT/AOT_stimuli/pictures/2089_fw.png	79.69827342033386	1.1041748523712158
8	17.99191641807556	response	0	j		6.0	/experiments/Knapen_AOT/AOT_stimuli/pictures/2089_fw.png	80.78964519500732	
9	18.004719495773315	picture	0		107	7.0	/experiments/Knapen_AOT/AOT_stimuli/pictures/0808_fw.png	80.80244827270508	0.9036860466003418
9	18.892017126083374	response	0	j		7.0	/experiments/Knapen_AOT/AOT_stimuli/pictures/0808_fw.png	81.68974590301514	
10	18.908405542373657	picture	0		133	8.0	/experiments/Knapen_AOT/AOT_stimuli/pictures/0054_fw.png	81.70613431930542	1.1166887283325195
10	20.00858473777771	response	0	j		8.0	/experiments/Knapen_AOT/AOT_stimuli/pictures/0054_fw.png	82.80631351470947	
11	20.025094270706177	picture	0		93	9.0	/experiments/Knapen_AOT/AOT_stimuli/pictures/1668_fw.png	82.82282304763794	0.783329963684082
11	20.791943550109863	response	0	j		9.0	/experiments/Knapen_AOT/AOT_stimuli/pictures/1668_fw.png	83.58967232704163	
12	20.80842423439026	picture	0		244	10.0	/experiments/Knapen_AOT/AOT_stimuli/pictures/0186_fw.png	83.60615301132202	2.036519765853882
12	22.833656787872314	response	0	k		10.0	/experiments/Knapen_AOT/AOT_stimuli/pictures/0186_fw.png	85.63138556480408	
13	22.84494400024414	picture	0		154	11.0	/experiments/Knapen_AOT/AOT_stimuli/pictures/1356_fw.png	85.6426727771759	1.284858226776123
13	24.109451055526733	response	0	k		11.0	/experiments/Knapen_AOT/AOT_stimuli/pictures/1356_fw.png	86.9071798324585	
14	24.129802227020264	picture	0		124	12.0	/experiments/Knapen_AOT/AOT_stimuli/pictures/0506_fw.png	86.92753100395203	1.0346958637237549
14	25.1503689289093	response	0	j		12.0	/experiments/Knapen_AOT/AOT_stimuli/pictures/0506_fw.png	87.94809770584106	
15	25.16449809074402	picture	0		156	13.0	/experiments/Knapen_AOT/AOT_stimuli/pictures/2130_fw.png	87.96222686767578	1.3055670261383057
15	26.458762168884277	response	0	k		13.0	/experiments/Knapen_AOT/AOT_stimuli/pictures/2130_fw.png	89.25649094581604	
16	26.470065116882324	picture	0		155	14.0	/experiments/Knapen_AOT/AOT_stimuli/pictures/2057_fw.png	89.26779389381409	1.2916829586029053
16	27.7503879070282	response	0	j		14.0	/experiments/Knapen_AOT/AOT_stimuli/pictures/2057_fw.png	90.54811668395996	
17	27.76174807548523	picture	0		94	15.0	/experiments/Knapen_AOT/AOT_stimuli/pictures/0566_fw.png	90.55947685241699	0.7847723960876465
17	28.533705949783325	response	0	j		15.0	/experiments/Knapen_AOT/AOT_stimuli/pictures/0566_fw.png	91.33143472671509	
18	28.546520471572876	picture	0		194	16.0	/experiments/Knapen_AOT/AOT_stimuli/pictures/0342_fw.png	91.34424924850464	1.6179721355438232
18	30.150587558746338	response	0	j		16.0	/experiments/Knapen_AOT/AOT_stimuli/pictures/0342_fw.png	92.9483163356781	
19	30.1644926071167	picture	0		80	17.0	/experiments/Knapen_AOT/AOT_stimuli/pictures/0258_fw.png	92.96222138404846	0.6774046421051025
19	30.825631856918335	response	0	j		17.0	/experiments/Knapen_AOT/AOT_stimuli/pictures/0258_fw.png	93.6233606338501	
20	30.8418972492218	picture	0		129	18.0	/experiments/Knapen_AOT/AOT_stimuli/pictures/0069_fw.png	93.63962602615356	1.079608678817749
20	31.902597188949585	response	0	k		18.0	/experiments/Knapen_AOT/AOT_stimuli/pictures/0069_fw.png	94.70032596588135	
21	31.92150592803955	picture	0		97	19.0	/experiments/Knapen_AOT/AOT_stimuli/pictures/1889_fw.png	94.71923470497131	0.812096118927002
21	32.70948529243469	response	0	j		19.0	/experiments/Knapen_AOT/AOT_stimuli/pictures/1889_fw.png	95.50721406936646	
22	32.73360204696655	picture	0		93	20.0	/experiments/Knapen_AOT/AOT_stimuli/pictures/1109_fw.png	95.53133082389832	0.783348798751831
22	33.500767946243286	response	0	j		20.0	/experiments/Knapen_AOT/AOT_stimuli/pictures/1109_fw.png	96.29849672317505	
23	33.516950845718384	picture	0		113	21.0	/experiments/Knapen_AOT/AOT_stimuli/pictures/2113_fw.png	96.31467962265015	0.9461491107940674
23	34.450443506240845	response	0	k		21.0	/experiments/Knapen_AOT/AOT_stimuli/pictures/2113_fw.png	97.24817228317261	
24	34.46309995651245	picture	0		209	22.0	/experiments/Knapen_AOT/AOT_stimuli/pictures/1089_fw.png	97.26082873344421	1.7455518245697021
24	36.19239783287048	response	0	k		22.0	/experiments/Knapen_AOT/AOT_stimuli/pictures/1089_fw.png	98.99012660980225	
25	36.20865178108215	picture	0		183	23.0	/experiments/Knapen_AOT/AOT_stimuli/pictures/0780_fw.png	99.00638055801392	1.5333573818206787
25	37.72572946548462	response	0	k		23.0	/experiments/Knapen_AOT/AOT_stimuli/pictures/0780_fw.png	100.52345824241638	
26	37.74200916290283	picture	0		86	24.0	/experiments/Knapen_AOT/AOT_stimuli/pictures/2027_fw.png	100.5397379398346	0.7250244617462158
26	38.45051717758179	response	0	j		24.0	/experiments/Knapen_AOT/AOT_stimuli/pictures/2027_fw.png	101.24824595451355	
27	38.46703362464905	picture	0		196	25.0	/experiments/Knapen_AOT/AOT_stimuli/pictures/1772_fw.png	101.26476240158081	1.6349704265594482
27	40.09218907356262	response	0	k		25.0	/experiments/Knapen_AOT/AOT_stimuli/pictures/1772_fw.png	102.88991785049438	
28	40.102004051208496	picture	0		100	26.0	/experiments/Knapen_AOT/AOT_stimuli/pictures/0169_fw.png	102.89973282814026	0.8333394527435303
28	40.925543785095215	response	0	k		26.0	/experiments/Knapen_AOT/AOT_stimuli/pictures/0169_fw.png	103.72327256202698	
29	40.935343503952026	picture	0		84	27.0	/experiments/Knapen_AOT/AOT_stimuli/pictures/1009_fw.png	103.73307228088379	0.7066855430603027
29	41.62566256523132	response	0	j		27.0	/experiments/Knapen_AOT/AOT_stimuli/pictures/1009_fw.png	104.42339134216309	
30	41.64202904701233	picture	0		139	28.0	/experiments/Knapen_AOT/AOT_stimuli/pictures/1512_fw.png	104.43975782394409	1.161388635635376
30	42.79220938682556	response	0	k		28.0	/experiments/Knapen_AOT/AOT_stimuli/pictures/1512_fw.png	105.58993816375732	
31	42.803417682647705	picture	0		186	29.0	/experiments/Knapen_AOT/AOT_stimuli/pictures/0212_fw.png	105.60114645957947	1.5486187934875488
31	44.3422589302063	response	0	j		29.0	/experiments/Knapen_AOT/AOT_stimuli/pictures/0212_fw.png	107.13998770713806	
32	44.352036476135254	picture	0		88	30.0	/experiments/Knapen_AOT/AOT_stimuli/pictures/0591_fw.png	107.14976525306702	0.736217737197876
32	45.07559370994568	response	0	j		30.0	/experiments/Knapen_AOT/AOT_stimuli/pictures/0591_fw.png	107.87332248687744	
33	45.08825421333313	picture	0		83	31.0	/experiments/Knapen_AOT/AOT_stimuli/pictures/0319_fw.png	107.88598299026489	0.703840970993042
33	45.77565240859985	response	0	j		31.0	/experiments/Knapen_AOT/AOT_stimuli/pictures/0319_fw.png	108.57338118553162	
34	45.79209518432617	picture	0		162	32.0	/experiments/Knapen_AOT/AOT_stimuli/pictures/1051_fw.png	108.58982396125793	1.3584048748016357
34	47.1339385509491	response	0	j		32.0	/experiments/Knapen_AOT/AOT_stimuli/pictures/1051_fw.png	109.93166732788086	
35	47.15050005912781	picture	0		188	33.0	/experiments/Knapen_AOT/AOT_stimuli/pictures/1458_fw.png	109.94822883605957	1.569624423980713
35	48.701576471328735	response	0	k		33.0	/experiments/Knapen_AOT/AOT_stimuli/pictures/1458_fw.png	111.4993052482605	
36	48.72012448310852	picture	0		136	34.0	/experiments/Knapen_AOT/AOT_stimuli/pictures/2179_fw.png	111.51785326004028	1.1319501399993896
36	49.84229803085327	response	0	k		34.0	/experiments/Knapen_AOT/AOT_stimuli/pictures/2179_fw.png	112.64002680778503	
37	49.85207462310791	picture	0		165	35.0	/experiments/Knapen_AOT/AOT_stimuli/pictures/0338_fw.png	112.64980340003967	1.375009298324585
37	51.21731090545654	response	0	k		35.0	/experiments/Knapen_AOT/AOT_stimuli/pictures/0338_fw.png	114.0150396823883	
38	51.227083921432495	picture	0		108	36.0	/experiments/Knapen_AOT/AOT_stimuli/pictures/0270_fw.png	114.02481269836426	0.9028055667877197
38	52.11056089401245	response	0	j		36.0	/experiments/Knapen_AOT/AOT_stimuli/pictures/0270_fw.png	114.90828967094421	
39	52.129889488220215	picture	0		185	37.0	/experiments/Knapen_AOT/AOT_stimuli/pictures/2039_fw.png	114.92761826515198	1.545628309249878
39	53.65901565551758	response	0	k		37.0	/experiments/Knapen_AOT/AOT_stimuli/pictures/2039_fw.png	116.45674443244934	
40	53.67551779747009	picture	0		115	38.0	/experiments/Knapen_AOT/AOT_stimuli/pictures/1760_fw.png	116.47324657440186	0.961322546005249
40	54.62573528289795	response	0	k		38.0	/experiments/Knapen_AOT/AOT_stimuli/pictures/1760_fw.png	117.42346405982971	
41	54.63684034347534	picture	0		92	39.0	/experiments/Knapen_AOT/AOT_stimuli/pictures/1583_fw.png	117.4345691204071	0.7638838291168213
41	55.39237141609192	response	0	j		39.0	/experiments/Knapen_AOT/AOT_stimuli/pictures/1583_fw.png	118.19010019302368	
42	55.40072417259216	picture	0		141	40.0	/experiments/Knapen_AOT/AOT_stimuli/pictures/0240_fw.png	118.19845294952393	1.1805908679962158
42	56.56739068031311	response	0	j		40.0	/experiments/Knapen_AOT/AOT_stimuli/pictures/0240_fw.png	119.36511945724487	
43	56.58131504058838	picture	0		77	41.0	/experiments/Knapen_AOT/AOT_stimuli/pictures/1880_fw.png	119.37904381752014	0.6458117961883545
43	57.21738934516907	response	0	j		41.0	/experiments/Knapen_AOT/AOT_stimuli/pictures/1880_fw.png	120.01511812210083	
44	57.22712683677673	picture	0		125	42.0	/experiments/Knapen_AOT/AOT_stimuli/pictures/1916_fw.png	120.0248556137085	1.0416760444641113
44	58.259073972702026	response	0	j		42.0	/experiments/Knapen_AOT/AOT_stimuli/pictures/1916_fw.png	121.05680274963379	
45	58.268802881240845	picture	0		154	43.0	/experiments/Knapen_AOT/AOT_stimuli/pictures/1208_fw.png	121.06653165817261	1.2847304344177246
45	59.54259943962097	response	0	k		43.0	/experiments/Knapen_AOT/AOT_stimuli/pictures/1208_fw.png	122.34032821655273	
46	59.55353331565857	picture	0		91	44.0	/experiments/Knapen_AOT/AOT_stimuli/pictures/1455_fw.png	122.35126209259033	0.756948709487915
46	60.30074954032898	response	0	j		44.0	/experiments/Knapen_AOT/AOT_stimuli/pictures/1455_fw.png	123.09847831726074	
47	60.310482025146484	picture	0		193	45.0	/experiments/Knapen_AOT/AOT_stimuli/pictures/1949_fw.png	123.10821080207825	1.6111574172973633
47	61.90170121192932	response	0	k		45.0	/experiments/Knapen_AOT/AOT_stimuli/pictures/1949_fw.png	124.69942998886108	
48	61.92163944244385	picture	0		94	46.0	/experiments/Knapen_AOT/AOT_stimuli/pictures/1909_fw.png	124.71936821937561	0.7847213745117188
48	62.69255566596985	response	0	j		46.0	/experiments/Knapen_AOT/AOT_stimuli/pictures/1909_fw.png	125.49028444290161	
49	62.706360816955566	picture	0		162	47.0	/experiments/Knapen_AOT/AOT_stimuli/pictures/1344_fw.png	125.50408959388733	1.3541462421417236
49	64.05082035064697	response	0	j		47.0	/experiments/Knapen_AOT/AOT_stimuli/pictures/1344_fw.png	126.84854912757874	
50	64.06050705909729	picture	0		103	48.0	/experiments/Knapen_AOT/AOT_stimuli/pictures/1409_fw.png	126.85823583602905	0.8651649951934814
50	64.90153813362122	response	0	j		48.0	/experiments/Knapen_AOT/AOT_stimuli/pictures/1409_fw.png	127.69926691055298	
51	64.92567205429077	picture	0		176	49.0	/experiments/Knapen_AOT/AOT_stimuli/pictures/1400_fw.png	127.72340083122253	1.4750139713287354
51	66.38419508934021	response	0	j		49.0	/experiments/Knapen_AOT/AOT_stimuli/pictures/1400_fw.png	129.18192386627197	
52	66.4006860256195	picture	0		130	50.0	/experiments/Knapen_AOT/AOT_stimuli/pictures/1374_fw.png	129.19841480255127	1.0834414958953857
52	67.47586488723755	response	0	k		50.0	/experiments/Knapen_AOT/AOT_stimuli/pictures/1374_fw.png	130.2735936641693	
53	67.48412752151489	picture	0		397	51.0	/experiments/Knapen_AOT/AOT_stimuli/pictures/1885_fw.png	130.28185629844666	3.312549114227295
53	70.78423810005188	response	0	j		51.0	/experiments/Knapen_AOT/AOT_stimuli/pictures/1885_fw.png	133.58196687698364	
54	70.79667663574219	picture	0		100	52.0	/experiments/Knapen_AOT/AOT_stimuli/pictures/0222_fw.png	133.59440541267395	0.8333995342254639
54	71.61756181716919	response	0	j		52.0	/experiments/Knapen_AOT/AOT_stimuli/pictures/0222_fw.png	134.41529059410095	
55	71.63007616996765	picture	0		143	53.0	/experiments/Knapen_AOT/AOT_stimuli/pictures/1284_fw.png	134.4278049468994	1.1956820487976074
55	72.80929803848267	response	0	k		53.0	/experiments/Knapen_AOT/AOT_stimuli/pictures/1284_fw.png	135.60702681541443	
56	72.82575821876526	picture	0		87	54.0	/experiments/Knapen_AOT/AOT_stimuli/pictures/0942_fw.png	135.62348699569702	0.727869987487793
56	73.5425796508789	response	0	j		54.0	/experiments/Knapen_AOT/AOT_stimuli/pictures/0942_fw.png	136.34030842781067	
57	73.55362820625305	picture	0		180	55.0	/experiments/Knapen_AOT/AOT_stimuli/pictures/0130_fw.png	136.35135698318481	1.5055077075958252
57	75.0426197052002	response	0	k		55.0	/experiments/Knapen_AOT/AOT_stimuli/pictures/0130_fw.png	137.84034848213196	
58	75.05913591384888	picture	0		87	56.0	/experiments/Knapen_AOT/AOT_stimuli/pictures/1722_fw.png	137.85686469078064	0.730647087097168
58	75.77601051330566	response	0	j		56.0	/experiments/Knapen_AOT/AOT_stimuli/pictures/1722_fw.png	138.57373929023743	
59	75.78978300094604	picture	0		96	57.0	/experiments/Knapen_AOT/AOT_stimuli/pictures/0988_fw.png	138.5875117778778	0.8110177516937256
59	76.58428645133972	response	0	j		57.0	/experiments/Knapen_AOT/AOT_stimuli/pictures/0988_fw.png	139.38201522827148	
60	76.60080075263977	picture	0		131	58.0	/experiments/Knapen_AOT/AOT_stimuli/pictures/1084_fw.png	139.39852952957153	1.0917246341705322
60	77.68437218666077	response	0	k		58.0	/experiments/Knapen_AOT/AOT_stimuli/pictures/1084_fw.png	140.48210096359253	
61	77.6925253868103	picture	0		116	59.0	/experiments/Knapen_AOT/AOT_stimuli/pictures/2168_fw.png	140.49025416374207	0.9749794006347656
61	78.65119409561157	response	0	k		59.0	/experiments/Knapen_AOT/AOT_stimuli/pictures/2168_fw.png	141.44892287254333	
62	78.66750478744507	picture	0		98	60.0	/experiments/Knapen_AOT/AOT_stimuli/pictures/2045_fw.png	141.46523356437683	0.8167052268981934
62	79.4760160446167	response	0	k		60.0	/experiments/Knapen_AOT/AOT_stimuli/pictures/2045_fw.png	142.27374482154846	
63	79.48421001434326	picture	0		153	61.0	/experiments/Knapen_AOT/AOT_stimuli/pictures/1781_fw.png	142.28193879127502	1.2778055667877197
63	80.75123739242554	response	0	k		61.0	/experiments/Knapen_AOT/AOT_stimuli/pictures/1781_fw.png	143.5489661693573	
64	80.76201558113098	picture	0		98	62.0	/experiments/Knapen_AOT/AOT_stimuli/pictures/0913_fw.png	143.55974435806274	0.8222672939300537
64	81.56769871711731	response	0	k		62.0	/experiments/Knapen_AOT/AOT_stimuli/pictures/0913_fw.png	144.36542749404907	
65	81.58428287506104	picture	0		188	63.0	/experiments/Knapen_AOT/AOT_stimuli/pictures/0328_fw.png	144.3820116519928	1.5666232109069824
65	83.14271974563599	response	0	j		63.0	/experiments/Knapen_AOT/AOT_stimuli/pictures/0328_fw.png	145.94044852256775	
66	83.15090608596802	picture	0		179	64.0	/experiments/Knapen_AOT/AOT_stimuli/pictures/1987_fw.png	145.94863486289978	1.493084192276001
66	84.63439440727234	response	0	k		64.0	/experiments/Knapen_AOT/AOT_stimuli/pictures/1987_fw.png	147.4321231842041	
67	84.64399027824402	picture	0		108	65.0	/experiments/Knapen_AOT/AOT_stimuli/pictures/1330_fw.png	147.44171905517578	0.9027862548828125
67	85.53440713882446	response	0	k		65.0	/experiments/Knapen_AOT/AOT_stimuli/pictures/1330_fw.png	148.33213591575623	
68	85.54677653312683	picture	0		117	66.0	/experiments/Knapen_AOT/AOT_stimuli/pictures/1432_fw.png	148.3445053100586	0.9722244739532471
68	86.50312519073486	response	0	j		66.0	/experiments/Knapen_AOT/AOT_stimuli/pictures/1432_fw.png	149.30085396766663	
69	86.51900100708008	picture	0		96	67.0	/experiments/Knapen_AOT/AOT_stimuli/pictures/1219_fw.png	149.31672978401184	0.8069353103637695
69	87.3017463684082	response	0	j		67.0	/experiments/Knapen_AOT/AOT_stimuli/pictures/1219_fw.png	150.09947514533997	
70	87.32593631744385	picture	0		167	68.0	/experiments/Knapen_AOT/AOT_stimuli/pictures/0323_fw.png	150.1236650943756	1.3944671154022217
70	88.70947241783142	response	0	j		68.0	/experiments/Knapen_AOT/AOT_stimuli/pictures/0323_fw.png	151.50720119476318	
71	88.72040343284607	picture	0		111	69.0	/experiments/Knapen_AOT/AOT_stimuli/pictures/1791_fw.png	151.51813220977783	0.9305868148803711
71	89.63451504707336	response	0	k		69.0	/experiments/Knapen_AOT/AOT_stimuli/pictures/1791_fw.png	152.43224382400513	
72	89.65099024772644	picture	0		106	70.0	/experiments/Knapen_AOT/AOT_stimuli/pictures/0572_fw.png	152.4487190246582	0.8889033794403076
72	90.52628302574158	response	0	j		70.0	/experiments/Knapen_AOT/AOT_stimuli/pictures/0572_fw.png	153.32401180267334	
73	90.53989362716675	picture	0		96	71.0	/experiments/Knapen_AOT/AOT_stimuli/pictures/0101_fw.png	153.3376224040985	0.8055257797241211
73	91.33446383476257	response	0	j		71.0	/experiments/Knapen_AOT/AOT_stimuli/pictures/0101_fw.png	154.13219261169434	
74	91.34541940689087	picture	0		130	72.0	/experiments/Knapen_AOT/AOT_stimuli/pictures/1494_fw.png	154.14314818382263	1.0889472961425781
74	92.4178535938263	response	0	k		72.0	/experiments/Knapen_AOT/AOT_stimuli/pictures/1494_fw.png	155.21558237075806	
75	92.43436670303345	picture	0		166	73.0	/experiments/Knapen_AOT/AOT_stimuli/pictures/0509_fw.png	155.2320954799652	1.3916423320770264
75	93.80959486961365	response	0	k		73.0	/experiments/Knapen_AOT/AOT_stimuli/pictures/0509_fw.png	156.6073236465454	
76	93.82600903511047	picture	0		105	74.0	/experiments/Knapen_AOT/AOT_stimuli/pictures/0458_fw.png	156.62373781204224	0.8833656311035156
76	94.69286298751831	response	0	j		74.0	/experiments/Knapen_AOT/AOT_stimuli/pictures/0458_fw.png	157.49059176445007	
77	94.70937466621399	picture	0		134	75.0	/experiments/Knapen_AOT/AOT_stimuli/pictures/0387_fw.png	157.50710344314575	1.1222200393676758
77	95.81787204742432	response	0	k		75.0	/experiments/Knapen_AOT/AOT_stimuli/pictures/0387_fw.png	158.61560082435608	
78	95.83159470558167	picture	0		178	76.0	/experiments/Knapen_AOT/AOT_stimuli/pictures/2001_fw.png	158.62932348251343	1.486133098602295
78	97.30955719947815	response	0	j		76.0	/experiments/Knapen_AOT/AOT_stimuli/pictures/2001_fw.png	160.1072859764099	
79	97.31772780418396	picture	0		181	77.0	/experiments/Knapen_AOT/AOT_stimuli/pictures/0945_fw.png	160.11545658111572	1.513922929763794
79	98.81790089607239	response	0	j		77.0	/experiments/Knapen_AOT/AOT_stimuli/pictures/0945_fw.png	161.61562967300415	
80	98.83165073394775	picture	0		252	78.0	/experiments/Knapen_AOT/AOT_stimuli/pictures/1234_fw.png	161.62937951087952	2.104116439819336
80	100.92626738548279	response	0	j		78.0	/experiments/Knapen_AOT/AOT_stimuli/pictures/1234_fw.png	163.72399616241455	
81	100.93576717376709	picture	0		84	79.0	/experiments/Knapen_AOT/AOT_stimuli/pictures/1733_fw.png	163.73349595069885	0.7070419788360596
81	101.62624955177307	response	0	j		79.0	/experiments/Knapen_AOT/AOT_stimuli/pictures/1733_fw.png	164.42397832870483	
82	101.64280915260315	picture	0		149	80.0	/experiments/Knapen_AOT/AOT_stimuli/pictures/1807_fw.png	164.4405379295349	1.2443573474884033
82	102.87650108337402	response	0	k		80.0	/experiments/Knapen_AOT/AOT_stimuli/pictures/1807_fw.png	165.6742298603058	
83	102.88716650009155	picture	0		125	81.0	/experiments/Knapen_AOT/AOT_stimuli/pictures/0159_fw.png	165.68489527702332	1.041672945022583
83	103.91798496246338	response	0	j		81.0	/experiments/Knapen_AOT/AOT_stimuli/pictures/0159_fw.png	166.71571373939514	
84	103.92883944511414	picture	0		109	82.0	/experiments/Knapen_AOT/AOT_stimuli/pictures/0167_fw.png	166.7265682220459	0.9140110015869141
84	104.8263213634491	response	0	j		82.0	/experiments/Knapen_AOT/AOT_stimuli/pictures/0167_fw.png	167.62405014038086	
85	104.84285044670105	picture	0		128	83.0	/experiments/Knapen_AOT/AOT_stimuli/pictures/1567_fw.png	167.6405792236328	1.075115442276001
85	105.89372491836548	response	0	k		83.0	/experiments/Knapen_AOT/AOT_stimuli/pictures/1567_fw.png	168.69145369529724	
86	105.91796588897705	picture	0		118	84.0	/experiments/Knapen_AOT/AOT_stimuli/pictures/2076_fw.png	168.7156946659088	0.9915351867675781
86	106.89302039146423	response	0	j		84.0	/experiments/Knapen_AOT/AOT_stimuli/pictures/2076_fw.png	169.690749168396	
87	106.90950107574463	picture	0		327	85.0	/experiments/Knapen_AOT/AOT_stimuli/pictures/1365_fw.png	169.7072298526764	2.7335126399993896
87	109.62636923789978	response	0	j		85.0	/experiments/Knapen_AOT/AOT_stimuli/pictures/1365_fw.png	172.42409801483154	
88	109.64301371574402	picture	0		119	86.0	/experiments/Knapen_AOT/AOT_stimuli/pictures/1804_fw.png	172.44074249267578	0.994213342666626
88	110.62637758255005	response	0	k		86.0	/experiments/Knapen_AOT/AOT_stimuli/pictures/1804_fw.png	173.4241063594818	
89	110.63722705841064	picture	0		101	87.0	/experiments/Knapen_AOT/AOT_stimuli/pictures/1629_fw.png	173.4349558353424	0.8402793407440186
89	111.46805739402771	response	0	j		87.0	/experiments/Knapen_AOT/AOT_stimuli/pictures/1629_fw.png	174.26578617095947	
90	111.47750639915466	picture	0		145	88.0	/experiments/Knapen_AOT/AOT_stimuli/pictures/1612_fw.png	174.27523517608643	1.2083423137664795
90	112.67641305923462	response	0	k		88.0	/experiments/Knapen_AOT/AOT_stimuli/pictures/1612_fw.png	175.47414183616638	
91	112.68584871292114	picture	0		121	89.0	/experiments/Knapen_AOT/AOT_stimuli/pictures/1929_fw.png	175.4835774898529	1.0153906345367432
91	113.68496441841125	response	0	k		89.0	/experiments/Knapen_AOT/AOT_stimuli/pictures/1929_fw.png	176.48269319534302	
92	113.70123934745789	picture	0		93	90.0	/experiments/Knapen_AOT/AOT_stimuli/pictures/0964_fw.png	176.49896812438965	0.7762861251831055
92	114.46810221672058	response	0	k		90.0	/experiments/Knapen_AOT/AOT_stimuli/pictures/0964_fw.png	177.26583099365234	
93	114.47752547264099	picture	0		150	91.0	/experiments/Knapen_AOT/AOT_stimuli/pictures/0198_fw.png	177.27525424957275	1.2500131130218506
93	115.71812343597412	response	0	k		91.0	/experiments/Knapen_AOT/AOT_stimuli/pictures/0198_fw.png	178.51585221290588	
94	115.72753858566284	picture	0		111	92.0	/experiments/Knapen_AOT/AOT_stimuli/pictures/0151_fw.png	178.5252673625946	0.92374587059021
94	116.6431496143341	response	0	j		92.0	/experiments/Knapen_AOT/AOT_stimuli/pictures/0151_fw.png	179.44087839126587	
95	116.65128445625305	picture	0		140	93.0	/experiments/Knapen_AOT/AOT_stimuli/pictures/0692_fw.png	179.44901323318481	1.1666574478149414
95	117.80981254577637	response	0	j		93.0	/experiments/Knapen_AOT/AOT_stimuli/pictures/0692_fw.png	180.60754132270813	
96	117.817941904068	picture	0		102	94.0	/experiments/Knapen_AOT/AOT_stimuli/pictures/1699_fw.png	180.61567068099976	0.8583822250366211
96	118.6598482131958	response	0	k		94.0	/experiments/Knapen_AOT/AOT_stimuli/pictures/1699_fw.png	181.45757699012756	
97	118.67632412910461	picture	0		184	95.0	/experiments/Knapen_AOT/AOT_stimuli/pictures/2054_fw.png	181.47405290603638	1.5416758060455322
97	120.2015426158905	response	0	k		95.0	/experiments/Knapen_AOT/AOT_stimuli/pictures/2054_fw.png	182.99927139282227	
98	120.21799993515015	picture	0		160	96.0	/experiments/Knapen_AOT/AOT_stimuli/pictures/1417_fw.png	183.0157287120819	1.3359668254852295
98	121.54323196411133	response	0	k		96.0	/experiments/Knapen_AOT/AOT_stimuli/pictures/1417_fw.png	184.3409607410431	
99	121.55396676063538	picture	0		132	97.0	/experiments/Knapen_AOT/AOT_stimuli/pictures/0145_fw.png	184.35169553756714	1.0973687171936035
99	122.6432580947876	response	0	k		97.0	/experiments/Knapen_AOT/AOT_stimuli/pictures/0145_fw.png	185.44098687171936	
100	122.65133547782898	picture	0		86	98.0	/experiments/Knapen_AOT/AOT_stimuli/pictures/0340_fw.png	185.44906425476074	0.7221741676330566
100	123.35984945297241	response	0	j		98.0	/experiments/Knapen_AOT/AOT_stimuli/pictures/0340_fw.png	186.15757822990417	
101	123.37350964546204	picture	0		369	99.0	/experiments/Knapen_AOT/AOT_stimuli/pictures/0497_fw.png	186.1712384223938	3.0832903385162354
101	126.44324350357056	response	0	j		99.0	/experiments/Knapen_AOT/AOT_stimuli/pictures/0497_fw.png	189.24097228050232	
102	126.45679998397827	picture	0		101	100.0	/experiments/Knapen_AOT/AOT_stimuli/pictures/1421_fw.png	189.25452876091003	0.8529665470123291
102	127.28559827804565	response	0	j		100.0	/experiments/Knapen_AOT/AOT_stimuli/pictures/1421_fw.png	190.08332705497742	
103	127.3097665309906	picture	0		154	101.0	/experiments/Knapen_AOT/AOT_stimuli/pictures/1742_fw.png	190.10749530792236	1.2859106063842773
103	128.58492350578308	response	0	j		101.0	/experiments/Knapen_AOT/AOT_stimuli/pictures/1742_fw.png	191.38265228271484	
104	128.59567713737488	picture	0		120	102.0	/experiments/Knapen_AOT/AOT_stimuli/pictures/0325_fw.png	191.39340591430664	1.0058119297027588
104	129.58495903015137	response	0	k		102.0	/experiments/Knapen_AOT/AOT_stimuli/pictures/0325_fw.png	192.38268780708313	
105	129.60148906707764	picture	0		293	103.0	/experiments/Knapen_AOT/AOT_stimuli/pictures/0259_fw.png	192.3992178440094	2.4500105381011963
105	132.03499627113342	response	0	k		103.0	/experiments/Knapen_AOT/AOT_stimuli/pictures/0259_fw.png	194.83272504806519	
106	132.05149960517883	picture	0		125	104.0	/experiments/Knapen_AOT/AOT_stimuli/pictures/0700_fw.png	194.8492283821106	1.044257640838623
106	133.07795524597168	response	0	k		104.0	/experiments/Knapen_AOT/AOT_stimuli/pictures/0700_fw.png	195.87568402290344	
107	133.09575724601746	picture	0		91	105.0	/experiments/Knapen_AOT/AOT_stimuli/pictures/0588_fw.png	195.89348602294922	0.764049768447876
107	133.8516719341278	response	0	j		105.0	/experiments/Knapen_AOT/AOT_stimuli/pictures/0588_fw.png	196.64940071105957	
108	133.85980701446533	picture	0		222	106.0	/experiments/Knapen_AOT/AOT_stimuli/pictures/1708_fw.png	196.6575357913971	1.8583791255950928
108	135.70201444625854	response	0	j		106.0	/experiments/Knapen_AOT/AOT_stimuli/pictures/1708_fw.png	198.4997432231903	
109	135.71818614006042	picture	0		299	107.0	/experiments/Knapen_AOT/AOT_stimuli/pictures/0144_fw.png	198.5159149169922	2.5000407695770264
109	138.20183444023132	response	0	k		107.0	/experiments/Knapen_AOT/AOT_stimuli/pictures/0144_fw.png	200.9995632171631	
110	138.21822690963745	picture	0		113	108.0	/experiments/Knapen_AOT/AOT_stimuli/pictures/2093_fw.png	201.0159556865692	0.9469916820526123
110	139.1517150402069	response	0	j		108.0	/experiments/Knapen_AOT/AOT_stimuli/pictures/2093_fw.png	201.94944381713867	
111	139.16521859169006	picture	0		113	109.0	/experiments/Knapen_AOT/AOT_stimuli/pictures/0856_fw.png	201.96294736862183	0.9446687698364258
111	140.10175561904907	response	0	k		109.0	/experiments/Knapen_AOT/AOT_stimuli/pictures/0856_fw.png	202.89948439598083	
112	140.1098873615265	picture	0		107	110.0	/experiments/Knapen_AOT/AOT_stimuli/pictures/0776_fw.png	202.90761613845825	0.8956115245819092
112	140.99342107772827	response	0	j		110.0	/experiments/Knapen_AOT/AOT_stimuli/pictures/0776_fw.png	203.79114985466003	
113	141.0054988861084	picture	0		98	111.0	/experiments/Knapen_AOT/AOT_stimuli/pictures/1703_fw.png	203.80322766304016	0.8210961818695068
113	141.81016039848328	response	0	j		111.0	/experiments/Knapen_AOT/AOT_stimuli/pictures/1703_fw.png	204.60788917541504	
114	141.8265950679779	picture	0		107	112.0	/experiments/Knapen_AOT/AOT_stimuli/pictures/1684_fw.png	204.62432384490967	0.8941879272460938
114	142.71011638641357	response	0	k		112.0	/experiments/Knapen_AOT/AOT_stimuli/pictures/1684_fw.png	205.50784516334534	
115	142.720782995224	picture	0		101	113.0	/experiments/Knapen_AOT/AOT_stimuli/pictures/1480_fw.png	205.51851177215576	0.8402864933013916
115	143.5517919063568	response	0	k		113.0	/experiments/Knapen_AOT/AOT_stimuli/pictures/1480_fw.png	206.34952068328857	
116	143.5610694885254	picture	0		107	114.0	/experiments/Knapen_AOT/AOT_stimuli/pictures/1849_fw.png	206.35879826545715	0.8988885879516602
116	144.44364953041077	response	0	k		114.0	/experiments/Knapen_AOT/AOT_stimuli/pictures/1849_fw.png	207.24137830734253	
117	144.45995807647705	picture	0		197	115.0	/experiments/Knapen_AOT/AOT_stimuli/pictures/0111_fw.png	207.2576868534088	1.642815351486206
117	146.0858051776886	response	0	j		115.0	/experiments/Knapen_AOT/AOT_stimuli/pictures/0111_fw.png	208.88353395462036	
118	146.10277342796326	picture	0		109	116.0	/experiments/Knapen_AOT/AOT_stimuli/pictures/1043_fw.png	208.90050220489502	0.9155466556549072
118	147.00188660621643	response	0	k		116.0	/experiments/Knapen_AOT/AOT_stimuli/pictures/1043_fw.png	209.7996153831482	
119	147.01832008361816	picture	0		97	117.0	/experiments/Knapen_AOT/AOT_stimuli/pictures/0058_fw.png	209.81604886054993	0.813629150390625
119	147.81850409507751	response	0	k		117.0	/experiments/Knapen_AOT/AOT_stimuli/pictures/0058_fw.png	210.61623287200928	
120	147.8319492340088	picture	0		89	118.0	/experiments/Knapen_AOT/AOT_stimuli/pictures/0997_fw.png	210.62967801094055	0.7499971389770508
120	148.56850242614746	response	0	k		118.0	/experiments/Knapen_AOT/AOT_stimuli/pictures/0997_fw.png	211.36623120307922	
121	148.58194637298584	picture	0		125	119.0	/experiments/Knapen_AOT/AOT_stimuli/pictures/2055_fw.png	211.3796751499176	1.0417635440826416
121	149.61018180847168	response	0	j		119.0	/experiments/Knapen_AOT/AOT_stimuli/pictures/2055_fw.png	212.40791058540344	
122	149.62370991706848	picture	0		74	120.0	/experiments/Knapen_AOT/AOT_stimuli/pictures/1338_fw.png	212.42143869400024	0.7568585872650146
122	150.36853218078613	response	0	j		120.0	/experiments/Knapen_AOT/AOT_stimuli/pictures/1338_fw.png	213.1662609577179	
123	150.3805685043335	picture	0		128	121.0	/experiments/Knapen_AOT/AOT_stimuli/pictures/0643_fw.png	213.17829728126526	1.0628154277801514
123	151.4352366924286	response	0	k		121.0	/experiments/Knapen_AOT/AOT_stimuli/pictures/0643_fw.png	214.23296546936035	
124	151.44338393211365	picture	0		96	122.0	/experiments/Knapen_AOT/AOT_stimuli/pictures/0126_fw.png	214.2411127090454	0.8083577156066895
124	152.2352089881897	response	0	j		122.0	/experiments/Knapen_AOT/AOT_stimuli/pictures/0126_fw.png	215.03293776512146	
125	152.25174164772034	picture	0		159	123.0	/experiments/Knapen_AOT/AOT_stimuli/pictures/1901_fw.png	215.0494704246521	1.3333323001861572
125	153.5686616897583	response	0	k		123.0	/experiments/Knapen_AOT/AOT_stimuli/pictures/1901_fw.png	216.36639046669006	
126	153.5850739479065	picture	0		177	124.0	/experiments/Knapen_AOT/AOT_stimuli/pictures/1830_fw.png	216.38280272483826	1.4833552837371826
126	155.05198574066162	response	0	j		124.0	/experiments/Knapen_AOT/AOT_stimuli/pictures/1830_fw.png	217.84971451759338	
127	155.06842923164368	picture	0		98	125.0	/experiments/Knapen_AOT/AOT_stimuli/pictures/0080_fw.png	217.86615800857544	0.8250348567962646
127	155.87000823020935	response	0	k		125.0	/experiments/Knapen_AOT/AOT_stimuli/pictures/0080_fw.png	218.6677370071411	
128	155.89346408843994	picture	0		142	126.0	/experiments/Knapen_AOT/AOT_stimuli/pictures/1888_fw.png	218.6911928653717	1.188546895980835
128	157.0686230659485	response	0	j		126.0	/experiments/Knapen_AOT/AOT_stimuli/pictures/1888_fw.png	219.86635184288025	
129	157.08201098442078	picture	0		236	127.0	/experiments/Knapen_AOT/AOT_stimuli/pictures/0611_fw.png	219.87973976135254	1.9722154140472412
129	159.043630361557	response	0	k		127.0	/experiments/Knapen_AOT/AOT_stimuli/pictures/0611_fw.png	221.84135913848877	
130	159.05422639846802	picture	0		96	128.0	/experiments/Knapen_AOT/AOT_stimuli/pictures/1976_fw.png	221.85195517539978	0.8059306144714355
130	159.84365606307983	response	0	j		128.0	/experiments/Knapen_AOT/AOT_stimuli/pictures/1976_fw.png	222.6413848400116	
131	159.86015701293945	picture	0		96	129.0	/experiments/Knapen_AOT/AOT_stimuli/pictures/0294_fw.png	222.65788578987122	0.8083982467651367
131	160.65218472480774	response	0	j		129.0	/experiments/Knapen_AOT/AOT_stimuli/pictures/0294_fw.png	223.4499135017395	
132	160.6685552597046	picture	0		95	130.0	/experiments/Knapen_AOT/AOT_stimuli/pictures/0906_fw.png	223.46628403663635	0.79994797706604
132	161.45204091072083	response	0	j		130.0	/experiments/Knapen_AOT/AOT_stimuli/pictures/0906_fw.png	224.2497696876526	
133	161.46850323677063	picture	0		99	131.0	/experiments/Knapen_AOT/AOT_stimuli/pictures/1048_fw.png	224.2662320137024	0.8288042545318604
133	162.2776801586151	response	0	j		131.0	/experiments/Knapen_AOT/AOT_stimuli/pictures/1048_fw.png	225.07540893554688	
134	162.2973074913025	picture	0		130	132.0	/experiments/Knapen_AOT/AOT_stimuli/pictures/1378_fw.png	225.09503626823425	1.0879437923431396
134	163.36872792243958	response	0	k		132.0	/experiments/Knapen_AOT/AOT_stimuli/pictures/1378_fw.png	226.16645669937134	
135	163.38525128364563	picture	0		91	133.0	/experiments/Knapen_AOT/AOT_stimuli/pictures/0682_fw.png	226.1829800605774	0.7667124271392822
135	164.13561749458313	response	0	j		133.0	/experiments/Knapen_AOT/AOT_stimuli/pictures/0682_fw.png	226.9333462715149	
136	164.1519637107849	picture	0		170	134.0	/experiments/Knapen_AOT/AOT_stimuli/pictures/1884_fw.png	226.94969248771667	1.424938678741455
136	165.5604109764099	response	0	k		134.0	/experiments/Knapen_AOT/AOT_stimuli/pictures/1884_fw.png	228.35813975334167	
137	165.57690238952637	picture	0		106	135.0	/experiments/Knapen_AOT/AOT_stimuli/pictures/0553_fw.png	228.37463116645813	0.891770601272583
137	166.45206093788147	response	0	k		135.0	/experiments/Knapen_AOT/AOT_stimuli/pictures/0553_fw.png	229.24978971481323	
138	166.46867299079895	picture	0		88	136.0	/experiments/Knapen_AOT/AOT_stimuli/pictures/1237_fw.png	229.2664017677307	0.7384121417999268
138	167.1937153339386	response	0	k		136.0	/experiments/Knapen_AOT/AOT_stimuli/pictures/1237_fw.png	229.99144411087036	
139	167.20708513259888	picture	0		186	137.0	/experiments/Knapen_AOT/AOT_stimuli/pictures/1682_fw.png	230.00481390953064	1.5555434226989746
139	168.75208163261414	response	0	j		137.0	/experiments/Knapen_AOT/AOT_stimuli/pictures/1682_fw.png	231.5498104095459	
140	168.76262855529785	picture	0		123	138.0	/experiments/Knapen_AOT/AOT_stimuli/pictures/1340_fw.png	231.56035733222961	1.0310041904449463
140	169.777161359787	response	0	k		138.0	/experiments/Knapen_AOT/AOT_stimuli/pictures/1340_fw.png	232.57489013671875	
141	169.7936327457428	picture	0		207	139.0	/experiments/Knapen_AOT/AOT_stimuli/pictures/0644_fw.png	232.59136152267456	1.7260429859161377
141	171.51049304008484	response	0	j		139.0	/experiments/Knapen_AOT/AOT_stimuli/pictures/0644_fw.png	234.3082218170166	
142	171.51967573165894	picture	0		165	140.0	/experiments/Knapen_AOT/AOT_stimuli/pictures/1144_fw.png	234.3174045085907	1.3749310970306396
142	172.87790179252625	response	0	k		140.0	/experiments/Knapen_AOT/AOT_stimuli/pictures/1144_fw.png	235.675630569458	
143	172.89460682868958	picture	0		141	141.0	/experiments/Knapen_AOT/AOT_stimuli/pictures/0192_fw.png	235.69233560562134	1.1823854446411133
143	174.06052327156067	response	0	k		141.0	/experiments/Knapen_AOT/AOT_stimuli/pictures/0192_fw.png	236.85825204849243	
144	174.0769922733307	picture	0		86	142.0	/experiments/Knapen_AOT/AOT_stimuli/pictures/1750_fw.png	236.87472105026245	0.7250363826751709
144	174.78548979759216	response	0	k		142.0	/experiments/Knapen_AOT/AOT_stimuli/pictures/1750_fw.png	237.58321857452393	
145	174.80202865600586	picture	0		110	143.0	/experiments/Knapen_AOT/AOT_stimuli/pictures/0031_fw.png	237.59975743293762	0.9250025749206543
145	175.71053886413574	response	0	k		143.0	/experiments/Knapen_AOT/AOT_stimuli/pictures/0031_fw.png	238.5082676410675	
146	175.7270312309265	picture	0		92	144.0	/experiments/Knapen_AOT/AOT_stimuli/pictures/0020_fw.png	238.52476000785828	0.7717971801757812
146	176.47805309295654	response	0	j		144.0	/experiments/Knapen_AOT/AOT_stimuli/pictures/0020_fw.png	239.2757818698883	
147	176.4988284111023	picture	0		167	145.0	/experiments/Knapen_AOT/AOT_stimuli/pictures/0362_fw.png	239.29655718803406	1.3958070278167725
147	177.87788558006287	response	0	k		145.0	/experiments/Knapen_AOT/AOT_stimuli/pictures/0362_fw.png	240.67561435699463	
148	177.89463543891907	picture	0		79	146.0	/experiments/Knapen_AOT/AOT_stimuli/pictures/2149_fw.png	240.69236421585083	0.665809154510498
148	178.54386806488037	response	0	j		146.0	/experiments/Knapen_AOT/AOT_stimuli/pictures/2149_fw.png	241.34159684181213	
149	178.56044459342957	picture	0		276	147.0	/experiments/Knapen_AOT/AOT_stimuli/pictures/1646_fw.png	241.35817337036133	2.3064684867858887
149	180.852276802063	response	0	k		147.0	/experiments/Knapen_AOT/AOT_stimuli/pictures/1646_fw.png	243.65000557899475	
150	180.86691308021545	picture	0		118	148.0	/experiments/Knapen_AOT/AOT_stimuli/pictures/0427_fw.png	243.66464185714722	0.9935092926025391
150	181.8439483642578	response	0	j		148.0	/experiments/Knapen_AOT/AOT_stimuli/pictures/0427_fw.png	244.64167714118958	
151	181.860422372818	picture	0		95	149.0	/experiments/Knapen_AOT/AOT_stimuli/pictures/1877_fw.png	244.65815114974976	0.8000092506408691
151	182.64395427703857	response	0	j		149.0	/experiments/Knapen_AOT/AOT_stimuli/pictures/1877_fw.png	245.44168305397034	
152	182.66043162345886	picture	0		102	150.0	/experiments/Knapen_AOT/AOT_stimuli/pictures/0066_fw.png	245.45816040039062	0.8583459854125977
152	183.50230717658997	response	0	k		150.0	/experiments/Knapen_AOT/AOT_stimuli/pictures/0066_fw.png	246.30003595352173	
153	183.51877760887146	picture	0		158	151.0	/experiments/Knapen_AOT/AOT_stimuli/pictures/0846_fw.png	246.31650638580322	1.3250257968902588
153	184.82733917236328	response	0	j		151.0	/experiments/Knapen_AOT/AOT_stimuli/pictures/0846_fw.png	247.62506794929504	
154	184.84380340576172	picture	0		121	152.0	/experiments/Knapen_AOT/AOT_stimuli/pictures/0585_fw.png	247.64153218269348	1.0092265605926514
154	185.8440408706665	response	0	k		152.0	/experiments/Knapen_AOT/AOT_stimuli/pictures/0585_fw.png	248.64176964759827	
155	185.85302996635437	picture	0		386	153.0	/experiments/Knapen_AOT/AOT_stimuli/pictures/0400_fw.png	248.65075874328613	3.2157883644104004
155	189.06070852279663	response	0	j		153.0	/experiments/Knapen_AOT/AOT_stimuli/pictures/0400_fw.png	251.8584372997284	
156	189.06881833076477	picture	0		109	154.0	/experiments/Knapen_AOT/AOT_stimuli/pictures/1606_fw.png	251.86654710769653	0.9167044162750244
156	189.96906661987305	response	0	k		154.0	/experiments/Knapen_AOT/AOT_stimuli/pictures/1606_fw.png	252.7667953968048	
157	189.9855227470398	picture	0		114	155.0	/experiments/Knapen_AOT/AOT_stimuli/pictures/0337_fw.png	252.78325152397156	0.9508728981018066
157	190.92738509178162	response	0	j		155.0	/experiments/Knapen_AOT/AOT_stimuli/pictures/0337_fw.png	253.72511386871338	
158	190.9363956451416	picture	0		147	156.0	/experiments/Knapen_AOT/AOT_stimuli/pictures/1766_fw.png	253.73412442207336	1.2325611114501953
158	192.15237379074097	response	0	j		156.0	/experiments/Knapen_AOT/AOT_stimuli/pictures/1766_fw.png	254.95010256767273	
159	192.1689567565918	picture	0		281	157.0	/experiments/Knapen_AOT/AOT_stimuli/pictures/0018_fw.png	254.96668553352356	2.3499670028686523
159	194.50243043899536	response	0	j		157.0	/experiments/Knapen_AOT/AOT_stimuli/pictures/0018_fw.png	257.3001592159271	
160	194.51892375946045	picture	0		162	158.0	/experiments/Knapen_AOT/AOT_stimuli/pictures/0881_fw.png	257.3166525363922	1.3550312519073486
160	195.8607680797577	response	0	j		158.0	/experiments/Knapen_AOT/AOT_stimuli/pictures/0881_fw.png	258.65849685668945	
161	195.8739550113678	picture	0		117	159.0	/experiments/Knapen_AOT/AOT_stimuli/pictures/0951_fw.png	258.67168378829956	0.9791505336761475
161	196.84412097930908	response	0	k		159.0	/experiments/Knapen_AOT/AOT_stimuli/pictures/0951_fw.png	259.64184975624084	
162	196.85310554504395	picture	0		95	160.0	/experiments/Knapen_AOT/AOT_stimuli/pictures/0528_fw.png	259.6508343219757	0.7916514873504639
162	197.63576817512512	response	0	j		160.0	/experiments/Knapen_AOT/AOT_stimuli/pictures/0528_fw.png	260.4334969520569	
163	197.6447570323944	picture	0		144	161.0	/experiments/Knapen_AOT/AOT_stimuli/pictures/0420_fw.png	260.4424858093262	1.201415777206421
163	198.83581709861755	response	0	k		161.0	/experiments/Knapen_AOT/AOT_stimuli/pictures/0420_fw.png	261.6335458755493	
164	198.84617280960083	picture	0		201	162.0	/experiments/Knapen_AOT/AOT_stimuli/pictures/1882_fw.png	261.6439015865326	1.6811625957489014
164	200.51089143753052	response	0	k		162.0	/experiments/Knapen_AOT/AOT_stimuli/pictures/1882_fw.png	263.3086202144623	
165	200.52733540534973	picture	0		328	163.0	/experiments/Knapen_AOT/AOT_stimuli/pictures/1460_fw.png	263.3250641822815	2.7416839599609375
165	203.25252079963684	response	0	k		163.0	/experiments/Knapen_AOT/AOT_stimuli/pictures/1460_fw.png	266.0502495765686	
166	203.26901936531067	picture	0		124	164.0	/experiments/Knapen_AOT/AOT_stimuli/pictures/0557_fw.png	266.06674814224243	1.0355274677276611
166	204.29438614845276	response	0	k		164.0	/experiments/Knapen_AOT/AOT_stimuli/pictures/0557_fw.png	267.0921149253845	
167	204.30454683303833	picture	0		159	165.0	/experiments/Knapen_AOT/AOT_stimuli/pictures/0875_fw.png	267.1022756099701	1.3311793804168701
167	205.61931777000427	response	0	k		165.0	/experiments/Knapen_AOT/AOT_stimuli/pictures/0875_fw.png	268.41704654693604	
168	205.6357262134552	picture	0		83	166.0	/experiments/Knapen_AOT/AOT_stimuli/pictures/0752_fw.png	268.43345499038696	0.7000129222869873
168	206.31949377059937	response	0	k		166.0	/experiments/Knapen_AOT/AOT_stimuli/pictures/0752_fw.png	269.1172225475311	
169	206.3357391357422	picture	0		136	167.0	/experiments/Knapen_AOT/AOT_stimuli/pictures/1254_fw.png	269.13346791267395	1.1354923248291016
169	207.4610915184021	response	0	k		167.0	/experiments/Knapen_AOT/AOT_stimuli/pictures/1254_fw.png	270.25882029533386	
170	207.4712314605713	picture	0		133	168.0	/experiments/Knapen_AOT/AOT_stimuli/pictures/1514_fw.png	270.26896023750305	1.1145193576812744
170	208.5692162513733	response	0	k		168.0	/experiments/Knapen_AOT/AOT_stimuli/pictures/1514_fw.png	271.36694502830505	
171	208.58575081825256	picture	0		114	169.0	/experiments/Knapen_AOT/AOT_stimuli/pictures/0480_fw.png	271.3834795951843	0.9584245681762695
171	209.52752470970154	response	0	j		169.0	/experiments/Knapen_AOT/AOT_stimuli/pictures/0480_fw.png	272.3252534866333	
172	209.54417538642883	picture	0		102	170.0	/experiments/Knapen_AOT/AOT_stimuli/pictures/2100_fw.png	272.3419041633606	0.8506929874420166
172	210.38589191436768	response	0	j		170.0	/experiments/Knapen_AOT/AOT_stimuli/pictures/2100_fw.png	273.18362069129944	
173	210.39486837387085	picture	0		250	171.0	/experiments/Knapen_AOT/AOT_stimuli/pictures/0630_fw.png	273.1925971508026	2.0909273624420166
173	212.4695131778717	response	0	k		171.0	/experiments/Knapen_AOT/AOT_stimuli/pictures/0630_fw.png	275.26724195480347	
174	212.48579573631287	picture	0		84	172.0	/experiments/Knapen_AOT/AOT_stimuli/pictures/0968_fw.png	275.28352451324463	0.7007510662078857
174	213.17764496803284	response	0	j		172.0	/experiments/Knapen_AOT/AOT_stimuli/pictures/0968_fw.png	275.9753737449646	
175	213.18654680252075	picture	0		230	173.0	/experiments/Knapen_AOT/AOT_stimuli/pictures/1180_fw.png	275.9842755794525	1.9166810512542725
175	215.0943193435669	response	0	k		173.0	/experiments/Knapen_AOT/AOT_stimuli/pictures/1180_fw.png	277.89204812049866	
176	215.10322785377502	picture	0		140	174.0	/experiments/Knapen_AOT/AOT_stimuli/pictures/0742_fw.png	277.9009566307068	1.16668701171875
176	216.2610342502594	response	0	k		174.0	/experiments/Knapen_AOT/AOT_stimuli/pictures/0742_fw.png	279.05876302719116	
177	216.26991486549377	picture	0		105	175.0	/experiments/Knapen_AOT/AOT_stimuli/pictures/0583_fw.png	279.06764364242554	0.8826076984405518
177	217.13605618476868	response	0	j		175.0	/experiments/Knapen_AOT/AOT_stimuli/pictures/0583_fw.png	279.93378496170044	
178	217.15252256393433	picture	0		143	176.0	/experiments/Knapen_AOT/AOT_stimuli/pictures/0359_fw.png	279.9502513408661	1.19378662109375
178	218.3360583782196	response	0	k		176.0	/experiments/Knapen_AOT/AOT_stimuli/pictures/0359_fw.png	281.13378715515137	
179	218.34630918502808	picture	0		123	177.0	/experiments/Knapen_AOT/AOT_stimuli/pictures/1912_fw.png	281.14403796195984	1.0312519073486328
179	219.3610646724701	response	0	k		177.0	/experiments/Knapen_AOT/AOT_stimuli/pictures/1912_fw.png	282.15879344940186	
180	219.3775610923767	picture	0		131	178.0	/experiments/Knapen_AOT/AOT_stimuli/pictures/0858_fw.png	282.1752898693085	1.0937635898590088
180	220.46104168891907	response	0	k		178.0	/experiments/Knapen_AOT/AOT_stimuli/pictures/0858_fw.png	283.25877046585083	
181	220.47132468223572	picture	0		153	179.0	/experiments/Knapen_AOT/AOT_stimuli/pictures/2023_fw.png	283.2690534591675	1.281259298324585
181	221.7360966205597	response	0	k		179.0	/experiments/Knapen_AOT/AOT_stimuli/pictures/2023_fw.png	284.53382539749146	
182	221.7525839805603	picture	0		102	180.0	/experiments/Knapen_AOT/AOT_stimuli/pictures/0150_fw.png	284.55031275749207	0.8507053852081299
182	222.59442448616028	response	0	j		180.0	/experiments/Knapen_AOT/AOT_stimuli/pictures/0150_fw.png	285.39215326309204	
183	222.60328936576843	picture	0		117	181.0	/experiments/Knapen_AOT/AOT_stimuli/pictures/0936_fw.png	285.4010181427002	0.9792063236236572
183	223.5694260597229	response	0	k		181.0	/experiments/Knapen_AOT/AOT_stimuli/pictures/0936_fw.png	286.36715483665466	
184	223.5824956893921	picture	0		101	182.0	/experiments/Knapen_AOT/AOT_stimuli/pictures/1546_fw.png	286.38022446632385	0.8471887111663818
184	224.41948056221008	response	0	j		182.0	/experiments/Knapen_AOT/AOT_stimuli/pictures/1546_fw.png	287.21720933914185	
185	224.42968440055847	picture	0		161	183.0	/experiments/Knapen_AOT/AOT_stimuli/pictures/0898_fw.png	287.22741317749023	1.347951889038086
185	225.761328458786	response	0	k		183.0	/experiments/Knapen_AOT/AOT_stimuli/pictures/0898_fw.png	288.5590572357178	
186	225.77763628959656	picture	0		88	184.0	/experiments/Knapen_AOT/AOT_stimuli/pictures/1477_fw.png	288.5753650665283	0.7353918552398682
186	226.5027995109558	response	0	j		184.0	/experiments/Knapen_AOT/AOT_stimuli/pictures/1477_fw.png	289.3005282878876	
187	226.51302814483643	picture	0		124	185.0	/experiments/Knapen_AOT/AOT_stimuli/pictures/1931_fw.png	289.3107569217682	1.0396478176116943
187	227.53623700141907	response	0	j		185.0	/experiments/Knapen_AOT/AOT_stimuli/pictures/1931_fw.png	290.33396577835083	
188	227.55267596244812	picture	0		139	186.0	/experiments/Knapen_AOT/AOT_stimuli/pictures/2017_fw.png	290.3504047393799	1.1617627143859863
188	228.70289850234985	response	0	j		186.0	/experiments/Knapen_AOT/AOT_stimuli/pictures/2017_fw.png	291.5006272792816	
189	228.7144386768341	picture	0		100	187.0	/experiments/Knapen_AOT/AOT_stimuli/pictures/1592_fw.png	291.51216745376587	0.8382353782653809
189	229.53621578216553	response	0	k		187.0	/experiments/Knapen_AOT/AOT_stimuli/pictures/1592_fw.png	292.3339445590973	
190	229.5526740550995	picture	0		103	188.0	/experiments/Knapen_AOT/AOT_stimuli/pictures/1599_fw.png	292.35040283203125	0.8631861209869385
190	230.40283203125	response	0	k		188.0	/experiments/Knapen_AOT/AOT_stimuli/pictures/1599_fw.png	293.20056080818176	
191	230.41586017608643	picture	0		107	189.0	/experiments/Knapen_AOT/AOT_stimuli/pictures/0438_fw.png	293.2135889530182	0.90350341796875
191	231.30290818214417	response	0	j		189.0	/experiments/Knapen_AOT/AOT_stimuli/pictures/0438_fw.png	294.1006369590759	
192	231.31936359405518	picture	0		293	190.0	/experiments/Knapen_AOT/AOT_stimuli/pictures/1214_fw.png	294.11709237098694	2.4437241554260254
192	233.75293612480164	response	0	k		190.0	/experiments/Knapen_AOT/AOT_stimuli/pictures/1214_fw.png	296.5506649017334	
193	233.7630877494812	picture	0		347	191.0	/experiments/Knapen_AOT/AOT_stimuli/pictures/0351_fw.png	296.56081652641296	2.8958723545074463
193	236.64462757110596	response	0	k		191.0	/experiments/Knapen_AOT/AOT_stimuli/pictures/0351_fw.png	299.4423563480377	
194	236.65896010398865	picture	0		133	192.0	/experiments/Knapen_AOT/AOT_stimuli/pictures/0507_fw.png	299.4566888809204	1.1188781261444092
194	237.76142382621765	response	0	k		192.0	/experiments/Knapen_AOT/AOT_stimuli/pictures/0507_fw.png	300.5591526031494	
195	237.77783823013306	picture	0		96	193.0	/experiments/Knapen_AOT/AOT_stimuli/pictures/1847_fw.png	300.5755670070648	0.8047301769256592
195	238.56960034370422	response	0	j		193.0	/experiments/Knapen_AOT/AOT_stimuli/pictures/1847_fw.png	301.367329120636	
196	238.58256840705872	picture	0		155	194.0	/experiments/Knapen_AOT/AOT_stimuli/pictures/0324_fw.png	301.3802971839905	1.3035759925842285
196	239.86982131004333	response	0	k		194.0	/experiments/Knapen_AOT/AOT_stimuli/pictures/0324_fw.png	302.6675500869751	
197	239.88614439964294	picture	0		112	195.0	/experiments/Knapen_AOT/AOT_stimuli/pictures/2151_fw.png	302.6838731765747	0.9395182132720947
197	240.8115210533142	response	0	k		195.0	/experiments/Knapen_AOT/AOT_stimuli/pictures/2151_fw.png	303.609249830246	
198	240.82566261291504	picture	0		107	196.0	/experiments/Knapen_AOT/AOT_stimuli/pictures/0785_fw.png	303.6233913898468	0.8958084583282471
198	241.71132850646973	response	0	k		196.0	/experiments/Knapen_AOT/AOT_stimuli/pictures/0785_fw.png	304.5090572834015	
199	241.7214710712433	picture	0		150	197.0	/experiments/Knapen_AOT/AOT_stimuli/pictures/1686_fw.png	304.51919984817505	1.250068187713623
199	242.9613893032074	response	0	k		197.0	/experiments/Knapen_AOT/AOT_stimuli/pictures/1686_fw.png	305.75911808013916	
200	242.9715392589569	picture	0		173	198.0	/experiments/Knapen_AOT/AOT_stimuli/pictures/0395_fw.png	305.7692680358887	1.4479904174804688
200	244.4030466079712	response	0	k		198.0	/experiments/Knapen_AOT/AOT_stimuli/pictures/0395_fw.png	307.20077538490295	
201	244.41952967643738	picture	0		139	199.0	/experiments/Knapen_AOT/AOT_stimuli/pictures/1954_fw.png	307.21725845336914	1.1630935668945312
201	245.56970524787903	response	0	k		199.0	/experiments/Knapen_AOT/AOT_stimuli/pictures/1954_fw.png	308.3674340248108	
202	245.5826232433319	picture	0		294	200.0	/experiments/Knapen_AOT/AOT_stimuli/pictures/1887_fw.png	308.3803520202637	2.4619646072387695
202	248.02811217308044	response	0	k		200.0	/experiments/Knapen_AOT/AOT_stimuli/pictures/1887_fw.png	310.8258409500122	
203	248.04458785057068	picture	0		102	201.0	/experiments/Knapen_AOT/AOT_stimuli/pictures/0466_fw.png	310.84231662750244	0.8506073951721191
203	248.88640427589417	response	0	k		201.0	/experiments/Knapen_AOT/AOT_stimuli/pictures/0466_fw.png	311.6841330528259	
204	248.8951952457428	picture	0		107	202.0	/experiments/Knapen_AOT/AOT_stimuli/pictures/1846_fw.png	311.69292402267456	0.8994283676147461
204	249.77815341949463	response	0	j		202.0	/experiments/Knapen_AOT/AOT_stimuli/pictures/1846_fw.png	312.5758821964264	
205	249.79462361335754	picture	0		266	203.0	/experiments/Knapen_AOT/AOT_stimuli/pictures/0299_fw.png	312.5923523902893	2.224997043609619
205	252.00314450263977	response	0	j		203.0	/experiments/Knapen_AOT/AOT_stimuli/pictures/0299_fw.png	314.80087327957153	
206	252.01962065696716	picture	0		110	204.0	/experiments/Knapen_AOT/AOT_stimuli/pictures/0055_fw.png	314.8173494338989	0.9172065258026123
206	252.92812871932983	response	0	k		204.0	/experiments/Knapen_AOT/AOT_stimuli/pictures/0055_fw.png	315.7258574962616	
207	252.93682718276978	picture	0		105	205.0	/experiments/Knapen_AOT/AOT_stimuli/pictures/0491_fw.png	315.73455595970154	0.8749847412109375
207	253.80314588546753	response	0	j		205.0	/experiments/Knapen_AOT/AOT_stimuli/pictures/0491_fw.png	316.6008746623993	
208	253.8118119239807	picture	0		223	206.0	/experiments/Knapen_AOT/AOT_stimuli/pictures/1162_fw.png	316.6095407009125	1.8662123680114746
208	255.66149258613586	response	0	k		206.0	/experiments/Knapen_AOT/AOT_stimuli/pictures/1162_fw.png	318.4592213630676	
209	255.6780242919922	picture	0		93	207.0	/experiments/Knapen_AOT/AOT_stimuli/pictures/0243_fw.png	318.47575306892395	0.7833294868469238
209	256.44503378868103	response	0	j		207.0	/experiments/Knapen_AOT/AOT_stimuli/pictures/0243_fw.png	319.2427625656128	
210	256.4613537788391	picture	0		118	208.0	/experiments/Knapen_AOT/AOT_stimuli/pictures/0679_fw.png	319.2590825557709	0.9917049407958984
210	257.43654680252075	response	0	k		208.0	/experiments/Knapen_AOT/AOT_stimuli/pictures/0679_fw.png	320.2342755794525	
211	257.453058719635	picture	0		122	209.0	/experiments/Knapen_AOT/AOT_stimuli/pictures/2086_fw.png	320.2507874965668	1.0249919891357422
211	258.4620623588562	response	0	k		209.0	/experiments/Knapen_AOT/AOT_stimuli/pictures/2086_fw.png	321.25979113578796	
212	258.47805070877075	picture	0		135	210.0	/experiments/Knapen_AOT/AOT_stimuli/pictures/1502_fw.png	321.2757794857025	1.1333270072937012
212	259.5948853492737	response	0	k		210.0	/experiments/Knapen_AOT/AOT_stimuli/pictures/1502_fw.png	322.39261412620544	
213	259.61137771606445	picture	0		90	211.0	/experiments/Knapen_AOT/AOT_stimuli/pictures/1531_fw.png	322.4091064929962	0.7499821186065674
213	260.3532249927521	response	0	k		211.0	/experiments/Knapen_AOT/AOT_stimuli/pictures/1531_fw.png	323.15095376968384	
214	260.361359834671	picture	0		258	212.0	/experiments/Knapen_AOT/AOT_stimuli/pictures/1486_fw.png	323.1590886116028	2.15191912651062
214	262.50324392318726	response	0	j		212.0	/experiments/Knapen_AOT/AOT_stimuli/pictures/1486_fw.png	325.300972700119	
215	262.51327896118164	picture	0		145	213.0	/experiments/Knapen_AOT/AOT_stimuli/pictures/1329_fw.png	325.3110077381134	1.2148594856262207
215	263.71158719062805	response	0	k		213.0	/experiments/Knapen_AOT/AOT_stimuli/pictures/1329_fw.png	326.5093159675598	
216	263.72813844680786	picture	0		121	214.0	/experiments/Knapen_AOT/AOT_stimuli/pictures/1818_fw.png	326.5258672237396	1.0143437385559082
216	264.7283000946045	response	0	k		214.0	/experiments/Knapen_AOT/AOT_stimuli/pictures/1818_fw.png	327.52602887153625	
217	264.74248218536377	picture	0		232	215.0	/experiments/Knapen_AOT/AOT_stimuli/pictures/0992_fw.png	327.54021096229553	1.9439985752105713
217	266.67002511024475	response	0	k		215.0	/experiments/Knapen_AOT/AOT_stimuli/pictures/0992_fw.png	329.4677538871765	
218	266.68648076057434	picture	0		168	216.0	/experiments/Knapen_AOT/AOT_stimuli/pictures/0415_fw.png	329.4842095375061	1.4032301902770996
218	268.07832884788513	response	0	k		216.0	/experiments/Knapen_AOT/AOT_stimuli/pictures/0415_fw.png	330.8760576248169	
219	268.08971095085144	picture	0		172	217.0	/experiments/Knapen_AOT/AOT_stimuli/pictures/0003_fw.png	330.8874397277832	1.4305524826049805
219	269.51168417930603	response	0	k		217.0	/experiments/Knapen_AOT/AOT_stimuli/pictures/0003_fw.png	332.3094129562378	
220	269.5202634334564	picture	0		107	218.0	/experiments/Knapen_AOT/AOT_stimuli/pictures/0297_fw.png	332.3179922103882	0.8959555625915527
220	270.4033315181732	response	0	j		218.0	/experiments/Knapen_AOT/AOT_stimuli/pictures/0297_fw.png	333.201060295105	
221	270.416218996048	picture	0		102	219.0	/experiments/Knapen_AOT/AOT_stimuli/pictures/0418_fw.png	333.21394777297974	0.8540513515472412
221	271.26186776161194	response	0	j		219.0	/experiments/Knapen_AOT/AOT_stimuli/pictures/0418_fw.png	334.0595965385437	
222	271.2702703475952	picture	0		107	220.0	/experiments/Knapen_AOT/AOT_stimuli/pictures/0571_fw.png	334.067999124527	0.8958718776702881
222	272.1533966064453	response	0	k		220.0	/experiments/Knapen_AOT/AOT_stimuli/pictures/0571_fw.png	334.9511253833771	
223	272.1661422252655	picture	0		105	221.0	/experiments/Knapen_AOT/AOT_stimuli/pictures/0452_fw.png	334.96387100219727	0.8819389343261719
223	273.0367317199707	response	0	j		221.0	/experiments/Knapen_AOT/AOT_stimuli/pictures/0452_fw.png	335.83446049690247	
224	273.0480811595917	picture	0		117	222.0	/experiments/Knapen_AOT/AOT_stimuli/pictures/0850_fw.png	335.84580993652344	0.9722106456756592
224	274.011771440506	response	0	k		222.0	/experiments/Knapen_AOT/AOT_stimuli/pictures/0850_fw.png	336.80950021743774	
225	274.02029180526733	picture	0		127	223.0	/experiments/Knapen_AOT/AOT_stimuli/pictures/1116_fw.png	336.8180205821991	1.0625481605529785
225	275.0700795650482	response	0	k		223.0	/experiments/Knapen_AOT/AOT_stimuli/pictures/1116_fw.png	337.86780834198	
226	275.0828399658203	picture	0		176	224.0	/experiments/Knapen_AOT/AOT_stimuli/pictures/0864_fw.png	337.8805687427521	1.4722068309783936
226	276.54511880874634	response	0	k		224.0	/experiments/Knapen_AOT/AOT_stimuli/pictures/0864_fw.png	339.3428475856781	
227	276.5550467967987	picture	0		134	225.0	/experiments/Knapen_AOT/AOT_stimuli/pictures/0339_fw.png	339.35277557373047	1.1180710792541504
227	277.6544198989868	response	0	j		225.0	/experiments/Knapen_AOT/AOT_stimuli/pictures/0339_fw.png	340.4521486759186	
228	277.67311787605286	picture	0		140	226.0	/experiments/Knapen_AOT/AOT_stimuli/pictures/0289_fw.png	340.4708466529846	1.166670322418213
228	278.82882857322693	response	0	j		226.0	/experiments/Knapen_AOT/AOT_stimuli/pictures/0289_fw.png	341.6265573501587	
229	278.83978819847107	picture	0		118	227.0	/experiments/Knapen_AOT/AOT_stimuli/pictures/0125_fw.png	341.63751697540283	0.9862260818481445
229	279.81216049194336	response	0	j		227.0	/experiments/Knapen_AOT/AOT_stimuli/pictures/0125_fw.png	342.6098892688751	
230	279.8260142803192	picture	0		100	228.0	/experiments/Knapen_AOT/AOT_stimuli/pictures/0900_fw.png	342.623743057251	0.8401801586151123
230	280.6466016769409	response	0	k		228.0	/experiments/Knapen_AOT/AOT_stimuli/pictures/0900_fw.png	343.4443304538727	
231	280.6661944389343	picture	0		120	229.0	/experiments/Knapen_AOT/AOT_stimuli/pictures/1157_fw.png	343.4639232158661	1.0121605396270752
231	281.65443181991577	response	0	j		229.0	/experiments/Knapen_AOT/AOT_stimuli/pictures/1157_fw.png	344.45216059684753	
232	281.6783549785614	picture	0		128	230.0	/experiments/Knapen_AOT/AOT_stimuli/pictures/1307_fw.png	344.47608375549316	1.0749742984771729
232	282.73675537109375	response	0	j		230.0	/experiments/Knapen_AOT/AOT_stimuli/pictures/1307_fw.png	345.5344841480255	
233	282.7533292770386	picture	0		186	231.0	/experiments/Knapen_AOT/AOT_stimuli/pictures/1794_fw.png	345.55105805397034	1.5517663955688477
233	284.29511070251465	response	0	j		231.0	/experiments/Knapen_AOT/AOT_stimuli/pictures/1794_fw.png	347.0928394794464	
234	284.3050956726074	picture	0		96	232.0	/experiments/Knapen_AOT/AOT_stimuli/pictures/1922_fw.png	347.1028244495392	0.7986061573028564
234	285.09512090682983	response	0	j		232.0	/experiments/Knapen_AOT/AOT_stimuli/pictures/1922_fw.png	347.8928496837616	
235	285.1037018299103	picture	0		106	233.0	/experiments/Knapen_AOT/AOT_stimuli/pictures/1283_fw.png	347.90143060684204	0.8889374732971191
235	285.97853326797485	response	0	k		233.0	/experiments/Knapen_AOT/AOT_stimuli/pictures/1283_fw.png	348.7762620449066	
236	285.9926393032074	picture	0		105	234.0	/experiments/Knapen_AOT/AOT_stimuli/pictures/0236_fw.png	348.79036808013916	0.8857438564300537
236	286.85563492774963	response	0	k		234.0	/experiments/Knapen_AOT/AOT_stimuli/pictures/0236_fw.png	349.6533637046814	
237	286.87838315963745	picture	0		93	235.0	/experiments/Knapen_AOT/AOT_stimuli/pictures/1000_fw.png	349.6761119365692	0.7833395004272461
237	287.6382577419281	response	0	k		235.0	/experiments/Knapen_AOT/AOT_stimuli/pictures/1000_fw.png	350.43598651885986	
238	287.6617226600647	picture	0		103	236.0	/experiments/Knapen_AOT/AOT_stimuli/pictures/0783_fw.png	350.45945143699646	0.8586685657501221
238	288.5118582248688	response	0	k		236.0	/experiments/Knapen_AOT/AOT_stimuli/pictures/0783_fw.png	351.30958700180054	
239	288.5203912258148	picture	0		159	237.0	/experiments/Knapen_AOT/AOT_stimuli/pictures/0745_fw.png	351.3181200027466	1.3330457210540771
239	289.8370544910431	response	0	k		237.0	/experiments/Knapen_AOT/AOT_stimuli/pictures/0745_fw.png	352.63478326797485	
240	289.8534369468689	picture	0		275	238.0	/experiments/Knapen_AOT/AOT_stimuli/pictures/1759_fw.png	352.65116572380066	2.3000175952911377
240	292.1369457244873	response	0	k		238.0	/experiments/Knapen_AOT/AOT_stimuli/pictures/1759_fw.png	354.93467450141907	
241	292.15345454216003	picture	0		112	239.0	/experiments/Knapen_AOT/AOT_stimuli/pictures/1309_fw.png	354.9511833190918	0.9364371299743652
241	293.07857298851013	response	0	k		239.0	/experiments/Knapen_AOT/AOT_stimuli/pictures/1309_fw.png	355.8763017654419	
242	293.0898916721344	picture	0		255	240.0	/experiments/Knapen_AOT/AOT_stimuli/pictures/1638_fw.png	355.88762044906616	2.130305290222168
242	295.20375633239746	response	0	k		240.0	/experiments/Knapen_AOT/AOT_stimuli/pictures/1638_fw.png	358.0014851093292	
243	295.22019696235657	picture	0		145	241.0	/experiments/Knapen_AOT/AOT_stimuli/pictures/0335_fw.png	358.01792573928833	1.2100026607513428
243	296.42028760910034	response	0	j		241.0	/experiments/Knapen_AOT/AOT_stimuli/pictures/0335_fw.png	359.2180163860321	
244	296.4301996231079	picture	0		89	242.0	/experiments/Knapen_AOT/AOT_stimuli/pictures/0246_fw.png	359.2279284000397	0.7430448532104492
244	297.16196751594543	response	0	k		242.0	/experiments/Knapen_AOT/AOT_stimuli/pictures/0246_fw.png	359.9596962928772	
245	297.17324447631836	picture	0		103	243.0	/experiments/Knapen_AOT/AOT_stimuli/pictures/2080_fw.png	359.9709732532501	0.8636384010314941
245	298.02029824256897	response	0	j		243.0	/experiments/Knapen_AOT/AOT_stimuli/pictures/2080_fw.png	360.81802701950073	
246	298.03688287734985	picture	0		91	244.0	/experiments/Knapen_AOT/AOT_stimuli/pictures/2004_fw.png	360.8346116542816	0.7613775730133057
246	298.78697180747986	response	0	j		244.0	/experiments/Knapen_AOT/AOT_stimuli/pictures/2004_fw.png	361.5847005844116	
247	298.79826045036316	picture	0		112	245.0	/experiments/Knapen_AOT/AOT_stimuli/pictures/1126_fw.png	361.5959892272949	0.9305510520935059
247	299.72031450271606	response	0	j		245.0	/experiments/Knapen_AOT/AOT_stimuli/pictures/1126_fw.png	362.5180432796478	
248	299.72881150245667	picture	0		109	246.0	/experiments/Knapen_AOT/AOT_stimuli/pictures/2119_fw.png	362.5265402793884	0.9164402484893799
248	300.6286702156067	response	0	k		246.0	/experiments/Knapen_AOT/AOT_stimuli/pictures/2119_fw.png	363.42639899253845	
249	300.64525175094604	picture	0		134	247.0	/experiments/Knapen_AOT/AOT_stimuli/pictures/0469_fw.png	363.4429805278778	1.1249747276306152
249	301.7536735534668	response	0	j		247.0	/experiments/Knapen_AOT/AOT_stimuli/pictures/0469_fw.png	364.55140233039856	
250	301.77022647857666	picture	0		101	248.0	/experiments/Knapen_AOT/AOT_stimuli/pictures/1506_fw.png	364.5679552555084	0.8499994277954102
250	302.6038429737091	response	0	k		248.0	/experiments/Knapen_AOT/AOT_stimuli/pictures/1506_fw.png	365.40157175064087	
251	302.62022590637207	picture	0		96	249.0	/experiments/Knapen_AOT/AOT_stimuli/pictures/1650_fw.png	365.41795468330383	0.8030672073364258
251	303.41202545166016	response	0	k		249.0	/experiments/Knapen_AOT/AOT_stimuli/pictures/1650_fw.png	366.2097542285919	
252	303.4232931137085	picture	0		106	250.0	/experiments/Knapen_AOT/AOT_stimuli/pictures/1601_fw.png	366.22102189064026	0.8886518478393555
252	304.29536747932434	response	0	k		250.0	/experiments/Knapen_AOT/AOT_stimuli/pictures/1601_fw.png	367.0930962562561	
253	304.31194496154785	picture	0		154	251.0	/experiments/Knapen_AOT/AOT_stimuli/pictures/1201_fw.png	367.1096737384796	1.2849788665771484
253	305.5870637893677	response	0	k		251.0	/experiments/Knapen_AOT/AOT_stimuli/pictures/1201_fw.png	368.38479256629944	
254	305.596923828125	picture	0		225	252.0	/experiments/Knapen_AOT/AOT_stimuli/pictures/0036_fw.png	368.39465260505676	1.875009298324585
254	307.4620840549469	response	0	k		252.0	/experiments/Knapen_AOT/AOT_stimuli/pictures/0036_fw.png	370.25981283187866	
255	307.4719331264496	picture	0		185	253.0	/experiments/Knapen_AOT/AOT_stimuli/pictures/1660_fw.png	370.26966190338135	1.548405408859253
255	309.00375151634216	response	0	k		253.0	/experiments/Knapen_AOT/AOT_stimuli/pictures/1660_fw.png	371.8014802932739	
256	309.02033853530884	picture	0		101	254.0	/experiments/Knapen_AOT/AOT_stimuli/pictures/0483_fw.png	371.8180673122406	0.8474671840667725
256	309.84633898735046	response	0	j		254.0	/experiments/Knapen_AOT/AOT_stimuli/pictures/0483_fw.png	372.6440677642822	
257	309.8678057193756	picture	0		108	255.0	/experiments/Knapen_AOT/AOT_stimuli/pictures/2122_fw.png	372.6655344963074	0.9027454853057861
257	310.7621386051178	response	0	k		255.0	/experiments/Knapen_AOT/AOT_stimuli/pictures/2122_fw.png	373.55986738204956	
258	310.7705512046814	picture	0		130	256.0	/experiments/Knapen_AOT/AOT_stimuli/pictures/0601_fw.png	373.56827998161316	1.0833427906036377
258	311.838027715683	response	0	k		256.0	/experiments/Knapen_AOT/AOT_stimuli/pictures/0601_fw.png	374.63575649261475	
259	311.85389399528503	picture	0		109	257.0	/experiments/Knapen_AOT/AOT_stimuli/pictures/0564_fw.png	374.6516227722168	0.916534423828125
259	312.7537953853607	response	0	j		257.0	/experiments/Knapen_AOT/AOT_stimuli/pictures/0564_fw.png	375.5515241622925	
260	312.77042841911316	picture	0		82	258.0	/experiments/Knapen_AOT/AOT_stimuli/pictures/1419_fw.png	375.5681571960449	0.6876668930053711
260	313.44547271728516	response	0	j		258.0	/experiments/Knapen_AOT/AOT_stimuli/pictures/1419_fw.png	376.2432014942169	
261	313.45809531211853	picture	0		90	259.0	/experiments/Knapen_AOT/AOT_stimuli/pictures/0429_fw.png	376.2558240890503	0.7539598941802979
261	314.1954779624939	response	0	k		259.0	/experiments/Knapen_AOT/AOT_stimuli/pictures/0429_fw.png	376.99320673942566	
262	314.2120552062988	picture	0		121	260.0	/experiments/Knapen_AOT/AOT_stimuli/pictures/0822_fw.png	377.0097839832306	1.0167028903961182
262	315.21218967437744	response	0	j		260.0	/experiments/Knapen_AOT/AOT_stimuli/pictures/0822_fw.png	378.0099184513092	
263	315.22875809669495	picture	0		125	261.0	/experiments/Knapen_AOT/AOT_stimuli/pictures/1359_fw.png	378.0264868736267	1.041825294494629
263	316.2622094154358	response	0	j		261.0	/experiments/Knapen_AOT/AOT_stimuli/pictures/1359_fw.png	379.05993819236755	
264	316.2705833911896	picture	0		97	262.0	/experiments/Knapen_AOT/AOT_stimuli/pictures/0748_fw.png	379.06831216812134	0.8125653266906738
264	317.07052850723267	response	0	j		262.0	/experiments/Knapen_AOT/AOT_stimuli/pictures/0748_fw.png	379.86825728416443	
265	317.08314871788025	picture	0		254	263.0	/experiments/Knapen_AOT/AOT_stimuli/pictures/0885_fw.png	379.880877494812	2.1180593967437744
265	319.187228679657	response	0	j		263.0	/experiments/Knapen_AOT/AOT_stimuli/pictures/0885_fw.png	381.98495745658875	
266	319.201208114624	picture	0		152	264.0	/experiments/Knapen_AOT/AOT_stimuli/pictures/0434_fw.png	381.9989368915558	1.2776005268096924
266	320.46225452423096	response	0	k		264.0	/experiments/Knapen_AOT/AOT_stimuli/pictures/0434_fw.png	383.2599833011627	
267	320.4788086414337	picture	0		102	265.0	/experiments/Knapen_AOT/AOT_stimuli/pictures/0322_fw.png	383.2765374183655	0.8543365001678467
267	321.320588350296	response	0	j		265.0	/experiments/Knapen_AOT/AOT_stimuli/pictures/0322_fw.png	384.1183171272278	
268	321.33314514160156	picture	0		166	266.0	/experiments/Knapen_AOT/AOT_stimuli/pictures/1420_fw.png	384.1308739185333	1.381960153579712
268	322.70393538475037	response	0	k		266.0	/experiments/Knapen_AOT/AOT_stimuli/pictures/1420_fw.png	385.50166416168213	
269	322.7151052951813	picture	0		137	267.0	/experiments/Knapen_AOT/AOT_stimuli/pictures/0926_fw.png	385.51283407211304	1.1470773220062256
269	323.8459188938141	response	0	j		267.0	/experiments/Knapen_AOT/AOT_stimuli/pictures/0926_fw.png	386.64364767074585	
270	323.8621826171875	picture	0		97	268.0	/experiments/Knapen_AOT/AOT_stimuli/pictures/0379_fw.png	386.65991139411926	0.8112590312957764
270	324.66228914260864	response	0	j		268.0	/experiments/Knapen_AOT/AOT_stimuli/pictures/0379_fw.png	387.4600179195404	
271	324.6734416484833	picture	0		127	269.0	/experiments/Knapen_AOT/AOT_stimuli/pictures/1327_fw.png	387.47117042541504	1.063767433166504
271	325.7206609249115	response	0	k		269.0	/experiments/Knapen_AOT/AOT_stimuli/pictures/1327_fw.png	388.51838970184326	
272	325.7372090816498	picture	0		105	270.0	/experiments/Knapen_AOT/AOT_stimuli/pictures/1140_fw.png	388.53493785858154	0.8833620548248291
272	326.60400891304016	response	0	j		270.0	/experiments/Knapen_AOT/AOT_stimuli/pictures/1140_fw.png	389.4017376899719	
273	326.6205711364746	picture	0		123	271.0	/experiments/Knapen_AOT/AOT_stimuli/pictures/0627_fw.png	389.4182999134064	1.0333476066589355
273	327.6304531097412	response	0	k		271.0	/experiments/Knapen_AOT/AOT_stimuli/pictures/0627_fw.png	390.428181886673	
274	327.65391874313354	picture	0		91	272.0	/experiments/Knapen_AOT/AOT_stimuli/pictures/0124_fw.png	390.4516475200653	0.762643575668335
274	328.404016494751	response	0	j		272.0	/experiments/Knapen_AOT/AOT_stimuli/pictures/0124_fw.png	391.20174527168274	
275	328.4165623188019	picture	0		101	273.0	/experiments/Knapen_AOT/AOT_stimuli/pictures/0390_fw.png	391.21429109573364	0.8402423858642578
275	329.23804450035095	response	0	k		273.0	/experiments/Knapen_AOT/AOT_stimuli/pictures/0390_fw.png	392.0357732772827	
276	329.25680470466614	picture	0		105	274.0	/experiments/Knapen_AOT/AOT_stimuli/pictures/1250_fw.png	392.0545334815979	0.8804569244384766
276	330.12072491645813	response	0	j		274.0	/experiments/Knapen_AOT/AOT_stimuli/pictures/1250_fw.png	392.9184536933899	
277	330.1372616291046	picture	0		108	275.0	/experiments/Knapen_AOT/AOT_stimuli/pictures/0854_fw.png	392.9349904060364	0.9083304405212402
277	331.0290641784668	response	0	k		275.0	/experiments/Knapen_AOT/AOT_stimuli/pictures/0854_fw.png	393.82679295539856	
278	331.04559206962585	picture	0		122	276.0	/experiments/Knapen_AOT/AOT_stimuli/pictures/0757_fw.png	393.8433208465576	1.025041103363037
278	332.05410385131836	response	0	k		276.0	/experiments/Knapen_AOT/AOT_stimuli/pictures/0757_fw.png	394.8518326282501	
279	332.0706331729889	picture	0		111	277.0	/experiments/Knapen_AOT/AOT_stimuli/pictures/2128_fw.png	394.86836194992065	0.9333219528198242
279	332.98739862442017	response	0	j		277.0	/experiments/Knapen_AOT/AOT_stimuli/pictures/2128_fw.png	395.78512740135193	
280	333.0039551258087	picture	0		92	278.0	/experiments/Knapen_AOT/AOT_stimuli/pictures/1133_fw.png	395.8016839027405	0.7667531967163086
280	333.76240611076355	response	0	j		278.0	/experiments/Knapen_AOT/AOT_stimuli/pictures/1133_fw.png	396.5601348876953	
281	333.770708322525	picture	0		87	279.0	/experiments/Knapen_AOT/AOT_stimuli/pictures/0984_fw.png	396.5684370994568	0.7292075157165527
281	334.4874019622803	response	0	k		279.0	/experiments/Knapen_AOT/AOT_stimuli/pictures/0984_fw.png	397.28513073921204	
282	334.4999158382416	picture	0		119	280.0	/experiments/Knapen_AOT/AOT_stimuli/pictures/0732_fw.png	397.29764461517334	1.0040781497955322
282	335.487402677536	response	0	j		280.0	/experiments/Knapen_AOT/AOT_stimuli/pictures/0732_fw.png	398.2851314544678	
283	335.5039939880371	picture	0		131	281.0	/experiments/Knapen_AOT/AOT_stimuli/pictures/0298_fw.png	398.3017227649689	1.0931520462036133
283	336.58743715286255	response	0	k		281.0	/experiments/Knapen_AOT/AOT_stimuli/pictures/0298_fw.png	399.3851659297943	
284	336.5971460342407	picture	0		228	282.0	/experiments/Knapen_AOT/AOT_stimuli/pictures/1530_fw.png	399.3948748111725	1.9069015979766846
284	338.48749685287476	response	0	k		282.0	/experiments/Knapen_AOT/AOT_stimuli/pictures/1530_fw.png	401.2852256298065	
285	338.5040476322174	picture	0		88	283.0	/experiments/Knapen_AOT/AOT_stimuli/pictures/1333_fw.png	401.30177640914917	0.7389678955078125
285	339.2294068336487	response	0	j		283.0	/experiments/Knapen_AOT/AOT_stimuli/pictures/1333_fw.png	402.02713561058044	
286	339.2430155277252	picture	0		118	284.0	/experiments/Knapen_AOT/AOT_stimuli/pictures/1928_fw.png	402.040744304657	0.9943602085113525
286	340.2139585018158	response	0	j		284.0	/experiments/Knapen_AOT/AOT_stimuli/pictures/1928_fw.png	403.01168727874756	
287	340.2373757362366	picture	0		167	285.0	/experiments/Knapen_AOT/AOT_stimuli/pictures/1461_fw.png	403.03510451316833	1.4000401496887207
287	341.6208279132843	response	0	k		285.0	/experiments/Knapen_AOT/AOT_stimuli/pictures/1461_fw.png	404.41855669021606	
288	341.6374158859253	picture	0		101	286.0	/experiments/Knapen_AOT/AOT_stimuli/pictures/0112_fw.png	404.43514466285706	0.8499844074249268
288	342.47083806991577	response	0	k		286.0	/experiments/Knapen_AOT/AOT_stimuli/pictures/0112_fw.png	405.26856684684753	
289	342.4874002933502	picture	0		92	287.0	/experiments/Knapen_AOT/AOT_stimuli/pictures/0938_fw.png	405.285129070282	0.7750217914581299
289	343.23874831199646	response	0	j		287.0	/experiments/Knapen_AOT/AOT_stimuli/pictures/0938_fw.png	406.0364770889282	
290	343.26242208480835	picture	0		276	288.0	/experiments/Knapen_AOT/AOT_stimuli/pictures/1291_fw.png	406.0601508617401	2.300034523010254
290	345.55421805381775	response	0	k		288.0	/experiments/Knapen_AOT/AOT_stimuli/pictures/1291_fw.png	408.3519468307495	
291	345.5624566078186	picture	0		86	289.0	/experiments/Knapen_AOT/AOT_stimuli/pictures/1935_fw.png	408.36018538475037	0.7249946594238281
291	346.27092695236206	response	0	k		289.0	/experiments/Knapen_AOT/AOT_stimuli/pictures/1935_fw.png	409.0686557292938	
292	346.28745126724243	picture	0		270	290.0	/experiments/Knapen_AOT/AOT_stimuli/pictures/0470_fw.png	409.0851800441742	2.2542126178741455
292	348.5292387008667	response	0	k		290.0	/experiments/Knapen_AOT/AOT_stimuli/pictures/0470_fw.png	411.32696747779846	
293	348.5416638851166	picture	0		181	291.0	/experiments/Knapen_AOT/AOT_stimuli/pictures/0462_fw.png	411.33939266204834	1.5125277042388916
293	350.03020882606506	response	0	j		291.0	/experiments/Knapen_AOT/AOT_stimuli/pictures/0462_fw.png	412.8279376029968	
294	350.05419158935547	picture	0		95	292.0	/experiments/Knapen_AOT/AOT_stimuli/pictures/0740_fw.png	412.85192036628723	0.8000204563140869
294	350.8305752277374	response	0	k		292.0	/experiments/Knapen_AOT/AOT_stimuli/pictures/0740_fw.png	413.6283040046692	
295	350.85421204566956	picture	0		106	293.0	/experiments/Knapen_AOT/AOT_stimuli/pictures/1317_fw.png	413.6519408226013	0.8888850212097168
295	351.7293107509613	response	0	k		293.0	/experiments/Knapen_AOT/AOT_stimuli/pictures/1317_fw.png	414.52703952789307	
296	351.7430970668793	picture	0		154	294.0	/experiments/Knapen_AOT/AOT_stimuli/pictures/1554_fw.png	414.54082584381104	1.2944536209106445
296	353.02105689048767	response	0	k		294.0	/experiments/Knapen_AOT/AOT_stimuli/pictures/1554_fw.png	415.81878566741943	
297	353.0375506877899	picture	0		140	295.0	/experiments/Knapen_AOT/AOT_stimuli/pictures/0810_fw.png	415.8352794647217	1.1750133037567139
297	354.19601798057556	response	0	k		295.0	/experiments/Knapen_AOT/AOT_stimuli/pictures/0810_fw.png	416.9937467575073	
298	354.21256399154663	picture	0		113	296.0	/experiments/Knapen_AOT/AOT_stimuli/pictures/0713_fw.png	417.0102927684784	0.9472131729125977
298	355.14603757858276	response	0	j		296.0	/experiments/Knapen_AOT/AOT_stimuli/pictures/0713_fw.png	417.9437663555145	
299	355.15977716445923	picture	0		104	297.0	/experiments/Knapen_AOT/AOT_stimuli/pictures/0477_fw.png	417.957505941391	0.8777866363525391
299	356.02125096321106	response	0	j		297.0	/experiments/Knapen_AOT/AOT_stimuli/pictures/0477_fw.png	418.8189797401428	
300	356.03756380081177	picture	0		221	298.0	/experiments/Knapen_AOT/AOT_stimuli/pictures/1459_fw.png	418.83529257774353	1.8500349521636963
300	357.8710527420044	response	0	j		298.0	/experiments/Knapen_AOT/AOT_stimuli/pictures/1459_fw.png	420.66878151893616	
301	357.88759875297546	picture	0		128	299.0	/experiments/Knapen_AOT/AOT_stimuli/pictures/1376_fw.png	420.6853275299072	1.070812702178955
301	358.94604539871216	response	0	j		299.0	/experiments/Knapen_AOT/AOT_stimuli/pictures/1376_fw.png	421.7437741756439	
302	358.9584114551544	picture	0		176	300.0	/experiments/Knapen_AOT/AOT_stimuli/pictures/1688_fw.png	421.7561402320862	1.4708716869354248
302	360.412713766098	response	0	k		300.0	/experiments/Knapen_AOT/AOT_stimuli/pictures/1688_fw.png	423.2104425430298	
303	360.42928314208984	picture	0		121	301.0	/experiments/Knapen_AOT/AOT_stimuli/pictures/0234_fw.png	423.2270119190216	1.0166821479797363
303	361.4224736690521	response	0	j		301.0	/experiments/Knapen_AOT/AOT_stimuli/pictures/0234_fw.png	424.2202024459839	
304	361.4459652900696	picture	0		100	302.0	/experiments/Knapen_AOT/AOT_stimuli/pictures/0088_fw.png	424.24369406700134	0.838869571685791
304	362.2710819244385	response	0	k		302.0	/experiments/Knapen_AOT/AOT_stimuli/pictures/0088_fw.png	425.06881070137024	
305	362.28483486175537	picture	0		109	303.0	/experiments/Knapen_AOT/AOT_stimuli/pictures/1946_fw.png	425.08256363868713	0.9167640209197998
305	363.1877546310425	response	0	j		303.0	/experiments/Knapen_AOT/AOT_stimuli/pictures/1946_fw.png	425.98548340797424	
306	363.20159888267517	picture	0		307	304.0	/experiments/Knapen_AOT/AOT_stimuli/pictures/0097_fw.png	425.99932765960693	2.562410354614258
306	365.7544615268707	response	0	k		304.0	/experiments/Knapen_AOT/AOT_stimuli/pictures/0097_fw.png	428.5521903038025	
307	365.76400923728943	picture	0		111	305.0	/experiments/Knapen_AOT/AOT_stimuli/pictures/1854_fw.png	428.5617380142212	0.932034969329834
307	366.67953538894653	response	0	k		305.0	/experiments/Knapen_AOT/AOT_stimuli/pictures/1854_fw.png	429.4772641658783	
308	366.69604420661926	picture	0		97	306.0	/experiments/Knapen_AOT/AOT_stimuli/pictures/1511_fw.png	429.493772983551	0.8110315799713135
308	367.4961428642273	response	0	j		306.0	/experiments/Knapen_AOT/AOT_stimuli/pictures/1511_fw.png	430.29387164115906	
309	367.5070757865906	picture	0		372	307.0	/experiments/Knapen_AOT/AOT_stimuli/pictures/0078_fw.png	430.30480456352234	3.1056857109069824
309	370.5962152481079	response	0	k		307.0	/experiments/Knapen_AOT/AOT_stimuli/pictures/0078_fw.png	433.3939440250397	
310	370.61276149749756	picture	0		119	308.0	/experiments/Knapen_AOT/AOT_stimuli/pictures/0721_fw.png	433.4104902744293	1.0000028610229492
310	371.59620118141174	response	0	k		308.0	/experiments/Knapen_AOT/AOT_stimuli/pictures/0721_fw.png	434.3939299583435	
311	371.6127643585205	picture	0		85	309.0	/experiments/Knapen_AOT/AOT_stimuli/pictures/2060_fw.png	434.41049313545227	0.7166833877563477
311	372.312885761261	response	0	k		309.0	/experiments/Knapen_AOT/AOT_stimuli/pictures/2060_fw.png	435.11061453819275	
312	372.32944774627686	picture	0		186	310.0	/experiments/Knapen_AOT/AOT_stimuli/pictures/1690_fw.png	435.1271765232086	1.5583641529083252
312	373.87138652801514	response	0	k		310.0	/experiments/Knapen_AOT/AOT_stimuli/pictures/1690_fw.png	436.6691153049469	
313	373.8878118991852	picture	0		136	311.0	/experiments/Knapen_AOT/AOT_stimuli/pictures/1239_fw.png	436.68554067611694	1.1416881084442139
313	375.0131275653839	response	0	k		311.0	/experiments/Knapen_AOT/AOT_stimuli/pictures/1239_fw.png	437.8108563423157	
314	375.0295000076294	picture	0		146	312.0	/experiments/Knapen_AOT/AOT_stimuli/pictures/0589_fw.png	437.82722878456116	1.2207207679748535
314	376.23806262016296	response	0	k		312.0	/experiments/Knapen_AOT/AOT_stimuli/pictures/0589_fw.png	439.0357913970947	
315	376.25022077560425	picture	0		127	313.0	/experiments/Knapen_AOT/AOT_stimuli/pictures/0883_fw.png	439.047949552536	1.0709946155548096
315	377.304634809494	response	0	k		313.0	/experiments/Knapen_AOT/AOT_stimuli/pictures/0883_fw.png	440.1023635864258	
316	377.32121539115906	picture	0		223	314.0	/experiments/Knapen_AOT/AOT_stimuli/pictures/1300_fw.png	440.1189441680908	1.8595600128173828
316	379.1713008880615	response	0	k		314.0	/experiments/Knapen_AOT/AOT_stimuli/pictures/1300_fw.png	441.9690296649933	
317	379.18077540397644	picture	0		82	315.0	/experiments/Knapen_AOT/AOT_stimuli/pictures/0275_fw.png	441.9785041809082	0.6876225471496582
317	379.85462617874146	response	0	k		315.0	/experiments/Knapen_AOT/AOT_stimuli/pictures/0275_fw.png	442.6523549556732	
318	379.8683979511261	picture	0		113	316.0	/experiments/Knapen_AOT/AOT_stimuli/pictures/1159_fw.png	442.66612672805786	0.9528219699859619
318	380.8046667575836	response	0	k		316.0	/experiments/Knapen_AOT/AOT_stimuli/pictures/1159_fw.png	443.6023955345154	
319	380.82121992111206	picture	0		96	317.0	/experiments/Knapen_AOT/AOT_stimuli/pictures/2148_fw.png	443.6189486980438	0.8083467483520508
319	381.61316657066345	response	0	j		317.0	/experiments/Knapen_AOT/AOT_stimuli/pictures/2148_fw.png	444.4108953475952	
320	381.6295666694641	picture	0		217	318.0	/experiments/Knapen_AOT/AOT_stimuli/pictures/1828_fw.png	444.4272954463959	1.8166890144348145
320	383.4228096008301	response	0	k		318.0	/experiments/Knapen_AOT/AOT_stimuli/pictures/1828_fw.png	446.22053837776184	
321	383.4462556838989	picture	0		96	319.0	/experiments/Knapen_AOT/AOT_stimuli/pictures/2035_fw.png	446.2439844608307	0.8040025234222412
321	384.23812913894653	response	0	k		319.0	/experiments/Knapen_AOT/AOT_stimuli/pictures/2035_fw.png	447.0358579158783	
322	384.25025820732117	picture	0		185	320.0	/experiments/Knapen_AOT/AOT_stimuli/pictures/0137_fw.png	447.04798698425293	1.5460073947906494
322	385.77974486351013	response	0	j		320.0	/experiments/Knapen_AOT/AOT_stimuli/pictures/0137_fw.png	448.5774736404419	
323	385.7962656021118	picture	0		102	321.0	/experiments/Knapen_AOT/AOT_stimuli/pictures/2177_fw.png	448.5939943790436	0.8583881855010986
323	386.6382665634155	response	0	k		321.0	/experiments/Knapen_AOT/AOT_stimuli/pictures/2177_fw.png	449.4359953403473	
324	386.6546537876129	picture	0		119	322.0	/experiments/Knapen_AOT/AOT_stimuli/pictures/1475_fw.png	449.4523825645447	0.9999921321868896
324	387.6381232738495	response	0	k		322.0	/experiments/Knapen_AOT/AOT_stimuli/pictures/1475_fw.png	450.43585205078125	
325	387.6546459197998	picture	0		107	323.0	/experiments/Knapen_AOT/AOT_stimuli/pictures/1728_fw.png	450.45237469673157	0.9000067710876465
325	388.5380890369415	response	0	k		323.0	/experiments/Knapen_AOT/AOT_stimuli/pictures/1728_fw.png	451.3358178138733	
326	388.55465269088745	picture	0		107	324.0	/experiments/Knapen_AOT/AOT_stimuli/pictures/1036_fw.png	451.3523814678192	0.8970460891723633
326	389.4383430480957	response	0	k		324.0	/experiments/Knapen_AOT/AOT_stimuli/pictures/1036_fw.png	452.23607182502747	
327	389.4516987800598	picture	0		130	325.0	/experiments/Knapen_AOT/AOT_stimuli/pictures/1223_fw.png	452.2494275569916	1.0902624130249023
327	390.5298511981964	response	0	k		325.0	/experiments/Knapen_AOT/AOT_stimuli/pictures/1223_fw.png	453.3275799751282	
328	390.5419611930847	picture	0		98	326.0	/experiments/Knapen_AOT/AOT_stimuli/pictures/2071_fw.png	453.3396899700165	0.8126811981201172
328	391.3464570045471	response	0	j		326.0	/experiments/Knapen_AOT/AOT_stimuli/pictures/2071_fw.png	454.1441857814789	
329	391.35464239120483	picture	0		129	327.0	/experiments/Knapen_AOT/AOT_stimuli/pictures/0929_fw.png	454.1523711681366	1.0833759307861328
329	392.4216675758362	response	0	k		327.0	/experiments/Knapen_AOT/AOT_stimuli/pictures/0929_fw.png	455.21939635276794	
330	392.43801832199097	picture	0		101	328.0	/experiments/Knapen_AOT/AOT_stimuli/pictures/0815_fw.png	455.23574709892273	0.8470232486724854
330	393.27145528793335	response	0	k		328.0	/experiments/Knapen_AOT/AOT_stimuli/pictures/0815_fw.png	456.0691840648651	
331	393.28504157066345	picture	0		155	329.0	/experiments/Knapen_AOT/AOT_stimuli/pictures/1441_fw.png	456.0827703475952	1.2986137866973877
331	394.57149028778076	response	0	k		329.0	/experiments/Knapen_AOT/AOT_stimuli/pictures/1441_fw.png	457.3692190647125	
332	394.58365535736084	picture	0		113	330.0	/experiments/Knapen_AOT/AOT_stimuli/pictures/1066_fw.png	457.3813841342926	0.9377059936523438
332	395.5132164955139	response	0	j		330.0	/experiments/Knapen_AOT/AOT_stimuli/pictures/1066_fw.png	458.3109452724457	
333	395.5213613510132	picture	0		124	331.0	/experiments/Knapen_AOT/AOT_stimuli/pictures/0771_fw.png	458.31909012794495	1.0417139530181885
333	396.5465278625488	response	0	j		331.0	/experiments/Knapen_AOT/AOT_stimuli/pictures/0771_fw.png	459.3442566394806	
334	396.5630753040314	picture	0		126	332.0	/experiments/Knapen_AOT/AOT_stimuli/pictures/0422_fw.png	459.36080408096313	1.0583384037017822
334	397.6048493385315	response	0	k		332.0	/experiments/Knapen_AOT/AOT_stimuli/pictures/0422_fw.png	460.40257811546326	
335	397.62141370773315	picture	0		219	333.0	/experiments/Knapen_AOT/AOT_stimuli/pictures/0877_fw.png	460.4191424846649	1.8333637714385986
335	399.43834233283997	response	0	j		333.0	/experiments/Knapen_AOT/AOT_stimuli/pictures/0877_fw.png	462.23607110977173	
336	399.45477747917175	picture	0		105	334.0	/experiments/Knapen_AOT/AOT_stimuli/pictures/0251_fw.png	462.2525062561035	0.878925085067749
336	400.3215627670288	response	0	k		334.0	/experiments/Knapen_AOT/AOT_stimuli/pictures/0251_fw.png	463.11929154396057	
337	400.3337025642395	picture	0		124	335.0	/experiments/Knapen_AOT/AOT_stimuli/pictures/1229_fw.png	463.13143134117126	1.037778615951538
337	401.3551504611969	response	0	k		335.0	/experiments/Knapen_AOT/AOT_stimuli/pictures/1229_fw.png	464.15287923812866	
338	401.37148118019104	picture	0		99	336.0	/experiments/Knapen_AOT/AOT_stimuli/pictures/1253_fw.png	464.1692099571228	0.8333232402801514
338	402.1882655620575	response	0	k		336.0	/experiments/Knapen_AOT/AOT_stimuli/pictures/1253_fw.png	464.98599433898926	
339	402.2048044204712	picture	0		130	337.0	/experiments/Knapen_AOT/AOT_stimuli/pictures/1648_fw.png	465.00253319740295	1.0917234420776367
339	403.2799334526062	response	0	k		337.0	/experiments/Knapen_AOT/AOT_stimuli/pictures/1648_fw.png	466.07766222953796	
340	403.2965278625488	picture	0		141	338.0	/experiments/Knapen_AOT/AOT_stimuli/pictures/0047_fw.png	466.0942566394806	1.1833045482635498
340	404.4634835720062	response	0	j		338.0	/experiments/Knapen_AOT/AOT_stimuli/pictures/0047_fw.png	467.261212348938	
341	404.4798324108124	picture	0		128	339.0	/experiments/Knapen_AOT/AOT_stimuli/pictures/1737_fw.png	467.27756118774414	1.075037956237793
341	405.5382966995239	response	0	j		339.0	/experiments/Knapen_AOT/AOT_stimuli/pictures/1737_fw.png	468.3360254764557	
342	405.55487036705017	picture	0		187	340.0	/experiments/Knapen_AOT/AOT_stimuli/pictures/1532_fw.png	468.35259914398193	1.5667259693145752
342	407.1049702167511	response	0	j		340.0	/experiments/Knapen_AOT/AOT_stimuli/pictures/1532_fw.png	469.90269899368286	
343	407.12159633636475	picture	0		133	341.0	/experiments/Knapen_AOT/AOT_stimuli/pictures/1242_fw.png	469.9193251132965	1.1166210174560547
343	408.2144663333893	response	0	k		341.0	/experiments/Knapen_AOT/AOT_stimuli/pictures/1242_fw.png	471.01219511032104	
344	408.2382173538208	picture	0		87	342.0	/experiments/Knapen_AOT/AOT_stimuli/pictures/0010_fw.png	471.03594613075256	0.733361005783081
344	408.9551124572754	response	0	k		342.0	/experiments/Knapen_AOT/AOT_stimuli/pictures/0010_fw.png	471.75284123420715	
345	408.9715783596039	picture	0		191	343.0	/experiments/Knapen_AOT/AOT_stimuli/pictures/0598_fw.png	471.76930713653564	1.5999970436096191
345	410.55506229400635	response	0	k		343.0	/experiments/Knapen_AOT/AOT_stimuli/pictures/0598_fw.png	473.3527910709381	
346	410.5715754032135	picture	0		104	344.0	/experiments/Knapen_AOT/AOT_stimuli/pictures/0747_fw.png	473.36930418014526	0.8666455745697021
346	411.43011355400085	response	0	k		344.0	/experiments/Knapen_AOT/AOT_stimuli/pictures/0747_fw.png	474.2278423309326	
347	411.4382209777832	picture	0		101	345.0	/experiments/Knapen_AOT/AOT_stimuli/pictures/0373_fw.png	474.23594975471497	0.8469629287719727
347	412.27169466018677	response	0	k		345.0	/experiments/Knapen_AOT/AOT_stimuli/pictures/0373_fw.png	475.06942343711853	
348	412.2851839065552	picture	0		115	346.0	/experiments/Knapen_AOT/AOT_stimuli/pictures/1090_fw.png	475.08291268348694	0.9697897434234619
348	413.2384214401245	response	0	k		346.0	/experiments/Knapen_AOT/AOT_stimuli/pictures/1090_fw.png	476.0361502170563	
349	413.25497364997864	picture	0		106	347.0	/experiments/Knapen_AOT/AOT_stimuli/pictures/1041_fw.png	476.0527024269104	0.8916432857513428
349	414.13006472587585	response	0	j		347.0	/experiments/Knapen_AOT/AOT_stimuli/pictures/1041_fw.png	476.9277935028076	
350	414.14661693573	picture	0		146	348.0	/experiments/Knapen_AOT/AOT_stimuli/pictures/0953_fw.png	476.94434571266174	1.2219290733337402
350	415.3550798892975	response	0	k		348.0	/experiments/Knapen_AOT/AOT_stimuli/pictures/0953_fw.png	478.15280866622925	
351	415.3685460090637	picture	0		246	349.0	/experiments/Knapen_AOT/AOT_stimuli/pictures/0944_fw.png	478.1662747859955	2.055549383163452
351	417.4134428501129	response	0	k		349.0	/experiments/Knapen_AOT/AOT_stimuli/pictures/0944_fw.png	480.2111716270447	
352	417.4240953922272	picture	0		100	350.0	/experiments/Knapen_AOT/AOT_stimuli/pictures/1345_fw.png	480.22182416915894	0.839257001876831
352	418.24677538871765	response	0	k		350.0	/experiments/Knapen_AOT/AOT_stimuli/pictures/1345_fw.png	481.0445041656494	
353	418.263352394104	picture	0		117	351.0	/experiments/Knapen_AOT/AOT_stimuli/pictures/1070_fw.png	481.06108117103577	0.983330488204956
353	419.2303719520569	response	0	k		351.0	/experiments/Knapen_AOT/AOT_stimuli/pictures/1070_fw.png	482.02810072898865	
354	419.24668288230896	picture	0		134	352.0	/experiments/Knapen_AOT/AOT_stimuli/pictures/1346_fw.png	482.0444116592407	1.12188720703125
354	420.3551297187805	response	0	j		352.0	/experiments/Knapen_AOT/AOT_stimuli/pictures/1346_fw.png	483.1528584957123	
355	420.3685700893402	picture	0		183	353.0	/experiments/Knapen_AOT/AOT_stimuli/pictures/0587_fw.png	483.166298866272	1.5364913940429688
355	421.88851046562195	response	0	k		353.0	/experiments/Knapen_AOT/AOT_stimuli/pictures/0587_fw.png	484.6862392425537	
356	421.9050614833832	picture	0		225	354.0	/experiments/Knapen_AOT/AOT_stimuli/pictures/1755_fw.png	484.70279026031494	1.8802263736724854
356	423.77185106277466	response	0	k		354.0	/experiments/Knapen_AOT/AOT_stimuli/pictures/1755_fw.png	486.5695798397064	
357	423.78528785705566	picture	0		90	355.0	/experiments/Knapen_AOT/AOT_stimuli/pictures/0702_fw.png	486.5830166339874	0.7614741325378418
357	424.53019189834595	response	0	k		355.0	/experiments/Knapen_AOT/AOT_stimuli/pictures/0702_fw.png	487.3279206752777	
358	424.5467619895935	picture	0		83	356.0	/experiments/Knapen_AOT/AOT_stimuli/pictures/1861_fw.png	487.34449076652527	0.7000095844268799
358	425.2301871776581	response	0	k		356.0	/experiments/Knapen_AOT/AOT_stimuli/pictures/1861_fw.png	488.02791595458984	
359	425.2467715740204	picture	0		95	357.0	/experiments/Knapen_AOT/AOT_stimuli/pictures/1634_fw.png	488.04450035095215	0.800084114074707
359	426.03033542633057	response	0	j		357.0	/experiments/Knapen_AOT/AOT_stimuli/pictures/1634_fw.png	488.82806420326233	
360	426.0468556880951	picture	0		94	358.0	/experiments/Knapen_AOT/AOT_stimuli/pictures/1933_fw.png	488.84458446502686	0.7915952205657959
360	426.81538581848145	response	0	k		358.0	/experiments/Knapen_AOT/AOT_stimuli/pictures/1933_fw.png	489.6131145954132	
361	426.8384509086609	picture	0		105	359.0	/experiments/Knapen_AOT/AOT_stimuli/pictures/1192_fw.png	489.63617968559265	0.8773784637451172
361	427.7052161693573	response	0	k		359.0	/experiments/Knapen_AOT/AOT_stimuli/pictures/1192_fw.png	490.50294494628906	
362	427.715829372406	stim	0		1078			490.51355814933777	9.001034498214722
362	436.6973283290863	response	0	space				499.49505710601807	
