trial_nr	onset	event_type	phase	response	nr_frames	picture_index	picture_file	onset_abs	duration
0	0.19312286376953125	stim	0		323			106.02610993385315	2.7083401679992676
0	2.8837149143218994	response	0	space				108.71670198440552	
2	2.901463031768799	picture	0		226	0.0	/experiments/knapen_AOT/AOT_stimuli/pictures/1909_fw.png	108.73445010185242	1.940490961074829
2	4.822296857833862	response	0	k		0.0	/experiments/knapen_AOT/AOT_stimuli/pictures/1909_fw.png	110.65528392791748	
3	4.841953992843628	picture	0		98	1.0	/experiments/knapen_AOT/AOT_stimuli/pictures/1875_fw.png	110.67494106292725	0.8247518539428711
3	5.651679992675781	response	0	j		1.0	/experiments/knapen_AOT/AOT_stimuli/pictures/1875_fw.png	111.4846670627594	
4	5.666705846786499	picture	0		108	2.0	/experiments/knapen_AOT/AOT_stimuli/pictures/0615_fw.png	111.49969291687012	0.901583194732666
4	6.558613061904907	response	0	k		2.0	/experiments/knapen_AOT/AOT_stimuli/pictures/0615_fw.png	112.39160013198853	
5	6.568289041519165	picture	0		91	3.0	/experiments/knapen_AOT/AOT_stimuli/pictures/1279_fw.png	112.40127611160278	0.7568609714508057
5	7.316827058792114	response	0	j		3.0	/experiments/knapen_AOT/AOT_stimuli/pictures/1279_fw.png	113.14981412887573	
6	7.325150012969971	picture	0		107	4.0	/experiments/knapen_AOT/AOT_stimuli/pictures/0833_fw.png	113.15813708305359	0.8958389759063721
6	8.208582878112793	response	0	k		4.0	/experiments/knapen_AOT/AOT_stimuli/pictures/0833_fw.png	114.04156994819641	
7	8.220988988876343	picture	0		94	5.0	/experiments/knapen_AOT/AOT_stimuli/pictures/0564_fw.png	114.05397605895996	0.7791688442230225
7	8.991957902908325	response	0	j		5.0	/experiments/knapen_AOT/AOT_stimuli/pictures/0564_fw.png	114.82494497299194	
8	9.000157833099365	picture	0		85	6.0	/experiments/knapen_AOT/AOT_stimuli/pictures/1447_fw.png	114.83314490318298	0.7139360904693604
8	9.700414896011353	response	0	j		6.0	/experiments/knapen_AOT/AOT_stimuli/pictures/1447_fw.png	115.53340196609497	
9	9.714093923568726	picture	0		88	7.0	/experiments/knapen_AOT/AOT_stimuli/pictures/1677_fw.png	115.54708099365234	0.7361841201782227
9	10.44192385673523	response	0	k		7.0	/experiments/knapen_AOT/AOT_stimuli/pictures/1677_fw.png	116.27491092681885	
10	10.450278043746948	picture	0		253	8.0	/experiments/knapen_AOT/AOT_stimuli/pictures/1363_fw.png	116.28326511383057	2.1110730171203613
10	12.550323963165283	response	0	k		8.0	/experiments/knapen_AOT/AOT_stimuli/pictures/1363_fw.png	118.3833110332489	
11	12.56135106086731	picture	0		94	9.0	/experiments/knapen_AOT/AOT_stimuli/pictures/0458_fw.png	118.39433813095093	0.7847678661346436
11	13.333727836608887	response	0	j		9.0	/experiments/knapen_AOT/AOT_stimuli/pictures/0458_fw.png	119.1667149066925	
12	13.346118927001953	picture	0		86	10.0	/experiments/knapen_AOT/AOT_stimuli/pictures/1881_fw.png	119.17910599708557	0.7153129577636719
12	14.04365086555481	response	0	j		10.0	/experiments/knapen_AOT/AOT_stimuli/pictures/1881_fw.png	119.87663793563843	
13	14.061431884765625	picture	0		88	11.0	/experiments/knapen_AOT/AOT_stimuli/pictures/0720_fw.png	119.89441895484924	0.7304849624633789
13	14.783824920654297	response	0	j		11.0	/experiments/knapen_AOT/AOT_stimuli/pictures/0720_fw.png	120.61681199073792	
14	14.791916847229004	picture	0		100	12.0	/experiments/knapen_AOT/AOT_stimuli/pictures/0212_fw.png	120.62490391731262	0.8389270305633545
14	15.617112874984741	response	0	k		12.0	/experiments/knapen_AOT/AOT_stimuli/pictures/0212_fw.png	121.45009994506836	
15	15.630843877792358	picture	0		105	13.0	/experiments/knapen_AOT/AOT_stimuli/pictures/1029_fw.png	121.46383094787598	0.8819761276245117
15	16.500512838363647	response	0	j		13.0	/experiments/knapen_AOT/AOT_stimuli/pictures/1029_fw.png	122.33349990844727	
16	16.51282000541687	picture	0		118	14.0	/experiments/knapen_AOT/AOT_stimuli/pictures/0972_fw.png	122.34580707550049	0.9791228771209717
16	17.483733892440796	response	0	k		14.0	/experiments/knapen_AOT/AOT_stimuli/pictures/0972_fw.png	123.31672096252441	
17	17.491942882537842	picture	0		90	15.0	/experiments/knapen_AOT/AOT_stimuli/pictures/1933_fw.png	123.32492995262146	0.750046968460083
17	18.233782052993774	response	0	j		15.0	/experiments/knapen_AOT/AOT_stimuli/pictures/1933_fw.png	124.06676912307739	
18	18.241989850997925	picture	0		95	16.0	/experiments/knapen_AOT/AOT_stimuli/pictures/1666_fw.png	124.07497692108154	0.7918210029602051
18	19.025523900985718	response	0	k		16.0	/experiments/knapen_AOT/AOT_stimuli/pictures/1666_fw.png	124.85851097106934	
19	19.03381085395813	picture	0		110	17.0	/experiments/knapen_AOT/AOT_stimuli/pictures/1720_fw.png	124.86679792404175	0.9165611267089844
19	19.9421808719635	response	0	j		17.0	/experiments/knapen_AOT/AOT_stimuli/pictures/1720_fw.png	125.77516794204712	
20	19.950371980667114	picture	0		106	18.0	/experiments/knapen_AOT/AOT_stimuli/pictures/0501_fw.png	125.78335905075073	0.8889479637145996
20	20.825680017471313	response	0	j		18.0	/experiments/knapen_AOT/AOT_stimuli/pictures/0501_fw.png	126.65866708755493	
21	20.839319944381714	picture	0		135	19.0	/experiments/knapen_AOT/AOT_stimuli/pictures/0351_fw.png	126.67230701446533	1.1319921016693115
21	21.958927869796753	response	0	k		19.0	/experiments/knapen_AOT/AOT_stimuli/pictures/0351_fw.png	127.79191493988037	
22	21.971312046051025	picture	0		102	20.0	/experiments/knapen_AOT/AOT_stimuli/pictures/1695_fw.png	127.80429911613464	0.8472349643707275
22	22.808966875076294	response	0	j		20.0	/experiments/knapen_AOT/AOT_stimuli/pictures/1695_fw.png	128.6419539451599	
23	22.818547010421753	picture	0		253	21.0	/experiments/knapen_AOT/AOT_stimuli/pictures/1372_fw.png	128.65153408050537	2.11114501953125
23	24.917325973510742	response	0	j		21.0	/experiments/knapen_AOT/AOT_stimuli/pictures/1372_fw.png	130.75031304359436	
24	24.929692029953003	picture	0		84	22.0	/experiments/knapen_AOT/AOT_stimuli/pictures/1905_fw.png	130.76267910003662	0.6958680152893066
24	25.61729383468628	response	0	j		22.0	/experiments/knapen_AOT/AOT_stimuli/pictures/1905_fw.png	131.4502809047699	
25	25.62556004524231	picture	0		111	23.0	/experiments/knapen_AOT/AOT_stimuli/pictures/1145_fw.png	131.45854711532593	0.9291298389434814
25	26.542369842529297	response	0	k		23.0	/experiments/knapen_AOT/AOT_stimuli/pictures/1145_fw.png	132.37535691261292	
26	26.55468988418579	picture	0		91	24.0	/experiments/knapen_AOT/AOT_stimuli/pictures/0820_fw.png	132.3876769542694	0.7569701671600342
26	27.300688982009888	response	0	j		24.0	/experiments/knapen_AOT/AOT_stimuli/pictures/0820_fw.png	133.1336760520935	
27	27.311660051345825	picture	0		105	25.0	/experiments/knapen_AOT/AOT_stimuli/pictures/0337_fw.png	133.14464712142944	0.8750548362731934
27	28.17564606666565	response	0	k		25.0	/experiments/knapen_AOT/AOT_stimuli/pictures/0337_fw.png	134.00863313674927	
28	28.18671488761902	picture	0		162	26.0	/experiments/knapen_AOT/AOT_stimuli/pictures/0515_fw.png	134.01970195770264	1.3471801280975342
28	29.525799989700317	response	0	k		26.0	/experiments/knapen_AOT/AOT_stimuli/pictures/0515_fw.png	135.35878705978394	
29	29.533895015716553	picture	0		95	27.0	/experiments/knapen_AOT/AOT_stimuli/pictures/0540_fw.png	135.36688208580017	0.7917308807373047
29	30.317391872406006	response	0	j		27.0	/experiments/knapen_AOT/AOT_stimuli/pictures/0540_fw.png	136.15037894248962	
30	30.325625896453857	picture	0		162	28.0	/experiments/knapen_AOT/AOT_stimuli/pictures/0939_fw.png	136.15861296653748	1.3541309833526611
30	31.667410850524902	response	0	j		28.0	/experiments/knapen_AOT/AOT_stimuli/pictures/0939_fw.png	137.50039792060852	
31	31.67975687980652	picture	0		80	29.0	/experiments/knapen_AOT/AOT_stimuli/pictures/0202_fw.png	137.51274394989014	0.666680097579956
31	32.33413004875183	response	0	j		29.0	/experiments/knapen_AOT/AOT_stimuli/pictures/0202_fw.png	138.16711711883545	
32	32.346436977386475	picture	0		77	30.0	/experiments/knapen_AOT/AOT_stimuli/pictures/0523_fw.png	138.1794240474701	0.6389560699462891
32	32.97577691078186	response	0	k		30.0	/experiments/knapen_AOT/AOT_stimuli/pictures/0523_fw.png	138.80876398086548	
33	32.985393047332764	picture	0		119	31.0	/experiments/knapen_AOT/AOT_stimuli/pictures/0291_fw.png	138.81838011741638	0.9930419921875
33	33.96747303009033	response	0	k		31.0	/experiments/knapen_AOT/AOT_stimuli/pictures/0291_fw.png	139.80046010017395	
34	33.978435039520264	picture	0		134	32.0	/experiments/knapen_AOT/AOT_stimuli/pictures/0644_fw.png	139.81142210960388	1.118168830871582
34	35.084208965301514	response	0	j		32.0	/experiments/knapen_AOT/AOT_stimuli/pictures/0644_fw.png	140.91719603538513	
35	35.096603870391846	picture	0		87	33.0	/experiments/knapen_AOT/AOT_stimuli/pictures/0943_fw.png	140.92959094047546	0.7221269607543945
35	35.80921483039856	response	0	k		33.0	/experiments/knapen_AOT/AOT_stimuli/pictures/0943_fw.png	141.64220190048218	
36	35.81873083114624	picture	0		121	34.0	/experiments/knapen_AOT/AOT_stimuli/pictures/1748_fw.png	141.65171790122986	1.007005214691162
36	36.817529916763306	response	0	k		34.0	/experiments/knapen_AOT/AOT_stimuli/pictures/1748_fw.png	142.65051698684692	
37	36.8257360458374	picture	0		116	35.0	/experiments/knapen_AOT/AOT_stimuli/pictures/0098_fw.png	142.65872311592102	0.9721930027008057
37	37.784260988235474	response	0	j		35.0	/experiments/knapen_AOT/AOT_stimuli/pictures/0098_fw.png	143.6172480583191	
38	37.79792904853821	picture	0		138	36.0	/experiments/knapen_AOT/AOT_stimuli/pictures/1267_fw.png	143.63091611862183	1.1528558731079102
38	38.9425790309906	response	0	j		36.0	/experiments/knapen_AOT/AOT_stimuli/pictures/1267_fw.png	144.77556610107422	
39	38.95078492164612	picture	0		86	37.0	/experiments/knapen_AOT/AOT_stimuli/pictures/2099_fw.png	144.78377199172974	0.7221760749816895
39	39.652612924575806	response	0	j		37.0	/experiments/knapen_AOT/AOT_stimuli/pictures/2099_fw.png	145.48559999465942	
40	39.67296099662781	picture	0		79	38.0	/experiments/knapen_AOT/AOT_stimuli/pictures/1750_fw.png	145.50594806671143	0.6666679382324219
40	40.3259539604187	response	0	j		38.0	/experiments/knapen_AOT/AOT_stimuli/pictures/1750_fw.png	146.15894103050232	
41	40.33962893486023	picture	0		85	39.0	/experiments/knapen_AOT/AOT_stimuli/pictures/1211_fw.png	146.17261600494385	0.7569899559020996
41	41.08437895774841	response	0	j		39.0	/experiments/knapen_AOT/AOT_stimuli/pictures/1211_fw.png	146.91736602783203	
42	41.09661889076233	picture	0		97	40.0	/experiments/knapen_AOT/AOT_stimuli/pictures/0863_fw.png	146.92960596084595	0.8056640625
42	41.892683029174805	response	0	k		40.0	/experiments/knapen_AOT/AOT_stimuli/pictures/0863_fw.png	147.72567009925842	
43	41.90228295326233	picture	0		136	41.0	/experiments/knapen_AOT/AOT_stimuli/pictures/0921_fw.png	147.73527002334595	1.1319379806518555
43	43.01915884017944	response	0	k		41.0	/experiments/knapen_AOT/AOT_stimuli/pictures/0921_fw.png	148.85214591026306	
44	43.034220933914185	picture	0		99	42.0	/experiments/knapen_AOT/AOT_stimuli/pictures/1157_fw.png	148.8672080039978	0.8263061046600342
44	43.84420585632324	response	0	j		42.0	/experiments/knapen_AOT/AOT_stimuli/pictures/1157_fw.png	149.67719292640686	
45	43.86052703857422	picture	0		201	43.0	/experiments/knapen_AOT/AOT_stimuli/pictures/1730_fw.png	149.69351410865784	1.6733160018920898
45	45.525694847106934	response	0	k		43.0	/experiments/knapen_AOT/AOT_stimuli/pictures/1730_fw.png	151.35868191719055	
46	45.53384304046631	picture	0		82	44.0	/experiments/knapen_AOT/AOT_stimuli/pictures/2174_fw.png	151.36683011054993	0.6874668598175049
46	46.209019899368286	response	0	j		44.0	/experiments/knapen_AOT/AOT_stimuli/pictures/2174_fw.png	152.0420069694519	
47	46.22130990028381	picture	0		140	45.0	/experiments/knapen_AOT/AOT_stimuli/pictures/1979_fw.png	152.05429697036743	1.166619062423706
47	47.375733852386475	response	0	k		45.0	/experiments/knapen_AOT/AOT_stimuli/pictures/1979_fw.png	153.2087209224701	
48	47.38792896270752	picture	0		92	46.0	/experiments/knapen_AOT/AOT_stimuli/pictures/1828_fw.png	153.22091603279114	0.7639238834381104
48	48.142354011535645	response	0	j		46.0	/experiments/knapen_AOT/AOT_stimuli/pictures/1828_fw.png	153.97534108161926	
49	48.15185284614563	picture	0		91	47.0	/experiments/knapen_AOT/AOT_stimuli/pictures/1917_fw.png	153.98483991622925	0.7570240497589111
49	48.90071892738342	response	0	k		47.0	/experiments/knapen_AOT/AOT_stimuli/pictures/1917_fw.png	154.73370599746704	
50	48.90887689590454	picture	0		92	48.0	/experiments/knapen_AOT/AOT_stimuli/pictures/1582_fw.png	154.74186396598816	0.7707719802856445
50	49.66752290725708	response	0	k		48.0	/experiments/knapen_AOT/AOT_stimuli/pictures/1582_fw.png	155.5005099773407	
51	49.679648876190186	picture	0		114	49.0	/experiments/knapen_AOT/AOT_stimuli/pictures/0651_fw.png	155.5126359462738	0.9513661861419678
51	50.61063885688782	response	0	j		49.0	/experiments/knapen_AOT/AOT_stimuli/pictures/0651_fw.png	156.44362592697144	
52	50.63101506233215	picture	0		89	50.0	/experiments/knapen_AOT/AOT_stimuli/pictures/1993_fw.png	156.46400213241577	0.7500178813934326
52	51.36741805076599	response	0	j		50.0	/experiments/knapen_AOT/AOT_stimuli/pictures/1993_fw.png	157.2004051208496	
53	51.381032943725586	picture	0		85	51.0	/experiments/knapen_AOT/AOT_stimuli/pictures/0230_fw.png	157.2140200138092	0.7153260707855225
53	52.08408188819885	response	0	k		51.0	/experiments/knapen_AOT/AOT_stimuli/pictures/0230_fw.png	157.91706895828247	
54	52.09635901451111	picture	0		86	52.0	/experiments/knapen_AOT/AOT_stimuli/pictures/1419_fw.png	157.92934608459473	0.7152268886566162
54	52.80089282989502	response	0	j		52.0	/experiments/knapen_AOT/AOT_stimuli/pictures/1419_fw.png	158.63387989997864	
55	52.811585903167725	picture	0		103	53.0	/experiments/knapen_AOT/AOT_stimuli/pictures/0726_fw.png	158.64457297325134	0.8611559867858887
55	53.65909290313721	response	0	k		53.0	/experiments/knapen_AOT/AOT_stimuli/pictures/0726_fw.png	159.49207997322083	
56	53.67274188995361	picture	0		90	54.0	/experiments/knapen_AOT/AOT_stimuli/pictures/1808_fw.png	159.50572896003723	0.7569580078125
56	54.410661935806274	response	0	j		54.0	/experiments/knapen_AOT/AOT_stimuli/pictures/1808_fw.png	160.2436490058899	
57	54.42969989776611	picture	0		78	55.0	/experiments/knapen_AOT/AOT_stimuli/pictures/2119_fw.png	160.26268696784973	0.6459319591522217
57	55.06746292114258	response	0	j		55.0	/experiments/knapen_AOT/AOT_stimuli/pictures/2119_fw.png	160.9004499912262	
58	55.075631856918335	picture	0		82	56.0	/experiments/knapen_AOT/AOT_stimuli/pictures/0355_fw.png	160.90861892700195	0.6874010562896729
58	55.75086688995361	response	0	j		56.0	/experiments/knapen_AOT/AOT_stimuli/pictures/0355_fw.png	161.58385396003723	
59	55.76303291320801	picture	0		80	57.0	/experiments/knapen_AOT/AOT_stimuli/pictures/0862_fw.png	161.59601998329163	0.6666901111602783
59	56.41088891029358	response	0	j		57.0	/experiments/knapen_AOT/AOT_stimuli/pictures/0862_fw.png	162.2438759803772	
60	56.429723024368286	picture	0		119	58.0	/experiments/knapen_AOT/AOT_stimuli/pictures/1527_fw.png	162.2627100944519	0.9876308441162109
60	57.402430057525635	response	0	k		58.0	/experiments/knapen_AOT/AOT_stimuli/pictures/1527_fw.png	163.23541712760925	
61	57.4173538684845	picture	0		95	59.0	/experiments/knapen_AOT/AOT_stimuli/pictures/0997_fw.png	163.25034093856812	0.7971000671386719
61	58.20081400871277	response	0	j		59.0	/experiments/knapen_AOT/AOT_stimuli/pictures/0997_fw.png	164.0338010787964	
62	58.21445393562317	picture	0		131	60.0	/experiments/knapen_AOT/AOT_stimuli/pictures/1621_fw.png	164.0474410057068	1.0971839427947998
62	59.300822019577026	response	0	k		60.0	/experiments/knapen_AOT/AOT_stimuli/pictures/1621_fw.png	165.13380908966064	
63	59.31163787841797	picture	0		100	61.0	/experiments/knapen_AOT/AOT_stimuli/pictures/1294_fw.png	165.1446249485016	0.8333320617675781
63	60.13431191444397	response	0	k		61.0	/experiments/knapen_AOT/AOT_stimuli/pictures/1294_fw.png	165.9672989845276	
64	60.14496994018555	picture	0		92	62.0	/experiments/knapen_AOT/AOT_stimuli/pictures/0088_fw.png	165.97795701026917	0.7641251087188721
64	60.900996923446655	response	0	j		62.0	/experiments/knapen_AOT/AOT_stimuli/pictures/0088_fw.png	166.73398399353027	
65	60.90909504890442	picture	0		75	63.0	/experiments/knapen_AOT/AOT_stimuli/pictures/2109_fw.png	166.74208211898804	0.6249299049377441
65	61.52593493461609	response	0	k		63.0	/experiments/knapen_AOT/AOT_stimuli/pictures/2109_fw.png	167.3589220046997	
66	61.53402495384216	picture	0		85	64.0	/experiments/knapen_AOT/AOT_stimuli/pictures/0158_fw.png	167.36701202392578	0.7083470821380615
66	62.22737002372742	response	0	j		64.0	/experiments/knapen_AOT/AOT_stimuli/pictures/0158_fw.png	168.06035709381104	
67	62.242372035980225	picture	0		124	65.0	/experiments/knapen_AOT/AOT_stimuli/pictures/1287_fw.png	168.07535910606384	1.0345489978790283
67	63.26753306388855	response	0	j		65.0	/experiments/knapen_AOT/AOT_stimuli/pictures/1287_fw.png	169.10052013397217	
68	63.27692103385925	picture	0		140	66.0	/experiments/knapen_AOT/AOT_stimuli/pictures/0467_fw.png	169.10990810394287	1.1666970252990723
68	64.42762899398804	response	0	j		66.0	/experiments/knapen_AOT/AOT_stimuli/pictures/0467_fw.png	170.26061606407166	
69	64.44361805915833	picture	0		145	67.0	/experiments/knapen_AOT/AOT_stimuli/pictures/0364_fw.png	170.27660512924194	1.2084147930145264
69	65.6425850391388	response	0	j		67.0	/experiments/knapen_AOT/AOT_stimuli/pictures/0364_fw.png	171.4755721092224	
70	65.65203285217285	picture	0		118	68.0	/experiments/knapen_AOT/AOT_stimuli/pictures/1391_fw.png	171.48501992225647	0.98614501953125
70	66.62609100341797	response	0	k		68.0	/experiments/knapen_AOT/AOT_stimuli/pictures/1391_fw.png	172.4590780735016	
71	66.6381778717041	picture	0		85	69.0	/experiments/knapen_AOT/AOT_stimuli/pictures/0872_fw.png	172.47116494178772	0.708381175994873
71	67.33438086509705	response	0	k		69.0	/experiments/knapen_AOT/AOT_stimuli/pictures/0872_fw.png	173.16736793518066	
72	67.34655904769897	picture	0		83	70.0	/experiments/knapen_AOT/AOT_stimuli/pictures/0060_fw.png	173.1795461177826	0.6960339546203613
72	68.01955699920654	response	0	k		70.0	/experiments/knapen_AOT/AOT_stimuli/pictures/0060_fw.png	173.85254406929016	
73	68.04259300231934	picture	0		146	71.0	/experiments/knapen_AOT/AOT_stimuli/pictures/0277_fw.png	173.87558007240295	1.2205970287322998
73	69.25093483924866	response	0	j		71.0	/experiments/knapen_AOT/AOT_stimuli/pictures/0277_fw.png	175.08392190933228	
74	69.26319003105164	picture	0		96	72.0	/experiments/knapen_AOT/AOT_stimuli/pictures/0247_fw.png	175.09617710113525	0.7985529899597168
74	70.05091905593872	response	0	j		72.0	/experiments/knapen_AOT/AOT_stimuli/pictures/0247_fw.png	175.88390612602234	
75	70.06174302101135	picture	0		121	73.0	/experiments/knapen_AOT/AOT_stimuli/pictures/0631_fw.png	175.89473009109497	1.0069198608398438
75	71.0592999458313	response	0	k		73.0	/experiments/knapen_AOT/AOT_stimuli/pictures/0631_fw.png	176.89228701591492	
76	71.0686628818512	picture	0		97	74.0	/experiments/knapen_AOT/AOT_stimuli/pictures/0443_fw.png	176.90164995193481	0.8126430511474609
76	71.86763596534729	response	0	k		74.0	/experiments/knapen_AOT/AOT_stimuli/pictures/0443_fw.png	177.7006230354309	
77	71.88130593299866	picture	0		85	75.0	/experiments/knapen_AOT/AOT_stimuli/pictures/0568_fw.png	177.71429300308228	0.7152140140533447
77	72.58445596694946	response	0	k		75.0	/experiments/knapen_AOT/AOT_stimuli/pictures/0568_fw.png	178.41744303703308	
78	72.596519947052	picture	0		80	76.0	/experiments/knapen_AOT/AOT_stimuli/pictures/1894_fw.png	178.42950701713562	0.6667389869689941
78	73.25098204612732	response	0	k		76.0	/experiments/knapen_AOT/AOT_stimuli/pictures/1894_fw.png	179.08396911621094	
79	73.263258934021	picture	0		102	77.0	/experiments/knapen_AOT/AOT_stimuli/pictures/1847_fw.png	179.09624600410461	0.8471660614013672
79	74.10105586051941	response	0	j		77.0	/experiments/knapen_AOT/AOT_stimuli/pictures/1847_fw.png	179.93404293060303	
80	74.11042499542236	picture	0		83	78.0	/experiments/knapen_AOT/AOT_stimuli/pictures/1206_fw.png	179.94341206550598	0.6944160461425781
80	74.78591394424438	response	0	j		78.0	/experiments/knapen_AOT/AOT_stimuli/pictures/1206_fw.png	180.618901014328	
81	74.80484104156494	picture	0		128	79.0	/experiments/knapen_AOT/AOT_stimuli/pictures/1718_fw.png	180.63782811164856	1.062755823135376
81	75.85939502716064	response	0	j		79.0	/experiments/knapen_AOT/AOT_stimuli/pictures/1718_fw.png	181.69238209724426	
82	75.86759686470032	picture	0		92	80.0	/experiments/knapen_AOT/AOT_stimuli/pictures/1678_fw.png	181.70058393478394	0.770622968673706
82	76.6260449886322	response	0	k		80.0	/experiments/knapen_AOT/AOT_stimuli/pictures/1678_fw.png	182.45903205871582	
83	76.63821983337402	picture	0		107	81.0	/experiments/knapen_AOT/AOT_stimuli/pictures/0538_fw.png	182.47120690345764	0.8888700008392334
83	77.51767802238464	response	0	k		81.0	/experiments/knapen_AOT/AOT_stimuli/pictures/0538_fw.png	183.35066509246826	
84	77.52708983421326	picture	0		102	82.0	/experiments/knapen_AOT/AOT_stimuli/pictures/1815_fw.png	183.36007690429688	0.8542430400848389
84	78.36771392822266	response	0	j		82.0	/experiments/knapen_AOT/AOT_stimuli/pictures/1815_fw.png	184.20070099830627	
85	78.3813328742981	picture	0		80	83.0	/experiments/knapen_AOT/AOT_stimuli/pictures/2123_fw.png	184.2143199443817	0.6735351085662842
85	79.04288005828857	response	0	k		83.0	/experiments/knapen_AOT/AOT_stimuli/pictures/2123_fw.png	184.8758671283722	
86	79.05486798286438	picture	0		102	84.0	/experiments/knapen_AOT/AOT_stimuli/pictures/0913_fw.png	184.887855052948	0.8472080230712891
86	79.89275884628296	response	0	k		84.0	/experiments/knapen_AOT/AOT_stimuli/pictures/0913_fw.png	185.72574591636658	
87	79.90207600593567	picture	0		104	85.0	/experiments/knapen_AOT/AOT_stimuli/pictures/0453_fw.png	185.7350630760193	0.8682060241699219
87	80.75961089134216	response	0	k		85.0	/experiments/knapen_AOT/AOT_stimuli/pictures/0453_fw.png	186.59259796142578	
88	80.77028203010559	picture	0		109	86.0	/experiments/knapen_AOT/AOT_stimuli/pictures/0388_fw.png	186.6032691001892	0.9306929111480713
88	81.6928448677063	response	0	j		86.0	/experiments/knapen_AOT/AOT_stimuli/pictures/0388_fw.png	187.52583193778992	
89	81.70097494125366	picture	0		146	87.0	/experiments/knapen_AOT/AOT_stimuli/pictures/0034_fw.png	187.53396201133728	1.2219569683074951
89	82.90950584411621	response	0	k		87.0	/experiments/knapen_AOT/AOT_stimuli/pictures/0034_fw.png	188.74249291419983	
90	82.92293190956116	picture	0		80	88.0	/experiments/knapen_AOT/AOT_stimuli/pictures/2152_fw.png	188.75591897964478	0.6736559867858887
90	83.57773995399475	response	0	j		88.0	/experiments/knapen_AOT/AOT_stimuli/pictures/2152_fw.png	189.41072702407837	
91	83.59658789634705	picture	0		102	89.0	/experiments/knapen_AOT/AOT_stimuli/pictures/1489_fw.png	189.42957496643066	0.8471741676330566
91	84.43443989753723	response	0	k		89.0	/experiments/knapen_AOT/AOT_stimuli/pictures/1489_fw.png	190.26742696762085	
92	84.4437620639801	picture	0		111	90.0	/experiments/knapen_AOT/AOT_stimuli/pictures/0392_fw.png	190.27674913406372	0.923975944519043
92	85.3594958782196	response	0	j		90.0	/experiments/knapen_AOT/AOT_stimuli/pictures/0392_fw.png	191.19248294830322	
93	85.36773800849915	picture	0		117	91.0	/experiments/knapen_AOT/AOT_stimuli/pictures/0514_fw.png	191.20072507858276	0.9789438247680664
93	86.33454704284668	response	0	k		91.0	/experiments/knapen_AOT/AOT_stimuli/pictures/0514_fw.png	192.1675341129303	
94	86.34668183326721	picture	0		96	92.0	/experiments/knapen_AOT/AOT_stimuli/pictures/1076_fw.png	192.17966890335083	0.7985250949859619
94	87.13461995124817	response	0	j		92.0	/experiments/knapen_AOT/AOT_stimuli/pictures/1076_fw.png	192.9676070213318	
95	87.14520692825317	picture	0		78	93.0	/experiments/knapen_AOT/AOT_stimuli/pictures/0714_fw.png	192.9781939983368	0.6527681350708008
95	87.7777738571167	response	0	k		93.0	/experiments/knapen_AOT/AOT_stimuli/pictures/0714_fw.png	193.61076092720032	
96	87.79797506332397	picture	0		80	94.0	/experiments/knapen_AOT/AOT_stimuli/pictures/0725_fw.png	193.6309621334076	0.6737098693847656
96	88.4596700668335	response	0	j		94.0	/experiments/knapen_AOT/AOT_stimuli/pictures/0725_fw.png	194.29265713691711	
97	88.47168493270874	picture	0		76	95.0	/experiments/knapen_AOT/AOT_stimuli/pictures/0229_fw.png	194.30467200279236	0.6318619251251221
97	89.09287405014038	response	0	j		95.0	/experiments/knapen_AOT/AOT_stimuli/pictures/0229_fw.png	194.925861120224	
98	89.10354685783386	picture	0		119	96.0	/experiments/knapen_AOT/AOT_stimuli/pictures/0690_fw.png	194.93653392791748	0.9930942058563232
98	90.08469486236572	response	0	k		96.0	/experiments/knapen_AOT/AOT_stimuli/pictures/0690_fw.png	195.91768193244934	
99	90.09664106369019	picture	0		93	97.0	/experiments/knapen_AOT/AOT_stimuli/pictures/0261_fw.png	195.9296281337738	0.7711269855499268
99	90.85956287384033	response	0	k		97.0	/experiments/knapen_AOT/AOT_stimuli/pictures/0261_fw.png	196.69254994392395	
100	90.86776804924011	picture	0		81	98.0	/experiments/knapen_AOT/AOT_stimuli/pictures/0584_fw.png	196.70075511932373	0.6802248954772949
100	91.53467106819153	response	0	k		98.0	/experiments/knapen_AOT/AOT_stimuli/pictures/0584_fw.png	197.36765813827515	
101	91.54799294471741	picture	0		93	99.0	/experiments/knapen_AOT/AOT_stimuli/pictures/0103_fw.png	197.38098001480103	0.7781929969787598
101	92.31795287132263	response	0	j		99.0	/experiments/knapen_AOT/AOT_stimuli/pictures/0103_fw.png	198.15093994140625	
102	92.32618594169617	picture	0		108	100.0	/experiments/knapen_AOT/AOT_stimuli/pictures/0803_fw.png	198.15917301177979	0.9024679660797119
102	93.2179069519043	response	0	k		100.0	/experiments/knapen_AOT/AOT_stimuli/pictures/0803_fw.png	199.05089402198792	
103	93.22865390777588	picture	0		99	101.0	/experiments/knapen_AOT/AOT_stimuli/pictures/1272_fw.png	199.0616409778595	0.8263180255889893
103	94.04294085502625	response	0	k		101.0	/experiments/knapen_AOT/AOT_stimuli/pictures/1272_fw.png	199.87592792510986	
104	94.05497193336487	picture	0		87	102.0	/experiments/knapen_AOT/AOT_stimuli/pictures/0712_fw.png	199.8879590034485	0.7222349643707275
104	94.76158094406128	response	0	k		102.0	/experiments/knapen_AOT/AOT_stimuli/pictures/0712_fw.png	200.5945680141449	
105	94.7772068977356	picture	0		84	103.0	/experiments/knapen_AOT/AOT_stimuli/pictures/0260_fw.png	200.6101939678192	0.7013781070709229
105	95.46794986724854	response	0	j		103.0	/experiments/knapen_AOT/AOT_stimuli/pictures/0260_fw.png	201.30093693733215	
106	95.47858500480652	picture	0		200	104.0	/experiments/knapen_AOT/AOT_stimuli/pictures/0981_fw.png	201.31157207489014	1.6666998863220215
106	97.13480496406555	response	0	k		104.0	/experiments/knapen_AOT/AOT_stimuli/pictures/0981_fw.png	202.96779203414917	
107	97.14528489112854	picture	0		99	105.0	/experiments/knapen_AOT/AOT_stimuli/pictures/2158_fw.png	202.97827196121216	0.8264901638031006
107	97.95980787277222	response	0	j		105.0	/experiments/knapen_AOT/AOT_stimuli/pictures/2158_fw.png	203.79279494285583	
108	97.97177505493164	picture	0		73	106.0	/experiments/knapen_AOT/AOT_stimuli/pictures/0561_fw.png	203.80476212501526	0.6044819355010986
108	98.56136703491211	response	0	j		106.0	/experiments/knapen_AOT/AOT_stimuli/pictures/0561_fw.png	204.39435410499573	
109	98.57625699043274	picture	0		83	107.0	/experiments/knapen_AOT/AOT_stimuli/pictures/1027_fw.png	204.40924406051636	0.6940710544586182
109	99.2596378326416	response	0	j		107.0	/experiments/knapen_AOT/AOT_stimuli/pictures/1027_fw.png	205.09262490272522	
110	99.27032804489136	picture	0		85	108.0	/experiments/knapen_AOT/AOT_stimuli/pictures/0868_fw.png	205.10331511497498	0.7083148956298828
110	99.96143293380737	response	0	j		108.0	/experiments/knapen_AOT/AOT_stimuli/pictures/0868_fw.png	205.794420003891	
111	99.97864294052124	picture	0		79	109.0	/experiments/knapen_AOT/AOT_stimuli/pictures/1686_fw.png	205.81163001060486	0.6597309112548828
111	100.62637090682983	response	0	k		109.0	/experiments/knapen_AOT/AOT_stimuli/pictures/1686_fw.png	206.45935797691345	
112	100.63837385177612	picture	0		77	110.0	/experiments/knapen_AOT/AOT_stimuli/pictures/1885_fw.png	206.47136092185974	0.6389260292053223
112	101.26799893379211	response	0	j		110.0	/experiments/knapen_AOT/AOT_stimuli/pictures/1885_fw.png	207.10098600387573	
113	101.27729988098145	picture	0		79	111.0	/experiments/knapen_AOT/AOT_stimuli/pictures/1225_fw.png	207.11028695106506	0.6596760749816895
113	101.92642593383789	response	0	j		111.0	/experiments/knapen_AOT/AOT_stimuli/pictures/1225_fw.png	207.7594130039215	
114	101.93697595596313	picture	0		97	112.0	/experiments/knapen_AOT/AOT_stimuli/pictures/1992_fw.png	207.76996302604675	0.8059639930725098
114	102.73486399650574	response	0	j		112.0	/experiments/knapen_AOT/AOT_stimuli/pictures/1992_fw.png	208.56785106658936	
115	102.74293994903564	picture	0		101	113.0	/experiments/knapen_AOT/AOT_stimuli/pictures/1494_fw.png	208.57592701911926	0.846919059753418
115	103.56957983970642	response	0	k		113.0	/experiments/knapen_AOT/AOT_stimuli/pictures/1494_fw.png	209.40256690979004	
116	103.58985900878906	picture	0		90	114.0	/experiments/knapen_AOT/AOT_stimuli/pictures/1209_fw.png	209.42284607887268	0.756882905960083
116	104.33488297462463	response	0	k		114.0	/experiments/knapen_AOT/AOT_stimuli/pictures/1209_fw.png	210.16787004470825	
117	104.34674191474915	picture	0		87	115.0	/experiments/knapen_AOT/AOT_stimuli/pictures/0024_fw.png	210.17972898483276	0.722182035446167
117	105.05972790718079	response	0	j		115.0	/experiments/knapen_AOT/AOT_stimuli/pictures/0024_fw.png	210.8927149772644	
118	105.06892395019531	picture	0		72	116.0	/experiments/knapen_AOT/AOT_stimuli/pictures/1223_fw.png	210.90191102027893	0.6042098999023438
118	105.65986585617065	response	0	j		116.0	/experiments/knapen_AOT/AOT_stimuli/pictures/1223_fw.png	211.49285292625427	
119	105.67313385009766	picture	0		76	117.0	/experiments/knapen_AOT/AOT_stimuli/pictures/0811_fw.png	211.50612092018127	0.6388700008392334
119	106.30146193504333	response	0	j		117.0	/experiments/knapen_AOT/AOT_stimuli/pictures/0811_fw.png	212.13444900512695	
120	106.31200385093689	picture	0		106	118.0	/experiments/knapen_AOT/AOT_stimuli/pictures/1515_fw.png	212.1449909210205	0.8819351196289062
120	107.17825198173523	response	0	k		118.0	/experiments/knapen_AOT/AOT_stimuli/pictures/1515_fw.png	213.01123905181885	
121	107.1939389705658	picture	0		105	119.0	/experiments/knapen_AOT/AOT_stimuli/pictures/1451_fw.png	213.0269260406494	0.8750128746032715
121	108.05995488166809	response	0	k		119.0	/experiments/knapen_AOT/AOT_stimuli/pictures/1451_fw.png	213.8929419517517	
122	108.06895184516907	picture	0		87	120.0	/experiments/knapen_AOT/AOT_stimuli/pictures/1263_fw.png	213.90193891525269	0.7292971611022949
122	108.77817797660828	response	0	k		120.0	/experiments/knapen_AOT/AOT_stimuli/pictures/1263_fw.png	214.6111650466919	
123	108.79824900627136	picture	0		95	121.0	/experiments/knapen_AOT/AOT_stimuli/pictures/0845_fw.png	214.63123607635498	0.79852294921875
123	109.57807803153992	response	0	k		121.0	/experiments/knapen_AOT/AOT_stimuli/pictures/0845_fw.png	215.41106510162354	
124	109.59677195549011	picture	0		82	122.0	/experiments/knapen_AOT/AOT_stimuli/pictures/1962_fw.png	215.42975902557373	0.680595874786377
124	110.2681200504303	response	0	j		122.0	/experiments/knapen_AOT/AOT_stimuli/pictures/1962_fw.png	216.10110712051392	
125	110.27736783027649	picture	0		81	123.0	/experiments/knapen_AOT/AOT_stimuli/pictures/0563_fw.png	216.1103549003601	0.6740801334381104
125	110.94321298599243	response	0	k		123.0	/experiments/knapen_AOT/AOT_stimuli/pictures/0563_fw.png	216.77620005607605	
126	110.9514479637146	picture	0		98	124.0	/experiments/knapen_AOT/AOT_stimuli/pictures/1997_fw.png	216.78443503379822	0.8189659118652344
126	111.75314497947693	response	0	k		124.0	/experiments/knapen_AOT/AOT_stimuli/pictures/1997_fw.png	217.58613204956055	
127	111.77041387557983	picture	0		73	125.0	/experiments/knapen_AOT/AOT_stimuli/pictures/1903_fw.png	217.60340094566345	0.6111099720001221
127	112.361398935318	response	0	k		125.0	/experiments/knapen_AOT/AOT_stimuli/pictures/1903_fw.png	218.1943860054016	
128	112.38152384757996	picture	0		94	126.0	/experiments/knapen_AOT/AOT_stimuli/pictures/1589_fw.png	218.21451091766357	0.7917120456695557
128	113.1530590057373	response	0	j		126.0	/experiments/knapen_AOT/AOT_stimuli/pictures/1589_fw.png	218.98604607582092	
129	113.17323589324951	picture	0		74	127.0	/experiments/knapen_AOT/AOT_stimuli/pictures/0418_fw.png	219.00622296333313	0.6250081062316895
129	113.77809405326843	response	0	j		127.0	/experiments/knapen_AOT/AOT_stimuli/pictures/0418_fw.png	219.61108112335205	
130	113.7982439994812	picture	0		105	128.0	/experiments/knapen_AOT/AOT_stimuli/pictures/0509_fw.png	219.63123106956482	0.8819320201873779
130	114.66837787628174	response	0	k		128.0	/experiments/knapen_AOT/AOT_stimuli/pictures/0509_fw.png	220.50136494636536	
131	114.68017601966858	picture	0		109	129.0	/experiments/knapen_AOT/AOT_stimuli/pictures/0747_fw.png	220.5131630897522	0.9096879959106445
131	115.56979298591614	response	0	j		129.0	/experiments/knapen_AOT/AOT_stimuli/pictures/0747_fw.png	221.40278005599976	
132	115.58986401557922	picture	0		90	130.0	/experiments/knapen_AOT/AOT_stimuli/pictures/1672_fw.png	221.42285108566284	0.7569708824157715
132	116.33493995666504	response	0	k		130.0	/experiments/knapen_AOT/AOT_stimuli/pictures/1672_fw.png	222.16792702674866	
133	116.346834897995	picture	0		143	131.0	/experiments/knapen_AOT/AOT_stimuli/pictures/1309_fw.png	222.1798219680786	1.2222189903259277
133	117.55349683761597	response	0	k		131.0	/experiments/knapen_AOT/AOT_stimuli/pictures/1309_fw.png	223.38648390769958	
134	117.56905388832092	picture	0		135	132.0	/experiments/knapen_AOT/AOT_stimuli/pictures/1059_fw.png	223.40204095840454	1.1250770092010498
134	118.6849000453949	response	0	k		132.0	/experiments/knapen_AOT/AOT_stimuli/pictures/1059_fw.png	224.51788711547852	
135	118.69413089752197	picture	0		85	133.0	/experiments/knapen_AOT/AOT_stimuli/pictures/0118_fw.png	224.5271179676056	0.7083749771118164
135	119.39336800575256	response	0	k		133.0	/experiments/knapen_AOT/AOT_stimuli/pictures/0118_fw.png	225.22635507583618	
136	119.40250587463379	picture	0		81	134.0	/experiments/knapen_AOT/AOT_stimuli/pictures/1367_fw.png	225.2354929447174	0.6740031242370605
136	120.06842803955078	response	0	k		134.0	/experiments/knapen_AOT/AOT_stimuli/pictures/1367_fw.png	225.9014151096344	
137	120.07650899887085	picture	0		100	135.0	/experiments/knapen_AOT/AOT_stimuli/pictures/1719_fw.png	225.90949606895447	0.8333430290222168
137	120.90162801742554	response	0	k		135.0	/experiments/knapen_AOT/AOT_stimuli/pictures/1719_fw.png	226.73461508750916	
138	120.90985202789307	picture	0		92	136.0	/experiments/knapen_AOT/AOT_stimuli/pictures/0141_fw.png	226.74283909797668	0.7704439163208008
138	121.66845393180847	response	0	j		136.0	/experiments/knapen_AOT/AOT_stimuli/pictures/0141_fw.png	227.5014410018921	
139	121.68029594421387	picture	0		110	137.0	/experiments/knapen_AOT/AOT_stimuli/pictures/0366_fw.png	227.51328301429749	0.9165830612182617
139	122.58497285842896	response	0	j		137.0	/experiments/knapen_AOT/AOT_stimuli/pictures/0366_fw.png	228.41795992851257	
140	122.59687900543213	picture	0		94	138.0	/experiments/knapen_AOT/AOT_stimuli/pictures/0124_fw.png	228.42986607551575	0.7847559452056885
140	123.36150693893433	response	0	k		138.0	/experiments/knapen_AOT/AOT_stimuli/pictures/0124_fw.png	229.19449400901794	
141	123.38163495063782	picture	0		94	139.0	/experiments/knapen_AOT/AOT_stimuli/pictures/2098_fw.png	229.21462202072144	0.7917270660400391
141	124.1531970500946	response	0	j		139.0	/experiments/knapen_AOT/AOT_stimuli/pictures/2098_fw.png	229.98618412017822	
142	124.17336201667786	picture	0		96	140.0	/experiments/knapen_AOT/AOT_stimuli/pictures/0054_fw.png	230.00634908676147	0.8054628372192383
142	124.96855592727661	response	0	k		140.0	/experiments/knapen_AOT/AOT_stimuli/pictures/0054_fw.png	230.80154299736023	
143	124.9788248538971	picture	0		76	141.0	/experiments/knapen_AOT/AOT_stimuli/pictures/2134_fw.png	230.8118119239807	0.6319530010223389
143	125.60173296928406	response	0	j		141.0	/experiments/knapen_AOT/AOT_stimuli/pictures/2134_fw.png	231.43472003936768	
144	125.61077785491943	picture	0		95	142.0	/experiments/knapen_AOT/AOT_stimuli/pictures/0487_fw.png	231.44376492500305	0.7917771339416504
144	126.39345383644104	response	0	j		142.0	/experiments/knapen_AOT/AOT_stimuli/pictures/0487_fw.png	232.22644090652466	
145	126.40255498886108	picture	0		135	143.0	/experiments/knapen_AOT/AOT_stimuli/pictures/0159_fw.png	232.2355420589447	1.1250178813934326
145	127.51837205886841	response	0	k		143.0	/experiments/knapen_AOT/AOT_stimuli/pictures/0159_fw.png	233.35135912895203	
146	127.52757287025452	picture	0		78	144.0	/experiments/knapen_AOT/AOT_stimuli/pictures/0682_fw.png	233.36055994033813	0.6527271270751953
146	128.16156101226807	response	0	j		144.0	/experiments/knapen_AOT/AOT_stimuli/pictures/0682_fw.png	233.99454808235168	
147	128.1802999973297	picture	0		115	145.0	/experiments/knapen_AOT/AOT_stimuli/pictures/1789_fw.png	234.01328706741333	0.9583940505981445
147	129.1268448829651	response	0	k		145.0	/experiments/knapen_AOT/AOT_stimuli/pictures/1789_fw.png	234.9598319530487	
148	129.13869404792786	picture	0		82	146.0	/experiments/knapen_AOT/AOT_stimuli/pictures/1084_fw.png	234.97168111801147	0.6805648803710938
148	129.8100550174713	response	0	k		146.0	/experiments/knapen_AOT/AOT_stimuli/pictures/1084_fw.png	235.64304208755493	
149	129.81925892829895	picture	0		74	147.0	/experiments/knapen_AOT/AOT_stimuli/pictures/0160_fw.png	235.65224599838257	0.6180729866027832
149	130.42680096626282	response	0	j		147.0	/experiments/knapen_AOT/AOT_stimuli/pictures/0160_fw.png	236.25978803634644	
150	130.43733191490173	picture	0		77	148.0	/experiments/knapen_AOT/AOT_stimuli/pictures/0977_fw.png	236.27031898498535	0.639415979385376
150	131.06859493255615	response	0	k		148.0	/experiments/knapen_AOT/AOT_stimuli/pictures/0977_fw.png	236.90158200263977	
151	131.0767478942871	picture	0		82	149.0	/experiments/knapen_AOT/AOT_stimuli/pictures/1983_fw.png	236.90973496437073	0.6868801116943359
151	131.7451150417328	response	0	j		149.0	/experiments/knapen_AOT/AOT_stimuli/pictures/1983_fw.png	237.5781021118164	
152	131.76362800598145	picture	0		161	150.0	/experiments/knapen_AOT/AOT_stimuli/pictures/0922_fw.png	237.59661507606506	1.340250015258789
152	133.09362196922302	response	0	k		150.0	/experiments/knapen_AOT/AOT_stimuli/pictures/0922_fw.png	238.92660903930664	
153	133.10387802124023	picture	0		89	151.0	/experiments/knapen_AOT/AOT_stimuli/pictures/2040_fw.png	238.93686509132385	0.743074893951416
153	133.8352210521698	response	0	j		151.0	/experiments/knapen_AOT/AOT_stimuli/pictures/2040_fw.png	239.66820812225342	
154	133.84695291519165	picture	0		101	152.0	/experiments/knapen_AOT/AOT_stimuli/pictures/1969_fw.png	239.67993998527527	0.8402960300445557
154	134.67688488960266	response	0	j		152.0	/experiments/knapen_AOT/AOT_stimuli/pictures/1969_fw.png	240.50987195968628	
155	134.6872489452362	picture	0		87	153.0	/experiments/knapen_AOT/AOT_stimuli/pictures/0918_fw.png	240.52023601531982	0.7229969501495361
155	135.40186405181885	response	0	k		153.0	/experiments/knapen_AOT/AOT_stimuli/pictures/0918_fw.png	241.23485112190247	
156	135.41024589538574	picture	0		90	154.0	/experiments/knapen_AOT/AOT_stimuli/pictures/1168_fw.png	241.24323296546936	0.7583270072937012
156	136.14528393745422	response	0	j		154.0	/experiments/knapen_AOT/AOT_stimuli/pictures/1168_fw.png	241.97827100753784	
157	136.16857290267944	picture	0		122	155.0	/experiments/knapen_AOT/AOT_stimuli/pictures/0479_fw.png	242.00155997276306	1.0188090801239014
157	137.1768388748169	response	0	k		155.0	/experiments/knapen_AOT/AOT_stimuli/pictures/0479_fw.png	243.0098259449005	
158	137.18738198280334	picture	0		160	156.0	/experiments/knapen_AOT/AOT_stimuli/pictures/0192_fw.png	243.02036905288696	1.333380937576294
158	138.51017785072327	response	0	j		156.0	/experiments/knapen_AOT/AOT_stimuli/pictures/0192_fw.png	244.34316492080688	
159	138.52076292037964	picture	0		121	157.0	/experiments/knapen_AOT/AOT_stimuli/pictures/1900_fw.png	244.35374999046326	1.0068519115447998
159	139.5185308456421	response	0	k		157.0	/experiments/knapen_AOT/AOT_stimuli/pictures/1900_fw.png	245.3515179157257	
160	139.52761483192444	picture	0		102	158.0	/experiments/knapen_AOT/AOT_stimuli/pictures/1784_fw.png	245.36060190200806	0.8541560173034668
160	140.36856985092163	response	0	k		158.0	/experiments/knapen_AOT/AOT_stimuli/pictures/1784_fw.png	246.20155692100525	
161	140.3817708492279	picture	0		91	159.0	/experiments/knapen_AOT/AOT_stimuli/pictures/1320_fw.png	246.21475791931152	0.763897180557251
161	141.12854290008545	response	0	j		159.0	/experiments/knapen_AOT/AOT_stimuli/pictures/1320_fw.png	246.96152997016907	
162	141.14566802978516	picture	0		78	160.0	/experiments/knapen_AOT/AOT_stimuli/pictures/2166_fw.png	246.97865509986877	0.6527328491210938
162	141.78537583351135	response	0	k		160.0	/experiments/knapen_AOT/AOT_stimuli/pictures/2166_fw.png	247.61836290359497	
163	141.79840087890625	picture	0		173	161.0	/experiments/knapen_AOT/AOT_stimuli/pictures/0176_fw.png	247.63138794898987	1.4534120559692383
163	143.23545002937317	response	0	j		161.0	/experiments/knapen_AOT/AOT_stimuli/pictures/0176_fw.png	249.0684370994568	
164	143.2518129348755	picture	0		72	162.0	/experiments/knapen_AOT/AOT_stimuli/pictures/0598_fw.png	249.0848000049591	0.6021440029144287
164	143.84375095367432	response	0	j		162.0	/experiments/knapen_AOT/AOT_stimuli/pictures/0598_fw.png	249.67673802375793	
165	143.85395693778992	picture	0		86	163.0	/experiments/knapen_AOT/AOT_stimuli/pictures/1032_fw.png	249.68694400787354	0.7154040336608887
165	144.56024599075317	response	0	k		163.0	/experiments/knapen_AOT/AOT_stimuli/pictures/1032_fw.png	250.3932330608368	
166	144.5693609714508	picture	0		95	164.0	/experiments/knapen_AOT/AOT_stimuli/pictures/1085_fw.png	250.40234804153442	0.7915680408477783
166	145.35195183753967	response	0	k		164.0	/experiments/knapen_AOT/AOT_stimuli/pictures/1085_fw.png	251.1849389076233	
167	145.36092901229858	picture	0		76	165.0	/experiments/knapen_AOT/AOT_stimuli/pictures/0869_fw.png	251.1939160823822	0.632796049118042
167	145.9853160381317	response	0	j		165.0	/experiments/knapen_AOT/AOT_stimuli/pictures/0869_fw.png	251.81830310821533	
168	145.99372506141663	picture	0		77	166.0	/experiments/knapen_AOT/AOT_stimuli/pictures/2105_fw.png	251.82671213150024	0.6450138092041016
168	146.6269989013672	response	0	j		166.0	/experiments/knapen_AOT/AOT_stimuli/pictures/2105_fw.png	252.4599859714508	
169	146.63873887062073	picture	0		73	167.0	/experiments/knapen_AOT/AOT_stimuli/pictures/0546_fw.png	252.47172594070435	0.6048390865325928
169	147.23532795906067	response	0	j		167.0	/experiments/knapen_AOT/AOT_stimuli/pictures/0546_fw.png	253.0683150291443	
170	147.24357795715332	picture	0		78	168.0	/experiments/knapen_AOT/AOT_stimuli/pictures/2110_fw.png	253.07656502723694	0.6520850658416748
170	147.88533306121826	response	0	j		168.0	/experiments/knapen_AOT/AOT_stimuli/pictures/2110_fw.png	253.71832013130188	
171	147.895663022995	picture	0		72	169.0	/experiments/knapen_AOT/AOT_stimuli/pictures/0772_fw.png	253.7286500930786	0.6042180061340332
171	148.48533391952515	response	0	j		169.0	/experiments/knapen_AOT/AOT_stimuli/pictures/0772_fw.png	254.31832098960876	
172	148.49988102912903	picture	0		73	170.0	/experiments/knapen_AOT/AOT_stimuli/pictures/0731_fw.png	254.33286809921265	0.611083984375
172	149.10204696655273	response	0	j		170.0	/experiments/knapen_AOT/AOT_stimuli/pictures/0731_fw.png	254.93503403663635	
173	149.11096501350403	picture	0		77	171.0	/experiments/knapen_AOT/AOT_stimuli/pictures/0978_fw.png	254.94395208358765	0.6458389759063721
173	149.73689889907837	response	0	k		171.0	/experiments/knapen_AOT/AOT_stimuli/pictures/0978_fw.png	255.569885969162	
174	149.7568039894104	picture	0		131	172.0	/experiments/knapen_AOT/AOT_stimuli/pictures/0082_fw.png	255.58979105949402	1.090306043624878
174	150.83547401428223	response	0	j		172.0	/experiments/knapen_AOT/AOT_stimuli/pictures/0082_fw.png	256.66846108436584	
175	150.84711003303528	picture	0		117	173.0	/experiments/knapen_AOT/AOT_stimuli/pictures/0517_fw.png	256.6800971031189	0.9722278118133545
175	151.81035494804382	response	0	k		173.0	/experiments/knapen_AOT/AOT_stimuli/pictures/0517_fw.png	257.64334201812744	
176	151.81933784484863	picture	0		98	174.0	/experiments/knapen_AOT/AOT_stimuli/pictures/1433_fw.png	257.65232491493225	0.8194291591644287
176	152.62706899642944	response	0	k		174.0	/experiments/knapen_AOT/AOT_stimuli/pictures/1433_fw.png	258.46005606651306	
177	152.63876700401306	picture	0		86	175.0	/experiments/knapen_AOT/AOT_stimuli/pictures/0528_fw.png	258.4717540740967	0.7153229713439941
177	153.34392189979553	response	0	j		175.0	/experiments/knapen_AOT/AOT_stimuli/pictures/0528_fw.png	259.17690896987915	
178	153.35408997535706	picture	0		83	176.0	/experiments/knapen_AOT/AOT_stimuli/pictures/1007_fw.png	259.1870770454407	0.6945359706878662
178	154.03556299209595	response	0	k		176.0	/experiments/knapen_AOT/AOT_stimuli/pictures/1007_fw.png	259.86855006217957	
179	154.04862594604492	picture	0		98	177.0	/experiments/knapen_AOT/AOT_stimuli/pictures/0225_fw.png	259.88161301612854	0.8471419811248779
179	154.8854329586029	response	0	j		177.0	/experiments/knapen_AOT/AOT_stimuli/pictures/0225_fw.png	260.7184200286865	
180	154.8957679271698	picture	0		200	178.0	/experiments/knapen_AOT/AOT_stimuli/pictures/0208_fw.png	260.7287549972534	1.666712999343872
180	156.55211997032166	response	0	k		178.0	/experiments/knapen_AOT/AOT_stimuli/pictures/0208_fw.png	262.3851070404053	
181	156.56248092651367	picture	0		112	179.0	/experiments/knapen_AOT/AOT_stimuli/pictures/1710_fw.png	262.3954679965973	0.9311819076538086
181	157.48543691635132	response	0	k		179.0	/experiments/knapen_AOT/AOT_stimuli/pictures/1710_fw.png	263.31842398643494	
182	157.49366283416748	picture	0		144	180.0	/experiments/knapen_AOT/AOT_stimuli/pictures/1679_fw.png	263.3266499042511	1.2007880210876465
182	158.68550300598145	response	0	k		180.0	/experiments/knapen_AOT/AOT_stimuli/pictures/1679_fw.png	264.51849007606506	
183	158.69445085525513	picture	0		117	181.0	/experiments/knapen_AOT/AOT_stimuli/pictures/1889_fw.png	264.52743792533875	0.9792671203613281
183	159.6604778766632	response	0	j		181.0	/experiments/knapen_AOT/AOT_stimuli/pictures/1889_fw.png	265.4934649467468	
184	159.67371797561646	picture	0		95	182.0	/experiments/knapen_AOT/AOT_stimuli/pictures/0593_fw.png	265.5067050457001	0.7985398769378662
184	160.46052503585815	response	0	j		182.0	/experiments/knapen_AOT/AOT_stimuli/pictures/0593_fw.png	266.2935121059418	
185	160.47225785255432	picture	0		92	183.0	/experiments/knapen_AOT/AOT_stimuli/pictures/1864_fw.png	266.30524492263794	0.7638862133026123
185	161.2273190021515	response	0	j		183.0	/experiments/knapen_AOT/AOT_stimuli/pictures/1864_fw.png	267.0603060722351	
186	161.23614406585693	picture	0		89	184.0	/experiments/knapen_AOT/AOT_stimuli/pictures/1601_fw.png	267.06913113594055	0.7430188655853271
186	161.9689018726349	response	0	j		184.0	/experiments/knapen_AOT/AOT_stimuli/pictures/1601_fw.png	267.8018889427185	
187	161.97916293144226	picture	0		74	185.0	/experiments/knapen_AOT/AOT_stimuli/pictures/1840_fw.png	267.8121500015259	0.6181209087371826
187	162.5855450630188	response	0	j		185.0	/experiments/knapen_AOT/AOT_stimuli/pictures/1840_fw.png	268.4185321331024	
188	162.59728384017944	picture	0		88	186.0	/experiments/knapen_AOT/AOT_stimuli/pictures/1288_fw.png	268.43027091026306	0.7360351085662842
188	163.31214594841003	response	0	k		186.0	/experiments/knapen_AOT/AOT_stimuli/pictures/1288_fw.png	269.14513301849365	
189	163.33331894874573	picture	0		115	187.0	/experiments/knapen_AOT/AOT_stimuli/pictures/0982_fw.png	269.16630601882935	0.9654369354248047
189	164.28558087348938	response	0	k		187.0	/experiments/knapen_AOT/AOT_stimuli/pictures/0982_fw.png	270.118567943573	
190	164.29875588417053	picture	0		82	188.0	/experiments/knapen_AOT/AOT_stimuli/pictures/1202_fw.png	270.13174295425415	0.6873569488525391
190	164.97725987434387	response	0	k		188.0	/experiments/knapen_AOT/AOT_stimuli/pictures/1202_fw.png	270.8102469444275	
191	164.98611283302307	picture	0		81	189.0	/experiments/knapen_AOT/AOT_stimuli/pictures/1776_fw.png	270.8190999031067	0.6743571758270264
191	165.65227484703064	response	0	j		189.0	/experiments/knapen_AOT/AOT_stimuli/pictures/1776_fw.png	271.48526191711426	
192	165.6604700088501	picture	0		91	190.0	/experiments/knapen_AOT/AOT_stimuli/pictures/0821_fw.png	271.4934570789337	0.7631959915161133
192	166.41058897972107	response	0	j		190.0	/experiments/knapen_AOT/AOT_stimuli/pictures/0821_fw.png	272.2435760498047	
193	166.4236660003662	picture	0		89	191.0	/experiments/knapen_AOT/AOT_stimuli/pictures/2052_fw.png	272.25665307044983	0.7430288791656494
193	167.15233397483826	response	0	k		191.0	/experiments/knapen_AOT/AOT_stimuli/pictures/2052_fw.png	272.9853210449219	
194	167.16669487953186	picture	0		116	192.0	/experiments/knapen_AOT/AOT_stimuli/pictures/0331_fw.png	272.9996819496155	0.9723231792449951
194	168.12734603881836	response	0	k		192.0	/experiments/knapen_AOT/AOT_stimuli/pictures/0331_fw.png	273.960333108902	
195	168.13901805877686	picture	0		138	193.0	/experiments/knapen_AOT/AOT_stimuli/pictures/0521_fw.png	273.9720051288605	1.146521806716919
195	169.27728986740112	response	0	k		193.0	/experiments/knapen_AOT/AOT_stimuli/pictures/0521_fw.png	275.11027693748474	
196	169.28553986549377	picture	0		76	194.0	/experiments/knapen_AOT/AOT_stimuli/pictures/0178_fw.png	275.1185269355774	0.6381561756134033
196	169.9039969444275	response	0	k		194.0	/experiments/knapen_AOT/AOT_stimuli/pictures/0178_fw.png	275.7369840145111	
197	169.92369604110718	picture	0		84	195.0	/experiments/knapen_AOT/AOT_stimuli/pictures/0734_fw.png	275.7566831111908	0.7082779407501221
197	170.61895084381104	response	0	j		195.0	/experiments/knapen_AOT/AOT_stimuli/pictures/0734_fw.png	276.45193791389465	
198	170.6319739818573	picture	0		99	196.0	/experiments/knapen_AOT/AOT_stimuli/pictures/1800_fw.png	276.4649610519409	0.820281982421875
198	171.44395685195923	response	0	j		196.0	/experiments/knapen_AOT/AOT_stimuli/pictures/1800_fw.png	277.27694392204285	
199	171.45225596427917	picture	0		100	197.0	/experiments/knapen_AOT/AOT_stimuli/pictures/0625_fw.png	277.2852430343628	0.8332948684692383
199	172.27745294570923	response	0	k		197.0	/experiments/knapen_AOT/AOT_stimuli/pictures/0625_fw.png	278.11044001579285	
200	172.2855508327484	picture	0		71	198.0	/experiments/knapen_AOT/AOT_stimuli/pictures/0101_fw.png	278.11853790283203	0.5964441299438477
200	172.8690128326416	response	0	k		198.0	/experiments/knapen_AOT/AOT_stimuli/pictures/0101_fw.png	278.7019999027252	
201	172.88199496269226	picture	0		67	199.0	/experiments/knapen_AOT/AOT_stimuli/pictures/1480_fw.png	278.7149820327759	0.5834059715270996
201	173.4524028301239	response	0	k		199.0	/experiments/knapen_AOT/AOT_stimuli/pictures/1480_fw.png	279.2853899002075	
202	173.46540093421936	picture	0		96	200.0	/experiments/knapen_AOT/AOT_stimuli/pictures/1970_fw.png	279.298388004303	0.8054909706115723
202	174.26066493988037	response	0	j		200.0	/experiments/knapen_AOT/AOT_stimuli/pictures/1970_fw.png	280.093652009964	
203	174.27089190483093	picture	0		76	201.0	/experiments/knapen_AOT/AOT_stimuli/pictures/0719_fw.png	280.10387897491455	0.6319489479064941
203	174.8872890472412	response	0	j		201.0	/experiments/knapen_AOT/AOT_stimuli/pictures/0719_fw.png	280.72027611732483	
204	174.90284085273743	picture	0		81	202.0	/experiments/knapen_AOT/AOT_stimuli/pictures/0405_fw.png	280.73582792282104	0.6806759834289551
204	175.5691578388214	response	0	k		202.0	/experiments/knapen_AOT/AOT_stimuli/pictures/0405_fw.png	281.40214490890503	
205	175.58351683616638	picture	0		80	203.0	/experiments/knapen_AOT/AOT_stimuli/pictures/1607_fw.png	281.41650390625	0.6735820770263672
205	176.24405884742737	response	0	k		203.0	/experiments/knapen_AOT/AOT_stimuli/pictures/1607_fw.png	282.077045917511	
206	176.25709891319275	picture	0		99	204.0	/experiments/knapen_AOT/AOT_stimuli/pictures/0084_fw.png	282.09008598327637	0.820188045501709
206	177.06906294822693	response	0	k		204.0	/experiments/knapen_AOT/AOT_stimuli/pictures/0084_fw.png	282.90205001831055	
207	177.07728695869446	picture	0		84	205.0	/experiments/knapen_AOT/AOT_stimuli/pictures/0751_fw.png	282.9102740287781	0.7005579471588135
207	177.76901698112488	response	0	j		205.0	/experiments/knapen_AOT/AOT_stimuli/pictures/0751_fw.png	283.6020040512085	
208	177.77784490585327	picture	0		81	206.0	/experiments/knapen_AOT/AOT_stimuli/pictures/0684_fw.png	283.6108319759369	0.680670976638794
208	178.44465804100037	response	0	k		206.0	/experiments/knapen_AOT/AOT_stimuli/pictures/0684_fw.png	284.277645111084	
209	178.45851588249207	picture	0		104	207.0	/experiments/knapen_AOT/AOT_stimuli/pictures/0791_fw.png	284.2915029525757	0.8749790191650391
209	179.3197889328003	response	0	j		207.0	/experiments/knapen_AOT/AOT_stimuli/pictures/0791_fw.png	285.1527760028839	
210	179.3334949016571	picture	0		77	208.0	/experiments/knapen_AOT/AOT_stimuli/pictures/0570_fw.png	285.1664819717407	0.6458570957183838
210	179.96906805038452	response	0	k		208.0	/experiments/knapen_AOT/AOT_stimuli/pictures/0570_fw.png	285.80205512046814	
211	179.9793519973755	picture	0		89	209.0	/experiments/knapen_AOT/AOT_stimuli/pictures/1238_fw.png	285.8123390674591	0.7430338859558105
211	180.7040820121765	response	0	k		209.0	/experiments/knapen_AOT/AOT_stimuli/pictures/1238_fw.png	286.53706908226013	
212	180.7223858833313	picture	0		95	210.0	/experiments/knapen_AOT/AOT_stimuli/pictures/0133_fw.png	286.5553729534149	0.7916271686553955
212	181.49564385414124	response	0	j		210.0	/experiments/knapen_AOT/AOT_stimuli/pictures/0133_fw.png	287.32863092422485	
213	181.5140130519867	picture	0		99	211.0	/experiments/knapen_AOT/AOT_stimuli/pictures/1539_fw.png	287.3470001220703	0.826462984085083
213	182.32750391960144	response	0	k		211.0	/experiments/knapen_AOT/AOT_stimuli/pictures/1539_fw.png	288.16049098968506	
214	182.34047603607178	picture	0		118	212.0	/experiments/knapen_AOT/AOT_stimuli/pictures/1737_fw.png	288.1734631061554	0.9790759086608887
214	183.31095600128174	response	0	j		212.0	/experiments/knapen_AOT/AOT_stimuli/pictures/1737_fw.png	289.14394307136536	
215	183.31955194473267	picture	0		82	213.0	/experiments/knapen_AOT/AOT_stimuli/pictures/1195_fw.png	289.1525390148163	0.6911439895629883
215	183.99419498443604	response	0	j		213.0	/experiments/knapen_AOT/AOT_stimuli/pictures/1195_fw.png	289.82718205451965	
216	184.01069593429565	picture	0		68	214.0	/experiments/knapen_AOT/AOT_stimuli/pictures/0996_fw.png	289.8436830043793	0.5750410556793213
216	184.5697569847107	response	0	j		214.0	/experiments/knapen_AOT/AOT_stimuli/pictures/0996_fw.png	290.4027440547943	
217	184.58573698997498	picture	0		70	215.0	/experiments/knapen_AOT/AOT_stimuli/pictures/0928_fw.png	290.4187240600586	0.5880410671234131
217	185.1608338356018	response	0	j		215.0	/experiments/knapen_AOT/AOT_stimuli/pictures/0928_fw.png	290.9938209056854	
218	185.1737780570984	picture	0		89	216.0	/experiments/knapen_AOT/AOT_stimuli/pictures/1420_fw.png	291.006765127182	0.743060827255249
218	185.89579892158508	response	0	j		216.0	/experiments/knapen_AOT/AOT_stimuli/pictures/1420_fw.png	291.7287859916687	
219	185.91683888435364	picture	0		74	217.0	/experiments/knapen_AOT/AOT_stimuli/pictures/2004_fw.png	291.74982595443726	0.6249580383300781
219	186.52801489830017	response	0	j		217.0	/experiments/knapen_AOT/AOT_stimuli/pictures/2004_fw.png	292.3610019683838	
220	186.54179692268372	picture	0		88	218.0	/experiments/knapen_AOT/AOT_stimuli/pictures/0396_fw.png	292.37478399276733	0.7361230850219727
220	187.26924085617065	response	0	j		218.0	/experiments/knapen_AOT/AOT_stimuli/pictures/0396_fw.png	293.1022279262543	
221	187.2779200077057	picture	0		82	219.0	/experiments/knapen_AOT/AOT_stimuli/pictures/0824_fw.png	293.1109070777893	0.6875519752502441
221	187.9526538848877	response	0	j		219.0	/experiments/knapen_AOT/AOT_stimuli/pictures/0824_fw.png	293.7856409549713	
222	187.96547198295593	picture	0		92	220.0	/experiments/knapen_AOT/AOT_stimuli/pictures/1311_fw.png	293.79845905303955	0.7709310054779053
222	188.72765493392944	response	0	j		220.0	/experiments/knapen_AOT/AOT_stimuli/pictures/1311_fw.png	294.56064200401306	
223	188.73640298843384	picture	0		133	221.0	/experiments/knapen_AOT/AOT_stimuli/pictures/1256_fw.png	294.56939005851746	1.111016035079956
223	189.83593583106995	response	0	k		221.0	/experiments/knapen_AOT/AOT_stimuli/pictures/1256_fw.png	295.66892290115356	
224	189.8474190235138	picture	0		91	222.0	/experiments/knapen_AOT/AOT_stimuli/pictures/2159_fw.png	295.6804060935974	0.7569990158081055
224	190.59429383277893	response	0	k		222.0	/experiments/knapen_AOT/AOT_stimuli/pictures/2159_fw.png	296.42728090286255	
225	190.6044180393219	picture	0		111	223.0	/experiments/knapen_AOT/AOT_stimuli/pictures/1670_fw.png	296.4374051094055	0.9313759803771973
225	191.51938891410828	response	0	k		223.0	/experiments/knapen_AOT/AOT_stimuli/pictures/1670_fw.png	297.3523759841919	
226	191.5357940196991	picture	0		84	224.0	/experiments/knapen_AOT/AOT_stimuli/pictures/1438_fw.png	297.3687810897827	0.735327959060669
226	192.26091599464417	response	0	k		224.0	/experiments/knapen_AOT/AOT_stimuli/pictures/1438_fw.png	298.0939030647278	
227	192.27112197875977	picture	0		95	225.0	/experiments/knapen_AOT/AOT_stimuli/pictures/0933_fw.png	298.1041090488434	0.7916700839996338
227	193.0527319908142	response	0	k		225.0	/experiments/knapen_AOT/AOT_stimuli/pictures/0933_fw.png	298.8857190608978	
228	193.0627920627594	picture	0		81	226.0	/experiments/knapen_AOT/AOT_stimuli/pictures/0346_fw.png	298.895779132843	0.6736648082733154
228	193.72775292396545	response	0	j		226.0	/experiments/knapen_AOT/AOT_stimuli/pictures/0346_fw.png	299.5607399940491	
229	193.73645687103271	picture	0		68	227.0	/experiments/knapen_AOT/AOT_stimuli/pictures/1068_fw.png	299.56944394111633	0.5693140029907227
229	194.28750085830688	response	0	k		227.0	/experiments/knapen_AOT/AOT_stimuli/pictures/1068_fw.png	300.1204879283905	
230	194.30577087402344	picture	0		73	228.0	/experiments/knapen_AOT/AOT_stimuli/pictures/0235_fw.png	300.13875794410706	0.6110861301422119
230	194.9031229019165	response	0	j		228.0	/experiments/knapen_AOT/AOT_stimuli/pictures/0235_fw.png	300.7361099720001	
231	194.91685700416565	picture	0		110	229.0	/experiments/knapen_AOT/AOT_stimuli/pictures/0032_fw.png	300.74984407424927	0.9236898422241211
231	195.82781505584717	response	0	k		229.0	/experiments/knapen_AOT/AOT_stimuli/pictures/0032_fw.png	301.6608021259308	
232	195.84054684638977	picture	0		69	230.0	/experiments/knapen_AOT/AOT_stimuli/pictures/1521_fw.png	301.6735339164734	0.5869910717010498
232	196.4109959602356	response	0	j		230.0	/experiments/knapen_AOT/AOT_stimuli/pictures/1521_fw.png	302.2439830303192	
233	196.42753791809082	picture	0		76	231.0	/experiments/knapen_AOT/AOT_stimuli/pictures/0384_fw.png	302.26052498817444	0.635261058807373
233	197.05282592773438	response	0	j		231.0	/experiments/knapen_AOT/AOT_stimuli/pictures/0384_fw.png	302.885812997818	
234	197.0627989768982	picture	0		81	232.0	/experiments/knapen_AOT/AOT_stimuli/pictures/0326_fw.png	302.8957860469818	0.6736738681793213
234	197.72778391838074	response	0	j		232.0	/experiments/knapen_AOT/AOT_stimuli/pictures/0326_fw.png	303.56077098846436	
235	197.73647284507751	picture	0		87	233.0	/experiments/knapen_AOT/AOT_stimuli/pictures/0549_fw.png	303.56945991516113	0.7290771007537842
235	198.45279097557068	response	0	j		233.0	/experiments/knapen_AOT/AOT_stimuli/pictures/0549_fw.png	304.2857780456543	
236	198.4655499458313	picture	0		87	234.0	/experiments/knapen_AOT/AOT_stimuli/pictures/1342_fw.png	304.2985370159149	0.7291851043701172
236	199.1860568523407	response	0	j		234.0	/experiments/knapen_AOT/AOT_stimuli/pictures/1342_fw.png	305.0190439224243	
237	199.19473505020142	picture	0		83	235.0	/experiments/knapen_AOT/AOT_stimuli/pictures/1114_fw.png	305.02772212028503	0.694403886795044
237	199.8710639476776	response	0	j		235.0	/experiments/knapen_AOT/AOT_stimuli/pictures/1114_fw.png	305.70405101776123	
238	199.88913893699646	picture	0		112	236.0	/experiments/knapen_AOT/AOT_stimuli/pictures/0906_fw.png	305.7221260070801	0.9306581020355225
238	200.81107306480408	response	0	k		236.0	/experiments/knapen_AOT/AOT_stimuli/pictures/0906_fw.png	306.6440601348877	
239	200.81979703903198	picture	0		94	237.0	/experiments/knapen_AOT/AOT_stimuli/pictures/1400_fw.png	306.6527841091156	0.784782886505127
239	201.5945348739624	response	0	k		237.0	/experiments/knapen_AOT/AOT_stimuli/pictures/1400_fw.png	307.427521944046	
240	201.6045799255371	picture	0		91	238.0	/experiments/knapen_AOT/AOT_stimuli/pictures/0336_fw.png	307.4375669956207	0.7568421363830566
240	202.35280895233154	response	0	j		238.0	/experiments/knapen_AOT/AOT_stimuli/pictures/0336_fw.png	308.18579602241516	
241	202.36142206192017	picture	0		77	239.0	/experiments/knapen_AOT/AOT_stimuli/pictures/0555_fw.png	308.1944091320038	0.6458508968353271
241	202.99454498291016	response	0	k		239.0	/experiments/knapen_AOT/AOT_stimuli/pictures/0555_fw.png	308.8275320529938	
242	203.0072729587555	picture	0		71	240.0	/experiments/knapen_AOT/AOT_stimuli/pictures/2049_fw.png	308.8402600288391	0.5902340412139893
242	203.58607292175293	response	0	k		240.0	/experiments/knapen_AOT/AOT_stimuli/pictures/2049_fw.png	309.41905999183655	
243	203.59750699996948	picture	0		83	241.0	/experiments/knapen_AOT/AOT_stimuli/pictures/2070_fw.png	309.4304940700531	0.6944370269775391
243	204.27115488052368	response	0	k		241.0	/experiments/knapen_AOT/AOT_stimuli/pictures/2070_fw.png	310.1041419506073	
244	204.29194402694702	picture	0		84	242.0	/experiments/knapen_AOT/AOT_stimuli/pictures/1063_fw.png	310.12493109703064	0.7107129096984863
244	204.98668885231018	response	0	j		242.0	/experiments/knapen_AOT/AOT_stimuli/pictures/1063_fw.png	310.8196759223938	
245	205.0026569366455	picture	0		87	243.0	/experiments/knapen_AOT/AOT_stimuli/pictures/0945_fw.png	310.8356440067291	0.7269549369812012
245	205.7195029258728	response	0	k		243.0	/experiments/knapen_AOT/AOT_stimuli/pictures/0945_fw.png	311.5524899959564	
246	205.7296118736267	picture	0		93	244.0	/experiments/knapen_AOT/AOT_stimuli/pictures/1189_fw.png	311.5625989437103	0.7813720703125
246	206.49442195892334	response	0	j		244.0	/experiments/knapen_AOT/AOT_stimuli/pictures/1189_fw.png	312.32740902900696	
247	206.5109839439392	picture	0		118	245.0	/experiments/knapen_AOT/AOT_stimuli/pictures/0975_fw.png	312.3439710140228	0.9916939735412598
247	207.48659896850586	response	0	j		245.0	/experiments/knapen_AOT/AOT_stimuli/pictures/0975_fw.png	313.3195860385895	
248	207.50267791748047	picture	0		188	246.0	/experiments/knapen_AOT/AOT_stimuli/pictures/1383_fw.png	313.3356649875641	1.5670769214630127
248	209.05458402633667	response	0	j		246.0	/experiments/knapen_AOT/AOT_stimuli/pictures/1383_fw.png	314.8875710964203	
249	209.06975483894348	picture	0		98	247.0	/experiments/knapen_AOT/AOT_stimuli/pictures/1667_fw.png	314.9027419090271	0.8194642066955566
249	209.87117290496826	response	0	j		247.0	/experiments/knapen_AOT/AOT_stimuli/pictures/1667_fw.png	315.7041599750519	
250	209.88921904563904	picture	0		84	248.0	/experiments/knapen_AOT/AOT_stimuli/pictures/1947_fw.png	315.72220611572266	0.7013897895812988
250	210.57791304588318	response	0	k		248.0	/experiments/knapen_AOT/AOT_stimuli/pictures/1947_fw.png	316.4109001159668	
251	210.59060883522034	picture	0		74	249.0	/experiments/knapen_AOT/AOT_stimuli/pictures/1286_fw.png	316.42359590530396	0.6250410079956055
251	211.20310187339783	response	0	j		249.0	/experiments/knapen_AOT/AOT_stimuli/pictures/1286_fw.png	317.03608894348145	
252	211.21564984321594	picture	0		79	250.0	/experiments/knapen_AOT/AOT_stimuli/pictures/2101_fw.png	317.04863691329956	0.666715145111084
252	211.86316585540771	response	0	j		250.0	/experiments/knapen_AOT/AOT_stimuli/pictures/2101_fw.png	317.69615292549133	
253	211.88236498832703	picture	0		135	251.0	/experiments/knapen_AOT/AOT_stimuli/pictures/1330_fw.png	317.71535205841064	1.1250300407409668
253	212.9946939945221	response	0	k		251.0	/experiments/knapen_AOT/AOT_stimuli/pictures/1330_fw.png	318.8276810646057	
254	213.007395029068	picture	0		96	252.0	/experiments/knapen_AOT/AOT_stimuli/pictures/1996_fw.png	318.8403820991516	0.7985239028930664
254	213.79465699195862	response	0	j		252.0	/experiments/knapen_AOT/AOT_stimuli/pictures/1996_fw.png	319.62764406204224	
255	213.80591893196106	picture	0		108	253.0	/experiments/knapen_AOT/AOT_stimuli/pictures/1310_fw.png	319.6389060020447	0.9028010368347168
255	214.69496297836304	response	0	k		253.0	/experiments/knapen_AOT/AOT_stimuli/pictures/1310_fw.png	320.52795004844666	
256	214.70871996879578	picture	0		84	254.0	/experiments/knapen_AOT/AOT_stimuli/pictures/1774_fw.png	320.5417070388794	0.7083799839019775
256	215.40331506729126	response	0	k		254.0	/experiments/knapen_AOT/AOT_stimuli/pictures/1774_fw.png	321.2363021373749	
257	215.41709995269775	picture	0		77	255.0	/experiments/knapen_AOT/AOT_stimuli/pictures/0838_fw.png	321.2500870227814	0.645819902420044
257	216.04621696472168	response	0	j		255.0	/experiments/knapen_AOT/AOT_stimuli/pictures/0838_fw.png	321.8792040348053	
258	216.0629198551178	picture	0		137	256.0	/experiments/knapen_AOT/AOT_stimuli/pictures/1162_fw.png	321.8959069252014	1.1458001136779785
258	217.19494605064392	response	0	k		256.0	/experiments/knapen_AOT/AOT_stimuli/pictures/1162_fw.png	323.02793312072754	
259	217.20871996879578	picture	0		89	257.0	/experiments/knapen_AOT/AOT_stimuli/pictures/1786_fw.png	323.0417070388794	0.7499918937683105
259	217.94503903388977	response	0	j		257.0	/experiments/knapen_AOT/AOT_stimuli/pictures/1786_fw.png	323.7780261039734	
260	217.9587118625641	picture	0		79	258.0	/experiments/knapen_AOT/AOT_stimuli/pictures/0711_fw.png	323.7916989326477	0.6666841506958008
260	218.61165285110474	response	0	k		258.0	/experiments/knapen_AOT/AOT_stimuli/pictures/0711_fw.png	324.44463992118835	
261	218.6253960132599	picture	0		120	259.0	/experiments/knapen_AOT/AOT_stimuli/pictures/1803_fw.png	324.4583830833435	1.0069899559020996
261	219.61963200569153	response	0	k		259.0	/experiments/knapen_AOT/AOT_stimuli/pictures/1803_fw.png	325.45261907577515	
262	219.632385969162	picture	0		123	260.0	/experiments/knapen_AOT/AOT_stimuli/pictures/1167_fw.png	325.4653730392456	1.0208170413970947
262	220.63793206214905	response	0	j		260.0	/experiments/knapen_AOT/AOT_stimuli/pictures/1167_fw.png	326.47091913223267	
263	220.65320301055908	picture	0		65	261.0	/experiments/knapen_AOT/AOT_stimuli/pictures/0243_fw.png	326.4861900806427	0.5417230129241943
263	221.18633699417114	response	0	k		261.0	/experiments/knapen_AOT/AOT_stimuli/pictures/0243_fw.png	327.01932406425476	
264	221.19492602348328	picture	0		101	262.0	/experiments/knapen_AOT/AOT_stimuli/pictures/1412_fw.png	327.0279130935669	0.8471558094024658
264	222.02829098701477	response	0	k		262.0	/experiments/knapen_AOT/AOT_stimuli/pictures/1412_fw.png	327.8612780570984	
265	222.04208183288574	picture	0		83	263.0	/experiments/knapen_AOT/AOT_stimuli/pictures/1692_fw.png	327.87506890296936	0.6944952011108398
265	222.7281608581543	response	0	j		263.0	/experiments/knapen_AOT/AOT_stimuli/pictures/1692_fw.png	328.5611479282379	
266	222.73657703399658	picture	0		74	264.0	/experiments/knapen_AOT/AOT_stimuli/pictures/0904_fw.png	328.5695641040802	0.6181118488311768
266	223.34471583366394	response	0	k		264.0	/experiments/knapen_AOT/AOT_stimuli/pictures/0904_fw.png	329.17770290374756	
267	223.35468888282776	picture	0		130	265.0	/experiments/knapen_AOT/AOT_stimuli/pictures/1107_fw.png	329.1876759529114	1.0832440853118896
267	224.428160905838	response	0	k		265.0	/experiments/knapen_AOT/AOT_stimuli/pictures/1107_fw.png	330.26114797592163	
268	224.43793296813965	picture	0		147	266.0	/experiments/knapen_AOT/AOT_stimuli/pictures/0623_fw.png	330.27092003822327	1.229227066040039
268	225.64627599716187	response	0	j		266.0	/experiments/knapen_AOT/AOT_stimuli/pictures/0623_fw.png	331.4792630672455	
269	225.6671600341797	picture	0		101	267.0	/experiments/knapen_AOT/AOT_stimuli/pictures/1338_fw.png	331.5001471042633	0.8471808433532715
269	226.50306105613708	response	0	j		267.0	/experiments/knapen_AOT/AOT_stimuli/pictures/1338_fw.png	332.3360481262207	
270	226.51434087753296	picture	0		83	268.0	/experiments/knapen_AOT/AOT_stimuli/pictures/0025_fw.png	332.3473279476166	0.6944701671600342
270	227.19499802589417	response	0	k		268.0	/experiments/knapen_AOT/AOT_stimuli/pictures/0025_fw.png	333.0279850959778	
271	227.208811044693	picture	0		108	269.0	/experiments/knapen_AOT/AOT_stimuli/pictures/1226_fw.png	333.0417981147766	0.9027237892150879
271	228.10305905342102	response	0	k		269.0	/experiments/knapen_AOT/AOT_stimuli/pictures/1226_fw.png	333.93604612350464	
272	228.11153483390808	picture	0		117	270.0	/experiments/knapen_AOT/AOT_stimuli/pictures/0897_fw.png	333.9445219039917	0.9792361259460449
272	229.07807397842407	response	0	j		270.0	/experiments/knapen_AOT/AOT_stimuli/pictures/0897_fw.png	334.9110610485077	
273	229.09077095985413	picture	0		85	271.0	/experiments/knapen_AOT/AOT_stimuli/pictures/0840_fw.png	334.92375802993774	0.7291100025177002
273	229.81148505210876	response	0	k		271.0	/experiments/knapen_AOT/AOT_stimuli/pictures/0840_fw.png	335.6444721221924	
274	229.81988096237183	picture	0		75	272.0	/experiments/knapen_AOT/AOT_stimuli/pictures/0950_fw.png	335.65286803245544	0.6250300407409668
274	230.42992997169495	response	0	k		272.0	/experiments/knapen_AOT/AOT_stimuli/pictures/0950_fw.png	336.26291704177856	
275	230.4449110031128	picture	0		71	273.0	/experiments/knapen_AOT/AOT_stimuli/pictures/1039_fw.png	336.2778980731964	0.5972599983215332
275	231.028333902359	response	0	k		273.0	/experiments/knapen_AOT/AOT_stimuli/pictures/1039_fw.png	336.8613209724426	
276	231.04217100143433	picture	0		71	274.0	/experiments/knapen_AOT/AOT_stimuli/pictures/0600_fw.png	336.87515807151794	0.5972139835357666
276	231.62819600105286	response	0	k		274.0	/experiments/knapen_AOT/AOT_stimuli/pictures/0600_fw.png	337.4611830711365	
277	231.6393849849701	picture	0		94	275.0	/experiments/knapen_AOT/AOT_stimuli/pictures/0681_fw.png	337.4723720550537	0.784775972366333
277	232.41153502464294	response	0	j		275.0	/experiments/knapen_AOT/AOT_stimuli/pictures/0681_fw.png	338.24452209472656	
278	232.42416095733643	picture	0		79	276.0	/experiments/knapen_AOT/AOT_stimuli/pictures/1514_fw.png	338.25714802742004	0.6596949100494385
278	233.06316590309143	response	0	k		276.0	/experiments/knapen_AOT/AOT_stimuli/pictures/1514_fw.png	338.89615297317505	
279	233.08385586738586	picture	0		107	277.0	/experiments/knapen_AOT/AOT_stimuli/pictures/1300_fw.png	338.9168429374695	0.8958151340484619
279	233.9699409008026	response	0	j		277.0	/experiments/knapen_AOT/AOT_stimuli/pictures/1300_fw.png	339.80292797088623	
280	233.97967100143433	picture	0		107	278.0	/experiments/knapen_AOT/AOT_stimuli/pictures/0339_fw.png	339.81265807151794	0.8984479904174805
280	234.86171197891235	response	0	k		278.0	/experiments/knapen_AOT/AOT_stimuli/pictures/0339_fw.png	340.694699048996	
281	234.8781189918518	picture	0		188	279.0	/experiments/knapen_AOT/AOT_stimuli/pictures/0889_fw.png	340.7111060619354	1.5668139457702637
281	236.42988801002502	response	0	k		279.0	/experiments/knapen_AOT/AOT_stimuli/pictures/0889_fw.png	342.26287508010864	
282	236.44493293762207	picture	0		81	280.0	/experiments/knapen_AOT/AOT_stimuli/pictures/2111_fw.png	342.2779200077057	0.6806020736694336
282	237.11174488067627	response	0	j		280.0	/experiments/knapen_AOT/AOT_stimuli/pictures/2111_fw.png	342.9447319507599	
283	237.1255350112915	picture	0		114	281.0	/experiments/knapen_AOT/AOT_stimuli/pictures/0493_fw.png	342.9585220813751	0.9583718776702881
283	238.0700900554657	response	0	j		281.0	/experiments/knapen_AOT/AOT_stimuli/pictures/0493_fw.png	343.9030771255493	
284	238.0839068889618	picture	0		141	282.0	/experiments/knapen_AOT/AOT_stimuli/pictures/1773_fw.png	343.9168939590454	1.1805341243743896
284	239.24649500846863	response	0	k		282.0	/experiments/knapen_AOT/AOT_stimuli/pictures/1773_fw.png	345.07948207855225	
285	239.26444101333618	picture	0		149	283.0	/experiments/knapen_AOT/AOT_stimuli/pictures/0827_fw.png	345.0974280834198	1.2430720329284668
285	240.49489402770996	response	0	j		283.0	/experiments/knapen_AOT/AOT_stimuli/pictures/0827_fw.png	346.3278810977936	
286	240.50751304626465	picture	0		74	284.0	/experiments/knapen_AOT/AOT_stimuli/pictures/1212_fw.png	346.34050011634827	0.6180899143218994
286	241.11176800727844	response	0	k		284.0	/experiments/knapen_AOT/AOT_stimuli/pictures/1212_fw.png	346.94475507736206	
287	241.12560296058655	picture	0		89	285.0	/experiments/knapen_AOT/AOT_stimuli/pictures/1124_fw.png	346.95859003067017	0.7499721050262451
287	241.8617799282074	response	0	k		285.0	/experiments/knapen_AOT/AOT_stimuli/pictures/1124_fw.png	347.694766998291	
288	241.8755750656128	picture	0		102	286.0	/experiments/knapen_AOT/AOT_stimuli/pictures/1709_fw.png	347.7085621356964	0.8541967868804932
288	242.72007083892822	response	0	j		286.0	/experiments/knapen_AOT/AOT_stimuli/pictures/1709_fw.png	348.55305790901184	
289	242.7297718524933	picture	0		64	287.0	/experiments/knapen_AOT/AOT_stimuli/pictures/0108_fw.png	348.5627589225769	0.540046215057373
289	243.25333094596863	response	0	k		287.0	/experiments/knapen_AOT/AOT_stimuli/pictures/0108_fw.png	349.08631801605225	
290	243.26981806755066	picture	0		114	288.0	/experiments/knapen_AOT/AOT_stimuli/pictures/1019_fw.png	349.1028051376343	0.9583778381347656
290	244.2116289138794	response	0	j		288.0	/experiments/knapen_AOT/AOT_stimuli/pictures/1019_fw.png	350.044615983963	
291	244.22819590568542	picture	0		81	289.0	/experiments/knapen_AOT/AOT_stimuli/pictures/0604_fw.png	350.06118297576904	0.6751329898834229
291	244.89493703842163	response	0	k		289.0	/experiments/knapen_AOT/AOT_stimuli/pictures/0604_fw.png	350.72792410850525	
292	244.90332889556885	picture	0		120	290.0	/experiments/knapen_AOT/AOT_stimuli/pictures/0805_fw.png	350.73631596565247	1.0081870555877686
292	245.89501786231995	response	0	j		290.0	/experiments/knapen_AOT/AOT_stimuli/pictures/0805_fw.png	351.72800493240356	
293	245.91151595115662	picture	0		77	291.0	/experiments/knapen_AOT/AOT_stimuli/pictures/1277_fw.png	351.74450302124023	0.6500210762023926
293	246.5449800491333	response	0	k		291.0	/experiments/knapen_AOT/AOT_stimuli/pictures/1277_fw.png	352.3779671192169	
294	246.561537027359	picture	0		89	292.0	/experiments/knapen_AOT/AOT_stimuli/pictures/0300_fw.png	352.3945240974426	0.7446458339691162
294	247.2949619293213	response	0	j		292.0	/experiments/knapen_AOT/AOT_stimuli/pictures/0300_fw.png	353.1279489994049	
295	247.30618286132812	picture	0		83	293.0	/experiments/knapen_AOT/AOT_stimuli/pictures/1435_fw.png	353.13916993141174	0.6944119930267334
295	247.98684406280518	response	0	j		293.0	/experiments/knapen_AOT/AOT_stimuli/pictures/1435_fw.png	353.8198311328888	
296	248.00059485435486	picture	0		70	294.0	/experiments/knapen_AOT/AOT_stimuli/pictures/0134_fw.png	353.8335819244385	0.5943131446838379
296	248.578449010849	response	0	k		294.0	/experiments/knapen_AOT/AOT_stimuli/pictures/0134_fw.png	354.4114360809326	
297	248.5949079990387	picture	0		92	295.0	/experiments/knapen_AOT/AOT_stimuli/pictures/0760_fw.png	354.4278950691223	0.7668168544769287
297	249.35347294807434	response	0	j		295.0	/experiments/knapen_AOT/AOT_stimuli/pictures/0760_fw.png	355.18646001815796	
298	249.36172485351562	picture	0		67	296.0	/experiments/knapen_AOT/AOT_stimuli/pictures/0607_fw.png	355.19471192359924	0.5625641345977783
298	249.9117410182953	response	0	k		296.0	/experiments/knapen_AOT/AOT_stimuli/pictures/0607_fw.png	355.7447280883789	
299	249.9242889881134	picture	0		106	297.0	/experiments/knapen_AOT/AOT_stimuli/pictures/0207_fw.png	355.757276058197	0.88730788230896
299	250.79510688781738	response	0	j		297.0	/experiments/knapen_AOT/AOT_stimuli/pictures/0207_fw.png	356.628093957901	
300	250.81159687042236	picture	0		75	298.0	/experiments/knapen_AOT/AOT_stimuli/pictures/0498_fw.png	356.644583940506	0.6267061233520508
300	251.421639919281	response	0	j		298.0	/experiments/knapen_AOT/AOT_stimuli/pictures/0498_fw.png	357.2546269893646	
301	251.4383029937744	picture	0		96	299.0	/experiments/knapen_AOT/AOT_stimuli/pictures/1291_fw.png	357.27129006385803	0.7984230518341064
301	252.22161602973938	response	0	k		299.0	/experiments/knapen_AOT/AOT_stimuli/pictures/1291_fw.png	358.054603099823	
302	252.23672604560852	picture	0		126	300.0	/experiments/knapen_AOT/AOT_stimuli/pictures/0778_fw.png	358.06971311569214	1.055600881576538
302	253.27854704856873	response	0	j		300.0	/experiments/knapen_AOT/AOT_stimuli/pictures/0778_fw.png	359.11153411865234	
303	253.29232692718506	picture	0		138	301.0	/experiments/knapen_AOT/AOT_stimuli/pictures/1605_fw.png	359.1253139972687	1.1527841091156006
303	254.43008494377136	response	0	k		301.0	/experiments/knapen_AOT/AOT_stimuli/pictures/1605_fw.png	360.263072013855	
304	254.44511103630066	picture	0		90	302.0	/experiments/knapen_AOT/AOT_stimuli/pictures/1120_fw.png	360.2780981063843	0.7499959468841553
304	255.18691301345825	response	0	k		302.0	/experiments/knapen_AOT/AOT_stimuli/pictures/1120_fw.png	361.01990008354187	
305	255.19510698318481	picture	0		82	303.0	/experiments/knapen_AOT/AOT_stimuli/pictures/0762_fw.png	361.02809405326843	0.6875410079956055
305	255.87008595466614	response	0	k		303.0	/experiments/knapen_AOT/AOT_stimuli/pictures/0762_fw.png	361.70307302474976	
306	255.88264799118042	picture	0		86	304.0	/experiments/knapen_AOT/AOT_stimuli/pictures/0410_fw.png	361.71563506126404	0.7221920490264893
306	256.5950939655304	response	0	k		304.0	/experiments/knapen_AOT/AOT_stimuli/pictures/0410_fw.png	362.428081035614	
307	256.6048400402069	picture	0		69	305.0	/experiments/knapen_AOT/AOT_stimuli/pictures/2132_fw.png	362.4378271102905	0.576462984085083
307	257.1701009273529	response	0	k		305.0	/experiments/knapen_AOT/AOT_stimuli/pictures/2132_fw.png	363.0030879974365	
308	257.181303024292	picture	0		76	306.0	/experiments/knapen_AOT/AOT_stimuli/pictures/0465_fw.png	363.0142900943756	0.6320300102233887
308	257.8035418987274	response	0	k		306.0	/experiments/knapen_AOT/AOT_stimuli/pictures/0465_fw.png	363.63652896881104	
309	257.8133330345154	picture	0		79	307.0	/experiments/knapen_AOT/AOT_stimuli/pictures/1366_fw.png	363.646320104599	0.6595978736877441
309	258.46188402175903	response	0	k		307.0	/experiments/knapen_AOT/AOT_stimuli/pictures/1366_fw.png	364.29487109184265	
310	258.4729309082031	picture	0		86	308.0	/experiments/knapen_AOT/AOT_stimuli/pictures/0248_fw.png	364.30591797828674	0.7153980731964111
310	259.17857694625854	response	0	j		308.0	/experiments/knapen_AOT/AOT_stimuli/pictures/0248_fw.png	365.01156401634216	
311	259.18832898139954	picture	0		137	309.0	/experiments/knapen_AOT/AOT_stimuli/pictures/2172_fw.png	365.02131605148315	1.1457619667053223
311	260.3202738761902	response	0	k		309.0	/experiments/knapen_AOT/AOT_stimuli/pictures/2172_fw.png	366.1532609462738	
312	260.33409094810486	picture	0		68	310.0	/experiments/knapen_AOT/AOT_stimuli/pictures/0288_fw.png	366.1670780181885	0.5694169998168945
312	260.8951919078827	response	0	k		310.0	/experiments/knapen_AOT/AOT_stimuli/pictures/0288_fw.png	366.7281789779663	
313	260.90350794792175	picture	0		120	311.0	/experiments/knapen_AOT/AOT_stimuli/pictures/1129_fw.png	366.73649501800537	1.008208990097046
313	261.8951950073242	response	0	k		311.0	/experiments/knapen_AOT/AOT_stimuli/pictures/1129_fw.png	367.72818207740784	
314	261.9117169380188	picture	0		89	312.0	/experiments/knapen_AOT/AOT_stimuli/pictures/1037_fw.png	367.7447040081024	0.7500600814819336
314	262.6451690196991	response	0	j		312.0	/experiments/knapen_AOT/AOT_stimuli/pictures/1037_fw.png	368.4781560897827	
315	262.66177701950073	picture	0		87	313.0	/experiments/knapen_AOT/AOT_stimuli/pictures/0353_fw.png	368.49476408958435	0.727895975112915
315	263.37861585617065	response	0	j		313.0	/experiments/knapen_AOT/AOT_stimuli/pictures/0353_fw.png	369.2116029262543	
316	263.38967299461365	picture	0		101	314.0	/experiments/knapen_AOT/AOT_stimuli/pictures/0769_fw.png	369.22266006469727	0.8402519226074219
316	264.21345496177673	response	0	k		314.0	/experiments/knapen_AOT/AOT_stimuli/pictures/0769_fw.png	370.04644203186035	
317	264.22992491722107	picture	0		79	315.0	/experiments/knapen_AOT/AOT_stimuli/pictures/1796_fw.png	370.0629119873047	0.6651439666748047
317	264.8786668777466	response	0	k		315.0	/experiments/knapen_AOT/AOT_stimuli/pictures/1796_fw.png	370.7116539478302	
318	264.8950688838959	picture	0		88	316.0	/experiments/knapen_AOT/AOT_stimuli/pictures/1655_fw.png	370.7280559539795	0.7376620769500732
318	265.6134879589081	response	0	j		316.0	/experiments/knapen_AOT/AOT_stimuli/pictures/1655_fw.png	371.4464750289917	
319	265.63273096084595	picture	0		92	317.0	/experiments/knapen_AOT/AOT_stimuli/pictures/0093_fw.png	371.46571803092957	0.7640349864959717
319	266.3870520591736	response	0	j		317.0	/experiments/knapen_AOT/AOT_stimuli/pictures/0093_fw.png	372.2200391292572	
320	266.3967659473419	picture	0		81	318.0	/experiments/knapen_AOT/AOT_stimuli/pictures/0489_fw.png	372.22975301742554	0.673429012298584
320	267.06195998191833	response	0	j		318.0	/experiments/knapen_AOT/AOT_stimuli/pictures/0489_fw.png	372.89494705200195	
321	267.0701949596405	picture	0		95	319.0	/experiments/knapen_AOT/AOT_stimuli/pictures/1172_fw.png	372.9031820297241	0.7999489307403564
321	267.85372400283813	response	0	j		319.0	/experiments/knapen_AOT/AOT_stimuli/pictures/1172_fw.png	373.68671107292175	
322	267.87014389038086	picture	0		104	320.0	/experiments/knapen_AOT/AOT_stimuli/pictures/0224_fw.png	373.7031309604645	0.8945989608764648
322	268.7537410259247	response	0	k		320.0	/experiments/knapen_AOT/AOT_stimuli/pictures/0224_fw.png	374.5867280960083	
323	268.7647428512573	picture	0		93	321.0	/experiments/knapen_AOT/AOT_stimuli/pictures/1547_fw.png	374.59772992134094	0.7777340412139893
323	269.52875995635986	response	0	k		321.0	/experiments/knapen_AOT/AOT_stimuli/pictures/1547_fw.png	375.3617470264435	
324	269.5424768924713	picture	0		67	322.0	/experiments/knapen_AOT/AOT_stimuli/pictures/0686_fw.png	375.37546396255493	0.5624599456787109
324	270.0953629016876	response	0	k		322.0	/experiments/knapen_AOT/AOT_stimuli/pictures/0686_fw.png	375.92834997177124	
325	270.10493683815	picture	0		102	323.0	/experiments/knapen_AOT/AOT_stimuli/pictures/1060_fw.png	375.93792390823364	0.8542270660400391
325	270.9453909397125	response	0	j		323.0	/experiments/knapen_AOT/AOT_stimuli/pictures/1060_fw.png	376.77837800979614	
326	270.95916390419006	picture	0		111	324.0	/experiments/knapen_AOT/AOT_stimuli/pictures/0226_fw.png	376.7921509742737	0.936053991317749
326	271.8787920475006	response	0	j		324.0	/experiments/knapen_AOT/AOT_stimuli/pictures/0226_fw.png	377.71177911758423	
327	271.8952178955078	picture	0		141	325.0	/experiments/knapen_AOT/AOT_stimuli/pictures/0683_fw.png	377.72820496559143	1.1749920845031738
327	273.0620059967041	response	0	j		325.0	/experiments/knapen_AOT/AOT_stimuli/pictures/0683_fw.png	378.8949930667877	
328	273.070209980011	picture	0		81	326.0	/experiments/knapen_AOT/AOT_stimuli/pictures/1640_fw.png	378.9031970500946	0.6806509494781494
328	273.73706793785095	response	0	j		326.0	/experiments/knapen_AOT/AOT_stimuli/pictures/1640_fw.png	379.57005500793457	
329	273.75086092948914	picture	0		95	327.0	/experiments/knapen_AOT/AOT_stimuli/pictures/0716_fw.png	379.58384799957275	0.7985730171203613
329	274.5370628833771	response	0	j		327.0	/experiments/knapen_AOT/AOT_stimuli/pictures/0716_fw.png	380.3700499534607	
330	274.5494339466095	picture	0		89	328.0	/experiments/knapen_AOT/AOT_stimuli/pictures/2062_fw.png	380.3824210166931	0.7458999156951904
330	275.2788338661194	response	0	k		328.0	/experiments/knapen_AOT/AOT_stimuli/pictures/2062_fw.png	381.111820936203	
331	275.2953338623047	picture	0		95	329.0	/experiments/knapen_AOT/AOT_stimuli/pictures/0917_fw.png	381.1283209323883	0.7999410629272461
331	276.07869601249695	response	0	k		329.0	/experiments/knapen_AOT/AOT_stimuli/pictures/0917_fw.png	381.91168308258057	
332	276.09527492523193	picture	0		108	330.0	/experiments/knapen_AOT/AOT_stimuli/pictures/0947_fw.png	381.92826199531555	0.9055531024932861
332	276.9804730415344	response	0	k		330.0	/experiments/knapen_AOT/AOT_stimuli/pictures/0947_fw.png	382.81346011161804	
333	277.0008280277252	picture	0		87	331.0	/experiments/knapen_AOT/AOT_stimuli/pictures/1429_fw.png	382.83381509780884	0.7291998863220215
333	277.7203769683838	response	0	k		331.0	/experiments/knapen_AOT/AOT_stimuli/pictures/1429_fw.png	383.5533640384674	
334	277.73002791404724	picture	0		122	332.0	/experiments/knapen_AOT/AOT_stimuli/pictures/1713_fw.png	383.56301498413086	1.0208349227905273
334	278.7370910644531	response	0	j		332.0	/experiments/knapen_AOT/AOT_stimuli/pictures/1713_fw.png	384.57007813453674	
335	278.75086283683777	picture	0		84	333.0	/experiments/knapen_AOT/AOT_stimuli/pictures/0275_fw.png	384.5838499069214	0.7083442211151123
335	279.4454200267792	response	0	j		333.0	/experiments/knapen_AOT/AOT_stimuli/pictures/0275_fw.png	385.2784070968628	
336	279.4592070579529	picture	0		78	334.0	/experiments/knapen_AOT/AOT_stimuli/pictures/0802_fw.png	385.2921941280365	0.6527338027954102
336	280.1038649082184	response	0	k		334.0	/experiments/knapen_AOT/AOT_stimuli/pictures/0802_fw.png	385.936851978302	
337	280.1119408607483	picture	0		88	335.0	/experiments/knapen_AOT/AOT_stimuli/pictures/0665_fw.png	385.9449279308319	0.7362701892852783
337	280.83708095550537	response	0	k		335.0	/experiments/knapen_AOT/AOT_stimuli/pictures/0665_fw.png	386.670068025589	
338	280.84821105003357	picture	0		82	336.0	/experiments/knapen_AOT/AOT_stimuli/pictures/1645_fw.png	386.6811981201172	0.6805469989776611
338	281.52043890953064	response	0	k		336.0	/experiments/knapen_AOT/AOT_stimuli/pictures/1645_fw.png	387.35342597961426	
339	281.52875804901123	picture	0		84	337.0	/experiments/knapen_AOT/AOT_stimuli/pictures/1305_fw.png	387.36174511909485	0.7013227939605713
339	282.2203998565674	response	0	k		337.0	/experiments/knapen_AOT/AOT_stimuli/pictures/1305_fw.png	388.053386926651	
340	282.2300808429718	picture	0		87	338.0	/experiments/knapen_AOT/AOT_stimuli/pictures/0466_fw.png	388.0630679130554	0.7291431427001953
340	282.9454939365387	response	0	k		338.0	/experiments/knapen_AOT/AOT_stimuli/pictures/0466_fw.png	388.7784810066223	
341	282.959223985672	picture	0		96	339.0	/experiments/knapen_AOT/AOT_stimuli/pictures/1065_fw.png	388.7922110557556	0.8055729866027832
341	283.7538778781891	response	0	k		339.0	/experiments/knapen_AOT/AOT_stimuli/pictures/1065_fw.png	389.5868649482727	
342	283.7647969722748	picture	0		109	340.0	/experiments/knapen_AOT/AOT_stimuli/pictures/1072_fw.png	389.5977840423584	0.9097380638122559
342	284.66213297843933	response	0	j		340.0	/experiments/knapen_AOT/AOT_stimuli/pictures/1072_fw.png	390.49512004852295	
343	284.67453503608704	picture	0		144	341.0	/experiments/knapen_AOT/AOT_stimuli/pictures/0181_fw.png	390.50752210617065	1.2013800144195557
343	285.8622100353241	response	0	k		341.0	/experiments/knapen_AOT/AOT_stimuli/pictures/0181_fw.png	391.6951971054077	
344	285.8759150505066	picture	0		93	342.0	/experiments/knapen_AOT/AOT_stimuli/pictures/0385_fw.png	391.7089021205902	0.7778229713439941
344	286.64547991752625	response	0	k		342.0	/experiments/knapen_AOT/AOT_stimuli/pictures/0385_fw.png	392.47846698760986	
345	286.6537380218506	picture	0		192	343.0	/experiments/knapen_AOT/AOT_stimuli/pictures/1282_fw.png	392.4867250919342	1.604123830795288
345	288.24547600746155	response	0	k		343.0	/experiments/knapen_AOT/AOT_stimuli/pictures/1282_fw.png	394.07846307754517	
346	288.2578618526459	picture	0		97	344.0	/experiments/knapen_AOT/AOT_stimuli/pictures/1617_fw.png	394.0908489227295	0.8056180477142334
346	289.0538909435272	response	0	k		344.0	/experiments/knapen_AOT/AOT_stimuli/pictures/1617_fw.png	394.88687801361084	
347	289.0634799003601	picture	0		78	345.0	/experiments/knapen_AOT/AOT_stimuli/pictures/0678_fw.png	394.8964669704437	0.6570301055908203
347	289.7040328979492	response	0	k		345.0	/experiments/knapen_AOT/AOT_stimuli/pictures/0678_fw.png	395.53701996803284	
348	289.7205100059509	picture	0		66	346.0	/experiments/knapen_AOT/AOT_stimuli/pictures/1264_fw.png	395.55349707603455	0.558262825012207
348	290.2623448371887	response	0	k		346.0	/experiments/knapen_AOT/AOT_stimuli/pictures/1264_fw.png	396.09533190727234	
349	290.27877283096313	picture	0		73	347.0	/experiments/knapen_AOT/AOT_stimuli/pictures/1102_fw.png	396.11175990104675	0.6166620254516602
349	290.87901186943054	response	0	k		347.0	/experiments/knapen_AOT/AOT_stimuli/pictures/1102_fw.png	396.71199893951416	
350	290.8954348564148	picture	0		131	348.0	/experiments/knapen_AOT/AOT_stimuli/pictures/0923_fw.png	396.7284219264984	1.0999979972839355
350	291.97217988967896	response	0	j		348.0	/experiments/knapen_AOT/AOT_stimuli/pictures/0923_fw.png	397.8051669597626	
351	291.99543285369873	picture	0		71	349.0	/experiments/knapen_AOT/AOT_stimuli/pictures/1022_fw.png	397.82841992378235	0.5958430767059326
351	292.57211995124817	response	0	k		349.0	/experiments/knapen_AOT/AOT_stimuli/pictures/1022_fw.png	398.4051070213318	
352	292.59127593040466	picture	0		123	350.0	/experiments/knapen_AOT/AOT_stimuli/pictures/1590_fw.png	398.4242630004883	1.0209629535675049
352	293.6040258407593	response	0	k		350.0	/experiments/knapen_AOT/AOT_stimuli/pictures/1590_fw.png	399.4370129108429	
353	293.61223888397217	picture	0		149	351.0	/experiments/knapen_AOT/AOT_stimuli/pictures/2164_fw.png	399.4452259540558	1.2499310970306396
353	294.8456220626831	response	0	k		351.0	/experiments/knapen_AOT/AOT_stimuli/pictures/2164_fw.png	400.6786091327667	
354	294.8621699810028	picture	0		80	352.0	/experiments/knapen_AOT/AOT_stimuli/pictures/0671_fw.png	400.6951570510864	0.6666579246520996
354	295.52067399024963	response	0	k		352.0	/experiments/knapen_AOT/AOT_stimuli/pictures/0671_fw.png	401.35366106033325	
355	295.5288279056549	picture	0		85	353.0	/experiments/knapen_AOT/AOT_stimuli/pictures/1100_fw.png	401.3618149757385	0.7084190845489502
355	296.22901797294617	response	0	j		353.0	/experiments/knapen_AOT/AOT_stimuli/pictures/1100_fw.png	402.0620050430298	
356	296.23724699020386	picture	0		109	354.0	/experiments/knapen_AOT/AOT_stimuli/pictures/0732_fw.png	402.0702340602875	0.9096720218658447
356	297.1374819278717	response	0	j		354.0	/experiments/knapen_AOT/AOT_stimuli/pictures/0732_fw.png	402.9704689979553	
357	297.1469190120697	picture	0		67	355.0	/experiments/knapen_AOT/AOT_stimuli/pictures/1876_fw.png	402.9799060821533	0.5624368190765381
357	297.69564485549927	response	0	k		355.0	/experiments/knapen_AOT/AOT_stimuli/pictures/1876_fw.png	403.5286319255829	
358	297.70935583114624	picture	0		106	356.0	/experiments/knapen_AOT/AOT_stimuli/pictures/1456_fw.png	403.54234290122986	0.8890089988708496
358	298.5806038379669	response	0	k		356.0	/experiments/knapen_AOT/AOT_stimuli/pictures/1456_fw.png	404.41359090805054	
359	298.5983648300171	picture	0		79	357.0	/experiments/knapen_AOT/AOT_stimuli/pictures/0403_fw.png	404.4313519001007	0.6595861911773682
359	299.24566888809204	response	0	j		357.0	/experiments/knapen_AOT/AOT_stimuli/pictures/0403_fw.png	405.07865595817566	
360	299.25795102119446	picture	0		107	358.0	/experiments/knapen_AOT/AOT_stimuli/pictures/1697_fw.png	405.0909380912781	0.8889148235321045
360	300.13747000694275	response	0	k		358.0	/experiments/knapen_AOT/AOT_stimuli/pictures/1697_fw.png	405.97045707702637	
361	300.14686584472656	picture	0		99	359.0	/experiments/knapen_AOT/AOT_stimuli/pictures/0559_fw.png	405.9798529148102	0.8265480995178223
361	300.9624938964844	response	0	j		359.0	/experiments/knapen_AOT/AOT_stimuli/pictures/0559_fw.png	406.795480966568	
362	300.9734139442444	stim	0		504			406.806401014328	4.216960906982422
362	305.1706829071045	response	0	space				411.0036699771881	
