trial_nr	onset	event_type	phase	response	nr_frames	picture_index	picture_file	onset_abs	duration
0	0.20810389518737793	stim	0		1058			177.81849098205566	8.858386039733887
0	9.016682863235474	response	0	space				186.62706995010376	
2	9.066489934921265	picture	0		339	0.0	/experiments/knapen_AOT/AOT_stimuli/pictures/0010_fw.png	186.67687702178955	2.861011028289795
2	11.88339900970459	response	0	k		0.0	/experiments/knapen_AOT/AOT_stimuli/pictures/0010_fw.png	189.49378609657288	
3	11.92750096321106	picture	0		83	1.0	/experiments/knapen_AOT/AOT_stimuli/pictures/0878_fw.png	189.53788805007935	0.8223938941955566
3	12.608338832855225	response	0	j		1.0	/experiments/knapen_AOT/AOT_stimuli/pictures/0878_fw.png	190.2187259197235	
4	12.749894857406616	picture	0		87	2.0	/experiments/knapen_AOT/AOT_stimuli/pictures/0893_fw.png	190.3602819442749	0.7667300701141357
4	13.466830015182495	response	0	j		2.0	/experiments/knapen_AOT/AOT_stimuli/pictures/0893_fw.png	191.07721710205078	
5	13.516624927520752	picture	0		263	3.0	/experiments/knapen_AOT/AOT_stimuli/pictures/0980_fw.png	191.12701201438904	2.2416560649871826
5	15.70020079612732	response	0	k		3.0	/experiments/knapen_AOT/AOT_stimuli/pictures/0980_fw.png	193.3105878829956	
6	15.758280992507935	picture	0		142	4.0	/experiments/knapen_AOT/AOT_stimuli/pictures/1338_fw.png	193.36866807937622	1.2108709812164307
6	16.933485984802246	response	0	k		4.0	/experiments/knapen_AOT/AOT_stimuli/pictures/1338_fw.png	194.54387307167053	
7	16.969151973724365	picture	0		121	5.0	/experiments/knapen_AOT/AOT_stimuli/pictures/1334_fw.png	194.57953906059265	1.0808148384094238
7	17.966898918151855	response	0	k		5.0	/experiments/knapen_AOT/AOT_stimuli/pictures/1334_fw.png	195.57728600502014	
8	18.04996681213379	picture	0		110	6.0	/experiments/knapen_AOT/AOT_stimuli/pictures/0474_fw.png	195.66035389900208	0.9916892051696777
8	18.958483934402466	response	0	k		6.0	/experiments/knapen_AOT/AOT_stimuli/pictures/0474_fw.png	196.56887102127075	
9	19.041656017303467	picture	0		105	7.0	/experiments/knapen_AOT/AOT_stimuli/pictures/1140_fw.png	196.65204310417175	0.8999958038330078
9	19.908514976501465	response	0	j		7.0	/experiments/knapen_AOT/AOT_stimuli/pictures/1140_fw.png	197.51890206336975	
10	19.941651821136475	picture	0		253	8.0	/experiments/knapen_AOT/AOT_stimuli/pictures/1737_fw.png	197.55203890800476	2.138653039932251
10	22.041955947875977	response	0	j		8.0	/experiments/knapen_AOT/AOT_stimuli/pictures/1737_fw.png	199.65234303474426	
11	22.080304861068726	picture	0		256	9.0	/experiments/knapen_AOT/AOT_stimuli/pictures/0414_fw.png	199.690691947937	2.1736879348754883
11	24.20853900909424	response	0	j		9.0	/experiments/knapen_AOT/AOT_stimuli/pictures/0414_fw.png	201.81892609596252	
12	24.253992795944214	picture	0		207	10.0	/experiments/knapen_AOT/AOT_stimuli/pictures/2062_fw.png	201.8643798828125	1.7639830112457275
12	25.96022081375122	response	0	k		10.0	/experiments/knapen_AOT/AOT_stimuli/pictures/2062_fw.png	203.5706079006195	
13	26.01797580718994	picture	0		122	11.0	/experiments/knapen_AOT/AOT_stimuli/pictures/1750_fw.png	203.62836289405823	1.0415661334991455
13	27.025234937667847	response	0	k		11.0	/experiments/knapen_AOT/AOT_stimuli/pictures/1750_fw.png	204.63562202453613	
14	27.059541940689087	picture	0		98	12.0	/experiments/knapen_AOT/AOT_stimuli/pictures/0589_fw.png	204.66992902755737	0.8405420780181885
14	27.86703586578369	response	0	j		12.0	/experiments/knapen_AOT/AOT_stimuli/pictures/0589_fw.png	205.47742295265198	
15	27.900084018707275	picture	0		186	13.0	/experiments/knapen_AOT/AOT_stimuli/pictures/1546_fw.png	205.51047110557556	1.6168389320373535
15	29.442017793655396	response	0	k		13.0	/experiments/knapen_AOT/AOT_stimuli/pictures/1546_fw.png	207.05240488052368	
16	29.51692295074463	picture	0		86	14.0	/experiments/knapen_AOT/AOT_stimuli/pictures/0389_fw.png	207.12731003761292	0.7440218925476074
16	30.225332021713257	response	0	j		14.0	/experiments/knapen_AOT/AOT_stimuli/pictures/0389_fw.png	207.83571910858154	
17	30.260944843292236	picture	0		96	15.0	/experiments/knapen_AOT/AOT_stimuli/pictures/1848_fw.png	207.87133193016052	0.923612117767334
17	31.050264835357666	response	0	k		15.0	/experiments/knapen_AOT/AOT_stimuli/pictures/1848_fw.png	208.66065192222595	
18	31.18455696105957	picture	0		94	16.0	/experiments/knapen_AOT/AOT_stimuli/pictures/2145_fw.png	208.79494404792786	0.8155989646911621
18	31.958720922470093	response	0	j		16.0	/experiments/knapen_AOT/AOT_stimuli/pictures/2145_fw.png	209.56910800933838	
19	32.00015592575073	picture	0		233	17.0	/experiments/knapen_AOT/AOT_stimuli/pictures/1039_fw.png	209.61054301261902	1.9917330741882324
19	33.933812856674194	response	0	k		17.0	/experiments/knapen_AOT/AOT_stimuli/pictures/1039_fw.png	211.54419994354248	
20	33.991888999938965	picture	0		194	18.0	/experiments/knapen_AOT/AOT_stimuli/pictures/1071_fw.png	211.60227608680725	1.6583278179168701
20	35.600366830825806	response	0	j		18.0	/experiments/knapen_AOT/AOT_stimuli/pictures/1071_fw.png	213.2107539176941	
21	35.650216817855835	picture	0		167	19.0	/experiments/knapen_AOT/AOT_stimuli/pictures/0438_fw.png	213.26060390472412	1.4249811172485352
21	37.03370380401611	response	0	k		19.0	/experiments/knapen_AOT/AOT_stimuli/pictures/0438_fw.png	214.6440908908844	
22	37.07519793510437	picture	0		261	20.0	/experiments/knapen_AOT/AOT_stimuli/pictures/1556_fw.png	214.68558502197266	2.216737985610962
22	39.24212694168091	response	0	k		20.0	/experiments/knapen_AOT/AOT_stimuli/pictures/1556_fw.png	216.8525140285492	
23	39.29193592071533	picture	0		125	21.0	/experiments/knapen_AOT/AOT_stimuli/pictures/0225_fw.png	216.90232300758362	1.0802879333496094
23	40.32557392120361	response	0	j		21.0	/experiments/knapen_AOT/AOT_stimuli/pictures/0225_fw.png	217.9359610080719	
24	40.37222385406494	picture	0		111	22.0	/experiments/knapen_AOT/AOT_stimuli/pictures/1789_fw.png	217.98261094093323	0.9582149982452393
24	41.292189836502075	response	0	k		22.0	/experiments/knapen_AOT/AOT_stimuli/pictures/1789_fw.png	218.90257692337036	
25	41.33043885231018	picture	0		207	23.0	/experiments/knapen_AOT/AOT_stimuli/pictures/1520_fw.png	218.94082593917847	1.761505126953125
25	43.05063199996948	response	0	j		23.0	/experiments/knapen_AOT/AOT_stimuli/pictures/1520_fw.png	220.66101908683777	
26	43.091943979263306	picture	0		89	24.0	/experiments/knapen_AOT/AOT_stimuli/pictures/1481_fw.png	220.7023310661316	0.7940959930419922
26	43.82556986808777	response	0	j		24.0	/experiments/knapen_AOT/AOT_stimuli/pictures/1481_fw.png	221.43595695495605	
27	43.8860399723053	picture	0		97	25.0	/experiments/knapen_AOT/AOT_stimuli/pictures/1174_fw.png	221.49642705917358	0.8559529781341553
27	44.683889865875244	response	0	j		25.0	/experiments/knapen_AOT/AOT_stimuli/pictures/1174_fw.png	222.29427695274353	
28	44.74199295043945	picture	0		119	26.0	/experiments/knapen_AOT/AOT_stimuli/pictures/1891_fw.png	222.35238003730774	1.041698932647705
28	45.725626945495605	response	0	k		26.0	/experiments/knapen_AOT/AOT_stimuli/pictures/1891_fw.png	223.3360140323639	
29	45.78369188308716	picture	0		115	27.0	/experiments/knapen_AOT/AOT_stimuli/pictures/0743_fw.png	223.39407896995544	0.9842879772186279
29	46.733908891677856	response	0	k		27.0	/experiments/knapen_AOT/AOT_stimuli/pictures/0743_fw.png	224.34429597854614	
30	46.767979860305786	picture	0		90	28.0	/experiments/knapen_AOT/AOT_stimuli/pictures/0293_fw.png	224.37836694717407	0.7778289318084717
30	47.50891995429993	response	0	j		28.0	/experiments/knapen_AOT/AOT_stimuli/pictures/0293_fw.png	225.1193070411682	
31	47.54580879211426	picture	0		111	29.0	/experiments/knapen_AOT/AOT_stimuli/pictures/0075_fw.png	225.15619587898254	1.1129260063171387
31	48.45889592170715	response	0	k		29.0	/experiments/knapen_AOT/AOT_stimuli/pictures/0075_fw.png	226.06928300857544	
32	48.6587347984314	picture	0		129	30.0	/experiments/knapen_AOT/AOT_stimuli/pictures/1323_fw.png	226.26912188529968	1.1023402214050293
32	49.72568392753601	response	0	j		30.0	/experiments/knapen_AOT/AOT_stimuli/pictures/1323_fw.png	227.3360710144043	
33	49.761075019836426	picture	0		86	31.0	/experiments/knapen_AOT/AOT_stimuli/pictures/1614_fw.png	227.3714621067047	0.7430648803710938
33	50.46723484992981	response	0	k		31.0	/experiments/knapen_AOT/AOT_stimuli/pictures/1614_fw.png	228.0776219367981	
34	50.50413990020752	picture	0		92	32.0	/experiments/knapen_AOT/AOT_stimuli/pictures/1226_fw.png	228.1145269870758	0.7916889190673828
34	51.258925914764404	response	0	j		32.0	/experiments/knapen_AOT/AOT_stimuli/pictures/1226_fw.png	228.8693130016327	
35	51.2958288192749	picture	0		104	33.0	/experiments/knapen_AOT/AOT_stimuli/pictures/1034_fw.png	228.9062159061432	0.8962600231170654
35	52.15060782432556	response	0	k		33.0	/experiments/knapen_AOT/AOT_stimuli/pictures/1034_fw.png	229.76099491119385	
36	52.19208884239197	picture	0		93	34.0	/experiments/knapen_AOT/AOT_stimuli/pictures/1984_fw.png	229.80247592926025	0.8000340461730957
36	52.959006786346436	response	0	j		34.0	/experiments/knapen_AOT/AOT_stimuli/pictures/1984_fw.png	230.56939387321472	
37	52.99212288856506	picture	0		96	35.0	/experiments/knapen_AOT/AOT_stimuli/pictures/1607_fw.png	230.60250997543335	0.9009270668029785
37	53.777251958847046	response	0	j		35.0	/experiments/knapen_AOT/AOT_stimuli/pictures/1607_fw.png	231.38763904571533	
38	53.89304995536804	picture	0		120	36.0	/experiments/knapen_AOT/AOT_stimuli/pictures/0184_fw.png	231.50343704223633	1.0278198719024658
38	54.884047985076904	response	0	k		36.0	/experiments/knapen_AOT/AOT_stimuli/pictures/0184_fw.png	232.4944350719452	
39	54.92086982727051	picture	0		122	37.0	/experiments/knapen_AOT/AOT_stimuli/pictures/1492_fw.png	232.5312569141388	1.0416769981384277
39	55.925705909729004	response	0	k		37.0	/experiments/knapen_AOT/AOT_stimuli/pictures/1492_fw.png	233.5360929965973	
40	55.962546825408936	picture	0		82	38.0	/experiments/knapen_AOT/AOT_stimuli/pictures/0158_fw.png	233.57293391227722	0.7431840896606445
40	56.66735792160034	response	0	j		38.0	/experiments/knapen_AOT/AOT_stimuli/pictures/0158_fw.png	234.27774500846863	
41	56.70573091506958	picture	0		87	39.0	/experiments/knapen_AOT/AOT_stimuli/pictures/2137_fw.png	234.31611800193787	0.7568240165710449
41	57.425734996795654	response	0	k		39.0	/experiments/knapen_AOT/AOT_stimuli/pictures/2137_fw.png	235.03612208366394	
42	57.462554931640625	picture	0		105	40.0	/experiments/knapen_AOT/AOT_stimuli/pictures/0428_fw.png	235.0729420185089	0.9212958812713623
42	58.32582402229309	response	0	k		40.0	/experiments/knapen_AOT/AOT_stimuli/pictures/0428_fw.png	235.93621110916138	
43	58.38385081291199	picture	0		97	41.0	/experiments/knapen_AOT/AOT_stimuli/pictures/0064_fw.png	235.99423789978027	0.8416740894317627
43	59.17736792564392	response	0	k		41.0	/experiments/knapen_AOT/AOT_stimuli/pictures/0064_fw.png	236.7877550125122	
44	59.22552490234375	picture	0		87	42.0	/experiments/knapen_AOT/AOT_stimuli/pictures/1007_fw.png	236.83591198921204	0.7510600090026855
44	59.942317962646484	response	0	j		42.0	/experiments/knapen_AOT/AOT_stimuli/pictures/1007_fw.png	237.55270504951477	
45	59.976584911346436	picture	0		104	43.0	/experiments/knapen_AOT/AOT_stimuli/pictures/1981_fw.png	237.58697199821472	0.8989410400390625
45	60.834025859832764	response	0	j		43.0	/experiments/knapen_AOT/AOT_stimuli/pictures/1981_fw.png	238.44441294670105	
46	60.8755259513855	picture	0		99	44.0	/experiments/knapen_AOT/AOT_stimuli/pictures/1000_fw.png	238.48591303825378	0.8833658695220947
46	61.69239401817322	response	0	j		44.0	/experiments/knapen_AOT/AOT_stimuli/pictures/1000_fw.png	239.3027811050415	
47	61.75889182090759	picture	0		93	45.0	/experiments/knapen_AOT/AOT_stimuli/pictures/1535_fw.png	239.36927890777588	0.8010389804840088
47	62.52587294578552	response	0	j		45.0	/experiments/knapen_AOT/AOT_stimuli/pictures/1535_fw.png	240.1362600326538	
48	62.5599308013916	picture	0		102	46.0	/experiments/knapen_AOT/AOT_stimuli/pictures/0268_fw.png	240.1703178882599	0.8823201656341553
48	63.393916845321655	response	0	j		46.0	/experiments/knapen_AOT/AOT_stimuli/pictures/0268_fw.png	241.00430393218994	
49	63.44225096702576	picture	0		96	47.0	/experiments/knapen_AOT/AOT_stimuli/pictures/1445_fw.png	241.05263805389404	0.9092838764190674
49	64.23411893844604	response	0	j		47.0	/experiments/knapen_AOT/AOT_stimuli/pictures/1445_fw.png	241.84450602531433	
50	64.35153484344482	picture	0		188	48.0	/experiments/knapen_AOT/AOT_stimuli/pictures/0332_fw.png	241.9619219303131	1.5833301544189453
50	65.90914583206177	response	0	j		48.0	/experiments/knapen_AOT/AOT_stimuli/pictures/0332_fw.png	243.51953291893005	
51	65.93486499786377	picture	0		94	49.0	/experiments/knapen_AOT/AOT_stimuli/pictures/0670_fw.png	243.54525208473206	0.8157768249511719
51	66.70923089981079	response	0	j		49.0	/experiments/knapen_AOT/AOT_stimuli/pictures/0670_fw.png	244.31961798667908	
52	66.75064182281494	picture	0		87	50.0	/experiments/knapen_AOT/AOT_stimuli/pictures/1395_fw.png	244.36102890968323	0.7606639862060547
52	67.46744084358215	response	0	j		50.0	/experiments/knapen_AOT/AOT_stimuli/pictures/1395_fw.png	245.07782793045044	
53	67.511305809021	picture	0		206	51.0	/experiments/knapen_AOT/AOT_stimuli/pictures/1726_fw.png	245.12169289588928	1.7500600814819336
53	69.21746397018433	response	0	j		51.0	/experiments/knapen_AOT/AOT_stimuli/pictures/1726_fw.png	246.8278510570526	
54	69.26136589050293	picture	0		94	52.0	/experiments/knapen_AOT/AOT_stimuli/pictures/0475_fw.png	246.87175297737122	0.8060629367828369
54	70.03413391113281	response	0	j		52.0	/experiments/knapen_AOT/AOT_stimuli/pictures/0475_fw.png	247.6445209980011	
55	70.06742882728577	picture	0		111	53.0	/experiments/knapen_AOT/AOT_stimuli/pictures/1210_fw.png	247.67781591415405	0.9665591716766357
55	70.97751998901367	response	0	k		53.0	/experiments/knapen_AOT/AOT_stimuli/pictures/1210_fw.png	248.58790707588196	
56	71.0339879989624	picture	0		192	54.0	/experiments/knapen_AOT/AOT_stimuli/pictures/0897_fw.png	248.6443750858307	1.630051851272583
56	72.6259548664093	response	0	k		54.0	/experiments/knapen_AOT/AOT_stimuli/pictures/0897_fw.png	250.2363419532776	
57	72.66403985023499	picture	0		85	55.0	/experiments/knapen_AOT/AOT_stimuli/pictures/0807_fw.png	250.27442693710327	0.7532989978790283
57	73.36754393577576	response	0	j		55.0	/experiments/knapen_AOT/AOT_stimuli/pictures/0807_fw.png	250.97793102264404	
58	73.41733884811401	picture	0		99	56.0	/experiments/knapen_AOT/AOT_stimuli/pictures/1619_fw.png	251.0277259349823	0.8750510215759277
58	74.23416090011597	response	0	k		56.0	/experiments/knapen_AOT/AOT_stimuli/pictures/1619_fw.png	251.84454798698425	
59	74.29238986968994	picture	0		90	57.0	/experiments/knapen_AOT/AOT_stimuli/pictures/1188_fw.png	251.90277695655823	0.7749850749969482
59	75.03418183326721	response	0	k		57.0	/experiments/knapen_AOT/AOT_stimuli/pictures/1188_fw.png	252.6445689201355	
60	75.06737494468689	picture	0		161	58.0	/experiments/knapen_AOT/AOT_stimuli/pictures/1688_fw.png	252.67776203155518	1.40926194190979
60	76.39417386054993	response	0	j		58.0	/experiments/knapen_AOT/AOT_stimuli/pictures/1688_fw.png	254.0045609474182	
61	76.47663688659668	picture	0		209	59.0	/experiments/knapen_AOT/AOT_stimuli/pictures/0338_fw.png	254.08702397346497	1.770859956741333
61	78.20921397209167	response	0	j		59.0	/experiments/knapen_AOT/AOT_stimuli/pictures/0338_fw.png	255.81960105895996	
62	78.24749684333801	picture	0		127	60.0	/experiments/knapen_AOT/AOT_stimuli/pictures/1291_fw.png	255.8578839302063	1.0950381755828857
62	79.30103492736816	response	0	k		60.0	/experiments/knapen_AOT/AOT_stimuli/pictures/1291_fw.png	256.91142201423645	
63	79.3425350189209	picture	0		74	61.0	/experiments/knapen_AOT/AOT_stimuli/pictures/0056_fw.png	256.9529221057892	0.7105519771575928
63	79.95108699798584	response	0	k		61.0	/experiments/knapen_AOT/AOT_stimuli/pictures/0056_fw.png	257.5614740848541	
64	80.05308699607849	picture	0		156	62.0	/experiments/knapen_AOT/AOT_stimuli/pictures/1320_fw.png	257.6634740829468	1.3332159519195557
64	81.34262490272522	response	0	j		62.0	/experiments/knapen_AOT/AOT_stimuli/pictures/1320_fw.png	258.9530119895935	
65	81.38630294799805	picture	0		130	63.0	/experiments/knapen_AOT/AOT_stimuli/pictures/1544_fw.png	258.99669003486633	1.1145069599151611
65	82.45930695533752	response	0	j		63.0	/experiments/knapen_AOT/AOT_stimuli/pictures/1544_fw.png	260.0696940422058	
66	82.50080990791321	picture	0		86	64.0	/experiments/knapen_AOT/AOT_stimuli/pictures/0041_fw.png	260.1111969947815	0.7467410564422607
66	83.20927095413208	response	0	k		64.0	/experiments/knapen_AOT/AOT_stimuli/pictures/0041_fw.png	260.81965804100037	
67	83.24755096435547	picture	0		105	65.0	/experiments/knapen_AOT/AOT_stimuli/pictures/0141_fw.png	260.85793805122375	0.928307056427002
67	84.11768078804016	response	0	k		65.0	/experiments/knapen_AOT/AOT_stimuli/pictures/0141_fw.png	261.72806787490845	
68	84.17585802078247	picture	0		101	66.0	/experiments/knapen_AOT/AOT_stimuli/pictures/1852_fw.png	261.78624510765076	0.8833367824554443
68	85.00930285453796	response	0	k		66.0	/experiments/knapen_AOT/AOT_stimuli/pictures/1852_fw.png	262.61968994140625	
69	85.05919480323792	picture	0		103	67.0	/experiments/knapen_AOT/AOT_stimuli/pictures/2179_fw.png	262.6695818901062	0.9000720977783203
69	85.90935397148132	response	0	k		67.0	/experiments/knapen_AOT/AOT_stimuli/pictures/2179_fw.png	263.5197410583496	
70	85.95926690101624	picture	0		146	68.0	/experiments/knapen_AOT/AOT_stimuli/pictures/0205_fw.png	263.5696539878845	1.2465429306030273
70	87.16105079650879	response	0	k		68.0	/experiments/knapen_AOT/AOT_stimuli/pictures/0205_fw.png	264.7714378833771	
71	87.20580983161926	picture	0		172	69.0	/experiments/knapen_AOT/AOT_stimuli/pictures/1585_fw.png	264.81619691848755	1.6042320728302002
71	88.63441586494446	response	0	k		69.0	/experiments/knapen_AOT/AOT_stimuli/pictures/1585_fw.png	266.24480295181274	
72	88.81004190444946	picture	0		157	70.0	/experiments/knapen_AOT/AOT_stimuli/pictures/1480_fw.png	266.42042899131775	1.357530117034912
72	90.10952591896057	response	0	j		70.0	/experiments/knapen_AOT/AOT_stimuli/pictures/1480_fw.png	267.71991300582886	
73	90.16757202148438	picture	0		138	71.0	/experiments/knapen_AOT/AOT_stimuli/pictures/1536_fw.png	267.77795910835266	1.1771609783172607
73	91.30954384803772	response	0	j		71.0	/experiments/knapen_AOT/AOT_stimuli/pictures/1536_fw.png	268.919930934906	
74	91.34473299980164	picture	0		117	72.0	/experiments/knapen_AOT/AOT_stimuli/pictures/1478_fw.png	268.9551200866699	1.0000288486480713
74	92.30952787399292	response	0	k		72.0	/experiments/knapen_AOT/AOT_stimuli/pictures/1478_fw.png	269.9199149608612	
75	92.3447618484497	picture	0		104	73.0	/experiments/knapen_AOT/AOT_stimuli/pictures/1802_fw.png	269.955148935318	0.9098930358886719
75	93.20105195045471	response	0	j		73.0	/experiments/knapen_AOT/AOT_stimuli/pictures/1802_fw.png	270.811439037323	
76	93.25465488433838	picture	0		141	74.0	/experiments/knapen_AOT/AOT_stimuli/pictures/1712_fw.png	270.86504197120667	1.2129700183868408
76	94.41787600517273	response	0	k		74.0	/experiments/knapen_AOT/AOT_stimuli/pictures/1712_fw.png	272.028263092041	
77	94.46762490272522	picture	0		89	75.0	/experiments/knapen_AOT/AOT_stimuli/pictures/0960_fw.png	272.0780119895935	0.783350944519043
77	95.19436693191528	response	0	j		75.0	/experiments/knapen_AOT/AOT_stimuli/pictures/0960_fw.png	272.80475401878357	
78	95.25097584724426	picture	0		89	76.0	/experiments/knapen_AOT/AOT_stimuli/pictures/1330_fw.png	272.86136293411255	0.7814440727233887
78	95.9777479171753	response	0	j		76.0	/experiments/knapen_AOT/AOT_stimuli/pictures/1330_fw.png	273.5881350040436	
79	96.03241991996765	picture	0		91	77.0	/experiments/knapen_AOT/AOT_stimuli/pictures/1994_fw.png	273.64280700683594	0.8332839012145996
79	96.77781701087952	response	0	j		77.0	/experiments/knapen_AOT/AOT_stimuli/pictures/1994_fw.png	274.3882040977478	
80	96.86570382118225	picture	0		80	78.0	/experiments/knapen_AOT/AOT_stimuli/pictures/2132_fw.png	274.47609090805054	0.7019660472869873
80	97.52613282203674	response	0	j		78.0	/experiments/knapen_AOT/AOT_stimuli/pictures/2132_fw.png	275.13651990890503	
81	97.56766986846924	picture	0		98	79.0	/experiments/knapen_AOT/AOT_stimuli/pictures/0486_fw.png	275.1780569553375	0.8534939289093018
81	98.36938095092773	response	0	k		79.0	/experiments/knapen_AOT/AOT_stimuli/pictures/0486_fw.png	275.979768037796	
82	98.42116379737854	picture	0		157	80.0	/experiments/knapen_AOT/AOT_stimuli/pictures/1735_fw.png	276.0315508842468	1.3473951816558838
82	99.71790289878845	response	0	k		80.0	/experiments/knapen_AOT/AOT_stimuli/pictures/1735_fw.png	277.32828998565674	
83	99.76855897903442	picture	0		172	81.0	/experiments/knapen_AOT/AOT_stimuli/pictures/0506_fw.png	277.3789460659027	1.4659488201141357
83	101.18637490272522	response	0	j		81.0	/experiments/knapen_AOT/AOT_stimuli/pictures/0506_fw.png	278.7967619895935	
84	101.23450779914856	picture	0		297	82.0	/experiments/knapen_AOT/AOT_stimuli/pictures/0840_fw.png	278.84489488601685	2.5000810623168945
84	103.70124888420105	response	0	k		82.0	/experiments/knapen_AOT/AOT_stimuli/pictures/0840_fw.png	281.31163597106934	
85	103.73458886146545	picture	0		139	83.0	/experiments/knapen_AOT/AOT_stimuli/pictures/2020_fw.png	281.34497594833374	1.199826955795288
85	104.88471794128418	response	0	k		83.0	/experiments/knapen_AOT/AOT_stimuli/pictures/2020_fw.png	282.49510502815247	
86	104.93441581726074	picture	0		119	84.0	/experiments/knapen_AOT/AOT_stimuli/pictures/1248_fw.png	282.544802904129	1.0416860580444336
86	105.91799688339233	response	0	k		84.0	/experiments/knapen_AOT/AOT_stimuli/pictures/1248_fw.png	283.5283839702606	
87	105.97610187530518	picture	0		114	85.0	/experiments/knapen_AOT/AOT_stimuli/pictures/0480_fw.png	283.58648896217346	0.9868099689483643
87	106.91802287101746	response	0	j		85.0	/experiments/knapen_AOT/AOT_stimuli/pictures/0480_fw.png	284.52840995788574	
88	106.96291184425354	picture	0		154	86.0	/experiments/knapen_AOT/AOT_stimuli/pictures/2165_fw.png	284.5732989311218	1.313236951828003
88	108.23476099967957	response	0	j		86.0	/experiments/knapen_AOT/AOT_stimuli/pictures/2165_fw.png	285.84514808654785	
89	108.27614879608154	picture	0		84	87.0	/experiments/knapen_AOT/AOT_stimuli/pictures/1903_fw.png	285.88653588294983	0.7284390926361084
89	108.9612329006195	response	0	j		87.0	/experiments/knapen_AOT/AOT_stimuli/pictures/1903_fw.png	286.5716199874878	
90	109.00458788871765	picture	0		91	88.0	/experiments/knapen_AOT/AOT_stimuli/pictures/0413_fw.png	286.61497497558594	0.7965860366821289
90	109.75139784812927	response	0	j		88.0	/experiments/knapen_AOT/AOT_stimuli/pictures/0413_fw.png	287.36178493499756	
91	109.80117392539978	picture	0		104	89.0	/experiments/knapen_AOT/AOT_stimuli/pictures/0892_fw.png	287.41156101226807	0.8979589939117432
91	110.65975785255432	response	0	j		89.0	/experiments/knapen_AOT/AOT_stimuli/pictures/0892_fw.png	288.2701449394226	
92	110.69913291931152	picture	0		108	90.0	/experiments/knapen_AOT/AOT_stimuli/pictures/1972_fw.png	288.3095200061798	0.9304840564727783
92	111.5863778591156	response	0	k		90.0	/experiments/knapen_AOT/AOT_stimuli/pictures/1972_fw.png	289.1967649459839	
93	111.6296169757843	picture	0		103	91.0	/experiments/knapen_AOT/AOT_stimuli/pictures/0760_fw.png	289.2400040626526	0.8882758617401123
93	112.47706985473633	response	0	j		91.0	/experiments/knapen_AOT/AOT_stimuli/pictures/0760_fw.png	290.0874569416046	
94	112.51789283752441	picture	0		104	92.0	/experiments/knapen_AOT/AOT_stimuli/pictures/1192_fw.png	290.1282799243927	0.9104201793670654
94	113.36957597732544	response	0	k		92.0	/experiments/knapen_AOT/AOT_stimuli/pictures/1192_fw.png	290.9799630641937	
95	113.42831301689148	picture	0		111	93.0	/experiments/knapen_AOT/AOT_stimuli/pictures/1233_fw.png	291.03870010375977	0.964587926864624
95	114.34310293197632	response	0	k		93.0	/experiments/knapen_AOT/AOT_stimuli/pictures/1233_fw.png	291.9534900188446	
96	114.3929009437561	picture	0		108	94.0	/experiments/knapen_AOT/AOT_stimuli/pictures/1208_fw.png	292.0032880306244	0.952023983001709
96	115.28484296798706	response	0	j		94.0	/experiments/knapen_AOT/AOT_stimuli/pictures/1208_fw.png	292.89523005485535	
97	115.34492492675781	picture	0		91	95.0	/experiments/knapen_AOT/AOT_stimuli/pictures/0582_fw.png	292.9553120136261	0.784714937210083
97	116.09310579299927	response	0	k		95.0	/experiments/knapen_AOT/AOT_stimuli/pictures/0582_fw.png	293.70349287986755	
98	116.1296398639679	picture	0		139	96.0	/experiments/knapen_AOT/AOT_stimuli/pictures/1344_fw.png	293.7400269508362	1.1736719608306885
98	117.27652788162231	response	0	j		96.0	/experiments/knapen_AOT/AOT_stimuli/pictures/1344_fw.png	294.8869149684906	
99	117.30331182479858	picture	0		94	97.0	/experiments/knapen_AOT/AOT_stimuli/pictures/0469_fw.png	294.91369891166687	0.8063499927520752
99	118.0764799118042	response	0	j		97.0	/experiments/knapen_AOT/AOT_stimuli/pictures/0469_fw.png	295.6868669986725	
100	118.10966181755066	picture	0		97	98.0	/experiments/knapen_AOT/AOT_stimuli/pictures/1739_fw.png	295.72004890441895	0.9833011627197266
100	118.90992593765259	response	0	k		98.0	/experiments/knapen_AOT/AOT_stimuli/pictures/1739_fw.png	296.5203130245209	
101	119.09296298027039	picture	0		169	99.0	/experiments/knapen_AOT/AOT_stimuli/pictures/2040_fw.png	296.7033500671387	1.4533758163452148
101	120.49316096305847	response	0	k		99.0	/experiments/knapen_AOT/AOT_stimuli/pictures/2040_fw.png	298.10354804992676	
102	120.5463387966156	picture	0		92	100.0	/experiments/knapen_AOT/AOT_stimuli/pictures/1989_fw.png	298.1567258834839	0.7799971103668213
102	121.3015649318695	response	0	j		100.0	/experiments/knapen_AOT/AOT_stimuli/pictures/1989_fw.png	298.9119520187378	
103	121.32633590698242	picture	0		378	101.0	/experiments/knapen_AOT/AOT_stimuli/pictures/0156_fw.png	298.9367229938507	3.1922669410705566
103	124.46816492080688	response	0	j		101.0	/experiments/knapen_AOT/AOT_stimuli/pictures/0156_fw.png	302.07855200767517	
104	124.51860284805298	picture	0		86	102.0	/experiments/knapen_AOT/AOT_stimuli/pictures/1268_fw.png	302.12898993492126	0.774428129196167
104	125.24317979812622	response	0	j		102.0	/experiments/knapen_AOT/AOT_stimuli/pictures/1268_fw.png	302.8535668849945	
105	125.29303097724915	picture	0		174	103.0	/experiments/knapen_AOT/AOT_stimuli/pictures/0988_fw.png	302.90341806411743	1.4755709171295166
105	126.7349739074707	response	0	k		103.0	/experiments/knapen_AOT/AOT_stimuli/pictures/0988_fw.png	304.345360994339	
106	126.76860189437866	picture	0		432	104.0	/experiments/knapen_AOT/AOT_stimuli/pictures/0016_fw.png	304.37898898124695	3.63281512260437
106	130.3536570072174	response	0	k		104.0	/experiments/knapen_AOT/AOT_stimuli/pictures/0016_fw.png	307.9640440940857	
107	130.40141701698303	picture	0		99	105.0	/experiments/knapen_AOT/AOT_stimuli/pictures/1318_fw.png	308.0118041038513	0.8603129386901855
107	131.21826100349426	response	0	j		105.0	/experiments/knapen_AOT/AOT_stimuli/pictures/1318_fw.png	308.82864809036255	
108	131.26172995567322	picture	0		97	106.0	/experiments/knapen_AOT/AOT_stimuli/pictures/0254_fw.png	308.8721170425415	0.8333120346069336
108	132.06047701835632	response	0	j		106.0	/experiments/knapen_AOT/AOT_stimuli/pictures/0254_fw.png	309.6708641052246	
109	132.09504199028015	picture	0		172	107.0	/experiments/knapen_AOT/AOT_stimuli/pictures/0456_fw.png	309.70542907714844	1.464775800704956
109	133.5189139842987	response	0	k		107.0	/experiments/knapen_AOT/AOT_stimuli/pictures/0456_fw.png	311.129301071167	
110	133.5598177909851	picture	0		123	108.0	/experiments/knapen_AOT/AOT_stimuli/pictures/1172_fw.png	311.1702048778534	1.058333158493042
110	134.56981587409973	response	0	k		108.0	/experiments/knapen_AOT/AOT_stimuli/pictures/1172_fw.png	312.180202960968	
111	134.61815094947815	picture	0		87	109.0	/experiments/knapen_AOT/AOT_stimuli/pictures/0510_fw.png	312.22853803634644	0.775022029876709
111	135.3350739479065	response	0	j		109.0	/experiments/knapen_AOT/AOT_stimuli/pictures/0510_fw.png	312.9454610347748	
112	135.39317297935486	picture	0		158	110.0	/experiments/knapen_AOT/AOT_stimuli/pictures/1616_fw.png	313.00356006622314	1.354691982269287
112	136.70174980163574	response	0	k		110.0	/experiments/knapen_AOT/AOT_stimuli/pictures/1616_fw.png	314.312136888504	
113	136.74786496162415	picture	0		89	111.0	/experiments/knapen_AOT/AOT_stimuli/pictures/0044_fw.png	314.35825204849243	0.770941972732544
113	137.48511600494385	response	0	k		111.0	/experiments/knapen_AOT/AOT_stimuli/pictures/0044_fw.png	315.09550309181213	
114	137.5188069343567	picture	0		661	112.0	/experiments/knapen_AOT/AOT_stimuli/pictures/0295_fw.png	315.129194021225	5.534654855728149
114	143.01897192001343	response	0	j		112.0	/experiments/knapen_AOT/AOT_stimuli/pictures/0295_fw.png	320.6293590068817	
115	143.05346179008484	picture	0		86	113.0	/experiments/knapen_AOT/AOT_stimuli/pictures/1517_fw.png	320.6638488769531	0.7779581546783447
115	143.76024985313416	response	0	k		113.0	/experiments/knapen_AOT/AOT_stimuli/pictures/1517_fw.png	321.37063694000244	
116	143.83141994476318	picture	0		90	114.0	/experiments/knapen_AOT/AOT_stimuli/pictures/0545_fw.png	321.44180703163147	0.7985100746154785
116	144.57005882263184	response	0	k		114.0	/experiments/knapen_AOT/AOT_stimuli/pictures/0545_fw.png	322.1804459095001	
117	144.62993001937866	picture	0		84	115.0	/experiments/knapen_AOT/AOT_stimuli/pictures/0284_fw.png	322.24031710624695	0.7384908199310303
117	145.31852102279663	response	0	k		115.0	/experiments/knapen_AOT/AOT_stimuli/pictures/0284_fw.png	322.9289081096649	
118	145.3684208393097	picture	0		101	116.0	/experiments/knapen_AOT/AOT_stimuli/pictures/0241_fw.png	322.978807926178	0.9003260135650635
118	146.19502592086792	response	0	j		116.0	/experiments/knapen_AOT/AOT_stimuli/pictures/0241_fw.png	323.8054130077362	
119	146.26874685287476	picture	0		120	117.0	/experiments/knapen_AOT/AOT_stimuli/pictures/0405_fw.png	323.87913393974304	1.0347440242767334
119	147.26015996932983	response	0	k		117.0	/experiments/knapen_AOT/AOT_stimuli/pictures/0405_fw.png	324.8705470561981	
120	147.3034908771515	picture	0		84	118.0	/experiments/knapen_AOT/AOT_stimuli/pictures/2121_fw.png	324.9138779640198	0.7231590747833252
120	147.98679995536804	response	0	k		118.0	/experiments/knapen_AOT/AOT_stimuli/pictures/2121_fw.png	325.5971870422363	
121	148.02664995193481	picture	0		87	119.0	/experiments/knapen_AOT/AOT_stimuli/pictures/2114_fw.png	325.6370370388031	0.756166934967041
121	148.74359488487244	response	0	j		119.0	/experiments/knapen_AOT/AOT_stimuli/pictures/2114_fw.png	326.3539819717407	
122	148.78281688690186	picture	0		95	120.0	/experiments/knapen_AOT/AOT_stimuli/pictures/0279_fw.png	326.39320397377014	0.8192610740661621
122	149.56219100952148	response	0	j		120.0	/experiments/knapen_AOT/AOT_stimuli/pictures/0279_fw.png	327.17257809638977	
123	149.60207796096802	picture	0		84	121.0	/experiments/knapen_AOT/AOT_stimuli/pictures/0619_fw.png	327.2124650478363	0.7500438690185547
123	150.29359698295593	response	0	j		121.0	/experiments/knapen_AOT/AOT_stimuli/pictures/0619_fw.png	327.9039840698242	
124	150.35212182998657	picture	0		141	122.0	/experiments/knapen_AOT/AOT_stimuli/pictures/1111_fw.png	327.96250891685486	1.2015001773834229
124	151.5189709663391	response	0	k		122.0	/experiments/knapen_AOT/AOT_stimuli/pictures/1111_fw.png	329.1293580532074	
125	151.55362200737	picture	0		155	123.0	/experiments/knapen_AOT/AOT_stimuli/pictures/1907_fw.png	329.1640090942383	1.3333158493041992
125	152.8352119922638	response	0	k		123.0	/experiments/knapen_AOT/AOT_stimuli/pictures/1907_fw.png	330.4455990791321	
126	152.8869378566742	picture	0		120	124.0	/experiments/knapen_AOT/AOT_stimuli/pictures/0777_fw.png	330.4973249435425	1.039797067642212
126	153.87688493728638	response	0	k		124.0	/experiments/knapen_AOT/AOT_stimuli/pictures/0777_fw.png	331.48727202415466	
127	153.9267349243164	picture	0		114	125.0	/experiments/knapen_AOT/AOT_stimuli/pictures/1118_fw.png	331.5371220111847	1.041661024093628
127	154.8686718940735	response	0	k		125.0	/experiments/knapen_AOT/AOT_stimuli/pictures/1118_fw.png	332.4790589809418	
128	154.96839594841003	picture	0		101	126.0	/experiments/knapen_AOT/AOT_stimuli/pictures/0320_fw.png	332.5787830352783	0.8838808536529541
128	155.8019139766693	response	0	k		126.0	/experiments/knapen_AOT/AOT_stimuli/pictures/0320_fw.png	333.4123010635376	
129	155.852276802063	picture	0		82	127.0	/experiments/knapen_AOT/AOT_stimuli/pictures/0476_fw.png	333.4626638889313	0.708226203918457
129	156.52695393562317	response	0	j		127.0	/experiments/knapen_AOT/AOT_stimuli/pictures/0476_fw.png	334.13734102249146	
130	156.56050300598145	picture	0		109	128.0	/experiments/knapen_AOT/AOT_stimuli/pictures/1727_fw.png	334.17089009284973	0.9375369548797607
130	157.4603168964386	response	0	k		128.0	/experiments/knapen_AOT/AOT_stimuli/pictures/1727_fw.png	335.0707039833069	
131	157.4980399608612	picture	0		88	129.0	/experiments/knapen_AOT/AOT_stimuli/pictures/0814_fw.png	335.1084270477295	0.7620978355407715
131	158.22738695144653	response	0	j		129.0	/experiments/knapen_AOT/AOT_stimuli/pictures/0814_fw.png	335.8377740383148	
132	158.26013779640198	picture	0		103	130.0	/experiments/knapen_AOT/AOT_stimuli/pictures/0312_fw.png	335.87052488327026	0.9084219932556152
132	159.11030101776123	response	0	j		130.0	/experiments/knapen_AOT/AOT_stimuli/pictures/0312_fw.png	336.7206881046295	
133	159.1685597896576	picture	0		155	131.0	/experiments/knapen_AOT/AOT_stimuli/pictures/2089_fw.png	336.7789468765259	1.3433711528778076
133	160.4519829750061	response	0	j		131.0	/experiments/knapen_AOT/AOT_stimuli/pictures/2089_fw.png	338.0623700618744	
134	160.5119309425354	picture	0		110	132.0	/experiments/knapen_AOT/AOT_stimuli/pictures/0742_fw.png	338.1223180294037	0.9444839954376221
134	161.41880297660828	response	0	k		132.0	/experiments/knapen_AOT/AOT_stimuli/pictures/0742_fw.png	339.02919006347656	
135	161.45641493797302	picture	0		100	133.0	/experiments/knapen_AOT/AOT_stimuli/pictures/1349_fw.png	339.0668020248413	0.862205982208252
135	162.28532600402832	response	0	k		133.0	/experiments/knapen_AOT/AOT_stimuli/pictures/1349_fw.png	339.8957130908966	
136	162.31862092018127	picture	0		90	134.0	/experiments/knapen_AOT/AOT_stimuli/pictures/1341_fw.png	339.92900800704956	0.7767698764801025
136	163.06074595451355	response	0	j		134.0	/experiments/knapen_AOT/AOT_stimuli/pictures/1341_fw.png	340.67113304138184	
137	163.09539079666138	picture	0		170	135.0	/experiments/knapen_AOT/AOT_stimuli/pictures/1113_fw.png	340.70577788352966	1.6148509979248047
137	164.50202798843384	response	0	j		135.0	/experiments/knapen_AOT/AOT_stimuli/pictures/1113_fw.png	342.1124150753021	
138	164.71024179458618	picture	0		116	136.0	/experiments/knapen_AOT/AOT_stimuli/pictures/1387_fw.png	342.32062888145447	1.0031440258026123
138	165.66881394386292	response	0	k		136.0	/experiments/knapen_AOT/AOT_stimuli/pictures/1387_fw.png	343.2792010307312	
139	165.7133858203888	picture	0		146	137.0	/experiments/knapen_AOT/AOT_stimuli/pictures/0519_fw.png	343.3237729072571	1.2431371212005615
139	166.91885495185852	response	0	j		137.0	/experiments/knapen_AOT/AOT_stimuli/pictures/0519_fw.png	344.5292420387268	
140	166.95652294158936	picture	0		91	138.0	/experiments/knapen_AOT/AOT_stimuli/pictures/1728_fw.png	344.56691002845764	0.7871220111846924
140	167.7020959854126	response	0	j		138.0	/experiments/knapen_AOT/AOT_stimuli/pictures/1728_fw.png	345.3124830722809	
141	167.74364495277405	picture	0		149	139.0	/experiments/knapen_AOT/AOT_stimuli/pictures/1025_fw.png	345.35403203964233	1.275277853012085
141	168.97056794166565	response	0	k		139.0	/experiments/knapen_AOT/AOT_stimuli/pictures/1025_fw.png	346.58095502853394	
142	169.01892280578613	picture	0		95	140.0	/experiments/knapen_AOT/AOT_stimuli/pictures/0599_fw.png	346.6293098926544	0.8335440158843994
142	169.80209183692932	response	0	k		140.0	/experiments/knapen_AOT/AOT_stimuli/pictures/0599_fw.png	347.4124789237976	
143	169.85246682167053	picture	0		243	141.0	/experiments/knapen_AOT/AOT_stimuli/pictures/1920_fw.png	347.4628539085388	2.055373191833496
143	171.86890697479248	response	0	k		141.0	/experiments/knapen_AOT/AOT_stimuli/pictures/1920_fw.png	349.47929406166077	
144	171.90784001350403	picture	0		92	142.0	/experiments/knapen_AOT/AOT_stimuli/pictures/0223_fw.png	349.5182271003723	0.7986788749694824
144	172.6689329147339	response	0	j		142.0	/experiments/knapen_AOT/AOT_stimuli/pictures/0223_fw.png	350.2793200016022	
145	172.7065188884735	picture	0		124	143.0	/experiments/knapen_AOT/AOT_stimuli/pictures/0236_fw.png	350.3169059753418	1.0704801082611084
145	173.7274329662323	response	0	k		143.0	/experiments/knapen_AOT/AOT_stimuli/pictures/0236_fw.png	351.3378200531006	
146	173.77699899673462	picture	0		88	144.0	/experiments/knapen_AOT/AOT_stimuli/pictures/0713_fw.png	351.3873860836029	0.783721923828125
146	174.50219082832336	response	0	k		144.0	/experiments/knapen_AOT/AOT_stimuli/pictures/0713_fw.png	352.11257791519165	
147	174.56072092056274	picture	0		82	145.0	/experiments/knapen_AOT/AOT_stimuli/pictures/1368_fw.png	352.17110800743103	0.7361569404602051
147	175.23558282852173	response	0	j		145.0	/experiments/knapen_AOT/AOT_stimuli/pictures/1368_fw.png	352.84596991539	
148	175.29687786102295	picture	0		90	146.0	/experiments/knapen_AOT/AOT_stimuli/pictures/1503_fw.png	352.90726494789124	0.7885560989379883
148	176.03552889823914	response	0	j		146.0	/experiments/knapen_AOT/AOT_stimuli/pictures/1503_fw.png	353.6459159851074	
149	176.08543395996094	picture	0		232	147.0	/experiments/knapen_AOT/AOT_stimuli/pictures/1413_fw.png	353.6958210468292	1.975019931793213
149	178.01053094863892	response	0	k		147.0	/experiments/knapen_AOT/AOT_stimuli/pictures/1413_fw.png	355.6209180355072	
150	178.06045389175415	picture	0		114	148.0	/experiments/knapen_AOT/AOT_stimuli/pictures/1332_fw.png	355.67084097862244	0.9999549388885498
150	178.99540400505066	response	0	j		148.0	/experiments/knapen_AOT/AOT_stimuli/pictures/1332_fw.png	356.60579109191895	
151	179.0604088306427	picture	0		123	149.0	/experiments/knapen_AOT/AOT_stimuli/pictures/1244_fw.png	356.670795917511	1.0666911602020264
151	180.07721495628357	response	0	k		149.0	/experiments/knapen_AOT/AOT_stimuli/pictures/1244_fw.png	357.68760204315186	
152	180.12709999084473	picture	0		159	150.0	/experiments/knapen_AOT/AOT_stimuli/pictures/0746_fw.png	357.737487077713	1.3503408432006836
152	181.4440369606018	response	0	j		150.0	/experiments/knapen_AOT/AOT_stimuli/pictures/0746_fw.png	359.0544240474701	
153	181.4774408340454	picture	0		135	151.0	/experiments/knapen_AOT/AOT_stimuli/pictures/0946_fw.png	359.0878279209137	1.1527190208435059
153	182.59408497810364	response	0	k		151.0	/experiments/knapen_AOT/AOT_stimuli/pictures/0946_fw.png	360.2044720649719	
154	182.63015985488892	picture	0		81	152.0	/experiments/knapen_AOT/AOT_stimuli/pictures/1456_fw.png	360.2405469417572	0.7219791412353516
154	183.29404878616333	response	0	j		152.0	/experiments/knapen_AOT/AOT_stimuli/pictures/1456_fw.png	360.9044358730316	
155	183.35213899612427	picture	0		113	153.0	/experiments/knapen_AOT/AOT_stimuli/pictures/1265_fw.png	360.96252608299255	0.9833688735961914
155	184.2856969833374	response	0	k		153.0	/experiments/knapen_AOT/AOT_stimuli/pictures/1265_fw.png	361.8960840702057	
156	184.33550786972046	picture	0		104	154.0	/experiments/knapen_AOT/AOT_stimuli/pictures/0316_fw.png	361.94589495658875	0.9083249568939209
156	185.18732285499573	response	0	j		154.0	/experiments/knapen_AOT/AOT_stimuli/pictures/0316_fw.png	362.797709941864	
157	185.24383282661438	picture	0		96	155.0	/experiments/knapen_AOT/AOT_stimuli/pictures/1609_fw.png	362.85421991348267	0.8250010013580322
157	186.03560996055603	response	0	k		155.0	/experiments/knapen_AOT/AOT_stimuli/pictures/1609_fw.png	363.6459970474243	
158	186.0688338279724	picture	0		134	156.0	/experiments/knapen_AOT/AOT_stimuli/pictures/0462_fw.png	363.6792209148407	1.150130033493042
158	187.17072582244873	response	0	k		156.0	/experiments/knapen_AOT/AOT_stimuli/pictures/0462_fw.png	364.781112909317	
159	187.21896386146545	picture	0		120	157.0	/experiments/knapen_AOT/AOT_stimuli/pictures/1337_fw.png	364.82935094833374	1.02937912940979
159	188.21075987815857	response	0	k		157.0	/experiments/knapen_AOT/AOT_stimuli/pictures/1337_fw.png	365.82114696502686	
160	188.24834299087524	picture	0		161	158.0	/experiments/knapen_AOT/AOT_stimuli/pictures/1454_fw.png	365.85873007774353	1.3818778991699219
160	189.57059001922607	response	0	k		158.0	/experiments/knapen_AOT/AOT_stimuli/pictures/1454_fw.png	367.18097710609436	
161	189.63022089004517	picture	0		87	159.0	/experiments/knapen_AOT/AOT_stimuli/pictures/1572_fw.png	367.24060797691345	0.7499940395355225
161	190.34407687187195	response	0	j		159.0	/experiments/knapen_AOT/AOT_stimuli/pictures/1572_fw.png	367.95446395874023	
162	190.3802149295807	picture	0		80	160.0	/experiments/knapen_AOT/AOT_stimuli/pictures/1043_fw.png	367.990602016449	0.6969969272613525
162	191.03569293022156	response	0	j		160.0	/experiments/knapen_AOT/AOT_stimuli/pictures/1043_fw.png	368.64608001708984	
163	191.07721185684204	picture	0		134	161.0	/experiments/knapen_AOT/AOT_stimuli/pictures/2102_fw.png	368.6875989437103	1.1503469944000244
163	192.17914485931396	response	0	j		161.0	/experiments/knapen_AOT/AOT_stimuli/pictures/2102_fw.png	369.78953194618225	
164	192.22755885124207	picture	0		94	162.0	/experiments/knapen_AOT/AOT_stimuli/pictures/0613_fw.png	369.83794593811035	0.8262810707092285
164	193.00242590904236	response	0	j		162.0	/experiments/knapen_AOT/AOT_stimuli/pictures/0613_fw.png	370.61281299591064	
165	193.0538399219513	picture	0		98	163.0	/experiments/knapen_AOT/AOT_stimuli/pictures/0755_fw.png	370.6642270088196	0.8484549522399902
165	193.8607199192047	response	0	j		163.0	/experiments/knapen_AOT/AOT_stimuli/pictures/0755_fw.png	371.471107006073	
166	193.90229487419128	picture	0		118	164.0	/experiments/knapen_AOT/AOT_stimuli/pictures/0441_fw.png	371.51268196105957	1.0126731395721436
166	194.87747383117676	response	0	k		164.0	/experiments/knapen_AOT/AOT_stimuli/pictures/0441_fw.png	372.48786091804504	
167	194.91496801376343	picture	0		107	165.0	/experiments/knapen_AOT/AOT_stimuli/pictures/0187_fw.png	372.5253551006317	0.9166967868804932
167	195.78740000724792	response	0	k		165.0	/experiments/knapen_AOT/AOT_stimuli/pictures/0187_fw.png	373.3977870941162	
168	195.83166480064392	picture	0		105	166.0	/experiments/knapen_AOT/AOT_stimuli/pictures/1004_fw.png	373.4420518875122	0.8889341354370117
168	196.69414496421814	response	0	k		166.0	/experiments/knapen_AOT/AOT_stimuli/pictures/1004_fw.png	374.3045320510864	
169	196.72059893608093	picture	0		102	167.0	/experiments/knapen_AOT/AOT_stimuli/pictures/1477_fw.png	374.3309860229492	0.8750078678131104
169	197.56095099449158	response	0	k		167.0	/experiments/knapen_AOT/AOT_stimuli/pictures/1477_fw.png	375.17133808135986	
170	197.59560680389404	picture	0		88	168.0	/experiments/knapen_AOT/AOT_stimuli/pictures/0543_fw.png	375.20599389076233	0.9401130676269531
170	198.34416484832764	response	0	k		168.0	/experiments/knapen_AOT/AOT_stimuli/pictures/0543_fw.png	375.9545519351959	
171	198.535719871521	picture	0		114	169.0	/experiments/knapen_AOT/AOT_stimuli/pictures/0981_fw.png	376.1461069583893	0.9999990463256836
171	199.47762894630432	response	0	k		169.0	/experiments/knapen_AOT/AOT_stimuli/pictures/0981_fw.png	377.0880160331726	
172	199.53571891784668	picture	0		113	170.0	/experiments/knapen_AOT/AOT_stimuli/pictures/0276_fw.png	377.14610600471497	1.041637897491455
172	200.46913480758667	response	0	j		170.0	/experiments/knapen_AOT/AOT_stimuli/pictures/0276_fw.png	378.07952189445496	
173	200.57735681533813	picture	0		101	171.0	/experiments/knapen_AOT/AOT_stimuli/pictures/0349_fw.png	378.1877439022064	0.8666751384735107
173	201.4108829498291	response	0	k		171.0	/experiments/knapen_AOT/AOT_stimuli/pictures/0349_fw.png	379.0212700366974	
174	201.44403195381165	picture	0		140	172.0	/experiments/knapen_AOT/AOT_stimuli/pictures/1327_fw.png	379.05441904067993	1.193382978439331
174	202.60263681411743	response	0	k		172.0	/experiments/knapen_AOT/AOT_stimuli/pictures/1327_fw.png	380.2130239009857	
175	202.63741493225098	picture	0		95	173.0	/experiments/knapen_AOT/AOT_stimuli/pictures/0437_fw.png	380.24780201911926	0.8192908763885498
175	203.4192328453064	response	0	j		173.0	/experiments/knapen_AOT/AOT_stimuli/pictures/0437_fw.png	381.0296199321747	
176	203.45670580863953	picture	0		129	174.0	/experiments/knapen_AOT/AOT_stimuli/pictures/2071_fw.png	381.0670928955078	1.1041321754455566
176	204.51935195922852	response	0	k		174.0	/experiments/knapen_AOT/AOT_stimuli/pictures/2071_fw.png	382.1297390460968	
177	204.56083798408508	picture	0		88	175.0	/experiments/knapen_AOT/AOT_stimuli/pictures/0679_fw.png	382.17122507095337	0.7582309246063232
177	205.28587293624878	response	0	j		175.0	/experiments/knapen_AOT/AOT_stimuli/pictures/0679_fw.png	382.89626002311707	
178	205.3190689086914	picture	0		92	176.0	/experiments/knapen_AOT/AOT_stimuli/pictures/1449_fw.png	382.9294559955597	0.8500769138336182
178	206.07765698432922	response	0	k		176.0	/experiments/knapen_AOT/AOT_stimuli/pictures/1449_fw.png	383.6880440711975	
179	206.16914582252502	picture	0		114	177.0	/experiments/knapen_AOT/AOT_stimuli/pictures/0164_fw.png	383.7795329093933	0.9832980632781982
179	207.1109278202057	response	0	k		177.0	/experiments/knapen_AOT/AOT_stimuli/pictures/0164_fw.png	384.721314907074	
180	207.15244388580322	picture	0		114	178.0	/experiments/knapen_AOT/AOT_stimuli/pictures/1772_fw.png	384.7628309726715	0.9779999256134033
180	208.09426879882812	response	0	k		178.0	/experiments/knapen_AOT/AOT_stimuli/pictures/1772_fw.png	385.7046558856964	
181	208.13044381141663	picture	0		104	179.0	/experiments/knapen_AOT/AOT_stimuli/pictures/2103_fw.png	385.7408308982849	0.9165890216827393
181	208.97934293746948	response	0	k		179.0	/experiments/knapen_AOT/AOT_stimuli/pictures/2103_fw.png	386.58973002433777	
182	209.04703283309937	picture	0		93	180.0	/experiments/knapen_AOT/AOT_stimuli/pictures/0200_fw.png	386.65741991996765	0.8889760971069336
182	209.81105995178223	response	0	k		180.0	/experiments/knapen_AOT/AOT_stimuli/pictures/0200_fw.png	387.4214470386505	
183	209.9360089302063	picture	0		106	181.0	/experiments/knapen_AOT/AOT_stimuli/pictures/1317_fw.png	387.5463960170746	0.9415040016174316
183	210.81108689308167	response	0	k		181.0	/experiments/knapen_AOT/AOT_stimuli/pictures/1317_fw.png	388.42147397994995	
184	210.87751293182373	picture	0		92	182.0	/experiments/knapen_AOT/AOT_stimuli/pictures/0218_fw.png	388.487900018692	0.8000190258026123
184	211.63605189323425	response	0	j		182.0	/experiments/knapen_AOT/AOT_stimuli/pictures/0218_fw.png	389.24643898010254	
185	211.67753195762634	picture	0		153	183.0	/experiments/knapen_AOT/AOT_stimuli/pictures/1649_fw.png	389.28791904449463	1.3083100318908691
185	212.94434094429016	response	0	j		183.0	/experiments/knapen_AOT/AOT_stimuli/pictures/1649_fw.png	390.55472803115845	
186	212.9858419895172	picture	0		78	184.0	/experiments/knapen_AOT/AOT_stimuli/pictures/0773_fw.png	390.5962290763855	0.7083430290222168
186	213.62765097618103	response	0	k		184.0	/experiments/knapen_AOT/AOT_stimuli/pictures/0773_fw.png	391.2380380630493	
187	213.69418501853943	picture	0		112	185.0	/experiments/knapen_AOT/AOT_stimuli/pictures/2138_fw.png	391.3045721054077	1.0197057723999023
187	214.61944389343262	response	0	j		185.0	/experiments/knapen_AOT/AOT_stimuli/pictures/2138_fw.png	392.2298309803009	
188	214.71389079093933	picture	0		96	186.0	/experiments/knapen_AOT/AOT_stimuli/pictures/1549_fw.png	392.3242778778076	0.9053230285644531
188	215.5027949810028	response	0	k		186.0	/experiments/knapen_AOT/AOT_stimuli/pictures/1549_fw.png	393.1131820678711	
189	215.61921381950378	picture	0		94	187.0	/experiments/knapen_AOT/AOT_stimuli/pictures/0968_fw.png	393.22960090637207	0.8098089694976807
189	216.38783288002014	response	0	j		187.0	/experiments/knapen_AOT/AOT_stimuli/pictures/0968_fw.png	393.9982199668884	
190	216.42902278900146	picture	0		247	188.0	/experiments/knapen_AOT/AOT_stimuli/pictures/0947_fw.png	394.03940987586975	2.0903170108795166
190	218.47780179977417	response	0	j		188.0	/experiments/knapen_AOT/AOT_stimuli/pictures/0947_fw.png	396.08818888664246	
191	218.51933979988098	picture	0		149	189.0	/experiments/knapen_AOT/AOT_stimuli/pictures/1932_fw.png	396.12972688674927	1.2916531562805176
191	219.752849817276	response	0	j		189.0	/experiments/knapen_AOT/AOT_stimuli/pictures/1932_fw.png	397.3632369041443	
192	219.8109929561615	picture	0		125	190.0	/experiments/knapen_AOT/AOT_stimuli/pictures/0642_fw.png	397.4213800430298	1.224944829940796
192	220.84453701972961	response	0	k		190.0	/experiments/knapen_AOT/AOT_stimuli/pictures/0642_fw.png	398.4549241065979	
193	221.0359377861023	picture	0		100	191.0	/experiments/knapen_AOT/AOT_stimuli/pictures/0221_fw.png	398.6463248729706	0.8584730625152588
193	221.86110997200012	response	0	k		191.0	/experiments/knapen_AOT/AOT_stimuli/pictures/0221_fw.png	399.4714970588684	
194	221.89441084861755	picture	0		100	192.0	/experiments/knapen_AOT/AOT_stimuli/pictures/0281_fw.png	399.50479793548584	0.8610761165618896
194	222.71957087516785	response	0	k		192.0	/experiments/knapen_AOT/AOT_stimuli/pictures/0281_fw.png	400.32995796203613	
195	222.75548696517944	picture	0		142	193.0	/experiments/knapen_AOT/AOT_stimuli/pictures/0274_fw.png	400.36587405204773	1.322180986404419
195	223.9279170036316	response	0	j		193.0	/experiments/knapen_AOT/AOT_stimuli/pictures/0274_fw.png	401.5383040904999	
196	224.07766795158386	picture	0		149	194.0	/experiments/knapen_AOT/AOT_stimuli/pictures/1844_fw.png	401.68805503845215	1.2681729793548584
196	225.3111879825592	response	0	j		194.0	/experiments/knapen_AOT/AOT_stimuli/pictures/1844_fw.png	402.9215750694275	
197	225.34584093093872	picture	0		105	195.0	/experiments/knapen_AOT/AOT_stimuli/pictures/1882_fw.png	402.956228017807	0.9027659893035889
197	226.21118688583374	response	0	k		195.0	/experiments/knapen_AOT/AOT_stimuli/pictures/1882_fw.png	403.821573972702	
198	226.2486069202423	picture	0		101	196.0	/experiments/knapen_AOT/AOT_stimuli/pictures/1830_fw.png	403.8589940071106	0.8708040714263916
198	227.0779469013214	response	0	j		196.0	/experiments/knapen_AOT/AOT_stimuli/pictures/1830_fw.png	404.6883339881897	
199	227.1194109916687	picture	0		89	197.0	/experiments/knapen_AOT/AOT_stimuli/pictures/1945_fw.png	404.729798078537	0.7750048637390137
199	227.85292387008667	response	0	k		197.0	/experiments/knapen_AOT/AOT_stimuli/pictures/1945_fw.png	405.46331095695496	
200	227.89441585540771	picture	0		148	198.0	/experiments/knapen_AOT/AOT_stimuli/pictures/0079_fw.png	405.504802942276	1.2833290100097656
200	229.1196517944336	response	0	j		198.0	/experiments/knapen_AOT/AOT_stimuli/pictures/0079_fw.png	406.7300388813019	
201	229.17774486541748	picture	0		118	199.0	/experiments/knapen_AOT/AOT_stimuli/pictures/0483_fw.png	406.78813195228577	1.033323049545288
201	230.15299701690674	response	0	j		199.0	/experiments/knapen_AOT/AOT_stimuli/pictures/0483_fw.png	407.763384103775	
202	230.21106791496277	picture	0		265	200.0	/experiments/knapen_AOT/AOT_stimuli/pictures/0577_fw.png	407.82145500183105	2.2417609691619873
202	232.4112319946289	response	0	k		200.0	/experiments/knapen_AOT/AOT_stimuli/pictures/0577_fw.png	410.0216190814972	
203	232.45282888412476	picture	0		84	201.0	/experiments/knapen_AOT/AOT_stimuli/pictures/0989_fw.png	410.06321597099304	0.7263269424438477
203	233.14463591575623	response	0	j		201.0	/experiments/knapen_AOT/AOT_stimuli/pictures/0989_fw.png	410.7550230026245	
204	233.1791558265686	picture	0		137	202.0	/experiments/knapen_AOT/AOT_stimuli/pictures/0884_fw.png	410.7895429134369	1.1819791793823242
204	234.3112919330597	response	0	j		202.0	/experiments/knapen_AOT/AOT_stimuli/pictures/0884_fw.png	411.921679019928	
205	234.36113500595093	picture	0		101	203.0	/experiments/knapen_AOT/AOT_stimuli/pictures/0883_fw.png	411.9715220928192	0.8833358287811279
205	235.18779802322388	response	0	j		203.0	/experiments/knapen_AOT/AOT_stimuli/pictures/0883_fw.png	412.79818511009216	
206	235.24447083473206	picture	0		110	204.0	/experiments/knapen_AOT/AOT_stimuli/pictures/0803_fw.png	412.85485792160034	0.983361005783081
206	236.1529848575592	response	0	j		204.0	/experiments/knapen_AOT/AOT_stimuli/pictures/0803_fw.png	413.7633719444275	
207	236.22783184051514	picture	0		82	205.0	/experiments/knapen_AOT/AOT_stimuli/pictures/1839_fw.png	413.8382189273834	0.7167031764984131
207	236.90307188034058	response	0	k		205.0	/experiments/knapen_AOT/AOT_stimuli/pictures/1839_fw.png	414.51345896720886	
208	236.94453501701355	picture	0		127	206.0	/experiments/knapen_AOT/AOT_stimuli/pictures/0092_fw.png	414.55492210388184	1.0916328430175781
208	237.98779797554016	response	0	k		206.0	/experiments/knapen_AOT/AOT_stimuli/pictures/0092_fw.png	415.59818506240845	
209	238.03616786003113	picture	0		94	207.0	/experiments/knapen_AOT/AOT_stimuli/pictures/1493_fw.png	415.6465549468994	0.830517053604126
209	238.81132197380066	response	0	j		207.0	/experiments/knapen_AOT/AOT_stimuli/pictures/1493_fw.png	416.42170906066895	
210	238.86668491363525	picture	0		139	208.0	/experiments/knapen_AOT/AOT_stimuli/pictures/0299_fw.png	416.47707200050354	1.2292430400848389
210	240.01976490020752	response	0	k		208.0	/experiments/knapen_AOT/AOT_stimuli/pictures/0299_fw.png	417.6301519870758	
211	240.0959279537201	picture	0		313	209.0	/experiments/knapen_AOT/AOT_stimuli/pictures/0416_fw.png	417.7063150405884	2.640291929244995
211	242.69490385055542	response	0	k		209.0	/experiments/knapen_AOT/AOT_stimuli/pictures/0416_fw.png	420.3052909374237	
212	242.7362198829651	picture	0		121	210.0	/experiments/knapen_AOT/AOT_stimuli/pictures/0709_fw.png	420.3466069698334	1.0583889484405518
212	243.73643898963928	response	0	k		210.0	/experiments/knapen_AOT/AOT_stimuli/pictures/0709_fw.png	421.34682607650757	
213	243.79460883140564	picture	0		158	211.0	/experiments/knapen_AOT/AOT_stimuli/pictures/0262_fw.png	421.4049959182739	1.350003957748413
213	245.10318183898926	response	0	k		211.0	/experiments/knapen_AOT/AOT_stimuli/pictures/0262_fw.png	422.71356892585754	
214	245.14461278915405	picture	0		137	212.0	/experiments/knapen_AOT/AOT_stimuli/pictures/0914_fw.png	422.75499987602234	1.1833322048187256
214	246.2781720161438	response	0	j		212.0	/experiments/knapen_AOT/AOT_stimuli/pictures/0914_fw.png	423.8885591030121	
215	246.32794499397278	picture	0		121	213.0	/experiments/knapen_AOT/AOT_stimuli/pictures/0190_fw.png	423.93833208084106	1.0333459377288818
215	247.32814693450928	response	0	j		213.0	/experiments/knapen_AOT/AOT_stimuli/pictures/0190_fw.png	424.93853402137756	
216	247.36129093170166	picture	0		140	214.0	/experiments/knapen_AOT/AOT_stimuli/pictures/1178_fw.png	424.97167801856995	1.2001099586486816
216	248.51981496810913	response	0	j		214.0	/experiments/knapen_AOT/AOT_stimuli/pictures/1178_fw.png	426.1302020549774	
217	248.56140089035034	picture	0		92	215.0	/experiments/knapen_AOT/AOT_stimuli/pictures/0967_fw.png	426.1717879772186	0.79156494140625
217	249.31994581222534	response	0	k		215.0	/experiments/knapen_AOT/AOT_stimuli/pictures/0967_fw.png	426.9303328990936	
218	249.3529658317566	picture	0		106	216.0	/experiments/knapen_AOT/AOT_stimuli/pictures/1430_fw.png	426.9633529186249	0.909661054611206
218	250.22815489768982	response	0	k		216.0	/experiments/knapen_AOT/AOT_stimuli/pictures/1430_fw.png	427.8385419845581	
219	250.2626268863678	picture	0		105	217.0	/experiments/knapen_AOT/AOT_stimuli/pictures/0631_fw.png	427.8730139732361	0.9070630073547363
219	251.1282708644867	response	0	k		217.0	/experiments/knapen_AOT/AOT_stimuli/pictures/0631_fw.png	428.738657951355	
220	251.16968989372253	picture	0		77	218.0	/experiments/knapen_AOT/AOT_stimuli/pictures/1936_fw.png	428.7800769805908	0.6583149433135986
220	251.80313801765442	response	0	k		218.0	/experiments/knapen_AOT/AOT_stimuli/pictures/1936_fw.png	429.4135251045227	
221	251.82800483703613	picture	0		96	219.0	/experiments/knapen_AOT/AOT_stimuli/pictures/0357_fw.png	429.4383919239044	0.8305799961090088
221	252.6199278831482	response	0	k		219.0	/experiments/knapen_AOT/AOT_stimuli/pictures/0357_fw.png	430.2303149700165	
222	252.65858483314514	picture	0		152	220.0	/experiments/knapen_AOT/AOT_stimuli/pictures/0876_fw.png	430.2689719200134	1.4028120040893555
222	253.919912815094	response	0	k		220.0	/experiments/knapen_AOT/AOT_stimuli/pictures/0876_fw.png	431.5302999019623	
223	254.0613968372345	picture	0		110	221.0	/experiments/knapen_AOT/AOT_stimuli/pictures/1001_fw.png	431.6717839241028	0.9443211555480957
223	254.963280916214	response	0	k		221.0	/experiments/knapen_AOT/AOT_stimuli/pictures/1001_fw.png	432.5736680030823	
224	255.0057179927826	picture	0		113	222.0	/experiments/knapen_AOT/AOT_stimuli/pictures/1243_fw.png	432.6161050796509	1.0974619388580322
224	255.9365589618683	response	0	k		222.0	/experiments/knapen_AOT/AOT_stimuli/pictures/1243_fw.png	433.5469460487366	
225	256.1031799316406	picture	0		241	223.0	/experiments/knapen_AOT/AOT_stimuli/pictures/0026_fw.png	433.7135670185089	2.0666658878326416
225	258.10327792167664	response	0	k		223.0	/experiments/knapen_AOT/AOT_stimuli/pictures/0026_fw.png	435.7136650085449	
226	258.16984581947327	picture	0		99	224.0	/experiments/knapen_AOT/AOT_stimuli/pictures/1461_fw.png	435.78023290634155	0.8582711219787598
226	258.97983288764954	response	0	j		224.0	/experiments/knapen_AOT/AOT_stimuli/pictures/1461_fw.png	436.5902199745178	
227	259.028116941452	picture	0		258	225.0	/experiments/knapen_AOT/AOT_stimuli/pictures/0406_fw.png	436.6385040283203	2.208379030227661
227	261.16320300102234	response	0	k		225.0	/experiments/knapen_AOT/AOT_stimuli/pictures/0406_fw.png	438.7735900878906	
228	261.2364959716797	picture	0		122	226.0	/experiments/knapen_AOT/AOT_stimuli/pictures/0688_fw.png	438.846883058548	1.04715895652771
228	262.2450969219208	response	0	k		226.0	/experiments/knapen_AOT/AOT_stimuli/pictures/0688_fw.png	439.85548400878906	
229	262.2836549282074	picture	0		193	227.0	/experiments/knapen_AOT/AOT_stimuli/pictures/1429_fw.png	439.8940420150757	1.6611828804016113
229	263.886727809906	response	0	j		227.0	/experiments/knapen_AOT/AOT_stimuli/pictures/1429_fw.png	441.4971148967743	
230	263.944837808609	picture	0		87	228.0	/experiments/knapen_AOT/AOT_stimuli/pictures/1224_fw.png	441.5552248954773	0.7584161758422852
230	264.6617147922516	response	0	k		228.0	/experiments/knapen_AOT/AOT_stimuli/pictures/1224_fw.png	442.2721018791199	
231	264.7032539844513	picture	0		116	229.0	/experiments/knapen_AOT/AOT_stimuli/pictures/1080_fw.png	442.3136410713196	1.0000419616699219
231	265.6617000102997	response	0	k		229.0	/experiments/knapen_AOT/AOT_stimuli/pictures/1080_fw.png	443.27208709716797	
232	265.7032959461212	picture	0		101	230.0	/experiments/knapen_AOT/AOT_stimuli/pictures/1119_fw.png	443.3136830329895	0.8719608783721924
232	266.53675389289856	response	0	k		230.0	/experiments/knapen_AOT/AOT_stimuli/pictures/1119_fw.png	444.14714097976685	
233	266.5752568244934	picture	0		297	231.0	/experiments/knapen_AOT/AOT_stimuli/pictures/0607_fw.png	444.1856439113617	2.5529770851135254
233	269.07015585899353	response	0	j		231.0	/experiments/knapen_AOT/AOT_stimuli/pictures/0607_fw.png	446.6805429458618	
234	269.12823390960693	picture	0		178	232.0	/experiments/knapen_AOT/AOT_stimuli/pictures/1860_fw.png	446.7386209964752	1.5583701133728027
234	270.6033549308777	response	0	j		232.0	/experiments/knapen_AOT/AOT_stimuli/pictures/1860_fw.png	448.213742017746	
235	270.68660402297974	picture	0		101	233.0	/experiments/knapen_AOT/AOT_stimuli/pictures/0217_fw.png	448.296991109848	0.8679819107055664
235	271.52009201049805	response	0	k		233.0	/experiments/knapen_AOT/AOT_stimuli/pictures/0217_fw.png	449.13047909736633	
236	271.5545859336853	picture	0		88	234.0	/experiments/knapen_AOT/AOT_stimuli/pictures/1606_fw.png	449.1649730205536	0.7737460136413574
236	272.278550863266	response	0	k		234.0	/experiments/knapen_AOT/AOT_stimuli/pictures/1606_fw.png	449.8889379501343	
237	272.32833194732666	picture	0		120	235.0	/experiments/knapen_AOT/AOT_stimuli/pictures/0941_fw.png	449.93871903419495	1.0499670505523682
237	273.32013487815857	response	0	k		235.0	/experiments/knapen_AOT/AOT_stimuli/pictures/0941_fw.png	450.93052196502686	
238	273.378298997879	picture	0		105	236.0	/experiments/knapen_AOT/AOT_stimuli/pictures/1892_fw.png	450.9886860847473	0.9122898578643799
238	274.24515199661255	response	0	k		236.0	/experiments/knapen_AOT/AOT_stimuli/pictures/1892_fw.png	451.85553908348083	
239	274.2905888557434	picture	0		106	237.0	/experiments/knapen_AOT/AOT_stimuli/pictures/0144_fw.png	451.9009759426117	0.9127490520477295
239	275.16190099716187	response	0	k		237.0	/experiments/knapen_AOT/AOT_stimuli/pictures/0144_fw.png	452.77228808403015	
240	275.20333790779114	picture	0		94	238.0	/experiments/knapen_AOT/AOT_stimuli/pictures/1564_fw.png	452.8137249946594	0.8095660209655762
240	275.97169280052185	response	0	k		238.0	/experiments/knapen_AOT/AOT_stimuli/pictures/1564_fw.png	453.58207988739014	
241	276.0129039287567	picture	0		94	239.0	/experiments/knapen_AOT/AOT_stimuli/pictures/1489_fw.png	453.623291015625	0.8154089450836182
241	276.7801158428192	response	0	j		239.0	/experiments/knapen_AOT/AOT_stimuli/pictures/1489_fw.png	454.3905029296875	
242	276.82831287384033	picture	0		82	240.0	/experiments/knapen_AOT/AOT_stimuli/pictures/1010_fw.png	454.4386999607086	0.7167201042175293
242	277.5036358833313	response	0	j		240.0	/experiments/knapen_AOT/AOT_stimuli/pictures/1010_fw.png	455.1140229701996	
243	277.54503297805786	picture	0		87	241.0	/experiments/knapen_AOT/AOT_stimuli/pictures/0333_fw.png	455.15542006492615	0.7583420276641846
243	278.26193499565125	response	0	j		241.0	/experiments/knapen_AOT/AOT_stimuli/pictures/0333_fw.png	455.87232208251953	
244	278.30337500572205	picture	0		110	242.0	/experiments/knapen_AOT/AOT_stimuli/pictures/0306_fw.png	455.91376209259033	0.9583108425140381
244	279.2119379043579	response	0	k		242.0	/experiments/knapen_AOT/AOT_stimuli/pictures/0306_fw.png	456.8223249912262	
245	279.2616858482361	picture	0		92	243.0	/experiments/knapen_AOT/AOT_stimuli/pictures/1281_fw.png	456.87207293510437	0.7929661273956299
245	280.0201539993286	response	0	j		243.0	/experiments/knapen_AOT/AOT_stimuli/pictures/1281_fw.png	457.6305410861969	
246	280.0546519756317	picture	0		82	244.0	/experiments/knapen_AOT/AOT_stimuli/pictures/0468_fw.png	457.6650390625	0.7154040336608887
246	280.7285249233246	response	0	k		244.0	/experiments/knapen_AOT/AOT_stimuli/pictures/0468_fw.png	458.33891201019287	
247	280.7700560092926	picture	0		91	245.0	/experiments/knapen_AOT/AOT_stimuli/pictures/1131_fw.png	458.3804430961609	0.7846128940582275
247	281.52022099494934	response	0	k		245.0	/experiments/knapen_AOT/AOT_stimuli/pictures/1131_fw.png	459.1306080818176	
248	281.55466890335083	picture	0		181	246.0	/experiments/knapen_AOT/AOT_stimuli/pictures/0447_fw.png	459.1650559902191	1.5403990745544434
248	283.05366587638855	response	0	j		246.0	/experiments/knapen_AOT/AOT_stimuli/pictures/0447_fw.png	460.66405296325684	
249	283.0950679779053	picture	0		319	247.0	/experiments/knapen_AOT/AOT_stimuli/pictures/1322_fw.png	460.70545506477356	2.709549903869629
249	285.7452549934387	response	0	j		247.0	/experiments/knapen_AOT/AOT_stimuli/pictures/1322_fw.png	463.355642080307	
250	285.8046178817749	picture	0		90	248.0	/experiments/knapen_AOT/AOT_stimuli/pictures/1258_fw.png	463.4150049686432	0.7822070121765137
250	286.5452768802643	response	0	j		248.0	/experiments/knapen_AOT/AOT_stimuli/pictures/1258_fw.png	464.15566396713257	
251	286.5868248939514	picture	0		108	249.0	/experiments/knapen_AOT/AOT_stimuli/pictures/0877_fw.png	464.1972119808197	0.9261069297790527
251	287.4786260128021	response	0	k		249.0	/experiments/knapen_AOT/AOT_stimuli/pictures/0877_fw.png	465.0890130996704	
252	287.51293182373047	picture	0		90	250.0	/experiments/knapen_AOT/AOT_stimuli/pictures/1850_fw.png	465.12331891059875	0.7821991443634033
252	288.25369095802307	response	0	k		250.0	/experiments/knapen_AOT/AOT_stimuli/pictures/1850_fw.png	465.86407804489136	
253	288.2951309680939	picture	0		82	251.0	/experiments/knapen_AOT/AOT_stimuli/pictures/1547_fw.png	465.90551805496216	0.7526700496673584
253	288.9635798931122	response	0	j		251.0	/experiments/knapen_AOT/AOT_stimuli/pictures/1547_fw.png	466.57396697998047	
254	289.04780101776123	picture	0		309	252.0	/experiments/knapen_AOT/AOT_stimuli/pictures/1443_fw.png	466.6581881046295	2.5974628925323486
254	291.6120569705963	response	0	k		252.0	/experiments/knapen_AOT/AOT_stimuli/pictures/1443_fw.png	469.2224440574646	
255	291.6452639102936	picture	0		102	253.0	/experiments/knapen_AOT/AOT_stimuli/pictures/0227_fw.png	469.25565099716187	0.8832530975341797
255	292.4871299266815	response	0	k		253.0	/experiments/knapen_AOT/AOT_stimuli/pictures/0227_fw.png	470.0975170135498	
256	292.52851700782776	picture	0		113	254.0	/experiments/knapen_AOT/AOT_stimuli/pictures/2078_fw.png	470.13890409469604	0.9705429077148438
256	293.46206998825073	response	0	j		254.0	/experiments/knapen_AOT/AOT_stimuli/pictures/2078_fw.png	471.072457075119	
257	293.4990599155426	picture	0		80	255.0	/experiments/knapen_AOT/AOT_stimuli/pictures/0874_fw.png	471.1094470024109	0.6878290176391602
257	294.1537959575653	response	0	j		255.0	/experiments/knapen_AOT/AOT_stimuli/pictures/0874_fw.png	471.7641830444336	
258	294.18688893318176	picture	0		93	256.0	/experiments/knapen_AOT/AOT_stimuli/pictures/2044_fw.png	471.79727602005005	0.8260979652404785
258	294.95385098457336	response	0	j		256.0	/experiments/knapen_AOT/AOT_stimuli/pictures/2044_fw.png	472.56423807144165	
259	295.01298689842224	picture	0		105	257.0	/experiments/knapen_AOT/AOT_stimuli/pictures/1996_fw.png	472.6233739852905	0.9156930446624756
259	295.87887501716614	response	0	j		257.0	/experiments/knapen_AOT/AOT_stimuli/pictures/1996_fw.png	473.4892621040344	
260	295.9286799430847	picture	0		115	258.0	/experiments/knapen_AOT/AOT_stimuli/pictures/1855_fw.png	473.539067029953	0.9871950149536133
260	296.8788969516754	response	0	j		258.0	/experiments/knapen_AOT/AOT_stimuli/pictures/1855_fw.png	474.4892840385437	
261	296.91587495803833	picture	0		87	259.0	/experiments/knapen_AOT/AOT_stimuli/pictures/0319_fw.png	474.5262620449066	0.7378759384155273
261	297.62882685661316	response	0	j		259.0	/experiments/knapen_AOT/AOT_stimuli/pictures/0319_fw.png	475.23921394348145	
262	297.65375089645386	picture	0		105	260.0	/experiments/knapen_AOT/AOT_stimuli/pictures/1384_fw.png	475.26413798332214	0.9165420532226562
262	298.52040791511536	response	0	j		260.0	/experiments/knapen_AOT/AOT_stimuli/pictures/1384_fw.png	476.13079500198364	
263	298.5702929496765	picture	0		170	261.0	/experiments/knapen_AOT/AOT_stimuli/pictures/1894_fw.png	476.1806800365448	1.449995994567871
263	299.9720377922058	response	0	j		261.0	/experiments/knapen_AOT/AOT_stimuli/pictures/1894_fw.png	477.5824248790741	
264	300.0202889442444	picture	0		115	262.0	/experiments/knapen_AOT/AOT_stimuli/pictures/1312_fw.png	477.63067603111267	0.9927618503570557
264	300.96369886398315	response	0	k		262.0	/experiments/knapen_AOT/AOT_stimuli/pictures/1312_fw.png	478.57408595085144	
265	301.01305079460144	picture	0		96	263.0	/experiments/knapen_AOT/AOT_stimuli/pictures/1971_fw.png	478.6234378814697	0.8333091735839844
265	301.8038058280945	response	0	k		263.0	/experiments/knapen_AOT/AOT_stimuli/pictures/1971_fw.png	479.41419291496277	
266	301.8463599681854	picture	0		108	264.0	/experiments/knapen_AOT/AOT_stimuli/pictures/0305_fw.png	479.4567470550537	0.9239718914031982
266	302.7372028827667	response	0	j		264.0	/experiments/knapen_AOT/AOT_stimuli/pictures/0305_fw.png	480.347589969635	
267	302.7703318595886	picture	0		135	265.0	/experiments/knapen_AOT/AOT_stimuli/pictures/0291_fw.png	480.3807189464569	1.1595721244812012
267	303.8872950077057	response	0	j		265.0	/experiments/knapen_AOT/AOT_stimuli/pictures/0291_fw.png	481.497682094574	
268	303.9299039840698	picture	0		125	266.0	/experiments/knapen_AOT/AOT_stimuli/pictures/1958_fw.png	481.5402910709381	1.090479850769043
268	304.95552587509155	response	0	k		266.0	/experiments/knapen_AOT/AOT_stimuli/pictures/1958_fw.png	482.56591296195984	
269	305.02038383483887	picture	0		94	267.0	/experiments/knapen_AOT/AOT_stimuli/pictures/1358_fw.png	482.63077092170715	0.8333191871643066
269	305.7955849170685	response	0	j		267.0	/experiments/knapen_AOT/AOT_stimuli/pictures/1358_fw.png	483.40597200393677	
270	305.8537030220032	picture	0		112	268.0	/experiments/knapen_AOT/AOT_stimuli/pictures/1863_fw.png	483.46409010887146	0.9583449363708496
270	306.77206802368164	response	0	j		268.0	/experiments/knapen_AOT/AOT_stimuli/pictures/1863_fw.png	484.3824551105499	
271	306.812047958374	picture	0		155	269.0	/experiments/knapen_AOT/AOT_stimuli/pictures/1511_fw.png	484.4224350452423	1.3250279426574707
271	308.0956058502197	response	0	k		269.0	/experiments/knapen_AOT/AOT_stimuli/pictures/1511_fw.png	485.705992937088	
272	308.1370759010315	picture	0		209	270.0	/experiments/knapen_AOT/AOT_stimuli/pictures/0629_fw.png	485.7474629878998	1.764991044998169
272	309.87061190605164	response	0	j		270.0	/experiments/knapen_AOT/AOT_stimuli/pictures/0629_fw.png	487.4809989929199	
273	309.90206694602966	picture	0		103	271.0	/experiments/knapen_AOT/AOT_stimuli/pictures/1219_fw.png	487.51245403289795	0.8934328556060791
273	310.754065990448	response	0	k		271.0	/experiments/knapen_AOT/AOT_stimuli/pictures/1219_fw.png	488.3644530773163	
274	310.79549980163574	picture	0		97	272.0	/experiments/knapen_AOT/AOT_stimuli/pictures/1415_fw.png	488.405886888504	0.8416070938110352
274	311.5958709716797	response	0	j		272.0	/experiments/knapen_AOT/AOT_stimuli/pictures/1415_fw.png	489.206258058548	
275	311.6371068954468	picture	0		157	273.0	/experiments/knapen_AOT/AOT_stimuli/pictures/0049_fw.png	489.24749398231506	1.4038100242614746
275	312.93738293647766	response	0	k		273.0	/experiments/knapen_AOT/AOT_stimuli/pictures/0049_fw.png	490.54777002334595	
276	313.04091691970825	picture	0		164	274.0	/experiments/knapen_AOT/AOT_stimuli/pictures/0327_fw.png	490.65130400657654	1.4212710857391357
276	314.3956849575043	response	0	j		274.0	/experiments/knapen_AOT/AOT_stimuli/pictures/0327_fw.png	492.00607204437256	
277	314.4621880054474	picture	0		79	275.0	/experiments/knapen_AOT/AOT_stimuli/pictures/0473_fw.png	492.0725750923157	0.6833078861236572
277	315.11243987083435	response	0	k		275.0	/experiments/knapen_AOT/AOT_stimuli/pictures/0473_fw.png	492.72282695770264	
278	315.14549589157104	picture	0		98	276.0	/experiments/knapen_AOT/AOT_stimuli/pictures/0664_fw.png	492.75588297843933	0.846782922744751
278	315.95416283607483	response	0	j		276.0	/experiments/knapen_AOT/AOT_stimuli/pictures/0664_fw.png	493.5645499229431	
279	315.9922788143158	picture	0		129	277.0	/experiments/knapen_AOT/AOT_stimuli/pictures/0053_fw.png	493.6026659011841	1.104248046875
279	317.06243991851807	response	0	j		277.0	/experiments/knapen_AOT/AOT_stimuli/pictures/0053_fw.png	494.67282700538635	
280	317.0965268611908	picture	0		209	278.0	/experiments/knapen_AOT/AOT_stimuli/pictures/0030_fw.png	494.7069139480591	1.7916090488433838
280	318.8291509151459	response	0	j		278.0	/experiments/knapen_AOT/AOT_stimuli/pictures/0030_fw.png	496.43953800201416	
281	318.8881359100342	picture	0		77	279.0	/experiments/knapen_AOT/AOT_stimuli/pictures/0808_fw.png	496.49852299690247	0.6907649040222168
281	319.52075695991516	response	0	j		279.0	/experiments/knapen_AOT/AOT_stimuli/pictures/0808_fw.png	497.13114404678345	
282	319.5789008140564	picture	0		87	280.0	/experiments/knapen_AOT/AOT_stimuli/pictures/0152_fw.png	497.1892879009247	0.7749850749969482
282	320.2957639694214	response	0	j		280.0	/experiments/knapen_AOT/AOT_stimuli/pictures/0152_fw.png	497.9061510562897	
283	320.35388588905334	picture	0		109	281.0	/experiments/knapen_AOT/AOT_stimuli/pictures/1817_fw.png	497.96427297592163	0.941723108291626
283	321.25410199165344	response	0	j		281.0	/experiments/knapen_AOT/AOT_stimuli/pictures/1817_fw.png	498.86448907852173	
284	321.29560899734497	picture	0		103	282.0	/experiments/knapen_AOT/AOT_stimuli/pictures/1825_fw.png	498.90599608421326	0.8917179107666016
284	322.14573979377747	response	0	j		282.0	/experiments/knapen_AOT/AOT_stimuli/pictures/1825_fw.png	499.75612688064575	
285	322.1873269081116	picture	0		94	283.0	/experiments/knapen_AOT/AOT_stimuli/pictures/0793_fw.png	499.79771399497986	0.8166220188140869
285	322.96256494522095	response	0	k		283.0	/experiments/knapen_AOT/AOT_stimuli/pictures/0793_fw.png	500.57295203208923	
286	323.00394892692566	picture	0		129	284.0	/experiments/knapen_AOT/AOT_stimuli/pictures/0537_fw.png	500.61433601379395	1.0999679565429688
286	324.0708158016205	response	0	k		284.0	/experiments/knapen_AOT/AOT_stimuli/pictures/0537_fw.png	501.68120288848877	
287	324.1039168834686	picture	0		136	285.0	/experiments/knapen_AOT/AOT_stimuli/pictures/1439_fw.png	501.7143039703369	1.1593480110168457
287	325.22915482521057	response	0	k		285.0	/experiments/knapen_AOT/AOT_stimuli/pictures/1439_fw.png	502.83954191207886	
288	325.2632648944855	picture	0		105	286.0	/experiments/knapen_AOT/AOT_stimuli/pictures/0192_fw.png	502.87365198135376	1.0573790073394775
288	326.1291399002075	response	0	k		286.0	/experiments/knapen_AOT/AOT_stimuli/pictures/0192_fw.png	503.7395269870758	
289	326.32064390182495	picture	0		84	287.0	/experiments/knapen_AOT/AOT_stimuli/pictures/0071_fw.png	503.93103098869324	0.7416789531707764
289	327.0126209259033	response	0	j		287.0	/experiments/knapen_AOT/AOT_stimuli/pictures/0071_fw.png	504.6230080127716	
290	327.0623228549957	picture	0		98	288.0	/experiments/knapen_AOT/AOT_stimuli/pictures/1975_fw.png	504.672709941864	0.833428144454956
290	327.870885848999	response	0	k		288.0	/experiments/knapen_AOT/AOT_stimuli/pictures/1975_fw.png	505.4812729358673	
291	327.8957509994507	picture	0		81	289.0	/experiments/knapen_AOT/AOT_stimuli/pictures/1707_fw.png	505.50613808631897	0.7082569599151611
291	328.56264996528625	response	0	j		289.0	/experiments/knapen_AOT/AOT_stimuli/pictures/1707_fw.png	506.17303705215454	
292	328.60400795936584	picture	0		107	290.0	/experiments/knapen_AOT/AOT_stimuli/pictures/1777_fw.png	506.21439504623413	0.9333319664001465
292	329.4876368045807	response	0	j		290.0	/experiments/knapen_AOT/AOT_stimuli/pictures/1777_fw.png	507.098023891449	
293	329.537339925766	picture	0		92	291.0	/experiments/knapen_AOT/AOT_stimuli/pictures/1621_fw.png	507.1477270126343	0.8084390163421631
293	330.29589796066284	response	0	j		291.0	/experiments/knapen_AOT/AOT_stimuli/pictures/1621_fw.png	507.9062850475311	
294	330.34577894210815	picture	0		195	292.0	/experiments/knapen_AOT/AOT_stimuli/pictures/1452_fw.png	507.95616602897644	1.6535818576812744
294	331.96270990371704	response	0	j		292.0	/experiments/knapen_AOT/AOT_stimuli/pictures/1452_fw.png	509.5730969905853	
295	331.99936079978943	picture	0		93	293.0	/experiments/knapen_AOT/AOT_stimuli/pictures/0362_fw.png	509.6097478866577	0.8055582046508789
295	332.76279401779175	response	0	k		293.0	/experiments/knapen_AOT/AOT_stimuli/pictures/0362_fw.png	510.37318110466003	
296	332.8049190044403	picture	0		85	294.0	/experiments/knapen_AOT/AOT_stimuli/pictures/0484_fw.png	510.4153060913086	0.7408449649810791
296	333.50427079200745	response	0	j		294.0	/experiments/knapen_AOT/AOT_stimuli/pictures/0484_fw.png	511.11465787887573	
297	333.5457639694214	picture	0		93	295.0	/experiments/knapen_AOT/AOT_stimuli/pictures/1435_fw.png	511.1561510562897	0.8286209106445312
297	334.31269884109497	response	0	j		295.0	/experiments/knapen_AOT/AOT_stimuli/pictures/1435_fw.png	511.92308592796326	
298	334.3743848800659	picture	0		175	296.0	/experiments/knapen_AOT/AOT_stimuli/pictures/0855_fw.png	511.9847719669342	1.504699945449829
298	335.8209419250488	response	0	j		296.0	/experiments/knapen_AOT/AOT_stimuli/pictures/0855_fw.png	513.4313290119171	
299	335.87908482551575	picture	0		77	297.0	/experiments/knapen_AOT/AOT_stimuli/pictures/1159_fw.png	513.489471912384	0.6689190864562988
299	336.5128149986267	response	0	j		297.0	/experiments/knapen_AOT/AOT_stimuli/pictures/1159_fw.png	514.123202085495	
300	336.54800391197205	picture	0		97	298.0	/experiments/knapen_AOT/AOT_stimuli/pictures/1687_fw.png	514.1583909988403	0.8334779739379883
300	337.3459849357605	response	0	k		298.0	/experiments/knapen_AOT/AOT_stimuli/pictures/1687_fw.png	514.9563720226288	
301	337.38148188591003	picture	0		158	299.0	/experiments/knapen_AOT/AOT_stimuli/pictures/2095_fw.png	514.9918689727783	1.3476510047912598
301	338.68777680397034	response	0	k		299.0	/experiments/knapen_AOT/AOT_stimuli/pictures/2095_fw.png	516.2981638908386	
302	338.7291328907013	picture	0		100	300.0	/experiments/knapen_AOT/AOT_stimuli/pictures/0945_fw.png	516.3395199775696	0.9092659950256348
302	339.57262992858887	response	0	j		300.0	/experiments/knapen_AOT/AOT_stimuli/pictures/0945_fw.png	517.1830170154572	
303	339.63839888572693	picture	0		95	301.0	/experiments/knapen_AOT/AOT_stimuli/pictures/0301_fw.png	517.2487859725952	0.8241500854492188
303	340.4210298061371	response	0	k		301.0	/experiments/knapen_AOT/AOT_stimuli/pictures/0301_fw.png	518.0314168930054	
304	340.46254897117615	picture	0		160	302.0	/experiments/knapen_AOT/AOT_stimuli/pictures/1705_fw.png	518.0729360580444	1.3666210174560547
304	341.7808859348297	response	0	j		302.0	/experiments/knapen_AOT/AOT_stimuli/pictures/1705_fw.png	519.391273021698	
305	341.8291699886322	picture	0		158	303.0	/experiments/knapen_AOT/AOT_stimuli/pictures/1335_fw.png	519.4395570755005	1.3500819206237793
305	343.1379029750824	response	0	j		303.0	/experiments/knapen_AOT/AOT_stimuli/pictures/1335_fw.png	520.7482900619507	
306	343.179251909256	picture	0		186	304.0	/experiments/knapen_AOT/AOT_stimuli/pictures/1799_fw.png	520.7896389961243	1.5833170413970947
306	344.72191095352173	response	0	k		304.0	/experiments/knapen_AOT/AOT_stimuli/pictures/1799_fw.png	522.33229804039	
307	344.7625689506531	picture	0		86	305.0	/experiments/knapen_AOT/AOT_stimuli/pictures/1508_fw.png	522.3729560375214	0.750053882598877
307	345.4710958003998	response	0	k		305.0	/experiments/knapen_AOT/AOT_stimuli/pictures/1508_fw.png	523.0814828872681	
308	345.51262283325195	picture	0		99	306.0	/experiments/knapen_AOT/AOT_stimuli/pictures/0641_fw.png	523.1230099201202	0.8582830429077148
308	346.3294539451599	response	0	j		306.0	/experiments/knapen_AOT/AOT_stimuli/pictures/0641_fw.png	523.9398410320282	
309	346.37090587615967	picture	0		102	307.0	/experiments/knapen_AOT/AOT_stimuli/pictures/1527_fw.png	523.981292963028	0.8833479881286621
309	347.21286487579346	response	0	j		307.0	/experiments/knapen_AOT/AOT_stimuli/pictures/1527_fw.png	524.8232519626617	
310	347.25425386428833	picture	0		88	308.0	/experiments/knapen_AOT/AOT_stimuli/pictures/1401_fw.png	524.8646409511566	0.8286659717559814
310	347.97275280952454	response	0	j		308.0	/experiments/knapen_AOT/AOT_stimuli/pictures/1401_fw.png	525.5831398963928	
311	348.0829198360443	picture	0		126	309.0	/experiments/knapen_AOT/AOT_stimuli/pictures/1062_fw.png	525.6933069229126	1.0797250270843506
311	349.12116980552673	response	0	k		309.0	/experiments/knapen_AOT/AOT_stimuli/pictures/1062_fw.png	526.731556892395	
312	349.16264486312866	picture	0		148	310.0	/experiments/knapen_AOT/AOT_stimuli/pictures/0361_fw.png	526.773031949997	1.2917349338531494
312	350.38099694252014	response	0	k		310.0	/experiments/knapen_AOT/AOT_stimuli/pictures/0361_fw.png	527.9913840293884	
313	350.4543797969818	picture	0		79	311.0	/experiments/knapen_AOT/AOT_stimuli/pictures/0498_fw.png	528.0647668838501	0.6915731430053711
313	351.10457396507263	response	0	j		311.0	/experiments/knapen_AOT/AOT_stimuli/pictures/0498_fw.png	528.7149610519409	
314	351.1459529399872	picture	0		98	312.0	/experiments/knapen_AOT/AOT_stimuli/pictures/1597_fw.png	528.7563400268555	0.8500099182128906
314	351.9545669555664	response	0	j		312.0	/experiments/knapen_AOT/AOT_stimuli/pictures/1597_fw.png	529.5649540424347	
315	351.9959628582001	picture	0		100	313.0	/experiments/knapen_AOT/AOT_stimuli/pictures/0801_fw.png	529.6063499450684	0.8584909439086914
315	352.8211419582367	response	0	j		313.0	/experiments/knapen_AOT/AOT_stimuli/pictures/0801_fw.png	530.431529045105	
316	352.85445380210876	picture	0		99	314.0	/experiments/knapen_AOT/AOT_stimuli/pictures/0816_fw.png	530.464840888977	0.8582429885864258
316	353.67123794555664	response	0	k		314.0	/experiments/knapen_AOT/AOT_stimuli/pictures/0816_fw.png	531.2816250324249	
317	353.7126967906952	picture	0		146	315.0	/experiments/knapen_AOT/AOT_stimuli/pictures/0250_fw.png	531.3230838775635	1.2452051639556885
317	354.9211947917938	response	0	k		315.0	/experiments/knapen_AOT/AOT_stimuli/pictures/0250_fw.png	532.5315818786621	
318	354.9579019546509	picture	0		164	316.0	/experiments/knapen_AOT/AOT_stimuli/pictures/0822_fw.png	532.5682890415192	1.4215660095214844
318	356.312992811203	response	0	k		316.0	/experiments/knapen_AOT/AOT_stimuli/pictures/0822_fw.png	533.9233798980713	
319	356.37946796417236	picture	0		130	317.0	/experiments/knapen_AOT/AOT_stimuli/pictures/1112_fw.png	533.9898550510406	1.1165740489959717
319	357.45458793640137	response	0	k		317.0	/experiments/knapen_AOT/AOT_stimuli/pictures/1112_fw.png	535.0649750232697	
320	357.49604201316833	picture	0		140	318.0	/experiments/knapen_AOT/AOT_stimuli/pictures/1089_fw.png	535.1064291000366	1.2167267799377441
320	358.6546139717102	response	0	k		318.0	/experiments/knapen_AOT/AOT_stimuli/pictures/1089_fw.png	536.2650010585785	
321	358.7127687931061	picture	0		217	319.0	/experiments/knapen_AOT/AOT_stimuli/pictures/1742_fw.png	536.3231558799744	1.842367172241211
321	360.5130548477173	response	0	k		319.0	/experiments/knapen_AOT/AOT_stimuli/pictures/1742_fw.png	538.1234419345856	
322	360.5551359653473	picture	0		442	320.0	/experiments/knapen_AOT/AOT_stimuli/pictures/0100_fw.png	538.1655230522156	3.7327089309692383
322	364.22970700263977	response	0	k		320.0	/experiments/knapen_AOT/AOT_stimuli/pictures/0100_fw.png	541.840094089508	
323	364.2878448963165	picture	0		86	321.0	/experiments/knapen_AOT/AOT_stimuli/pictures/0850_fw.png	541.8982319831848	0.7464981079101562
323	364.9897048473358	response	0	j		321.0	/experiments/knapen_AOT/AOT_stimuli/pictures/0850_fw.png	542.6000919342041	
324	365.0343430042267	picture	0		73	322.0	/experiments/knapen_AOT/AOT_stimuli/pictures/1741_fw.png	542.644730091095	0.6452019214630127
324	365.6387269496918	response	0	j		322.0	/experiments/knapen_AOT/AOT_stimuli/pictures/1741_fw.png	543.2491140365601	
325	365.6795449256897	picture	0		81	323.0	/experiments/knapen_AOT/AOT_stimuli/pictures/1469_fw.png	543.289932012558	0.708327054977417
325	366.347119808197	response	0	j		323.0	/experiments/knapen_AOT/AOT_stimuli/pictures/1469_fw.png	543.9575068950653	
326	366.3878719806671	picture	0		116	324.0	/experiments/knapen_AOT/AOT_stimuli/pictures/1460_fw.png	543.9982590675354	0.9999568462371826
326	367.34645891189575	response	0	j		324.0	/experiments/knapen_AOT/AOT_stimuli/pictures/1460_fw.png	544.956845998764	
327	367.3878288269043	picture	0		174	325.0	/experiments/knapen_AOT/AOT_stimuli/pictures/0238_fw.png	544.9982159137726	1.491729974746704
327	368.82966780662537	response	0	k		325.0	/experiments/knapen_AOT/AOT_stimuli/pictures/0238_fw.png	546.4400548934937	
328	368.879558801651	picture	0		252	326.0	/experiments/knapen_AOT/AOT_stimuli/pictures/0529_fw.png	546.4899458885193	2.133993148803711
328	370.96483182907104	response	0	k		326.0	/experiments/knapen_AOT/AOT_stimuli/pictures/0529_fw.png	548.5752189159393	
329	371.0135519504547	picture	0		69	327.0	/experiments/knapen_AOT/AOT_stimuli/pictures/1500_fw.png	548.623939037323	0.5910549163818359
329	371.57305097579956	response	0	k		327.0	/experiments/knapen_AOT/AOT_stimuli/pictures/1500_fw.png	549.1834380626678	
330	371.60460686683655	picture	0		234	328.0	/experiments/knapen_AOT/AOT_stimuli/pictures/0095_fw.png	549.2149939537048	2.083390951156616
330	373.54646396636963	response	0	k		328.0	/experiments/knapen_AOT/AOT_stimuli/pictures/0095_fw.png	551.1568510532379	
331	373.68799781799316	picture	0		103	329.0	/experiments/knapen_AOT/AOT_stimuli/pictures/0317_fw.png	551.2983849048615	0.8916041851043701
331	374.5381438732147	response	0	j		329.0	/experiments/knapen_AOT/AOT_stimuli/pictures/0317_fw.png	552.148530960083	
332	374.57960200309753	picture	0		76	330.0	/experiments/knapen_AOT/AOT_stimuli/pictures/0696_fw.png	552.1899890899658	0.6770617961883545
332	375.1980128288269	response	0	j		330.0	/experiments/knapen_AOT/AOT_stimuli/pictures/0696_fw.png	552.8083999156952	
333	375.2566637992859	picture	0		103	331.0	/experiments/knapen_AOT/AOT_stimuli/pictures/0090_fw.png	552.8670508861542	0.8896431922912598
333	376.1047658920288	response	0	j		331.0	/experiments/knapen_AOT/AOT_stimuli/pictures/0090_fw.png	553.7151529788971	
334	376.14630699157715	picture	0		87	332.0	/experiments/knapen_AOT/AOT_stimuli/pictures/0900_fw.png	553.7566940784454	0.758328914642334
334	376.8631238937378	response	0	j		332.0	/experiments/knapen_AOT/AOT_stimuli/pictures/0900_fw.png	554.4735109806061	
335	376.9046359062195	picture	0		103	333.0	/experiments/knapen_AOT/AOT_stimuli/pictures/0798_fw.png	554.5150229930878	0.8867409229278564
335	377.75483679771423	response	0	j		333.0	/experiments/knapen_AOT/AOT_stimuli/pictures/0798_fw.png	555.3652238845825	
336	377.79137682914734	picture	0		126	334.0	/experiments/knapen_AOT/AOT_stimuli/pictures/2129_fw.png	555.4017639160156	1.0883569717407227
336	378.8298017978668	response	0	k		334.0	/experiments/knapen_AOT/AOT_stimuli/pictures/2129_fw.png	556.4401888847351	
337	378.87973380088806	picture	0		120	335.0	/experiments/knapen_AOT/AOT_stimuli/pictures/2060_fw.png	556.4901208877563	1.0297482013702393
337	379.87159490585327	response	0	k		335.0	/experiments/knapen_AOT/AOT_stimuli/pictures/2060_fw.png	557.4819819927216	
338	379.9094820022583	picture	0		243	336.0	/experiments/knapen_AOT/AOT_stimuli/pictures/1699_fw.png	557.5198690891266	2.061915874481201
338	381.9305408000946	response	0	j		336.0	/experiments/knapen_AOT/AOT_stimuli/pictures/1699_fw.png	559.5409278869629	
339	381.9713978767395	picture	0		100	337.0	/experiments/knapen_AOT/AOT_stimuli/pictures/0412_fw.png	559.5817849636078	0.8750050067901611
339	382.789776802063	response	0	k		337.0	/experiments/knapen_AOT/AOT_stimuli/pictures/0412_fw.png	560.4001638889313	
340	382.84640288352966	picture	0		100	338.0	/experiments/knapen_AOT/AOT_stimuli/pictures/0304_fw.png	560.456789970398	0.8895790576934814
340	383.6716818809509	response	0	j		338.0	/experiments/knapen_AOT/AOT_stimuli/pictures/0304_fw.png	561.2820689678192	
341	383.73598194122314	picture	0		116	339.0	/experiments/knapen_AOT/AOT_stimuli/pictures/1965_fw.png	561.3463690280914	1.0137979984283447
341	384.6966998577118	response	0	k		339.0	/experiments/knapen_AOT/AOT_stimuli/pictures/1965_fw.png	562.3070869445801	
342	384.7497799396515	picture	0		724	340.0	/experiments/knapen_AOT/AOT_stimuli/pictures/0478_fw.png	562.3601670265198	6.083404064178467
342	390.76545882225037	response	0	k		340.0	/experiments/knapen_AOT/AOT_stimuli/pictures/0478_fw.png	568.3758459091187	
343	390.83318400382996	picture	0		86	341.0	/experiments/knapen_AOT/AOT_stimuli/pictures/1749_fw.png	568.4435710906982	0.7638638019561768
343	391.5383188724518	response	0	k		341.0	/experiments/knapen_AOT/AOT_stimuli/pictures/1749_fw.png	569.1487059593201	
344	391.59704780578613	picture	0		108	342.0	/experiments/knapen_AOT/AOT_stimuli/pictures/1033_fw.png	569.2074348926544	0.9307000637054443
344	392.4883608818054	response	0	k		342.0	/experiments/knapen_AOT/AOT_stimuli/pictures/1033_fw.png	570.0987479686737	
345	392.5277478694916	picture	0		99	343.0	/experiments/knapen_AOT/AOT_stimuli/pictures/0697_fw.png	570.1381349563599	0.8604321479797363
345	393.3472979068756	response	0	k		343.0	/experiments/knapen_AOT/AOT_stimuli/pictures/0697_fw.png	570.9576849937439	
346	393.3881800174713	picture	0		110	344.0	/experiments/knapen_AOT/AOT_stimuli/pictures/2093_fw.png	570.9985671043396	0.9416868686676025
346	394.29678297042847	response	0	k		344.0	/experiments/knapen_AOT/AOT_stimuli/pictures/2093_fw.png	571.9071700572968	
347	394.3298668861389	picture	0		105	345.0	/experiments/knapen_AOT/AOT_stimuli/pictures/1423_fw.png	571.9402539730072	0.9062011241912842
347	395.19012689590454	response	0	k		345.0	/experiments/knapen_AOT/AOT_stimuli/pictures/1423_fw.png	572.8005139827728	
348	395.2360680103302	picture	0		218	346.0	/experiments/knapen_AOT/AOT_stimuli/pictures/1193_fw.png	572.8464550971985	1.8522388935089111
348	397.04685401916504	response	0	j		346.0	/experiments/knapen_AOT/AOT_stimuli/pictures/1193_fw.png	574.6572411060333	
349	397.0883069038391	picture	0		92	347.0	/experiments/knapen_AOT/AOT_stimuli/pictures/0827_fw.png	574.6986939907074	0.9332599639892578
349	397.84722685813904	response	0	k		347.0	/experiments/knapen_AOT/AOT_stimuli/pictures/0827_fw.png	575.4576139450073	
350	398.02156686782837	picture	0		96	348.0	/experiments/knapen_AOT/AOT_stimuli/pictures/0024_fw.png	575.6319539546967	0.8333871364593506
350	398.8135039806366	response	0	j		348.0	/experiments/knapen_AOT/AOT_stimuli/pictures/0024_fw.png	576.4238910675049	
351	398.8549540042877	picture	0		173	349.0	/experiments/knapen_AOT/AOT_stimuli/pictures/1782_fw.png	576.465341091156	1.4666948318481445
351	400.28851079940796	response	0	k		349.0	/experiments/knapen_AOT/AOT_stimuli/pictures/1782_fw.png	577.8988978862762	
352	400.32164883613586	picture	0		247	350.0	/experiments/knapen_AOT/AOT_stimuli/pictures/1708_fw.png	577.9320359230042	2.0916919708251953
352	402.3651249408722	response	0	j		350.0	/experiments/knapen_AOT/AOT_stimuli/pictures/1708_fw.png	579.9755120277405	
353	402.41334080696106	picture	0		93	351.0	/experiments/knapen_AOT/AOT_stimuli/pictures/2079_fw.png	580.0237278938293	0.8083221912384033
353	403.1734387874603	response	0	k		351.0	/experiments/knapen_AOT/AOT_stimuli/pictures/2079_fw.png	580.7838258743286	
354	403.22166299819946	picture	0		538	352.0	/experiments/knapen_AOT/AOT_stimuli/pictures/1854_fw.png	580.8320500850677	4.5167248249053955
354	407.6970019340515	response	0	k		352.0	/experiments/knapen_AOT/AOT_stimuli/pictures/1854_fw.png	585.3073890209198	
355	407.73838782310486	picture	0		111	353.0	/experiments/knapen_AOT/AOT_stimuli/pictures/0329_fw.png	585.3487749099731	0.9768800735473633
355	408.6552369594574	response	0	k		353.0	/experiments/knapen_AOT/AOT_stimuli/pictures/0329_fw.png	586.2656240463257	
356	408.7152678966522	picture	0		90	354.0	/experiments/knapen_AOT/AOT_stimuli/pictures/1724_fw.png	586.3256549835205	0.7814679145812988
356	409.45529079437256	response	0	k		354.0	/experiments/knapen_AOT/AOT_stimuli/pictures/1724_fw.png	587.0656778812408	
357	409.4967358112335	picture	0		88	355.0	/experiments/knapen_AOT/AOT_stimuli/pictures/0717_fw.png	587.1071228981018	0.77500319480896
357	410.22231888771057	response	0	k		355.0	/experiments/knapen_AOT/AOT_stimuli/pictures/0717_fw.png	587.8327059745789	
358	410.2717390060425	picture	0		232	356.0	/experiments/knapen_AOT/AOT_stimuli/pictures/2045_fw.png	587.8821260929108	1.9667768478393555
358	412.1902139186859	response	0	k		356.0	/experiments/knapen_AOT/AOT_stimuli/pictures/2045_fw.png	589.8006010055542	
359	412.23851585388184	picture	0		183	357.0	/experiments/knapen_AOT/AOT_stimuli/pictures/0581_fw.png	589.8489029407501	1.567044973373413
359	413.75530791282654	response	0	k		357.0	/experiments/knapen_AOT/AOT_stimuli/pictures/0581_fw.png	591.3656949996948	
360	413.80556082725525	picture	0		180	358.0	/experiments/knapen_AOT/AOT_stimuli/pictures/1593_fw.png	591.4159479141235	1.5162620544433594
360	415.297070980072	response	0	k		358.0	/experiments/knapen_AOT/AOT_stimuli/pictures/1593_fw.png	592.9074580669403	
361	415.3218228816986	picture	0		104	359.0	/experiments/knapen_AOT/AOT_stimuli/pictures/0488_fw.png	592.9322099685669	0.9005000591278076
361	416.1736259460449	response	0	j		359.0	/experiments/knapen_AOT/AOT_stimuli/pictures/0488_fw.png	593.7840130329132	
362	416.2223229408264	stim	0		385			593.8327100276947	3.236063003540039
362	419.42209482192993	response	0	space				597.0324819087982	
