trial_nr	onset	event_type	phase	response	nr_frames	picture_index	picture_file	onset_abs	duration
0	0.17333555221557617	stim	0		1148			82.3856291770935	9.613834619522095
0	5.178962469100952	response	0	j				87.39125609397888	
0	9.76242733001709	response	0	space				91.97472095489502	
2	9.787170171737671	picture	0		232	0.0	/experiments/Knapen_AOT/AOT_stimuli/pictures/0873_fw.png	91.9994637966156	1.9500582218170166
2	11.717348575592041	response	0	j		0.0	/experiments/Knapen_AOT/AOT_stimuli/pictures/0873_fw.png	93.92964220046997	
3	11.737228393554688	picture	0		138	1.0	/experiments/Knapen_AOT/AOT_stimuli/pictures/1137_fw.png	93.94952201843262	1.1583869457244873
3	12.887320518493652	response	0	k		1.0	/experiments/Knapen_AOT/AOT_stimuli/pictures/1137_fw.png	95.09961414337158	
4	12.895615339279175	picture	0		80	2.0	/experiments/Knapen_AOT/AOT_stimuli/pictures/0155_fw.png	95.1079089641571	0.6748275756835938
4	13.554195642471313	response	0	j		2.0	/experiments/Knapen_AOT/AOT_stimuli/pictures/0155_fw.png	95.76648926734924	
5	13.570442914962769	picture	0		142	3.0	/experiments/Knapen_AOT/AOT_stimuli/pictures/0998_fw.png	95.7827365398407	1.1862940788269043
5	14.745657205581665	response	0	k		3.0	/experiments/Knapen_AOT/AOT_stimuli/pictures/0998_fw.png	96.9579508304596	
6	14.756736993789673	picture	0		83	4.0	/experiments/Knapen_AOT/AOT_stimuli/pictures/0348_fw.png	96.9690306186676	0.6944766044616699
6	15.437325239181519	response	0	j		4.0	/experiments/Knapen_AOT/AOT_stimuli/pictures/0348_fw.png	97.64961886405945	
7	15.451213598251343	picture	0		133	5.0	/experiments/Knapen_AOT/AOT_stimuli/pictures/1207_fw.png	97.66350722312927	1.1110687255859375
7	16.547210216522217	response	0	k		5.0	/experiments/Knapen_AOT/AOT_stimuli/pictures/1207_fw.png	98.75950384140015	
8	16.56228232383728	picture	0		130	6.0	/experiments/Knapen_AOT/AOT_stimuli/pictures/1788_fw.png	98.77457594871521	1.0833656787872314
8	17.637345552444458	response	0	k		6.0	/experiments/Knapen_AOT/AOT_stimuli/pictures/1788_fw.png	99.84963917732239	
9	17.64564800262451	picture	0		79	7.0	/experiments/Knapen_AOT/AOT_stimuli/pictures/0906_fw.png	99.85794162750244	0.6597037315368652
9	18.295743227005005	response	0	j		7.0	/experiments/Knapen_AOT/AOT_stimuli/pictures/0906_fw.png	100.50803685188293	
10	18.305351734161377	picture	0		73	8.0	/experiments/Knapen_AOT/AOT_stimuli/pictures/2124_fw.png	100.5176453590393	0.6151828765869141
10	18.904093503952026	response	0	j		8.0	/experiments/Knapen_AOT/AOT_stimuli/pictures/2124_fw.png	101.11638712882996	
11	18.92053461074829	picture	0		99	9.0	/experiments/Knapen_AOT/AOT_stimuli/pictures/0167_fw.png	101.13282823562622	0.8292942047119141
11	19.737344980239868	response	0	j		9.0	/experiments/Knapen_AOT/AOT_stimuli/pictures/0167_fw.png	101.9496386051178	
12	19.749828815460205	picture	0		101	10.0	/experiments/Knapen_AOT/AOT_stimuli/pictures/0988_fw.png	101.96212244033813	0.8403027057647705
12	20.5790536403656	response	0	j		10.0	/experiments/Knapen_AOT/AOT_stimuli/pictures/0988_fw.png	102.79134726524353	
13	20.590131521224976	picture	0		120	11.0	/experiments/Knapen_AOT/AOT_stimuli/pictures/0502_fw.png	102.8024251461029	0.9999904632568359
13	21.57904577255249	response	0	j		11.0	/experiments/Knapen_AOT/AOT_stimuli/pictures/0502_fw.png	103.79133939743042	
14	21.59012198448181	picture	0		74	12.0	/experiments/Knapen_AOT/AOT_stimuli/pictures/1857_fw.png	103.80241560935974	0.6221358776092529
14	22.19571614265442	response	0	j		12.0	/experiments/Knapen_AOT/AOT_stimuli/pictures/1857_fw.png	104.40800976753235	
15	22.212257862091064	picture	0		100	13.0	/experiments/Knapen_AOT/AOT_stimuli/pictures/2050_fw.png	104.424551486969	0.8416376113891602
15	23.037456035614014	response	0	k		13.0	/experiments/Knapen_AOT/AOT_stimuli/pictures/2050_fw.png	105.24974966049194	
16	23.053895473480225	picture	0		148	14.0	/experiments/Knapen_AOT/AOT_stimuli/pictures/0218_fw.png	105.26618909835815	1.2376377582550049
16	24.279091119766235	response	0	k		14.0	/experiments/Knapen_AOT/AOT_stimuli/pictures/0218_fw.png	106.49138474464417	
17	24.29153323173523	picture	0		90	15.0	/experiments/Knapen_AOT/AOT_stimuli/pictures/0819_fw.png	106.50382685661316	0.7623722553253174
17	25.037413120269775	response	0	j		15.0	/experiments/Knapen_AOT/AOT_stimuli/pictures/0819_fw.png	107.2497067451477	
18	25.053905487060547	picture	0		91	16.0	/experiments/Knapen_AOT/AOT_stimuli/pictures/0365_fw.png	107.26619911193848	0.7585010528564453
18	25.80414080619812	response	0	j		16.0	/experiments/Knapen_AOT/AOT_stimuli/pictures/0365_fw.png	108.01643443107605	
19	25.812406539916992	picture	0		91	17.0	/experiments/Knapen_AOT/AOT_stimuli/pictures/1833_fw.png	108.02470016479492	0.7638685703277588
19	26.562618494033813	response	0	j		17.0	/experiments/Knapen_AOT/AOT_stimuli/pictures/1833_fw.png	108.77491211891174	
20	26.57627511024475	picture	0		71	18.0	/experiments/Knapen_AOT/AOT_stimuli/pictures/1278_fw.png	108.78856873512268	0.6027154922485352
20	27.154964208602905	response	0	j		18.0	/experiments/Knapen_AOT/AOT_stimuli/pictures/1278_fw.png	109.36725783348083	
21	27.178990602493286	picture	0		350	19.0	/experiments/Knapen_AOT/AOT_stimuli/pictures/0933_fw.png	109.39128422737122	2.9181339740753174
21	30.08748197555542	response	0	k		19.0	/experiments/Knapen_AOT/AOT_stimuli/pictures/0933_fw.png	112.29977560043335	
22	30.097124576568604	picture	0		147	20.0	/experiments/Knapen_AOT/AOT_stimuli/pictures/0060_fw.png	112.30941820144653	1.229184865951538
22	31.312523126602173	response	0	k		20.0	/experiments/Knapen_AOT/AOT_stimuli/pictures/0060_fw.png	113.5248167514801	
23	31.32630944252014	picture	0		130	21.0	/experiments/Knapen_AOT/AOT_stimuli/pictures/0605_fw.png	113.53860306739807	1.0945327281951904
23	32.40434694290161	response	0	k		21.0	/experiments/Knapen_AOT/AOT_stimuli/pictures/0605_fw.png	114.61664056777954	
24	32.42084217071533	picture	0		519	22.0	/experiments/Knapen_AOT/AOT_stimuli/pictures/2066_fw.png	114.63313579559326	4.333219289779663
24	36.737569093704224	response	0	k		22.0	/experiments/Knapen_AOT/AOT_stimuli/pictures/2066_fw.png	118.94986271858215	
25	36.754061460494995	picture	0		217	23.0	/experiments/Knapen_AOT/AOT_stimuli/pictures/0737_fw.png	118.96635508537292	1.808377981185913
25	38.54692339897156	response	0	j		23.0	/experiments/Knapen_AOT/AOT_stimuli/pictures/0737_fw.png	120.75921702384949	
26	38.56243944168091	picture	0		111	24.0	/experiments/Knapen_AOT/AOT_stimuli/pictures/0763_fw.png	120.77473306655884	0.9333031177520752
26	39.479347229003906	response	0	k		24.0	/experiments/Knapen_AOT/AOT_stimuli/pictures/0763_fw.png	121.69164085388184	
27	39.49574255943298	picture	0		131	25.0	/experiments/Knapen_AOT/AOT_stimuli/pictures/1360_fw.png	121.70803618431091	1.0945351123809814
27	40.57927918434143	response	0	k		25.0	/experiments/Knapen_AOT/AOT_stimuli/pictures/1360_fw.png	122.79157280921936	
28	40.590277671813965	picture	0		90	26.0	/experiments/Knapen_AOT/AOT_stimuli/pictures/1896_fw.png	122.8025712966919	0.7499783039093018
28	41.32923078536987	response	0	j		26.0	/experiments/Knapen_AOT/AOT_stimuli/pictures/1896_fw.png	123.5415244102478	
29	41.34025597572327	picture	0		85	27.0	/experiments/Knapen_AOT/AOT_stimuli/pictures/1247_fw.png	123.5525496006012	0.7083301544189453
29	42.03760552406311	response	0	j		27.0	/experiments/Knapen_AOT/AOT_stimuli/pictures/1247_fw.png	124.24989914894104	
30	42.04858613014221	picture	0		99	28.0	/experiments/Knapen_AOT/AOT_stimuli/pictures/0142_fw.png	124.26087975502014	0.8264050483703613
30	42.86256289482117	response	0	k		28.0	/experiments/Knapen_AOT/AOT_stimuli/pictures/0142_fw.png	125.0748565196991	
31	42.87499117851257	picture	0		108	29.0	/experiments/Knapen_AOT/AOT_stimuli/pictures/0529_fw.png	125.0872848033905	0.904144287109375
31	43.755553007125854	response	0	k		29.0	/experiments/Knapen_AOT/AOT_stimuli/pictures/0529_fw.png	125.96784663200378	
32	43.77913546562195	picture	0		118	30.0	/experiments/Knapen_AOT/AOT_stimuli/pictures/1627_fw.png	125.99142909049988	0.9848027229309082
32	44.74685835838318	response	0	j		30.0	/experiments/Knapen_AOT/AOT_stimuli/pictures/1627_fw.png	126.95915198326111	
33	44.763938188552856	picture	0		131	31.0	/experiments/Knapen_AOT/AOT_stimuli/pictures/0743_fw.png	126.97623181343079	1.0985524654388428
33	45.84601879119873	response	0	k		31.0	/experiments/Knapen_AOT/AOT_stimuli/pictures/0743_fw.png	128.05831241607666	
34	45.8624906539917	picture	0		73	32.0	/experiments/Knapen_AOT/AOT_stimuli/pictures/0160_fw.png	128.07478427886963	0.6097531318664551
34	46.46274018287659	response	0	j		32.0	/experiments/Knapen_AOT/AOT_stimuli/pictures/0160_fw.png	128.67503380775452	
35	46.472243785858154	picture	0		88	33.0	/experiments/Knapen_AOT/AOT_stimuli/pictures/1733_fw.png	128.68453741073608	0.7361109256744385
35	47.196041107177734	response	0	k		33.0	/experiments/Knapen_AOT/AOT_stimuli/pictures/1733_fw.png	129.40833473205566	
36	47.20835471153259	picture	0		82	34.0	/experiments/Knapen_AOT/AOT_stimuli/pictures/0910_fw.png	129.42064833641052	0.6805639266967773
36	47.87950563430786	response	0	k		34.0	/experiments/Knapen_AOT/AOT_stimuli/pictures/0910_fw.png	130.0917992591858	
37	47.88891863822937	picture	0		131	35.0	/experiments/Knapen_AOT/AOT_stimuli/pictures/0063_fw.png	130.1012122631073	1.0903046131134033
37	48.971025466918945	response	0	k		35.0	/experiments/Knapen_AOT/AOT_stimuli/pictures/0063_fw.png	131.18331909179688	
38	48.97922325134277	picture	0		71	36.0	/experiments/Knapen_AOT/AOT_stimuli/pictures/1297_fw.png	131.1915168762207	0.5999937057495117
38	49.562809228897095	response	0	j		36.0	/experiments/Knapen_AOT/AOT_stimuli/pictures/1297_fw.png	131.77510285377502	
39	49.579216957092285	picture	0		71	37.0	/experiments/Knapen_AOT/AOT_stimuli/pictures/0120_fw.png	131.79151058197021	0.5945172309875488
39	50.162840843200684	response	0	j		37.0	/experiments/Knapen_AOT/AOT_stimuli/pictures/0120_fw.png	132.3751344680786	
40	50.173734188079834	picture	0		87	38.0	/experiments/Knapen_AOT/AOT_stimuli/pictures/1846_fw.png	132.38602781295776	0.7221629619598389
40	50.887693881988525	response	0	k		38.0	/experiments/Knapen_AOT/AOT_stimuli/pictures/1846_fw.png	133.09998750686646	
41	50.89589715003967	picture	0		231	39.0	/experiments/Knapen_AOT/AOT_stimuli/pictures/0849_fw.png	133.1081907749176	1.930572748184204
41	52.81277322769165	response	0	k		39.0	/experiments/Knapen_AOT/AOT_stimuli/pictures/0849_fw.png	135.02506685256958	
42	52.82646989822388	picture	0		73	40.0	/experiments/Knapen_AOT/AOT_stimuli/pictures/1313_fw.png	135.0387635231018	0.6111204624176025
42	53.42945122718811	response	0	j		40.0	/experiments/Knapen_AOT/AOT_stimuli/pictures/1313_fw.png	135.64174485206604	
43	53.43759036064148	picture	0		107	41.0	/experiments/Knapen_AOT/AOT_stimuli/pictures/1562_fw.png	135.6498839855194	0.9000413417816162
43	54.321176290512085	response	0	k		41.0	/experiments/Knapen_AOT/AOT_stimuli/pictures/1562_fw.png	136.53346991539001	
44	54.337631702423096	picture	0		88	42.0	/experiments/Knapen_AOT/AOT_stimuli/pictures/0383_fw.png	136.54992532730103	0.7388355731964111
44	55.062840938568115	response	0	j		42.0	/experiments/Knapen_AOT/AOT_stimuli/pictures/0383_fw.png	137.27513456344604	
45	55.07646727561951	picture	0		104	43.0	/experiments/Knapen_AOT/AOT_stimuli/pictures/0406_fw.png	137.28876090049744	0.8750185966491699
45	55.93784475326538	response	0	k		43.0	/experiments/Knapen_AOT/AOT_stimuli/pictures/0406_fw.png	138.1501383781433	
46	55.95148587226868	picture	0		75	44.0	/experiments/Knapen_AOT/AOT_stimuli/pictures/0965_fw.png	138.1637794971466	0.631969690322876
46	56.571209192276	response	0	j		44.0	/experiments/Knapen_AOT/AOT_stimuli/pictures/0965_fw.png	138.78350281715393	
47	56.58345556259155	picture	0		75	45.0	/experiments/Knapen_AOT/AOT_stimuli/pictures/0604_fw.png	138.79574918746948	0.6249771118164062
47	57.19616723060608	response	0	j		45.0	/experiments/Knapen_AOT/AOT_stimuli/pictures/0604_fw.png	139.408460855484	
48	57.20843267440796	picture	0		176	46.0	/experiments/Knapen_AOT/AOT_stimuli/pictures/0500_fw.png	139.4207262992859	1.4709112644195557
48	58.66290998458862	response	0	j		46.0	/experiments/Knapen_AOT/AOT_stimuli/pictures/0500_fw.png	140.87520360946655	
49	58.679343938827515	picture	0		323	47.0	/experiments/Knapen_AOT/AOT_stimuli/pictures/0800_fw.png	140.89163756370544	2.69577956199646
49	61.36290621757507	response	0	j		47.0	/experiments/Knapen_AOT/AOT_stimuli/pictures/0800_fw.png	143.575199842453	
50	61.375123500823975	picture	0		103	48.0	/experiments/Knapen_AOT/AOT_stimuli/pictures/0704_fw.png	143.5874171257019	0.8542094230651855
50	62.22122001647949	response	0	k		48.0	/experiments/Knapen_AOT/AOT_stimuli/pictures/0704_fw.png	144.43351364135742	
51	62.22933292388916	picture	0		102	49.0	/experiments/Knapen_AOT/AOT_stimuli/pictures/0890_fw.png	144.4416265487671	0.8541288375854492
51	63.07121467590332	response	0	k		49.0	/experiments/Knapen_AOT/AOT_stimuli/pictures/0890_fw.png	145.28350830078125	
52	63.08346176147461	picture	0		166	50.0	/experiments/Knapen_AOT/AOT_stimuli/pictures/0067_fw.png	145.29575538635254	1.387634515762329
52	64.45484733581543	response	0	k		50.0	/experiments/Knapen_AOT/AOT_stimuli/pictures/0067_fw.png	146.66714096069336	
53	64.47109627723694	picture	0		175	51.0	/experiments/Knapen_AOT/AOT_stimuli/pictures/0671_fw.png	146.68338990211487	1.4596035480499268
53	65.92153596878052	response	0	k		51.0	/experiments/Knapen_AOT/AOT_stimuli/pictures/0671_fw.png	148.13382959365845	
54	65.93069982528687	picture	0		88	52.0	/experiments/Knapen_AOT/AOT_stimuli/pictures/0544_fw.png	148.1429934501648	0.7403771877288818
54	66.65458655357361	response	0	k		52.0	/experiments/Knapen_AOT/AOT_stimuli/pictures/0544_fw.png	148.86688017845154	
55	66.67107701301575	picture	0		83	53.0	/experiments/Knapen_AOT/AOT_stimuli/pictures/2000_fw.png	148.88337063789368	0.6971614360809326
55	67.35481667518616	response	0	j		53.0	/experiments/Knapen_AOT/AOT_stimuli/pictures/2000_fw.png	149.5671103000641	
56	67.36823844909668	picture	0		216	54.0	/experiments/Knapen_AOT/AOT_stimuli/pictures/1534_fw.png	149.5805320739746	1.811227560043335
56	69.16306614875793	response	0	j		54.0	/experiments/Knapen_AOT/AOT_stimuli/pictures/1534_fw.png	151.37535977363586	
57	69.17946600914001	picture	0		94	55.0	/experiments/Knapen_AOT/AOT_stimuli/pictures/1720_fw.png	151.39175963401794	0.7859807014465332
57	69.95489239692688	response	0	j		55.0	/experiments/Knapen_AOT/AOT_stimuli/pictures/1720_fw.png	152.1671860218048	
58	69.96544671058655	picture	0		196	56.0	/experiments/Knapen_AOT/AOT_stimuli/pictures/1136_fw.png	152.17774033546448	1.6390361785888672
58	71.58800339698792	response	0	k		56.0	/experiments/Knapen_AOT/AOT_stimuli/pictures/1136_fw.png	153.80029702186584	
59	71.60448288917542	picture	0		103	57.0	/experiments/Knapen_AOT/AOT_stimuli/pictures/1529_fw.png	153.81677651405334	0.8666586875915527
59	72.45469093322754	response	0	k		57.0	/experiments/Knapen_AOT/AOT_stimuli/pictures/1529_fw.png	154.66698455810547	
60	72.47114157676697	picture	0		158	58.0	/experiments/Knapen_AOT/AOT_stimuli/pictures/1578_fw.png	154.6834352016449	1.3250248432159424
60	73.77968430519104	response	0	j		58.0	/experiments/Knapen_AOT/AOT_stimuli/pictures/1578_fw.png	155.99197793006897	
61	73.79616641998291	picture	0		86	59.0	/experiments/Knapen_AOT/AOT_stimuli/pictures/0020_fw.png	156.00846004486084	0.725013256072998
61	74.50479626655579	response	0	j		59.0	/experiments/Knapen_AOT/AOT_stimuli/pictures/0020_fw.png	156.71708989143372	
62	74.52117967605591	picture	0		147	60.0	/experiments/Knapen_AOT/AOT_stimuli/pictures/1385_fw.png	156.73347330093384	1.2290523052215576
62	75.73805975914001	response	0	j		60.0	/experiments/Knapen_AOT/AOT_stimuli/pictures/1385_fw.png	157.95035338401794	
63	75.75023198127747	picture	0		86	61.0	/experiments/Knapen_AOT/AOT_stimuli/pictures/0706_fw.png	157.9625256061554	0.715264081954956
63	76.45469808578491	response	0	j		61.0	/experiments/Knapen_AOT/AOT_stimuli/pictures/0706_fw.png	158.66699171066284	
64	76.46549606323242	picture	0		91	62.0	/experiments/Knapen_AOT/AOT_stimuli/pictures/1754_fw.png	158.67778968811035	0.7570009231567383
64	77.21310687065125	response	0	j		62.0	/experiments/Knapen_AOT/AOT_stimuli/pictures/1754_fw.png	159.42540049552917	
65	77.22249698638916	picture	0		76	63.0	/experiments/Knapen_AOT/AOT_stimuli/pictures/1963_fw.png	159.4347906112671	0.6320281028747559
65	77.84643220901489	response	0	j		63.0	/experiments/Knapen_AOT/AOT_stimuli/pictures/1963_fw.png	160.05872583389282	
66	77.85452508926392	picture	0		170	64.0	/experiments/Knapen_AOT/AOT_stimuli/pictures/1879_fw.png	160.06681871414185	1.4250462055206299
66	79.26318144798279	response	0	j		64.0	/experiments/Knapen_AOT/AOT_stimuli/pictures/1879_fw.png	161.47547507286072	
67	79.27957129478455	picture	0		92	65.0	/experiments/Knapen_AOT/AOT_stimuli/pictures/1287_fw.png	161.49186491966248	0.7692980766296387
67	80.0381190776825	response	0	j		65.0	/experiments/Knapen_AOT/AOT_stimuli/pictures/1287_fw.png	162.25041270256042	
68	80.04886937141418	picture	0		125	66.0	/experiments/Knapen_AOT/AOT_stimuli/pictures/1778_fw.png	162.26116299629211	1.0416836738586426
68	81.07978415489197	response	0	j		66.0	/experiments/Knapen_AOT/AOT_stimuli/pictures/1778_fw.png	163.2920777797699	
69	81.09055304527283	picture	0		84	67.0	/experiments/Knapen_AOT/AOT_stimuli/pictures/0233_fw.png	163.30284667015076	0.7013864517211914
69	81.77977275848389	response	0	j		67.0	/experiments/Knapen_AOT/AOT_stimuli/pictures/0233_fw.png	163.99206638336182	
70	81.79193949699402	picture	0		285	68.0	/experiments/Knapen_AOT/AOT_stimuli/pictures/0119_fw.png	164.00423312187195	2.3794121742248535
70	84.1484100818634	response	0	k		68.0	/experiments/Knapen_AOT/AOT_stimuli/pictures/0119_fw.png	166.36070370674133	
71	84.17135167121887	picture	0		136	69.0	/experiments/Knapen_AOT/AOT_stimuli/pictures/1537_fw.png	166.3836452960968	1.1344802379608154
71	85.29648923873901	response	0	k		69.0	/experiments/Knapen_AOT/AOT_stimuli/pictures/1537_fw.png	167.50878286361694	
72	85.30583190917969	picture	0		107	70.0	/experiments/Knapen_AOT/AOT_stimuli/pictures/1109_fw.png	167.51812553405762	0.8958473205566406
72	86.18816924095154	response	0	j		70.0	/experiments/Knapen_AOT/AOT_stimuli/pictures/1109_fw.png	168.40046286582947	
73	86.20167922973633	picture	0		89	71.0	/experiments/Knapen_AOT/AOT_stimuli/pictures/0236_fw.png	168.41397285461426	0.7529795169830322
73	86.93824768066406	response	0	j		71.0	/experiments/Knapen_AOT/AOT_stimuli/pictures/0236_fw.png	169.150541305542	
74	86.95465874671936	picture	0		180	72.0	/experiments/Knapen_AOT/AOT_stimuli/pictures/1292_fw.png	169.1669523715973	1.50398850440979
74	88.44654941558838	response	0	k		72.0	/experiments/Knapen_AOT/AOT_stimuli/pictures/1292_fw.png	170.6588430404663	
75	88.45864725112915	picture	0		163	73.0	/experiments/Knapen_AOT/AOT_stimuli/pictures/2104_fw.png	170.67094087600708	1.3543570041656494
75	89.80489301681519	response	0	k		73.0	/experiments/Knapen_AOT/AOT_stimuli/pictures/2104_fw.png	172.01718664169312	
76	89.8130042552948	picture	0		85	74.0	/experiments/Knapen_AOT/AOT_stimuli/pictures/0666_fw.png	172.02529788017273	0.7083408832550049
76	90.51323342323303	response	0	j		74.0	/experiments/Knapen_AOT/AOT_stimuli/pictures/0666_fw.png	172.72552704811096	
77	90.5213451385498	picture	0		108	75.0	/experiments/Knapen_AOT/AOT_stimuli/pictures/0891_fw.png	172.73363876342773	0.9026062488555908
77	91.41324591636658	response	0	j		75.0	/experiments/Knapen_AOT/AOT_stimuli/pictures/0891_fw.png	173.6255395412445	
78	91.4239513874054	picture	0		126	76.0	/experiments/Knapen_AOT/AOT_stimuli/pictures/0889_fw.png	173.63624501228333	1.0485975742340088
78	92.4632728099823	response	0	k		76.0	/experiments/Knapen_AOT/AOT_stimuli/pictures/0889_fw.png	174.67556643486023	
79	92.4725489616394	picture	0		101	77.0	/experiments/Knapen_AOT/AOT_stimuli/pictures/1440_fw.png	174.68484258651733	0.8405015468597412
79	93.304922580719	response	0	k		77.0	/experiments/Knapen_AOT/AOT_stimuli/pictures/1440_fw.png	175.51721620559692	
80	93.31305050849915	picture	0		89	78.0	/experiments/Knapen_AOT/AOT_stimuli/pictures/1049_fw.png	175.52534413337708	0.7500894069671631
80	94.04662680625916	response	0	j		78.0	/experiments/Knapen_AOT/AOT_stimuli/pictures/1049_fw.png	176.25892043113708	
81	94.06313991546631	picture	0		176	79.0	/experiments/Knapen_AOT/AOT_stimuli/pictures/1726_fw.png	176.27543354034424	1.4719593524932861
81	95.52160787582397	response	0	k		79.0	/experiments/Knapen_AOT/AOT_stimuli/pictures/1726_fw.png	177.7339015007019	
82	95.5350992679596	picture	0		100	80.0	/experiments/Knapen_AOT/AOT_stimuli/pictures/0651_fw.png	177.74739289283752	0.8402655124664307
82	96.36332273483276	response	0	k		80.0	/experiments/Knapen_AOT/AOT_stimuli/pictures/0651_fw.png	178.5756163597107	
83	96.37536478042603	picture	0		74	81.0	/experiments/Knapen_AOT/AOT_stimuli/pictures/0226_fw.png	178.58765840530396	0.6180663108825684
83	96.97997307777405	response	0	j		81.0	/experiments/Knapen_AOT/AOT_stimuli/pictures/0226_fw.png	179.19226670265198	
84	96.9934310913086	picture	0		128	82.0	/experiments/Knapen_AOT/AOT_stimuli/pictures/0691_fw.png	179.20572471618652	1.0696959495544434
84	98.05507516860962	response	0	k		82.0	/experiments/Knapen_AOT/AOT_stimuli/pictures/0691_fw.png	180.26736879348755	
85	98.06312704086304	picture	0		110	83.0	/experiments/Knapen_AOT/AOT_stimuli/pictures/1510_fw.png	180.27542066574097	0.9166524410247803
85	98.97165322303772	response	0	k		83.0	/experiments/Knapen_AOT/AOT_stimuli/pictures/1510_fw.png	181.18394684791565	
86	98.97977948188782	picture	0		111	84.0	/experiments/Knapen_AOT/AOT_stimuli/pictures/1569_fw.png	181.19207310676575	0.9303431510925293
86	99.89673566818237	response	0	k		84.0	/experiments/Knapen_AOT/AOT_stimuli/pictures/1569_fw.png	182.1090292930603	
87	99.91012263298035	picture	0		121	85.0	/experiments/Knapen_AOT/AOT_stimuli/pictures/0925_fw.png	182.12241625785828	1.0197980403900146
87	100.91342806816101	response	0	k		85.0	/experiments/Knapen_AOT/AOT_stimuli/pictures/0925_fw.png	183.12572169303894	
88	100.92992067337036	picture	0		159	86.0	/experiments/Knapen_AOT/AOT_stimuli/pictures/1463_fw.png	183.1422142982483	1.3274266719818115
88	102.24673557281494	response	0	j		86.0	/experiments/Knapen_AOT/AOT_stimuli/pictures/1463_fw.png	184.45902919769287	
89	102.25734734535217	picture	0		176	87.0	/experiments/Knapen_AOT/AOT_stimuli/pictures/1538_fw.png	184.4696409702301	1.4652893543243408
89	103.71338629722595	response	0	k		87.0	/experiments/Knapen_AOT/AOT_stimuli/pictures/1538_fw.png	185.92567992210388	
90	103.72263669967651	picture	0		131	88.0	/experiments/Knapen_AOT/AOT_stimuli/pictures/2059_fw.png	185.93493032455444	1.0905475616455078
90	104.80510330200195	response	0	k		88.0	/experiments/Knapen_AOT/AOT_stimuli/pictures/2059_fw.png	187.01739692687988	
91	104.81318426132202	picture	0		339	89.0	/experiments/Knapen_AOT/AOT_stimuli/pictures/0411_fw.png	187.02547788619995	2.8261454105377197
91	107.63010621070862	response	0	k		89.0	/experiments/Knapen_AOT/AOT_stimuli/pictures/0411_fw.png	189.84239983558655	
92	107.63932967185974	picture	0		94	90.0	/experiments/Knapen_AOT/AOT_stimuli/pictures/1141_fw.png	189.85162329673767	0.7847177982330322
92	108.41345882415771	response	0	k		90.0	/experiments/Knapen_AOT/AOT_stimuli/pictures/1141_fw.png	190.62575244903564	
93	108.42404747009277	picture	0		98	91.0	/experiments/Knapen_AOT/AOT_stimuli/pictures/0629_fw.png	190.6363410949707	0.8225574493408203
93	109.23012185096741	response	0	j		91.0	/experiments/Knapen_AOT/AOT_stimuli/pictures/0629_fw.png	191.44241547584534	
94	109.2466049194336	picture	0		80	92.0	/experiments/Knapen_AOT/AOT_stimuli/pictures/2021_fw.png	191.45889854431152	0.6751284599304199
94	109.90516185760498	response	0	j		92.0	/experiments/Knapen_AOT/AOT_stimuli/pictures/2021_fw.png	192.1174554824829	
95	109.92173337936401	picture	0		96	93.0	/experiments/Knapen_AOT/AOT_stimuli/pictures/0874_fw.png	192.13402700424194	0.8009438514709473
95	110.71403241157532	response	0	k		93.0	/experiments/Knapen_AOT/AOT_stimuli/pictures/0874_fw.png	192.92632603645325	
96	110.72267723083496	picture	0		122	94.0	/experiments/Knapen_AOT/AOT_stimuli/pictures/1951_fw.png	192.9349708557129	1.020853042602539
96	111.7302474975586	response	0	k		94.0	/experiments/Knapen_AOT/AOT_stimuli/pictures/1951_fw.png	193.94254112243652	
97	111.7435302734375	picture	0		90	95.0	/experiments/Knapen_AOT/AOT_stimuli/pictures/1467_fw.png	193.95582389831543	0.7569916248321533
97	112.48851346969604	response	0	k		95.0	/experiments/Knapen_AOT/AOT_stimuli/pictures/1467_fw.png	194.70080709457397	
98	112.50052189826965	picture	0		117	96.0	/experiments/Knapen_AOT/AOT_stimuli/pictures/1565_fw.png	194.71281552314758	0.9721798896789551
98	113.46353673934937	response	0	j		96.0	/experiments/Knapen_AOT/AOT_stimuli/pictures/1565_fw.png	195.6758303642273	
99	113.47270178794861	picture	0		180	97.0	/experiments/Knapen_AOT/AOT_stimuli/pictures/1957_fw.png	195.68499541282654	1.5073068141937256
99	114.9636070728302	response	0	j		97.0	/experiments/Knapen_AOT/AOT_stimuli/pictures/1957_fw.png	197.17590069770813	
100	114.98000860214233	picture	0		104	98.0	/experiments/Knapen_AOT/AOT_stimuli/pictures/1197_fw.png	197.19230222702026	0.8677020072937012
100	115.83856701850891	response	0	k		98.0	/experiments/Knapen_AOT/AOT_stimuli/pictures/1197_fw.png	198.05086064338684	
101	115.84771060943604	picture	0		116	99.0	/experiments/Knapen_AOT/AOT_stimuli/pictures/1327_fw.png	198.06000423431396	0.9656236171722412
101	116.80527234077454	response	0	k		99.0	/experiments/Knapen_AOT/AOT_stimuli/pictures/1327_fw.png	199.01756596565247	
102	116.81333422660828	picture	0		178	100.0	/experiments/Knapen_AOT/AOT_stimuli/pictures/1749_fw.png	199.0256278514862	1.4917330741882324
102	118.28861999511719	response	0	k		100.0	/experiments/Knapen_AOT/AOT_stimuli/pictures/1749_fw.png	200.50091361999512	
103	118.30506730079651	picture	0		106	101.0	/experiments/Knapen_AOT/AOT_stimuli/pictures/1910_fw.png	200.51736092567444	0.8917021751403809
103	119.18023347854614	response	0	j		101.0	/experiments/Knapen_AOT/AOT_stimuli/pictures/1910_fw.png	201.39252710342407	
104	119.19676947593689	picture	0		99	102.0	/experiments/Knapen_AOT/AOT_stimuli/pictures/1189_fw.png	201.40906310081482	0.8249473571777344
104	120.01364088058472	response	0	j		102.0	/experiments/Knapen_AOT/AOT_stimuli/pictures/1189_fw.png	202.22593450546265	
105	120.02171683311462	picture	0		81	103.0	/experiments/Knapen_AOT/AOT_stimuli/pictures/1897_fw.png	202.23401045799255	0.6833574771881104
105	120.68860697746277	response	0	j		103.0	/experiments/Knapen_AOT/AOT_stimuli/pictures/1897_fw.png	202.9009006023407	
106	120.70507431030273	picture	0		92	104.0	/experiments/Knapen_AOT/AOT_stimuli/pictures/1969_fw.png	202.91736793518066	0.7676723003387451
106	121.46360421180725	response	0	j		104.0	/experiments/Knapen_AOT/AOT_stimuli/pictures/1969_fw.png	203.67589783668518	
107	121.47274661064148	picture	0		80	105.0	/experiments/Knapen_AOT/AOT_stimuli/pictures/1658_fw.png	203.6850402355194	0.6667301654815674
107	122.12349343299866	response	0	j		105.0	/experiments/Knapen_AOT/AOT_stimuli/pictures/1658_fw.png	204.3357870578766	
108	122.13947677612305	picture	0		88	106.0	/experiments/Knapen_AOT/AOT_stimuli/pictures/0960_fw.png	204.35177040100098	0.7406160831451416
108	122.86362791061401	response	0	k		106.0	/experiments/Knapen_AOT/AOT_stimuli/pictures/0960_fw.png	205.07592153549194	
109	122.88009285926819	picture	0		81	107.0	/experiments/Knapen_AOT/AOT_stimuli/pictures/0467_fw.png	205.09238648414612	0.6760537624359131
109	123.54703545570374	response	0	j		107.0	/experiments/Knapen_AOT/AOT_stimuli/pictures/0467_fw.png	205.75932908058167	
110	123.5561466217041	picture	0		81	108.0	/experiments/Knapen_AOT/AOT_stimuli/pictures/0282_fw.png	205.76844024658203	0.6823320388793945
110	124.22197103500366	response	0	j		108.0	/experiments/Knapen_AOT/AOT_stimuli/pictures/0282_fw.png	206.4342646598816	
111	124.2384786605835	picture	0		315	109.0	/experiments/Knapen_AOT/AOT_stimuli/pictures/1666_fw.png	206.45077228546143	2.6301703453063965
111	126.8553204536438	response	0	k		109.0	/experiments/Knapen_AOT/AOT_stimuli/pictures/1666_fw.png	209.06761407852173	
112	126.86864900588989	picture	0		106	110.0	/experiments/Knapen_AOT/AOT_stimuli/pictures/0140_fw.png	209.08094263076782	0.8949534893035889
112	127.74705934524536	response	0	k		110.0	/experiments/Knapen_AOT/AOT_stimuli/pictures/0140_fw.png	209.9593529701233	
113	127.76360249519348	picture	0		178	111.0	/experiments/Knapen_AOT/AOT_stimuli/pictures/0278_fw.png	209.9758961200714	1.4869871139526367
113	129.23867869377136	response	0	k		111.0	/experiments/Knapen_AOT/AOT_stimuli/pictures/0278_fw.png	211.4509723186493	
114	129.25058960914612	picture	0		83	112.0	/experiments/Knapen_AOT/AOT_stimuli/pictures/0471_fw.png	211.46288323402405	0.7014024257659912
114	129.93900275230408	response	0	k		112.0	/experiments/Knapen_AOT/AOT_stimuli/pictures/0471_fw.png	212.151296377182	
115	129.9519920349121	picture	0		84	113.0	/experiments/Knapen_AOT/AOT_stimuli/pictures/0170_fw.png	212.16428565979004	0.7083404064178467
115	130.64705848693848	response	0	k		113.0	/experiments/Knapen_AOT/AOT_stimuli/pictures/0170_fw.png	212.8593521118164	
116	130.66033244132996	picture	0		87	114.0	/experiments/Knapen_AOT/AOT_stimuli/pictures/0342_fw.png	212.87262606620789	0.7291791439056396
116	131.38041067123413	response	0	j		114.0	/experiments/Knapen_AOT/AOT_stimuli/pictures/0342_fw.png	213.59270429611206	
117	131.3895115852356	picture	0		151	115.0	/experiments/Knapen_AOT/AOT_stimuli/pictures/1222_fw.png	213.60180521011353	1.2573530673980713
117	132.63874697685242	response	0	k		115.0	/experiments/Knapen_AOT/AOT_stimuli/pictures/1222_fw.png	214.85104060173035	
118	132.64686465263367	picture	0		156	116.0	/experiments/Knapen_AOT/AOT_stimuli/pictures/0086_fw.png	214.8591582775116	1.3083910942077637
118	133.93178582191467	response	0	k		116.0	/experiments/Knapen_AOT/AOT_stimuli/pictures/0086_fw.png	216.1440794467926	
119	133.95525574684143	picture	0		99	117.0	/experiments/Knapen_AOT/AOT_stimuli/pictures/2127_fw.png	216.16754937171936	0.8300971984863281
119	134.7720992565155	response	0	k		117.0	/experiments/Knapen_AOT/AOT_stimuli/pictures/2127_fw.png	216.98439288139343	
120	134.78535294532776	picture	0		96	118.0	/experiments/Knapen_AOT/AOT_stimuli/pictures/0266_fw.png	216.9976465702057	0.8116567134857178
120	135.5807101726532	response	0	j		118.0	/experiments/Knapen_AOT/AOT_stimuli/pictures/0266_fw.png	217.79300379753113	
121	135.59700965881348	picture	0		266	119.0	/experiments/Knapen_AOT/AOT_stimuli/pictures/1052_fw.png	217.8093032836914	2.2249958515167236
121	137.80555629730225	response	0	k		119.0	/experiments/Knapen_AOT/AOT_stimuli/pictures/1052_fw.png	220.01784992218018	
122	137.8220055103302	picture	0		181	120.0	/experiments/Knapen_AOT/AOT_stimuli/pictures/2019_fw.png	220.03429913520813	1.5119967460632324
122	139.32214641571045	response	0	j		120.0	/experiments/Knapen_AOT/AOT_stimuli/pictures/2019_fw.png	221.53444004058838	
123	139.33400225639343	picture	0		76	121.0	/experiments/Knapen_AOT/AOT_stimuli/pictures/1566_fw.png	221.54629588127136	0.631934642791748
123	139.95550918579102	response	0	j		121.0	/experiments/Knapen_AOT/AOT_stimuli/pictures/1566_fw.png	222.16780281066895	
124	139.96593689918518	picture	0		117	122.0	/experiments/Knapen_AOT/AOT_stimuli/pictures/1557_fw.png	222.1782305240631	0.9726917743682861
124	140.92301630973816	response	0	j		122.0	/experiments/Knapen_AOT/AOT_stimuli/pictures/1557_fw.png	223.1353099346161	
125	140.93862867355347	picture	0		117	123.0	/experiments/Knapen_AOT/AOT_stimuli/pictures/1795_fw.png	223.1509222984314	0.978715181350708
125	141.9055893421173	response	0	j		123.0	/experiments/Knapen_AOT/AOT_stimuli/pictures/1795_fw.png	224.11788296699524	
126	141.91734385490417	picture	0		92	124.0	/experiments/Knapen_AOT/AOT_stimuli/pictures/1889_fw.png	224.1296374797821	0.7713320255279541
126	142.67247366905212	response	0	k		124.0	/experiments/Knapen_AOT/AOT_stimuli/pictures/1889_fw.png	224.88476729393005	
127	142.68867588043213	picture	0		100	125.0	/experiments/Knapen_AOT/AOT_stimuli/pictures/1886_fw.png	224.90096950531006	0.833355188369751
127	143.51386713981628	response	0	k		125.0	/experiments/Knapen_AOT/AOT_stimuli/pictures/1886_fw.png	225.7261607646942	
128	143.52203106880188	picture	0		91	126.0	/experiments/Knapen_AOT/AOT_stimuli/pictures/1264_fw.png	225.7343246936798	0.7634050846099854
128	144.272536277771	response	0	j		126.0	/experiments/Knapen_AOT/AOT_stimuli/pictures/1264_fw.png	226.48482990264893	
129	144.28543615341187	picture	0		77	127.0	/experiments/Knapen_AOT/AOT_stimuli/pictures/0808_fw.png	226.4977297782898	0.6458094120025635
129	144.9222092628479	response	0	j		127.0	/experiments/Knapen_AOT/AOT_stimuli/pictures/0808_fw.png	227.13450288772583	
130	144.93124556541443	picture	0		70	128.0	/experiments/Knapen_AOT/AOT_stimuli/pictures/1098_fw.png	227.14353919029236	0.5908966064453125
130	145.50563049316406	response	0	j		128.0	/experiments/Knapen_AOT/AOT_stimuli/pictures/1098_fw.png	227.717924118042	
131	145.52214217185974	picture	0		290	129.0	/experiments/Knapen_AOT/AOT_stimuli/pictures/1834_fw.png	227.73443579673767	2.4165825843811035
131	147.9232108592987	response	0	k		129.0	/experiments/Knapen_AOT/AOT_stimuli/pictures/1834_fw.png	230.13550448417664	
132	147.93872475624084	picture	0		111	130.0	/experiments/Knapen_AOT/AOT_stimuli/pictures/1661_fw.png	230.15101838111877	0.9300534725189209
132	148.855553150177	response	0	k		130.0	/experiments/Knapen_AOT/AOT_stimuli/pictures/1661_fw.png	231.06784677505493	
133	148.86877822875977	picture	0		88	131.0	/experiments/Knapen_AOT/AOT_stimuli/pictures/0157_fw.png	231.0810718536377	0.736626386642456
133	149.59730577468872	response	0	j		131.0	/experiments/Knapen_AOT/AOT_stimuli/pictures/0157_fw.png	231.80959939956665	
134	149.60540461540222	picture	0		96	132.0	/experiments/Knapen_AOT/AOT_stimuli/pictures/0730_fw.png	231.81769824028015	0.8083653450012207
134	150.39723777770996	response	0	j		132.0	/experiments/Knapen_AOT/AOT_stimuli/pictures/0730_fw.png	232.6095314025879	
135	150.41376996040344	picture	0		99	133.0	/experiments/Knapen_AOT/AOT_stimuli/pictures/0368_fw.png	232.62606358528137	0.8300373554229736
135	151.23059272766113	response	0	j		133.0	/experiments/Knapen_AOT/AOT_stimuli/pictures/0368_fw.png	233.44288635253906	
136	151.24380731582642	picture	0		93	134.0	/experiments/Knapen_AOT/AOT_stimuli/pictures/0600_fw.png	233.45610094070435	0.7782948017120361
136	152.01394295692444	response	0	j		134.0	/experiments/Knapen_AOT/AOT_stimuli/pictures/0600_fw.png	234.22623658180237	
137	152.02210211753845	picture	0		118	135.0	/experiments/Knapen_AOT/AOT_stimuli/pictures/0323_fw.png	234.23439574241638	0.9855918884277344
137	152.99727249145508	response	0	j		135.0	/experiments/Knapen_AOT/AOT_stimuli/pictures/0323_fw.png	235.209566116333	
138	153.0076940059662	picture	0		148	136.0	/experiments/Knapen_AOT/AOT_stimuli/pictures/1153_fw.png	235.21998763084412	1.2394628524780273
138	154.23082280158997	response	0	k		136.0	/experiments/Knapen_AOT/AOT_stimuli/pictures/1153_fw.png	236.4431164264679	
139	154.2471568584442	picture	0		79	137.0	/experiments/Knapen_AOT/AOT_stimuli/pictures/1414_fw.png	236.45945048332214	0.7952795028686523
139	155.03067564964294	response	0	k		137.0	/experiments/Knapen_AOT/AOT_stimuli/pictures/1414_fw.png	237.24296927452087	
140	155.04243636131287	picture	0		120	138.0	/experiments/Knapen_AOT/AOT_stimuli/pictures/0203_fw.png	237.2547299861908	1.004866123199463
140	156.03073859214783	response	0	j		138.0	/experiments/Knapen_AOT/AOT_stimuli/pictures/0203_fw.png	238.24303221702576	
141	156.04730248451233	picture	0		109	139.0	/experiments/Knapen_AOT/AOT_stimuli/pictures/0149_fw.png	238.25959610939026	0.9118156433105469
141	156.94735455513	response	0	k		139.0	/experiments/Knapen_AOT/AOT_stimuli/pictures/0149_fw.png	239.15964818000793	
142	156.95911812782288	picture	0		207	140.0	/experiments/Knapen_AOT/AOT_stimuli/pictures/1087_fw.png	239.1714117527008	1.7222254276275635
142	158.6724247932434	response	0	k		140.0	/experiments/Knapen_AOT/AOT_stimuli/pictures/1087_fw.png	240.88471841812134	
143	158.68134355545044	picture	0		111	141.0	/experiments/Knapen_AOT/AOT_stimuli/pictures/0942_fw.png	240.89363718032837	0.9241938591003418
143	159.59740376472473	response	0	k		141.0	/experiments/Knapen_AOT/AOT_stimuli/pictures/0942_fw.png	241.80969738960266	
144	159.60553741455078	picture	0		80	142.0	/experiments/Knapen_AOT/AOT_stimuli/pictures/1388_fw.png	241.8178310394287	0.666661262512207
144	160.26409935951233	response	0	j		142.0	/experiments/Knapen_AOT/AOT_stimuli/pictures/1388_fw.png	242.47639298439026	
145	160.272198677063	picture	0		101	143.0	/experiments/Knapen_AOT/AOT_stimuli/pictures/1256_fw.png	242.48449230194092	0.8500401973724365
145	161.10645699501038	response	0	j		143.0	/experiments/Knapen_AOT/AOT_stimuli/pictures/1256_fw.png	243.3187506198883	
146	161.12223887443542	picture	0		104	144.0	/experiments/Knapen_AOT/AOT_stimuli/pictures/1982_fw.png	243.33453249931335	0.8716530799865723
146	161.9807846546173	response	0	k		144.0	/experiments/Knapen_AOT/AOT_stimuli/pictures/1982_fw.png	244.19307827949524	
147	161.993891954422	picture	0		102	145.0	/experiments/Knapen_AOT/AOT_stimuli/pictures/1229_fw.png	244.20618557929993	0.8472092151641846
147	162.8307547569275	response	0	j		145.0	/experiments/Knapen_AOT/AOT_stimuli/pictures/1229_fw.png	245.04304838180542	
148	162.84110116958618	picture	0		125	146.0	/experiments/Knapen_AOT/AOT_stimuli/pictures/1416_fw.png	245.0533947944641	1.041687250137329
148	163.87247586250305	response	0	k		146.0	/experiments/Knapen_AOT/AOT_stimuli/pictures/1416_fw.png	246.08476948738098	
149	163.8827884197235	picture	0		404	147.0	/experiments/Knapen_AOT/AOT_stimuli/pictures/1975_fw.png	246.09508204460144	3.3680639266967773
149	167.239164352417	response	0	k		147.0	/experiments/Knapen_AOT/AOT_stimuli/pictures/1975_fw.png	249.45145797729492	
150	167.2508523464203	picture	0		84	148.0	/experiments/Knapen_AOT/AOT_stimuli/pictures/0023_fw.png	249.46314597129822	0.7014167308807373
150	167.93923163414001	response	0	j		148.0	/experiments/Knapen_AOT/AOT_stimuli/pictures/0023_fw.png	250.15152525901794	
151	167.95226907730103	picture	0		80	149.0	/experiments/Knapen_AOT/AOT_stimuli/pictures/1585_fw.png	250.16456270217896	0.6667079925537109
151	168.60585021972656	response	0	j		149.0	/experiments/Knapen_AOT/AOT_stimuli/pictures/1585_fw.png	250.8181438446045	
152	168.61897706985474	picture	0		278	150.0	/experiments/Knapen_AOT/AOT_stimuli/pictures/1691_fw.png	250.83127069473267	2.320025682449341
152	170.93121457099915	response	0	j		150.0	/experiments/Knapen_AOT/AOT_stimuli/pictures/1691_fw.png	253.14350819587708	
153	170.93900275230408	picture	0		184	151.0	/experiments/Knapen_AOT/AOT_stimuli/pictures/0702_fw.png	253.151296377182	1.5417122840881348
153	172.46424865722656	response	0	k		151.0	/experiments/Knapen_AOT/AOT_stimuli/pictures/0702_fw.png	254.6765422821045	
154	172.4807150363922	picture	0		128	152.0	/experiments/Knapen_AOT/AOT_stimuli/pictures/0359_fw.png	254.69300866127014	1.06878662109375
154	173.5392563343048	response	0	k		152.0	/experiments/Knapen_AOT/AOT_stimuli/pictures/0359_fw.png	255.75154995918274	
155	173.54950165748596	picture	0		86	153.0	/experiments/Knapen_AOT/AOT_stimuli/pictures/1633_fw.png	255.7617952823639	0.7152819633483887
155	174.25590562820435	response	0	j		153.0	/experiments/Knapen_AOT/AOT_stimuli/pictures/1633_fw.png	256.4681992530823	
156	174.26478362083435	picture	0		114	154.0	/experiments/Knapen_AOT/AOT_stimuli/pictures/1168_fw.png	256.4770772457123	0.9513916969299316
156	175.20594716072083	response	0	k		154.0	/experiments/Knapen_AOT/AOT_stimuli/pictures/1168_fw.png	257.41824078559875	
157	175.21617531776428	picture	0		75	155.0	/experiments/Knapen_AOT/AOT_stimuli/pictures/0543_fw.png	257.4284689426422	0.6312284469604492
157	175.83103799819946	response	0	j		155.0	/experiments/Knapen_AOT/AOT_stimuli/pictures/0543_fw.png	258.0433316230774	
158	175.84740376472473	picture	0		104	156.0	/experiments/Knapen_AOT/AOT_stimuli/pictures/1439_fw.png	258.05969738960266	0.8750340938568115
158	176.70602107048035	response	0	j		156.0	/experiments/Knapen_AOT/AOT_stimuli/pictures/1439_fw.png	258.9183146953583	
159	176.72243785858154	picture	0		111	157.0	/experiments/Knapen_AOT/AOT_stimuli/pictures/0805_fw.png	258.9347314834595	0.9333462715148926
159	177.63928937911987	response	0	k		157.0	/experiments/Knapen_AOT/AOT_stimuli/pictures/0805_fw.png	259.8515830039978	
160	177.65578413009644	picture	0		94	158.0	/experiments/Knapen_AOT/AOT_stimuli/pictures/1157_fw.png	259.86807775497437	0.7896044254302979
160	178.43121719360352	response	0	k		158.0	/experiments/Knapen_AOT/AOT_stimuli/pictures/1157_fw.png	260.64351081848145	
161	178.44538855552673	picture	0		89	159.0	/experiments/Knapen_AOT/AOT_stimuli/pictures/1306_fw.png	260.65768218040466	0.7500231266021729
161	179.18095111846924	response	0	j		159.0	/experiments/Knapen_AOT/AOT_stimuli/pictures/1306_fw.png	261.39324474334717	
162	179.1954116821289	picture	0		118	160.0	/experiments/Knapen_AOT/AOT_stimuli/pictures/0469_fw.png	261.40770530700684	0.9860756397247314
162	180.17258191108704	response	0	k		160.0	/experiments/Knapen_AOT/AOT_stimuli/pictures/0469_fw.png	262.38487553596497	
163	180.18148732185364	picture	0		76	161.0	/experiments/Knapen_AOT/AOT_stimuli/pictures/1536_fw.png	262.39378094673157	0.641035795211792
163	180.80598163604736	response	0	j		161.0	/experiments/Knapen_AOT/AOT_stimuli/pictures/1536_fw.png	263.0182752609253	
164	180.82252311706543	picture	0		105	162.0	/experiments/Knapen_AOT/AOT_stimuli/pictures/0818_fw.png	263.03481674194336	0.8798460960388184
164	181.68928718566895	response	0	k		162.0	/experiments/Knapen_AOT/AOT_stimuli/pictures/0818_fw.png	263.9015808105469	
165	181.70236921310425	picture	0		74	163.0	/experiments/Knapen_AOT/AOT_stimuli/pictures/1598_fw.png	263.9146628379822	0.620124340057373
165	182.3069486618042	response	0	j		163.0	/experiments/Knapen_AOT/AOT_stimuli/pictures/1598_fw.png	264.51924228668213	
166	182.32249355316162	picture	0		82	164.0	/experiments/Knapen_AOT/AOT_stimuli/pictures/0384_fw.png	264.53478717803955	0.6916956901550293
166	182.99776482582092	response	0	j		164.0	/experiments/Knapen_AOT/AOT_stimuli/pictures/0384_fw.png	265.21005845069885	
167	183.01418924331665	picture	0		346	165.0	/experiments/Knapen_AOT/AOT_stimuli/pictures/1888_fw.png	265.2264828681946	2.891723394393921
167	185.8894271850586	response	0	k		165.0	/experiments/Knapen_AOT/AOT_stimuli/pictures/1888_fw.png	268.1017208099365	
168	185.90591263771057	picture	0		79	166.0	/experiments/Knapen_AOT/AOT_stimuli/pictures/1595_fw.png	268.1182062625885	0.6645247936248779
168	186.55611443519592	response	0	k		166.0	/experiments/Knapen_AOT/AOT_stimuli/pictures/1595_fw.png	268.76840806007385	
169	186.57043743133545	picture	0		109	167.0	/experiments/Knapen_AOT/AOT_stimuli/pictures/0558_fw.png	268.7827310562134	0.9104235172271729
169	187.4727602005005	response	0	j		167.0	/experiments/Knapen_AOT/AOT_stimuli/pictures/0558_fw.png	269.6850538253784	
170	187.48086094856262	picture	0		111	168.0	/experiments/Knapen_AOT/AOT_stimuli/pictures/1163_fw.png	269.69315457344055	0.9299399852752686
170	188.3977608680725	response	0	j		168.0	/experiments/Knapen_AOT/AOT_stimuli/pictures/1163_fw.png	270.61005449295044	
171	188.4108009338379	picture	0		81	169.0	/experiments/Knapen_AOT/AOT_stimuli/pictures/0979_fw.png	270.6230945587158	0.6804623603820801
171	189.08114099502563	response	0	j		169.0	/experiments/Knapen_AOT/AOT_stimuli/pictures/0979_fw.png	271.29343461990356	
172	189.09126329421997	picture	0		162	170.0	/experiments/Knapen_AOT/AOT_stimuli/pictures/2168_fw.png	271.3035569190979	1.354280948638916
172	190.43114972114563	response	0	j		170.0	/experiments/Knapen_AOT/AOT_stimuli/pictures/2168_fw.png	272.64344334602356	
173	190.4455442428589	picture	0		82	171.0	/experiments/Knapen_AOT/AOT_stimuli/pictures/1878_fw.png	272.6578378677368	0.6937367916107178
173	191.12345576286316	response	0	k		171.0	/experiments/Knapen_AOT/AOT_stimuli/pictures/1878_fw.png	273.3357493877411	
174	191.1392810344696	picture	0		122	172.0	/experiments/Knapen_AOT/AOT_stimuli/pictures/0178_fw.png	273.35157465934753	1.0250444412231445
174	192.14781045913696	response	0	k		172.0	/experiments/Knapen_AOT/AOT_stimuli/pictures/0178_fw.png	274.3601040840149	
175	192.16432547569275	picture	0		66	173.0	/experiments/Knapen_AOT/AOT_stimuli/pictures/2118_fw.png	274.3766191005707	0.5583229064941406
175	192.70619368553162	response	0	j		173.0	/experiments/Knapen_AOT/AOT_stimuli/pictures/2118_fw.png	274.91848731040955	
176	192.7226483821869	picture	0		151	174.0	/experiments/Knapen_AOT/AOT_stimuli/pictures/2112_fw.png	274.9349420070648	1.2645206451416016
176	193.97287774085999	response	0	k		174.0	/experiments/Knapen_AOT/AOT_stimuli/pictures/2112_fw.png	276.1851713657379	
177	193.9871690273285	picture	0		78	175.0	/experiments/Knapen_AOT/AOT_stimuli/pictures/0539_fw.png	276.1994626522064	0.6604921817779541
177	194.6312232017517	response	0	j		175.0	/experiments/Knapen_AOT/AOT_stimuli/pictures/0539_fw.png	276.84351682662964	
178	194.64766120910645	picture	0		86	176.0	/experiments/Knapen_AOT/AOT_stimuli/pictures/2105_fw.png	276.8599548339844	0.7214441299438477
178	195.35619926452637	response	0	k		176.0	/experiments/Knapen_AOT/AOT_stimuli/pictures/2105_fw.png	277.5684928894043	
179	195.3691053390503	picture	0		70	177.0	/experiments/Knapen_AOT/AOT_stimuli/pictures/0678_fw.png	277.5813989639282	0.5902965068817139
179	195.94785118103027	response	0	j		177.0	/experiments/Knapen_AOT/AOT_stimuli/pictures/0678_fw.png	278.1601448059082	
180	195.959401845932	picture	0		117	178.0	/experiments/Knapen_AOT/AOT_stimuli/pictures/1398_fw.png	278.17169547080994	0.9799516201019287
180	196.916188955307	response	0	k		178.0	/experiments/Knapen_AOT/AOT_stimuli/pictures/1398_fw.png	279.12848258018494	
181	196.93935346603394	picture	0		68	179.0	/experiments/Knapen_AOT/AOT_stimuli/pictures/0857_fw.png	279.15164709091187	0.5686860084533691
181	197.49788904190063	response	0	j		179.0	/experiments/Knapen_AOT/AOT_stimuli/pictures/0857_fw.png	279.71018266677856	
182	197.5080394744873	picture	0		473	180.0	/experiments/Knapen_AOT/AOT_stimuli/pictures/1782_fw.png	279.72033309936523	3.948054552078247
182	201.43958163261414	response	0	j		180.0	/experiments/Knapen_AOT/AOT_stimuli/pictures/1782_fw.png	283.65187525749207	
183	201.45609402656555	picture	0		105	181.0	/experiments/Knapen_AOT/AOT_stimuli/pictures/1349_fw.png	283.6683876514435	0.8833374977111816
183	202.32319331169128	response	0	j		181.0	/experiments/Knapen_AOT/AOT_stimuli/pictures/1349_fw.png	284.5354869365692	
184	202.33943152427673	picture	0		88	182.0	/experiments/Knapen_AOT/AOT_stimuli/pictures/1436_fw.png	284.55172514915466	0.7380671501159668
184	203.06467127799988	response	0	j		182.0	/experiments/Knapen_AOT/AOT_stimuli/pictures/1436_fw.png	285.2769649028778	
185	203.0774986743927	picture	0		92	183.0	/experiments/Knapen_AOT/AOT_stimuli/pictures/1082_fw.png	285.28979229927063	0.7708263397216797
185	203.8396487236023	response	0	j		183.0	/experiments/Knapen_AOT/AOT_stimuli/pictures/1082_fw.png	286.0519423484802	
186	203.84832501411438	picture	0		100	184.0	/experiments/Knapen_AOT/AOT_stimuli/pictures/1392_fw.png	286.0606186389923	0.8411264419555664
186	204.6731264591217	response	0	j		184.0	/experiments/Knapen_AOT/AOT_stimuli/pictures/1392_fw.png	286.88542008399963	
187	204.68945145606995	picture	0		103	185.0	/experiments/Knapen_AOT/AOT_stimuli/pictures/0279_fw.png	286.9017450809479	0.8666682243347168
187	205.53973770141602	response	0	k		185.0	/experiments/Knapen_AOT/AOT_stimuli/pictures/0279_fw.png	287.75203132629395	
188	205.55611968040466	picture	0		88	186.0	/experiments/Knapen_AOT/AOT_stimuli/pictures/0375_fw.png	287.7684133052826	0.7366700172424316
188	206.28133463859558	response	0	j		186.0	/experiments/Knapen_AOT/AOT_stimuli/pictures/0375_fw.png	288.4936282634735	
189	206.2927896976471	picture	0		84	187.0	/experiments/Knapen_AOT/AOT_stimuli/pictures/0191_fw.png	288.505083322525	0.7050113677978516
189	206.98135566711426	response	0	j		187.0	/experiments/Knapen_AOT/AOT_stimuli/pictures/0191_fw.png	289.1936492919922	
190	206.99780106544495	picture	0		527	188.0	/experiments/Knapen_AOT/AOT_stimuli/pictures/1847_fw.png	289.2100946903229	4.392228603363037
190	211.38139724731445	response	0	j		188.0	/experiments/Knapen_AOT/AOT_stimuli/pictures/1847_fw.png	293.5936908721924	
191	211.39002966880798	picture	0		98	189.0	/experiments/Knapen_AOT/AOT_stimuli/pictures/1954_fw.png	293.6023232936859	0.8194866180419922
191	212.19807267189026	response	0	k		189.0	/experiments/Knapen_AOT/AOT_stimuli/pictures/1954_fw.png	294.4103662967682	
192	212.20951628684998	picture	0		90	190.0	/experiments/Knapen_AOT/AOT_stimuli/pictures/0080_fw.png	294.4218099117279	0.7499876022338867
192	212.9482548236847	response	0	k		190.0	/experiments/Knapen_AOT/AOT_stimuli/pictures/0080_fw.png	295.1605484485626	
193	212.95950388908386	picture	0		120	191.0	/experiments/Knapen_AOT/AOT_stimuli/pictures/0745_fw.png	295.1717975139618	1.0050771236419678
193	213.94811058044434	response	0	k		191.0	/experiments/Knapen_AOT/AOT_stimuli/pictures/0745_fw.png	296.16040420532227	
194	213.96458101272583	picture	0		115	192.0	/experiments/Knapen_AOT/AOT_stimuli/pictures/0568_fw.png	296.17687463760376	0.9602196216583252
194	214.90723848342896	response	0	j		192.0	/experiments/Knapen_AOT/AOT_stimuli/pictures/0568_fw.png	297.1195321083069	
195	214.92480063438416	picture	0		108	193.0	/experiments/Knapen_AOT/AOT_stimuli/pictures/1503_fw.png	297.1370942592621	0.9027833938598633
195	215.81478929519653	response	0	j		193.0	/experiments/Knapen_AOT/AOT_stimuli/pictures/1503_fw.png	298.02708292007446	
196	215.82758402824402	picture	0		108	194.0	/experiments/Knapen_AOT/AOT_stimuli/pictures/0714_fw.png	298.03987765312195	0.9036741256713867
196	216.71504735946655	response	0	j		194.0	/experiments/Knapen_AOT/AOT_stimuli/pictures/0714_fw.png	298.9273409843445	
197	216.7312581539154	picture	0		103	195.0	/experiments/Knapen_AOT/AOT_stimuli/pictures/1009_fw.png	298.94355177879333	0.8602144718170166
197	217.58148336410522	response	0	k		195.0	/experiments/Knapen_AOT/AOT_stimuli/pictures/1009_fw.png	299.79377698898315	
198	217.59147262573242	picture	0		149	196.0	/experiments/Knapen_AOT/AOT_stimuli/pictures/0215_fw.png	299.80376625061035	1.2430684566497803
198	218.82316398620605	response	0	k		196.0	/experiments/Knapen_AOT/AOT_stimuli/pictures/0215_fw.png	301.035457611084	
199	218.8345410823822	picture	0		198	197.0	/experiments/Knapen_AOT/AOT_stimuli/pictures/0307_fw.png	301.04683470726013	1.6528468132019043
199	220.47318124771118	response	0	k		197.0	/experiments/Knapen_AOT/AOT_stimuli/pictures/0307_fw.png	302.6854748725891	
200	220.4873878955841	picture	0		83	198.0	/experiments/Knapen_AOT/AOT_stimuli/pictures/0999_fw.png	302.69968152046204	0.6943778991699219
200	221.17318773269653	response	0	j		198.0	/experiments/Knapen_AOT/AOT_stimuli/pictures/0999_fw.png	303.38548135757446	
201	221.18176579475403	picture	0		85	199.0	/experiments/Knapen_AOT/AOT_stimuli/pictures/1372_fw.png	303.39405941963196	0.7083308696746826
201	221.88140559196472	response	0	j		199.0	/experiments/Knapen_AOT/AOT_stimuli/pictures/1372_fw.png	304.09369921684265	
202	221.8900966644287	picture	0		126	200.0	/experiments/Knapen_AOT/AOT_stimuli/pictures/1486_fw.png	304.10239028930664	1.0578932762145996
202	222.93150925636292	response	0	k		200.0	/experiments/Knapen_AOT/AOT_stimuli/pictures/1486_fw.png	305.14380288124084	
203	222.9479899406433	picture	0		389	201.0	/experiments/Knapen_AOT/AOT_stimuli/pictures/1450_fw.png	305.16028356552124	3.2477378845214844
203	226.18158149719238	response	0	j		201.0	/experiments/Knapen_AOT/AOT_stimuli/pictures/1450_fw.png	308.3938751220703	
204	226.1957278251648	picture	0		89	202.0	/experiments/Knapen_AOT/AOT_stimuli/pictures/1422_fw.png	308.4080214500427	0.7523629665374756
204	226.93197464942932	response	0	k		202.0	/experiments/Knapen_AOT/AOT_stimuli/pictures/1422_fw.png	309.14426827430725	
205	226.94809079170227	picture	0		102	203.0	/experiments/Knapen_AOT/AOT_stimuli/pictures/0184_fw.png	309.1603844165802	0.8518073558807373
205	227.78995203971863	response	0	j		203.0	/experiments/Knapen_AOT/AOT_stimuli/pictures/0184_fw.png	310.00224566459656	
206	227.799898147583	picture	0		212	204.0	/experiments/Knapen_AOT/AOT_stimuli/pictures/0876_fw.png	310.01219177246094	1.773188591003418
206	229.55685019493103	response	0	j		204.0	/experiments/Knapen_AOT/AOT_stimuli/pictures/0876_fw.png	311.76914381980896	
207	229.57308673858643	picture	0		87	205.0	/experiments/Knapen_AOT/AOT_stimuli/pictures/0728_fw.png	311.78538036346436	0.7333800792694092
207	230.29008078575134	response	0	k		205.0	/experiments/Knapen_AOT/AOT_stimuli/pictures/0728_fw.png	312.5023744106293	
208	230.30646681785583	picture	0		87	206.0	/experiments/Knapen_AOT/AOT_stimuli/pictures/1621_fw.png	312.51876044273376	0.7295510768890381
208	231.02326917648315	response	0	j		206.0	/experiments/Knapen_AOT/AOT_stimuli/pictures/1621_fw.png	313.2355628013611	
209	231.03601789474487	picture	0		86	207.0	/experiments/Knapen_AOT/AOT_stimuli/pictures/1588_fw.png	313.2483115196228	0.7222232818603516
209	231.74830889701843	response	0	k		207.0	/experiments/Knapen_AOT/AOT_stimuli/pictures/1588_fw.png	313.96060252189636	
210	231.75824117660522	picture	0		92	208.0	/experiments/Knapen_AOT/AOT_stimuli/pictures/1178_fw.png	313.97053480148315	0.773209810256958
210	232.51550006866455	response	0	k		208.0	/experiments/Knapen_AOT/AOT_stimuli/pictures/1178_fw.png	314.7277936935425	
211	232.53145098686218	picture	0		81	209.0	/experiments/Knapen_AOT/AOT_stimuli/pictures/0831_fw.png	314.7437446117401	0.6781909465789795
211	233.19831347465515	response	0	j		209.0	/experiments/Knapen_AOT/AOT_stimuli/pictures/0831_fw.png	315.4106070995331	
212	233.20964193344116	picture	0		109	210.0	/experiments/Knapen_AOT/AOT_stimuli/pictures/0858_fw.png	315.4219355583191	0.9134960174560547
212	234.10667896270752	response	0	k		210.0	/experiments/Knapen_AOT/AOT_stimuli/pictures/0858_fw.png	316.31897258758545	
213	234.12313795089722	picture	0		85	211.0	/experiments/Knapen_AOT/AOT_stimuli/pictures/1072_fw.png	316.33543157577515	0.7166604995727539
213	234.82333970069885	response	0	j		211.0	/experiments/Knapen_AOT/AOT_stimuli/pictures/1072_fw.png	317.0356333255768	
214	234.83979845046997	picture	0		101	212.0	/experiments/Knapen_AOT/AOT_stimuli/pictures/0428_fw.png	317.0520920753479	0.8420548439025879
214	235.67331743240356	response	0	k		212.0	/experiments/Knapen_AOT/AOT_stimuli/pictures/0428_fw.png	317.8856110572815	
215	235.68185329437256	picture	0		98	213.0	/experiments/Knapen_AOT/AOT_stimuli/pictures/0672_fw.png	317.8941469192505	0.8246486186981201
215	236.49009776115417	response	0	j		213.0	/experiments/Knapen_AOT/AOT_stimuli/pictures/0672_fw.png	318.7023913860321	
216	236.50650191307068	picture	0		84	214.0	/experiments/Knapen_AOT/AOT_stimuli/pictures/0017_fw.png	318.7187955379486	0.7083284854888916
216	237.1983814239502	response	0	j		214.0	/experiments/Knapen_AOT/AOT_stimuli/pictures/0017_fw.png	319.4106750488281	
217	237.21483039855957	picture	0		300	215.0	/experiments/Knapen_AOT/AOT_stimuli/pictures/1706_fw.png	319.4271240234375	2.501798391342163
217	239.6994035243988	response	0	j		215.0	/experiments/Knapen_AOT/AOT_stimuli/pictures/1706_fw.png	321.91169714927673	
218	239.71662878990173	picture	0		144	216.0	/experiments/Knapen_AOT/AOT_stimuli/pictures/0753_fw.png	321.92892241477966	1.2065761089324951
218	240.89910912513733	response	0	k		216.0	/experiments/Knapen_AOT/AOT_stimuli/pictures/0753_fw.png	323.11140275001526	
219	240.92320489883423	picture	0		76	217.0	/experiments/Knapen_AOT/AOT_stimuli/pictures/1012_fw.png	323.13549852371216	0.6417193412780762
219	241.5484709739685	response	0	j		217.0	/experiments/Knapen_AOT/AOT_stimuli/pictures/1012_fw.png	323.76076459884644	
220	241.5649242401123	picture	0		116	218.0	/experiments/Knapen_AOT/AOT_stimuli/pictures/0700_fw.png	323.77721786499023	0.9749932289123535
220	242.52380466461182	response	0	k		218.0	/experiments/Knapen_AOT/AOT_stimuli/pictures/0700_fw.png	324.73609828948975	
221	242.53991746902466	picture	0		134	219.0	/experiments/Knapen_AOT/AOT_stimuli/pictures/1829_fw.png	324.7522110939026	1.1250836849212646
221	243.64843654632568	response	0	k		219.0	/experiments/Knapen_AOT/AOT_stimuli/pictures/1829_fw.png	325.8607301712036	
222	243.66500115394592	picture	0		448	220.0	/experiments/Knapen_AOT/AOT_stimuli/pictures/1151_fw.png	325.87729477882385	3.739208698272705
222	247.39016032218933	response	0	k		220.0	/experiments/Knapen_AOT/AOT_stimuli/pictures/1151_fw.png	329.60245394706726	
223	247.40420985221863	picture	0		112	221.0	/experiments/Knapen_AOT/AOT_stimuli/pictures/1970_fw.png	329.61650347709656	0.9440925121307373
223	248.33205270767212	response	0	k		221.0	/experiments/Knapen_AOT/AOT_stimuli/pictures/1970_fw.png	330.54434633255005	
224	248.34830236434937	picture	0		121	222.0	/experiments/Knapen_AOT/AOT_stimuli/pictures/1713_fw.png	330.5605959892273	1.0166962146759033
224	249.3484833240509	response	0	k		222.0	/experiments/Knapen_AOT/AOT_stimuli/pictures/1713_fw.png	331.56077694892883	
225	249.36499857902527	picture	0		104	223.0	/experiments/Knapen_AOT/AOT_stimuli/pictures/0720_fw.png	331.5772922039032	0.8750035762786865
225	250.22350764274597	response	0	k		223.0	/experiments/Knapen_AOT/AOT_stimuli/pictures/0720_fw.png	332.4358012676239	
226	250.24000215530396	picture	0		78	224.0	/experiments/Knapen_AOT/AOT_stimuli/pictures/1067_fw.png	332.4522957801819	0.6583538055419922
226	250.87541937828064	response	0	j		224.0	/experiments/Knapen_AOT/AOT_stimuli/pictures/1067_fw.png	333.08771300315857	
227	250.89835596084595	picture	0		106	225.0	/experiments/Knapen_AOT/AOT_stimuli/pictures/1158_fw.png	333.1106495857239	0.8916687965393066
227	251.77392148971558	response	0	j		225.0	/experiments/Knapen_AOT/AOT_stimuli/pictures/1158_fw.png	333.9862151145935	
228	251.79002475738525	picture	0		138	226.0	/experiments/Knapen_AOT/AOT_stimuli/pictures/0205_fw.png	334.0023183822632	1.1583421230316162
228	252.9319007396698	response	0	k		226.0	/experiments/Knapen_AOT/AOT_stimuli/pictures/0205_fw.png	335.14419436454773	
229	252.94836688041687	picture	0		98	227.0	/experiments/Knapen_AOT/AOT_stimuli/pictures/0293_fw.png	335.1606605052948	0.8250203132629395
229	253.75691485404968	response	0	k		227.0	/experiments/Knapen_AOT/AOT_stimuli/pictures/0293_fw.png	335.9692084789276	
230	253.7733871936798	picture	0		123	228.0	/experiments/Knapen_AOT/AOT_stimuli/pictures/1922_fw.png	335.98568081855774	1.0266878604888916
230	254.7902545928955	response	0	j		228.0	/experiments/Knapen_AOT/AOT_stimuli/pictures/1922_fw.png	337.00254821777344	
231	254.8000750541687	picture	0		99	229.0	/experiments/Knapen_AOT/AOT_stimuli/pictures/0588_fw.png	337.01236867904663	0.8316555023193359
231	255.6152377128601	response	0	j		229.0	/experiments/Knapen_AOT/AOT_stimuli/pictures/0588_fw.png	337.82753133773804	
232	255.63173055648804	picture	0		104	230.0	/experiments/Knapen_AOT/AOT_stimuli/pictures/1567_fw.png	337.84402418136597	0.8697447776794434
232	256.49027395248413	response	0	k		230.0	/experiments/Knapen_AOT/AOT_stimuli/pictures/1567_fw.png	338.70256757736206	
233	256.5014753341675	picture	0		112	231.0	/experiments/Knapen_AOT/AOT_stimuli/pictures/1849_fw.png	338.7137689590454	0.9305298328399658
233	257.4235990047455	response	0	k		231.0	/experiments/Knapen_AOT/AOT_stimuli/pictures/1849_fw.png	339.6358926296234	
234	257.43200516700745	picture	0		97	232.0	/experiments/Knapen_AOT/AOT_stimuli/pictures/1866_fw.png	339.6442987918854	0.8166179656982422
234	258.2320828437805	response	0	j		232.0	/experiments/Knapen_AOT/AOT_stimuli/pictures/1866_fw.png	340.44437646865845	
235	258.2486231327057	picture	0		103	233.0	/experiments/Knapen_AOT/AOT_stimuli/pictures/2144_fw.png	340.4609167575836	0.8664853572845459
235	259.0911979675293	response	0	k		233.0	/experiments/Knapen_AOT/AOT_stimuli/pictures/2144_fw.png	341.3034915924072	
236	259.11510848999023	picture	0		167	234.0	/experiments/Knapen_AOT/AOT_stimuli/pictures/0478_fw.png	341.32740211486816	1.3933334350585938
236	260.49863743782043	response	0	k		234.0	/experiments/Knapen_AOT/AOT_stimuli/pictures/0478_fw.png	342.71093106269836	
237	260.5084419250488	picture	0		82	235.0	/experiments/Knapen_AOT/AOT_stimuli/pictures/1434_fw.png	342.72073554992676	0.6875276565551758
237	261.1820909976959	response	0	j		235.0	/experiments/Knapen_AOT/AOT_stimuli/pictures/1434_fw.png	343.39438462257385	
238	261.195969581604	picture	0		109	236.0	/experiments/Knapen_AOT/AOT_stimuli/pictures/0630_fw.png	343.40826320648193	0.9191739559173584
238	262.09117007255554	response	0	k		236.0	/experiments/Knapen_AOT/AOT_stimuli/pictures/0630_fw.png	344.3034636974335	
239	262.11514353752136	picture	0		97	237.0	/experiments/Knapen_AOT/AOT_stimuli/pictures/1323_fw.png	344.3274371623993	0.8169341087341309
239	262.9154443740845	response	0	k		237.0	/experiments/Knapen_AOT/AOT_stimuli/pictures/1323_fw.png	345.1277379989624	
240	262.9320776462555	picture	0		127	238.0	/experiments/Knapen_AOT/AOT_stimuli/pictures/0048_fw.png	345.1443712711334	1.062509298324585
240	263.98205375671387	response	0	k		238.0	/experiments/Knapen_AOT/AOT_stimuli/pictures/0048_fw.png	346.1943473815918	
241	263.9945869445801	picture	0		104	239.0	/experiments/Knapen_AOT/AOT_stimuli/pictures/0419_fw.png	346.206880569458	0.8680782318115234
241	264.8487231731415	response	0	j		239.0	/experiments/Knapen_AOT/AOT_stimuli/pictures/0419_fw.png	347.0610167980194	
242	264.8626651763916	picture	0		126	240.0	/experiments/Knapen_AOT/AOT_stimuli/pictures/1268_fw.png	347.07495880126953	1.0608570575714111
242	265.90745878219604	response	0	k		240.0	/experiments/Knapen_AOT/AOT_stimuli/pictures/1268_fw.png	348.119752407074	
243	265.923522233963	picture	0		94	241.0	/experiments/Knapen_AOT/AOT_stimuli/pictures/1850_fw.png	348.13581585884094	0.7916791439056396
243	266.6915717124939	response	0	k		241.0	/experiments/Knapen_AOT/AOT_stimuli/pictures/1850_fw.png	348.9038653373718	
244	266.71520137786865	picture	0		431	242.0	/experiments/Knapen_AOT/AOT_stimuli/pictures/1337_fw.png	348.9274950027466	3.600045680999756
244	270.29145336151123	response	0	k		242.0	/experiments/Knapen_AOT/AOT_stimuli/pictures/1337_fw.png	352.50374698638916	
245	270.3152470588684	picture	0		119	243.0	/experiments/Knapen_AOT/AOT_stimuli/pictures/1305_fw.png	352.52754068374634	1.0000343322753906
245	271.2917811870575	response	0	j		243.0	/experiments/Knapen_AOT/AOT_stimuli/pictures/1305_fw.png	353.5040748119354	
246	271.3152813911438	picture	0		212	244.0	/experiments/Knapen_AOT/AOT_stimuli/pictures/0555_fw.png	353.52757501602173	1.7750322818756104
246	273.07383966445923	response	0	j		244.0	/experiments/Knapen_AOT/AOT_stimuli/pictures/0555_fw.png	355.28613328933716	
247	273.0903136730194	picture	0		75	245.0	/experiments/Knapen_AOT/AOT_stimuli/pictures/1255_fw.png	355.30260729789734	0.6333098411560059
247	273.7072503566742	response	0	j		245.0	/experiments/Knapen_AOT/AOT_stimuli/pictures/1255_fw.png	355.9195439815521	
248	273.7236235141754	picture	0		89	246.0	/experiments/Knapen_AOT/AOT_stimuli/pictures/0058_fw.png	355.93591713905334	0.7432434558868408
248	274.45723509788513	response	0	k		246.0	/experiments/Knapen_AOT/AOT_stimuli/pictures/0058_fw.png	356.66952872276306	
249	274.46686697006226	picture	0		505	247.0	/experiments/Knapen_AOT/AOT_stimuli/pictures/0380_fw.png	356.6791605949402	4.215181827545166
249	278.66574478149414	response	0	k		247.0	/experiments/Knapen_AOT/AOT_stimuli/pictures/0380_fw.png	360.87803840637207	
250	278.6820487976074	picture	0		85	248.0	/experiments/Knapen_AOT/AOT_stimuli/pictures/1746_fw.png	360.89434242248535	0.7084500789642334
250	279.3822844028473	response	0	k		248.0	/experiments/Knapen_AOT/AOT_stimuli/pictures/1746_fw.png	361.5945780277252	
251	279.39049887657166	picture	0		151	249.0	/experiments/Knapen_AOT/AOT_stimuli/pictures/0773_fw.png	361.6027925014496	1.266542673110962
251	280.64057755470276	response	0	k		249.0	/experiments/Knapen_AOT/AOT_stimuli/pictures/0773_fw.png	362.8528711795807	
252	280.6570415496826	picture	0		115	250.0	/experiments/Knapen_AOT/AOT_stimuli/pictures/0379_fw.png	362.86933517456055	0.9626595973968506
252	281.60725712776184	response	0	k		250.0	/experiments/Knapen_AOT/AOT_stimuli/pictures/0379_fw.png	363.81955075263977	
253	281.61970114707947	picture	0		264	251.0	/experiments/Knapen_AOT/AOT_stimuli/pictures/1686_fw.png	363.8319947719574	2.201425313949585
253	283.8072671890259	response	0	k		251.0	/experiments/Knapen_AOT/AOT_stimuli/pictures/1686_fw.png	366.0195608139038	
254	283.82112646102905	picture	0		62	252.0	/experiments/Knapen_AOT/AOT_stimuli/pictures/0079_fw.png	366.033420085907	0.5276250839233398
254	284.3323862552643	response	0	j		252.0	/experiments/Knapen_AOT/AOT_stimuli/pictures/0079_fw.png	366.5446798801422	
255	284.3487515449524	picture	0		104	253.0	/experiments/Knapen_AOT/AOT_stimuli/pictures/1043_fw.png	366.5610451698303	0.875157356262207
255	285.2074887752533	response	0	k		253.0	/experiments/Knapen_AOT/AOT_stimuli/pictures/1043_fw.png	367.4197824001312	
256	285.2239089012146	picture	0		101	254.0	/experiments/Knapen_AOT/AOT_stimuli/pictures/1139_fw.png	367.43620252609253	0.8498702049255371
256	286.05743169784546	response	0	k		254.0	/experiments/Knapen_AOT/AOT_stimuli/pictures/1139_fw.png	368.2697253227234	
257	286.07377910614014	picture	0		72	255.0	/experiments/Knapen_AOT/AOT_stimuli/pictures/1619_fw.png	368.28607273101807	0.6083433628082275
257	286.665646314621	response	0	j		255.0	/experiments/Knapen_AOT/AOT_stimuli/pictures/1619_fw.png	368.8779399394989	
258	286.68212246894836	picture	0		225	256.0	/experiments/Knapen_AOT/AOT_stimuli/pictures/0631_fw.png	368.8944160938263	1.8834021091461182
258	288.5493366718292	response	0	k		256.0	/experiments/Knapen_AOT/AOT_stimuli/pictures/0631_fw.png	370.76163029670715	
259	288.5655245780945	picture	0		137	257.0	/experiments/Knapen_AOT/AOT_stimuli/pictures/1770_fw.png	370.7778182029724	1.149958610534668
259	289.69146037101746	response	0	k		257.0	/experiments/Knapen_AOT/AOT_stimuli/pictures/1770_fw.png	371.9037539958954	
260	289.71548318862915	picture	0		74	258.0	/experiments/Knapen_AOT/AOT_stimuli/pictures/0156_fw.png	371.9277768135071	0.6195554733276367
260	290.3240954875946	response	0	j		258.0	/experiments/Knapen_AOT/AOT_stimuli/pictures/0156_fw.png	372.53638911247253	
261	290.3350386619568	picture	0		205	259.0	/experiments/Knapen_AOT/AOT_stimuli/pictures/0749_fw.png	372.5473322868347	1.7138240337371826
261	292.03235030174255	response	0	j		259.0	/experiments/Knapen_AOT/AOT_stimuli/pictures/0749_fw.png	374.2446439266205	
262	292.04886269569397	picture	0		80	260.0	/experiments/Knapen_AOT/AOT_stimuli/pictures/0482_fw.png	374.2611563205719	0.6750261783599854
262	292.70769929885864	response	0	j		260.0	/experiments/Knapen_AOT/AOT_stimuli/pictures/0482_fw.png	374.9199929237366	
263	292.72388887405396	picture	0		84	261.0	/experiments/Knapen_AOT/AOT_stimuli/pictures/1521_fw.png	374.9361824989319	0.7083010673522949
263	293.4158892631531	response	0	k		261.0	/experiments/Knapen_AOT/AOT_stimuli/pictures/1521_fw.png	375.628182888031	
264	293.43218994140625	picture	0		94	262.0	/experiments/Knapen_AOT/AOT_stimuli/pictures/1183_fw.png	375.6444835662842	0.7917013168334961
264	294.2074739933014	response	0	k		262.0	/experiments/Knapen_AOT/AOT_stimuli/pictures/1183_fw.png	376.4197676181793	
265	294.22389125823975	picture	0		100	263.0	/experiments/Knapen_AOT/AOT_stimuli/pictures/1325_fw.png	376.4361848831177	0.84165358543396
265	295.04908776283264	response	0	j		263.0	/experiments/Knapen_AOT/AOT_stimuli/pictures/1325_fw.png	377.26138138771057	
266	295.0655448436737	picture	0		78	264.0	/experiments/Knapen_AOT/AOT_stimuli/pictures/2054_fw.png	377.27783846855164	0.6584734916687012
266	295.7075378894806	response	0	j		264.0	/experiments/Knapen_AOT/AOT_stimuli/pictures/2054_fw.png	377.9198315143585	
267	295.7240183353424	picture	0		88	265.0	/experiments/Knapen_AOT/AOT_stimuli/pictures/2100_fw.png	377.93631196022034	0.7415988445281982
267	296.44910526275635	response	0	k		265.0	/experiments/Knapen_AOT/AOT_stimuli/pictures/2100_fw.png	378.6613988876343	
268	296.4656171798706	picture	0		75	266.0	/experiments/Knapen_AOT/AOT_stimuli/pictures/1221_fw.png	378.67791080474854	0.6264076232910156
268	297.0762686729431	response	0	j		266.0	/experiments/Knapen_AOT/AOT_stimuli/pictures/1221_fw.png	379.28856229782104	
269	297.0920248031616	picture	0		78	267.0	/experiments/Knapen_AOT/AOT_stimuli/pictures/0932_fw.png	379.30431842803955	0.6570084095001221
269	297.732458114624	response	0	j		267.0	/experiments/Knapen_AOT/AOT_stimuli/pictures/0932_fw.png	379.94475173950195	
270	297.74903321266174	picture	0		93	268.0	/experiments/Knapen_AOT/AOT_stimuli/pictures/0094_fw.png	379.9613268375397	0.783221960067749
270	298.5157814025879	response	0	j		268.0	/experiments/Knapen_AOT/AOT_stimuli/pictures/0094_fw.png	380.7280750274658	
271	298.5322551727295	picture	0		76	269.0	/experiments/Knapen_AOT/AOT_stimuli/pictures/0561_fw.png	380.7445487976074	0.6417801380157471
271	299.15748953819275	response	0	j		269.0	/experiments/Knapen_AOT/AOT_stimuli/pictures/0561_fw.png	381.3697831630707	
272	299.17403531074524	picture	0		93	270.0	/experiments/Knapen_AOT/AOT_stimuli/pictures/2156_fw.png	381.38632893562317	0.7832818031311035
272	299.94088196754456	response	0	k		270.0	/experiments/Knapen_AOT/AOT_stimuli/pictures/2156_fw.png	382.1531755924225	
273	299.95731711387634	picture	0		87	271.0	/experiments/Knapen_AOT/AOT_stimuli/pictures/0980_fw.png	382.1696107387543	0.7332968711853027
273	300.67418932914734	response	0	j		271.0	/experiments/Knapen_AOT/AOT_stimuli/pictures/0980_fw.png	382.88648295402527	
274	300.69061398506165	picture	0		87	272.0	/experiments/Knapen_AOT/AOT_stimuli/pictures/0405_fw.png	382.9029076099396	0.7333712577819824
274	301.4075162410736	response	0	j		272.0	/experiments/Knapen_AOT/AOT_stimuli/pictures/0405_fw.png	383.61980986595154	
275	301.4239852428436	picture	0		81	273.0	/experiments/Knapen_AOT/AOT_stimuli/pictures/0485_fw.png	383.63627886772156	0.6833081245422363
275	302.0837917327881	response	0	j		273.0	/experiments/Knapen_AOT/AOT_stimuli/pictures/0485_fw.png	384.296085357666	
276	302.10729336738586	picture	0		85	274.0	/experiments/Knapen_AOT/AOT_stimuli/pictures/0038_fw.png	384.3195869922638	0.713942289352417
276	302.807559967041	response	0	j		274.0	/experiments/Knapen_AOT/AOT_stimuli/pictures/0038_fw.png	385.01985359191895	
277	302.8212356567383	picture	0		90	275.0	/experiments/Knapen_AOT/AOT_stimuli/pictures/0962_fw.png	385.0335292816162	0.7610893249511719
277	303.565842628479	response	0	j		275.0	/experiments/Knapen_AOT/AOT_stimuli/pictures/0962_fw.png	385.77813625335693	
278	303.58232498168945	picture	0		74	276.0	/experiments/Knapen_AOT/AOT_stimuli/pictures/0232_fw.png	385.7946186065674	0.6250131130218506
278	304.19084668159485	response	0	j		276.0	/experiments/Knapen_AOT/AOT_stimuli/pictures/0232_fw.png	386.4031403064728	
279	304.2073380947113	picture	0		101	277.0	/experiments/Knapen_AOT/AOT_stimuli/pictures/0242_fw.png	386.41963171958923	0.8430776596069336
279	305.0412588119507	response	0	j		277.0	/experiments/Knapen_AOT/AOT_stimuli/pictures/0242_fw.png	387.2535524368286	
280	305.05041575431824	picture	0		110	278.0	/experiments/Knapen_AOT/AOT_stimuli/pictures/1796_fw.png	387.26270937919617	0.9236326217651367
280	305.9576232433319	response	0	j		278.0	/experiments/Knapen_AOT/AOT_stimuli/pictures/1796_fw.png	388.16991686820984	
281	305.9740483760834	picture	0		195	279.0	/experiments/Knapen_AOT/AOT_stimuli/pictures/0772_fw.png	388.1863420009613	1.633336067199707
281	307.59116530418396	response	0	k		279.0	/experiments/Knapen_AOT/AOT_stimuli/pictures/0772_fw.png	389.8034589290619	
282	307.6073844432831	picture	0		118	280.0	/experiments/Knapen_AOT/AOT_stimuli/pictures/0445_fw.png	389.819678068161	0.9916789531707764
282	308.58269333839417	response	0	k		280.0	/experiments/Knapen_AOT/AOT_stimuli/pictures/0445_fw.png	390.7949869632721	
283	308.59906339645386	picture	0		97	281.0	/experiments/Knapen_AOT/AOT_stimuli/pictures/1160_fw.png	390.8113570213318	0.8125011920928955
283	309.39924573898315	response	0	k		281.0	/experiments/Knapen_AOT/AOT_stimuli/pictures/1160_fw.png	391.6115393638611	
284	309.41156458854675	picture	0		122	282.0	/experiments/Knapen_AOT/AOT_stimuli/pictures/1710_fw.png	391.6238582134247	1.0208806991577148
284	310.41622734069824	response	0	k		282.0	/experiments/Knapen_AOT/AOT_stimuli/pictures/1710_fw.png	392.6285209655762	
285	310.43244528770447	picture	0		88	283.0	/experiments/Knapen_AOT/AOT_stimuli/pictures/2166_fw.png	392.6447389125824	0.7416439056396484
285	311.15791726112366	response	0	k		283.0	/experiments/Knapen_AOT/AOT_stimuli/pictures/2166_fw.png	393.3702108860016	
286	311.1740891933441	picture	0		163	284.0	/experiments/Knapen_AOT/AOT_stimuli/pictures/0684_fw.png	393.38638281822205	1.3666713237762451
286	312.52449083328247	response	0	k		284.0	/experiments/Knapen_AOT/AOT_stimuli/pictures/0684_fw.png	394.7367844581604	
287	312.54076051712036	picture	0		81	285.0	/experiments/Knapen_AOT/AOT_stimuli/pictures/0546_fw.png	394.7530541419983	0.6833901405334473
287	313.20768189430237	response	0	j		285.0	/experiments/Knapen_AOT/AOT_stimuli/pictures/0546_fw.png	395.4199755191803	
288	313.2241506576538	picture	0		118	286.0	/experiments/Knapen_AOT/AOT_stimuli/pictures/2023_fw.png	395.43644428253174	0.9860701560974121
288	314.19929599761963	response	0	k		286.0	/experiments/Knapen_AOT/AOT_stimuli/pictures/2023_fw.png	396.41158962249756	
289	314.2102208137512	picture	0		77	287.0	/experiments/Knapen_AOT/AOT_stimuli/pictures/0931_fw.png	396.42251443862915	0.6472384929656982
289	314.8410143852234	response	0	j		287.0	/experiments/Knapen_AOT/AOT_stimuli/pictures/0931_fw.png	397.0533080101013	
290	314.8574593067169	picture	0		78	288.0	/experiments/Knapen_AOT/AOT_stimuli/pictures/0688_fw.png	397.06975293159485	0.6583383083343506
290	315.4994282722473	response	0	j		288.0	/experiments/Knapen_AOT/AOT_stimuli/pictures/0688_fw.png	397.71172189712524	
291	315.51579761505127	picture	0		92	289.0	/experiments/Knapen_AOT/AOT_stimuli/pictures/0713_fw.png	397.7280912399292	0.7708206176757812
291	316.2743937969208	response	0	j		289.0	/experiments/Knapen_AOT/AOT_stimuli/pictures/0713_fw.png	398.4866874217987	
292	316.28661823272705	picture	0		121	290.0	/experiments/Knapen_AOT/AOT_stimuli/pictures/1853_fw.png	398.498911857605	1.0209107398986816
292	317.29131412506104	response	0	k		290.0	/experiments/Knapen_AOT/AOT_stimuli/pictures/1853_fw.png	399.50360774993896	
293	317.30752897262573	picture	0		159	291.0	/experiments/Knapen_AOT/AOT_stimuli/pictures/0372_fw.png	399.51982259750366	1.3333256244659424
293	318.6243622303009	response	0	k		291.0	/experiments/Knapen_AOT/AOT_stimuli/pictures/0372_fw.png	400.83665585517883	
294	318.6408545970917	picture	0		89	292.0	/experiments/Knapen_AOT/AOT_stimuli/pictures/1500_fw.png	400.8531482219696	0.7499978542327881
294	319.3745584487915	response	0	k		292.0	/experiments/Knapen_AOT/AOT_stimuli/pictures/1500_fw.png	401.58685207366943	
295	319.39085245132446	picture	0		110	293.0	/experiments/Knapen_AOT/AOT_stimuli/pictures/2158_fw.png	401.6031460762024	0.9166395664215088
295	320.29935598373413	response	0	k		293.0	/experiments/Knapen_AOT/AOT_stimuli/pictures/2158_fw.png	402.51164960861206	
296	320.307492017746	picture	0		111	294.0	/experiments/Knapen_AOT/AOT_stimuli/pictures/1485_fw.png	402.5197856426239	0.9333970546722412
296	321.2243914604187	response	0	k		294.0	/experiments/Knapen_AOT/AOT_stimuli/pictures/1485_fw.png	403.43668508529663	
297	321.2408890724182	picture	0		68	295.0	/experiments/Knapen_AOT/AOT_stimuli/pictures/1011_fw.png	403.45318269729614	0.5750477313995361
297	321.79962182044983	response	0	j		295.0	/experiments/Knapen_AOT/AOT_stimuli/pictures/1011_fw.png	404.01191544532776	
298	321.81593680381775	picture	0		167	296.0	/experiments/Knapen_AOT/AOT_stimuli/pictures/0035_fw.png	404.0282304286957	1.3999834060668945
298	323.19941806793213	response	0	j		296.0	/experiments/Knapen_AOT/AOT_stimuli/pictures/0035_fw.png	405.41171169281006	
299	323.21592020988464	picture	0		89	297.0	/experiments/Knapen_AOT/AOT_stimuli/pictures/0434_fw.png	405.4282138347626	0.7499971389770508
299	323.94946813583374	response	0	j		297.0	/experiments/Knapen_AOT/AOT_stimuli/pictures/0434_fw.png	406.16176176071167	
300	323.9659173488617	picture	0		87	298.0	/experiments/Knapen_AOT/AOT_stimuli/pictures/0285_fw.png	406.1782109737396	0.7304849624633789
300	324.6827623844147	response	0	k		298.0	/experiments/Knapen_AOT/AOT_stimuli/pictures/0285_fw.png	406.8950560092926	
301	324.6964023113251	picture	0		190	299.0	/experiments/Knapen_AOT/AOT_stimuli/pictures/0935_fw.png	406.908695936203	1.594590663909912
301	326.2744314670563	response	0	j		299.0	/experiments/Knapen_AOT/AOT_stimuli/pictures/0935_fw.png	408.4867250919342	
302	326.290992975235	picture	0		119	300.0	/experiments/Knapen_AOT/AOT_stimuli/pictures/0386_fw.png	408.5032866001129	0.9957349300384521
302	327.27446579933167	response	0	k		300.0	/experiments/Knapen_AOT/AOT_stimuli/pictures/0386_fw.png	409.4867594242096	
303	327.28672790527344	picture	0		97	301.0	/experiments/Knapen_AOT/AOT_stimuli/pictures/0731_fw.png	409.49902153015137	0.8055117130279541
303	328.0829002857208	response	0	j		301.0	/experiments/Knapen_AOT/AOT_stimuli/pictures/0731_fw.png	410.29519391059875	
304	328.0922396183014	picture	0		158	302.0	/experiments/Knapen_AOT/AOT_stimuli/pictures/0257_fw.png	410.3045332431793	1.3194451332092285
304	329.3996229171753	response	0	k		302.0	/experiments/Knapen_AOT/AOT_stimuli/pictures/0257_fw.png	411.6119165420532	
305	329.4116847515106	picture	0		176	303.0	/experiments/Knapen_AOT/AOT_stimuli/pictures/2169_fw.png	411.62397837638855	1.471001148223877
305	330.8661787509918	response	0	j		303.0	/experiments/Knapen_AOT/AOT_stimuli/pictures/2169_fw.png	413.07847237586975	
306	330.8826858997345	picture	0		100	304.0	/experiments/Knapen_AOT/AOT_stimuli/pictures/0145_fw.png	413.0949795246124	0.8416666984558105
306	331.70824098587036	response	0	j		304.0	/experiments/Knapen_AOT/AOT_stimuli/pictures/0145_fw.png	413.9205346107483	
307	331.7243525981903	picture	0		97	305.0	/experiments/Knapen_AOT/AOT_stimuli/pictures/0655_fw.png	413.93664622306824	0.8123805522918701
307	332.5245282649994	response	0	k		305.0	/experiments/Knapen_AOT/AOT_stimuli/pictures/0655_fw.png	414.7368218898773	
308	332.5367331504822	picture	0		95	306.0	/experiments/Knapen_AOT/AOT_stimuli/pictures/1462_fw.png	414.7490267753601	0.7916789054870605
308	333.316241979599	response	0	j		306.0	/experiments/Knapen_AOT/AOT_stimuli/pictures/1462_fw.png	415.52853560447693	
309	333.32841205596924	picture	0		87	307.0	/experiments/Knapen_AOT/AOT_stimuli/pictures/1159_fw.png	415.54070568084717	0.7292897701263428
309	334.04123735427856	response	0	j		307.0	/experiments/Knapen_AOT/AOT_stimuli/pictures/1159_fw.png	416.2535309791565	
310	334.0577018260956	picture	0		77	308.0	/experiments/Knapen_AOT/AOT_stimuli/pictures/1586_fw.png	416.2699954509735	0.6456997394561768
310	334.6836874485016	response	0	j		308.0	/experiments/Knapen_AOT/AOT_stimuli/pictures/1586_fw.png	416.8959810733795	
311	334.70340156555176	picture	0		101	309.0	/experiments/Knapen_AOT/AOT_stimuli/pictures/1718_fw.png	416.9156951904297	0.8460109233856201
311	335.5329489707947	response	0	j		309.0	/experiments/Knapen_AOT/AOT_stimuli/pictures/1718_fw.png	417.7452425956726	
312	335.5494124889374	picture	0		101	310.0	/experiments/Knapen_AOT/AOT_stimuli/pictures/0804_fw.png	417.7617061138153	0.8499755859375
312	336.383029460907	response	0	k		310.0	/experiments/Knapen_AOT/AOT_stimuli/pictures/0804_fw.png	418.5953230857849	
313	336.3993880748749	picture	0		171	311.0	/experiments/Knapen_AOT/AOT_stimuli/pictures/0695_fw.png	418.6116816997528	1.4334113597869873
313	337.8162434101105	response	0	k		311.0	/experiments/Knapen_AOT/AOT_stimuli/pictures/0695_fw.png	420.0285370349884	
314	337.83279943466187	picture	0		70	312.0	/experiments/Knapen_AOT/AOT_stimuli/pictures/1348_fw.png	420.0450930595398	0.5916368961334229
314	338.4080340862274	response	0	j		312.0	/experiments/Knapen_AOT/AOT_stimuli/pictures/1348_fw.png	420.62032771110535	
315	338.4244363307953	picture	0		119	313.0	/experiments/Knapen_AOT/AOT_stimuli/pictures/0290_fw.png	420.6367299556732	1.0000104904174805
315	339.408002614975	response	0	k		313.0	/experiments/Knapen_AOT/AOT_stimuli/pictures/0290_fw.png	421.6202962398529	
316	339.42444682121277	picture	0		86	314.0	/experiments/Knapen_AOT/AOT_stimuli/pictures/1353_fw.png	421.6367404460907	0.7249815464019775
316	340.13295221328735	response	0	k		314.0	/experiments/Knapen_AOT/AOT_stimuli/pictures/1353_fw.png	422.3452458381653	
317	340.14942836761475	picture	0		101	315.0	/experiments/Knapen_AOT/AOT_stimuli/pictures/1916_fw.png	422.3617219924927	0.8456857204437256
317	340.98295879364014	response	0	j		315.0	/experiments/Knapen_AOT/AOT_stimuli/pictures/1916_fw.png	423.19525241851807	
318	340.9951140880585	picture	0		90	316.0	/experiments/Knapen_AOT/AOT_stimuli/pictures/1111_fw.png	423.2074077129364	0.7543802261352539
318	341.73299860954285	response	0	j		316.0	/experiments/Knapen_AOT/AOT_stimuli/pictures/1111_fw.png	423.9452922344208	
319	341.7494943141937	picture	0		102	317.0	/experiments/Knapen_AOT/AOT_stimuli/pictures/0295_fw.png	423.96178793907166	0.8583152294158936
319	342.5915279388428	response	0	k		317.0	/experiments/Knapen_AOT/AOT_stimuli/pictures/0295_fw.png	424.8038215637207	
320	342.6078095436096	picture	0		144	318.0	/experiments/Knapen_AOT/AOT_stimuli/pictures/0582_fw.png	424.82010316848755	1.2083828449249268
320	343.79965138435364	response	0	k		318.0	/experiments/Knapen_AOT/AOT_stimuli/pictures/0582_fw.png	426.01194500923157	
321	343.81619238853455	picture	0		91	319.0	/experiments/Knapen_AOT/AOT_stimuli/pictures/0456_fw.png	426.0284860134125	0.7666189670562744
321	344.56653809547424	response	0	k		319.0	/experiments/Knapen_AOT/AOT_stimuli/pictures/0456_fw.png	426.7788317203522	
322	344.5828113555908	picture	0		82	320.0	/experiments/Knapen_AOT/AOT_stimuli/pictures/2058_fw.png	426.79510498046875	0.6917209625244141
322	345.2583258152008	response	0	j		320.0	/experiments/Knapen_AOT/AOT_stimuli/pictures/2058_fw.png	427.47061944007874	
323	345.27453231811523	picture	0		274	321.0	/experiments/Knapen_AOT/AOT_stimuli/pictures/2073_fw.png	427.48682594299316	2.291710376739502
323	347.54995107650757	response	0	k		321.0	/experiments/Knapen_AOT/AOT_stimuli/pictures/2073_fw.png	429.7622447013855	
324	347.56624269485474	picture	0		89	322.0	/experiments/Knapen_AOT/AOT_stimuli/pictures/0576_fw.png	429.77853631973267	0.7499654293060303
324	348.2997109889984	response	0	j		322.0	/experiments/Knapen_AOT/AOT_stimuli/pictures/0576_fw.png	430.51200461387634	
325	348.31620812416077	picture	0		97	323.0	/experiments/Knapen_AOT/AOT_stimuli/pictures/0141_fw.png	430.5285017490387	0.8109283447265625
325	349.1163864135742	response	0	k		323.0	/experiments/Knapen_AOT/AOT_stimuli/pictures/0141_fw.png	431.32868003845215	
326	349.12713646888733	picture	0		170	324.0	/experiments/Knapen_AOT/AOT_stimuli/pictures/0435_fw.png	431.33943009376526	1.4224770069122314
326	350.53310227394104	response	0	k		324.0	/experiments/Knapen_AOT/AOT_stimuli/pictures/0435_fw.png	432.74539589881897	
327	350.54961347579956	picture	0		93	325.0	/experiments/Knapen_AOT/AOT_stimuli/pictures/0853_fw.png	432.7619071006775	0.7858994007110596
327	351.3168246746063	response	0	k		325.0	/experiments/Knapen_AOT/AOT_stimuli/pictures/0853_fw.png	433.52911829948425	
328	351.3355128765106	picture	0		144	326.0	/experiments/Knapen_AOT/AOT_stimuli/pictures/0092_fw.png	433.54780650138855	1.205791711807251
328	352.525018453598	response	0	k		326.0	/experiments/Knapen_AOT/AOT_stimuli/pictures/0092_fw.png	434.73731207847595	
329	352.54130458831787	picture	0		116	327.0	/experiments/Knapen_AOT/AOT_stimuli/pictures/0727_fw.png	434.7535982131958	0.9749703407287598
329	353.4997172355652	response	0	k		327.0	/experiments/Knapen_AOT/AOT_stimuli/pictures/0727_fw.png	435.7120108604431	
330	353.51627492904663	picture	0		146	328.0	/experiments/Knapen_AOT/AOT_stimuli/pictures/0197_fw.png	435.72856855392456	1.2220005989074707
330	354.7247483730316	response	0	k		328.0	/experiments/Knapen_AOT/AOT_stimuli/pictures/0197_fw.png	436.93704199790955	
331	354.7382755279541	picture	0		82	329.0	/experiments/Knapen_AOT/AOT_stimuli/pictures/2062_fw.png	436.95056915283203	0.6874914169311523
331	355.41653513908386	response	0	k		329.0	/experiments/Knapen_AOT/AOT_stimuli/pictures/2062_fw.png	437.6288287639618	
332	355.42576694488525	picture	0		105	330.0	/experiments/Knapen_AOT/AOT_stimuli/pictures/0207_fw.png	437.6380605697632	0.8822281360626221
332	356.2918176651001	response	0	j		330.0	/experiments/Knapen_AOT/AOT_stimuli/pictures/0207_fw.png	438.504111289978	
333	356.3079950809479	picture	0		106	331.0	/experiments/Knapen_AOT/AOT_stimuli/pictures/0322_fw.png	438.5202887058258	0.891648530960083
333	357.18346762657166	response	0	j		331.0	/experiments/Knapen_AOT/AOT_stimuli/pictures/0322_fw.png	439.3957612514496	
334	357.19964361190796	picture	0		98	332.0	/experiments/Knapen_AOT/AOT_stimuli/pictures/0726_fw.png	439.4119372367859	0.825021505355835
334	358.0084364414215	response	0	j		332.0	/experiments/Knapen_AOT/AOT_stimuli/pictures/0726_fw.png	440.22073006629944	
335	358.0246651172638	picture	0		80	333.0	/experiments/Knapen_AOT/AOT_stimuli/pictures/1729_fw.png	440.2369587421417	0.6750335693359375
335	358.6757781505585	response	0	j		333.0	/experiments/Knapen_AOT/AOT_stimuli/pictures/1729_fw.png	440.8880717754364	
336	358.69969868659973	picture	0		114	334.0	/experiments/Knapen_AOT/AOT_stimuli/pictures/1051_fw.png	440.91199231147766	0.9583442211151123
336	359.6415629386902	response	0	k		334.0	/experiments/Knapen_AOT/AOT_stimuli/pictures/1051_fw.png	441.8538565635681	
337	359.65804290771484	picture	0		103	335.0	/experiments/Knapen_AOT/AOT_stimuli/pictures/1669_fw.png	441.8703365325928	0.8666520118713379
337	360.50821232795715	response	0	k		335.0	/experiments/Knapen_AOT/AOT_stimuli/pictures/1669_fw.png	442.7205059528351	
338	360.5246949195862	picture	0		74	336.0	/experiments/Knapen_AOT/AOT_stimuli/pictures/1071_fw.png	442.7369885444641	0.6166324615478516
338	361.1332085132599	response	0	j		336.0	/experiments/Knapen_AOT/AOT_stimuli/pictures/1071_fw.png	443.3455021381378	
339	361.14132738113403	picture	0		230	337.0	/experiments/Knapen_AOT/AOT_stimuli/pictures/0370_fw.png	443.35362100601196	1.9251015186309814
339	363.0499303340912	response	0	j		337.0	/experiments/Knapen_AOT/AOT_stimuli/pictures/0370_fw.png	445.2622239589691	
340	363.066428899765	picture	0		80	338.0	/experiments/Knapen_AOT/AOT_stimuli/pictures/2047_fw.png	445.27872252464294	0.6749875545501709
340	363.7249298095703	response	0	j		338.0	/experiments/Knapen_AOT/AOT_stimuli/pictures/2047_fw.png	445.93722343444824	
341	363.7414164543152	picture	0		111	339.0	/experiments/Knapen_AOT/AOT_stimuli/pictures/2002_fw.png	445.9537100791931	0.9333534240722656
341	364.65829491615295	response	0	j		339.0	/experiments/Knapen_AOT/AOT_stimuli/pictures/2002_fw.png	446.8705885410309	
342	364.67476987838745	picture	0		73	340.0	/experiments/Knapen_AOT/AOT_stimuli/pictures/1001_fw.png	446.8870635032654	0.6167752742767334
342	365.2749330997467	response	0	j		340.0	/experiments/Knapen_AOT/AOT_stimuli/pictures/1001_fw.png	447.48722672462463	
343	365.2915451526642	picture	0		128	341.0	/experiments/Knapen_AOT/AOT_stimuli/pictures/1119_fw.png	447.5038387775421	1.0748703479766846
343	366.35009813308716	response	0	k		341.0	/experiments/Knapen_AOT/AOT_stimuli/pictures/1119_fw.png	448.5623917579651	
344	366.36641550064087	picture	0		79	342.0	/experiments/Knapen_AOT/AOT_stimuli/pictures/0888_fw.png	448.5787091255188	0.6667482852935791
344	367.0166549682617	response	0	j		342.0	/experiments/Knapen_AOT/AOT_stimuli/pictures/0888_fw.png	449.22894859313965	
345	367.03316378593445	picture	0		81	343.0	/experiments/Knapen_AOT/AOT_stimuli/pictures/0793_fw.png	449.2454574108124	0.6832783222198486
345	367.7000060081482	response	0	j		343.0	/experiments/Knapen_AOT/AOT_stimuli/pictures/0793_fw.png	449.9122996330261	
346	367.7164421081543	picture	0		120	344.0	/experiments/Knapen_AOT/AOT_stimuli/pictures/1405_fw.png	449.9287357330322	1.0083472728729248
346	368.70858788490295	response	0	k		344.0	/experiments/Knapen_AOT/AOT_stimuli/pictures/1405_fw.png	450.9208815097809	
347	368.7247893810272	picture	0		119	345.0	/experiments/Knapen_AOT/AOT_stimuli/pictures/1456_fw.png	450.93708300590515	1.0000545978546143
347	369.70880913734436	response	0	j		345.0	/experiments/Knapen_AOT/AOT_stimuli/pictures/1456_fw.png	451.9211027622223	
348	369.72484397888184	picture	0		101	346.0	/experiments/Knapen_AOT/AOT_stimuli/pictures/2155_fw.png	451.93713760375977	0.8499846458435059
348	370.55836296081543	response	0	j		346.0	/experiments/Knapen_AOT/AOT_stimuli/pictures/2155_fw.png	452.77065658569336	
349	370.57482862472534	picture	0		120	347.0	/experiments/Knapen_AOT/AOT_stimuli/pictures/1650_fw.png	452.78712224960327	1.0083584785461426
349	371.5666723251343	response	0	j		347.0	/experiments/Knapen_AOT/AOT_stimuli/pictures/1650_fw.png	453.7789659500122	
350	371.5831871032715	picture	0		117	348.0	/experiments/Knapen_AOT/AOT_stimuli/pictures/1628_fw.png	453.7954807281494	0.9833283424377441
350	372.5502543449402	response	0	k		348.0	/experiments/Knapen_AOT/AOT_stimuli/pictures/1628_fw.png	454.7625479698181	
351	372.56651544570923	picture	0		90	349.0	/experiments/Knapen_AOT/AOT_stimuli/pictures/0029_fw.png	454.77880907058716	0.7583391666412354
351	373.3083550930023	response	0	j		349.0	/experiments/Knapen_AOT/AOT_stimuli/pictures/0029_fw.png	455.52064871788025	
352	373.32485461235046	picture	0		104	350.0	/experiments/Knapen_AOT/AOT_stimuli/pictures/1912_fw.png	455.5371482372284	0.8749954700469971
352	374.1834092140198	response	0	k		350.0	/experiments/Knapen_AOT/AOT_stimuli/pictures/1912_fw.png	456.3957028388977	
353	374.19985008239746	picture	0		105	351.0	/experiments/Knapen_AOT/AOT_stimuli/pictures/0125_fw.png	456.4121437072754	0.8833372592926025
353	375.0667953491211	response	0	k		351.0	/experiments/Knapen_AOT/AOT_stimuli/pictures/0125_fw.png	457.279088973999	
354	375.08318734169006	picture	0		103	352.0	/experiments/Knapen_AOT/AOT_stimuli/pictures/1646_fw.png	457.295480966568	0.8667149543762207
354	375.93338084220886	response	0	k		352.0	/experiments/Knapen_AOT/AOT_stimuli/pictures/1646_fw.png	458.1456744670868	
355	375.9499022960663	picture	0		95	353.0	/experiments/Knapen_AOT/AOT_stimuli/pictures/1061_fw.png	458.1621959209442	0.8000309467315674
355	376.7334225177765	response	0	j		353.0	/experiments/Knapen_AOT/AOT_stimuli/pictures/1061_fw.png	458.9457161426544	
356	376.74993324279785	picture	0		120	354.0	/experiments/Knapen_AOT/AOT_stimuli/pictures/0667_fw.png	458.9622268676758	1.0082931518554688
356	377.7417585849762	response	0	j		354.0	/experiments/Knapen_AOT/AOT_stimuli/pictures/0667_fw.png	459.9540522098541	
357	377.7582263946533	picture	0		111	355.0	/experiments/Knapen_AOT/AOT_stimuli/pictures/1662_fw.png	459.97052001953125	0.9333665370941162
357	378.6679639816284	response	0	j		355.0	/experiments/Knapen_AOT/AOT_stimuli/pictures/1662_fw.png	460.88025760650635	
358	378.69159293174744	picture	0		102	356.0	/experiments/Knapen_AOT/AOT_stimuli/pictures/0189_fw.png	460.90388655662537	0.8583574295043945
358	379.53345680236816	response	0	k		356.0	/experiments/Knapen_AOT/AOT_stimuli/pictures/0189_fw.png	461.7457504272461	
359	379.54995036125183	picture	0		94	357.0	/experiments/Knapen_AOT/AOT_stimuli/pictures/0856_fw.png	461.76224398612976	0.7916488647460938
359	380.3251564502716	response	0	k		357.0	/experiments/Knapen_AOT/AOT_stimuli/pictures/0856_fw.png	462.53745007514954	
360	380.3415992259979	picture	0		165	358.0	/experiments/Knapen_AOT/AOT_stimuli/pictures/0796_fw.png	462.55389285087585	1.3833446502685547
360	381.7084975242615	response	0	k		358.0	/experiments/Knapen_AOT/AOT_stimuli/pictures/0796_fw.png	463.9207911491394	
361	381.7249438762665	picture	0		146	359.0	/experiments/Knapen_AOT/AOT_stimuli/pictures/1402_fw.png	463.9372375011444	1.2250263690948486
361	382.9335021972656	response	0	k		359.0	/experiments/Knapen_AOT/AOT_stimuli/pictures/1402_fw.png	465.14579582214355	
362	382.9499702453613	stim	0		467			465.16226387023926	3.9033167362213135
362	386.83833479881287	response	0	space				469.0506284236908	
