trial_nr	onset	event_type	phase	response	nr_frames	picture_index	picture_file	onset_abs	duration
0	0.2625391250476241	stim	0		427			66.39245141705032	3.6714694999391213
0	3.909559458028525	response	0	space				70.03947175003123	
2	3.9340086249867454	picture	0		304	0.0	/Users/shufanzhang/AOT_stimuli/pictures/0917_fw.png	70.06392091698945	2.5384097080677748
2	6.456832917057909	response	0	j		0.0	/Users/shufanzhang/AOT_stimuli/pictures/0917_fw.png	72.58674520906061	
3	6.47241833305452	picture	0		106	1.0	/Users/shufanzhang/AOT_stimuli/pictures/1746_fw.png	72.60233062505722	0.8806828339584172
3	7.341446332982741	response	0	k		1.0	/Users/shufanzhang/AOT_stimuli/pictures/1746_fw.png	73.47135862498544	
4	7.353101167012937	picture	0		80	2.0	/Users/shufanzhang/AOT_stimuli/pictures/2038_fw.png	73.48301345901564	0.6656065409770235
4	8.007631749962457	response	0	j		2.0	/Users/shufanzhang/AOT_stimuli/pictures/2038_fw.png	74.13754404196516	
5	8.018707707989961	picture	0		158	3.0	/Users/shufanzhang/AOT_stimuli/pictures/0593_fw.png	74.14861999999266	1.3177547090454027
5	9.324846041970886	response	0	k		3.0	/Users/shufanzhang/AOT_stimuli/pictures/0593_fw.png	75.45475833397359	
6	9.336462417035364	picture	0		63	4.0	/Users/shufanzhang/AOT_stimuli/pictures/0515_fw.png	75.46637470903806	0.5236358329420909
6	9.848521167063154	response	0	j		4.0	/Users/shufanzhang/AOT_stimuli/pictures/0515_fw.png	75.97843345906585	
7	9.860098249977455	picture	0		56	5.0	/Users/shufanzhang/AOT_stimuli/pictures/2107_fw.png	75.99001054198015	0.45961216709110886
7	10.307976832962595	response	0	k		5.0	/Users/shufanzhang/AOT_stimuli/pictures/2107_fw.png	76.4378891249653	
8	10.319710417068563	picture	0		38	6.0	/Users/shufanzhang/AOT_stimuli/pictures/0272_fw.png	76.44962270907126	0.31273945793509483
8	10.623337208060548	response	0	j		6.0	/Users/shufanzhang/AOT_stimuli/pictures/0272_fw.png	76.75324950006325	
9	10.632449875003658	picture	0		51	7.0	/Users/shufanzhang/AOT_stimuli/pictures/0643_fw.png	76.76236216700636	0.43345429201144725
9	11.059649667004123	response	0	k		7.0	/Users/shufanzhang/AOT_stimuli/pictures/0643_fw.png	77.18956195900682	
10	11.065904167015105	picture	0		52	8.0	/Users/shufanzhang/AOT_stimuli/pictures/0466_fw.png	77.1958164590178	0.42793012503534555
10	11.475273916963488	response	0	j		8.0	/Users/shufanzhang/AOT_stimuli/pictures/0466_fw.png	77.60518620896619	
11	11.493834292050451	picture	0		66	9.0	/Users/shufanzhang/AOT_stimuli/pictures/1567_fw.png	77.62374658405315	0.5535108749754727
11	12.039055458037183	response	0	k		9.0	/Users/shufanzhang/AOT_stimuli/pictures/1567_fw.png	78.16896775003988	
12	12.047345167025924	picture	0		44	10.0	/Users/shufanzhang/AOT_stimuli/pictures/1261_fw.png	78.17725745902862	0.3797595410142094
12	12.41588004201185	response	0	j		10.0	/Users/shufanzhang/AOT_stimuli/pictures/1261_fw.png	78.54579233401455	
13	12.427104708040133	picture	0		39	11.0	/Users/shufanzhang/AOT_stimuli/pictures/0821_fw.png	78.55701700004283	0.3260494589339942
13	12.741691500064917	response	0	k		11.0	/Users/shufanzhang/AOT_stimuli/pictures/0821_fw.png	78.87160379206762	
14	12.753154166974127	picture	0		46	12.0	/Users/shufanzhang/AOT_stimuli/pictures/2102_fw.png	78.88306645897683	0.381688000052236
14	13.125060082995333	response	0	j		12.0	/Users/shufanzhang/AOT_stimuli/pictures/2102_fw.png	79.25497237499803	
15	13.134842167026363	picture	0		65	13.0	/Users/shufanzhang/AOT_stimuli/pictures/0889_fw.png	79.26475445902906	0.5338565829442814
15	13.657413833076134	response	0	k		13.0	/Users/shufanzhang/AOT_stimuli/pictures/0889_fw.png	79.78732612507883	
16	13.668698749970645	picture	0		38	14.0	/Users/shufanzhang/AOT_stimuli/pictures/1367_fw.png	79.79861104197334	0.3274745000526309
16	13.984520624973811	response	0	j		14.0	/Users/shufanzhang/AOT_stimuli/pictures/1367_fw.png	80.11443291697651	
17	13.996173250023276	picture	0		41	15.0	/Users/shufanzhang/AOT_stimuli/pictures/1627_fw.png	80.12608554202598	0.328776124981232
17	14.311645708046854	response	0	k		15.0	/Users/shufanzhang/AOT_stimuli/pictures/1627_fw.png	80.44155800004955	
18	14.324949375004508	picture	0		44	16.0	/Users/shufanzhang/AOT_stimuli/pictures/0107_fw.png	80.45486166700721	0.3667348329909146
18	14.677304333075881	response	0	j		16.0	/Users/shufanzhang/AOT_stimuli/pictures/0107_fw.png	80.80721662507858	
19	14.691684207995422	picture	0		32	17.0	/Users/shufanzhang/AOT_stimuli/pictures/1467_fw.png	80.82159649999812	0.2816062920028344
19	14.960553625016473	response	0	k		17.0	/Users/shufanzhang/AOT_stimuli/pictures/1467_fw.png	81.09046591701917	
20	14.973290499998257	picture	0		36	18.0	/Users/shufanzhang/AOT_stimuli/pictures/0048_fw.png	81.10320279200096	0.2868970000417903
20	15.248686125036329	response	0	j		18.0	/Users/shufanzhang/AOT_stimuli/pictures/0048_fw.png	81.37859841703903	
21	15.260187500040047	picture	0		28	19.0	/Users/shufanzhang/AOT_stimuli/pictures/1626_fw.png	81.39009979204275	0.25134812493342906
21	15.500549167045392	response	0	j		19.0	/Users/shufanzhang/AOT_stimuli/pictures/1626_fw.png	81.63046145904809	
22	15.511535624973476	picture	0		34	20.0	/Users/shufanzhang/AOT_stimuli/pictures/0424_fw.png	81.64144791697618	0.2730515000876039
22	15.775521958013996	response	0	j		20.0	/Users/shufanzhang/AOT_stimuli/pictures/0424_fw.png	81.9054342500167	
23	15.78458712506108	picture	0		30	21.0	/Users/shufanzhang/AOT_stimuli/pictures/0770_fw.png	81.91449941706378	0.246726332930848
23	16.022959167021327	response	0	j		21.0	/Users/shufanzhang/AOT_stimuli/pictures/0770_fw.png	82.15287145902403	
24	16.031313457991928	picture	0		31	22.0	/Users/shufanzhang/AOT_stimuli/pictures/1608_fw.png	82.16122574999463	0.27298070897813886
24	16.292795000015758	response	0	j		22.0	/Users/shufanzhang/AOT_stimuli/pictures/1608_fw.png	82.42270729201846	
25	16.304294166970067	picture	0		35	23.0	/Users/shufanzhang/AOT_stimuli/pictures/0604_fw.png	82.43420645897277	0.28210100007709116
25	16.568362375022843	response	0	j		23.0	/Users/shufanzhang/AOT_stimuli/pictures/0604_fw.png	82.69827466702554	
26	16.586395167047158	picture	0		31	24.0	/Users/shufanzhang/AOT_stimuli/pictures/1180_fw.png	82.71630745904986	0.25670074997469783
26	16.833161832997575	response	0	j		24.0	/Users/shufanzhang/AOT_stimuli/pictures/1180_fw.png	82.96307412500028	
27	16.843095917021856	picture	0		41	25.0	/Users/shufanzhang/AOT_stimuli/pictures/0353_fw.png	82.97300820902456	0.33963070798199624
27	17.169435000047088	response	0	k		25.0	/Users/shufanzhang/AOT_stimuli/pictures/0353_fw.png	83.29934729204979	
28	17.182726625003852	picture	0		25	26.0	/Users/shufanzhang/AOT_stimuli/pictures/0787_fw.png	83.31263891700655	0.21582195803057402
28	17.38294245803263	response	0	k		26.0	/Users/shufanzhang/AOT_stimuli/pictures/0787_fw.png	83.51285475003533	
29	17.398548583034426	picture	0		27	27.0	/Users/shufanzhang/AOT_stimuli/pictures/0097_fw.png	83.52846087503713	0.21904233400709927
29	17.60007562499959	response	0	k		27.0	/Users/shufanzhang/AOT_stimuli/pictures/0097_fw.png	83.72998791700229	
30	17.617590917041525	picture	0		29	28.0	/Users/shufanzhang/AOT_stimuli/pictures/2143_fw.png	83.74750320904423	0.2411346660228446
30	17.849630124983378	response	0	k		28.0	/Users/shufanzhang/AOT_stimuli/pictures/2143_fw.png	83.97954241698608	
31	17.85872558306437	picture	0		31	29.0	/Users/shufanzhang/AOT_stimuli/pictures/0014_fw.png	83.98863787506707	0.27049533394165337
31	18.11834833305329	response	0	k		29.0	/Users/shufanzhang/AOT_stimuli/pictures/0014_fw.png	84.24826062505599	
32	18.129220917006023	picture	0		31	30.0	/Users/shufanzhang/AOT_stimuli/pictures/0225_fw.png	84.25913320900872	0.2605913750594482
32	18.37869391706772	response	0	k		30.0	/Users/shufanzhang/AOT_stimuli/pictures/0225_fw.png	84.50860620907042	
33	18.38981229206547	picture	0		25	31.0	/Users/shufanzhang/AOT_stimuli/pictures/0099_fw.png	84.51972458406817	0.20480241591576487
33	18.582497416995466	response	0	k		31.0	/Users/shufanzhang/AOT_stimuli/pictures/0099_fw.png	84.71240970899817	
34	18.594614707981236	picture	0		35	32.0	/Users/shufanzhang/AOT_stimuli/pictures/0138_fw.png	84.72452699998394	0.28177916700951755
34	18.865556375007145	response	0	j		32.0	/Users/shufanzhang/AOT_stimuli/pictures/0138_fw.png	84.99546866700985	
35	18.876393874990754	picture	0		23	33.0	/Users/shufanzhang/AOT_stimuli/pictures/2119_fw.png	85.00630616699345	0.18858487508259714
35	19.053129250067286	response	0	j		33.0	/Users/shufanzhang/AOT_stimuli/pictures/2119_fw.png	85.18304154206999	
36	19.06497875007335	picture	0		25	34.0	/Users/shufanzhang/AOT_stimuli/pictures/0102_fw.png	85.19489104207605	0.21431995800230652
36	19.26034641696606	response	0	j		34.0	/Users/shufanzhang/AOT_stimuli/pictures/0102_fw.png	85.39025870896876	
37	19.279298708075657	picture	0		26	35.0	/Users/shufanzhang/AOT_stimuli/pictures/1282_fw.png	85.40921100007836	0.21996345894876868
37	19.4905978749739	response	0	k		35.0	/Users/shufanzhang/AOT_stimuli/pictures/1282_fw.png	85.6205101669766	
38	19.499262167024426	picture	0		27	36.0	/Users/shufanzhang/AOT_stimuli/pictures/0638_fw.png	85.62917445902713	0.22298262501135468
38	19.71008004201576	response	0	j		36.0	/Users/shufanzhang/AOT_stimuli/pictures/0638_fw.png	85.83999233401846	
39	19.72224479203578	picture	0		13	37.0	/Users/shufanzhang/AOT_stimuli/pictures/1883_fw.png	85.85215708403848	0.12327120802365243
39	19.830136417062022	response	0	k		37.0	/Users/shufanzhang/AOT_stimuli/pictures/1883_fw.png	85.96004870906472	
40	19.845516000059433	picture	0		15	38.0	/Users/shufanzhang/AOT_stimuli/pictures/1947_fw.png	85.97542829206213	0.111242291983217
40	19.94501220807433	response	0	j		38.0	/Users/shufanzhang/AOT_stimuli/pictures/1947_fw.png	86.07492450007703	
41	19.95675829204265	picture	0		10	39.0	/Users/shufanzhang/AOT_stimuli/pictures/0567_fw.png	86.08667058404535	0.09323016600683331
41	20.040488917031325	response	0	k		39.0	/Users/shufanzhang/AOT_stimuli/pictures/0567_fw.png	86.17040120903403	
42	20.049988458049484	picture	0		13	40.0	/Users/shufanzhang/AOT_stimuli/pictures/0490_fw.png	86.17990075005218	0.10902179195545614
42	20.14876487501897	response	0	j		40.0	/Users/shufanzhang/AOT_stimuli/pictures/0490_fw.png	86.27867716702167	
43	20.15901025000494	picture	0		10	41.0	/Users/shufanzhang/AOT_stimuli/pictures/1898_fw.png	86.28892254200764	0.07363825000356883
43	20.222905082977377	response	0	k		41.0	/Users/shufanzhang/AOT_stimuli/pictures/1898_fw.png	86.35281737498008	
44	20.23264850000851	picture	0		15	42.0	/Users/shufanzhang/AOT_stimuli/pictures/0840_fw.png	86.36256079201121	0.13378041703253984
44	20.35594666702673	response	0	j		42.0	/Users/shufanzhang/AOT_stimuli/pictures/0840_fw.png	86.48585895902943	
45	20.36642891704105	picture	0		8	43.0	/Users/shufanzhang/AOT_stimuli/pictures/0001_fw.png	86.49634120904375	0.08018358296249062
45	20.433514292002656	response	0	k		43.0	/Users/shufanzhang/AOT_stimuli/pictures/0001_fw.png	86.56342658400536	
46	20.44661250000354	picture	0		10	44.0	/Users/shufanzhang/AOT_stimuli/pictures/0412_fw.png	86.57652479200624	0.06893741700332612
46	20.509685417055152	response	0	j		44.0	/Users/shufanzhang/AOT_stimuli/pictures/0412_fw.png	86.63959770905785	
47	20.515549917006865	picture	0		12	45.0	/Users/shufanzhang/AOT_stimuli/pictures/1780_fw.png	86.64546220900957	0.10548575001303107
47	20.608882542001083	response	0	k		45.0	/Users/shufanzhang/AOT_stimuli/pictures/1780_fw.png	86.73879483400378	
48	20.621035667019896	picture	0		10	46.0	/Users/shufanzhang/AOT_stimuli/pictures/1504_fw.png	86.7509479590226	0.07824729103595018
48	20.69351083296351	response	0	j		46.0	/Users/shufanzhang/AOT_stimuli/pictures/1504_fw.png	86.82342312496621	
49	20.699282958055846	picture	0		10	47.0	/Users/shufanzhang/AOT_stimuli/pictures/1915_fw.png	86.82919525005855	0.08292120893020183
49	20.773395249969326	response	0	k		47.0	/Users/shufanzhang/AOT_stimuli/pictures/1915_fw.png	86.90330754197203	
50	20.782204166986048	picture	0		11	48.0	/Users/shufanzhang/AOT_stimuli/pictures/0378_fw.png	86.91211645898875	0.09674029098823667
50	20.86842095805332	response	0	j		48.0	/Users/shufanzhang/AOT_stimuli/pictures/0378_fw.png	86.99833325005602	
51	20.878944457974285	picture	0		12	49.0	/Users/shufanzhang/AOT_stimuli/pictures/2055_fw.png	87.00885674997699	0.09991404204629362
51	20.972717249998823	response	0	k		49.0	/Users/shufanzhang/AOT_stimuli/pictures/2055_fw.png	87.10262954200152	
52	20.97885850002058	picture	0		8	50.0	/Users/shufanzhang/AOT_stimuli/pictures/0499_fw.png	87.10877079202328	0.06148949998896569
52	21.035050541977398	response	0	j		50.0	/Users/shufanzhang/AOT_stimuli/pictures/0499_fw.png	87.1649628339801	
53	21.040348000009544	picture	0		13	51.0	/Users/shufanzhang/AOT_stimuli/pictures/1973_fw.png	87.17026029201224	0.11426008306443691
53	21.13598954200279	response	0	k		51.0	/Users/shufanzhang/AOT_stimuli/pictures/1973_fw.png	87.26590183400549	
54	21.15460808307398	picture	0		9	52.0	/Users/shufanzhang/AOT_stimuli/pictures/0425_fw.png	87.28452037507668	0.0751396669074893
54	21.210961917066015	response	0	j		52.0	/Users/shufanzhang/AOT_stimuli/pictures/0425_fw.png	87.34087420906872	
55	21.22974774998147	picture	0		11	53.0	/Users/shufanzhang/AOT_stimuli/pictures/0870_fw.png	87.35966004198417	0.08471641701180488
55	21.30790800007526	response	0	k		53.0	/Users/shufanzhang/AOT_stimuli/pictures/0870_fw.png	87.43782029207796	
56	21.314464166993275	picture	0		11	54.0	/Users/shufanzhang/AOT_stimuli/pictures/1759_fw.png	87.44437645899598	0.09547145804390311
56	21.401168000069447	response	0	j		54.0	/Users/shufanzhang/AOT_stimuli/pictures/1759_fw.png	87.53108029207215	
57	21.40993562503718	picture	0		11	55.0	/Users/shufanzhang/AOT_stimuli/pictures/1875_fw.png	87.53984791703988	0.09381183295045048
57	21.4850828750059	response	0	k		55.0	/Users/shufanzhang/AOT_stimuli/pictures/1875_fw.png	87.6149951670086	
58	21.50374745798763	picture	0		11	56.0	/Users/shufanzhang/AOT_stimuli/pictures/1806_fw.png	87.63365974999033	0.08960604202002287
58	21.58237104199361	response	0	j		56.0	/Users/shufanzhang/AOT_stimuli/pictures/1806_fw.png	87.71228333399631	
59	21.59335350000765	picture	0		10	57.0	/Users/shufanzhang/AOT_stimuli/pictures/1879_fw.png	87.72326579201035	0.07983120798598975
59	21.665227417019196	response	0	k		57.0	/Users/shufanzhang/AOT_stimuli/pictures/1879_fw.png	87.7951397090219	
60	21.67318470799364	picture	0		10	58.0	/Users/shufanzhang/AOT_stimuli/pictures/1419_fw.png	87.80309699999634	0.08967012504581362
60	21.75567229196895	response	0	j		58.0	/Users/shufanzhang/AOT_stimuli/pictures/1419_fw.png	87.88558458397165	
61	21.762854833039455	picture	0		11	59.0	/Users/shufanzhang/AOT_stimuli/pictures/0426_fw.png	87.89276712504216	0.09389508399181068
61	21.85042550007347	response	0	k		59.0	/Users/shufanzhang/AOT_stimuli/pictures/0426_fw.png	87.98033779207617	
62	21.856749917031266	picture	0		11	60.0	/Users/shufanzhang/AOT_stimuli/pictures/1639_fw.png	87.98666220903397	0.08474829094484448
62	21.93341945798602	response	0	j		60.0	/Users/shufanzhang/AOT_stimuli/pictures/1639_fw.png	88.06333174998872	
63	21.94149820797611	picture	0		10	61.0	/Users/shufanzhang/AOT_stimuli/pictures/0850_fw.png	88.07141049997881	0.08345654199365526
63	22.0164602920413	response	0	k		61.0	/Users/shufanzhang/AOT_stimuli/pictures/0850_fw.png	88.146372584044	
64	22.024954749969766	picture	0		10	62.0	/Users/shufanzhang/AOT_stimuli/pictures/1552_fw.png	88.15486704197247	0.09330304199829698
64	22.107571583008394	response	0	j		62.0	/Users/shufanzhang/AOT_stimuli/pictures/1552_fw.png	88.2374838750111	
65	22.118257791968063	picture	0		130	63.0	/Users/shufanzhang/AOT_stimuli/pictures/2057_fw.png	88.24817008397076	1.09000362502411
65	23.199455167050473	response	0	k		63.0	/Users/shufanzhang/AOT_stimuli/pictures/2057_fw.png	89.32936745905317	
66	23.208261416992173	picture	0		11	64.0	/Users/shufanzhang/AOT_stimuli/pictures/1378_fw.png	89.33817370899487	0.08875683299265802
66	23.27726091700606	response	0	j		64.0	/Users/shufanzhang/AOT_stimuli/pictures/1378_fw.png	89.40717320900876	
67	23.29701824998483	picture	0		11	65.0	/Users/shufanzhang/AOT_stimuli/pictures/0568_fw.png	89.42693054198753	0.09190716699231416
67	23.376357625005767	response	0	k		65.0	/Users/shufanzhang/AOT_stimuli/pictures/0568_fw.png	89.50626991700847	
68	23.388925416977145	picture	0		8	66.0	/Users/shufanzhang/AOT_stimuli/pictures/0772_fw.png	89.51883770897985	0.07220108306501061
68	23.45055979199242	response	0	j		66.0	/Users/shufanzhang/AOT_stimuli/pictures/0772_fw.png	89.58047208399512	
69	23.461126500042155	picture	0		12	67.0	/Users/shufanzhang/AOT_stimuli/pictures/2090_fw.png	89.59103879204486	0.08904833300039172
69	23.54121000005398	response	0	k		67.0	/Users/shufanzhang/AOT_stimuli/pictures/2090_fw.png	89.67112229205668	
70	23.550174833042547	picture	0		7	68.0	/Users/shufanzhang/AOT_stimuli/pictures/1914_fw.png	89.68008712504525	0.062197166960686445
70	23.605686250026338	response	0	j		68.0	/Users/shufanzhang/AOT_stimuli/pictures/1914_fw.png	89.73559854202904	
71	23.612372000003234	picture	0		11	69.0	/Users/shufanzhang/AOT_stimuli/pictures/0067_fw.png	89.74228429200593	0.09226254199165851
71	23.685914292000234	response	0	k		69.0	/Users/shufanzhang/AOT_stimuli/pictures/0067_fw.png	89.81582658400293	
72	23.704634541994892	picture	0		8	70.0	/Users/shufanzhang/AOT_stimuli/pictures/1622_fw.png	89.83454683399759	0.06200929102487862
72	23.760106667061336	response	0	j		70.0	/Users/shufanzhang/AOT_stimuli/pictures/1622_fw.png	89.89001895906404	
73	23.76664383301977	picture	0		46	71.0	/Users/shufanzhang/AOT_stimuli/pictures/0264_fw.png	89.89655612502247	0.3926104169804603
73	24.144172917003743	response	0	k		71.0	/Users/shufanzhang/AOT_stimuli/pictures/0264_fw.png	90.27408520900644	
74	24.15925425000023	picture	0		7	72.0	/Users/shufanzhang/AOT_stimuli/pictures/1773_fw.png	90.28916654200293	0.056884582969360054
74	24.205719458055682	response	0	j		72.0	/Users/shufanzhang/AOT_stimuli/pictures/1773_fw.png	90.33563175005838	
75	24.21613883296959	picture	0		13	73.0	/Users/shufanzhang/AOT_stimuli/pictures/1014_fw.png	90.34605112497229	0.10009262501262128
75	24.302241957979277	response	0	k		73.0	/Users/shufanzhang/AOT_stimuli/pictures/1014_fw.png	90.43215424998198	
76	24.316231457982212	picture	0		9	74.0	/Users/shufanzhang/AOT_stimuli/pictures/0177_fw.png	90.44614374998491	0.08539762499276549
76	24.38989395799581	response	0	j		74.0	/Users/shufanzhang/AOT_stimuli/pictures/0177_fw.png	90.51980624999851	
77	24.401629082974978	picture	0		10	75.0	/Users/shufanzhang/AOT_stimuli/pictures/0907_fw.png	90.53154137497768	0.0718432500725612
77	24.46546545799356	response	0	k		75.0	/Users/shufanzhang/AOT_stimuli/pictures/0907_fw.png	90.59537774999626	
78	24.47347233304754	picture	0		12	76.0	/Users/shufanzhang/AOT_stimuli/pictures/2073_fw.png	90.60338462505024	0.09860320901498199
78	24.561567374970764	response	0	j		76.0	/Users/shufanzhang/AOT_stimuli/pictures/2073_fw.png	90.69147966697346	
79	24.57207554206252	picture	0		10	77.0	/Users/shufanzhang/AOT_stimuli/pictures/1859_fw.png	90.70198783406522	0.08553270797710866
79	24.64296479197219	response	0	k		77.0	/Users/shufanzhang/AOT_stimuli/pictures/1859_fw.png	90.77287708397489	
80	24.65760825003963	picture	0		7	78.0	/Users/shufanzhang/AOT_stimuli/pictures/2125_fw.png	90.78752054204233	0.05782824999187142
80	24.708398874965496	response	0	j		78.0	/Users/shufanzhang/AOT_stimuli/pictures/2125_fw.png	90.8383111669682	
81	24.7154365000315	picture	0		57	79.0	/Users/shufanzhang/AOT_stimuli/pictures/1469_fw.png	90.8453487920342	0.48001766693778336
81	25.183792583062313	response	0	j		79.0	/Users/shufanzhang/AOT_stimuli/pictures/1469_fw.png	91.31370487506501	
82	25.195454166969284	picture	0		13	80.0	/Users/shufanzhang/AOT_stimuli/pictures/0760_fw.png	91.32536645897198	0.10842429101467133
82	25.29400275007356	response	0	k		80.0	/Users/shufanzhang/AOT_stimuli/pictures/0760_fw.png	91.42391504207626	
83	25.303878457983956	picture	0		10	81.0	/Users/shufanzhang/AOT_stimuli/pictures/0047_fw.png	91.43379074998666	0.08473041700199246
83	25.368385958019644	response	0	j		81.0	/Users/shufanzhang/AOT_stimuli/pictures/0047_fw.png	91.49829825002234	
84	25.388608874985948	picture	0		12	82.0	/Users/shufanzhang/AOT_stimuli/pictures/1606_fw.png	91.51852116698865	0.10496850009076297
84	25.48425950005185	response	0	k		82.0	/Users/shufanzhang/AOT_stimuli/pictures/1606_fw.png	91.61417179205455	
85	25.49357737507671	picture	0		10	83.0	/Users/shufanzhang/AOT_stimuli/pictures/0241_fw.png	91.62348966707941	0.07969495793804526
85	25.566868167021312	response	0	j		83.0	/Users/shufanzhang/AOT_stimuli/pictures/0241_fw.png	91.69678045902401	
86	25.573272333014756	picture	0		12	84.0	/Users/shufanzhang/AOT_stimuli/pictures/2166_fw.png	91.70318462501746	0.1023411670466885
86	25.665572833037004	response	0	k		84.0	/Users/shufanzhang/AOT_stimuli/pictures/2166_fw.png	91.7954851250397	
87	25.675613500061445	picture	0		9	85.0	/Users/shufanzhang/AOT_stimuli/pictures/1263_fw.png	91.80552579206415	0.07286674994975328
87	25.738980832975358	response	0	j		85.0	/Users/shufanzhang/AOT_stimuli/pictures/1263_fw.png	91.86889312497806	
88	25.748480250011198	picture	0		51	86.0	/Users/shufanzhang/AOT_stimuli/pictures/1678_fw.png	91.8783925420139	0.4255225829547271
88	26.165480625000782	response	0	k		86.0	/Users/shufanzhang/AOT_stimuli/pictures/1678_fw.png	92.29539291700348	
89	26.174002832965925	picture	0		8	87.0	/Users/shufanzhang/AOT_stimuli/pictures/0570_fw.png	92.30391512496863	0.06877991708461195
89	26.233356832992285	response	0	j		87.0	/Users/shufanzhang/AOT_stimuli/pictures/0570_fw.png	92.36326912499499	
90	26.242782750050537	picture	0		15	88.0	/Users/shufanzhang/AOT_stimuli/pictures/1634_fw.png	92.37269504205324	0.1158850829815492
90	26.347506082965992	response	0	k		88.0	/Users/shufanzhang/AOT_stimuli/pictures/1634_fw.png	92.47741837496869	
91	26.358667833032086	picture	0		9	89.0	/Users/shufanzhang/AOT_stimuli/pictures/0898_fw.png	92.48858012503479	0.07550966693088412
91	26.425786125008017	response	0	j		89.0	/Users/shufanzhang/AOT_stimuli/pictures/0898_fw.png	92.55569841701072	
92	26.43417749996297	picture	0		11	90.0	/Users/shufanzhang/AOT_stimuli/pictures/0343_fw.png	92.56408979196567	0.0971555421128869
92	26.523635833058506	response	0	k		90.0	/Users/shufanzhang/AOT_stimuli/pictures/0343_fw.png	92.6535481250612	
93	26.531333042075858	picture	0		12	91.0	/Users/shufanzhang/AOT_stimuli/pictures/0463_fw.png	92.66124533407856	0.09963437495753169
93	26.62322370801121	response	0	j		91.0	/Users/shufanzhang/AOT_stimuli/pictures/0463_fw.png	92.75313600001391	
94	26.63096741703339	picture	0		10	92.0	/Users/shufanzhang/AOT_stimuli/pictures/1699_fw.png	92.76087970903609	0.08398166601546109
94	26.706395542016253	response	0	k		92.0	/Users/shufanzhang/AOT_stimuli/pictures/1699_fw.png	92.83630783401895	
95	26.71494908304885	picture	0		10	93.0	/Users/shufanzhang/AOT_stimuli/pictures/1851_fw.png	92.84486137505155	0.08005854196380824
95	26.776137250009924	response	0	j		93.0	/Users/shufanzhang/AOT_stimuli/pictures/1851_fw.png	92.90604954201262	
96	26.79500762501266	picture	0		62	94.0	/Users/shufanzhang/AOT_stimuli/pictures/1720_fw.png	92.92491991701536	0.5238132920349017
96	27.307639333070256	response	0	j		94.0	/Users/shufanzhang/AOT_stimuli/pictures/1720_fw.png	93.43755162507296	
97	27.31882091704756	picture	0		7	95.0	/Users/shufanzhang/AOT_stimuli/pictures/0943_fw.png	93.44873320905026	0.048386791022494435
97	27.357822541962378	response	0	k		95.0	/Users/shufanzhang/AOT_stimuli/pictures/0943_fw.png	93.48773483396508	
98	27.367207708070055	picture	0		11	96.0	/Users/shufanzhang/AOT_stimuli/pictures/1436_fw.png	93.49712000007275	0.09708491689525545
98	27.45654183300212	response	0	j		96.0	/Users/shufanzhang/AOT_stimuli/pictures/1436_fw.png	93.58645412500482	
99	27.46429262496531	picture	0		10	97.0	/Users/shufanzhang/AOT_stimuli/pictures/0136_fw.png	93.59420491696801	0.08342787506990135
99	27.540295624989085	response	0	k		97.0	/Users/shufanzhang/AOT_stimuli/pictures/0136_fw.png	93.67020791699179	
100	27.54772050003521	picture	0		12	98.0	/Users/shufanzhang/AOT_stimuli/pictures/1505_fw.png	93.67763279203791	0.10141358303371817
100	27.64067500003148	response	0	j		98.0	/Users/shufanzhang/AOT_stimuli/pictures/1505_fw.png	93.77058729203418	
101	27.64913408306893	picture	0		11	99.0	/Users/shufanzhang/AOT_stimuli/pictures/0553_fw.png	93.77904637507163	0.09164954198058695
101	27.73066900006961	response	0	k		99.0	/Users/shufanzhang/AOT_stimuli/pictures/0553_fw.png	93.86058129207231	
102	27.740783625049517	picture	0		9	100.0	/Users/shufanzhang/AOT_stimuli/pictures/1402_fw.png	93.87069591705222	0.06977837497834116
102	27.80305624997709	response	0	j		100.0	/Users/shufanzhang/AOT_stimuli/pictures/1402_fw.png	93.93296854197979	
103	27.810562000027858	picture	0		9	101.0	/Users/shufanzhang/AOT_stimuli/pictures/0997_fw.png	93.94047429203056	0.08271174994297326
103	27.884750375058502	response	0	k		101.0	/Users/shufanzhang/AOT_stimuli/pictures/0997_fw.png	94.0146626670612	
104	27.89327374997083	picture	0		68	102.0	/Users/shufanzhang/AOT_stimuli/pictures/0122_fw.png	94.02318604197353	0.5661038330290467
104	28.44900895806495	response	0	j		102.0	/Users/shufanzhang/AOT_stimuli/pictures/0122_fw.png	94.57892125006765	
105	28.459377582999878	picture	0		9	103.0	/Users/shufanzhang/AOT_stimuli/pictures/0270_fw.png	94.58928987500258	0.0740880420198664
105	28.523375874967314	response	0	k		103.0	/Users/shufanzhang/AOT_stimuli/pictures/0270_fw.png	94.65328816697001	
106	28.533465625019744	picture	0		11	104.0	/Users/shufanzhang/AOT_stimuli/pictures/1587_fw.png	94.66337791702244	0.09172816702630371
106	28.615205875015818	response	0	j		104.0	/Users/shufanzhang/AOT_stimuli/pictures/1587_fw.png	94.74511816701852	
107	28.625193792046048	picture	0		9	105.0	/Users/shufanzhang/AOT_stimuli/pictures/0860_fw.png	94.75510608404875	0.07256366591900587
107	28.689404707984067	response	0	k		105.0	/Users/shufanzhang/AOT_stimuli/pictures/0860_fw.png	94.81931699998677	
108	28.697757457965054	picture	0		12	106.0	/Users/shufanzhang/AOT_stimuli/pictures/0937_fw.png	94.82766974996775	0.09908175002783537
108	28.790462667006068	response	0	j		106.0	/Users/shufanzhang/AOT_stimuli/pictures/0937_fw.png	94.92037495900877	
109	28.79683920799289	picture	0		11	107.0	/Users/shufanzhang/AOT_stimuli/pictures/0271_fw.png	94.92675149999559	0.08482475008349866
109	28.872975250007585	response	0	k		107.0	/Users/shufanzhang/AOT_stimuli/pictures/0271_fw.png	95.00288754201028	
110	28.881663958076388	picture	0		11	108.0	/Users/shufanzhang/AOT_stimuli/pictures/1975_fw.png	95.01157625007909	0.09497762494720519
110	28.96714104199782	response	0	j		108.0	/Users/shufanzhang/AOT_stimuli/pictures/1975_fw.png	95.09705333400052	
111	28.976641583023593	picture	0		11	109.0	/Users/shufanzhang/AOT_stimuli/pictures/0168_fw.png	95.1065538750263	0.0971838339464739
111	29.06688491697423	response	0	k		109.0	/Users/shufanzhang/AOT_stimuli/pictures/0168_fw.png	95.19679720897693	
112	29.073825416970067	picture	0		88	110.0	/Users/shufanzhang/AOT_stimuli/pictures/2013_fw.png	95.20373770897277	0.7303580000298098
112	29.793531292001717	response	0	j		110.0	/Users/shufanzhang/AOT_stimuli/pictures/2013_fw.png	95.92344358400442	
113	29.804183416999876	picture	0		12	111.0	/Users/shufanzhang/AOT_stimuli/pictures/1090_fw.png	95.93409570900258	0.10083058301825076
113	29.8849412080599	response	0	k		111.0	/Users/shufanzhang/AOT_stimuli/pictures/1090_fw.png	96.0148535000626	
114	29.905014000018127	picture	0		10	112.0	/Users/shufanzhang/AOT_stimuli/pictures/0474_fw.png	96.03492629202083	0.08418229199014604
114	29.98257241700776	response	0	j		112.0	/Users/shufanzhang/AOT_stimuli/pictures/0474_fw.png	96.11248470901046	
115	29.989196292008273	picture	0		8	113.0	/Users/shufanzhang/AOT_stimuli/pictures/0109_fw.png	96.11910858401097	0.0679112080251798
115	30.048381000058725	response	0	k		113.0	/Users/shufanzhang/AOT_stimuli/pictures/0109_fw.png	96.17829329206143	
116	30.057107500033453	picture	0		15	114.0	/Users/shufanzhang/AOT_stimuli/pictures/0315_fw.png	96.18701979203615	0.1220985830295831
116	30.15941370802466	response	0	j		114.0	/Users/shufanzhang/AOT_stimuli/pictures/0315_fw.png	96.28932600002736	
117	30.179206083063036	picture	0		10	115.0	/Users/shufanzhang/AOT_stimuli/pictures/1906_fw.png	96.30911837506574	0.08783033397048712
117	30.256864957977086	response	0	k		115.0	/Users/shufanzhang/AOT_stimuli/pictures/1906_fw.png	96.38677724997979	
118	30.267036417033523	picture	0		10	116.0	/Users/shufanzhang/AOT_stimuli/pictures/1576_fw.png	96.39694870903622	0.08306179102510214
118	30.34226808301173	response	0	j		116.0	/Users/shufanzhang/AOT_stimuli/pictures/1576_fw.png	96.47218037501443	
119	30.350098208058625	picture	0		63	117.0	/Users/shufanzhang/AOT_stimuli/pictures/0621_fw.png	96.48001050006133	0.5150889590149745
119	30.85538758302573	response	0	k		117.0	/Users/shufanzhang/AOT_stimuli/pictures/0621_fw.png	96.98529987502843	
120	30.8651871670736	picture	0		8	118.0	/Users/shufanzhang/AOT_stimuli/pictures/0140_fw.png	96.9950994590763	0.07010399992577732
120	30.922886457992718	response	0	j		118.0	/Users/shufanzhang/AOT_stimuli/pictures/0140_fw.png	97.05279874999542	
121	30.935291166999377	picture	0		13	119.0	/Users/shufanzhang/AOT_stimuli/pictures/0278_fw.png	97.06520345900208	0.11225350003223866
121	31.041889333049767	response	0	k		119.0	/Users/shufanzhang/AOT_stimuli/pictures/0278_fw.png	97.17180162505247	
122	31.047544667031616	picture	0		10	120.0	/Users/shufanzhang/AOT_stimuli/pictures/0009_fw.png	97.17745695903432	0.08177870803046972
122	31.120970332995057	response	0	j		120.0	/Users/shufanzhang/AOT_stimuli/pictures/0009_fw.png	97.25088262499776	
123	31.129323375062086	picture	0		13	121.0	/Users/shufanzhang/AOT_stimuli/pictures/0949_fw.png	97.25923566706479	0.10425837500952184
123	31.224229875020683	response	0	k		121.0	/Users/shufanzhang/AOT_stimuli/pictures/0949_fw.png	97.35414216702338	
124	31.233581750071608	picture	0		12	122.0	/Users/shufanzhang/AOT_stimuli/pictures/0629_fw.png	97.36349404207431	0.10483687499072403
124	31.31813591707032	response	0	j		122.0	/Users/shufanzhang/AOT_stimuli/pictures/0629_fw.png	97.44804820907302	
125	31.33841862506233	picture	0		13	123.0	/Users/shufanzhang/AOT_stimuli/pictures/1253_fw.png	97.46833091706503	0.1146326248999685
125	31.426690708030947	response	0	k		123.0	/Users/shufanzhang/AOT_stimuli/pictures/1253_fw.png	97.55660300003365	
126	31.4530512499623	picture	0		9	124.0	/Users/shufanzhang/AOT_stimuli/pictures/1452_fw.png	97.582963541965	0.06605958309955895
126	31.500978042022325	response	0	j		124.0	/Users/shufanzhang/AOT_stimuli/pictures/1452_fw.png	97.63089033402503	
127	31.51911083306186	picture	0		66	125.0	/Users/shufanzhang/AOT_stimuli/pictures/1168_fw.png	97.64902312506456	0.5578809999860823
127	32.06421149999369	response	0	k		125.0	/Users/shufanzhang/AOT_stimuli/pictures/1168_fw.png	98.19412379199639	
128	32.07699183304794	picture	0		5	126.0	/Users/shufanzhang/AOT_stimuli/pictures/0659_fw.png	98.20690412505064	0.03711491695139557
128	32.09390816697851	response	0	j		126.0	/Users/shufanzhang/AOT_stimuli/pictures/0659_fw.png	98.22382045898121	
129	32.11410674999934	picture	0		14	127.0	/Users/shufanzhang/AOT_stimuli/pictures/0909_fw.png	98.24401904200204	0.11886487505398691
129	32.22468054201454	response	0	k		127.0	/Users/shufanzhang/AOT_stimuli/pictures/0909_fw.png	98.35459283401724	
130	32.232971625053324	picture	0		11	128.0	/Users/shufanzhang/AOT_stimuli/pictures/1945_fw.png	98.36288391705602	0.08868695795536041
130	32.314789167023264	response	0	j		128.0	/Users/shufanzhang/AOT_stimuli/pictures/1945_fw.png	98.44470145902596	
131	32.321658583008684	picture	0		13	129.0	/Users/shufanzhang/AOT_stimuli/pictures/1860_fw.png	98.45157087501138	0.10317966702859849
131	32.417161750025116	response	0	k		129.0	/Users/shufanzhang/AOT_stimuli/pictures/1860_fw.png	98.54707404202782	
132	32.42483825003728	picture	0		12	130.0	/Users/shufanzhang/AOT_stimuli/pictures/1825_fw.png	98.55475054203998	0.09909866703674197
132	32.511312082991935	response	0	j		130.0	/Users/shufanzhang/AOT_stimuli/pictures/1825_fw.png	98.64122437499464	
133	32.523936917074025	picture	0		55	131.0	/Users/shufanzhang/AOT_stimuli/pictures/0853_fw.png	98.65384920907672	0.4644310409203172
133	32.97674625006039	response	0	k		131.0	/Users/shufanzhang/AOT_stimuli/pictures/0853_fw.png	99.10665854206309	
134	32.98836795799434	picture	0		24	132.0	/Users/shufanzhang/AOT_stimuli/pictures/1358_fw.png	99.11828024999704	0.1942565420176834
134	33.16927937499713	response	0	k		132.0	/Users/shufanzhang/AOT_stimuli/pictures/1358_fw.png	99.29919166699983	
135	33.182624500012025	picture	0		9	133.0	/Users/shufanzhang/AOT_stimuli/pictures/0053_fw.png	99.31253679201473	0.08257612504530698
135	33.25475304201245	response	0	j		133.0	/Users/shufanzhang/AOT_stimuli/pictures/0053_fw.png	99.38466533401515	
136	33.26520062505733	picture	0		14	134.0	/Users/shufanzhang/AOT_stimuli/pictures/1881_fw.png	99.39511291706003	0.11137904191855341
136	33.36687587504275	response	0	k		134.0	/Users/shufanzhang/AOT_stimuli/pictures/1881_fw.png	99.49678816704545	
137	33.376579666975886	picture	0		9	135.0	/Users/shufanzhang/AOT_stimuli/pictures/1061_fw.png	99.50649195897859	0.07334475009702146
137	33.43653974996414	response	0	j		135.0	/Users/shufanzhang/AOT_stimuli/pictures/1061_fw.png	99.56645204196684	
138	33.44992441707291	picture	0		55	136.0	/Users/shufanzhang/AOT_stimuli/pictures/1993_fw.png	99.57983670907561	0.45798633294180036
138	33.894864375004545	response	0	j		136.0	/Users/shufanzhang/AOT_stimuli/pictures/1993_fw.png	100.02477666700725	
139	33.90791075001471	picture	0		13	137.0	/Users/shufanzhang/AOT_stimuli/pictures/1517_fw.png	100.03782304201741	0.11014116695150733
139	34.00891475006938	response	0	k		137.0	/Users/shufanzhang/AOT_stimuli/pictures/1517_fw.png	100.13882704207208	
140	34.018051916966215	picture	0		12	138.0	/Users/shufanzhang/AOT_stimuli/pictures/1274_fw.png	100.14796420896892	0.102409458020702
140	34.10191391699482	response	0	j		138.0	/Users/shufanzhang/AOT_stimuli/pictures/1274_fw.png	100.23182620899752	
141	34.12046137498692	picture	0		12	139.0	/Users/shufanzhang/AOT_stimuli/pictures/0958_fw.png	100.25037366698962	0.10079200007021427
141	34.20129466697108	response	0	k		139.0	/Users/shufanzhang/AOT_stimuli/pictures/0958_fw.png	100.33120695897378	
142	34.22125337505713	picture	0		10	140.0	/Users/shufanzhang/AOT_stimuli/pictures/1692_fw.png	100.35116566705983	0.08852729201316833
142	34.29772174998652	response	0	j		140.0	/Users/shufanzhang/AOT_stimuli/pictures/1692_fw.png	100.42763404198922	
143	34.3097806670703	picture	0		11	141.0	/Users/shufanzhang/AOT_stimuli/pictures/1713_fw.png	100.439692959073	0.09168429090641439
143	34.39092975005042	response	0	k		141.0	/Users/shufanzhang/AOT_stimuli/pictures/1713_fw.png	100.52084204205312	
144	34.401464957976714	picture	0		64	142.0	/Users/shufanzhang/AOT_stimuli/pictures/0175_fw.png	100.53137724997941	0.5342615420231596
144	34.9244653750211	response	0	j		142.0	/Users/shufanzhang/AOT_stimuli/pictures/0175_fw.png	101.0543776670238	
145	34.93572649999987	picture	0		9	143.0	/Users/shufanzhang/AOT_stimuli/pictures/0511_fw.png	101.06563879200257	0.07406212505884469
145	34.99948758305982	response	0	k		143.0	/Users/shufanzhang/AOT_stimuli/pictures/0511_fw.png	101.12939987506252	
146	35.00978862505872	picture	0		15	144.0	/Users/shufanzhang/AOT_stimuli/pictures/2087_fw.png	101.13970091706142	0.12135249993298203
146	35.12343024997972	response	0	j		144.0	/Users/shufanzhang/AOT_stimuli/pictures/2087_fw.png	101.25334254198242	
147	35.1311411249917	picture	0		6	145.0	/Users/shufanzhang/AOT_stimuli/pictures/0797_fw.png	101.2610534169944	0.05200012505520135
147	35.172754624974914	response	0	k		145.0	/Users/shufanzhang/AOT_stimuli/pictures/0797_fw.png	101.30266691697761	
148	35.1831412500469	picture	0		12	146.0	/Users/shufanzhang/AOT_stimuli/pictures/1590_fw.png	101.3130535420496	0.10183754202444106
148	35.27660654205829	response	0	j		146.0	/Users/shufanzhang/AOT_stimuli/pictures/1590_fw.png	101.40651883406099	
149	35.28497879207134	picture	0		56	147.0	/Users/shufanzhang/AOT_stimuli/pictures/2068_fw.png	101.41489108407404	0.47800983290653676
149	35.750179082970135	response	0	k		147.0	/Users/shufanzhang/AOT_stimuli/pictures/2068_fw.png	101.88009137497284	
150	35.76298862497788	picture	0		8	148.0	/Users/shufanzhang/AOT_stimuli/pictures/0998_fw.png	101.89290091698058	0.053851667093113065
150	35.80254312499892	response	0	j		148.0	/Users/shufanzhang/AOT_stimuli/pictures/0998_fw.png	101.93245541700162	
151	35.81684029207099	picture	0		12	149.0	/Users/shufanzhang/AOT_stimuli/pictures/0164_fw.png	101.94675258407369	0.10217870795167983
151	35.90911279199645	response	0	k		149.0	/Users/shufanzhang/AOT_stimuli/pictures/0164_fw.png	102.03902508399915	
152	35.91901900002267	picture	0		11	150.0	/Users/shufanzhang/AOT_stimuli/pictures/0196_fw.png	102.04893129202537	0.09582845796830952
152	36.00959224998951	response	0	j		150.0	/Users/shufanzhang/AOT_stimuli/pictures/0196_fw.png	102.13950454199221	
153	36.01484745799098	picture	0		12	151.0	/Users/shufanzhang/AOT_stimuli/pictures/1980_fw.png	102.14475974999368	0.09887041698675603
153	36.106728792074136	response	0	k		151.0	/Users/shufanzhang/AOT_stimuli/pictures/1980_fw.png	102.23664108407684	
154	36.11371787497774	picture	0		51	152.0	/Users/shufanzhang/AOT_stimuli/pictures/1650_fw.png	102.24363016698044	0.43099233298562467
154	36.532990625011735	response	0	j		152.0	/Users/shufanzhang/AOT_stimuli/pictures/1650_fw.png	102.66290291701443	
155	36.54471020796336	picture	0		10	153.0	/Users/shufanzhang/AOT_stimuli/pictures/0647_fw.png	102.67462249996606	0.07204141700640321
155	36.60959958296735	response	0	k		153.0	/Users/shufanzhang/AOT_stimuli/pictures/0647_fw.png	102.73951187497005	
156	36.616751624969766	picture	0		14	154.0	/Users/shufanzhang/AOT_stimuli/pictures/1003_fw.png	102.74666391697247	0.12168833310715854
156	36.72442670806777	response	0	j		154.0	/Users/shufanzhang/AOT_stimuli/pictures/1003_fw.png	102.85433900007047	
157	36.738439958076924	picture	0		11	155.0	/Users/shufanzhang/AOT_stimuli/pictures/0487_fw.png	102.86835225007962	0.09211083396803588
157	36.8177293749759	response	0	k		155.0	/Users/shufanzhang/AOT_stimuli/pictures/0487_fw.png	102.9476416669786	
158	36.83055079204496	picture	0		10	156.0	/Users/shufanzhang/AOT_stimuli/pictures/0322_fw.png	102.96046308404766	0.08863516594283283
158	36.908622042043135	response	0	j		156.0	/Users/shufanzhang/AOT_stimuli/pictures/0322_fw.png	103.03853433404583	
159	36.91918595798779	picture	0		61	157.0	/Users/shufanzhang/AOT_stimuli/pictures/0355_fw.png	103.0490982499905	0.508512125001289
159	37.41591462504584	response	0	k		157.0	/Users/shufanzhang/AOT_stimuli/pictures/0355_fw.png	103.54582691704854	
160	37.42769808298908	picture	0		9	158.0	/Users/shufanzhang/AOT_stimuli/pictures/1837_fw.png	103.55761037499178	0.07536012504715472
160	37.49080208304804	response	0	j		158.0	/Users/shufanzhang/AOT_stimuli/pictures/1837_fw.png	103.62071437505074	
161	37.50305820803624	picture	0		11	159.0	/Users/shufanzhang/AOT_stimuli/pictures/1111_fw.png	103.63297050003894	0.09840583393815905
161	37.59271637501661	response	0	k		159.0	/Users/shufanzhang/AOT_stimuli/pictures/1111_fw.png	103.72262866701931	
162	37.601464041974396	picture	0		11	160.0	/Users/shufanzhang/AOT_stimuli/pictures/0071_fw.png	103.7313763339771	0.09100387501530349
162	37.68252404197119	response	0	j		160.0	/Users/shufanzhang/AOT_stimuli/pictures/0071_fw.png	103.81243633397389	
163	37.6924679169897	picture	0		9	161.0	/Users/shufanzhang/AOT_stimuli/pictures/0775_fw.png	103.8223802089924	0.07402100006584078
163	37.75631270802114	response	0	k		161.0	/Users/shufanzhang/AOT_stimuli/pictures/0775_fw.png	103.88622500002384	
164	37.76648891705554	picture	0		73	162.0	/Users/shufanzhang/AOT_stimuli/pictures/1775_fw.png	103.89640120905824	0.6043209999334067
164	38.35780112503562	response	0	j		162.0	/Users/shufanzhang/AOT_stimuli/pictures/1775_fw.png	104.48771341703832	
165	38.37080991698895	picture	0		203	163.0	/Users/shufanzhang/AOT_stimuli/pictures/0547_fw.png	104.50072220899165	1.6982342500705272
165	40.057303874986246	response	0	k		163.0	/Users/shufanzhang/AOT_stimuli/pictures/0547_fw.png	106.18721616698895	
166	40.069044167059474	picture	0		31	164.0	/Users/shufanzhang/AOT_stimuli/pictures/0698_fw.png	106.19895645906217	0.2566864580148831
166	40.31444779201411	response	0	j		164.0	/Users/shufanzhang/AOT_stimuli/pictures/0698_fw.png	106.44436008401681	
167	40.32573062507436	picture	0		24	165.0	/Users/shufanzhang/AOT_stimuli/pictures/0477_fw.png	106.45564291707706	0.20397758297622204
167	40.5177082499722	response	0	k		165.0	/Users/shufanzhang/AOT_stimuli/pictures/0477_fw.png	106.6476205419749	
168	40.52970820805058	picture	0		28	166.0	/Users/shufanzhang/AOT_stimuli/pictures/2030_fw.png	106.65962050005328	0.22484349994920194
168	40.744129250058904	response	0	j		166.0	/Users/shufanzhang/AOT_stimuli/pictures/2030_fw.png	106.8740415420616	
169	40.75455170799978	picture	0		21	167.0	/Users/shufanzhang/AOT_stimuli/pictures/0235_fw.png	106.88446400000248	0.18026158399879932
169	40.92391625000164	response	0	k		167.0	/Users/shufanzhang/AOT_stimuli/pictures/0235_fw.png	107.05382854200434	
170	40.93481329199858	picture	0		59	168.0	/Users/shufanzhang/AOT_stimuli/pictures/0865_fw.png	107.06472558400128	0.4924129160353914
170	41.41598533303477	response	0	j		168.0	/Users/shufanzhang/AOT_stimuli/pictures/0865_fw.png	107.54589762503747	
171	41.42722620803397	picture	0		68	169.0	/Users/shufanzhang/AOT_stimuli/pictures/1143_fw.png	107.55713850003667	0.5675785839557648
171	41.983265083050355	response	0	k		169.0	/Users/shufanzhang/AOT_stimuli/pictures/1143_fw.png	108.11317737505306	
172	41.994804791989736	picture	0		591	170.0	/Users/shufanzhang/AOT_stimuli/pictures/0862_fw.png	108.12471708399244	4.922679790994152
172	46.90573520807084	response	0	j		170.0	/Users/shufanzhang/AOT_stimuli/pictures/0862_fw.png	113.03564750007354	
173	46.91748458298389	picture	0		41	171.0	/Users/shufanzhang/AOT_stimuli/pictures/0989_fw.png	113.04739687498659	0.337715792004019
173	47.24641712498851	response	0	k		171.0	/Users/shufanzhang/AOT_stimuli/pictures/0989_fw.png	113.37632941699121	
174	47.25520037498791	picture	0		51	172.0	/Users/shufanzhang/AOT_stimuli/pictures/1343_fw.png	113.38511266699061	0.42954291705973446
174	47.67426316696219	response	0	j		172.0	/Users/shufanzhang/AOT_stimuli/pictures/1343_fw.png	113.80417545896489	
175	47.68474329204764	picture	0		64	173.0	/Users/shufanzhang/AOT_stimuli/pictures/1248_fw.png	113.81465558405034	0.5259175410028547
175	48.200026917038485	response	0	k		173.0	/Users/shufanzhang/AOT_stimuli/pictures/1248_fw.png	114.32993920904119	
176	48.2106608330505	picture	0		1044	174.0	/Users/shufanzhang/AOT_stimuli/pictures/1877_fw.png	114.3405731250532	8.710367708932608
176	56.90840729197953	response	0	j		174.0	/Users/shufanzhang/AOT_stimuli/pictures/1877_fw.png	123.03831958398223	
177	56.921028541983105	picture	0		908	175.0	/Users/shufanzhang/AOT_stimuli/pictures/0231_fw.png	123.0509408339858	7.558498915983364
177	64.46753220807295	response	0	j		175.0	/Users/shufanzhang/AOT_stimuli/pictures/0231_fw.png	130.59744450007565	
178	64.47952745796647	picture	0		66	176.0	/Users/shufanzhang/AOT_stimuli/pictures/0993_fw.png	130.60943974996917	0.5518437090795487
178	65.01830679201521	response	0	k		176.0	/Users/shufanzhang/AOT_stimuli/pictures/0993_fw.png	131.1482190840179	
179	65.03137116704602	picture	0		414	177.0	/Users/shufanzhang/AOT_stimuli/pictures/1657_fw.png	131.16128345904872	3.473132957937196
179	68.47759358305484	response	0	j		177.0	/Users/shufanzhang/AOT_stimuli/pictures/1657_fw.png	134.60750587505754	
180	68.50450412498321	picture	0		38	178.0	/Users/shufanzhang/AOT_stimuli/pictures/0969_fw.png	134.6344164169859	0.31214816705323756
180	68.79788120801095	response	0	k		178.0	/Users/shufanzhang/AOT_stimuli/pictures/0969_fw.png	134.92779350001365	
181	68.81665229203645	picture	0		77	179.0	/Users/shufanzhang/AOT_stimuli/pictures/1787_fw.png	134.94656458403915	0.6368012499297038
181	69.44349654205143	response	0	j		179.0	/Users/shufanzhang/AOT_stimuli/pictures/1787_fw.png	135.57340883405413	
182	69.45345354196616	picture	0		34	180.0	/Users/shufanzhang/AOT_stimuli/pictures/1122_fw.png	135.58336583396886	0.2884911660803482
182	69.7312440420501	response	0	k		180.0	/Users/shufanzhang/AOT_stimuli/pictures/1122_fw.png	135.8611563340528	
183	69.7419447080465	picture	0		1218	181.0	/Users/shufanzhang/AOT_stimuli/pictures/0948_fw.png	135.8718570000492	10.166522166924551
183	79.89588416705374	response	0	j		181.0	/Users/shufanzhang/AOT_stimuli/pictures/0948_fw.png	146.02579645905644	
184	79.90846687497105	picture	0		57	182.0	/Users/shufanzhang/AOT_stimuli/pictures/1960_fw.png	146.03837916697375	0.46259745804127306
184	80.35709887498524	response	0	k		182.0	/Users/shufanzhang/AOT_stimuli/pictures/1960_fw.png	146.48701116698794	
185	80.37106433301233	picture	0		86	183.0	/Users/shufanzhang/AOT_stimuli/pictures/1659_fw.png	146.50097662501503	0.7194752920186147
185	81.07216854207218	response	0	j		183.0	/Users/shufanzhang/AOT_stimuli/pictures/1659_fw.png	147.20208083407488	
186	81.09053962503094	picture	0		32	184.0	/Users/shufanzhang/AOT_stimuli/pictures/2016_fw.png	147.22045191703364	0.26262362499255687
186	81.34017666697036	response	0	k		184.0	/Users/shufanzhang/AOT_stimuli/pictures/2016_fw.png	147.47008895897307	
187	81.3531632500235	picture	0		62	185.0	/Users/shufanzhang/AOT_stimuli/pictures/1054_fw.png	147.4830755420262	0.5301160420058295
187	81.87100504199043	response	0	j		185.0	/Users/shufanzhang/AOT_stimuli/pictures/1054_fw.png	148.00091733399313	
188	81.88327929202933	picture	0		36	186.0	/Users/shufanzhang/AOT_stimuli/pictures/0139_fw.png	148.01319158403203	0.29979249997995794
188	82.17167399998289	response	0	k		186.0	/Users/shufanzhang/AOT_stimuli/pictures/0139_fw.png	148.3015862919856	
189	82.18307179200929	picture	0		178	187.0	/Users/shufanzhang/AOT_stimuli/pictures/0382_fw.png	148.312984084012	1.4848815830191597
189	83.65563166700304	response	0	j		187.0	/Users/shufanzhang/AOT_stimuli/pictures/0382_fw.png	149.78554395900574	
190	83.66795337502845	picture	0		35	188.0	/Users/shufanzhang/AOT_stimuli/pictures/1668_fw.png	149.79786566703115	0.2899109999416396
190	83.9456936250208	response	0	k		188.0	/Users/shufanzhang/AOT_stimuli/pictures/1668_fw.png	150.0756059170235	
191	83.95786437497009	picture	0		72	189.0	/Users/shufanzhang/AOT_stimuli/pictures/0805_fw.png	150.0877766669728	0.6000646250322461
191	84.5462614580756	response	0	j		189.0	/Users/shufanzhang/AOT_stimuli/pictures/0805_fw.png	150.6761737500783	
192	84.55792900000233	picture	0		120	190.0	/Users/shufanzhang/AOT_stimuli/pictures/1779_fw.png	150.68784129200503	1.0016891249688342
192	85.5460551250726	response	0	k		190.0	/Users/shufanzhang/AOT_stimuli/pictures/1779_fw.png	151.6759674170753	
193	85.55961812497117	picture	0		120	191.0	/Users/shufanzhang/AOT_stimuli/pictures/0519_fw.png	151.68953041697387	0.9973576250486076
193	86.5440899169771	response	0	j		191.0	/Users/shufanzhang/AOT_stimuli/pictures/0519_fw.png	152.6740022089798	
194	86.55697575001977	picture	0		35	192.0	/Users/shufanzhang/AOT_stimuli/pictures/0368_fw.png	152.68688804202247	0.30038666701875627
194	86.8463125419803	response	0	k		192.0	/Users/shufanzhang/AOT_stimuli/pictures/0368_fw.png	152.976224833983	
195	86.85736241703853	picture	0		83	193.0	/Users/shufanzhang/AOT_stimuli/pictures/1548_fw.png	152.98727470904123	0.687152124941349
195	87.53148362506181	response	0	j		193.0	/Users/shufanzhang/AOT_stimuli/pictures/1548_fw.png	153.6613959170645	
196	87.54451454197988	picture	0		74	194.0	/Users/shufanzhang/AOT_stimuli/pictures/1474_fw.png	153.67442683398258	0.622903999988921
196	88.15367324999534	response	0	j		194.0	/Users/shufanzhang/AOT_stimuli/pictures/1474_fw.png	154.28358554199804	
197	88.1674185419688	picture	0		141	195.0	/Users/shufanzhang/AOT_stimuli/pictures/0576_fw.png	154.2973308339715	1.1663667910033837
197	89.32168825005647	response	0	j		195.0	/Users/shufanzhang/AOT_stimuli/pictures/0576_fw.png	155.45160054205917	
198	89.33378533297218	picture	0		65	196.0	/Users/shufanzhang/AOT_stimuli/pictures/1957_fw.png	155.46369762497488	0.5478195840260014
198	89.86973716702778	response	0	k		196.0	/Users/shufanzhang/AOT_stimuli/pictures/1957_fw.png	155.99964945903048	
199	89.88160491699819	picture	0		90	197.0	/Users/shufanzhang/AOT_stimuli/pictures/0586_fw.png	156.01151720900089	0.7827565830666572
199	90.65256566705648	response	0	j		197.0	/Users/shufanzhang/AOT_stimuli/pictures/0586_fw.png	156.78247795905918	
200	90.66436150006484	picture	0		138	198.0	/Users/shufanzhang/AOT_stimuli/pictures/1645_fw.png	156.79427379206754	1.1419020419707522
200	91.79818066698499	response	0	j		198.0	/Users/shufanzhang/AOT_stimuli/pictures/1645_fw.png	157.9280929589877	
201	91.8062635420356	picture	0		31	199.0	/Users/shufanzhang/AOT_stimuli/pictures/2052_fw.png	157.9361758340383	0.2691753749968484
201	92.0635627079755	response	0	k		199.0	/Users/shufanzhang/AOT_stimuli/pictures/2052_fw.png	158.1934749999782	
202	92.07543891703244	picture	0		199	200.0	/Users/shufanzhang/AOT_stimuli/pictures/1153_fw.png	158.20535120903514	1.643578500021249
202	93.71286295796745	response	0	j		200.0	/Users/shufanzhang/AOT_stimuli/pictures/1153_fw.png	159.84277524997015	
203	93.71901741705369	picture	0		36	201.0	/Users/shufanzhang/AOT_stimuli/pictures/2108_fw.png	159.8489297090564	0.3030571249546483
203	94.01289154205006	response	0	j		201.0	/Users/shufanzhang/AOT_stimuli/pictures/2108_fw.png	160.14280383405276	
204	94.02207454200834	picture	0		36	202.0	/Users/shufanzhang/AOT_stimuli/pictures/0242_fw.png	160.15198683401104	0.3093824579846114
204	94.3197006250266	response	0	j		202.0	/Users/shufanzhang/AOT_stimuli/pictures/0242_fw.png	160.4496129170293	
205	94.33145699999295	picture	0		42	203.0	/Users/shufanzhang/AOT_stimuli/pictures/1194_fw.png	160.46136929199565	0.3395233330084011
205	94.66128866700456	response	0	j		203.0	/Users/shufanzhang/AOT_stimuli/pictures/1194_fw.png	160.79120095900726	
206	94.67098033300135	picture	0		73	204.0	/Users/shufanzhang/AOT_stimuli/pictures/1264_fw.png	160.80089262500405	0.6180210000602528
206	95.27403929200955	response	0	k		204.0	/Users/shufanzhang/AOT_stimuli/pictures/1264_fw.png	161.40395158401225	
207	95.2890013330616	picture	0		56	205.0	/Users/shufanzhang/AOT_stimuli/pictures/1820_fw.png	161.4189136250643	0.4673394589917734
207	95.74470716703217	response	0	j		205.0	/Users/shufanzhang/AOT_stimuli/pictures/1820_fw.png	161.87461945903488	
208	95.75634079205338	picture	0		83	206.0	/Users/shufanzhang/AOT_stimuli/pictures/1191_fw.png	161.88625308405608	0.688583291019313
208	96.43159300007392	response	0	k		206.0	/Users/shufanzhang/AOT_stimuli/pictures/1191_fw.png	162.56150529207662	
209	96.44492408307269	picture	0		140	207.0	/Users/shufanzhang/AOT_stimuli/pictures/0620_fw.png	162.5748363750754	1.1633182918885723
209	97.59683354198933	response	0	j		207.0	/Users/shufanzhang/AOT_stimuli/pictures/0620_fw.png	163.72674583399203	
210	97.60824237496126	picture	0		30	208.0	/Users/shufanzhang/AOT_stimuli/pictures/0514_fw.png	163.73815466696396	0.24943170801270753
210	97.8470816250192	response	0	k		208.0	/Users/shufanzhang/AOT_stimuli/pictures/0514_fw.png	163.9769939170219	
211	97.85767408297397	picture	0		134	209.0	/Users/shufanzhang/AOT_stimuli/pictures/0978_fw.png	163.98758637497667	1.1186174590839073
211	98.96340208302718	response	0	j		209.0	/Users/shufanzhang/AOT_stimuli/pictures/0978_fw.png	165.09331437502988	
212	98.97629154205788	picture	0		72	210.0	/Users/shufanzhang/AOT_stimuli/pictures/1642_fw.png	165.10620383406058	0.6044313749298453
212	99.56915270804893	response	0	k		210.0	/Users/shufanzhang/AOT_stimuli/pictures/1642_fw.png	165.69906500005163	
213	99.58072291698772	picture	0		141	211.0	/Users/shufanzhang/AOT_stimuli/pictures/1892_fw.png	165.71063520899042	1.1647457079961896
