trial_nr	onset	event_type	phase	response	nr_frames	picture_index	picture_file	onset_abs	duration
0	0.1633317470550537	stim	0		702			56.767496824264526	5.896453380584717
0	3.713280439376831	response	0	j				60.317445516586304	
0	6.030182838439941	response	0	space				62.634347915649414	
2	6.0597851276397705	picture	0		199	0.0	/experiments/Knapen_AOT/AOT_stimuli/pictures/0964_fw.png	62.66395020484924	1.6811399459838867
2	7.721340656280518	response	0	j		0.0	/experiments/Knapen_AOT/AOT_stimuli/pictures/0964_fw.png	64.32550573348999	
3	7.740925073623657	picture	0		93	1.0	/experiments/Knapen_AOT/AOT_stimuli/pictures/1099_fw.png	64.34509015083313	0.7869179248809814
3	8.513787508010864	response	0	j		1.0	/experiments/Knapen_AOT/AOT_stimuli/pictures/1099_fw.png	65.11795258522034	
4	8.527842998504639	picture	0		135	2.0	/experiments/Knapen_AOT/AOT_stimuli/pictures/1648_fw.png	65.13200807571411	1.1319231986999512
4	9.646924495697021	response	0	k		2.0	/experiments/Knapen_AOT/AOT_stimuli/pictures/1648_fw.png	66.2510895729065	
5	9.65976619720459	picture	0		100	3.0	/experiments/Knapen_AOT/AOT_stimuli/pictures/0524_fw.png	66.26393127441406	0.8370070457458496
5	10.480229616165161	response	0	j		3.0	/experiments/Knapen_AOT/AOT_stimuli/pictures/0524_fw.png	67.08439469337463	
6	10.49677324295044	picture	0		113	4.0	/experiments/Knapen_AOT/AOT_stimuli/pictures/1206_fw.png	67.10093832015991	0.9499750137329102
6	11.430477142333984	response	0	k		4.0	/experiments/Knapen_AOT/AOT_stimuli/pictures/1206_fw.png	68.03464221954346	
7	11.44674825668335	picture	0		133	5.0	/experiments/Knapen_AOT/AOT_stimuli/pictures/2129_fw.png	68.05091333389282	1.1087822914123535
7	12.546956539154053	response	0	k		5.0	/experiments/Knapen_AOT/AOT_stimuli/pictures/2129_fw.png	69.15112161636353	
8	12.555530548095703	picture	0		102	6.0	/experiments/Knapen_AOT/AOT_stimuli/pictures/1607_fw.png	69.15969562530518	0.8541750907897949
8	13.39694595336914	response	0	k		6.0	/experiments/Knapen_AOT/AOT_stimuli/pictures/1607_fw.png	70.00111103057861	
9	13.409705638885498	picture	0		85	7.0	/experiments/Knapen_AOT/AOT_stimuli/pictures/0852_fw.png	70.01387071609497	0.7152812480926514
9	14.113624334335327	response	0	j		7.0	/experiments/Knapen_AOT/AOT_stimuli/pictures/0852_fw.png	70.7177894115448	
10	14.12498688697815	picture	0		91	8.0	/experiments/Knapen_AOT/AOT_stimuli/pictures/0829_fw.png	70.72915196418762	0.7569522857666016
10	14.871951341629028	response	0	j		8.0	/experiments/Knapen_AOT/AOT_stimuli/pictures/0829_fw.png	71.4761164188385	
11	14.881939172744751	picture	0		94	9.0	/experiments/Knapen_AOT/AOT_stimuli/pictures/0824_fw.png	71.48610424995422	0.784735918045044
11	15.655310153961182	response	0	k		9.0	/experiments/Knapen_AOT/AOT_stimuli/pictures/0824_fw.png	72.25947523117065	
12	15.666675090789795	picture	0		94	10.0	/experiments/Knapen_AOT/AOT_stimuli/pictures/0628_fw.png	72.27084016799927	0.7847270965576172
12	16.438664436340332	response	0	j		10.0	/experiments/Knapen_AOT/AOT_stimuli/pictures/0628_fw.png	73.0428295135498	
13	16.451402187347412	picture	0		105	11.0	/experiments/Knapen_AOT/AOT_stimuli/pictures/1371_fw.png	73.05556726455688	0.8819479942321777
13	17.321998834609985	response	0	k		11.0	/experiments/Knapen_AOT/AOT_stimuli/pictures/1371_fw.png	73.92616391181946	
14	17.33335018157959	picture	0		102	12.0	/experiments/Knapen_AOT/AOT_stimuli/pictures/1150_fw.png	73.93751525878906	0.8611397743225098
14	18.180360794067383	response	0	j		12.0	/experiments/Knapen_AOT/AOT_stimuli/pictures/1150_fw.png	74.78452587127686	
15	18.1944899559021	picture	0		80	13.0	/experiments/Knapen_AOT/AOT_stimuli/pictures/1144_fw.png	74.79865503311157	0.6773731708526611
15	18.856029272079468	response	0	j		13.0	/experiments/Knapen_AOT/AOT_stimuli/pictures/1144_fw.png	75.46019434928894	
16	18.87186312675476	picture	0		115	14.0	/experiments/Knapen_AOT/AOT_stimuli/pictures/0362_fw.png	75.47602820396423	0.9666645526885986
16	19.81435489654541	response	0	k		14.0	/experiments/Knapen_AOT/AOT_stimuli/pictures/0362_fw.png	76.41851997375488	
17	19.83852767944336	picture	0		112	15.0	/experiments/Knapen_AOT/AOT_stimuli/pictures/2086_fw.png	76.44269275665283	0.941687822341919
17	20.763739347457886	response	0	k		15.0	/experiments/Knapen_AOT/AOT_stimuli/pictures/2086_fw.png	77.36790442466736	
18	20.78021550178528	picture	0		118	16.0	/experiments/Knapen_AOT/AOT_stimuli/pictures/0087_fw.png	77.38438057899475	0.9836938381195068
18	21.75533652305603	response	0	k		16.0	/experiments/Knapen_AOT/AOT_stimuli/pictures/0087_fw.png	78.3595016002655	
19	21.763909339904785	picture	0		157	17.0	/experiments/Knapen_AOT/AOT_stimuli/pictures/0742_fw.png	78.36807441711426	1.3163237571716309
19	23.063765287399292	response	0	k		17.0	/experiments/Knapen_AOT/AOT_stimuli/pictures/0742_fw.png	79.66793036460876	
20	23.080233097076416	picture	0		208	18.0	/experiments/Knapen_AOT/AOT_stimuli/pictures/0251_fw.png	79.68439817428589	1.7416975498199463
20	24.798649549484253	response	0	k		18.0	/experiments/Knapen_AOT/AOT_stimuli/pictures/0251_fw.png	81.40281462669373	
21	24.821930646896362	picture	0		92	19.0	/experiments/Knapen_AOT/AOT_stimuli/pictures/1100_fw.png	81.42609572410583	0.7750928401947021
21	25.580430507659912	response	0	j		19.0	/experiments/Knapen_AOT/AOT_stimuli/pictures/1100_fw.png	82.18459558486938	
22	25.597023487091064	picture	0		188	20.0	/experiments/Knapen_AOT/AOT_stimuli/pictures/1292_fw.png	82.20118856430054	1.5697250366210938
22	27.155465602874756	response	0	k		20.0	/experiments/Knapen_AOT/AOT_stimuli/pictures/1292_fw.png	83.75963068008423	
23	27.166748523712158	picture	0		92	21.0	/experiments/Knapen_AOT/AOT_stimuli/pictures/1498_fw.png	83.77091360092163	0.7638833522796631
23	27.922114610671997	response	0	k		21.0	/experiments/Knapen_AOT/AOT_stimuli/pictures/1498_fw.png	84.52627968788147	
24	27.93063187599182	picture	0		91	22.0	/experiments/Knapen_AOT/AOT_stimuli/pictures/0832_fw.png	84.5347969532013	0.7663571834564209
24	28.680545806884766	response	0	j		22.0	/experiments/Knapen_AOT/AOT_stimuli/pictures/0832_fw.png	85.28471088409424	
25	28.696989059448242	picture	0		100	23.0	/experiments/Knapen_AOT/AOT_stimuli/pictures/1019_fw.png	85.30115413665771	0.8378417491912842
25	29.52214503288269	response	0	j		23.0	/experiments/Knapen_AOT/AOT_stimuli/pictures/1019_fw.png	86.12631011009216	
26	29.534830808639526	picture	0		114	24.0	/experiments/Knapen_AOT/AOT_stimuli/pictures/0195_fw.png	86.138995885849	0.9538438320159912
26	30.472193241119385	response	0	k		24.0	/experiments/Knapen_AOT/AOT_stimuli/pictures/0195_fw.png	87.07635831832886	
27	30.488674640655518	picture	0		159	25.0	/experiments/Knapen_AOT/AOT_stimuli/pictures/0570_fw.png	87.09283971786499	1.3333375453948975
27	31.80555272102356	response	0	k		25.0	/experiments/Knapen_AOT/AOT_stimuli/pictures/0570_fw.png	88.40971779823303	
28	31.822012186050415	picture	0		85	26.0	/experiments/Knapen_AOT/AOT_stimuli/pictures/0893_fw.png	88.42617726325989	0.7128410339355469
28	32.52218556404114	response	0	j		26.0	/experiments/Knapen_AOT/AOT_stimuli/pictures/0893_fw.png	89.12635064125061	
29	32.53485321998596	picture	0		88	27.0	/experiments/Knapen_AOT/AOT_stimuli/pictures/0175_fw.png	89.13901829719543	0.7371892929077148
29	33.25554966926575	response	0	j		27.0	/experiments/Knapen_AOT/AOT_stimuli/pictures/0175_fw.png	89.85971474647522	
30	33.27204251289368	picture	0		160	28.0	/experiments/Knapen_AOT/AOT_stimuli/pictures/2113_fw.png	89.87620759010315	1.3392252922058105
30	34.59726357460022	response	0	j		28.0	/experiments/Knapen_AOT/AOT_stimuli/pictures/2113_fw.png	91.20142865180969	
31	34.61126780509949	picture	0		80	29.0	/experiments/Knapen_AOT/AOT_stimuli/pictures/1331_fw.png	91.21543288230896	0.6735970973968506
31	35.272205114364624	response	0	j		29.0	/experiments/Knapen_AOT/AOT_stimuli/pictures/1331_fw.png	91.8763701915741	
32	35.28486490249634	picture	0		87	30.0	/experiments/Knapen_AOT/AOT_stimuli/pictures/1546_fw.png	91.88902997970581	0.7288949489593506
32	35.99721956253052	response	0	j		30.0	/experiments/Knapen_AOT/AOT_stimuli/pictures/1546_fw.png	92.60138463973999	
33	36.01375985145569	picture	0		150	31.0	/experiments/Knapen_AOT/AOT_stimuli/pictures/1355_fw.png	92.61792492866516	1.2502610683441162
33	37.2556049823761	response	0	j		31.0	/experiments/Knapen_AOT/AOT_stimuli/pictures/1355_fw.png	93.85977005958557	
34	37.264020919799805	picture	0		91	32.0	/experiments/Knapen_AOT/AOT_stimuli/pictures/0092_fw.png	93.86818599700928	0.764061450958252
34	38.00718593597412	response	0	j		32.0	/experiments/Knapen_AOT/AOT_stimuli/pictures/0092_fw.png	94.6113510131836	
35	38.02808237075806	picture	0		85	33.0	/experiments/Knapen_AOT/AOT_stimuli/pictures/0436_fw.png	94.63224744796753	0.715238094329834
35	38.73060321807861	response	0	j		33.0	/experiments/Knapen_AOT/AOT_stimuli/pictures/0436_fw.png	95.33476829528809	
36	38.74332046508789	picture	0		169	34.0	/experiments/Knapen_AOT/AOT_stimuli/pictures/1240_fw.png	95.34748554229736	1.4165942668914795
36	40.147292375564575	response	0	j		34.0	/experiments/Knapen_AOT/AOT_stimuli/pictures/1240_fw.png	96.75145745277405	
37	40.15991473197937	picture	0		80	35.0	/experiments/Knapen_AOT/AOT_stimuli/pictures/2121_fw.png	96.76407980918884	0.6666672229766846
37	40.80786991119385	response	0	j		35.0	/experiments/Knapen_AOT/AOT_stimuli/pictures/2121_fw.png	97.41203498840332	
38	40.826581954956055	picture	0		75	36.0	/experiments/Knapen_AOT/AOT_stimuli/pictures/0470_fw.png	97.43074703216553	0.6250259876251221
38	41.43895626068115	response	0	j		36.0	/experiments/Knapen_AOT/AOT_stimuli/pictures/0470_fw.png	98.04312133789062	
39	41.45160794258118	picture	0		80	37.0	/experiments/Knapen_AOT/AOT_stimuli/pictures/0512_fw.png	98.05577301979065	0.6705598831176758
39	42.105671405792236	response	0	j		37.0	/experiments/Knapen_AOT/AOT_stimuli/pictures/0512_fw.png	98.70983648300171	
40	42.12216782569885	picture	0		126	38.0	/experiments/Knapen_AOT/AOT_stimuli/pictures/0291_fw.png	98.72633290290833	1.058335781097412
40	43.16399669647217	response	0	k		38.0	/experiments/Knapen_AOT/AOT_stimuli/pictures/0291_fw.png	99.76816177368164	
41	43.180503606796265	picture	0		145	39.0	/experiments/Knapen_AOT/AOT_stimuli/pictures/1166_fw.png	99.78466868400574	1.208571434020996
41	44.380698919296265	response	0	j		39.0	/experiments/Knapen_AOT/AOT_stimuli/pictures/1166_fw.png	100.98486399650574	
42	44.38907504081726	picture	0		287	40.0	/experiments/Knapen_AOT/AOT_stimuli/pictures/2130_fw.png	100.99324011802673	2.395878553390503
42	46.772374391555786	response	0	j		40.0	/experiments/Knapen_AOT/AOT_stimuli/pictures/2130_fw.png	103.37653946876526	
43	46.784953594207764	picture	0		167	41.0	/experiments/Knapen_AOT/AOT_stimuli/pictures/2170_fw.png	103.38911867141724	1.3888969421386719
43	48.164069175720215	response	0	k		41.0	/experiments/Knapen_AOT/AOT_stimuli/pictures/2170_fw.png	104.76823425292969	
44	48.173850536346436	picture	0		100	42.0	/experiments/Knapen_AOT/AOT_stimuli/pictures/1288_fw.png	104.77801561355591	0.8333339691162109
44	48.9974045753479	response	0	k		42.0	/experiments/Knapen_AOT/AOT_stimuli/pictures/1288_fw.png	105.60156965255737	
45	49.00718450546265	picture	0		96	43.0	/experiments/Knapen_AOT/AOT_stimuli/pictures/1659_fw.png	105.61134958267212	0.7986159324645996
45	49.797404050827026	response	0	k		43.0	/experiments/Knapen_AOT/AOT_stimuli/pictures/1659_fw.png	106.4015691280365	
46	49.805800437927246	picture	0		81	44.0	/experiments/Knapen_AOT/AOT_stimuli/pictures/1256_fw.png	106.40996551513672	0.6831166744232178
46	50.472410440444946	response	0	j		44.0	/experiments/Knapen_AOT/AOT_stimuli/pictures/1256_fw.png	107.07657551765442	
47	50.488917112350464	picture	0		114	45.0	/experiments/Knapen_AOT/AOT_stimuli/pictures/0339_fw.png	107.09308218955994	0.9583570957183838
47	51.430776596069336	response	0	j		45.0	/experiments/Knapen_AOT/AOT_stimuli/pictures/0339_fw.png	108.03494167327881	
48	51.44727420806885	picture	0		684	46.0	/experiments/Knapen_AOT/AOT_stimuli/pictures/0540_fw.png	108.05143928527832	5.708395004272461
48	57.139442443847656	response	0	k		46.0	/experiments/Knapen_AOT/AOT_stimuli/pictures/0540_fw.png	113.74360752105713	
49	57.15566921234131	picture	0		107	47.0	/experiments/Knapen_AOT/AOT_stimuli/pictures/1108_fw.png	113.75983428955078	0.8932445049285889
49	58.039177894592285	response	0	k		47.0	/experiments/Knapen_AOT/AOT_stimuli/pictures/1108_fw.png	114.64334297180176	
50	58.0489137172699	picture	0		135	48.0	/experiments/Knapen_AOT/AOT_stimuli/pictures/0424_fw.png	114.65307879447937	1.1250171661376953
50	59.164186239242554	response	0	k		48.0	/experiments/Knapen_AOT/AOT_stimuli/pictures/0424_fw.png	115.76835131645203	
51	59.17393088340759	picture	0		89	49.0	/experiments/Knapen_AOT/AOT_stimuli/pictures/1699_fw.png	115.77809596061707	0.7430593967437744
51	59.90586543083191	response	0	j		49.0	/experiments/Knapen_AOT/AOT_stimuli/pictures/1699_fw.png	116.51003050804138	
52	59.91699028015137	picture	0		85	50.0	/experiments/Knapen_AOT/AOT_stimuli/pictures/1602_fw.png	116.52115535736084	0.7138211727142334
52	60.60768747329712	response	0	j		50.0	/experiments/Knapen_AOT/AOT_stimuli/pictures/1602_fw.png	117.21185255050659	
53	60.6308114528656	picture	0		128	51.0	/experiments/Knapen_AOT/AOT_stimuli/pictures/2094_fw.png	117.23497653007507	1.0709478855133057
53	61.68921756744385	response	0	k		51.0	/experiments/Knapen_AOT/AOT_stimuli/pictures/2094_fw.png	118.29338264465332	
54	61.701759338378906	picture	0		82	52.0	/experiments/Knapen_AOT/AOT_stimuli/pictures/1925_fw.png	118.30592441558838	0.6805450916290283
54	62.37257480621338	response	0	j		52.0	/experiments/Knapen_AOT/AOT_stimuli/pictures/1925_fw.png	118.97673988342285	
55	62.382304430007935	picture	0		155	53.0	/experiments/Knapen_AOT/AOT_stimuli/pictures/0860_fw.png	118.98646950721741	1.2984731197357178
55	63.66426110267639	response	0	j		53.0	/experiments/Knapen_AOT/AOT_stimuli/pictures/0860_fw.png	120.26842617988586	
56	63.68077754974365	picture	0		75	54.0	/experiments/Knapen_AOT/AOT_stimuli/pictures/0083_fw.png	120.28494262695312	0.633307695388794
56	64.29761171340942	response	0	j		54.0	/experiments/Knapen_AOT/AOT_stimuli/pictures/0083_fw.png	120.9017767906189	
57	64.31408524513245	picture	0		341	55.0	/experiments/Knapen_AOT/AOT_stimuli/pictures/0001_fw.png	120.91825032234192	2.8500380516052246
57	67.14765310287476	response	0	k		55.0	/experiments/Knapen_AOT/AOT_stimuli/pictures/0001_fw.png	123.75181818008423	
58	67.16412329673767	picture	0		118	56.0	/experiments/Knapen_AOT/AOT_stimuli/pictures/1096_fw.png	123.76828837394714	0.9917070865631104
58	68.13930439949036	response	0	k		56.0	/experiments/Knapen_AOT/AOT_stimuli/pictures/1096_fw.png	124.74346947669983	
59	68.15583038330078	picture	0		82	57.0	/experiments/Knapen_AOT/AOT_stimuli/pictures/1744_fw.png	124.75999546051025	0.6916656494140625
59	68.83102059364319	response	0	j		57.0	/experiments/Knapen_AOT/AOT_stimuli/pictures/1744_fw.png	125.43518567085266	
60	68.84749603271484	picture	0		234	58.0	/experiments/Knapen_AOT/AOT_stimuli/pictures/1271_fw.png	125.45166110992432	1.9515249729156494
60	70.78933954238892	response	0	k		58.0	/experiments/Knapen_AOT/AOT_stimuli/pictures/1271_fw.png	127.39350461959839	
61	70.7990210056305	picture	0		113	59.0	/experiments/Knapen_AOT/AOT_stimuli/pictures/1115_fw.png	127.40318608283997	0.9444530010223389
61	71.73101758956909	response	0	k		59.0	/experiments/Knapen_AOT/AOT_stimuli/pictures/1115_fw.png	128.33518266677856	
62	71.74347400665283	picture	0		119	60.0	/experiments/Knapen_AOT/AOT_stimuli/pictures/0095_fw.png	128.3476390838623	0.9999940395355225
62	72.73102521896362	response	0	j		60.0	/experiments/Knapen_AOT/AOT_stimuli/pictures/0095_fw.png	129.3351902961731	
63	72.74346804618835	picture	0		91	61.0	/experiments/Knapen_AOT/AOT_stimuli/pictures/0670_fw.png	129.34763312339783	0.7624325752258301
63	73.48940253257751	response	0	k		61.0	/experiments/Knapen_AOT/AOT_stimuli/pictures/0670_fw.png	130.093567609787	
64	73.50590062141418	picture	0		103	62.0	/experiments/Knapen_AOT/AOT_stimuli/pictures/2158_fw.png	130.11006569862366	0.8625843524932861
64	74.3560402393341	response	0	j		62.0	/experiments/Knapen_AOT/AOT_stimuli/pictures/2158_fw.png	130.96020531654358	
65	74.36848497390747	picture	0		82	63.0	/experiments/Knapen_AOT/AOT_stimuli/pictures/1041_fw.png	130.97265005111694	0.6805627346038818
65	75.03940033912659	response	0	j		63.0	/experiments/Knapen_AOT/AOT_stimuli/pictures/1041_fw.png	131.64356541633606	
66	75.04904770851135	picture	0		108	64.0	/experiments/Knapen_AOT/AOT_stimuli/pictures/0236_fw.png	131.65321278572083	0.9027869701385498
66	75.93940138816833	response	0	k		64.0	/experiments/Knapen_AOT/AOT_stimuli/pictures/0236_fw.png	132.5435664653778	
67	75.9518346786499	picture	0		94	65.0	/experiments/Knapen_AOT/AOT_stimuli/pictures/2139_fw.png	132.55599975585938	0.7847418785095215
67	76.72273349761963	response	0	k		65.0	/experiments/Knapen_AOT/AOT_stimuli/pictures/2139_fw.png	133.3268985748291	
68	76.73657655715942	picture	0		80	66.0	/experiments/Knapen_AOT/AOT_stimuli/pictures/1926_fw.png	133.3407416343689	0.6776838302612305
68	77.39776754379272	response	0	j		66.0	/experiments/Knapen_AOT/AOT_stimuli/pictures/1926_fw.png	134.0019326210022	
69	77.41426038742065	picture	0		75	67.0	/experiments/Knapen_AOT/AOT_stimuli/pictures/1597_fw.png	134.01842546463013	0.6278629302978516
69	78.03110122680664	response	0	j		67.0	/experiments/Knapen_AOT/AOT_stimuli/pictures/1597_fw.png	134.6352663040161	
70	78.0421233177185	picture	0		112	68.0	/experiments/Knapen_AOT/AOT_stimuli/pictures/0912_fw.png	134.64628839492798	0.9388115406036377
70	78.96444392204285	response	0	j		68.0	/experiments/Knapen_AOT/AOT_stimuli/pictures/0912_fw.png	135.56860899925232	
71	78.98093485832214	picture	0		94	69.0	/experiments/Knapen_AOT/AOT_stimuli/pictures/2076_fw.png	135.58509993553162	0.79168701171875
71	79.75613045692444	response	0	j		69.0	/experiments/Knapen_AOT/AOT_stimuli/pictures/2076_fw.png	136.3602955341339	
72	79.7726218700409	picture	0		117	70.0	/experiments/Knapen_AOT/AOT_stimuli/pictures/1940_fw.png	136.37678694725037	0.9778506755828857
72	80.73944807052612	response	0	k		70.0	/experiments/Knapen_AOT/AOT_stimuli/pictures/1940_fw.png	137.3436131477356	
73	80.75047254562378	picture	0		118	71.0	/experiments/Knapen_AOT/AOT_stimuli/pictures/0451_fw.png	137.35463762283325	0.9861464500427246
73	81.72279524803162	response	0	k		71.0	/experiments/Knapen_AOT/AOT_stimuli/pictures/0451_fw.png	138.3269603252411	
74	81.7366189956665	picture	0		159	72.0	/experiments/Knapen_AOT/AOT_stimuli/pictures/1045_fw.png	138.34078407287598	1.3333444595336914
74	83.0562071800232	response	0	k		72.0	/experiments/Knapen_AOT/AOT_stimuli/pictures/1045_fw.png	139.66037225723267	
75	83.0699634552002	picture	0		87	73.0	/experiments/Knapen_AOT/AOT_stimuli/pictures/0275_fw.png	139.67412853240967	0.729144811630249
75	83.78949880599976	response	0	k		73.0	/experiments/Knapen_AOT/AOT_stimuli/pictures/0275_fw.png	140.39366388320923	
76	83.79910826683044	picture	0		88	74.0	/experiments/Knapen_AOT/AOT_stimuli/pictures/0196_fw.png	140.40327334403992	0.7402312755584717
76	84.52283787727356	response	0	j		74.0	/experiments/Knapen_AOT/AOT_stimuli/pictures/0196_fw.png	141.12700295448303	
77	84.53933954238892	picture	0		156	75.0	/experiments/Knapen_AOT/AOT_stimuli/pictures/1989_fw.png	141.1435046195984	1.3083858489990234
77	85.8311858177185	response	0	k		75.0	/experiments/Knapen_AOT/AOT_stimuli/pictures/1989_fw.png	142.43535089492798	
78	85.84772539138794	picture	0		103	76.0	/experiments/Knapen_AOT/AOT_stimuli/pictures/0904_fw.png	142.4518904685974	0.8611209392547607
78	86.69785380363464	response	0	k		76.0	/experiments/Knapen_AOT/AOT_stimuli/pictures/0904_fw.png	143.30201888084412	
79	86.7088463306427	picture	0		133	77.0	/experiments/Knapen_AOT/AOT_stimuli/pictures/2084_fw.png	143.31301140785217	1.1111481189727783
79	87.80647206306458	response	0	k		77.0	/experiments/Knapen_AOT/AOT_stimuli/pictures/2084_fw.png	144.41063714027405	
80	87.81999444961548	picture	0		81	78.0	/experiments/Knapen_AOT/AOT_stimuli/pictures/0592_fw.png	144.42415952682495	0.6805570125579834
80	88.48956680297852	response	0	j		78.0	/experiments/Knapen_AOT/AOT_stimuli/pictures/0592_fw.png	145.093731880188	
81	88.50055146217346	picture	0		76	79.0	/experiments/Knapen_AOT/AOT_stimuli/pictures/0555_fw.png	145.10471653938293	0.6319277286529541
81	89.12289810180664	response	0	j		79.0	/experiments/Knapen_AOT/AOT_stimuli/pictures/0555_fw.png	145.7270631790161	
82	89.13247919082642	picture	0		109	80.0	/experiments/Knapen_AOT/AOT_stimuli/pictures/1334_fw.png	145.7366442680359	0.9097304344177246
82	90.03123712539673	response	0	j		80.0	/experiments/Knapen_AOT/AOT_stimuli/pictures/1334_fw.png	146.6354022026062	
83	90.04220962524414	picture	0		84	81.0	/experiments/Knapen_AOT/AOT_stimuli/pictures/1559_fw.png	146.6463747024536	0.7055342197418213
83	90.7314064502716	response	0	j		81.0	/experiments/Knapen_AOT/AOT_stimuli/pictures/1559_fw.png	147.33557152748108	
84	90.74774384498596	picture	0		101	82.0	/experiments/Knapen_AOT/AOT_stimuli/pictures/0378_fw.png	147.35190892219543	0.8430876731872559
84	91.58126902580261	response	0	k		82.0	/experiments/Knapen_AOT/AOT_stimuli/pictures/0378_fw.png	148.18543410301208	
85	91.59083151817322	picture	0		257	83.0	/experiments/Knapen_AOT/AOT_stimuli/pictures/1527_fw.png	148.1949965953827	2.1458680629730225
85	93.72297191619873	response	0	j		83.0	/experiments/Knapen_AOT/AOT_stimuli/pictures/1527_fw.png	150.3271369934082	
86	93.73669958114624	picture	0		128	84.0	/experiments/Knapen_AOT/AOT_stimuli/pictures/1207_fw.png	150.3408646583557	1.0777995586395264
86	94.79803156852722	response	0	j		84.0	/experiments/Knapen_AOT/AOT_stimuli/pictures/1207_fw.png	151.4021966457367	
87	94.81449913978577	picture	0		100	85.0	/experiments/Knapen_AOT/AOT_stimuli/pictures/2053_fw.png	151.41866421699524	0.8388946056365967
87	95.63967752456665	response	0	k		85.0	/experiments/Knapen_AOT/AOT_stimuli/pictures/2053_fw.png	152.24384260177612	
88	95.65339374542236	picture	0		93	86.0	/experiments/Knapen_AOT/AOT_stimuli/pictures/0659_fw.png	152.25755882263184	0.7777824401855469
88	96.42297983169556	response	0	j		86.0	/experiments/Knapen_AOT/AOT_stimuli/pictures/0659_fw.png	153.02714490890503	
89	96.43117618560791	picture	0		100	87.0	/experiments/Knapen_AOT/AOT_stimuli/pictures/0471_fw.png	153.03534126281738	0.8333413600921631
89	97.25634789466858	response	0	k		87.0	/experiments/Knapen_AOT/AOT_stimuli/pictures/0471_fw.png	153.86051297187805	
90	97.26451754570007	picture	0		113	88.0	/experiments/Knapen_AOT/AOT_stimuli/pictures/1769_fw.png	153.86868262290955	0.9444177150726318
90	98.19138741493225	response	0	k		88.0	/experiments/Knapen_AOT/AOT_stimuli/pictures/1769_fw.png	154.79555249214172	
91	98.2089352607727	picture	0		108	89.0	/experiments/Knapen_AOT/AOT_stimuli/pictures/1493_fw.png	154.81310033798218	0.9028201103210449
91	99.09802150726318	response	0	k		89.0	/experiments/Knapen_AOT/AOT_stimuli/pictures/1493_fw.png	155.70218658447266	
92	99.11175537109375	picture	0		117	90.0	/experiments/Knapen_AOT/AOT_stimuli/pictures/1824_fw.png	155.71592044830322	0.9861724376678467
92	100.08141326904297	response	0	k		90.0	/experiments/Knapen_AOT/AOT_stimuli/pictures/1824_fw.png	156.68557834625244	
93	100.0979278087616	picture	0		96	91.0	/experiments/Knapen_AOT/AOT_stimuli/pictures/2009_fw.png	156.70209288597107	0.8054928779602051
93	100.88973069190979	response	0	k		91.0	/experiments/Knapen_AOT/AOT_stimuli/pictures/2009_fw.png	157.49389576911926	
94	100.9034206867218	picture	0		86	92.0	/experiments/Knapen_AOT/AOT_stimuli/pictures/0036_fw.png	157.50758576393127	0.727816104888916
94	101.61478090286255	response	0	k		92.0	/experiments/Knapen_AOT/AOT_stimuli/pictures/0036_fw.png	158.21894598007202	
95	101.63123679161072	picture	0		137	93.0	/experiments/Knapen_AOT/AOT_stimuli/pictures/2127_fw.png	158.2354018688202	1.149996042251587
95	102.76475143432617	response	0	k		93.0	/experiments/Knapen_AOT/AOT_stimuli/pictures/2127_fw.png	159.36891651153564	
96	102.7812328338623	picture	0		89	94.0	/experiments/Knapen_AOT/AOT_stimuli/pictures/1557_fw.png	159.38539791107178	0.747295618057251
96	103.51477408409119	response	0	k		94.0	/experiments/Knapen_AOT/AOT_stimuli/pictures/1557_fw.png	160.11893916130066	
97	103.52852845191956	picture	0		89	95.0	/experiments/Knapen_AOT/AOT_stimuli/pictures/0919_fw.png	160.13269352912903	0.749915361404419
97	104.26475501060486	response	0	j		95.0	/experiments/Knapen_AOT/AOT_stimuli/pictures/0919_fw.png	160.86892008781433	
98	104.27844381332397	picture	0		82	96.0	/experiments/Knapen_AOT/AOT_stimuli/pictures/0799_fw.png	160.88260889053345	0.6874837875366211
98	104.95643067359924	response	0	j		96.0	/experiments/Knapen_AOT/AOT_stimuli/pictures/0799_fw.png	161.56059575080872	
99	104.9659276008606	picture	0		102	97.0	/experiments/Knapen_AOT/AOT_stimuli/pictures/1991_fw.png	161.57009267807007	0.857001543045044
99	105.80646181106567	response	0	k		97.0	/experiments/Knapen_AOT/AOT_stimuli/pictures/1991_fw.png	162.41062688827515	
100	105.82292914390564	picture	0		94	98.0	/experiments/Knapen_AOT/AOT_stimuli/pictures/0839_fw.png	162.4270942211151	0.7889111042022705
100	106.59841251373291	response	0	k		98.0	/experiments/Knapen_AOT/AOT_stimuli/pictures/0839_fw.png	163.20257759094238	
101	106.61184024810791	picture	0		117	99.0	/experiments/Knapen_AOT/AOT_stimuli/pictures/0849_fw.png	163.21600532531738	0.9862098693847656
101	107.58147597312927	response	0	k		99.0	/experiments/Knapen_AOT/AOT_stimuli/pictures/0849_fw.png	164.18564105033875	
102	107.59805011749268	picture	0		80	100.0	/experiments/Knapen_AOT/AOT_stimuli/pictures/0798_fw.png	164.20221519470215	0.6665740013122559
102	108.25650572776794	response	0	j		100.0	/experiments/Knapen_AOT/AOT_stimuli/pictures/0798_fw.png	164.86067080497742	
103	108.26462411880493	picture	0		133	101.0	/experiments/Knapen_AOT/AOT_stimuli/pictures/1879_fw.png	164.8687891960144	1.1110589504241943
103	109.36482214927673	response	0	j		101.0	/experiments/Knapen_AOT/AOT_stimuli/pictures/1879_fw.png	165.9689872264862	
104	109.37568306922913	picture	0		81	102.0	/experiments/Knapen_AOT/AOT_stimuli/pictures/0466_fw.png	165.9798481464386	0.6806430816650391
104	110.03987455368042	response	0	j		102.0	/experiments/Knapen_AOT/AOT_stimuli/pictures/0466_fw.png	166.6440396308899	
105	110.05632615089417	picture	0		1267	103.0	/experiments/Knapen_AOT/AOT_stimuli/pictures/1640_fw.png	166.66049122810364	10.566813468933105
105	120.60697221755981	response	0	j		103.0	/experiments/Knapen_AOT/AOT_stimuli/pictures/1640_fw.png	177.2111372947693	
106	120.62313961982727	picture	0		117	104.0	/experiments/Knapen_AOT/AOT_stimuli/pictures/2179_fw.png	177.22730469703674	0.9749915599822998
106	121.58257865905762	response	0	j		104.0	/experiments/Knapen_AOT/AOT_stimuli/pictures/2179_fw.png	178.1867437362671	
107	121.59813117980957	picture	0		91	105.0	/experiments/Knapen_AOT/AOT_stimuli/pictures/1289_fw.png	178.20229625701904	0.7637786865234375
107	122.34832835197449	response	0	j		105.0	/experiments/Knapen_AOT/AOT_stimuli/pictures/1289_fw.png	178.95249342918396	
108	122.36190986633301	picture	0		140	106.0	/experiments/Knapen_AOT/AOT_stimuli/pictures/1247_fw.png	178.96607494354248	1.177933931350708
108	123.52340078353882	response	0	k		106.0	/experiments/Knapen_AOT/AOT_stimuli/pictures/1247_fw.png	180.1275658607483	
109	123.53984379768372	picture	0		87	107.0	/experiments/Knapen_AOT/AOT_stimuli/pictures/1368_fw.png	180.1440088748932	0.7249746322631836
109	124.25669598579407	response	0	j		107.0	/experiments/Knapen_AOT/AOT_stimuli/pictures/1368_fw.png	180.86086106300354	
110	124.2648184299469	picture	0		78	108.0	/experiments/Knapen_AOT/AOT_stimuli/pictures/1427_fw.png	180.86898350715637	0.6526410579681396
110	124.90669751167297	response	0	j		108.0	/experiments/Knapen_AOT/AOT_stimuli/pictures/1427_fw.png	181.51086258888245	
111	124.91745948791504	picture	0		181	109.0	/experiments/Knapen_AOT/AOT_stimuli/pictures/1931_fw.png	181.5216245651245	1.5069727897644043
111	126.41503763198853	response	0	k		109.0	/experiments/Knapen_AOT/AOT_stimuli/pictures/1931_fw.png	183.019202709198	
112	126.42443227767944	picture	0		156	110.0	/experiments/Knapen_AOT/AOT_stimuli/pictures/0999_fw.png	183.02859735488892	1.3071308135986328
112	127.71506810188293	response	0	k		110.0	/experiments/Knapen_AOT/AOT_stimuli/pictures/0999_fw.png	184.3192331790924	
113	127.73156309127808	picture	0		80	111.0	/experiments/Knapen_AOT/AOT_stimuli/pictures/1958_fw.png	184.33572816848755	0.6720836162567139
113	128.38260126113892	response	0	j		111.0	/experiments/Knapen_AOT/AOT_stimuli/pictures/1958_fw.png	184.9867663383484	
114	128.4036467075348	picture	0		84	112.0	/experiments/Knapen_AOT/AOT_stimuli/pictures/0617_fw.png	185.00781178474426	0.7112538814544678
114	129.09841561317444	response	0	j		112.0	/experiments/Knapen_AOT/AOT_stimuli/pictures/0617_fw.png	185.7025806903839	
115	129.11490058898926	picture	0		97	113.0	/experiments/Knapen_AOT/AOT_stimuli/pictures/2022_fw.png	185.71906566619873	0.816680908203125
115	129.91507172584534	response	0	k		113.0	/experiments/Knapen_AOT/AOT_stimuli/pictures/2022_fw.png	186.5192368030548	
116	129.93158149719238	picture	0		92	114.0	/experiments/Knapen_AOT/AOT_stimuli/pictures/1016_fw.png	186.53574657440186	0.7706518173217773
116	130.69026947021484	response	0	j		114.0	/experiments/Knapen_AOT/AOT_stimuli/pictures/1016_fw.png	187.29443454742432	
117	130.70223331451416	picture	0		83	115.0	/experiments/Knapen_AOT/AOT_stimuli/pictures/1003_fw.png	187.30639839172363	0.6876688003540039
117	131.38172817230225	response	0	j		115.0	/experiments/Knapen_AOT/AOT_stimuli/pictures/1003_fw.png	187.98589324951172	
118	131.38990211486816	picture	0		238	116.0	/experiments/Knapen_AOT/AOT_stimuli/pictures/0872_fw.png	187.99406719207764	1.991739273071289
118	133.36516857147217	response	0	k		116.0	/experiments/Knapen_AOT/AOT_stimuli/pictures/0872_fw.png	189.96933364868164	
119	133.38164138793945	picture	0		116	117.0	/experiments/Knapen_AOT/AOT_stimuli/pictures/1868_fw.png	189.98580646514893	0.9666423797607422
119	134.34014081954956	response	0	k		117.0	/experiments/Knapen_AOT/AOT_stimuli/pictures/1868_fw.png	190.94430589675903	
120	134.3482837677002	picture	0		66	118.0	/experiments/Knapen_AOT/AOT_stimuli/pictures/1588_fw.png	190.95244884490967	0.5583679676055908
120	134.89016914367676	response	0	j		118.0	/experiments/Knapen_AOT/AOT_stimuli/pictures/1588_fw.png	191.49433422088623	
121	134.9066517353058	picture	0		102	119.0	/experiments/Knapen_AOT/AOT_stimuli/pictures/0418_fw.png	191.51081681251526	0.851243257522583
121	135.74847030639648	response	0	k		119.0	/experiments/Knapen_AOT/AOT_stimuli/pictures/0418_fw.png	192.35263538360596	
122	135.75789499282837	picture	0		89	120.0	/experiments/Knapen_AOT/AOT_stimuli/pictures/1825_fw.png	192.36206007003784	0.7488086223602295
122	136.4901921749115	response	0	j		120.0	/experiments/Knapen_AOT/AOT_stimuli/pictures/1825_fw.png	193.09435725212097	
123	136.5067036151886	picture	0		87	121.0	/experiments/Knapen_AOT/AOT_stimuli/pictures/2095_fw.png	193.11086869239807	0.7333221435546875
123	137.22350811958313	response	0	k		121.0	/experiments/Knapen_AOT/AOT_stimuli/pictures/2095_fw.png	193.8276731967926	
124	137.2400257587433	picture	0		145	122.0	/experiments/Knapen_AOT/AOT_stimuli/pictures/1237_fw.png	193.84419083595276	1.2122557163238525
124	138.4401934146881	response	0	k		122.0	/experiments/Knapen_AOT/AOT_stimuli/pictures/1237_fw.png	195.04435849189758	
125	138.45228147506714	picture	0		98	123.0	/experiments/Knapen_AOT/AOT_stimuli/pictures/1389_fw.png	195.0564465522766	0.8127210140228271
125	139.25690603256226	response	0	k		123.0	/experiments/Knapen_AOT/AOT_stimuli/pictures/1389_fw.png	195.86107110977173	
126	139.26500248908997	picture	0		88	124.0	/experiments/Knapen_AOT/AOT_stimuli/pictures/1148_fw.png	195.86916756629944	0.7417230606079102
126	139.9825942516327	response	0	j		124.0	/experiments/Knapen_AOT/AOT_stimuli/pictures/1148_fw.png	196.58675932884216	
127	140.00672554969788	picture	0		91	125.0	/experiments/Knapen_AOT/AOT_stimuli/pictures/0269_fw.png	196.61089062690735	0.7666521072387695
127	140.75696229934692	response	0	j		125.0	/experiments/Knapen_AOT/AOT_stimuli/pictures/0269_fw.png	197.3611273765564	
128	140.77337765693665	picture	0		79	126.0	/experiments/Knapen_AOT/AOT_stimuli/pictures/2045_fw.png	197.37754273414612	0.6666891574859619
128	141.4237596988678	response	0	j		126.0	/experiments/Knapen_AOT/AOT_stimuli/pictures/2045_fw.png	198.02792477607727	
129	141.4400668144226	picture	0		147	127.0	/experiments/Knapen_AOT/AOT_stimuli/pictures/1391_fw.png	198.04423189163208	1.227569818496704
129	142.65691614151	response	0	j		127.0	/experiments/Knapen_AOT/AOT_stimuli/pictures/1391_fw.png	199.26108121871948	
130	142.6676366329193	picture	0		98	128.0	/experiments/Knapen_AOT/AOT_stimuli/pictures/0234_fw.png	199.27180171012878	0.8224451541900635
130	143.47360062599182	response	0	j		128.0	/experiments/Knapen_AOT/AOT_stimuli/pictures/0234_fw.png	200.0777657032013	
131	143.49008178710938	picture	0		162	129.0	/experiments/Knapen_AOT/AOT_stimuli/pictures/0214_fw.png	200.09424686431885	1.3511297702789307
131	144.83197903633118	response	0	k		129.0	/experiments/Knapen_AOT/AOT_stimuli/pictures/0214_fw.png	201.43614411354065	
132	144.8412115573883	picture	0		90	130.0	/experiments/Knapen_AOT/AOT_stimuli/pictures/1497_fw.png	201.44537663459778	0.7500131130218506
132	145.58215498924255	response	0	j		130.0	/experiments/Knapen_AOT/AOT_stimuli/pictures/1497_fw.png	202.18632006645203	
133	145.59122467041016	picture	0		100	131.0	/experiments/Knapen_AOT/AOT_stimuli/pictures/1215_fw.png	202.19538974761963	0.833341121673584
133	146.41530585289001	response	0	k		131.0	/experiments/Knapen_AOT/AOT_stimuli/pictures/1215_fw.png	203.0194709300995	
134	146.42456579208374	picture	0		78	132.0	/experiments/Knapen_AOT/AOT_stimuli/pictures/1876_fw.png	203.0287308692932	0.6527936458587646
134	147.06535816192627	response	0	j		132.0	/experiments/Knapen_AOT/AOT_stimuli/pictures/1876_fw.png	203.66952323913574	
135	147.0773594379425	picture	0		225	133.0	/experiments/Knapen_AOT/AOT_stimuli/pictures/0827_fw.png	203.68152451515198	1.8819444179534912
135	148.94867181777954	response	0	k		133.0	/experiments/Knapen_AOT/AOT_stimuli/pictures/0827_fw.png	205.552836894989	
136	148.959303855896	picture	0		85	134.0	/experiments/Knapen_AOT/AOT_stimuli/pictures/1711_fw.png	205.56346893310547	0.7083406448364258
136	149.65722060203552	response	0	j		134.0	/experiments/Knapen_AOT/AOT_stimuli/pictures/1711_fw.png	206.261385679245	
137	149.66764450073242	picture	0		95	135.0	/experiments/Knapen_AOT/AOT_stimuli/pictures/1833_fw.png	206.2718095779419	0.7975568771362305
137	150.44875025749207	response	0	k		135.0	/experiments/Knapen_AOT/AOT_stimuli/pictures/1833_fw.png	207.05291533470154	
138	150.46520137786865	picture	0		78	136.0	/experiments/Knapen_AOT/AOT_stimuli/pictures/0536_fw.png	207.06936645507812	0.6538515090942383
138	151.10703444480896	response	0	j		136.0	/experiments/Knapen_AOT/AOT_stimuli/pictures/0536_fw.png	207.71119952201843	
139	151.1190528869629	picture	0		269	137.0	/experiments/Knapen_AOT/AOT_stimuli/pictures/2019_fw.png	207.72321796417236	2.3750193119049072
139	153.4820601940155	response	0	k		137.0	/experiments/Knapen_AOT/AOT_stimuli/pictures/2019_fw.png	210.08622527122498	
140	153.4940721988678	picture	0		132	138.0	/experiments/Knapen_AOT/AOT_stimuli/pictures/0822_fw.png	210.09823727607727	1.104489803314209
140	154.5820701122284	response	0	k		138.0	/experiments/Knapen_AOT/AOT_stimuli/pictures/0822_fw.png	211.18623518943787	
141	154.598562002182	picture	0		268	139.0	/experiments/Knapen_AOT/AOT_stimuli/pictures/1038_fw.png	211.20272707939148	2.241732120513916
141	156.8238022327423	response	0	j		139.0	/experiments/Knapen_AOT/AOT_stimuli/pictures/1038_fw.png	213.42796730995178	
142	156.84029412269592	picture	0		115	140.0	/experiments/Knapen_AOT/AOT_stimuli/pictures/0140_fw.png	213.4444591999054	0.9666461944580078
142	157.79075574874878	response	0	k		140.0	/experiments/Knapen_AOT/AOT_stimuli/pictures/0140_fw.png	214.39492082595825	
143	157.80694031715393	picture	0		95	141.0	/experiments/Knapen_AOT/AOT_stimuli/pictures/2157_fw.png	214.4111053943634	0.8000056743621826
143	158.59064197540283	response	0	k		141.0	/experiments/Knapen_AOT/AOT_stimuli/pictures/2157_fw.png	215.1948070526123	
144	158.6069459915161	picture	0		93	142.0	/experiments/Knapen_AOT/AOT_stimuli/pictures/1386_fw.png	215.2111110687256	0.7833380699157715
144	159.37398219108582	response	0	j		142.0	/experiments/Knapen_AOT/AOT_stimuli/pictures/1386_fw.png	215.9781472682953	
145	159.39028406143188	picture	0		92	143.0	/experiments/Knapen_AOT/AOT_stimuli/pictures/1321_fw.png	215.99444913864136	0.7705256938934326
145	160.1487991809845	response	0	k		143.0	/experiments/Knapen_AOT/AOT_stimuli/pictures/1321_fw.png	216.75296425819397	
146	160.16080975532532	picture	0		102	144.0	/experiments/Knapen_AOT/AOT_stimuli/pictures/1251_fw.png	216.7649748325348	0.8628549575805664
146	161.0072193145752	response	0	k		144.0	/experiments/Knapen_AOT/AOT_stimuli/pictures/1251_fw.png	217.61138439178467	
147	161.02366471290588	picture	0		80	145.0	/experiments/Knapen_AOT/AOT_stimuli/pictures/0960_fw.png	217.62782979011536	0.6749851703643799
147	161.68219327926636	response	0	j		145.0	/experiments/Knapen_AOT/AOT_stimuli/pictures/0960_fw.png	218.28635835647583	
148	161.69864988327026	picture	0		157	146.0	/experiments/Knapen_AOT/AOT_stimuli/pictures/1440_fw.png	218.30281496047974	1.3166842460632324
148	162.99891352653503	response	0	k		146.0	/experiments/Knapen_AOT/AOT_stimuli/pictures/1440_fw.png	219.6030786037445	
149	163.0153341293335	picture	0		90	147.0	/experiments/Knapen_AOT/AOT_stimuli/pictures/0808_fw.png	219.61949920654297	0.7583508491516113
149	163.75719618797302	response	0	k		147.0	/experiments/Knapen_AOT/AOT_stimuli/pictures/0808_fw.png	220.3613612651825	
150	163.7736849784851	picture	0		324	148.0	/experiments/Knapen_AOT/AOT_stimuli/pictures/1126_fw.png	220.37785005569458	2.7083520889282227
150	166.46558237075806	response	0	k		148.0	/experiments/Knapen_AOT/AOT_stimuli/pictures/1126_fw.png	223.06974744796753	
151	166.48203706741333	picture	0		125	149.0	/experiments/Knapen_AOT/AOT_stimuli/pictures/0053_fw.png	223.0862021446228	1.0469121932983398
151	167.51555705070496	response	0	k		149.0	/experiments/Knapen_AOT/AOT_stimuli/pictures/0053_fw.png	224.11972212791443	
152	167.52894926071167	picture	0		148	150.0	/experiments/Knapen_AOT/AOT_stimuli/pictures/1243_fw.png	224.13311433792114	1.2430408000946045
152	168.7572910785675	response	0	j		150.0	/experiments/Knapen_AOT/AOT_stimuli/pictures/1243_fw.png	225.36145615577698	
153	168.77199006080627	picture	0		134	151.0	/experiments/Knapen_AOT/AOT_stimuli/pictures/1329_fw.png	225.37615513801575	1.1268415451049805
153	169.88250041007996	response	0	k		151.0	/experiments/Knapen_AOT/AOT_stimuli/pictures/1329_fw.png	226.48666548728943	
154	169.89883160591125	picture	0		229	152.0	/experiments/Knapen_AOT/AOT_stimuli/pictures/1151_fw.png	226.50299668312073	1.9082448482513428
154	171.79897332191467	response	0	j		152.0	/experiments/Knapen_AOT/AOT_stimuli/pictures/1151_fw.png	228.40313839912415	
155	171.8070764541626	picture	0		95	153.0	/experiments/Knapen_AOT/AOT_stimuli/pictures/1756_fw.png	228.41124153137207	0.8000631332397461
155	172.59091520309448	response	0	k		153.0	/experiments/Knapen_AOT/AOT_stimuli/pictures/1756_fw.png	229.19508028030396	
156	172.60713958740234	picture	0		229	154.0	/experiments/Knapen_AOT/AOT_stimuli/pictures/0635_fw.png	229.21130466461182	1.916682243347168
156	174.50733613967896	response	0	k		154.0	/experiments/Knapen_AOT/AOT_stimuli/pictures/0635_fw.png	231.11150121688843	
157	174.5238218307495	picture	0		127	155.0	/experiments/Knapen_AOT/AOT_stimuli/pictures/1210_fw.png	231.12798690795898	1.0666954517364502
157	175.57405376434326	response	0	k		155.0	/experiments/Knapen_AOT/AOT_stimuli/pictures/1210_fw.png	232.17821884155273	
158	175.59051728248596	picture	0		138	156.0	/experiments/Knapen_AOT/AOT_stimuli/pictures/2120_fw.png	232.19468235969543	1.1583311557769775
158	176.73235607147217	response	0	k		156.0	/experiments/Knapen_AOT/AOT_stimuli/pictures/2120_fw.png	233.33652114868164	
159	176.74884843826294	picture	0		231	157.0	/experiments/Knapen_AOT/AOT_stimuli/pictures/1919_fw.png	233.3530135154724	1.926060438156128
159	178.66572523117065	response	0	j		157.0	/experiments/Knapen_AOT/AOT_stimuli/pictures/1919_fw.png	235.26989030838013	
160	178.67490887641907	picture	0		97	158.0	/experiments/Knapen_AOT/AOT_stimuli/pictures/2089_fw.png	235.27907395362854	0.8125193119049072
160	179.474041223526	response	0	j		158.0	/experiments/Knapen_AOT/AOT_stimuli/pictures/2089_fw.png	236.07820630073547	
161	179.48742818832397	picture	0		90	159.0	/experiments/Knapen_AOT/AOT_stimuli/pictures/0282_fw.png	236.09159326553345	0.7568233013153076
161	180.23238158226013	response	0	k		159.0	/experiments/Knapen_AOT/AOT_stimuli/pictures/0282_fw.png	236.8365466594696	
162	180.24425148963928	picture	0		118	160.0	/experiments/Knapen_AOT/AOT_stimuli/pictures/0741_fw.png	236.84841656684875	0.9880161285400391
162	181.21577715873718	response	0	k		160.0	/experiments/Knapen_AOT/AOT_stimuli/pictures/0741_fw.png	237.81994223594666	
163	181.23226761817932	picture	0		100	161.0	/experiments/Knapen_AOT/AOT_stimuli/pictures/1774_fw.png	237.8364326953888	0.8416380882263184
163	182.05740094184875	response	0	j		161.0	/experiments/Knapen_AOT/AOT_stimuli/pictures/1774_fw.png	238.66156601905823	
164	182.07390570640564	picture	0		359	162.0	/experiments/Knapen_AOT/AOT_stimuli/pictures/0887_fw.png	238.6780707836151	3.0000336170196533
164	185.05744981765747	response	0	k		162.0	/experiments/Knapen_AOT/AOT_stimuli/pictures/0887_fw.png	241.66161489486694	
165	185.0739393234253	picture	0		95	163.0	/experiments/Knapen_AOT/AOT_stimuli/pictures/0634_fw.png	241.67810440063477	0.8000314235687256
165	185.8575029373169	response	0	k		163.0	/experiments/Knapen_AOT/AOT_stimuli/pictures/0634_fw.png	242.46166801452637	
166	185.87397074699402	picture	0		123	164.0	/experiments/Knapen_AOT/AOT_stimuli/pictures/1930_fw.png	242.4781358242035	1.0333373546600342
166	186.89081382751465	response	0	j		164.0	/experiments/Knapen_AOT/AOT_stimuli/pictures/1930_fw.png	243.49497890472412	
167	186.90730810165405	picture	0		96	165.0	/experiments/Knapen_AOT/AOT_stimuli/pictures/1276_fw.png	243.51147317886353	0.8022739887237549
167	187.6991491317749	response	0	k		165.0	/experiments/Knapen_AOT/AOT_stimuli/pictures/1276_fw.png	244.30331420898438	
168	187.7095820903778	picture	0		93	166.0	/experiments/Knapen_AOT/AOT_stimuli/pictures/0473_fw.png	244.31374716758728	0.7810776233673096
168	188.4741666316986	response	0	j		166.0	/experiments/Knapen_AOT/AOT_stimuli/pictures/0473_fw.png	245.07833170890808	
169	188.49065971374512	picture	0		102	167.0	/experiments/Knapen_AOT/AOT_stimuli/pictures/0705_fw.png	245.0948247909546	0.8508806228637695
169	189.33248662948608	response	0	k		167.0	/experiments/Knapen_AOT/AOT_stimuli/pictures/0705_fw.png	245.93665170669556	
170	189.3415403366089	picture	0		100	168.0	/experiments/Knapen_AOT/AOT_stimuli/pictures/0045_fw.png	245.94570541381836	0.8333737850189209
170	190.16583704948425	response	0	j		168.0	/experiments/Knapen_AOT/AOT_stimuli/pictures/0045_fw.png	246.77000212669373	
171	190.1749141216278	picture	0		184	169.0	/experiments/Knapen_AOT/AOT_stimuli/pictures/1749_fw.png	246.77907919883728	1.5408532619476318
171	191.6992404460907	response	0	k		169.0	/experiments/Knapen_AOT/AOT_stimuli/pictures/1749_fw.png	248.30340552330017	
172	191.71576738357544	picture	0		510	170.0	/experiments/Knapen_AOT/AOT_stimuli/pictures/0796_fw.png	248.3199324607849	4.258316993713379
172	195.95760869979858	response	0	k		170.0	/experiments/Knapen_AOT/AOT_stimuli/pictures/0796_fw.png	252.56177377700806	
173	195.97408437728882	picture	0		146	171.0	/experiments/Knapen_AOT/AOT_stimuli/pictures/2026_fw.png	252.5782494544983	1.2250425815582275
173	197.17502427101135	response	0	k		171.0	/experiments/Knapen_AOT/AOT_stimuli/pictures/2026_fw.png	253.77918934822083	
174	197.19912695884705	picture	0		87	172.0	/experiments/Knapen_AOT/AOT_stimuli/pictures/2106_fw.png	253.80329203605652	0.7257843017578125
174	197.91592931747437	response	0	j		172.0	/experiments/Knapen_AOT/AOT_stimuli/pictures/2106_fw.png	254.52009439468384	
175	197.92491126060486	picture	0		160	173.0	/experiments/Knapen_AOT/AOT_stimuli/pictures/1367_fw.png	254.52907633781433	1.3333673477172852
175	199.24931955337524	response	0	j		173.0	/experiments/Knapen_AOT/AOT_stimuli/pictures/1367_fw.png	255.85348463058472	
176	199.25827860832214	picture	0		108	174.0	/experiments/Knapen_AOT/AOT_stimuli/pictures/2131_fw.png	255.86244368553162	0.9028058052062988
176	200.14930129051208	response	0	k		174.0	/experiments/Knapen_AOT/AOT_stimuli/pictures/2131_fw.png	256.75346636772156	
177	200.16108441352844	picture	0		83	175.0	/experiments/Knapen_AOT/AOT_stimuli/pictures/0987_fw.png	256.7652494907379	0.6880288124084473
177	200.8410291671753	response	0	j		175.0	/experiments/Knapen_AOT/AOT_stimuli/pictures/0987_fw.png	257.44519424438477	
178	200.8491132259369	picture	0		95	176.0	/experiments/Knapen_AOT/AOT_stimuli/pictures/1222_fw.png	257.45327830314636	0.8000655174255371
178	201.63272380828857	response	0	j		176.0	/experiments/Knapen_AOT/AOT_stimuli/pictures/1222_fw.png	258.23688888549805	
179	201.64917874336243	picture	0		112	177.0	/experiments/Knapen_AOT/AOT_stimuli/pictures/1779_fw.png	258.2533438205719	0.935516357421875
179	202.56673645973206	response	0	k		177.0	/experiments/Knapen_AOT/AOT_stimuli/pictures/1779_fw.png	259.1709015369415	
180	202.5846951007843	picture	0		92	178.0	/experiments/Knapen_AOT/AOT_stimuli/pictures/1211_fw.png	259.1888601779938	0.7708721160888672
180	203.34101963043213	response	0	j		178.0	/experiments/Knapen_AOT/AOT_stimuli/pictures/1211_fw.png	259.9451847076416	
181	203.35556721687317	picture	0		170	179.0	/experiments/Knapen_AOT/AOT_stimuli/pictures/1359_fw.png	259.95973229408264	1.423604965209961
181	204.76601266860962	response	0	k		179.0	/experiments/Knapen_AOT/AOT_stimuli/pictures/1359_fw.png	261.3701777458191	
182	204.77917218208313	picture	0		123	180.0	/experiments/Knapen_AOT/AOT_stimuli/pictures/0069_fw.png	261.3833372592926	1.0367367267608643
182	205.7995433807373	response	0	k		180.0	/experiments/Knapen_AOT/AOT_stimuli/pictures/0069_fw.png	262.4037084579468	
183	205.815908908844	picture	0		109	181.0	/experiments/Knapen_AOT/AOT_stimuli/pictures/2070_fw.png	262.42007398605347	0.9166684150695801
183	206.71690201759338	response	0	k		181.0	/experiments/Knapen_AOT/AOT_stimuli/pictures/2070_fw.png	263.32106709480286	
184	206.73257732391357	picture	0		108	182.0	/experiments/Knapen_AOT/AOT_stimuli/pictures/1172_fw.png	263.33674240112305	0.9083132743835449
184	207.62440752983093	response	0	j		182.0	/experiments/Knapen_AOT/AOT_stimuli/pictures/1172_fw.png	264.2285726070404	
185	207.64089059829712	picture	0		157	183.0	/experiments/Knapen_AOT/AOT_stimuli/pictures/0117_fw.png	264.2450556755066	1.316706657409668
185	208.941077709198	response	0	j		183.0	/experiments/Knapen_AOT/AOT_stimuli/pictures/0117_fw.png	265.54524278640747	
186	208.9575972557068	picture	0		145	184.0	/experiments/Knapen_AOT/AOT_stimuli/pictures/0383_fw.png	265.56176233291626	1.2166776657104492
186	210.1580948829651	response	0	k		184.0	/experiments/Knapen_AOT/AOT_stimuli/pictures/0383_fw.png	266.76225996017456	
187	210.17427492141724	picture	0		133	185.0	/experiments/Knapen_AOT/AOT_stimuli/pictures/0973_fw.png	266.7784399986267	1.1166601181030273
187	211.27449750900269	response	0	k		185.0	/experiments/Knapen_AOT/AOT_stimuli/pictures/0973_fw.png	267.87866258621216	
188	211.29093503952026	picture	0		77	186.0	/experiments/Knapen_AOT/AOT_stimuli/pictures/1746_fw.png	267.89510011672974	0.650031566619873
188	211.9244692325592	response	0	j		186.0	/experiments/Knapen_AOT/AOT_stimuli/pictures/1746_fw.png	268.5286343097687	
189	211.94096660614014	picture	0		95	187.0	/experiments/Knapen_AOT/AOT_stimuli/pictures/0958_fw.png	268.5451316833496	0.7965941429138184
189	212.72447538375854	response	0	k		187.0	/experiments/Knapen_AOT/AOT_stimuli/pictures/0958_fw.png	269.328640460968	
190	212.73756074905396	picture	0		88	188.0	/experiments/Knapen_AOT/AOT_stimuli/pictures/0622_fw.png	269.3417258262634	0.7451050281524658
190	213.46615052223206	response	0	j		188.0	/experiments/Knapen_AOT/AOT_stimuli/pictures/0622_fw.png	270.0703155994415	
191	213.48266577720642	picture	0		116	189.0	/experiments/Knapen_AOT/AOT_stimuli/pictures/0488_fw.png	270.0868308544159	0.9701743125915527
191	214.44113421440125	response	0	j		189.0	/experiments/Knapen_AOT/AOT_stimuli/pictures/0488_fw.png	271.0452992916107	
192	214.45284008979797	picture	0		184	190.0	/experiments/Knapen_AOT/AOT_stimuli/pictures/0595_fw.png	271.05700516700745	1.5347380638122559
192	215.96786975860596	response	0	j		190.0	/experiments/Knapen_AOT/AOT_stimuli/pictures/0595_fw.png	272.57203483581543	
193	215.98757815361023	picture	0		453	191.0	/experiments/Knapen_AOT/AOT_stimuli/pictures/0758_fw.png	272.5917432308197	3.786803722381592
193	219.7587902545929	response	0	k		191.0	/experiments/Knapen_AOT/AOT_stimuli/pictures/0758_fw.png	276.36295533180237	
194	219.77438187599182	picture	0		104	192.0	/experiments/Knapen_AOT/AOT_stimuli/pictures/1037_fw.png	276.3785469532013	0.873004674911499
194	220.6329162120819	response	0	k		192.0	/experiments/Knapen_AOT/AOT_stimuli/pictures/1037_fw.png	277.2370812892914	
195	220.64738655090332	picture	0		91	193.0	/experiments/Knapen_AOT/AOT_stimuli/pictures/1690_fw.png	277.2515516281128	0.7687196731567383
195	221.3996238708496	response	0	j		193.0	/experiments/Knapen_AOT/AOT_stimuli/pictures/1690_fw.png	278.0037889480591	
196	221.41610622406006	picture	0		71	194.0	/experiments/Knapen_AOT/AOT_stimuli/pictures/1362_fw.png	278.02027130126953	0.5999913215637207
196	221.9995813369751	response	0	j		194.0	/experiments/Knapen_AOT/AOT_stimuli/pictures/1362_fw.png	278.60374641418457	
197	222.01609754562378	picture	0		110	195.0	/experiments/Knapen_AOT/AOT_stimuli/pictures/0467_fw.png	278.62026262283325	0.9250144958496094
197	222.92466044425964	response	0	k		195.0	/experiments/Knapen_AOT/AOT_stimuli/pictures/0467_fw.png	279.5288255214691	
198	222.9411120414734	picture	0		84	196.0	/experiments/Knapen_AOT/AOT_stimuli/pictures/1350_fw.png	279.54527711868286	0.7083325386047363
198	223.63293933868408	response	0	j		196.0	/experiments/Knapen_AOT/AOT_stimuli/pictures/1350_fw.png	280.23710441589355	
199	223.64944458007812	picture	0		531	197.0	/experiments/Knapen_AOT/AOT_stimuli/pictures/1296_fw.png	280.2536096572876	4.428494453430176
199	228.066339969635	response	0	k		197.0	/experiments/Knapen_AOT/AOT_stimuli/pictures/1296_fw.png	284.6705050468445	
200	228.0779390335083	picture	0		77	198.0	/experiments/Knapen_AOT/AOT_stimuli/pictures/1967_fw.png	284.6821041107178	0.6465623378753662
200	228.70805168151855	response	0	j		198.0	/experiments/Knapen_AOT/AOT_stimuli/pictures/1967_fw.png	285.312216758728	
201	228.72450137138367	picture	0		82	199.0	/experiments/Knapen_AOT/AOT_stimuli/pictures/1114_fw.png	285.32866644859314	0.6916937828063965
201	229.39972686767578	response	0	j		199.0	/experiments/Knapen_AOT/AOT_stimuli/pictures/1114_fw.png	286.00389194488525	
202	229.41619515419006	picture	0		91	200.0	/experiments/Knapen_AOT/AOT_stimuli/pictures/0071_fw.png	286.02036023139954	0.7666764259338379
202	230.15947794914246	response	0	k		200.0	/experiments/Knapen_AOT/AOT_stimuli/pictures/0071_fw.png	286.76364302635193	
203	230.1828715801239	picture	0		139	201.0	/experiments/Knapen_AOT/AOT_stimuli/pictures/0881_fw.png	286.7870366573334	1.1666522026062012
203	231.33305501937866	response	0	k		201.0	/experiments/Knapen_AOT/AOT_stimuli/pictures/0881_fw.png	287.93722009658813	
204	231.3495237827301	picture	0		91	202.0	/experiments/Knapen_AOT/AOT_stimuli/pictures/1725_fw.png	287.9536888599396	0.7666857242584229
204	232.09972715377808	response	0	j		202.0	/experiments/Knapen_AOT/AOT_stimuli/pictures/1725_fw.png	288.70389223098755	
205	232.11620950698853	picture	0		105	203.0	/experiments/Knapen_AOT/AOT_stimuli/pictures/1986_fw.png	288.720374584198	0.8833339214324951
205	232.9831018447876	response	0	k		203.0	/experiments/Knapen_AOT/AOT_stimuli/pictures/1986_fw.png	289.58726692199707	
206	232.99954342842102	picture	0		81	204.0	/experiments/Knapen_AOT/AOT_stimuli/pictures/0076_fw.png	289.6037085056305	0.6833405494689941
206	233.66645193099976	response	0	j		204.0	/experiments/Knapen_AOT/AOT_stimuli/pictures/0076_fw.png	290.27061700820923	
207	233.68288397789001	picture	0		183	205.0	/experiments/Knapen_AOT/AOT_stimuli/pictures/0672_fw.png	290.2870490550995	1.5333802700042725
207	235.19974899291992	response	0	k		205.0	/experiments/Knapen_AOT/AOT_stimuli/pictures/0672_fw.png	291.8039140701294	
208	235.2162642478943	picture	0		110	206.0	/experiments/Knapen_AOT/AOT_stimuli/pictures/1789_fw.png	291.82042932510376	0.9172818660736084
208	236.12479043006897	response	0	j		206.0	/experiments/Knapen_AOT/AOT_stimuli/pictures/1789_fw.png	292.72895550727844	
209	236.1335461139679	picture	0		85	207.0	/experiments/Knapen_AOT/AOT_stimuli/pictures/2119_fw.png	292.73771119117737	0.7160511016845703
209	236.83312225341797	response	0	j		207.0	/experiments/Knapen_AOT/AOT_stimuli/pictures/2119_fw.png	293.43728733062744	
210	236.84959721565247	picture	0		101	208.0	/experiments/Knapen_AOT/AOT_stimuli/pictures/1536_fw.png	293.45376229286194	0.8464891910552979
210	237.6831362247467	response	0	k		208.0	/experiments/Knapen_AOT/AOT_stimuli/pictures/1536_fw.png	294.2873013019562	
211	237.69608640670776	picture	0		109	209.0	/experiments/Knapen_AOT/AOT_stimuli/pictures/0293_fw.png	294.30025148391724	0.9201908111572266
211	238.5998077392578	response	0	k		209.0	/experiments/Knapen_AOT/AOT_stimuli/pictures/0293_fw.png	295.2039728164673	
212	238.616277217865	picture	0		74	210.0	/experiments/Knapen_AOT/AOT_stimuli/pictures/0643_fw.png	295.22044229507446	0.6250119209289551
212	239.22479343414307	response	0	j		210.0	/experiments/Knapen_AOT/AOT_stimuli/pictures/0643_fw.png	295.82895851135254	
213	239.24128913879395	picture	0		93	211.0	/experiments/Knapen_AOT/AOT_stimuli/pictures/1123_fw.png	295.8454542160034	0.7812058925628662
213	240.0081503391266	response	0	k		211.0	/experiments/Knapen_AOT/AOT_stimuli/pictures/1123_fw.png	296.61231541633606	
214	240.0224950313568	picture	0		166	212.0	/experiments/Knapen_AOT/AOT_stimuli/pictures/0694_fw.png	296.6266601085663	1.3938298225402832
214	241.39981698989868	response	0	j		212.0	/experiments/Knapen_AOT/AOT_stimuli/pictures/0694_fw.png	298.00398206710815	
215	241.4163248538971	picture	0		96	213.0	/experiments/Knapen_AOT/AOT_stimuli/pictures/2171_fw.png	298.02048993110657	0.8083310127258301
215	242.20818424224854	response	0	j		213.0	/experiments/Knapen_AOT/AOT_stimuli/pictures/2171_fw.png	298.812349319458	
216	242.22465586662292	picture	0		93	214.0	/experiments/Knapen_AOT/AOT_stimuli/pictures/1093_fw.png	298.8288209438324	0.7769975662231445
216	242.99151730537415	response	0	j		214.0	/experiments/Knapen_AOT/AOT_stimuli/pictures/1093_fw.png	299.5956823825836	
217	243.00165343284607	picture	0		85	215.0	/experiments/Knapen_AOT/AOT_stimuli/pictures/1667_fw.png	299.60581851005554	0.7147164344787598
217	243.6998610496521	response	0	k		215.0	/experiments/Knapen_AOT/AOT_stimuli/pictures/1667_fw.png	300.3040261268616	
218	243.71636986732483	picture	0		120	216.0	/experiments/Knapen_AOT/AOT_stimuli/pictures/0151_fw.png	300.3205349445343	1.0084192752838135
218	244.70821857452393	response	0	k		216.0	/experiments/Knapen_AOT/AOT_stimuli/pictures/0151_fw.png	301.3123836517334	
219	244.72478914260864	picture	0		88	217.0	/experiments/Knapen_AOT/AOT_stimuli/pictures/2017_fw.png	301.3289542198181	0.7416057586669922
219	245.449875831604	response	0	k		217.0	/experiments/Knapen_AOT/AOT_stimuli/pictures/2017_fw.png	302.0540409088135	
220	245.46639490127563	picture	0		86	218.0	/experiments/Knapen_AOT/AOT_stimuli/pictures/0650_fw.png	302.0705599784851	0.725010871887207
220	246.1751732826233	response	0	j		218.0	/experiments/Knapen_AOT/AOT_stimuli/pictures/0650_fw.png	302.77933835983276	
221	246.19140577316284	picture	0		117	219.0	/experiments/Knapen_AOT/AOT_stimuli/pictures/1135_fw.png	302.7955708503723	0.9833810329437256
221	247.15824913978577	response	0	k		219.0	/experiments/Knapen_AOT/AOT_stimuli/pictures/1135_fw.png	303.76241421699524	
222	247.17478680610657	picture	0		96	220.0	/experiments/Knapen_AOT/AOT_stimuli/pictures/1835_fw.png	303.77895188331604	0.8083040714263916
222	247.95892667770386	response	0	j		220.0	/experiments/Knapen_AOT/AOT_stimuli/pictures/1835_fw.png	304.56309175491333	
223	247.98309087753296	picture	0		84	221.0	/experiments/Knapen_AOT/AOT_stimuli/pictures/1058_fw.png	304.58725595474243	0.7083334922790527
223	248.6755268573761	response	0	j		221.0	/experiments/Knapen_AOT/AOT_stimuli/pictures/1058_fw.png	305.27969193458557	
224	248.691424369812	picture	0		195	222.0	/experiments/Knapen_AOT/AOT_stimuli/pictures/0319_fw.png	305.2955894470215	1.6333365440368652
224	250.3084533214569	response	0	k		222.0	/experiments/Knapen_AOT/AOT_stimuli/pictures/0319_fw.png	306.9126183986664	
225	250.32476091384888	picture	0		150	223.0	/experiments/Knapen_AOT/AOT_stimuli/pictures/1147_fw.png	306.92892599105835	1.2533464431762695
225	251.5668659210205	response	0	k		223.0	/experiments/Knapen_AOT/AOT_stimuli/pictures/1147_fw.png	308.17103099823	
226	251.57810735702515	picture	0		89	224.0	/experiments/Knapen_AOT/AOT_stimuli/pictures/0847_fw.png	308.1822724342346	0.7466869354248047
226	252.30828499794006	response	0	j		224.0	/experiments/Knapen_AOT/AOT_stimuli/pictures/0847_fw.png	308.91245007514954	
227	252.32479429244995	picture	0		98	225.0	/experiments/Knapen_AOT/AOT_stimuli/pictures/0359_fw.png	308.9289593696594	0.8250055313110352
227	253.13356232643127	response	0	j		225.0	/experiments/Knapen_AOT/AOT_stimuli/pictures/0359_fw.png	309.73772740364075	
228	253.149799823761	picture	0		220	226.0	/experiments/Knapen_AOT/AOT_stimuli/pictures/0942_fw.png	309.75396490097046	1.8380622863769531
228	254.97500348091125	response	0	k		226.0	/experiments/Knapen_AOT/AOT_stimuli/pictures/0942_fw.png	311.5791685581207	
229	254.98786211013794	picture	0		146	227.0	/experiments/Knapen_AOT/AOT_stimuli/pictures/1116_fw.png	311.5920271873474	1.228672981262207
229	256.2000072002411	response	0	k		227.0	/experiments/Knapen_AOT/AOT_stimuli/pictures/1116_fw.png	312.80417227745056	
230	256.21653509140015	picture	0		91	228.0	/experiments/Knapen_AOT/AOT_stimuli/pictures/1274_fw.png	312.8207001686096	0.7667102813720703
230	256.9599299430847	response	0	j		228.0	/experiments/Knapen_AOT/AOT_stimuli/pictures/1274_fw.png	313.5640950202942	
231	256.9832453727722	picture	0		97	229.0	/experiments/Knapen_AOT/AOT_stimuli/pictures/0853_fw.png	313.5874104499817	0.81715989112854
231	257.78353786468506	response	0	k		229.0	/experiments/Knapen_AOT/AOT_stimuli/pictures/0853_fw.png	314.38770294189453	
232	257.80040526390076	picture	0		174	230.0	/experiments/Knapen_AOT/AOT_stimuli/pictures/0077_fw.png	314.40457034111023	1.4578299522399902
232	259.2417211532593	response	0	j		230.0	/experiments/Knapen_AOT/AOT_stimuli/pictures/0077_fw.png	315.84588623046875	
233	259.25823521614075	picture	0		99	231.0	/experiments/Knapen_AOT/AOT_stimuli/pictures/0541_fw.png	315.8624002933502	0.8338825702667236
233	260.0751700401306	response	0	k		231.0	/experiments/Knapen_AOT/AOT_stimuli/pictures/0541_fw.png	316.6793351173401	
234	260.09211778640747	picture	0		123	232.0	/experiments/Knapen_AOT/AOT_stimuli/pictures/0751_fw.png	316.69628286361694	1.0346853733062744
234	261.1086459159851	response	0	k		232.0	/experiments/Knapen_AOT/AOT_stimuli/pictures/0751_fw.png	317.7128109931946	
235	261.12680315971375	picture	0		78	233.0	/experiments/Knapen_AOT/AOT_stimuli/pictures/1609_fw.png	317.7309682369232	0.6564335823059082
235	261.7591276168823	response	0	j		233.0	/experiments/Knapen_AOT/AOT_stimuli/pictures/1609_fw.png	318.3632926940918	
236	261.78323674201965	picture	0		81	234.0	/experiments/Knapen_AOT/AOT_stimuli/pictures/1759_fw.png	318.3874018192291	0.6833655834197998
236	262.4501266479492	response	0	j		234.0	/experiments/Knapen_AOT/AOT_stimuli/pictures/1759_fw.png	319.0542917251587	
237	262.46660232543945	picture	0		93	235.0	/experiments/Knapen_AOT/AOT_stimuli/pictures/2141_fw.png	319.0707674026489	0.7833375930786133
237	263.2334940433502	response	0	j		235.0	/experiments/Knapen_AOT/AOT_stimuli/pictures/2141_fw.png	319.8376591205597	
238	263.24993991851807	picture	0		118	236.0	/experiments/Knapen_AOT/AOT_stimuli/pictures/0292_fw.png	319.85410499572754	0.9916815757751465
238	264.2250978946686	response	0	j		236.0	/experiments/Knapen_AOT/AOT_stimuli/pictures/0292_fw.png	320.82926297187805	
239	264.2416214942932	picture	0		86	237.0	/experiments/Knapen_AOT/AOT_stimuli/pictures/1404_fw.png	320.8457865715027	0.7250165939331055
239	264.9501008987427	response	0	j		237.0	/experiments/Knapen_AOT/AOT_stimuli/pictures/1404_fw.png	321.55426597595215	
240	264.9666380882263	picture	0		108	238.0	/experiments/Knapen_AOT/AOT_stimuli/pictures/2005_fw.png	321.5708031654358	0.9083333015441895
240	265.85844326019287	response	0	j		238.0	/experiments/Knapen_AOT/AOT_stimuli/pictures/2005_fw.png	322.46260833740234	
241	265.8749713897705	picture	0		158	239.0	/experiments/Knapen_AOT/AOT_stimuli/pictures/0521_fw.png	322.47913646698	1.3213253021240234
241	267.18348026275635	response	0	k		239.0	/experiments/Knapen_AOT/AOT_stimuli/pictures/0521_fw.png	323.7876453399658	
242	267.19629669189453	picture	0		90	240.0	/experiments/Knapen_AOT/AOT_stimuli/pictures/2099_fw.png	323.800461769104	0.7620611190795898
242	267.94212198257446	response	0	k		240.0	/experiments/Knapen_AOT/AOT_stimuli/pictures/2099_fw.png	324.54628705978394	
243	267.9583578109741	picture	0		142	241.0	/experiments/Knapen_AOT/AOT_stimuli/pictures/1433_fw.png	324.5625228881836	1.1916396617889404
243	269.12723565101624	response	0	j		241.0	/experiments/Knapen_AOT/AOT_stimuli/pictures/1433_fw.png	325.7314007282257	
244	269.14999747276306	picture	0		114	242.0	/experiments/Knapen_AOT/AOT_stimuli/pictures/0685_fw.png	325.75416254997253	0.958369255065918
244	270.09185433387756	response	0	j		242.0	/experiments/Knapen_AOT/AOT_stimuli/pictures/0685_fw.png	326.69601941108704	
245	270.108366727829	picture	0		103	243.0	/experiments/Knapen_AOT/AOT_stimuli/pictures/1760_fw.png	326.71253180503845	0.8666534423828125
245	270.9591190814972	response	0	k		243.0	/experiments/Knapen_AOT/AOT_stimuli/pictures/1760_fw.png	327.56328415870667	
246	270.9750201702118	picture	0		104	244.0	/experiments/Knapen_AOT/AOT_stimuli/pictures/0475_fw.png	327.57918524742126	0.8750131130218506
246	271.8336138725281	response	0	j		244.0	/experiments/Knapen_AOT/AOT_stimuli/pictures/0475_fw.png	328.43777894973755	
247	271.85003328323364	picture	0		89	245.0	/experiments/Knapen_AOT/AOT_stimuli/pictures/0294_fw.png	328.4541983604431	0.7500224113464355
247	272.58359932899475	response	0	j		245.0	/experiments/Knapen_AOT/AOT_stimuli/pictures/0294_fw.png	329.1877644062042	
248	272.6000556945801	picture	0		106	246.0	/experiments/Knapen_AOT/AOT_stimuli/pictures/1142_fw.png	329.20422077178955	0.8916604518890381
248	273.4752151966095	response	0	k		246.0	/experiments/Knapen_AOT/AOT_stimuli/pictures/1142_fw.png	330.07938027381897	
249	273.4917161464691	picture	0		92	247.0	/experiments/Knapen_AOT/AOT_stimuli/pictures/1726_fw.png	330.0958812236786	0.7670891284942627
249	274.2502372264862	response	0	j		247.0	/experiments/Knapen_AOT/AOT_stimuli/pictures/1726_fw.png	330.8544023036957	
250	274.2588052749634	picture	0		104	248.0	/experiments/Knapen_AOT/AOT_stimuli/pictures/0189_fw.png	330.86297035217285	0.874626636505127
250	275.1169624328613	response	0	j		248.0	/experiments/Knapen_AOT/AOT_stimuli/pictures/0189_fw.png	331.7211275100708	
251	275.1334319114685	picture	0		112	249.0	/experiments/Knapen_AOT/AOT_stimuli/pictures/1443_fw.png	331.737596988678	0.9416613578796387
251	276.0586156845093	response	0	j		249.0	/experiments/Knapen_AOT/AOT_stimuli/pictures/1443_fw.png	332.66278076171875	
252	276.07509326934814	picture	0		92	250.0	/experiments/Knapen_AOT/AOT_stimuli/pictures/1517_fw.png	332.6792583465576	0.7750082015991211
252	276.8336532115936	response	0	k		250.0	/experiments/Knapen_AOT/AOT_stimuli/pictures/1517_fw.png	333.4378182888031	
253	276.85010147094727	picture	0		96	251.0	/experiments/Knapen_AOT/AOT_stimuli/pictures/1795_fw.png	333.45426654815674	0.8083345890045166
253	277.64195013046265	response	0	k		251.0	/experiments/Knapen_AOT/AOT_stimuli/pictures/1795_fw.png	334.2461152076721	
254	277.6584360599518	picture	0		91	252.0	/experiments/Knapen_AOT/AOT_stimuli/pictures/1468_fw.png	334.26260113716125	0.7601385116577148
254	278.40862107276917	response	0	j		252.0	/experiments/Knapen_AOT/AOT_stimuli/pictures/1468_fw.png	335.01278614997864	
255	278.4185745716095	picture	0		164	253.0	/experiments/Knapen_AOT/AOT_stimuli/pictures/1845_fw.png	335.02273964881897	1.3732483386993408
255	279.7752916812897	response	0	k		253.0	/experiments/Knapen_AOT/AOT_stimuli/pictures/1845_fw.png	336.37945675849915	
256	279.79182291030884	picture	0		96	254.0	/experiments/Knapen_AOT/AOT_stimuli/pictures/0223_fw.png	336.3959879875183	0.8083274364471436
256	280.5839116573334	response	0	j		254.0	/experiments/Knapen_AOT/AOT_stimuli/pictures/0223_fw.png	337.18807673454285	
257	280.600150346756	picture	0		90	255.0	/experiments/Knapen_AOT/AOT_stimuli/pictures/1534_fw.png	337.20431542396545	0.7583308219909668
257	281.34205174446106	response	0	k		255.0	/experiments/Knapen_AOT/AOT_stimuli/pictures/1534_fw.png	337.94621682167053	
258	281.35848116874695	picture	0		94	256.0	/experiments/Knapen_AOT/AOT_stimuli/pictures/1113_fw.png	337.9626462459564	0.791689395904541
258	282.13371086120605	response	0	k		256.0	/experiments/Knapen_AOT/AOT_stimuli/pictures/1113_fw.png	338.7378759384155	
259	282.1501705646515	picture	0		90	257.0	/experiments/Knapen_AOT/AOT_stimuli/pictures/1189_fw.png	338.75433564186096	0.7583472728729248
259	282.8920216560364	response	0	k		257.0	/experiments/Knapen_AOT/AOT_stimuli/pictures/1189_fw.png	339.49618673324585	
260	282.9085178375244	picture	0		306	258.0	/experiments/Knapen_AOT/AOT_stimuli/pictures/1639_fw.png	339.5126829147339	2.5583784580230713
260	285.45040917396545	response	0	j		258.0	/experiments/Knapen_AOT/AOT_stimuli/pictures/1639_fw.png	342.0545742511749	
261	285.4668962955475	picture	0		222	259.0	/experiments/Knapen_AOT/AOT_stimuli/pictures/0992_fw.png	342.07106137275696	1.8583290576934814
261	287.3087422847748	response	0	k		259.0	/experiments/Knapen_AOT/AOT_stimuli/pictures/0992_fw.png	343.91290736198425	
262	287.32522535324097	picture	0		155	260.0	/experiments/Knapen_AOT/AOT_stimuli/pictures/0115_fw.png	343.92939043045044	1.2948122024536133
262	288.6087324619293	response	0	j		260.0	/experiments/Knapen_AOT/AOT_stimuli/pictures/0115_fw.png	345.2128975391388	
263	288.6200375556946	picture	0		155	261.0	/experiments/Knapen_AOT/AOT_stimuli/pictures/0078_fw.png	345.22420263290405	1.2969517707824707
263	289.9004125595093	response	0	j		261.0	/experiments/Knapen_AOT/AOT_stimuli/pictures/0078_fw.png	346.50457763671875	
264	289.91698932647705	picture	0		99	262.0	/experiments/Knapen_AOT/AOT_stimuli/pictures/0327_fw.png	346.5211544036865	0.8333120346069336
264	290.73379015922546	response	0	j		262.0	/experiments/Knapen_AOT/AOT_stimuli/pictures/0327_fw.png	347.33795523643494	
265	290.750301361084	picture	0		101	263.0	/experiments/Knapen_AOT/AOT_stimuli/pictures/0469_fw.png	347.35446643829346	0.8419601917266846
265	291.5837790966034	response	0	k		263.0	/experiments/Knapen_AOT/AOT_stimuli/pictures/0469_fw.png	348.18794417381287	
266	291.59226155281067	picture	0		89	264.0	/experiments/Knapen_AOT/AOT_stimuli/pictures/2116_fw.png	348.19642663002014	0.7501227855682373
266	292.32575845718384	response	0	j		264.0	/experiments/Knapen_AOT/AOT_stimuli/pictures/2116_fw.png	348.9299235343933	
267	292.3423843383789	picture	0		137	265.0	/experiments/Knapen_AOT/AOT_stimuli/pictures/1847_fw.png	348.9465494155884	1.1495771408081055
267	293.475466966629	response	0	k		265.0	/experiments/Knapen_AOT/AOT_stimuli/pictures/1847_fw.png	350.0796320438385	
268	293.491961479187	picture	0		116	266.0	/experiments/Knapen_AOT/AOT_stimuli/pictures/0531_fw.png	350.0961265563965	0.9750475883483887
268	294.45050501823425	response	0	k		266.0	/experiments/Knapen_AOT/AOT_stimuli/pictures/0531_fw.png	351.0546700954437	
269	294.4670090675354	picture	0		89	267.0	/experiments/Knapen_AOT/AOT_stimuli/pictures/0791_fw.png	351.0711741447449	0.7500283718109131
269	295.2005422115326	response	0	j		267.0	/experiments/Knapen_AOT/AOT_stimuli/pictures/0791_fw.png	351.80470728874207	
270	295.2170374393463	picture	0		120	268.0	/experiments/Knapen_AOT/AOT_stimuli/pictures/1263_fw.png	351.8212025165558	1.0002586841583252
270	296.20885467529297	response	0	k		268.0	/experiments/Knapen_AOT/AOT_stimuli/pictures/1263_fw.png	352.81301975250244	
271	296.21729612350464	picture	0		111	269.0	/experiments/Knapen_AOT/AOT_stimuli/pictures/2002_fw.png	352.8214612007141	0.933086633682251
271	297.13395643234253	response	0	j		269.0	/experiments/Knapen_AOT/AOT_stimuli/pictures/2002_fw.png	353.738121509552	
272	297.1503827571869	picture	0		127	270.0	/experiments/Knapen_AOT/AOT_stimuli/pictures/1755_fw.png	353.75454783439636	1.0666604042053223
272	298.2007489204407	response	0	j		270.0	/experiments/Knapen_AOT/AOT_stimuli/pictures/1755_fw.png	354.80491399765015	
273	298.2170431613922	picture	0		108	271.0	/experiments/Knapen_AOT/AOT_stimuli/pictures/1718_fw.png	354.8212082386017	0.9030628204345703
273	299.10886335372925	response	0	k		271.0	/experiments/Knapen_AOT/AOT_stimuli/pictures/1718_fw.png	355.7130284309387	
274	299.1201059818268	picture	0		92	272.0	/experiments/Knapen_AOT/AOT_stimuli/pictures/1279_fw.png	355.72427105903625	0.7719423770904541
274	299.87557673454285	response	0	j		272.0	/experiments/Knapen_AOT/AOT_stimuli/pictures/1279_fw.png	356.4797418117523	
275	299.89204835891724	picture	0		94	273.0	/experiments/Knapen_AOT/AOT_stimuli/pictures/1453_fw.png	356.4962134361267	0.7916760444641113
275	300.66725158691406	response	0	j		273.0	/experiments/Knapen_AOT/AOT_stimuli/pictures/1453_fw.png	357.27141666412354	
276	300.68372440338135	picture	0		87	274.0	/experiments/Knapen_AOT/AOT_stimuli/pictures/0313_fw.png	357.2878894805908	0.7333855628967285
276	301.4005506038666	response	0	j		274.0	/experiments/Knapen_AOT/AOT_stimuli/pictures/0313_fw.png	358.00471568107605	
277	301.4171099662781	picture	0		89	275.0	/experiments/Knapen_AOT/AOT_stimuli/pictures/2172_fw.png	358.02127504348755	0.7446954250335693
277	302.1431963443756	response	0	k		275.0	/experiments/Knapen_AOT/AOT_stimuli/pictures/2172_fw.png	358.7473614215851	
278	302.16180539131165	picture	0		325	276.0	/experiments/Knapen_AOT/AOT_stimuli/pictures/0244_fw.png	358.7659704685211	2.7083535194396973
278	304.85894203186035	response	0	j		276.0	/experiments/Knapen_AOT/AOT_stimuli/pictures/0244_fw.png	361.4631071090698	
279	304.87015891075134	picture	0		127	277.0	/experiments/Knapen_AOT/AOT_stimuli/pictures/1259_fw.png	361.4743239879608	1.0555400848388672
279	305.9173128604889	response	0	j		277.0	/experiments/Knapen_AOT/AOT_stimuli/pictures/1259_fw.png	362.52147793769836	
280	305.9256989955902	picture	0		117	278.0	/experiments/Knapen_AOT/AOT_stimuli/pictures/0035_fw.png	362.5298640727997	0.9831044673919678
280	306.8923101425171	response	0	k		278.0	/experiments/Knapen_AOT/AOT_stimuli/pictures/0035_fw.png	363.49647521972656	
281	306.9088034629822	picture	0		132	279.0	/experiments/Knapen_AOT/AOT_stimuli/pictures/1324_fw.png	363.51296854019165	1.1083555221557617
281	308.0006823539734	response	0	j		279.0	/experiments/Knapen_AOT/AOT_stimuli/pictures/1324_fw.png	364.60484743118286	
282	308.01715898513794	picture	0		92	280.0	/experiments/Knapen_AOT/AOT_stimuli/pictures/0627_fw.png	364.6213240623474	0.7750179767608643
282	308.7757556438446	response	0	k		280.0	/experiments/Knapen_AOT/AOT_stimuli/pictures/0627_fw.png	365.3799207210541	
283	308.7921769618988	picture	0		109	281.0	/experiments/Knapen_AOT/AOT_stimuli/pictures/1992_fw.png	365.3963420391083	0.9166860580444336
283	309.692346572876	response	0	k		281.0	/experiments/Knapen_AOT/AOT_stimuli/pictures/1992_fw.png	366.29651165008545	
284	309.70886301994324	picture	0		89	282.0	/experiments/Knapen_AOT/AOT_stimuli/pictures/0460_fw.png	366.3130280971527	0.7499880790710449
284	310.4423909187317	response	0	k		282.0	/experiments/Knapen_AOT/AOT_stimuli/pictures/0460_fw.png	367.04655599594116	
285	310.4588510990143	picture	0		95	283.0	/experiments/Knapen_AOT/AOT_stimuli/pictures/1611_fw.png	367.06301617622375	0.8000202178955078
285	311.24239563941956	response	0	j		283.0	/experiments/Knapen_AOT/AOT_stimuli/pictures/1611_fw.png	367.846560716629	
286	311.2588713169098	picture	0		84	284.0	/experiments/Knapen_AOT/AOT_stimuli/pictures/1763_fw.png	367.86303639411926	0.7083494663238525
286	311.9430754184723	response	0	j		284.0	/experiments/Knapen_AOT/AOT_stimuli/pictures/1763_fw.png	368.54724049568176	
287	311.96722078323364	picture	0		87	285.0	/experiments/Knapen_AOT/AOT_stimuli/pictures/0581_fw.png	368.5713858604431	0.729388952255249
287	312.6840810775757	response	0	k		285.0	/experiments/Knapen_AOT/AOT_stimuli/pictures/0581_fw.png	369.28824615478516	
288	312.6966097354889	picture	0		123	286.0	/experiments/Knapen_AOT/AOT_stimuli/pictures/0658_fw.png	369.30077481269836	1.0208261013031006
288	313.70907187461853	response	0	k		286.0	/experiments/Knapen_AOT/AOT_stimuli/pictures/0658_fw.png	370.313236951828	
289	313.717435836792	picture	0		189	287.0	/experiments/Knapen_AOT/AOT_stimuli/pictures/0911_fw.png	370.32160091400146	1.5831727981567383
289	315.28412413597107	response	0	k		287.0	/experiments/Knapen_AOT/AOT_stimuli/pictures/0911_fw.png	371.88828921318054	
290	315.30060863494873	picture	0		80	288.0	/experiments/Knapen_AOT/AOT_stimuli/pictures/1087_fw.png	371.9047737121582	0.6750035285949707
290	315.9591283798218	response	0	k		288.0	/experiments/Knapen_AOT/AOT_stimuli/pictures/1087_fw.png	372.56329345703125	
291	315.9756121635437	picture	0		86	289.0	/experiments/Knapen_AOT/AOT_stimuli/pictures/2134_fw.png	372.5797772407532	0.7249846458435059
291	316.6842448711395	response	0	k		289.0	/experiments/Knapen_AOT/AOT_stimuli/pictures/2134_fw.png	373.288409948349	
292	316.7005968093872	picture	0		81	290.0	/experiments/Knapen_AOT/AOT_stimuli/pictures/1011_fw.png	373.3047618865967	0.6833608150482178
292	317.36775398254395	response	0	j		290.0	/experiments/Knapen_AOT/AOT_stimuli/pictures/1011_fw.png	373.9719190597534	
293	317.3839576244354	picture	0		160	291.0	/experiments/Knapen_AOT/AOT_stimuli/pictures/1008_fw.png	373.9881227016449	1.341681718826294
293	318.7091326713562	response	0	k		291.0	/experiments/Knapen_AOT/AOT_stimuli/pictures/1008_fw.png	375.3132977485657	
294	318.7256393432617	picture	0		104	292.0	/experiments/Knapen_AOT/AOT_stimuli/pictures/0901_fw.png	375.3298044204712	0.8749966621398926
294	319.58415627479553	response	0	j		292.0	/experiments/Knapen_AOT/AOT_stimuli/pictures/0901_fw.png	376.188321352005	
295	319.6006360054016	picture	0		91	293.0	/experiments/Knapen_AOT/AOT_stimuli/pictures/1047_fw.png	376.2048010826111	0.7627003192901611
295	320.34340357780457	response	0	k		293.0	/experiments/Knapen_AOT/AOT_stimuli/pictures/1047_fw.png	376.94756865501404	
296	320.3633363246918	picture	0		105	294.0	/experiments/Knapen_AOT/AOT_stimuli/pictures/0929_fw.png	376.96750140190125	0.878972053527832
296	321.2258529663086	response	0	j		294.0	/experiments/Knapen_AOT/AOT_stimuli/pictures/0929_fw.png	377.83001804351807	
297	321.2423083782196	picture	0		133	295.0	/experiments/Knapen_AOT/AOT_stimuli/pictures/1722_fw.png	377.8464734554291	1.1167330741882324
297	322.3425204753876	response	0	j		295.0	/experiments/Knapen_AOT/AOT_stimuli/pictures/1722_fw.png	378.94668555259705	
298	322.35904145240784	picture	0		336	296.0	/experiments/Knapen_AOT/AOT_stimuli/pictures/0337_fw.png	378.9632065296173	2.8083343505859375
298	325.15105509757996	response	0	k		296.0	/experiments/Knapen_AOT/AOT_stimuli/pictures/0337_fw.png	381.75522017478943	
299	325.1673758029938	picture	0		84	297.0	/experiments/Knapen_AOT/AOT_stimuli/pictures/1426_fw.png	381.77154088020325	0.7083463668823242
299	325.85919713974	response	0	j		297.0	/experiments/Knapen_AOT/AOT_stimuli/pictures/1426_fw.png	382.46336221694946	
300	325.8757221698761	picture	0		125	298.0	/experiments/Knapen_AOT/AOT_stimuli/pictures/0652_fw.png	382.47988724708557	1.0500288009643555
300	326.9092230796814	response	0	k		298.0	/experiments/Knapen_AOT/AOT_stimuli/pictures/0652_fw.png	383.51338815689087	
301	326.92575097084045	picture	0		104	299.0	/experiments/Knapen_AOT/AOT_stimuli/pictures/0494_fw.png	383.5299160480499	0.8751718997955322
301	327.7845540046692	response	0	k		299.0	/experiments/Knapen_AOT/AOT_stimuli/pictures/0494_fw.png	384.38871908187866	
302	327.800922870636	picture	0		91	300.0	/experiments/Knapen_AOT/AOT_stimuli/pictures/0018_fw.png	384.40508794784546	0.7665138244628906
302	328.5435948371887	response	0	k		300.0	/experiments/Knapen_AOT/AOT_stimuli/pictures/0018_fw.png	385.1477599143982	
303	328.5674366950989	picture	0		191	301.0	/experiments/Knapen_AOT/AOT_stimuli/pictures/1001_fw.png	385.17160177230835	1.5999999046325684
303	330.15116596221924	response	0	k		301.0	/experiments/Knapen_AOT/AOT_stimuli/pictures/1001_fw.png	386.7553310394287	
304	330.16743659973145	picture	0		106	302.0	/experiments/Knapen_AOT/AOT_stimuli/pictures/0729_fw.png	386.7716016769409	0.8916676044464111
304	331.0426182746887	response	0	k		302.0	/experiments/Knapen_AOT/AOT_stimuli/pictures/0729_fw.png	387.6467833518982	
305	331.05910420417786	picture	0		84	303.0	/experiments/Knapen_AOT/AOT_stimuli/pictures/1463_fw.png	387.66326928138733	0.7083492279052734
305	331.7510631084442	response	0	j		303.0	/experiments/Knapen_AOT/AOT_stimuli/pictures/1463_fw.png	388.3552281856537	
306	331.76745343208313	picture	0		178	304.0	/experiments/Knapen_AOT/AOT_stimuli/pictures/1506_fw.png	388.3716185092926	1.4916908740997314
306	333.2429549694061	response	0	k		304.0	/experiments/Knapen_AOT/AOT_stimuli/pictures/1506_fw.png	389.8471200466156	
307	333.25914430618286	picture	0		83	305.0	/experiments/Knapen_AOT/AOT_stimuli/pictures/0573_fw.png	389.86330938339233	0.7000093460083008
307	333.9428827762604	response	0	j		305.0	/experiments/Knapen_AOT/AOT_stimuli/pictures/0573_fw.png	390.54704785346985	
308	333.95915365219116	picture	0		79	306.0	/experiments/Knapen_AOT/AOT_stimuli/pictures/0177_fw.png	390.56331872940063	0.6667759418487549
308	334.6093249320984	response	0	j		306.0	/experiments/Knapen_AOT/AOT_stimuli/pictures/0177_fw.png	391.21349000930786	
309	334.6259295940399	picture	0		330	307.0	/experiments/Knapen_AOT/AOT_stimuli/pictures/1160_fw.png	391.2300946712494	2.758270740509033
309	337.3677167892456	response	0	k		307.0	/experiments/Knapen_AOT/AOT_stimuli/pictures/1160_fw.png	393.9718818664551	
310	337.38420033454895	picture	0		137	308.0	/experiments/Knapen_AOT/AOT_stimuli/pictures/0480_fw.png	393.9883654117584	1.1500117778778076
310	338.5180253982544	response	0	k		308.0	/experiments/Knapen_AOT/AOT_stimuli/pictures/0480_fw.png	395.12219047546387	
311	338.53421211242676	picture	0		92	309.0	/experiments/Knapen_AOT/AOT_stimuli/pictures/1592_fw.png	395.13837718963623	0.7667243480682373
311	339.2927348613739	response	0	j		309.0	/experiments/Knapen_AOT/AOT_stimuli/pictures/1592_fw.png	395.8968999385834	
312	339.300936460495	picture	0		123	310.0	/experiments/Knapen_AOT/AOT_stimuli/pictures/0947_fw.png	395.90510153770447	1.0332961082458496
312	340.3180091381073	response	0	j		310.0	/experiments/Knapen_AOT/AOT_stimuli/pictures/0947_fw.png	396.9221742153168	
313	340.33423256874084	picture	0		98	311.0	/experiments/Knapen_AOT/AOT_stimuli/pictures/0492_fw.png	396.9383976459503	0.8209331035614014
313	341.1427438259125	response	0	j		311.0	/experiments/Knapen_AOT/AOT_stimuli/pictures/0492_fw.png	397.74690890312195	
314	341.15516567230225	picture	0		122	312.0	/experiments/Knapen_AOT/AOT_stimuli/pictures/1117_fw.png	397.7593307495117	1.0208303928375244
314	342.15955805778503	response	0	j		312.0	/experiments/Knapen_AOT/AOT_stimuli/pictures/1117_fw.png	398.7637231349945	
315	342.17599606513977	picture	0		85	313.0	/experiments/Knapen_AOT/AOT_stimuli/pictures/1904_fw.png	398.78016114234924	0.7166597843170166
315	342.8761034011841	response	0	k		313.0	/experiments/Knapen_AOT/AOT_stimuli/pictures/1904_fw.png	399.48026847839355	
316	342.8926558494568	picture	0		199	314.0	/experiments/Knapen_AOT/AOT_stimuli/pictures/1635_fw.png	399.49682092666626	1.6666383743286133
316	344.53536677360535	response	0	j		314.0	/experiments/Knapen_AOT/AOT_stimuli/pictures/1635_fw.png	401.1395318508148	
317	344.5592942237854	picture	0		90	315.0	/experiments/Knapen_AOT/AOT_stimuli/pictures/0624_fw.png	401.1634593009949	0.7583541870117188
317	345.3013596534729	response	0	j		315.0	/experiments/Knapen_AOT/AOT_stimuli/pictures/0624_fw.png	401.9055247306824	
318	345.3176484107971	picture	0		79	316.0	/experiments/Knapen_AOT/AOT_stimuli/pictures/1846_fw.png	401.9218134880066	0.6639232635498047
318	345.9678213596344	response	0	j		316.0	/experiments/Knapen_AOT/AOT_stimuli/pictures/1846_fw.png	402.5719864368439	
319	345.9815716743469	picture	0		81	317.0	/experiments/Knapen_AOT/AOT_stimuli/pictures/0985_fw.png	402.5857367515564	0.6861710548400879
319	346.65117740631104	response	0	j		317.0	/experiments/Knapen_AOT/AOT_stimuli/pictures/0985_fw.png	403.2553424835205	
320	346.667742729187	picture	0		84	318.0	/experiments/Knapen_AOT/AOT_stimuli/pictures/1419_fw.png	403.2719078063965	0.7082364559173584
320	347.35977363586426	response	0	j		318.0	/experiments/Knapen_AOT/AOT_stimuli/pictures/1419_fw.png	403.96393871307373	
321	347.37597918510437	picture	0		83	319.0	/experiments/Knapen_AOT/AOT_stimuli/pictures/0567_fw.png	403.98014426231384	0.7000093460083008
321	348.05972027778625	response	0	j		319.0	/experiments/Knapen_AOT/AOT_stimuli/pictures/0567_fw.png	404.6638853549957	
322	348.07598853111267	picture	0		137	320.0	/experiments/Knapen_AOT/AOT_stimuli/pictures/1790_fw.png	404.68015360832214	1.1500122547149658
322	349.20982241630554	response	0	j		320.0	/experiments/Knapen_AOT/AOT_stimuli/pictures/1790_fw.png	405.813987493515	
323	349.22600078582764	picture	0		272	321.0	/experiments/Knapen_AOT/AOT_stimuli/pictures/0239_fw.png	405.8301658630371	2.2694904804229736
323	351.4845333099365	response	0	k		321.0	/experiments/Knapen_AOT/AOT_stimuli/pictures/0239_fw.png	408.088698387146	
324	351.4954912662506	picture	0		119	322.0	/experiments/Knapen_AOT/AOT_stimuli/pictures/2008_fw.png	408.0996563434601	0.9972131252288818
324	352.4762041568756	response	0	k		322.0	/experiments/Knapen_AOT/AOT_stimuli/pictures/2008_fw.png	409.0803692340851	
325	352.4927043914795	picture	0		185	323.0	/experiments/Knapen_AOT/AOT_stimuli/pictures/0332_fw.png	409.09686946868896	1.5500457286834717
325	354.0262219905853	response	0	j		323.0	/experiments/Knapen_AOT/AOT_stimuli/pictures/0332_fw.png	410.6303870677948	
326	354.04275012016296	picture	0		188	324.0	/experiments/Knapen_AOT/AOT_stimuli/pictures/1978_fw.png	410.64691519737244	1.5750041007995605
326	355.6012473106384	response	0	j		324.0	/experiments/Knapen_AOT/AOT_stimuli/pictures/1978_fw.png	412.2054123878479	
327	355.6177542209625	picture	0		136	325.0	/experiments/Knapen_AOT/AOT_stimuli/pictures/0270_fw.png	412.221919298172	1.1417498588562012
327	356.7432997226715	response	0	k		325.0	/experiments/Knapen_AOT/AOT_stimuli/pictures/0270_fw.png	413.347464799881	
328	356.7595040798187	picture	0		79	326.0	/experiments/Knapen_AOT/AOT_stimuli/pictures/1202_fw.png	413.3636691570282	0.6596343517303467
328	357.40960574150085	response	0	j		326.0	/experiments/Knapen_AOT/AOT_stimuli/pictures/1202_fw.png	414.0137708187103	
329	357.4191384315491	picture	0		89	327.0	/experiments/Knapen_AOT/AOT_stimuli/pictures/1378_fw.png	414.02330350875854	0.7486529350280762
329	358.15129566192627	response	0	k		327.0	/experiments/Knapen_AOT/AOT_stimuli/pictures/1378_fw.png	414.75546073913574	
330	358.16779136657715	picture	0		183	328.0	/experiments/Knapen_AOT/AOT_stimuli/pictures/1369_fw.png	414.7719564437866	1.533353328704834
330	359.6846442222595	response	0	k		328.0	/experiments/Knapen_AOT/AOT_stimuli/pictures/1369_fw.png	416.288809299469	
331	359.701144695282	picture	0		118	329.0	/experiments/Knapen_AOT/AOT_stimuli/pictures/0750_fw.png	416.30530977249146	0.9916577339172363
331	360.6763825416565	response	0	j		329.0	/experiments/Knapen_AOT/AOT_stimuli/pictures/0750_fw.png	417.28054761886597	
332	360.6928024291992	picture	0		11	330.0	/experiments/Knapen_AOT/AOT_stimuli/pictures/0613_fw.png	417.2969675064087	0.09441971778869629
332	360.7762773036957	response	0	j		330.0	/experiments/Knapen_AOT/AOT_stimuli/pictures/0613_fw.png	417.38044238090515	
333	360.7872221469879	picture	0		234	331.0	/experiments/Knapen_AOT/AOT_stimuli/pictures/1562_fw.png	417.3913872241974	1.955610752105713
333	362.7263491153717	response	0	j		331.0	/experiments/Knapen_AOT/AOT_stimuli/pictures/1562_fw.png	419.3305141925812	
334	362.7428328990936	picture	0		74	332.0	/experiments/Knapen_AOT/AOT_stimuli/pictures/1077_fw.png	419.3469979763031	0.6250219345092773
334	363.3514094352722	response	0	j		332.0	/experiments/Knapen_AOT/AOT_stimuli/pictures/1077_fw.png	419.9555745124817	
335	363.3678548336029	picture	0		124	333.0	/experiments/Knapen_AOT/AOT_stimuli/pictures/0112_fw.png	419.9720199108124	1.0374479293823242
335	364.3930459022522	response	0	j		333.0	/experiments/Knapen_AOT/AOT_stimuli/pictures/0112_fw.png	420.99721097946167	
336	364.40530276298523	picture	0		110	334.0	/experiments/Knapen_AOT/AOT_stimuli/pictures/1870_fw.png	421.0094678401947	0.9209005832672119
336	365.3097047805786	response	0	j		334.0	/experiments/Knapen_AOT/AOT_stimuli/pictures/1870_fw.png	421.9138698577881	
337	365.32620334625244	picture	0		101	335.0	/experiments/Knapen_AOT/AOT_stimuli/pictures/1712_fw.png	421.9303684234619	0.8500101566314697
337	366.15990352630615	response	0	j		335.0	/experiments/Knapen_AOT/AOT_stimuli/pictures/1712_fw.png	422.7640686035156	
338	366.1762135028839	picture	0		86	336.0	/experiments/Knapen_AOT/AOT_stimuli/pictures/1442_fw.png	422.7803785800934	0.7250030040740967
338	366.88479447364807	response	0	j		336.0	/experiments/Knapen_AOT/AOT_stimuli/pictures/1442_fw.png	423.48895955085754	
339	366.901216506958	picture	0		102	337.0	/experiments/Knapen_AOT/AOT_stimuli/pictures/1877_fw.png	423.5053815841675	0.8583569526672363
339	367.74314641952515	response	0	k		337.0	/experiments/Knapen_AOT/AOT_stimuli/pictures/1877_fw.png	424.3473114967346	
340	367.75957345962524	picture	0		82	338.0	/experiments/Knapen_AOT/AOT_stimuli/pictures/0589_fw.png	424.3637385368347	0.6917092800140381
340	368.4347321987152	response	0	k		338.0	/experiments/Knapen_AOT/AOT_stimuli/pictures/0589_fw.png	425.0388972759247	
341	368.4512827396393	picture	0		156	339.0	/experiments/Knapen_AOT/AOT_stimuli/pictures/0575_fw.png	425.05544781684875	1.3083186149597168
341	369.7431318759918	response	0	k		339.0	/experiments/Knapen_AOT/AOT_stimuli/pictures/0575_fw.png	426.3472969532013	
342	369.759601354599	picture	0		95	340.0	/experiments/Knapen_AOT/AOT_stimuli/pictures/0972_fw.png	426.3637664318085	0.8000180721282959
342	370.53551483154297	response	0	j		340.0	/experiments/Knapen_AOT/AOT_stimuli/pictures/0972_fw.png	427.13967990875244	
343	370.5596194267273	picture	0		102	341.0	/experiments/Knapen_AOT/AOT_stimuli/pictures/0519_fw.png	427.16378450393677	0.8583295345306396
343	371.40163397789	response	0	k		341.0	/experiments/Knapen_AOT/AOT_stimuli/pictures/0519_fw.png	428.0057990550995	
344	371.41794896125793	picture	0		89	342.0	/experiments/Knapen_AOT/AOT_stimuli/pictures/0842_fw.png	428.0221140384674	0.7500138282775879
344	372.1514518260956	response	0	k		342.0	/experiments/Knapen_AOT/AOT_stimuli/pictures/0842_fw.png	428.75561690330505	
345	372.1679627895355	picture	0		99	343.0	/experiments/Knapen_AOT/AOT_stimuli/pictures/1018_fw.png	428.772127866745	0.8333497047424316
345	372.98494124412537	response	0	k		343.0	/experiments/Knapen_AOT/AOT_stimuli/pictures/1018_fw.png	429.58910632133484	
346	373.00131249427795	picture	0		83	344.0	/experiments/Knapen_AOT/AOT_stimuli/pictures/0110_fw.png	429.6054775714874	0.695725679397583
346	373.68479800224304	response	0	k		344.0	/experiments/Knapen_AOT/AOT_stimuli/pictures/0110_fw.png	430.2889630794525	
347	373.69703817367554	picture	0		88	345.0	/experiments/Knapen_AOT/AOT_stimuli/pictures/1743_fw.png	430.301203250885	0.7376265525817871
347	374.41815519332886	response	0	k		345.0	/experiments/Knapen_AOT/AOT_stimuli/pictures/1743_fw.png	431.02232027053833	
348	374.4346647262573	picture	0		87	346.0	/experiments/Knapen_AOT/AOT_stimuli/pictures/1444_fw.png	431.0388298034668	0.7333390712738037
348	375.15172386169434	response	0	k		346.0	/experiments/Knapen_AOT/AOT_stimuli/pictures/1444_fw.png	431.7558889389038	
349	375.1680037975311	picture	0		95	347.0	/experiments/Knapen_AOT/AOT_stimuli/pictures/0836_fw.png	431.7721688747406	0.7999889850616455
349	375.9515109062195	response	0	j		347.0	/experiments/Knapen_AOT/AOT_stimuli/pictures/0836_fw.png	432.55567598342896	
350	375.9679927825928	picture	0		130	348.0	/experiments/Knapen_AOT/AOT_stimuli/pictures/0363_fw.png	432.57215785980225	1.0916955471038818
350	377.04319047927856	response	0	j		348.0	/experiments/Knapen_AOT/AOT_stimuli/pictures/0363_fw.png	433.64735555648804	
351	377.05968832969666	picture	0		80	349.0	/experiments/Knapen_AOT/AOT_stimuli/pictures/0895_fw.png	433.6638534069061	0.6750030517578125
351	377.71840357780457	response	0	j		349.0	/experiments/Knapen_AOT/AOT_stimuli/pictures/0895_fw.png	434.32256865501404	
352	377.73469138145447	picture	0		85	350.0	/experiments/Knapen_AOT/AOT_stimuli/pictures/1286_fw.png	434.33885645866394	0.7166721820831299
352	378.4351134300232	response	0	j		350.0	/experiments/Knapen_AOT/AOT_stimuli/pictures/1286_fw.png	435.03927850723267	
353	378.4513635635376	picture	0		88	351.0	/experiments/Knapen_AOT/AOT_stimuli/pictures/0142_fw.png	435.05552864074707	0.7417030334472656
353	379.17653226852417	response	0	j		351.0	/experiments/Knapen_AOT/AOT_stimuli/pictures/0142_fw.png	435.78069734573364	
354	379.19306659698486	picture	0		120	352.0	/experiments/Knapen_AOT/AOT_stimuli/pictures/1963_fw.png	435.79723167419434	1.0083608627319336
354	380.18489027023315	response	0	k		352.0	/experiments/Knapen_AOT/AOT_stimuli/pictures/1963_fw.png	436.7890553474426	
355	380.2014274597168	picture	0		87	353.0	/experiments/Knapen_AOT/AOT_stimuli/pictures/1461_fw.png	436.80559253692627	0.7332956790924072
355	380.91825771331787	response	0	j		353.0	/experiments/Knapen_AOT/AOT_stimuli/pictures/1461_fw.png	437.52242279052734	
356	380.9347231388092	picture	0		94	354.0	/experiments/Knapen_AOT/AOT_stimuli/pictures/0103_fw.png	437.5388882160187	0.7917072772979736
356	381.7099709510803	response	0	k		354.0	/experiments/Knapen_AOT/AOT_stimuli/pictures/0103_fw.png	438.3141360282898	
357	381.7264304161072	picture	0		105	355.0	/experiments/Knapen_AOT/AOT_stimuli/pictures/1787_fw.png	438.33059549331665	0.8833141326904297
357	382.5932614803314	response	0	k		355.0	/experiments/Knapen_AOT/AOT_stimuli/pictures/1787_fw.png	439.1974265575409	
358	382.6097445487976	picture	0		71	356.0	/experiments/Knapen_AOT/AOT_stimuli/pictures/1836_fw.png	439.2139096260071	0.601264476776123
358	383.1934723854065	response	0	j		356.0	/experiments/Knapen_AOT/AOT_stimuli/pictures/1836_fw.png	439.79763746261597	
359	383.21100902557373	picture	0		113	357.0	/experiments/Knapen_AOT/AOT_stimuli/pictures/1556_fw.png	439.8151741027832	0.9487712383270264
359	384.1432590484619	response	0	j		357.0	/experiments/Knapen_AOT/AOT_stimuli/pictures/1556_fw.png	440.7474241256714	
360	384.15978026390076	picture	0		91	358.0	/experiments/Knapen_AOT/AOT_stimuli/pictures/1794_fw.png	440.76394534111023	0.7666714191436768
360	384.9099335670471	response	0	k		358.0	/experiments/Knapen_AOT/AOT_stimuli/pictures/1794_fw.png	441.5140986442566	
361	384.92645168304443	picture	0		91	359.0	/experiments/Knapen_AOT/AOT_stimuli/pictures/1230_fw.png	441.5306167602539	0.7667067050933838
361	385.6766414642334	response	0	j		359.0	/experiments/Knapen_AOT/AOT_stimuli/pictures/1230_fw.png	442.28080654144287	
362	385.6931583881378	stim	0		372			442.2973234653473	3.1204373836517334
362	388.79415798187256	response	0	space				445.39832305908203	
