trial_nr	onset	event_type	phase	response	nr_frames	picture_index	picture_file	onset_abs	duration
0	0.20823192596435547	stim	0		612			117.62808609008789	5.166791915893555
0	5.300265789031982	response	0	space				122.72011995315552	
2	5.37502384185791	picture	0		92	0.0	/experiments/knapen_AOT/AOT_stimuli/pictures/0552_fw.png	122.79487800598145	0.8587620258331299
2	6.165257930755615	response	0	j		0.0	/experiments/knapen_AOT/AOT_stimuli/pictures/0552_fw.png	123.58511209487915	
3	6.23378586769104	picture	0		137	1.0	/experiments/knapen_AOT/AOT_stimuli/pictures/1114_fw.png	123.65364003181458	1.1829380989074707
3	7.366813898086548	response	0	k		1.0	/experiments/knapen_AOT/AOT_stimuli/pictures/1114_fw.png	124.78666806221008	
4	7.416723966598511	picture	0		133	2.0	/experiments/knapen_AOT/AOT_stimuli/pictures/0895_fw.png	124.83657813072205	1.1366078853607178
4	8.516843795776367	response	0	k		2.0	/experiments/knapen_AOT/AOT_stimuli/pictures/0895_fw.png	125.9366979598999	
5	8.553331851959229	picture	0		165	3.0	/experiments/knapen_AOT/AOT_stimuli/pictures/0644_fw.png	125.97318601608276	1.423490047454834
5	9.91697382926941	response	0	k		3.0	/experiments/knapen_AOT/AOT_stimuli/pictures/0644_fw.png	127.33682799339294	
6	9.976821899414062	picture	0		100	4.0	/experiments/knapen_AOT/AOT_stimuli/pictures/0377_fw.png	127.3966760635376	0.875128984451294
6	10.800206899642944	response	0	k		4.0	/experiments/knapen_AOT/AOT_stimuli/pictures/0377_fw.png	128.22006106376648	
7	10.851950883865356	picture	0		117	5.0	/experiments/knapen_AOT/AOT_stimuli/pictures/1624_fw.png	128.2718050479889	1.0278449058532715
7	11.817402839660645	response	0	k		5.0	/experiments/knapen_AOT/AOT_stimuli/pictures/1624_fw.png	129.23725700378418	
8	11.879795789718628	picture	0		115	6.0	/experiments/knapen_AOT/AOT_stimuli/pictures/1223_fw.png	129.29964995384216	1.0069580078125
8	12.833568811416626	response	0	k		6.0	/experiments/knapen_AOT/AOT_stimuli/pictures/1223_fw.png	130.25342297554016	
9	12.886753797531128	picture	0		110	7.0	/experiments/knapen_AOT/AOT_stimuli/pictures/0962_fw.png	130.30660796165466	0.9383821487426758
9	13.791950941085815	response	0	j		7.0	/experiments/knapen_AOT/AOT_stimuli/pictures/0962_fw.png	131.21180510520935	
10	13.825135946273804	picture	0		95	8.0	/experiments/knapen_AOT/AOT_stimuli/pictures/2014_fw.png	131.24499011039734	0.8333008289337158
10	14.609102964401245	response	0	j		8.0	/experiments/knapen_AOT/AOT_stimuli/pictures/2014_fw.png	132.02895712852478	
11	14.65843677520752	picture	0		98	9.0	/experiments/knapen_AOT/AOT_stimuli/pictures/1874_fw.png	132.07829093933105	0.8667640686035156
11	15.466919898986816	response	0	k		9.0	/experiments/knapen_AOT/AOT_stimuli/pictures/1874_fw.png	132.88677406311035	
12	15.525200843811035	picture	0		126	10.0	/experiments/knapen_AOT/AOT_stimuli/pictures/0158_fw.png	132.94505500793457	1.1046321392059326
12	16.56751585006714	response	0	j		10.0	/experiments/knapen_AOT/AOT_stimuli/pictures/0158_fw.png	133.98737001419067	
13	16.629832983016968	picture	0		92	11.0	/experiments/knapen_AOT/AOT_stimuli/pictures/0573_fw.png	134.0496871471405	0.8124408721923828
13	17.38359785079956	response	0	k		11.0	/experiments/knapen_AOT/AOT_stimuli/pictures/0573_fw.png	134.8034520149231	
14	17.44227385520935	picture	0		96	12.0	/experiments/knapen_AOT/AOT_stimuli/pictures/1288_fw.png	134.86212801933289	0.8264009952545166
14	18.234073877334595	response	0	k		12.0	/experiments/knapen_AOT/AOT_stimuli/pictures/1288_fw.png	135.65392804145813	
15	18.268674850463867	picture	0		98	13.0	/experiments/knapen_AOT/AOT_stimuli/pictures/0633_fw.png	135.6885290145874	0.8565809726715088
15	19.07545781135559	response	0	k		13.0	/experiments/knapen_AOT/AOT_stimuli/pictures/0633_fw.png	136.49531197547913	
16	19.125255823135376	picture	0		92	14.0	/experiments/knapen_AOT/AOT_stimuli/pictures/0511_fw.png	136.5451099872589	0.824937105178833
16	19.883708000183105	response	0	j		14.0	/experiments/knapen_AOT/AOT_stimuli/pictures/0511_fw.png	137.30356216430664	
17	19.95019292831421	picture	0		101	15.0	/experiments/knapen_AOT/AOT_stimuli/pictures/1078_fw.png	137.37004709243774	0.8917319774627686
17	20.78368377685547	response	0	k		15.0	/experiments/knapen_AOT/AOT_stimuli/pictures/1078_fw.png	138.203537940979	
18	20.841924905776978	picture	0		91	16.0	/experiments/knapen_AOT/AOT_stimuli/pictures/1222_fw.png	138.2617790699005	0.8086719512939453
18	21.592045783996582	response	0	j		16.0	/experiments/knapen_AOT/AOT_stimuli/pictures/1222_fw.png	139.01189994812012	
19	21.650596857070923	picture	0		90	17.0	/experiments/knapen_AOT/AOT_stimuli/pictures/1610_fw.png	139.07045102119446	0.7995879650115967
19	22.391986846923828	response	0	k		17.0	/experiments/knapen_AOT/AOT_stimuli/pictures/1610_fw.png	139.81184101104736	
20	22.45018482208252	picture	0		90	18.0	/experiments/knapen_AOT/AOT_stimuli/pictures/1077_fw.png	139.87003898620605	0.7768330574035645
20	23.192582845687866	response	0	j		18.0	/experiments/knapen_AOT/AOT_stimuli/pictures/1077_fw.png	140.6124370098114	
21	23.227017879486084	picture	0		102	19.0	/experiments/knapen_AOT/AOT_stimuli/pictures/1204_fw.png	140.64687204360962	0.8982360363006592
21	24.06757688522339	response	0	j		19.0	/experiments/knapen_AOT/AOT_stimuli/pictures/1204_fw.png	141.48743104934692	
22	24.125253915786743	picture	0		132	20.0	/experiments/knapen_AOT/AOT_stimuli/pictures/1060_fw.png	141.54510807991028	1.143563985824585
22	25.21705985069275	response	0	k		20.0	/experiments/knapen_AOT/AOT_stimuli/pictures/1060_fw.png	142.63691401481628	
23	25.268817901611328	picture	0		116	21.0	/experiments/knapen_AOT/AOT_stimuli/pictures/2036_fw.png	142.68867206573486	1.0068039894104004
23	26.225421905517578	response	0	k		21.0	/experiments/knapen_AOT/AOT_stimuli/pictures/2036_fw.png	143.6452760696411	
24	26.27562189102173	picture	0		86	22.0	/experiments/knapen_AOT/AOT_stimuli/pictures/1850_fw.png	143.69547605514526	0.770988941192627
24	26.984129905700684	response	0	j		22.0	/experiments/knapen_AOT/AOT_stimuli/pictures/1850_fw.png	144.40398406982422	
25	27.046610832214355	picture	0		93	23.0	/experiments/knapen_AOT/AOT_stimuli/pictures/0760_fw.png	144.4664649963379	0.8036930561065674
25	27.80878496170044	response	0	k		23.0	/experiments/knapen_AOT/AOT_stimuli/pictures/0760_fw.png	145.22863912582397	
26	27.850303888320923	picture	0		95	24.0	/experiments/knapen_AOT/AOT_stimuli/pictures/0048_fw.png	145.27015805244446	0.8213140964508057
26	28.63375496864319	response	0	k		24.0	/experiments/knapen_AOT/AOT_stimuli/pictures/0048_fw.png	146.05360913276672	
27	28.67161798477173	picture	0		124	25.0	/experiments/knapen_AOT/AOT_stimuli/pictures/2037_fw.png	146.09147214889526	1.087054967880249
27	29.692583799362183	response	0	k		25.0	/experiments/knapen_AOT/AOT_stimuli/pictures/2037_fw.png	147.11243796348572	
28	29.758672952651978	picture	0		88	26.0	/experiments/knapen_AOT/AOT_stimuli/pictures/1866_fw.png	147.1785271167755	0.767009973526001
28	30.48415994644165	response	0	k		26.0	/experiments/knapen_AOT/AOT_stimuli/pictures/1866_fw.png	147.90401411056519	
29	30.52568292617798	picture	0		88	27.0	/experiments/knapen_AOT/AOT_stimuli/pictures/0467_fw.png	147.9455370903015	0.7996258735656738
29	31.29213285446167	response	0	k		27.0	/experiments/knapen_AOT/AOT_stimuli/pictures/0467_fw.png	148.7119870185852	
30	31.325308799743652	picture	0		96	28.0	/experiments/knapen_AOT/AOT_stimuli/pictures/1797_fw.png	148.7451629638672	0.833341121673584
30	32.11079978942871	response	0	j		28.0	/experiments/knapen_AOT/AOT_stimuli/pictures/1797_fw.png	149.53065395355225	
31	32.158649921417236	picture	0		92	29.0	/experiments/knapen_AOT/AOT_stimuli/pictures/0656_fw.png	149.57850408554077	0.7917189598083496
31	32.910337924957275	response	0	k		29.0	/experiments/knapen_AOT/AOT_stimuli/pictures/0656_fw.png	150.3301920890808	
32	32.950368881225586	picture	0		91	30.0	/experiments/knapen_AOT/AOT_stimuli/pictures/1952_fw.png	150.37022304534912	0.7836639881134033
32	33.69411087036133	response	0	k		30.0	/experiments/knapen_AOT/AOT_stimuli/pictures/1952_fw.png	151.11396503448486	
33	33.73403286933899	picture	0		94	31.0	/experiments/knapen_AOT/AOT_stimuli/pictures/0914_fw.png	151.15388703346252	0.8247129917144775
33	34.502049922943115	response	0	j		31.0	/experiments/knapen_AOT/AOT_stimuli/pictures/0914_fw.png	151.92190408706665	
34	34.55874586105347	picture	0		153	32.0	/experiments/knapen_AOT/AOT_stimuli/pictures/1732_fw.png	151.978600025177	1.3166799545288086
34	35.8256459236145	response	0	k		32.0	/experiments/knapen_AOT/AOT_stimuli/pictures/1732_fw.png	153.24550008773804	
35	35.875425815582275	picture	0		113	33.0	/experiments/knapen_AOT/AOT_stimuli/pictures/0277_fw.png	153.2952799797058	0.9999961853027344
35	36.80888795852661	response	0	j		33.0	/experiments/knapen_AOT/AOT_stimuli/pictures/0277_fw.png	154.22874212265015	
36	36.87542200088501	picture	0		104	34.0	/experiments/knapen_AOT/AOT_stimuli/pictures/0852_fw.png	154.29527616500854	0.9083428382873535
36	37.72710394859314	response	0	k		34.0	/experiments/knapen_AOT/AOT_stimuli/pictures/0852_fw.png	155.14695811271667	
37	37.78376483917236	picture	0		99	35.0	/experiments/knapen_AOT/AOT_stimuli/pictures/0642_fw.png	155.2036190032959	0.8669910430908203
37	38.60069990158081	response	0	k		35.0	/experiments/knapen_AOT/AOT_stimuli/pictures/0642_fw.png	156.02055406570435	
38	38.650755882263184	picture	0		108	36.0	/experiments/knapen_AOT/AOT_stimuli/pictures/0746_fw.png	156.07061004638672	0.9497339725494385
38	39.542218923568726	response	0	j		36.0	/experiments/knapen_AOT/AOT_stimuli/pictures/0746_fw.png	156.96207308769226	
39	39.60048985481262	picture	0		94	37.0	/experiments/knapen_AOT/AOT_stimuli/pictures/1277_fw.png	157.02034401893616	0.821234941482544
39	40.37553381919861	response	0	k		37.0	/experiments/knapen_AOT/AOT_stimuli/pictures/1277_fw.png	157.79538798332214	
40	40.421724796295166	picture	0		107	38.0	/experiments/knapen_AOT/AOT_stimuli/pictures/0293_fw.png	157.8415789604187	0.9373772144317627
40	41.29387879371643	response	0	k		38.0	/experiments/knapen_AOT/AOT_stimuli/pictures/0293_fw.png	158.71373295783997	
41	41.35910201072693	picture	0		98	39.0	/experiments/knapen_AOT/AOT_stimuli/pictures/1809_fw.png	158.77895617485046	0.8663439750671387
41	42.167255878448486	response	0	k		39.0	/experiments/knapen_AOT/AOT_stimuli/pictures/1809_fw.png	159.58711004257202	
42	42.22544598579407	picture	0		156	40.0	/experiments/knapen_AOT/AOT_stimuli/pictures/0629_fw.png	159.6453001499176	1.3418059349060059
42	43.510472774505615	response	0	k		40.0	/experiments/knapen_AOT/AOT_stimuli/pictures/0629_fw.png	160.93032693862915	
43	43.56725192070007	picture	0		95	41.0	/experiments/knapen_AOT/AOT_stimuli/pictures/1840_fw.png	160.9871060848236	0.8249940872192383
43	44.3506338596344	response	0	k		41.0	/experiments/knapen_AOT/AOT_stimuli/pictures/1840_fw.png	161.77048802375793	
44	44.39224600791931	picture	0		88	42.0	/experiments/knapen_AOT/AOT_stimuli/pictures/2035_fw.png	161.81210017204285	0.78330397605896
44	45.110742807388306	response	0	j		42.0	/experiments/knapen_AOT/AOT_stimuli/pictures/2035_fw.png	162.53059697151184	
45	45.17554998397827	picture	0		100	43.0	/experiments/knapen_AOT/AOT_stimuli/pictures/1989_fw.png	162.5954041481018	0.8850688934326172
45	46.00067400932312	response	0	k		43.0	/experiments/knapen_AOT/AOT_stimuli/pictures/1989_fw.png	163.42052817344666	
46	46.06061887741089	picture	0		159	44.0	/experiments/knapen_AOT/AOT_stimuli/pictures/1755_fw.png	163.48047304153442	1.3732750415802002
46	47.37583684921265	response	0	k		44.0	/experiments/knapen_AOT/AOT_stimuli/pictures/1755_fw.png	164.79569101333618	
47	47.43389391899109	picture	0		214	45.0	/experiments/knapen_AOT/AOT_stimuli/pictures/1885_fw.png	164.85374808311462	1.8166558742523193
47	49.20904588699341	response	0	j		45.0	/experiments/knapen_AOT/AOT_stimuli/pictures/1885_fw.png	166.62890005111694	
48	49.25054979324341	picture	0		91	46.0	/experiments/knapen_AOT/AOT_stimuli/pictures/1400_fw.png	166.67040395736694	0.8083450794219971
48	50.00069785118103	response	0	j		46.0	/experiments/knapen_AOT/AOT_stimuli/pictures/1400_fw.png	167.42055201530457	
49	50.058894872665405	picture	0		159	47.0	/experiments/knapen_AOT/AOT_stimuli/pictures/1175_fw.png	167.47874903678894	1.3696911334991455
49	51.3757688999176	response	0	j		47.0	/experiments/knapen_AOT/AOT_stimuli/pictures/1175_fw.png	168.79562306404114	
50	51.42858600616455	picture	0		101	48.0	/experiments/knapen_AOT/AOT_stimuli/pictures/2153_fw.png	168.8484401702881	0.8820397853851318
50	52.25904393196106	response	0	j		48.0	/experiments/knapen_AOT/AOT_stimuli/pictures/2153_fw.png	169.6788980960846	
51	52.31062579154968	picture	0		88	49.0	/experiments/knapen_AOT/AOT_stimuli/pictures/0884_fw.png	169.73047995567322	0.7650740146636963
51	53.03403687477112	response	0	k		49.0	/experiments/knapen_AOT/AOT_stimuli/pictures/0884_fw.png	170.45389103889465	
52	53.07569980621338	picture	0		94	50.0	/experiments/knapen_AOT/AOT_stimuli/pictures/2141_fw.png	170.4955539703369	0.8251810073852539
52	53.850979804992676	response	0	j		50.0	/experiments/knapen_AOT/AOT_stimuli/pictures/2141_fw.png	171.2708339691162	
53	53.90088081359863	picture	0		94	51.0	/experiments/knapen_AOT/AOT_stimuli/pictures/1502_fw.png	171.32073497772217	0.8541619777679443
53	54.67580699920654	response	0	j		51.0	/experiments/knapen_AOT/AOT_stimuli/pictures/1502_fw.png	172.09566116333008	
54	54.75504279136658	picture	0		128	52.0	/experiments/knapen_AOT/AOT_stimuli/pictures/2144_fw.png	172.1748969554901	1.1123411655426025
54	55.809101819992065	response	0	k		52.0	/experiments/knapen_AOT/AOT_stimuli/pictures/2144_fw.png	173.2289559841156	
55	55.86738395690918	picture	0		104	53.0	/experiments/knapen_AOT/AOT_stimuli/pictures/0616_fw.png	173.28723812103271	0.916579008102417
55	56.72578477859497	response	0	k		53.0	/experiments/knapen_AOT/AOT_stimuli/pictures/0616_fw.png	174.1456389427185	
56	56.7839629650116	picture	0		142	54.0	/experiments/knapen_AOT/AOT_stimuli/pictures/1861_fw.png	174.20381712913513	1.2141919136047363
56	57.95913481712341	response	0	k		54.0	/experiments/knapen_AOT/AOT_stimuli/pictures/1861_fw.png	175.37898898124695	
57	57.99815487861633	picture	0		108	55.0	/experiments/knapen_AOT/AOT_stimuli/pictures/2103_fw.png	175.41800904273987	0.9443950653076172
57	58.88568997383118	response	0	k		55.0	/experiments/knapen_AOT/AOT_stimuli/pictures/2103_fw.png	176.3055441379547	
58	58.94254994392395	picture	0		78	56.0	/experiments/knapen_AOT/AOT_stimuli/pictures/0957_fw.png	176.36240410804749	0.6875429153442383
58	59.584155797958374	response	0	j		56.0	/experiments/knapen_AOT/AOT_stimuli/pictures/0957_fw.png	177.0040099620819	
59	59.63009285926819	picture	0		79	57.0	/experiments/knapen_AOT/AOT_stimuli/pictures/1692_fw.png	177.04994702339172	0.7083740234375
59	60.27603793144226	response	0	k		57.0	/experiments/knapen_AOT/AOT_stimuli/pictures/1692_fw.png	177.6958920955658	
60	60.33846688270569	picture	0		92	58.0	/experiments/knapen_AOT/AOT_stimuli/pictures/0080_fw.png	177.75832104682922	0.7985780239105225
60	61.085911989212036	response	0	j		58.0	/experiments/knapen_AOT/AOT_stimuli/pictures/0080_fw.png	178.50576615333557	
61	61.13704490661621	picture	0		152	59.0	/experiments/knapen_AOT/AOT_stimuli/pictures/1062_fw.png	178.55689907073975	1.291727066040039
61	62.39253377914429	response	0	j		59.0	/experiments/knapen_AOT/AOT_stimuli/pictures/1062_fw.png	179.81238794326782	
62	62.42877197265625	picture	0		148	60.0	/experiments/knapen_AOT/AOT_stimuli/pictures/0774_fw.png	179.84862613677979	1.2569890022277832
62	63.65112090110779	response	0	j		60.0	/experiments/knapen_AOT/AOT_stimuli/pictures/0774_fw.png	181.07097506523132	
63	63.68576097488403	picture	0		93	61.0	/experiments/knapen_AOT/AOT_stimuli/pictures/0434_fw.png	181.10561513900757	0.8483288288116455
63	64.45097494125366	response	0	j		61.0	/experiments/knapen_AOT/AOT_stimuli/pictures/0434_fw.png	181.8708291053772	
64	64.53408980369568	picture	0		94	62.0	/experiments/knapen_AOT/AOT_stimuli/pictures/0790_fw.png	181.9539439678192	0.8252232074737549
64	65.30923986434937	response	0	j		62.0	/experiments/knapen_AOT/AOT_stimuli/pictures/0790_fw.png	182.7290940284729	
65	65.35931301116943	picture	0		82	63.0	/experiments/knapen_AOT/AOT_stimuli/pictures/0439_fw.png	182.77916717529297	0.7664468288421631
65	66.0677719116211	response	0	j		63.0	/experiments/knapen_AOT/AOT_stimuli/pictures/0439_fw.png	183.48762607574463	
66	66.1257598400116	picture	0		85	64.0	/experiments/knapen_AOT/AOT_stimuli/pictures/2117_fw.png	183.54561400413513	0.7543840408325195
66	66.82596588134766	response	0	j		64.0	/experiments/knapen_AOT/AOT_stimuli/pictures/2117_fw.png	184.2458200454712	
67	66.88014388084412	picture	0		188	65.0	/experiments/knapen_AOT/AOT_stimuli/pictures/1392_fw.png	184.29999804496765	1.597141981124878
67	68.43443393707275	response	0	k		65.0	/experiments/knapen_AOT/AOT_stimuli/pictures/1392_fw.png	185.8542881011963	
68	68.477285861969	picture	0		123	66.0	/experiments/knapen_AOT/AOT_stimuli/pictures/0196_fw.png	185.89714002609253	1.0765149593353271
68	69.48593997955322	response	0	k		66.0	/experiments/knapen_AOT/AOT_stimuli/pictures/0196_fw.png	186.90579414367676	
69	69.55380082130432	picture	0		87	67.0	/experiments/knapen_AOT/AOT_stimuli/pictures/1833_fw.png	186.97365498542786	0.7777810096740723
69	70.26765084266663	response	0	j		67.0	/experiments/knapen_AOT/AOT_stimuli/pictures/1833_fw.png	187.68750500679016	
70	70.3315818309784	picture	0		94	68.0	/experiments/knapen_AOT/AOT_stimuli/pictures/1889_fw.png	187.75143599510193	0.835935115814209
70	71.10263299942017	response	0	k		68.0	/experiments/knapen_AOT/AOT_stimuli/pictures/1889_fw.png	188.5224871635437	
71	71.1675169467926	picture	0		153	69.0	/experiments/knapen_AOT/AOT_stimuli/pictures/0726_fw.png	188.58737111091614	1.3307058811187744
71	72.43436288833618	response	0	j		69.0	/experiments/knapen_AOT/AOT_stimuli/pictures/0726_fw.png	189.85421705245972	
72	72.49822282791138	picture	0		110	70.0	/experiments/knapen_AOT/AOT_stimuli/pictures/1468_fw.png	189.9180769920349	0.9444291591644287
72	73.40944194793701	response	0	j		70.0	/experiments/knapen_AOT/AOT_stimuli/pictures/1468_fw.png	190.82929611206055	
73	73.4426519870758	picture	0		88	71.0	/experiments/knapen_AOT/AOT_stimuli/pictures/0723_fw.png	190.86250615119934	0.7640268802642822
73	74.16764998435974	response	0	j		71.0	/experiments/knapen_AOT/AOT_stimuli/pictures/0723_fw.png	191.58750414848328	
74	74.20667886734009	picture	0		95	72.0	/experiments/knapen_AOT/AOT_stimuli/pictures/2161_fw.png	191.62653303146362	0.8358631134033203
74	74.99273085594177	response	0	k		72.0	/experiments/knapen_AOT/AOT_stimuli/pictures/2161_fw.png	192.4125850200653	
75	75.04254198074341	picture	0		98	73.0	/experiments/knapen_AOT/AOT_stimuli/pictures/1348_fw.png	192.46239614486694	0.8585479259490967
75	75.85103583335876	response	0	k		73.0	/experiments/knapen_AOT/AOT_stimuli/pictures/1348_fw.png	193.2708899974823	
76	75.9010899066925	picture	0		88	74.0	/experiments/knapen_AOT/AOT_stimuli/pictures/1988_fw.png	193.32094407081604	0.7832179069519043
76	76.62601685523987	response	0	j		74.0	/experiments/knapen_AOT/AOT_stimuli/pictures/1988_fw.png	194.0458710193634	
77	76.68430781364441	picture	0		102	75.0	/experiments/knapen_AOT/AOT_stimuli/pictures/1056_fw.png	194.10416197776794	0.9251761436462402
77	77.5262188911438	response	0	k		75.0	/experiments/knapen_AOT/AOT_stimuli/pictures/1056_fw.png	194.94607305526733	
78	77.60948395729065	picture	0		135	76.0	/experiments/knapen_AOT/AOT_stimuli/pictures/0710_fw.png	195.02933812141418	1.1748039722442627
78	78.72606182098389	response	0	k		76.0	/experiments/knapen_AOT/AOT_stimuli/pictures/0710_fw.png	196.14591598510742	
79	78.78428792953491	picture	0		108	77.0	/experiments/knapen_AOT/AOT_stimuli/pictures/1335_fw.png	196.20414209365845	0.9293880462646484
79	79.66950297355652	response	0	k		77.0	/experiments/knapen_AOT/AOT_stimuli/pictures/1335_fw.png	197.08935713768005	
80	79.71367597579956	picture	0		91	78.0	/experiments/knapen_AOT/AOT_stimuli/pictures/0820_fw.png	197.1335301399231	0.7985999584197998
80	80.45287084579468	response	0	k		78.0	/experiments/knapen_AOT/AOT_stimuli/pictures/0820_fw.png	197.8727250099182	
81	80.51227593421936	picture	0		105	79.0	/experiments/knapen_AOT/AOT_stimuli/pictures/1420_fw.png	197.9321300983429	0.9304230213165283
81	81.3760998249054	response	0	j		79.0	/experiments/knapen_AOT/AOT_stimuli/pictures/1420_fw.png	198.79595398902893	
82	81.44269895553589	picture	0		91	80.0	/experiments/knapen_AOT/AOT_stimuli/pictures/2166_fw.png	198.86255311965942	0.8126599788665771
82	82.19293189048767	response	0	k		80.0	/experiments/knapen_AOT/AOT_stimuli/pictures/2166_fw.png	199.6127860546112	
83	82.25535893440247	picture	0		103	81.0	/experiments/knapen_AOT/AOT_stimuli/pictures/0227_fw.png	199.675213098526	0.8819069862365723
83	83.10113382339478	response	0	k		81.0	/experiments/knapen_AOT/AOT_stimuli/pictures/0227_fw.png	200.5209879875183	
84	83.13726592063904	picture	0		102	82.0	/experiments/knapen_AOT/AOT_stimuli/pictures/1297_fw.png	200.55712008476257	0.8888919353485107
84	83.9761369228363	response	0	j		82.0	/experiments/knapen_AOT/AOT_stimuli/pictures/1297_fw.png	201.39599108695984	
85	84.02615785598755	picture	0		146	83.0	/experiments/knapen_AOT/AOT_stimuli/pictures/0531_fw.png	201.44601202011108	1.2665150165557861
85	85.23465180397034	response	0	j		83.0	/experiments/knapen_AOT/AOT_stimuli/pictures/0531_fw.png	202.65450596809387	
86	85.29267287254333	picture	0		115	84.0	/experiments/knapen_AOT/AOT_stimuli/pictures/1617_fw.png	202.71252703666687	1.011254072189331
86	86.24288892745972	response	0	j		84.0	/experiments/knapen_AOT/AOT_stimuli/pictures/1617_fw.png	203.66274309158325	
87	86.30392694473267	picture	0		98	85.0	/experiments/knapen_AOT/AOT_stimuli/pictures/0987_fw.png	203.7237811088562	0.8721258640289307
87	87.10977792739868	response	0	k		85.0	/experiments/knapen_AOT/AOT_stimuli/pictures/0987_fw.png	204.52963209152222	
88	87.1760528087616	picture	0		98	86.0	/experiments/knapen_AOT/AOT_stimuli/pictures/2176_fw.png	204.59590697288513	0.8432691097259521
88	87.98472499847412	response	0	k		86.0	/experiments/knapen_AOT/AOT_stimuli/pictures/2176_fw.png	205.40457916259766	
89	88.01932191848755	picture	0		89	87.0	/experiments/knapen_AOT/AOT_stimuli/pictures/0428_fw.png	205.43917608261108	0.7707118988037109
89	88.75120997428894	response	0	k		87.0	/experiments/knapen_AOT/AOT_stimuli/pictures/0428_fw.png	206.17106413841248	
90	88.79003381729126	picture	0		217	88.0	/experiments/knapen_AOT/AOT_stimuli/pictures/2011_fw.png	206.2098879814148	1.8540890216827393
90	90.59292984008789	response	0	k		88.0	/experiments/knapen_AOT/AOT_stimuli/pictures/2011_fw.png	208.01278400421143	
91	90.644122838974	picture	0		187	89.0	/experiments/knapen_AOT/AOT_stimuli/pictures/0186_fw.png	208.06397700309753	1.6070489883422852
91	92.19300699234009	response	0	k		89.0	/experiments/knapen_AOT/AOT_stimuli/pictures/0186_fw.png	209.61286115646362	
92	92.25117182731628	picture	0		160	90.0	/experiments/knapen_AOT/AOT_stimuli/pictures/1433_fw.png	209.67102599143982	1.3583290576934814
92	93.5763828754425	response	0	k		90.0	/experiments/knapen_AOT/AOT_stimuli/pictures/1433_fw.png	210.99623703956604	
93	93.60950088500977	picture	0		113	91.0	/experiments/knapen_AOT/AOT_stimuli/pictures/0226_fw.png	211.0293550491333	0.9931819438934326
93	94.54298686981201	response	0	k		91.0	/experiments/knapen_AOT/AOT_stimuli/pictures/0226_fw.png	211.96284103393555	
94	94.6026828289032	picture	0		131	92.0	/experiments/knapen_AOT/AOT_stimuli/pictures/1654_fw.png	212.02253699302673	1.140151023864746
94	95.68462800979614	response	0	k		92.0	/experiments/knapen_AOT/AOT_stimuli/pictures/1654_fw.png	213.10448217391968	
95	95.74283385276794	picture	0		305	93.0	/experiments/knapen_AOT/AOT_stimuli/pictures/1184_fw.png	213.16268801689148	2.5917770862579346
95	98.26964378356934	response	0	k		93.0	/experiments/knapen_AOT/AOT_stimuli/pictures/1184_fw.png	215.68949794769287	
96	98.33461093902588	picture	0		189	94.0	/experiments/knapen_AOT/AOT_stimuli/pictures/0834_fw.png	215.7544651031494	1.6290850639343262
96	99.90140199661255	response	0	k		94.0	/experiments/knapen_AOT/AOT_stimuli/pictures/0834_fw.png	217.32125616073608	
97	99.9636960029602	picture	0		129	95.0	/experiments/knapen_AOT/AOT_stimuli/pictures/1964_fw.png	217.38355016708374	1.1126518249511719
97	101.02650880813599	response	0	k		95.0	/experiments/knapen_AOT/AOT_stimuli/pictures/1964_fw.png	218.44636297225952	
98	101.07634782791138	picture	0		138	96.0	/experiments/knapen_AOT/AOT_stimuli/pictures/1577_fw.png	218.4962019920349	1.1915690898895264
98	102.21803689002991	response	0	j		96.0	/experiments/knapen_AOT/AOT_stimuli/pictures/1577_fw.png	219.63789105415344	
99	102.2679169178009	picture	0		104	97.0	/experiments/knapen_AOT/AOT_stimuli/pictures/0767_fw.png	219.68777108192444	0.8835060596466064
99	103.12640881538391	response	0	j		97.0	/experiments/knapen_AOT/AOT_stimuli/pictures/0767_fw.png	220.54626297950745	
100	103.15142297744751	picture	0		89	98.0	/experiments/knapen_AOT/AOT_stimuli/pictures/0590_fw.png	220.57127714157104	0.7748939990997314
100	103.88476490974426	response	0	j		98.0	/experiments/knapen_AOT/AOT_stimuli/pictures/0590_fw.png	221.3046190738678	
101	103.92631697654724	picture	0		115	99.0	/experiments/knapen_AOT/AOT_stimuli/pictures/0716_fw.png	221.34617114067078	1.016692876815796
101	104.87642097473145	response	0	k		99.0	/experiments/knapen_AOT/AOT_stimuli/pictures/0716_fw.png	222.29627513885498	
102	104.94300985336304	picture	0		103	100.0	/experiments/knapen_AOT/AOT_stimuli/pictures/1496_fw.png	222.36286401748657	0.9332599639892578
102	105.81816387176514	response	0	j		100.0	/experiments/knapen_AOT/AOT_stimuli/pictures/1496_fw.png	223.23801803588867	
103	105.8762698173523	picture	0		100	101.0	/experiments/knapen_AOT/AOT_stimuli/pictures/0542_fw.png	223.29612398147583	0.8917160034179688
103	106.70149779319763	response	0	k		101.0	/experiments/knapen_AOT/AOT_stimuli/pictures/0542_fw.png	224.12135195732117	
104	106.76798582077026	picture	0		125	102.0	/experiments/knapen_AOT/AOT_stimuli/pictures/0389_fw.png	224.1878399848938	1.0848901271820068
104	107.8014748096466	response	0	k		102.0	/experiments/knapen_AOT/AOT_stimuli/pictures/0389_fw.png	225.22132897377014	
105	107.85287594795227	picture	0		105	103.0	/experiments/knapen_AOT/AOT_stimuli/pictures/1911_fw.png	225.2727301120758	0.9026169776916504
105	108.71814298629761	response	0	k		103.0	/experiments/knapen_AOT/AOT_stimuli/pictures/1911_fw.png	226.13799715042114	
106	108.75549292564392	picture	0		181	104.0	/experiments/knapen_AOT/AOT_stimuli/pictures/0479_fw.png	226.17534708976746	1.5625269412994385
106	110.2447099685669	response	0	k		104.0	/experiments/knapen_AOT/AOT_stimuli/pictures/0479_fw.png	227.66456413269043	
107	110.31801986694336	picture	0		130	105.0	/experiments/knapen_AOT/AOT_stimuli/pictures/0507_fw.png	227.7378740310669	1.125093936920166
107	111.39315986633301	response	0	k		105.0	/experiments/knapen_AOT/AOT_stimuli/pictures/0507_fw.png	228.81301403045654	
108	111.44311380386353	picture	0		86	106.0	/experiments/knapen_AOT/AOT_stimuli/pictures/0646_fw.png	228.86296796798706	0.7666380405426025
108	112.15157985687256	response	0	j		106.0	/experiments/knapen_AOT/AOT_stimuli/pictures/0646_fw.png	229.5714340209961	
109	112.20975184440613	picture	0		103	107.0	/experiments/knapen_AOT/AOT_stimuli/pictures/1262_fw.png	229.62960600852966	0.9083161354064941
109	113.06004190444946	response	0	j		107.0	/experiments/knapen_AOT/AOT_stimuli/pictures/1262_fw.png	230.479896068573	
110	113.11806797981262	picture	0		187	108.0	/experiments/knapen_AOT/AOT_stimuli/pictures/0631_fw.png	230.53792214393616	1.595700979232788
110	114.66136288642883	response	0	j		108.0	/experiments/knapen_AOT/AOT_stimuli/pictures/0631_fw.png	232.08121705055237	
111	114.71376895904541	picture	0		142	109.0	/experiments/knapen_AOT/AOT_stimuli/pictures/1971_fw.png	232.13362312316895	1.2293479442596436
111	115.88490891456604	response	0	k		109.0	/experiments/knapen_AOT/AOT_stimuli/pictures/1971_fw.png	233.30476307868958	
112	115.94311690330505	picture	0		87	110.0	/experiments/knapen_AOT/AOT_stimuli/pictures/0084_fw.png	233.3629710674286	0.77783203125
112	116.65311479568481	response	0	j		110.0	/experiments/knapen_AOT/AOT_stimuli/pictures/0084_fw.png	234.07296895980835	
113	116.72094893455505	picture	0		98	111.0	/experiments/knapen_AOT/AOT_stimuli/pictures/1422_fw.png	234.1408030986786	0.8331940174102783
113	117.52665877342224	response	0	k		111.0	/experiments/knapen_AOT/AOT_stimuli/pictures/1422_fw.png	234.94651293754578	
114	117.55414295196533	picture	0		107	112.0	/experiments/knapen_AOT/AOT_stimuli/pictures/1567_fw.png	234.97399711608887	0.9098248481750488
114	118.42822694778442	response	0	j		112.0	/experiments/knapen_AOT/AOT_stimuli/pictures/1567_fw.png	235.84808111190796	
115	118.46396780014038	picture	0		113	113.0	/experiments/knapen_AOT/AOT_stimuli/pictures/1638_fw.png	235.88382196426392	0.9791350364685059
115	119.39328598976135	response	0	k		113.0	/experiments/knapen_AOT/AOT_stimuli/pictures/1638_fw.png	236.8131401538849	
116	119.44310283660889	picture	0		108	114.0	/experiments/knapen_AOT/AOT_stimuli/pictures/0182_fw.png	236.86295700073242	0.958420991897583
116	120.33499097824097	response	0	j		114.0	/experiments/knapen_AOT/AOT_stimuli/pictures/0182_fw.png	237.7548451423645	
117	120.40152382850647	picture	0		79	115.0	/experiments/knapen_AOT/AOT_stimuli/pictures/0450_fw.png	237.82137799263	0.7083690166473389
117	121.0448169708252	response	0	j		115.0	/experiments/knapen_AOT/AOT_stimuli/pictures/0450_fw.png	238.46467113494873	
118	121.10989284515381	picture	0		136	116.0	/experiments/knapen_AOT/AOT_stimuli/pictures/1591_fw.png	238.52974700927734	1.1595849990844727
118	122.22825288772583	response	0	j		116.0	/experiments/knapen_AOT/AOT_stimuli/pictures/1591_fw.png	239.64810705184937	
119	122.26947784423828	picture	0		92	117.0	/experiments/knapen_AOT/AOT_stimuli/pictures/0596_fw.png	239.68933200836182	0.7916760444641113
119	123.01988291740417	response	0	k		117.0	/experiments/knapen_AOT/AOT_stimuli/pictures/0596_fw.png	240.4397370815277	
120	123.06115388870239	picture	0		108	118.0	/experiments/knapen_AOT/AOT_stimuli/pictures/0013_fw.png	240.48100805282593	0.9487109184265137
120	123.95175981521606	response	0	j		118.0	/experiments/knapen_AOT/AOT_stimuli/pictures/0013_fw.png	241.3716139793396	
121	124.0098648071289	picture	0		107	119.0	/experiments/knapen_AOT/AOT_stimuli/pictures/0386_fw.png	241.42971897125244	0.9417190551757812
121	124.89337682723999	response	0	k		119.0	/experiments/knapen_AOT/AOT_stimuli/pictures/0386_fw.png	242.31323099136353	
122	124.95158386230469	picture	0		138	120.0	/experiments/knapen_AOT/AOT_stimuli/pictures/1529_fw.png	242.37143802642822	1.1999859809875488
122	126.0933678150177	response	0	k		120.0	/experiments/knapen_AOT/AOT_stimuli/pictures/1529_fw.png	243.51322197914124	
123	126.15156984329224	picture	0		88	121.0	/experiments/knapen_AOT/AOT_stimuli/pictures/0547_fw.png	243.57142400741577	0.7846529483795166
123	126.87667679786682	response	0	j		121.0	/experiments/knapen_AOT/AOT_stimuli/pictures/0547_fw.png	244.29653096199036	
124	126.93622279167175	picture	0		103	122.0	/experiments/knapen_AOT/AOT_stimuli/pictures/1614_fw.png	244.3560769557953	0.8904280662536621
124	127.78505396842957	response	0	j		122.0	/experiments/knapen_AOT/AOT_stimuli/pictures/1614_fw.png	245.2049081325531	
125	127.82665085792542	picture	0		107	123.0	/experiments/knapen_AOT/AOT_stimuli/pictures/0333_fw.png	245.24650502204895	0.9221401214599609
125	128.71003985404968	response	0	k		123.0	/experiments/knapen_AOT/AOT_stimuli/pictures/0333_fw.png	246.12989401817322	
126	128.74879097938538	picture	0		166	124.0	/experiments/knapen_AOT/AOT_stimuli/pictures/1272_fw.png	246.1686451435089	1.4374170303344727
126	130.1268129348755	response	0	k		124.0	/experiments/knapen_AOT/AOT_stimuli/pictures/1272_fw.png	247.54666709899902	
127	130.18620800971985	picture	0		116	125.0	/experiments/knapen_AOT/AOT_stimuli/pictures/1050_fw.png	247.60606217384338	1.0154709815979004
127	131.1434907913208	response	0	k		125.0	/experiments/knapen_AOT/AOT_stimuli/pictures/1050_fw.png	248.56334495544434	
128	131.20167899131775	picture	0		140	126.0	/experiments/knapen_AOT/AOT_stimuli/pictures/0184_fw.png	248.62153315544128	1.2207269668579102
128	132.36017298698425	response	0	k		126.0	/experiments/knapen_AOT/AOT_stimuli/pictures/0184_fw.png	249.7800271511078	
129	132.42240595817566	picture	0		86	127.0	/experiments/knapen_AOT/AOT_stimuli/pictures/0960_fw.png	249.8422601222992	0.7430379390716553
129	133.12679290771484	response	0	j		127.0	/experiments/knapen_AOT/AOT_stimuli/pictures/0960_fw.png	250.54664707183838	
130	133.16544389724731	picture	0		95	128.0	/experiments/knapen_AOT/AOT_stimuli/pictures/2068_fw.png	250.58529806137085	0.8278839588165283
130	133.95191192626953	response	0	j		128.0	/experiments/knapen_AOT/AOT_stimuli/pictures/2068_fw.png	251.37176609039307	
131	133.99332785606384	picture	0		90	129.0	/experiments/knapen_AOT/AOT_stimuli/pictures/1317_fw.png	251.41318202018738	0.7916769981384277
131	134.73513889312744	response	0	j		129.0	/experiments/knapen_AOT/AOT_stimuli/pictures/1317_fw.png	252.15499305725098	
132	134.78500485420227	picture	0		204	130.0	/experiments/knapen_AOT/AOT_stimuli/pictures/0125_fw.png	252.2048590183258	1.7584540843963623
132	136.47691988945007	response	0	k		130.0	/experiments/knapen_AOT/AOT_stimuli/pictures/0125_fw.png	253.8967740535736	
133	136.54345893859863	picture	0		142	131.0	/experiments/knapen_AOT/AOT_stimuli/pictures/0580_fw.png	253.96331310272217	1.2122888565063477
133	137.7185778617859	response	0	k		131.0	/experiments/knapen_AOT/AOT_stimuli/pictures/0580_fw.png	255.13843202590942	
134	137.75574779510498	picture	0		122	132.0	/experiments/knapen_AOT/AOT_stimuli/pictures/0451_fw.png	255.17560195922852	1.0347001552581787
134	138.7602298259735	response	0	j		132.0	/experiments/knapen_AOT/AOT_stimuli/pictures/0451_fw.png	256.18008399009705	
135	138.79044795036316	picture	0		80	133.0	/experiments/knapen_AOT/AOT_stimuli/pictures/1574_fw.png	256.2103021144867	0.7029929161071777
135	139.45199179649353	response	0	k		133.0	/experiments/knapen_AOT/AOT_stimuli/pictures/1574_fw.png	256.87184596061707	
136	139.49344086647034	picture	0		90	134.0	/experiments/knapen_AOT/AOT_stimuli/pictures/1900_fw.png	256.9132950305939	0.7916419506072998
136	140.22853899002075	response	0	j		134.0	/experiments/knapen_AOT/AOT_stimuli/pictures/1900_fw.png	257.6483931541443	
137	140.28508281707764	picture	0		88	135.0	/experiments/knapen_AOT/AOT_stimuli/pictures/0351_fw.png	257.7049369812012	0.7833280563354492
137	141.00341892242432	response	0	k		135.0	/experiments/knapen_AOT/AOT_stimuli/pictures/0351_fw.png	258.42327308654785	
138	141.0684108734131	picture	0		119	136.0	/experiments/knapen_AOT/AOT_stimuli/pictures/0400_fw.png	258.4882650375366	1.0416679382324219
138	142.05191683769226	response	0	j		136.0	/experiments/knapen_AOT/AOT_stimuli/pictures/0400_fw.png	259.4717710018158	
139	142.1100788116455	picture	0		147	137.0	/experiments/knapen_AOT/AOT_stimuli/pictures/1379_fw.png	259.52993297576904	1.2500121593475342
139	143.32694578170776	response	0	k		137.0	/experiments/knapen_AOT/AOT_stimuli/pictures/1379_fw.png	260.7467999458313	
140	143.36009097099304	picture	0		93	138.0	/experiments/knapen_AOT/AOT_stimuli/pictures/0751_fw.png	260.7799451351166	0.8333358764648438
140	144.1603479385376	response	0	j		138.0	/experiments/knapen_AOT/AOT_stimuli/pictures/0751_fw.png	261.58020210266113	
141	144.19342684745789	picture	0		191	139.0	/experiments/knapen_AOT/AOT_stimuli/pictures/1524_fw.png	261.6132810115814	1.6417591571807861
141	145.77694392204285	response	0	j		139.0	/experiments/knapen_AOT/AOT_stimuli/pictures/1524_fw.png	263.1967980861664	
142	145.83518600463867	picture	0		140	140.0	/experiments/knapen_AOT/AOT_stimuli/pictures/1471_fw.png	263.2550401687622	1.2262699604034424
142	146.99375891685486	response	0	k		140.0	/experiments/knapen_AOT/AOT_stimuli/pictures/1471_fw.png	264.4136130809784	
143	147.06145596504211	picture	0		97	141.0	/experiments/knapen_AOT/AOT_stimuli/pictures/0927_fw.png	264.48131012916565	0.8403739929199219
143	147.86031985282898	response	0	j		141.0	/experiments/knapen_AOT/AOT_stimuli/pictures/0927_fw.png	265.2801740169525	
144	147.90182995796204	picture	0		147	142.0	/experiments/knapen_AOT/AOT_stimuli/pictures/0194_fw.png	265.32168412208557	1.2585020065307617
144	149.1188099384308	response	0	j		142.0	/experiments/knapen_AOT/AOT_stimuli/pictures/0194_fw.png	266.5386641025543	
145	149.1603319644928	picture	0		90	143.0	/experiments/knapen_AOT/AOT_stimuli/pictures/0519_fw.png	266.58018612861633	0.8107988834381104
145	149.9019877910614	response	0	j		143.0	/experiments/knapen_AOT/AOT_stimuli/pictures/0519_fw.png	267.32184195518494	
146	149.9711308479309	picture	0		97	144.0	/experiments/knapen_AOT/AOT_stimuli/pictures/0374_fw.png	267.39098501205444	0.8557569980621338
146	150.76871991157532	response	0	j		144.0	/experiments/knapen_AOT/AOT_stimuli/pictures/0374_fw.png	268.18857407569885	
147	150.82688784599304	picture	0		185	145.0	/experiments/knapen_AOT/AOT_stimuli/pictures/1957_fw.png	268.2467420101166	1.6000080108642578
147	152.36054587364197	response	0	j		145.0	/experiments/knapen_AOT/AOT_stimuli/pictures/1957_fw.png	269.7804000377655	
148	152.4268958568573	picture	0		140	146.0	/experiments/knapen_AOT/AOT_stimuli/pictures/1453_fw.png	269.84675002098083	1.2000370025634766
148	153.5853979587555	response	0	k		146.0	/experiments/knapen_AOT/AOT_stimuli/pictures/1453_fw.png	271.005252122879	
149	153.62693285942078	picture	0		95	147.0	/experiments/knapen_AOT/AOT_stimuli/pictures/0315_fw.png	271.0467870235443	0.8250229358673096
149	154.4035768508911	response	0	j		147.0	/experiments/knapen_AOT/AOT_stimuli/pictures/0315_fw.png	271.82343101501465	
150	154.4519557952881	picture	0		98	148.0	/experiments/knapen_AOT/AOT_stimuli/pictures/1217_fw.png	271.8718099594116	0.8749871253967285
150	155.2604329586029	response	0	j		148.0	/experiments/knapen_AOT/AOT_stimuli/pictures/1217_fw.png	272.68028712272644	
151	155.32694292068481	picture	0		138	149.0	/experiments/knapen_AOT/AOT_stimuli/pictures/0806_fw.png	272.74679708480835	1.2084860801696777
151	156.4687738418579	response	0	k		149.0	/experiments/knapen_AOT/AOT_stimuli/pictures/0806_fw.png	273.88862800598145	
152	156.5354290008545	picture	0		103	150.0	/experiments/knapen_AOT/AOT_stimuli/pictures/0272_fw.png	273.955283164978	0.908214807510376
152	157.38544392585754	response	0	k		150.0	/experiments/knapen_AOT/AOT_stimuli/pictures/0272_fw.png	274.8052980899811	
153	157.44364380836487	picture	0		103	151.0	/experiments/knapen_AOT/AOT_stimuli/pictures/0875_fw.png	274.8634979724884	0.8916511535644531
153	158.29380083084106	response	0	j		151.0	/experiments/knapen_AOT/AOT_stimuli/pictures/0875_fw.png	275.7136549949646	
154	158.33529496192932	picture	0		103	152.0	/experiments/knapen_AOT/AOT_stimuli/pictures/0614_fw.png	275.75514912605286	0.8917028903961182
154	159.1855809688568	response	0	j		152.0	/experiments/knapen_AOT/AOT_stimuli/pictures/0614_fw.png	276.60543513298035	
155	159.22699785232544	picture	0		97	153.0	/experiments/knapen_AOT/AOT_stimuli/pictures/1340_fw.png	276.646852016449	0.8345339298248291
155	160.02711391448975	response	0	j		153.0	/experiments/knapen_AOT/AOT_stimuli/pictures/1340_fw.png	277.4469680786133	
156	160.06153178215027	picture	0		101	154.0	/experiments/knapen_AOT/AOT_stimuli/pictures/2028_fw.png	277.4813859462738	0.890484094619751
156	160.8938889503479	response	0	k		154.0	/experiments/knapen_AOT/AOT_stimuli/pictures/2028_fw.png	278.31374311447144	
157	160.95201587677002	picture	0		110	155.0	/experiments/knapen_AOT/AOT_stimuli/pictures/2006_fw.png	278.37187004089355	0.9776110649108887
157	161.8604998588562	response	0	k		155.0	/experiments/knapen_AOT/AOT_stimuli/pictures/2006_fw.png	279.28035402297974	
158	161.9296269416809	picture	0		162	156.0	/experiments/knapen_AOT/AOT_stimuli/pictures/0280_fw.png	279.34948110580444	1.3749449253082275
158	163.26892495155334	response	0	k		156.0	/experiments/knapen_AOT/AOT_stimuli/pictures/0280_fw.png	280.6887791156769	
159	163.30457186698914	picture	0		249	157.0	/experiments/knapen_AOT/AOT_stimuli/pictures/2072_fw.png	280.72442603111267	2.130903959274292
159	165.36897087097168	response	0	j		157.0	/experiments/knapen_AOT/AOT_stimuli/pictures/2072_fw.png	282.7888250350952	
160	165.43547582626343	picture	0		95	158.0	/experiments/knapen_AOT/AOT_stimuli/pictures/1968_fw.png	282.85532999038696	0.8344230651855469
160	166.21890091896057	response	0	j		158.0	/experiments/knapen_AOT/AOT_stimuli/pictures/1968_fw.png	283.6387550830841	
161	166.26989889144897	picture	0		141	159.0	/experiments/knapen_AOT/AOT_stimuli/pictures/0136_fw.png	283.6897530555725	1.2239971160888672
161	167.43559980392456	response	0	j		159.0	/experiments/knapen_AOT/AOT_stimuli/pictures/0136_fw.png	284.8554539680481	
162	167.49389600753784	picture	0		119	160.0	/experiments/knapen_AOT/AOT_stimuli/pictures/1554_fw.png	284.9137501716614	1.0249137878417969
162	168.47734189033508	response	0	k		160.0	/experiments/knapen_AOT/AOT_stimuli/pictures/1554_fw.png	285.8971960544586	
163	168.51880979537964	picture	0		88	161.0	/experiments/knapen_AOT/AOT_stimuli/pictures/0838_fw.png	285.9386639595032	0.7582910060882568
163	169.24398589134216	response	0	j		161.0	/experiments/knapen_AOT/AOT_stimuli/pictures/0838_fw.png	286.6638400554657	
164	169.2771008014679	picture	0		101	162.0	/experiments/knapen_AOT/AOT_stimuli/pictures/0602_fw.png	286.69695496559143	0.9025130271911621
164	170.1106197834015	response	0	k		162.0	/experiments/knapen_AOT/AOT_stimuli/pictures/0602_fw.png	287.530473947525	
165	170.17961382865906	picture	0		136	163.0	/experiments/knapen_AOT/AOT_stimuli/pictures/1606_fw.png	287.5994679927826	1.1808640956878662
165	171.30227899551392	response	0	k		163.0	/experiments/knapen_AOT/AOT_stimuli/pictures/1606_fw.png	288.72213315963745	
166	171.36047792434692	picture	0		109	164.0	/experiments/knapen_AOT/AOT_stimuli/pictures/1120_fw.png	288.78033208847046	0.958327054977417
166	172.2606258392334	response	0	k		164.0	/experiments/knapen_AOT/AOT_stimuli/pictures/1120_fw.png	289.68048000335693	
167	172.31880497932434	picture	0		96	165.0	/experiments/knapen_AOT/AOT_stimuli/pictures/1369_fw.png	289.7386591434479	0.8417749404907227
167	173.11067485809326	response	0	j		165.0	/experiments/knapen_AOT/AOT_stimuli/pictures/1369_fw.png	290.5305290222168	
168	173.16057991981506	picture	0		103	166.0	/experiments/knapen_AOT/AOT_stimuli/pictures/0828_fw.png	290.5804340839386	0.8917050361633301
168	174.01066780090332	response	0	j		166.0	/experiments/knapen_AOT/AOT_stimuli/pictures/0828_fw.png	291.43052196502686	
169	174.0522849559784	picture	0		100	167.0	/experiments/knapen_AOT/AOT_stimuli/pictures/2033_fw.png	291.47213912010193	0.8833019733428955
169	174.87734293937683	response	0	k		167.0	/experiments/knapen_AOT/AOT_stimuli/pictures/2033_fw.png	292.29719710350037	
170	174.9355869293213	picture	0		203	168.0	/experiments/knapen_AOT/AOT_stimuli/pictures/0829_fw.png	292.3554410934448	1.7439839839935303
170	176.61911177635193	response	0	k		168.0	/experiments/knapen_AOT/AOT_stimuli/pictures/0829_fw.png	294.03896594047546	
171	176.67957091331482	picture	0		102	169.0	/experiments/knapen_AOT/AOT_stimuli/pictures/0728_fw.png	294.09942507743835	0.9061100482940674
171	177.51915788650513	response	0	k		169.0	/experiments/knapen_AOT/AOT_stimuli/pictures/0728_fw.png	294.93901205062866	
172	177.5856809616089	picture	0		98	170.0	/experiments/knapen_AOT/AOT_stimuli/pictures/0153_fw.png	295.0055351257324	0.8582029342651367
172	178.3874089717865	response	0	k		170.0	/experiments/knapen_AOT/AOT_stimuli/pictures/0153_fw.png	295.80726313591003	
173	178.44388389587402	picture	0		157	171.0	/experiments/knapen_AOT/AOT_stimuli/pictures/0621_fw.png	295.86373805999756	1.3667819499969482
173	179.74409198760986	response	0	k		171.0	/experiments/knapen_AOT/AOT_stimuli/pictures/0621_fw.png	297.1639461517334	
174	179.81066584587097	picture	0		89	172.0	/experiments/knapen_AOT/AOT_stimuli/pictures/0738_fw.png	297.2305200099945	0.7916059494018555
174	180.54405093193054	response	0	j		172.0	/experiments/knapen_AOT/AOT_stimuli/pictures/0738_fw.png	297.9639050960541	
175	180.60227179527283	picture	0		98	173.0	/experiments/knapen_AOT/AOT_stimuli/pictures/0242_fw.png	298.02212595939636	0.858381986618042
175	181.41090393066406	response	0	k		173.0	/experiments/knapen_AOT/AOT_stimuli/pictures/0242_fw.png	298.8307580947876	
176	181.46065378189087	picture	0		79	174.0	/experiments/knapen_AOT/AOT_stimuli/pictures/2160_fw.png	298.8805079460144	0.7001590728759766
176	182.11074686050415	response	0	j		174.0	/experiments/knapen_AOT/AOT_stimuli/pictures/2160_fw.png	299.5306010246277	
177	182.16081285476685	picture	0		97	175.0	/experiments/knapen_AOT/AOT_stimuli/pictures/0345_fw.png	299.5806670188904	0.8749210834503174
177	182.9789879322052	response	0	j		175.0	/experiments/knapen_AOT/AOT_stimuli/pictures/0345_fw.png	300.39884209632874	
178	183.03573393821716	picture	0		120	176.0	/experiments/knapen_AOT/AOT_stimuli/pictures/1258_fw.png	300.4555881023407	1.0260300636291504
178	184.02744483947754	response	0	j		176.0	/experiments/knapen_AOT/AOT_stimuli/pictures/1258_fw.png	301.4472990036011	
179	184.0617640018463	picture	0		102	177.0	/experiments/knapen_AOT/AOT_stimuli/pictures/1819_fw.png	301.48161816596985	0.8822178840637207
179	184.90244793891907	response	0	k		177.0	/experiments/knapen_AOT/AOT_stimuli/pictures/1819_fw.png	302.3223021030426	
180	184.94398188591003	picture	0		91	178.0	/experiments/knapen_AOT/AOT_stimuli/pictures/0402_fw.png	302.36383605003357	0.7917881011962891
180	185.69413590431213	response	0	j		178.0	/experiments/knapen_AOT/AOT_stimuli/pictures/0402_fw.png	303.11399006843567	
181	185.73576998710632	picture	0		80	179.0	/experiments/knapen_AOT/AOT_stimuli/pictures/1667_fw.png	303.15562415122986	0.7166118621826172
181	186.39414477348328	response	0	k		179.0	/experiments/knapen_AOT/AOT_stimuli/pictures/1667_fw.png	303.8139989376068	
182	186.45238184928894	picture	0		94	180.0	/experiments/knapen_AOT/AOT_stimuli/pictures/0394_fw.png	303.8722360134125	0.8249790668487549
182	187.22755479812622	response	0	k		180.0	/experiments/knapen_AOT/AOT_stimuli/pictures/0394_fw.png	304.64740896224976	
183	187.2773609161377	picture	0		89	181.0	/experiments/knapen_AOT/AOT_stimuli/pictures/2142_fw.png	304.69721508026123	0.777371883392334
183	188.01084089279175	response	0	k		181.0	/experiments/knapen_AOT/AOT_stimuli/pictures/2142_fw.png	305.4306950569153	
184	188.05473279953003	picture	0		105	182.0	/experiments/knapen_AOT/AOT_stimuli/pictures/0030_fw.png	305.47458696365356	0.9027910232543945
184	188.91917490959167	response	0	k		182.0	/experiments/knapen_AOT/AOT_stimuli/pictures/0030_fw.png	306.3390290737152	
185	188.95752382278442	picture	0		110	183.0	/experiments/knapen_AOT/AOT_stimuli/pictures/1237_fw.png	306.37737798690796	0.9652700424194336
185	189.86927890777588	response	0	k		183.0	/experiments/knapen_AOT/AOT_stimuli/pictures/1237_fw.png	307.2891330718994	
186	189.92279386520386	picture	0		94	184.0	/experiments/knapen_AOT/AOT_stimuli/pictures/2020_fw.png	307.3426480293274	0.8296890258789062
186	190.69421887397766	response	0	j		184.0	/experiments/knapen_AOT/AOT_stimuli/pictures/2020_fw.png	308.1140730381012	
187	190.75248289108276	picture	0		90	185.0	/experiments/knapen_AOT/AOT_stimuli/pictures/0952_fw.png	308.1723370552063	0.8022840023040771
187	191.49431586265564	response	0	j		185.0	/experiments/knapen_AOT/AOT_stimuli/pictures/0952_fw.png	308.9141700267792	
188	191.55476689338684	picture	0		147	186.0	/experiments/knapen_AOT/AOT_stimuli/pictures/1708_fw.png	308.9746210575104	1.2500250339508057
188	192.76241087913513	response	0	k		186.0	/experiments/knapen_AOT/AOT_stimuli/pictures/1708_fw.png	310.18226504325867	
189	192.80479192733765	picture	0		85	187.0	/experiments/knapen_AOT/AOT_stimuli/pictures/1576_fw.png	310.2246460914612	0.7361400127410889
189	193.50256180763245	response	0	j		187.0	/experiments/knapen_AOT/AOT_stimuli/pictures/1576_fw.png	310.922415971756	
190	193.54093194007874	picture	0		102	188.0	/experiments/knapen_AOT/AOT_stimuli/pictures/0383_fw.png	310.96078610420227	0.8957738876342773
190	194.38593578338623	response	0	k		188.0	/experiments/knapen_AOT/AOT_stimuli/pictures/0383_fw.png	311.80578994750977	
191	194.436705827713	picture	0		128	189.0	/experiments/knapen_AOT/AOT_stimuli/pictures/1084_fw.png	311.85655999183655	1.1181001663208008
191	195.49439096450806	response	0	k		189.0	/experiments/knapen_AOT/AOT_stimuli/pictures/1084_fw.png	312.9142451286316	
192	195.5548059940338	picture	0		104	190.0	/experiments/knapen_AOT/AOT_stimuli/pictures/1198_fw.png	312.97466015815735	0.9144289493560791
192	196.41096782684326	response	0	j		190.0	/experiments/knapen_AOT/AOT_stimuli/pictures/1198_fw.png	313.8308219909668	
193	196.4692349433899	picture	0		171	191.0	/experiments/knapen_AOT/AOT_stimuli/pictures/0808_fw.png	313.8890891075134	1.4582798480987549
193	197.8860728740692	response	0	k		191.0	/experiments/knapen_AOT/AOT_stimuli/pictures/0808_fw.png	315.30592703819275	
194	197.92751479148865	picture	0		114	192.0	/experiments/knapen_AOT/AOT_stimuli/pictures/0611_fw.png	315.3473689556122	0.9833431243896484
194	198.86952185630798	response	0	k		192.0	/experiments/knapen_AOT/AOT_stimuli/pictures/0611_fw.png	316.2893760204315	
195	198.9108579158783	picture	0		98	193.0	/experiments/knapen_AOT/AOT_stimuli/pictures/0925_fw.png	316.33071208000183	0.8667280673980713
195	199.7193398475647	response	0	j		193.0	/experiments/knapen_AOT/AOT_stimuli/pictures/0925_fw.png	317.13919401168823	
196	199.77758598327637	picture	0		174	194.0	/experiments/knapen_AOT/AOT_stimuli/pictures/2113_fw.png	317.1974401473999	1.4999778270721436
196	201.2195258140564	response	0	j		194.0	/experiments/knapen_AOT/AOT_stimuli/pictures/2113_fw.png	318.63937997817993	
197	201.2775638103485	picture	0		164	195.0	/experiments/knapen_AOT/AOT_stimuli/pictures/1391_fw.png	318.69741797447205	1.3952460289001465
197	202.63606095314026	response	0	j		195.0	/experiments/knapen_AOT/AOT_stimuli/pictures/1391_fw.png	320.0559151172638	
198	202.67280983924866	picture	0		120	196.0	/experiments/knapen_AOT/AOT_stimuli/pictures/1053_fw.png	320.0926640033722	1.046510934829712
198	203.66104793548584	response	0	j		196.0	/experiments/knapen_AOT/AOT_stimuli/pictures/1053_fw.png	321.0809020996094	
199	203.71932077407837	picture	0		120	197.0	/experiments/knapen_AOT/AOT_stimuli/pictures/1628_fw.png	321.1391749382019	1.0439531803131104
199	204.71104097366333	response	0	k		197.0	/experiments/knapen_AOT/AOT_stimuli/pictures/1628_fw.png	322.13089513778687	
200	204.76327395439148	picture	0		225	198.0	/experiments/knapen_AOT/AOT_stimuli/pictures/0031_fw.png	322.183128118515	1.9310839176177979
200	206.6278247833252	response	0	j		198.0	/experiments/knapen_AOT/AOT_stimuli/pictures/0031_fw.png	324.04767894744873	
201	206.69435787200928	picture	0		184	199.0	/experiments/knapen_AOT/AOT_stimuli/pictures/0929_fw.png	324.1142120361328	1.56181001663208
201	208.21952891349792	response	0	j		199.0	/experiments/knapen_AOT/AOT_stimuli/pictures/0929_fw.png	325.63938307762146	
202	208.25616788864136	picture	0		98	200.0	/experiments/knapen_AOT/AOT_stimuli/pictures/0131_fw.png	325.6760220527649	0.8547921180725098
202	209.06114888191223	response	0	j		200.0	/experiments/knapen_AOT/AOT_stimuli/pictures/0131_fw.png	326.48100304603577	
203	209.11096000671387	picture	0		142	201.0	/experiments/knapen_AOT/AOT_stimuli/pictures/2071_fw.png	326.5308141708374	1.2250258922576904
203	210.28612995147705	response	0	j		201.0	/experiments/knapen_AOT/AOT_stimuli/pictures/2071_fw.png	327.7059841156006	
204	210.33598589897156	picture	0		101	202.0	/experiments/knapen_AOT/AOT_stimuli/pictures/0018_fw.png	327.7558400630951	0.8926239013671875
204	211.16303777694702	response	0	k		202.0	/experiments/knapen_AOT/AOT_stimuli/pictures/0018_fw.png	328.58289194107056	
205	211.22860980033875	picture	0		85	203.0	/experiments/knapen_AOT/AOT_stimuli/pictures/0300_fw.png	328.6484639644623	0.7574620246887207
205	211.92782378196716	response	0	j		203.0	/experiments/knapen_AOT/AOT_stimuli/pictures/0300_fw.png	329.3476779460907	
206	211.98607182502747	picture	0		141	204.0	/experiments/knapen_AOT/AOT_stimuli/pictures/0324_fw.png	329.405925989151	1.2285959720611572
206	213.14625477790833	response	0	j		204.0	/experiments/knapen_AOT/AOT_stimuli/pictures/0324_fw.png	330.56610894203186	
207	213.21466779708862	picture	0		159	205.0	/experiments/knapen_AOT/AOT_stimuli/pictures/0803_fw.png	330.63452196121216	1.3714661598205566
207	214.5211877822876	response	0	k		205.0	/experiments/knapen_AOT/AOT_stimuli/pictures/0803_fw.png	331.94104194641113	
208	214.58613395690918	picture	0		83	206.0	/experiments/knapen_AOT/AOT_stimuli/pictures/0465_fw.png	332.0059881210327	0.7249839305877686
208	215.26961493492126	response	0	k		206.0	/experiments/knapen_AOT/AOT_stimuli/pictures/0465_fw.png	332.6894690990448	
209	215.31111788749695	picture	0		123	207.0	/experiments/knapen_AOT/AOT_stimuli/pictures/0781_fw.png	332.7309720516205	1.077085018157959
209	216.32126784324646	response	0	k		207.0	/experiments/knapen_AOT/AOT_stimuli/pictures/0781_fw.png	333.74112200737	
210	216.3882029056549	picture	0		112	208.0	/experiments/knapen_AOT/AOT_stimuli/pictures/1253_fw.png	333.80805706977844	0.9812588691711426
210	217.31203389167786	response	0	k		208.0	/experiments/knapen_AOT/AOT_stimuli/pictures/1253_fw.png	334.7318880558014	
211	217.36946177482605	picture	0		86	209.0	/experiments/knapen_AOT/AOT_stimuli/pictures/1918_fw.png	334.7893159389496	0.750068187713623
211	218.0779948234558	response	0	j		209.0	/experiments/knapen_AOT/AOT_stimuli/pictures/1918_fw.png	335.49784898757935	
212	218.11952996253967	picture	0		103	210.0	/experiments/knapen_AOT/AOT_stimuli/pictures/0963_fw.png	335.5393841266632	0.8937389850616455
212	218.96966791152954	response	0	k		210.0	/experiments/knapen_AOT/AOT_stimuli/pictures/0963_fw.png	336.3895220756531	
213	219.01326894760132	picture	0		121	211.0	/experiments/knapen_AOT/AOT_stimuli/pictures/0151_fw.png	336.43312311172485	1.0563280582427979
213	220.01130986213684	response	0	j		211.0	/experiments/knapen_AOT/AOT_stimuli/pictures/0151_fw.png	337.4311640262604	
214	220.06959700584412	picture	0		97	212.0	/experiments/knapen_AOT/AOT_stimuli/pictures/1196_fw.png	337.48945116996765	0.8602879047393799
214	220.86977195739746	response	0	j		212.0	/experiments/knapen_AOT/AOT_stimuli/pictures/1196_fw.png	338.289626121521	
215	220.9298849105835	picture	0		149	213.0	/experiments/knapen_AOT/AOT_stimuli/pictures/0825_fw.png	338.34973907470703	1.3064239025115967
215	222.15458798408508	response	0	j		213.0	/experiments/knapen_AOT/AOT_stimuli/pictures/0825_fw.png	339.5744421482086	
216	222.2363088130951	picture	0		98	214.0	/experiments/knapen_AOT/AOT_stimuli/pictures/0025_fw.png	339.6561629772186	0.8915519714355469
216	223.0780758857727	response	0	k		214.0	/experiments/knapen_AOT/AOT_stimuli/pictures/0025_fw.png	340.49793004989624	
217	223.12786078453064	picture	0		96	215.0	/experiments/knapen_AOT/AOT_stimuli/pictures/1630_fw.png	340.5477149486542	0.8437330722808838
217	223.9198648929596	response	0	j		215.0	/experiments/knapen_AOT/AOT_stimuli/pictures/1630_fw.png	341.33971905708313	
218	223.97159385681152	picture	0		111	216.0	/experiments/knapen_AOT/AOT_stimuli/pictures/1953_fw.png	341.39144802093506	0.9731230735778809
218	224.88639879226685	response	0	j		216.0	/experiments/knapen_AOT/AOT_stimuli/pictures/1953_fw.png	342.3062529563904	
219	224.9447169303894	picture	0		147	217.0	/experiments/knapen_AOT/AOT_stimuli/pictures/1305_fw.png	342.36457109451294	1.2748219966888428
219	226.16133880615234	response	0	k		217.0	/experiments/knapen_AOT/AOT_stimuli/pictures/1305_fw.png	343.5811929702759	
220	226.21953892707825	picture	0		95	218.0	/experiments/knapen_AOT/AOT_stimuli/pictures/0159_fw.png	343.6393930912018	0.8353719711303711
220	227.00310277938843	response	0	j		218.0	/experiments/knapen_AOT/AOT_stimuli/pictures/0159_fw.png	344.42295694351196	
221	227.05491089820862	picture	0		94	219.0	/experiments/knapen_AOT/AOT_stimuli/pictures/0833_fw.png	344.47476506233215	0.8146541118621826
221	227.8280749320984	response	0	j		219.0	/experiments/knapen_AOT/AOT_stimuli/pictures/0833_fw.png	345.2479290962219	
222	227.8695650100708	picture	0		91	220.0	/experiments/knapen_AOT/AOT_stimuli/pictures/1402_fw.png	345.28941917419434	0.7918059825897217
222	228.61996483802795	response	0	j		220.0	/experiments/knapen_AOT/AOT_stimuli/pictures/1402_fw.png	346.0398190021515	
223	228.66137099266052	picture	0		128	221.0	/experiments/knapen_AOT/AOT_stimuli/pictures/0323_fw.png	346.08122515678406	1.1165409088134766
223	229.7130618095398	response	0	j		221.0	/experiments/knapen_AOT/AOT_stimuli/pictures/0323_fw.png	347.13291597366333	
224	229.777911901474	picture	0		123	222.0	/experiments/knapen_AOT/AOT_stimuli/pictures/1003_fw.png	347.19776606559753	1.0757050514221191
224	230.79489398002625	response	0	k		222.0	/experiments/knapen_AOT/AOT_stimuli/pictures/1003_fw.png	348.2147481441498	
225	230.85361695289612	picture	0		125	223.0	/experiments/knapen_AOT/AOT_stimuli/pictures/0536_fw.png	348.27347111701965	1.099329948425293
225	231.88648390769958	response	0	j		223.0	/experiments/knapen_AOT/AOT_stimuli/pictures/0536_fw.png	349.3063380718231	
226	231.9529469013214	picture	0		96	224.0	/experiments/knapen_AOT/AOT_stimuli/pictures/0711_fw.png	349.37280106544495	0.82499098777771
226	232.73803186416626	response	0	k		224.0	/experiments/knapen_AOT/AOT_stimuli/pictures/0711_fw.png	350.1578860282898	
227	232.77793788909912	picture	0		194	225.0	/experiments/knapen_AOT/AOT_stimuli/pictures/1052_fw.png	350.19779205322266	1.6450929641723633
227	234.38652300834656	response	0	k		225.0	/experiments/knapen_AOT/AOT_stimuli/pictures/1052_fw.png	351.8063771724701	
228	234.42303085327148	picture	0		133	226.0	/experiments/knapen_AOT/AOT_stimuli/pictures/1578_fw.png	351.842885017395	1.154979944229126
228	235.5130968093872	response	0	k		226.0	/experiments/knapen_AOT/AOT_stimuli/pictures/1578_fw.png	352.93295097351074	
229	235.5780107975006	picture	0		98	227.0	/experiments/knapen_AOT/AOT_stimuli/pictures/1409_fw.png	352.99786496162415	0.875042200088501
229	236.38653898239136	response	0	j		227.0	/experiments/knapen_AOT/AOT_stimuli/pictures/1409_fw.png	353.8063931465149	
230	236.4530529975891	picture	0		149	228.0	/experiments/knapen_AOT/AOT_stimuli/pictures/1978_fw.png	353.87290716171265	1.268622875213623
230	237.68709778785706	response	0	j		228.0	/experiments/knapen_AOT/AOT_stimuli/pictures/1978_fw.png	355.1069519519806	
231	237.72167587280273	picture	0		95	229.0	/experiments/knapen_AOT/AOT_stimuli/pictures/1134_fw.png	355.14153003692627	0.8264060020446777
231	238.50320196151733	response	0	j		229.0	/experiments/knapen_AOT/AOT_stimuli/pictures/1134_fw.png	355.92305612564087	
232	238.5480818748474	picture	0		98	230.0	/experiments/knapen_AOT/AOT_stimuli/pictures/1973_fw.png	355.96793603897095	0.8466739654541016
232	239.35392093658447	response	0	k		230.0	/experiments/knapen_AOT/AOT_stimuli/pictures/1973_fw.png	356.773775100708	
233	239.3947558403015	picture	0		102	231.0	/experiments/knapen_AOT/AOT_stimuli/pictures/0188_fw.png	356.81461000442505	0.9000489711761475
233	240.23656487464905	response	0	j		231.0	/experiments/knapen_AOT/AOT_stimuli/pictures/0188_fw.png	357.6564190387726	
234	240.29480481147766	picture	0		104	232.0	/experiments/knapen_AOT/AOT_stimuli/pictures/1847_fw.png	357.7146589756012	0.9130151271820068
234	241.15334486961365	response	0	j		232.0	/experiments/knapen_AOT/AOT_stimuli/pictures/1847_fw.png	358.5731990337372	
235	241.20781993865967	picture	0		99	233.0	/experiments/knapen_AOT/AOT_stimuli/pictures/0384_fw.png	358.6276741027832	0.8786368370056152
235	242.02828979492188	response	0	k		233.0	/experiments/knapen_AOT/AOT_stimuli/pictures/0384_fw.png	359.4481439590454	
236	242.08645677566528	picture	0		131	234.0	/experiments/knapen_AOT/AOT_stimuli/pictures/0405_fw.png	359.5063109397888	1.1417241096496582
236	243.16998291015625	response	0	k		234.0	/experiments/knapen_AOT/AOT_stimuli/pictures/0405_fw.png	360.5898370742798	
237	243.22818088531494	picture	0		100	235.0	/experiments/knapen_AOT/AOT_stimuli/pictures/0989_fw.png	360.6480350494385	0.8666279315948486
237	244.0534098148346	response	0	k		235.0	/experiments/knapen_AOT/AOT_stimuli/pictures/0989_fw.png	361.47326397895813	
238	244.0948088169098	picture	0		95	236.0	/experiments/knapen_AOT/AOT_stimuli/pictures/1762_fw.png	361.5146629810333	0.8416521549224854
238	244.8783619403839	response	0	j		236.0	/experiments/knapen_AOT/AOT_stimuli/pictures/1762_fw.png	362.29821610450745	
239	244.93646097183228	picture	0		83	237.0	/experiments/knapen_AOT/AOT_stimuli/pictures/0610_fw.png	362.3563151359558	0.7250518798828125
239	245.62009000778198	response	0	k		237.0	/experiments/knapen_AOT/AOT_stimuli/pictures/0610_fw.png	363.0399441719055	
240	245.6615128517151	picture	0		114	238.0	/experiments/knapen_AOT/AOT_stimuli/pictures/0006_fw.png	363.0813670158386	0.9833071231842041
240	246.60393500328064	response	0	k		238.0	/experiments/knapen_AOT/AOT_stimuli/pictures/0006_fw.png	364.0237891674042	
241	246.6448199748993	picture	0		119	239.0	/experiments/knapen_AOT/AOT_stimuli/pictures/1201_fw.png	364.0646741390228	1.0250139236450195
241	247.62843298912048	response	0	k		239.0	/experiments/knapen_AOT/AOT_stimuli/pictures/1201_fw.png	365.048287153244	
242	247.6698338985443	picture	0		95	240.0	/experiments/knapen_AOT/AOT_stimuli/pictures/0598_fw.png	365.08968806266785	0.8334240913391113
242	248.45346689224243	response	0	j		240.0	/experiments/knapen_AOT/AOT_stimuli/pictures/0598_fw.png	365.87332105636597	
243	248.50325798988342	picture	0		134	241.0	/experiments/knapen_AOT/AOT_stimuli/pictures/1660_fw.png	365.92311215400696	1.1499159336090088
243	249.6116828918457	response	0	k		241.0	/experiments/knapen_AOT/AOT_stimuli/pictures/1660_fw.png	367.03153705596924	
244	249.65317392349243	picture	0		104	242.0	/experiments/knapen_AOT/AOT_stimuli/pictures/0019_fw.png	367.07302808761597	1.0584239959716797
244	250.50503182411194	response	0	k		242.0	/experiments/knapen_AOT/AOT_stimuli/pictures/0019_fw.png	367.9248859882355	
245	250.7115979194641	picture	0		85	243.0	/experiments/knapen_AOT/AOT_stimuli/pictures/2097_fw.png	368.13145208358765	0.7749459743499756
245	251.41170287132263	response	0	j		243.0	/experiments/knapen_AOT/AOT_stimuli/pictures/2097_fw.png	368.83155703544617	
246	251.4865438938141	picture	0		88	244.0	/experiments/knapen_AOT/AOT_stimuli/pictures/0057_fw.png	368.9063980579376	0.7750339508056641
246	252.21171283721924	response	0	k		244.0	/experiments/knapen_AOT/AOT_stimuli/pictures/0057_fw.png	369.6315670013428	
247	252.26157784461975	picture	0		90	245.0	/experiments/knapen_AOT/AOT_stimuli/pictures/0491_fw.png	369.6814320087433	0.7833380699157715
247	253.00353598594666	response	0	j		245.0	/experiments/knapen_AOT/AOT_stimuli/pictures/0491_fw.png	370.4233901500702	
248	253.04491591453552	picture	0		98	246.0	/experiments/knapen_AOT/AOT_stimuli/pictures/0857_fw.png	370.46477007865906	0.8499798774719238
248	253.85396695137024	response	0	j		246.0	/experiments/knapen_AOT/AOT_stimuli/pictures/0857_fw.png	371.2738211154938	
249	253.89489579200745	picture	0		100	247.0	/experiments/knapen_AOT/AOT_stimuli/pictures/1552_fw.png	371.314749956131	0.8964271545410156
249	254.7202467918396	response	0	k		247.0	/experiments/knapen_AOT/AOT_stimuli/pictures/1552_fw.png	372.14010095596313	
250	254.79132294654846	picture	0		199	248.0	/experiments/knapen_AOT/AOT_stimuli/pictures/1542_fw.png	372.211177110672	1.7083048820495605
250	256.44510984420776	response	0	k		248.0	/experiments/knapen_AOT/AOT_stimuli/pictures/1542_fw.png	373.8649640083313	
251	256.499627828598	picture	0		94	249.0	/experiments/knapen_AOT/AOT_stimuli/pictures/0416_fw.png	373.91948199272156	0.8369970321655273
251	257.2722578048706	response	0	j		249.0	/experiments/knapen_AOT/AOT_stimuli/pictures/0416_fw.png	374.69211196899414	
252	257.33662486076355	picture	0		132	250.0	/experiments/knapen_AOT/AOT_stimuli/pictures/0247_fw.png	374.7564790248871	1.133336067199707
252	258.4286549091339	response	0	j		250.0	/experiments/knapen_AOT/AOT_stimuli/pictures/0247_fw.png	375.84850907325745	
253	258.46996092796326	picture	0		121	251.0	/experiments/knapen_AOT/AOT_stimuli/pictures/1020_fw.png	375.8898150920868	1.0416789054870605
253	259.47016286849976	response	0	j		251.0	/experiments/knapen_AOT/AOT_stimuli/pictures/1020_fw.png	376.8900170326233	
254	259.5116398334503	picture	0		149	252.0	/experiments/knapen_AOT/AOT_stimuli/pictures/1227_fw.png	376.93149399757385	1.3000259399414062
254	260.7451858520508	response	0	j		252.0	/experiments/knapen_AOT/AOT_stimuli/pictures/1227_fw.png	378.1650400161743	
255	260.8116657733917	picture	0		96	253.0	/experiments/knapen_AOT/AOT_stimuli/pictures/1778_fw.png	378.23151993751526	0.8754971027374268
255	261.6286268234253	response	0	j		253.0	/experiments/knapen_AOT/AOT_stimuli/pictures/1778_fw.png	379.0484809875488	
256	261.68716287612915	picture	0		111	254.0	/experiments/knapen_AOT/AOT_stimuli/pictures/2077_fw.png	379.1070170402527	0.9584300518035889
256	262.6039969921112	response	0	k		254.0	/experiments/knapen_AOT/AOT_stimuli/pictures/2077_fw.png	380.02385115623474	
257	262.64559292793274	picture	0		93	255.0	/experiments/knapen_AOT/AOT_stimuli/pictures/1214_fw.png	380.0654470920563	0.8161230087280273
257	263.4119338989258	response	0	j		255.0	/experiments/knapen_AOT/AOT_stimuli/pictures/1214_fw.png	380.8317880630493	
258	263.46171593666077	picture	0		173	256.0	/experiments/knapen_AOT/AOT_stimuli/pictures/0129_fw.png	380.8815701007843	1.4916648864746094
258	264.8884379863739	response	0	k		256.0	/experiments/knapen_AOT/AOT_stimuli/pictures/0129_fw.png	382.30829215049744	
259	264.9533808231354	picture	0		94	257.0	/experiments/knapen_AOT/AOT_stimuli/pictures/0399_fw.png	382.3732349872589	0.8417580127716064
259	265.7289888858795	response	0	j		257.0	/experiments/knapen_AOT/AOT_stimuli/pictures/0399_fw.png	383.14884305000305	
260	265.795138835907	picture	0		101	258.0	/experiments/knapen_AOT/AOT_stimuli/pictures/0932_fw.png	383.2149930000305	0.8999800682067871
260	266.62870383262634	response	0	j		258.0	/experiments/knapen_AOT/AOT_stimuli/pictures/0932_fw.png	384.0485579967499	
261	266.69511890411377	picture	0		111	259.0	/experiments/knapen_AOT/AOT_stimuli/pictures/0209_fw.png	384.1149730682373	0.9365279674530029
261	267.6119430065155	response	0	k		259.0	/experiments/knapen_AOT/AOT_stimuli/pictures/0209_fw.png	385.03179717063904	
262	267.6316468715668	picture	0		161	260.0	/experiments/knapen_AOT/AOT_stimuli/pictures/1393_fw.png	385.0515010356903	1.3680500984191895
262	268.96201181411743	response	0	j		260.0	/experiments/knapen_AOT/AOT_stimuli/pictures/1393_fw.png	386.38186597824097	
263	268.99969696998596	picture	0		106	261.0	/experiments/knapen_AOT/AOT_stimuli/pictures/0375_fw.png	386.4195511341095	0.923616886138916
263	269.87043595314026	response	0	j		261.0	/experiments/knapen_AOT/AOT_stimuli/pictures/0375_fw.png	387.2902901172638	
264	269.9233138561249	picture	0		92	262.0	/experiments/knapen_AOT/AOT_stimuli/pictures/1436_fw.png	387.3431680202484	0.7986059188842773
264	270.67195892333984	response	0	k		262.0	/experiments/knapen_AOT/AOT_stimuli/pictures/1436_fw.png	388.0918130874634	
265	270.72191977500916	picture	0		90	263.0	/experiments/knapen_AOT/AOT_stimuli/pictures/1149_fw.png	388.1417739391327	0.8065810203552246
265	271.46203088760376	response	0	k		263.0	/experiments/knapen_AOT/AOT_stimuli/pictures/1149_fw.png	388.8818850517273	
266	271.5285007953644	picture	0		90	264.0	/experiments/knapen_AOT/AOT_stimuli/pictures/1887_fw.png	388.9483549594879	0.8114972114562988
266	272.2708098888397	response	0	k		264.0	/experiments/knapen_AOT/AOT_stimuli/pictures/1887_fw.png	389.69066405296326	
267	272.3399980068207	picture	0		145	265.0	/experiments/knapen_AOT/AOT_stimuli/pictures/0268_fw.png	389.7598521709442	1.238515853881836
267	273.537015914917	response	0	j		265.0	/experiments/knapen_AOT/AOT_stimuli/pictures/0268_fw.png	390.9568700790405	
268	273.5785138607025	picture	0		100	266.0	/experiments/knapen_AOT/AOT_stimuli/pictures/0225_fw.png	390.99836802482605	0.8726110458374023
268	274.4038279056549	response	0	k		266.0	/experiments/knapen_AOT/AOT_stimuli/pictures/0225_fw.png	391.82368206977844	
269	274.4511249065399	picture	0		110	267.0	/experiments/knapen_AOT/AOT_stimuli/pictures/1035_fw.png	391.87097907066345	0.9722321033477783
269	275.36205792427063	response	0	j		267.0	/experiments/knapen_AOT/AOT_stimuli/pictures/1035_fw.png	392.78191208839417	
270	275.4233570098877	picture	0		166	268.0	/experiments/knapen_AOT/AOT_stimuli/pictures/2162_fw.png	392.84321117401123	1.430201768875122
270	276.7955138683319	response	0	k		268.0	/experiments/knapen_AOT/AOT_stimuli/pictures/2162_fw.png	394.21536803245544	
271	276.8535587787628	picture	0		91	269.0	/experiments/knapen_AOT/AOT_stimuli/pictures/0282_fw.png	394.27341294288635	0.7851772308349609
271	277.6040699481964	response	0	j		269.0	/experiments/knapen_AOT/AOT_stimuli/pictures/0282_fw.png	395.02392411231995	
272	277.6387360095978	picture	0		91	270.0	/experiments/knapen_AOT/AOT_stimuli/pictures/0096_fw.png	395.0585901737213	0.7846479415893555
272	278.38707399368286	response	0	k		270.0	/experiments/knapen_AOT/AOT_stimuli/pictures/0096_fw.png	395.8069281578064	
273	278.42338395118713	picture	0		90	271.0	/experiments/knapen_AOT/AOT_stimuli/pictures/1280_fw.png	395.84323811531067	0.7778739929199219
273	279.1621608734131	response	0	k		271.0	/experiments/knapen_AOT/AOT_stimuli/pictures/1280_fw.png	396.5820150375366	
274	279.20125794410706	picture	0		85	272.0	/experiments/knapen_AOT/AOT_stimuli/pictures/0874_fw.png	396.6211121082306	0.7690529823303223
274	279.90373396873474	response	0	j		272.0	/experiments/knapen_AOT/AOT_stimuli/pictures/0874_fw.png	397.3235881328583	
275	279.9703109264374	picture	0		120	273.0	/experiments/knapen_AOT/AOT_stimuli/pictures/0847_fw.png	397.3901650905609	1.0503828525543213
275	280.96206879615784	response	0	j		273.0	/experiments/knapen_AOT/AOT_stimuli/pictures/0847_fw.png	398.3819229602814	
276	281.0206937789917	picture	0		104	274.0	/experiments/knapen_AOT/AOT_stimuli/pictures/0344_fw.png	398.44054794311523	0.9166290760040283
276	281.87215399742126	response	0	j		274.0	/experiments/knapen_AOT/AOT_stimuli/pictures/0344_fw.png	399.2920081615448	
277	281.9373228549957	picture	0		155	275.0	/experiments/knapen_AOT/AOT_stimuli/pictures/0059_fw.png	399.35717701911926	1.341318130493164
277	283.22055196762085	response	0	j		275.0	/experiments/knapen_AOT/AOT_stimuli/pictures/0059_fw.png	400.6404061317444	
278	283.2786409854889	picture	0		129	276.0	/experiments/knapen_AOT/AOT_stimuli/pictures/0427_fw.png	400.6984951496124	1.1083519458770752
278	284.3455808162689	response	0	k		276.0	/experiments/knapen_AOT/AOT_stimuli/pictures/0427_fw.png	401.76543498039246	
279	284.38699293136597	picture	0		94	277.0	/experiments/knapen_AOT/AOT_stimuli/pictures/1799_fw.png	401.8068470954895	0.8333699703216553
279	285.16214179992676	response	0	k		277.0	/experiments/knapen_AOT/AOT_stimuli/pictures/1799_fw.png	402.5819959640503	
280	285.2203629016876	picture	0		90	278.0	/experiments/knapen_AOT/AOT_stimuli/pictures/1123_fw.png	402.64021706581116	0.800299882888794
280	285.9622278213501	response	0	k		278.0	/experiments/knapen_AOT/AOT_stimuli/pictures/1123_fw.png	403.38208198547363	
281	286.0206627845764	picture	0		165	279.0	/experiments/knapen_AOT/AOT_stimuli/pictures/0321_fw.png	403.44051694869995	1.4247221946716309
281	287.38722681999207	response	0	j		279.0	/experiments/knapen_AOT/AOT_stimuli/pictures/0321_fw.png	404.8070809841156	
282	287.44538497924805	picture	0		142	280.0	/experiments/knapen_AOT/AOT_stimuli/pictures/1300_fw.png	404.8652391433716	1.2281239032745361
282	288.6206319332123	response	0	k		280.0	/experiments/knapen_AOT/AOT_stimuli/pictures/1300_fw.png	406.0404860973358	
283	288.6735088825226	picture	0		118	281.0	/experiments/knapen_AOT/AOT_stimuli/pictures/0775_fw.png	406.0933630466461	1.0346860885620117
283	289.6458218097687	response	0	j		281.0	/experiments/knapen_AOT/AOT_stimuli/pictures/0775_fw.png	407.0656759738922	
284	289.7081949710846	picture	0		130	282.0	/experiments/knapen_AOT/AOT_stimuli/pictures/1899_fw.png	407.12804913520813	1.1319680213928223
284	290.7790207862854	response	0	j		282.0	/experiments/knapen_AOT/AOT_stimuli/pictures/1899_fw.png	408.19887495040894	
285	290.8401629924774	picture	0		92	283.0	/experiments/knapen_AOT/AOT_stimuli/pictures/0950_fw.png	408.26001715660095	0.8136088848114014
285	291.59570598602295	response	0	j		283.0	/experiments/knapen_AOT/AOT_stimuli/pictures/0950_fw.png	409.0155601501465	
286	291.6537718772888	picture	0		87	284.0	/experiments/knapen_AOT/AOT_stimuli/pictures/1733_fw.png	409.07362604141235	0.7666599750518799
286	292.370698928833	response	0	k		284.0	/experiments/knapen_AOT/AOT_stimuli/pictures/1733_fw.png	409.79055309295654	
287	292.4204318523407	picture	0		105	285.0	/experiments/knapen_AOT/AOT_stimuli/pictures/1967_fw.png	409.84028601646423	0.9083659648895264
287	293.28053879737854	response	0	k		285.0	/experiments/knapen_AOT/AOT_stimuli/pictures/1967_fw.png	410.7003929615021	
288	293.3287978172302	picture	0		92	286.0	/experiments/knapen_AOT/AOT_stimuli/pictures/0814_fw.png	410.74865198135376	0.8001031875610352
288	294.08059000968933	response	0	j		286.0	/experiments/knapen_AOT/AOT_stimuli/pictures/0814_fw.png	411.50044417381287	
289	294.12890100479126	picture	0		125	287.0	/experiments/knapen_AOT/AOT_stimuli/pictures/1855_fw.png	411.5487551689148	1.0932409763336182
289	295.16233682632446	response	0	k		287.0	/experiments/knapen_AOT/AOT_stimuli/pictures/1855_fw.png	412.582190990448	
290	295.2221419811249	picture	0		262	288.0	/experiments/knapen_AOT/AOT_stimuli/pictures/0370_fw.png	412.6419961452484	2.24000883102417
290	297.39591693878174	response	0	k		288.0	/experiments/knapen_AOT/AOT_stimuli/pictures/0370_fw.png	414.8157711029053	
291	297.46215081214905	picture	0		91	289.0	/experiments/knapen_AOT/AOT_stimuli/pictures/1818_fw.png	414.8820049762726	0.7916731834411621
291	298.21244287490845	response	0	j		289.0	/experiments/knapen_AOT/AOT_stimuli/pictures/1818_fw.png	415.632297039032	
292	298.2538239955902	picture	0		114	290.0	/experiments/knapen_AOT/AOT_stimuli/pictures/2091_fw.png	415.67367815971375	1.0500378608703613
292	299.1957759857178	response	0	k		290.0	/experiments/knapen_AOT/AOT_stimuli/pictures/2091_fw.png	416.6156301498413	
293	299.30386185646057	picture	0		93	291.0	/experiments/knapen_AOT/AOT_stimuli/pictures/1434_fw.png	416.7237160205841	0.8419201374053955
293	300.0873279571533	response	0	k		291.0	/experiments/knapen_AOT/AOT_stimuli/pictures/1434_fw.png	417.50718212127686	
294	300.14578199386597	picture	0		117	292.0	/experiments/knapen_AOT/AOT_stimuli/pictures/0145_fw.png	417.5656361579895	1.0347528457641602
294	301.1123688220978	response	0	k		292.0	/experiments/knapen_AOT/AOT_stimuli/pictures/0145_fw.png	418.5322229862213	
295	301.1805348396301	picture	0		98	293.0	/experiments/knapen_AOT/AOT_stimuli/pictures/0681_fw.png	418.60038900375366	0.8680591583251953
295	301.9874458312988	response	0	j		293.0	/experiments/knapen_AOT/AOT_stimuli/pictures/0681_fw.png	419.40729999542236	
296	302.0485939979553	picture	0		105	294.0	/experiments/knapen_AOT/AOT_stimuli/pictures/0585_fw.png	419.46844816207886	0.8970069885253906
296	302.91238594055176	response	0	j		294.0	/experiments/knapen_AOT/AOT_stimuli/pictures/0585_fw.png	420.3322401046753	
297	302.9456009864807	picture	0		104	295.0	/experiments/knapen_AOT/AOT_stimuli/pictures/1883_fw.png	420.36545515060425	0.8946809768676758
297	303.80422496795654	response	0	k		295.0	/experiments/knapen_AOT/AOT_stimuli/pictures/1883_fw.png	421.2240791320801	
298	303.8402819633484	picture	0		90	296.0	/experiments/knapen_AOT/AOT_stimuli/pictures/0872_fw.png	421.2601361274719	0.7916350364685059
298	304.5790948867798	response	0	k		296.0	/experiments/knapen_AOT/AOT_stimuli/pictures/0872_fw.png	421.9989490509033	
299	304.6319169998169	picture	0		118	297.0	/experiments/knapen_AOT/AOT_stimuli/pictures/2057_fw.png	422.05177116394043	1.0416979789733887
299	305.60427689552307	response	0	k		297.0	/experiments/knapen_AOT/AOT_stimuli/pictures/2057_fw.png	423.0241310596466	
300	305.6736149787903	picture	0		384	298.0	/experiments/knapen_AOT/AOT_stimuli/pictures/1800_fw.png	423.0934691429138	3.2303669452667236
300	308.85595297813416	response	0	k		298.0	/experiments/knapen_AOT/AOT_stimuli/pictures/1800_fw.png	426.2758071422577	
301	308.903981924057	picture	0		102	299.0	/experiments/knapen_AOT/AOT_stimuli/pictures/0537_fw.png	426.32383608818054	0.8833730220794678
301	309.7458348274231	response	0	j		299.0	/experiments/knapen_AOT/AOT_stimuli/pictures/0537_fw.png	427.16568899154663	
302	309.7873549461365	picture	0		112	300.0	/experiments/knapen_AOT/AOT_stimuli/pictures/0138_fw.png	427.20720911026	0.9750418663024902
302	310.7125618457794	response	0	k		300.0	/experiments/knapen_AOT/AOT_stimuli/pictures/0138_fw.png	428.13241600990295	
303	310.76239681243896	picture	0		92	301.0	/experiments/knapen_AOT/AOT_stimuli/pictures/0824_fw.png	428.1822509765625	0.8001301288604736
303	311.5210177898407	response	0	j		301.0	/experiments/knapen_AOT/AOT_stimuli/pictures/0824_fw.png	428.94087195396423	
304	311.56252694129944	picture	0		99	302.0	/experiments/knapen_AOT/AOT_stimuli/pictures/1311_fw.png	428.982381105423	0.866502046585083
304	312.37931180000305	response	0	k		302.0	/experiments/knapen_AOT/AOT_stimuli/pictures/1311_fw.png	429.7991659641266	
305	312.4290289878845	picture	0		98	303.0	/experiments/knapen_AOT/AOT_stimuli/pictures/0356_fw.png	429.84888315200806	0.8417019844055176
305	313.2308509349823	response	0	j		303.0	/experiments/knapen_AOT/AOT_stimuli/pictures/0356_fw.png	430.65070509910583	
306	313.27073097229004	picture	0		92	304.0	/experiments/knapen_AOT/AOT_stimuli/pictures/0426_fw.png	430.6905851364136	0.7999739646911621
306	314.02917194366455	response	0	k		304.0	/experiments/knapen_AOT/AOT_stimuli/pictures/0426_fw.png	431.4490261077881	
307	314.0707049369812	picture	0		93	305.0	/experiments/knapen_AOT/AOT_stimuli/pictures/1064_fw.png	431.49055910110474	0.8251810073852539
307	314.8308928012848	response	0	j		305.0	/experiments/knapen_AOT/AOT_stimuli/pictures/1064_fw.png	432.2507469654083	
308	314.89588594436646	picture	0		273	306.0	/experiments/knapen_AOT/AOT_stimuli/pictures/1888_fw.png	432.31574010849	2.3264310359954834
308	317.1626718044281	response	0	j		306.0	/experiments/knapen_AOT/AOT_stimuli/pictures/1888_fw.png	434.58252596855164	
309	317.22231698036194	picture	0		113	307.0	/experiments/knapen_AOT/AOT_stimuli/pictures/0733_fw.png	434.6421711444855	0.965134859085083
309	318.15437483787537	response	0	j		307.0	/experiments/knapen_AOT/AOT_stimuli/pictures/0733_fw.png	435.5742290019989	
310	318.187451839447	picture	0		129	308.0	/experiments/knapen_AOT/AOT_stimuli/pictures/1037_fw.png	435.60730600357056	1.1083459854125977
310	319.2475459575653	response	0	j		308.0	/experiments/knapen_AOT/AOT_stimuli/pictures/1037_fw.png	436.66740012168884	
311	319.2957978248596	picture	0		88	309.0	/experiments/knapen_AOT/AOT_stimuli/pictures/1750_fw.png	436.71565198898315	0.794586181640625
311	320.02105689048767	response	0	k		309.0	/experiments/knapen_AOT/AOT_stimuli/pictures/1750_fw.png	437.4409110546112	
312	320.09038400650024	picture	0		90	310.0	/experiments/knapen_AOT/AOT_stimuli/pictures/0147_fw.png	437.5102381706238	0.7887678146362305
312	320.8224768638611	response	0	k		310.0	/experiments/knapen_AOT/AOT_stimuli/pictures/0147_fw.png	438.2423310279846	
313	320.8791518211365	picture	0		104	311.0	/experiments/knapen_AOT/AOT_stimuli/pictures/0589_fw.png	438.29900598526	0.9083249568939209
313	321.73771595954895	response	0	j		311.0	/experiments/knapen_AOT/AOT_stimuli/pictures/0589_fw.png	439.1575701236725	
314	321.7874767780304	picture	0		154	312.0	/experiments/knapen_AOT/AOT_stimuli/pictures/0357_fw.png	439.20733094215393	1.3307571411132812
314	323.05579900741577	response	0	k		312.0	/experiments/knapen_AOT/AOT_stimuli/pictures/0357_fw.png	440.4756531715393	
315	323.1182339191437	picture	0		86	313.0	/experiments/knapen_AOT/AOT_stimuli/pictures/0074_fw.png	440.5380880832672	0.7707998752593994
315	323.822527885437	response	0	j		313.0	/experiments/knapen_AOT/AOT_stimuli/pictures/0074_fw.png	441.24238204956055	
316	323.8890337944031	picture	0		129	314.0	/experiments/knapen_AOT/AOT_stimuli/pictures/0740_fw.png	441.3088879585266	1.1152071952819824
316	324.95442390441895	response	0	k		314.0	/experiments/knapen_AOT/AOT_stimuli/pictures/0740_fw.png	442.3742780685425	
317	325.00424098968506	picture	0		118	315.0	/experiments/knapen_AOT/AOT_stimuli/pictures/0855_fw.png	442.4240951538086	1.0333609580993652
317	325.9794588088989	response	0	k		315.0	/experiments/knapen_AOT/AOT_stimuli/pictures/0855_fw.png	443.39931297302246	
318	326.0376019477844	picture	0		92	316.0	/experiments/knapen_AOT/AOT_stimuli/pictures/1532_fw.png	443.45745611190796	0.8167328834533691
318	326.7960388660431	response	0	k		316.0	/experiments/knapen_AOT/AOT_stimuli/pictures/1532_fw.png	444.2158930301666	
319	326.8543348312378	picture	0		229	317.0	/experiments/knapen_AOT/AOT_stimuli/pictures/1679_fw.png	444.2741889953613	1.9415991306304932
319	328.75451493263245	response	0	k		317.0	/experiments/knapen_AOT/AOT_stimuli/pictures/1679_fw.png	446.174369096756	
320	328.7959339618683	picture	0		96	318.0	/experiments/knapen_AOT/AOT_stimuli/pictures/1517_fw.png	446.2157881259918	0.8500649929046631
320	329.5878658294678	response	0	k		318.0	/experiments/knapen_AOT/AOT_stimuli/pictures/1517_fw.png	447.0077199935913	
321	329.64599895477295	picture	0		217	319.0	/experiments/knapen_AOT/AOT_stimuli/pictures/1160_fw.png	447.0658531188965	1.8612229824066162
321	331.43943977355957	response	0	k		319.0	/experiments/knapen_AOT/AOT_stimuli/pictures/1160_fw.png	448.8592939376831	
322	331.50722193717957	picture	0		144	320.0	/experiments/knapen_AOT/AOT_stimuli/pictures/0967_fw.png	448.9270761013031	1.2221899032592773
322	332.6960868835449	response	0	k		320.0	/experiments/knapen_AOT/AOT_stimuli/pictures/0967_fw.png	450.11594104766846	
323	332.72941184043884	picture	0		109	321.0	/experiments/knapen_AOT/AOT_stimuli/pictures/1506_fw.png	450.1492660045624	0.9514260292053223
323	333.62271189689636	response	0	j		321.0	/experiments/knapen_AOT/AOT_stimuli/pictures/1506_fw.png	451.0425660610199	
324	333.68083786964417	picture	0		96	322.0	/experiments/knapen_AOT/AOT_stimuli/pictures/1232_fw.png	451.1006920337677	0.8318209648132324
324	334.47111988067627	response	0	k		322.0	/experiments/knapen_AOT/AOT_stimuli/pictures/1232_fw.png	451.8909740447998	
325	334.5126588344574	picture	0		109	323.0	/experiments/knapen_AOT/AOT_stimuli/pictures/1263_fw.png	451.93251299858093	0.9667229652404785
325	335.40617990493774	response	0	k		323.0	/experiments/knapen_AOT/AOT_stimuli/pictures/1263_fw.png	452.8260340690613	
326	335.4793817996979	picture	0		100	324.0	/experiments/knapen_AOT/AOT_stimuli/pictures/0839_fw.png	452.8992359638214	0.8832950592041016
326	336.3045768737793	response	0	k		324.0	/experiments/knapen_AOT/AOT_stimuli/pictures/0839_fw.png	453.72443103790283	
327	336.362676858902	picture	0		100	325.0	/experiments/knapen_AOT/AOT_stimuli/pictures/1424_fw.png	453.7825310230255	0.9417209625244141
327	337.18797993659973	response	0	j		325.0	/experiments/knapen_AOT/AOT_stimuli/pictures/1424_fw.png	454.60783410072327	
328	337.3043978214264	picture	0		120	326.0	/experiments/knapen_AOT/AOT_stimuli/pictures/2017_fw.png	454.7242519855499	1.043107032775879
328	338.29618191719055	response	0	j		326.0	/experiments/knapen_AOT/AOT_stimuli/pictures/2017_fw.png	455.7160360813141	
329	338.34750485420227	picture	0		144	327.0	/experiments/knapen_AOT/AOT_stimuli/pictures/1687_fw.png	455.7673590183258	1.231909990310669
329	339.53801679611206	response	0	j		327.0	/experiments/knapen_AOT/AOT_stimuli/pictures/1687_fw.png	456.9578709602356	
330	339.57941484451294	picture	0		157	328.0	/experiments/knapen_AOT/AOT_stimuli/pictures/0270_fw.png	456.9992690086365	1.358436107635498
330	340.8796968460083	response	0	j		328.0	/experiments/knapen_AOT/AOT_stimuli/pictures/0270_fw.png	458.29955101013184	
331	340.93785095214844	picture	0		111	329.0	/experiments/knapen_AOT/AOT_stimuli/pictures/0700_fw.png	458.357705116272	0.9999580383300781
331	341.879656791687	response	0	k		329.0	/experiments/knapen_AOT/AOT_stimuli/pictures/0700_fw.png	459.29951095581055	
332	341.9378089904785	picture	0		76	330.0	/experiments/knapen_AOT/AOT_stimuli/pictures/1235_fw.png	459.35766315460205	0.6832859516143799
332	342.5630958080292	response	0	j		330.0	/experiments/knapen_AOT/AOT_stimuli/pictures/1235_fw.png	459.9829499721527	
333	342.6210949420929	picture	0		105	331.0	/experiments/knapen_AOT/AOT_stimuli/pictures/0684_fw.png	460.04094910621643	0.9167289733886719
333	343.4879288673401	response	0	k		331.0	/experiments/knapen_AOT/AOT_stimuli/pictures/0684_fw.png	460.9077830314636	
334	343.53782391548157	picture	0		94	332.0	/experiments/knapen_AOT/AOT_stimuli/pictures/1618_fw.png	460.9576780796051	0.8250339031219482
334	344.3130748271942	response	0	k		332.0	/experiments/knapen_AOT/AOT_stimuli/pictures/1618_fw.png	461.73292899131775	
335	344.3628578186035	picture	0		125	333.0	/experiments/knapen_AOT/AOT_stimuli/pictures/1385_fw.png	461.78271198272705	1.0916149616241455
335	345.3963530063629	response	0	k		333.0	/experiments/knapen_AOT/AOT_stimuli/pictures/1385_fw.png	462.81620717048645	
336	345.45447278022766	picture	0		128	334.0	/experiments/knapen_AOT/AOT_stimuli/pictures/0054_fw.png	462.8743269443512	1.1167070865631104
336	346.51307797431946	response	0	k		334.0	/experiments/knapen_AOT/AOT_stimuli/pictures/0054_fw.png	463.932932138443	
337	346.57117986679077	picture	0		140	335.0	/experiments/knapen_AOT/AOT_stimuli/pictures/0119_fw.png	463.9910340309143	1.1930429935455322
337	347.72977781295776	response	0	j		335.0	/experiments/knapen_AOT/AOT_stimuli/pictures/0119_fw.png	465.1496319770813	
338	347.7642228603363	picture	0		105	336.0	/experiments/knapen_AOT/AOT_stimuli/pictures/2070_fw.png	465.18407702445984	0.9069480895996094
338	348.62286591529846	response	0	j		336.0	/experiments/knapen_AOT/AOT_stimuli/pictures/2070_fw.png	466.042720079422	
339	348.6711709499359	picture	0		93	337.0	/experiments/knapen_AOT/AOT_stimuli/pictures/1569_fw.png	466.09102511405945	0.9263818264007568
339	349.4311897754669	response	0	k		337.0	/experiments/knapen_AOT/AOT_stimuli/pictures/1569_fw.png	466.85104393959045	
340	349.59755277633667	picture	0		116	338.0	/experiments/knapen_AOT/AOT_stimuli/pictures/1961_fw.png	467.0174069404602	1.0236752033233643
340	350.5548138618469	response	0	k		338.0	/experiments/knapen_AOT/AOT_stimuli/pictures/1961_fw.png	467.97466802597046	
341	350.62122797966003	picture	0		245	339.0	/experiments/knapen_AOT/AOT_stimuli/pictures/0906_fw.png	468.04108214378357	2.101346015930176
341	352.65483593940735	response	0	k		339.0	/experiments/knapen_AOT/AOT_stimuli/pictures/0906_fw.png	470.0746901035309	
342	352.7225739955902	picture	0		141	340.0	/experiments/knapen_AOT/AOT_stimuli/pictures/1655_fw.png	470.14242815971375	1.2070329189300537
342	353.88817286491394	response	0	j		340.0	/experiments/knapen_AOT/AOT_stimuli/pictures/1655_fw.png	471.3080270290375	
343	353.92960691452026	picture	0		94	341.0	/experiments/knapen_AOT/AOT_stimuli/pictures/2029_fw.png	471.3494610786438	0.834697961807251
343	354.704833984375	response	0	j		341.0	/experiments/knapen_AOT/AOT_stimuli/pictures/2029_fw.png	472.12468814849854	
344	354.7643048763275	picture	0		84	342.0	/experiments/knapen_AOT/AOT_stimuli/pictures/1716_fw.png	472.18415904045105	0.743035078048706
344	355.454824924469	response	0	k		342.0	/experiments/knapen_AOT/AOT_stimuli/pictures/1716_fw.png	472.87467908859253	
345	355.5073399543762	picture	0		91	343.0	/experiments/knapen_AOT/AOT_stimuli/pictures/0118_fw.png	472.92719411849976	0.8055558204650879
345	356.2548098564148	response	0	j		343.0	/experiments/knapen_AOT/AOT_stimuli/pictures/0118_fw.png	473.67466402053833	
346	356.3128957748413	picture	0		84	344.0	/experiments/knapen_AOT/AOT_stimuli/pictures/0012_fw.png	473.73274993896484	0.75838303565979
346	356.99812388420105	response	0	j		344.0	/experiments/knapen_AOT/AOT_stimuli/pictures/0012_fw.png	474.4179780483246	
347	357.0712788105011	picture	0		96	345.0	/experiments/knapen_AOT/AOT_stimuli/pictures/0490_fw.png	474.49113297462463	0.8334109783172607
347	357.863107919693	response	0	k		345.0	/experiments/knapen_AOT/AOT_stimuli/pictures/0490_fw.png	475.2829620838165	
348	357.90468978881836	picture	0		99	346.0	/experiments/knapen_AOT/AOT_stimuli/pictures/0880_fw.png	475.3245439529419	0.8582921028137207
348	358.7214949131012	response	0	j		346.0	/experiments/knapen_AOT/AOT_stimuli/pictures/0880_fw.png	476.14134907722473	
349	358.7629818916321	picture	0		104	347.0	/experiments/knapen_AOT/AOT_stimuli/pictures/0022_fw.png	476.1828360557556	0.899993896484375
349	359.62157797813416	response	0	k		347.0	/experiments/knapen_AOT/AOT_stimuli/pictures/0022_fw.png	477.0414321422577	
350	359.66297578811646	picture	0		122	348.0	/experiments/knapen_AOT/AOT_stimuli/pictures/1846_fw.png	477.08282995224	1.0500380992889404
350	360.6715178489685	response	0	j		348.0	/experiments/knapen_AOT/AOT_stimuli/pictures/1846_fw.png	478.09137201309204	
351	360.7130138874054	picture	0		85	349.0	/experiments/knapen_AOT/AOT_stimuli/pictures/0912_fw.png	478.13286805152893	0.8917999267578125
351	361.40644097328186	response	0	j		349.0	/experiments/knapen_AOT/AOT_stimuli/pictures/0912_fw.png	478.8262951374054	
352	361.6048138141632	picture	0		91	350.0	/experiments/knapen_AOT/AOT_stimuli/pictures/0340_fw.png	479.02466797828674	0.8053610324859619
352	362.354966878891	response	0	k		350.0	/experiments/knapen_AOT/AOT_stimuli/pictures/0340_fw.png	479.7748210430145	
353	362.41017484664917	picture	0		135	351.0	/experiments/knapen_AOT/AOT_stimuli/pictures/0391_fw.png	479.8300290107727	1.169551134109497
353	363.5299949645996	response	0	k		351.0	/experiments/knapen_AOT/AOT_stimuli/pictures/0391_fw.png	480.94984912872314	
354	363.57972598075867	picture	0		86	352.0	/experiments/knapen_AOT/AOT_stimuli/pictures/0551_fw.png	480.9995801448822	0.7666788101196289
354	364.2883517742157	response	0	k		352.0	/experiments/knapen_AOT/AOT_stimuli/pictures/0551_fw.png	481.70820593833923	
355	364.3464047908783	picture	0		145	353.0	/experiments/knapen_AOT/AOT_stimuli/pictures/0649_fw.png	481.76625895500183	1.258315086364746
355	365.54658794403076	response	0	k		353.0	/experiments/knapen_AOT/AOT_stimuli/pictures/0649_fw.png	482.9664421081543	
356	365.60471987724304	picture	0		100	354.0	/experiments/knapen_AOT/AOT_stimuli/pictures/2116_fw.png	483.0245740413666	0.8833630084991455
356	366.43001890182495	response	0	j		354.0	/experiments/knapen_AOT/AOT_stimuli/pictures/2116_fw.png	483.8498730659485	
357	366.4880828857422	picture	0		103	355.0	/experiments/knapen_AOT/AOT_stimuli/pictures/0435_fw.png	483.9079370498657	0.9167110919952393
357	367.33834195137024	response	0	j		355.0	/experiments/knapen_AOT/AOT_stimuli/pictures/0435_fw.png	484.7581961154938	
358	367.4047939777374	picture	0		115	356.0	/experiments/knapen_AOT/AOT_stimuli/pictures/0223_fw.png	484.82464814186096	0.9845719337463379
358	368.3548848628998	response	0	j		356.0	/experiments/knapen_AOT/AOT_stimuli/pictures/0223_fw.png	485.7747390270233	
359	368.38936591148376	picture	0		155	357.0	/experiments/knapen_AOT/AOT_stimuli/pictures/1869_fw.png	485.8092200756073	1.323786973953247
359	369.6715998649597	response	0	j		357.0	/experiments/knapen_AOT/AOT_stimuli/pictures/1869_fw.png	487.09145402908325	
360	369.713152885437	picture	0		79	358.0	/experiments/knapen_AOT/AOT_stimuli/pictures/1763_fw.png	487.13300704956055	0.7083039283752441
360	370.3633608818054	response	0	j		358.0	/experiments/knapen_AOT/AOT_stimuli/pictures/1763_fw.png	487.78321504592896	
361	370.42145681381226	picture	0		80	359.0	/experiments/knapen_AOT/AOT_stimuli/pictures/1926_fw.png	487.8413109779358	0.7110161781311035
361	371.0799939632416	response	0	k		359.0	/experiments/knapen_AOT/AOT_stimuli/pictures/1926_fw.png	488.4998481273651	
362	371.13247299194336	stim	0		429			488.5523271560669	3.6390538215637207
362	374.70311188697815	response	0	space				492.1229660511017	
