trial_nr	onset	event_type	phase	response	nr_frames	picture_index	picture_file	onset_abs	duration
0	0.266155481338501	stim	0		374			59.76811075210571	3.1583356857299805
0	3.3914120197296143	response	0	space				62.893367290496826	
2	3.4244911670684814	picture	0		125	0.0	/experiments/knapen_AOT/AOT_stimuli/pictures/0738_fw.png	62.92644643783569	1.0690243244171143
2	4.463762283325195	response	0	j		0.0	/experiments/knapen_AOT/AOT_stimuli/pictures/0738_fw.png	63.96571755409241	
3	4.493515491485596	picture	0		180	1.0	/experiments/knapen_AOT/AOT_stimuli/pictures/0552_fw.png	63.99547076225281	1.514366626739502
3	5.991367340087891	response	0	k		1.0	/experiments/knapen_AOT/AOT_stimuli/pictures/0552_fw.png	65.4933226108551	
4	6.007882118225098	picture	0		102	2.0	/experiments/knapen_AOT/AOT_stimuli/pictures/0758_fw.png	65.50983738899231	0.8582937717437744
4	6.8497395515441895	response	0	j		2.0	/experiments/knapen_AOT/AOT_stimuli/pictures/0758_fw.png	66.3516948223114	
5	6.866175889968872	picture	0		97	3.0	/experiments/knapen_AOT/AOT_stimuli/pictures/0777_fw.png	66.36813116073608	0.8141577243804932
5	7.666397571563721	response	0	j		3.0	/experiments/knapen_AOT/AOT_stimuli/pictures/0777_fw.png	67.16835284233093	
6	7.680333614349365	picture	0		106	4.0	/experiments/knapen_AOT/AOT_stimuli/pictures/0927_fw.png	67.18228888511658	0.8958728313446045
6	8.558091878890991	response	0	k		4.0	/experiments/knapen_AOT/AOT_stimuli/pictures/0927_fw.png	68.0600471496582	
7	8.57620644569397	picture	0		99	5.0	/experiments/knapen_AOT/AOT_stimuli/pictures/1758_fw.png	68.07816171646118	0.8316876888275146
7	9.391361713409424	response	0	j		5.0	/experiments/knapen_AOT/AOT_stimuli/pictures/1758_fw.png	68.89331698417664	
8	9.407894134521484	picture	0		99	6.0	/experiments/knapen_AOT/AOT_stimuli/pictures/1060_fw.png	68.9098494052887	0.8333218097686768
8	10.224724054336548	response	0	k		6.0	/experiments/knapen_AOT/AOT_stimuli/pictures/1060_fw.png	69.72667932510376	
9	10.241215944290161	picture	0		99	7.0	/experiments/knapen_AOT/AOT_stimuli/pictures/0519_fw.png	69.74317121505737	0.8333714008331299
9	11.058014869689941	response	0	k		7.0	/experiments/knapen_AOT/AOT_stimuli/pictures/0519_fw.png	70.55997014045715	
10	11.074587345123291	picture	0		91	8.0	/experiments/knapen_AOT/AOT_stimuli/pictures/1166_fw.png	70.5765426158905	0.7666730880737305
10	11.824758768081665	response	0	j		8.0	/experiments/knapen_AOT/AOT_stimuli/pictures/1166_fw.png	71.32671403884888	
11	11.841260433197021	picture	0		97	9.0	/experiments/knapen_AOT/AOT_stimuli/pictures/1820_fw.png	71.34321570396423	0.8166861534118652
11	12.633545875549316	response	0	k		9.0	/experiments/knapen_AOT/AOT_stimuli/pictures/1820_fw.png	72.13550114631653	
12	12.657946586608887	picture	0		113	10.0	/experiments/knapen_AOT/AOT_stimuli/pictures/0873_fw.png	72.1599018573761	0.9499797821044922
12	13.591444253921509	response	0	k		10.0	/experiments/knapen_AOT/AOT_stimuli/pictures/0873_fw.png	73.09339952468872	
13	13.607926368713379	picture	0		106	11.0	/experiments/knapen_AOT/AOT_stimuli/pictures/1015_fw.png	73.10988163948059	0.8919000625610352
13	14.483463287353516	response	0	k		11.0	/experiments/knapen_AOT/AOT_stimuli/pictures/1015_fw.png	73.98541855812073	
14	14.499826431274414	picture	0		93	12.0	/experiments/knapen_AOT/AOT_stimuli/pictures/0571_fw.png	74.00178170204163	0.7847323417663574
14	15.26648473739624	response	0	k		12.0	/experiments/knapen_AOT/AOT_stimuli/pictures/0571_fw.png	74.76844000816345	
15	15.284558773040771	picture	0		81	13.0	/experiments/knapen_AOT/AOT_stimuli/pictures/2026_fw.png	74.78651404380798	0.6817457675933838
15	15.949756145477295	response	0	j		13.0	/experiments/knapen_AOT/AOT_stimuli/pictures/2026_fw.png	75.4517114162445	
16	15.966304540634155	picture	0		88	14.0	/experiments/knapen_AOT/AOT_stimuli/pictures/1054_fw.png	75.46825981140137	0.7350051403045654
16	16.691661834716797	response	0	k		14.0	/experiments/knapen_AOT/AOT_stimuli/pictures/1054_fw.png	76.19361710548401	
17	16.70130968093872	picture	0		77	15.0	/experiments/knapen_AOT/AOT_stimuli/pictures/0352_fw.png	76.20326495170593	0.64835524559021
17	17.333240032196045	response	0	j		15.0	/experiments/knapen_AOT/AOT_stimuli/pictures/0352_fw.png	76.83519530296326	
18	17.34966492652893	picture	0		77	16.0	/experiments/knapen_AOT/AOT_stimuli/pictures/1683_fw.png	76.85162019729614	0.6501743793487549
18	17.983168125152588	response	0	j		16.0	/experiments/knapen_AOT/AOT_stimuli/pictures/1683_fw.png	77.4851233959198	
19	17.999839305877686	picture	0		85	17.0	/experiments/knapen_AOT/AOT_stimuli/pictures/0341_fw.png	77.5017945766449	0.7165272235870361
19	18.69983148574829	response	0	j		17.0	/experiments/knapen_AOT/AOT_stimuli/pictures/0341_fw.png	78.2017867565155	
20	18.71636652946472	picture	0		97	18.0	/experiments/knapen_AOT/AOT_stimuli/pictures/2104_fw.png	78.21832180023193	0.8166437149047852
20	19.516473531723022	response	0	k		18.0	/experiments/knapen_AOT/AOT_stimuli/pictures/2104_fw.png	79.01842880249023	
21	19.533010244369507	picture	0		101	19.0	/experiments/knapen_AOT/AOT_stimuli/pictures/0491_fw.png	79.03496551513672	0.8500180244445801
21	20.36651086807251	response	0	k		19.0	/experiments/knapen_AOT/AOT_stimuli/pictures/0491_fw.png	79.86846613883972	
22	20.383028268814087	picture	0		77	20.0	/experiments/knapen_AOT/AOT_stimuli/pictures/1766_fw.png	79.8849835395813	0.6499946117401123
22	21.0165913105011	response	0	j		20.0	/experiments/knapen_AOT/AOT_stimuli/pictures/1766_fw.png	80.51854658126831	
23	21.0330228805542	picture	0		82	21.0	/experiments/knapen_AOT/AOT_stimuli/pictures/0384_fw.png	80.53497815132141	0.6916871070861816
23	21.70831847190857	response	0	k		21.0	/experiments/knapen_AOT/AOT_stimuli/pictures/0384_fw.png	81.21027374267578	
24	21.72470998764038	picture	0		88	22.0	/experiments/knapen_AOT/AOT_stimuli/pictures/0258_fw.png	81.22666525840759	0.7416794300079346
24	22.449820280075073	response	0	k		22.0	/experiments/knapen_AOT/AOT_stimuli/pictures/0258_fw.png	81.95177555084229	
25	22.466389417648315	picture	0		146	23.0	/experiments/knapen_AOT/AOT_stimuli/pictures/0612_fw.png	81.96834468841553	1.225080966949463
25	23.674827098846436	response	0	k		23.0	/experiments/knapen_AOT/AOT_stimuli/pictures/0612_fw.png	83.17678236961365	
26	23.69147038459778	picture	0		111	24.0	/experiments/knapen_AOT/AOT_stimuli/pictures/0840_fw.png	83.19342565536499	0.9334239959716797
26	24.608185529708862	response	0	k		24.0	/experiments/knapen_AOT/AOT_stimuli/pictures/0840_fw.png	84.11014080047607	
27	24.624894380569458	picture	0		112	25.0	/experiments/knapen_AOT/AOT_stimuli/pictures/0815_fw.png	84.12684965133667	0.9416036605834961
27	25.549843072891235	response	0	k		25.0	/experiments/knapen_AOT/AOT_stimuli/pictures/0815_fw.png	85.05179834365845	
28	25.566498041152954	picture	0		85	26.0	/experiments/knapen_AOT/AOT_stimuli/pictures/0813_fw.png	85.06845331192017	0.7166082859039307
28	26.266578912734985	response	0	k		26.0	/experiments/knapen_AOT/AOT_stimuli/pictures/0813_fw.png	85.7685341835022	
29	26.283106327056885	picture	0		93	27.0	/experiments/knapen_AOT/AOT_stimuli/pictures/1134_fw.png	85.7850615978241	0.7834084033966064
29	27.049947500228882	response	0	k		27.0	/experiments/knapen_AOT/AOT_stimuli/pictures/1134_fw.png	86.5519027709961	
30	27.06651473045349	picture	0		81	28.0	/experiments/knapen_AOT/AOT_stimuli/pictures/0929_fw.png	86.5684700012207	0.6832664012908936
30	27.73337149620056	response	0	j		28.0	/experiments/knapen_AOT/AOT_stimuli/pictures/0929_fw.png	87.23532676696777	
31	27.749781131744385	picture	0		117	29.0	/experiments/knapen_AOT/AOT_stimuli/pictures/2006_fw.png	87.2517364025116	0.983372688293457
31	28.716580867767334	response	0	j		29.0	/experiments/knapen_AOT/AOT_stimuli/pictures/2006_fw.png	88.21853613853455	
32	28.733153820037842	picture	0		74	30.0	/experiments/knapen_AOT/AOT_stimuli/pictures/1940_fw.png	88.23510909080505	0.625023603439331
32	29.341769456863403	response	0	j		30.0	/experiments/knapen_AOT/AOT_stimuli/pictures/1940_fw.png	88.84372472763062	
33	29.358177423477173	picture	0		109	31.0	/experiments/knapen_AOT/AOT_stimuli/pictures/2171_fw.png	88.86013269424438	0.9125916957855225
33	30.258241176605225	response	0	k		31.0	/experiments/knapen_AOT/AOT_stimuli/pictures/2171_fw.png	89.76019644737244	
34	30.270769119262695	picture	0		97	32.0	/experiments/knapen_AOT/AOT_stimuli/pictures/2074_fw.png	89.77272439002991	0.8123793601989746
34	31.066598176956177	response	0	k		32.0	/experiments/knapen_AOT/AOT_stimuli/pictures/2074_fw.png	90.56855344772339	
35	31.08314847946167	picture	0		91	33.0	/experiments/knapen_AOT/AOT_stimuli/pictures/1799_fw.png	90.58510375022888	0.7666878700256348
35	31.82589054107666	response	0	k		33.0	/experiments/knapen_AOT/AOT_stimuli/pictures/1799_fw.png	91.32784581184387	
36	31.849836349487305	picture	0		96	34.0	/experiments/knapen_AOT/AOT_stimuli/pictures/0937_fw.png	91.35179162025452	0.8083004951477051
36	32.64164137840271	response	0	k		34.0	/experiments/knapen_AOT/AOT_stimuli/pictures/0937_fw.png	92.14359664916992	
37	32.65813684463501	picture	0		92	35.0	/experiments/knapen_AOT/AOT_stimuli/pictures/0497_fw.png	92.16009211540222	0.7750968933105469
37	33.41671061515808	response	0	k		35.0	/experiments/knapen_AOT/AOT_stimuli/pictures/0497_fw.png	92.9186658859253	
38	33.43323373794556	picture	0		180	36.0	/experiments/knapen_AOT/AOT_stimuli/pictures/0765_fw.png	92.93518900871277	1.5083844661712646
38	34.924962520599365	response	0	j		36.0	/experiments/knapen_AOT/AOT_stimuli/pictures/0765_fw.png	94.42691779136658	
39	34.94161820411682	picture	0		103	37.0	/experiments/knapen_AOT/AOT_stimuli/pictures/1522_fw.png	94.44357347488403	0.8666179180145264
39	35.791686058044434	response	0	j		37.0	/experiments/knapen_AOT/AOT_stimuli/pictures/1522_fw.png	95.29364132881165	
40	35.80823612213135	picture	0		78	38.0	/experiments/knapen_AOT/AOT_stimuli/pictures/0216_fw.png	95.31019139289856	0.6583271026611328
40	36.44999885559082	response	0	j		38.0	/experiments/knapen_AOT/AOT_stimuli/pictures/0216_fw.png	95.95195412635803	
41	36.46656322479248	picture	0		100	39.0	/experiments/knapen_AOT/AOT_stimuli/pictures/1292_fw.png	95.96851849555969	0.8417060375213623
41	37.291688203811646	response	0	k		39.0	/experiments/knapen_AOT/AOT_stimuli/pictures/1292_fw.png	96.79364347457886	
42	37.30826926231384	picture	0		137	40.0	/experiments/knapen_AOT/AOT_stimuli/pictures/0334_fw.png	96.81022453308105	1.1500637531280518
42	38.441720724105835	response	0	j		40.0	/experiments/knapen_AOT/AOT_stimuli/pictures/0334_fw.png	97.94367599487305	
43	38.458333015441895	picture	0		81	41.0	/experiments/knapen_AOT/AOT_stimuli/pictures/2146_fw.png	97.9602882862091	0.6832420825958252
43	39.125035762786865	response	0	k		41.0	/experiments/knapen_AOT/AOT_stimuli/pictures/2146_fw.png	98.62699103355408	
44	39.14157509803772	picture	0		97	42.0	/experiments/knapen_AOT/AOT_stimuli/pictures/1261_fw.png	98.64353036880493	0.8166723251342773
44	39.94172239303589	response	0	k		42.0	/experiments/knapen_AOT/AOT_stimuli/pictures/1261_fw.png	99.4436776638031	
45	39.958247423172	picture	0		80	43.0	/experiments/knapen_AOT/AOT_stimuli/pictures/1307_fw.png	99.46020269393921	0.6750290393829346
45	40.61689019203186	response	0	j		43.0	/experiments/knapen_AOT/AOT_stimuli/pictures/1307_fw.png	100.11884546279907	
46	40.63327646255493	picture	0		79	44.0	/experiments/knapen_AOT/AOT_stimuli/pictures/1356_fw.png	100.13523173332214	0.6666595935821533
46	41.28351950645447	response	0	j		44.0	/experiments/knapen_AOT/AOT_stimuli/pictures/1356_fw.png	100.78547477722168	
47	41.299936056137085	picture	0		174	45.0	/experiments/knapen_AOT/AOT_stimuli/pictures/0211_fw.png	100.8018913269043	1.45005464553833
47	42.74171447753906	response	0	j		45.0	/experiments/knapen_AOT/AOT_stimuli/pictures/0211_fw.png	102.24366974830627	
48	42.749990701675415	picture	0		115	46.0	/experiments/knapen_AOT/AOT_stimuli/pictures/1025_fw.png	102.25194597244263	0.9583244323730469
48	43.70006251335144	response	0	k		46.0	/experiments/knapen_AOT/AOT_stimuli/pictures/1025_fw.png	103.20201778411865	
49	43.70831513404846	picture	0		102	47.0	/experiments/knapen_AOT/AOT_stimuli/pictures/1794_fw.png	103.21027040481567	0.8499739170074463
49	44.55008268356323	response	0	j		47.0	/experiments/knapen_AOT/AOT_stimuli/pictures/1794_fw.png	104.05203795433044	
50	44.55828905105591	picture	0		75	48.0	/experiments/knapen_AOT/AOT_stimuli/pictures/0846_fw.png	104.06024432182312	0.6292219161987305
50	45.17512845993042	response	0	j		48.0	/experiments/knapen_AOT/AOT_stimuli/pictures/0846_fw.png	104.67708373069763	
51	45.18751096725464	picture	0		81	49.0	/experiments/knapen_AOT/AOT_stimuli/pictures/1606_fw.png	104.68946623802185	0.6736042499542236
51	45.850106716156006	response	0	j		49.0	/experiments/knapen_AOT/AOT_stimuli/pictures/1606_fw.png	105.35206198692322	
52	45.86111521720886	picture	0		77	50.0	/experiments/knapen_AOT/AOT_stimuli/pictures/0471_fw.png	105.36307048797607	0.638873815536499
52	46.49181413650513	response	0	j		50.0	/experiments/knapen_AOT/AOT_stimuli/pictures/0471_fw.png	105.99376940727234	
53	46.49998903274536	picture	0		76	51.0	/experiments/knapen_AOT/AOT_stimuli/pictures/0269_fw.png	106.00194430351257	0.641681432723999
53	47.125149965286255	response	0	j		51.0	/experiments/knapen_AOT/AOT_stimuli/pictures/0269_fw.png	106.62710523605347	
54	47.14167046546936	picture	0		115	52.0	/experiments/knapen_AOT/AOT_stimuli/pictures/1019_fw.png	106.64362573623657	0.9625153541564941
54	48.091787338256836	response	0	k		52.0	/experiments/knapen_AOT/AOT_stimuli/pictures/1019_fw.png	107.59374260902405	
55	48.104185819625854	picture	0		211	53.0	/experiments/knapen_AOT/AOT_stimuli/pictures/1414_fw.png	107.60614109039307	1.7569530010223389
55	49.85018754005432	response	0	k		53.0	/experiments/knapen_AOT/AOT_stimuli/pictures/1414_fw.png	109.35214281082153	
56	49.86113882064819	picture	0		84	54.0	/experiments/knapen_AOT/AOT_stimuli/pictures/1330_fw.png	109.3630940914154	0.7014031410217285
56	50.550156593322754	response	0	j		54.0	/experiments/knapen_AOT/AOT_stimuli/pictures/1330_fw.png	110.05211186408997	
57	50.56254196166992	picture	0		98	55.0	/experiments/knapen_AOT/AOT_stimuli/pictures/0148_fw.png	110.06449723243713	0.8125216960906982
57	51.3668372631073	response	0	k		55.0	/experiments/knapen_AOT/AOT_stimuli/pictures/0148_fw.png	110.86879253387451	
58	51.37506365776062	picture	0		228	56.0	/experiments/knapen_AOT/AOT_stimuli/pictures/0857_fw.png	110.87701892852783	1.9027667045593262
58	53.2669141292572	response	0	j		56.0	/experiments/knapen_AOT/AOT_stimuli/pictures/0857_fw.png	112.76886940002441	
59	53.277830362319946	picture	0		87	57.0	/experiments/knapen_AOT/AOT_stimuli/pictures/0786_fw.png	112.77978563308716	0.7222990989685059
59	53.98581123352051	response	0	k		57.0	/experiments/knapen_AOT/AOT_stimuli/pictures/0786_fw.png	113.48776650428772	
60	54.00012946128845	picture	0		84	58.0	/experiments/knapen_AOT/AOT_stimuli/pictures/1686_fw.png	113.50208473205566	0.7013061046600342
60	54.69187784194946	response	0	j		58.0	/experiments/knapen_AOT/AOT_stimuli/pictures/1686_fw.png	114.19383311271667	
61	54.701435565948486	picture	0		114	59.0	/experiments/knapen_AOT/AOT_stimuli/pictures/1557_fw.png	114.2033908367157	0.9514186382293701
61	55.641953229904175	response	0	j		59.0	/experiments/knapen_AOT/AOT_stimuli/pictures/1557_fw.png	115.14390850067139	
62	55.652854204177856	picture	0		107	60.0	/experiments/knapen_AOT/AOT_stimuli/pictures/0311_fw.png	115.15480947494507	0.8889124393463135
62	56.533637285232544	response	0	j		60.0	/experiments/knapen_AOT/AOT_stimuli/pictures/0311_fw.png	116.03559255599976	
63	56.54176664352417	picture	0		76	61.0	/experiments/knapen_AOT/AOT_stimuli/pictures/1197_fw.png	116.04372191429138	0.6389060020446777
63	57.16701078414917	response	0	j		61.0	/experiments/knapen_AOT/AOT_stimuli/pictures/1197_fw.png	116.66896605491638	
64	57.18067264556885	picture	0		71	62.0	/experiments/knapen_AOT/AOT_stimuli/pictures/1337_fw.png	116.68262791633606	0.5971951484680176
64	57.76700282096863	response	0	j		62.0	/experiments/knapen_AOT/AOT_stimuli/pictures/1337_fw.png	117.26895809173584	
65	57.777867794036865	picture	0		75	63.0	/experiments/knapen_AOT/AOT_stimuli/pictures/0345_fw.png	117.27982306480408	0.6250154972076416
65	58.39199137687683	response	0	j		63.0	/experiments/knapen_AOT/AOT_stimuli/pictures/0345_fw.png	117.89394664764404	
66	58.40288329124451	picture	0		94	64.0	/experiments/knapen_AOT/AOT_stimuli/pictures/2144_fw.png	117.90483856201172	0.7847747802734375
66	59.17534685134888	response	0	k		64.0	/experiments/knapen_AOT/AOT_stimuli/pictures/2144_fw.png	118.67730212211609	
67	59.187658071517944	picture	0		75	65.0	/experiments/knapen_AOT/AOT_stimuli/pictures/1611_fw.png	118.68961334228516	0.629314661026001
67	59.80038094520569	response	0	j		65.0	/experiments/knapen_AOT/AOT_stimuli/pictures/1611_fw.png	119.3023362159729	
68	59.816972732543945	picture	0		72	66.0	/experiments/knapen_AOT/AOT_stimuli/pictures/2132_fw.png	119.31892800331116	0.6082746982574463
68	60.408771276474	response	0	k		66.0	/experiments/knapen_AOT/AOT_stimuli/pictures/2132_fw.png	119.91072654724121	
69	60.42524743080139	picture	0		126	67.0	/experiments/knapen_AOT/AOT_stimuli/pictures/0540_fw.png	119.9272027015686	1.0583093166351318
69	61.46710801124573	response	0	k		67.0	/experiments/knapen_AOT/AOT_stimuli/pictures/0540_fw.png	120.96906328201294	
70	61.48355674743652	picture	0		95	68.0	/experiments/knapen_AOT/AOT_stimuli/pictures/1582_fw.png	120.98551201820374	0.7943494319915771
70	62.26711392402649	response	0	k		68.0	/experiments/knapen_AOT/AOT_stimuli/pictures/1582_fw.png	121.7690691947937	
71	62.2779061794281	picture	0		80	69.0	/experiments/knapen_AOT/AOT_stimuli/pictures/1274_fw.png	121.77986145019531	0.6722877025604248
71	62.93408942222595	response	0	j		69.0	/experiments/knapen_AOT/AOT_stimuli/pictures/1274_fw.png	122.43604469299316	
72	62.950193881988525	picture	0		203	70.0	/experiments/knapen_AOT/AOT_stimuli/pictures/1767_fw.png	122.45214915275574	1.7001912593841553
72	64.62802577018738	response	0	k		70.0	/experiments/knapen_AOT/AOT_stimuli/pictures/1767_fw.png	124.12998104095459	
73	64.65038514137268	picture	0		86	71.0	/experiments/knapen_AOT/AOT_stimuli/pictures/0890_fw.png	124.15234041213989	0.7178056240081787
73	65.3586757183075	response	0	j		71.0	/experiments/knapen_AOT/AOT_stimuli/pictures/0890_fw.png	124.8606309890747	
74	65.36819076538086	picture	0		88	72.0	/experiments/knapen_AOT/AOT_stimuli/pictures/0816_fw.png	124.87014603614807	0.740419864654541
74	66.09205985069275	response	0	k		72.0	/experiments/knapen_AOT/AOT_stimuli/pictures/0816_fw.png	125.59401512145996	
75	66.1086106300354	picture	0		79	73.0	/experiments/knapen_AOT/AOT_stimuli/pictures/0963_fw.png	125.61056590080261	0.6666245460510254
75	66.75876021385193	response	0	j		73.0	/experiments/knapen_AOT/AOT_stimuli/pictures/0963_fw.png	126.26071548461914	
76	66.77523517608643	picture	0		89	74.0	/experiments/knapen_AOT/AOT_stimuli/pictures/1339_fw.png	126.27719044685364	0.7500479221343994
76	67.5087308883667	response	0	j		74.0	/experiments/knapen_AOT/AOT_stimuli/pictures/1339_fw.png	127.01068615913391	
77	67.52528309822083	picture	0		157	75.0	/experiments/knapen_AOT/AOT_stimuli/pictures/1020_fw.png	127.02723836898804	1.308279037475586
77	68.8180296421051	response	0	j		75.0	/experiments/knapen_AOT/AOT_stimuli/pictures/1020_fw.png	128.31998491287231	
78	68.83356213569641	picture	0		97	76.0	/experiments/knapen_AOT/AOT_stimuli/pictures/1450_fw.png	128.33551740646362	0.8124470710754395
78	69.63383483886719	response	0	k		76.0	/experiments/knapen_AOT/AOT_stimuli/pictures/1450_fw.png	129.1357901096344	
79	69.64600920677185	picture	0		98	77.0	/experiments/knapen_AOT/AOT_stimuli/pictures/1108_fw.png	129.14796447753906	0.8126914501190186
79	70.45049047470093	response	0	k		77.0	/experiments/knapen_AOT/AOT_stimuli/pictures/1108_fw.png	129.95244574546814	
80	70.45870065689087	picture	0		94	78.0	/experiments/knapen_AOT/AOT_stimuli/pictures/0859_fw.png	129.96065592765808	0.7845211029052734
80	71.2262818813324	response	0	j		78.0	/experiments/knapen_AOT/AOT_stimuli/pictures/0859_fw.png	130.7282371520996	
81	71.24322175979614	picture	0		74	79.0	/experiments/knapen_AOT/AOT_stimuli/pictures/2021_fw.png	130.74517703056335	0.6180703639984131
81	71.85049366950989	response	0	k		79.0	/experiments/knapen_AOT/AOT_stimuli/pictures/2021_fw.png	131.3524489402771	
82	71.86129212379456	picture	0		74	80.0	/experiments/knapen_AOT/AOT_stimuli/pictures/1077_fw.png	131.36324739456177	0.6223549842834473
82	72.46710014343262	response	0	k		80.0	/experiments/knapen_AOT/AOT_stimuli/pictures/1077_fw.png	131.96905541419983	
83	72.483647108078	picture	0		86	81.0	/experiments/knapen_AOT/AOT_stimuli/pictures/1519_fw.png	131.98560237884521	0.7249934673309326
83	73.19211483001709	response	0	k		81.0	/experiments/knapen_AOT/AOT_stimuli/pictures/1519_fw.png	132.6940701007843	
84	73.20864057540894	picture	0		72	82.0	/experiments/knapen_AOT/AOT_stimuli/pictures/0297_fw.png	132.71059584617615	0.6040678024291992
84	73.80042815208435	response	0	k		82.0	/experiments/knapen_AOT/AOT_stimuli/pictures/0297_fw.png	133.30238342285156	
85	73.81270837783813	picture	0		88	83.0	/experiments/knapen_AOT/AOT_stimuli/pictures/0951_fw.png	133.31466364860535	0.7292547225952148
85	74.53377199172974	response	0	j		83.0	/experiments/knapen_AOT/AOT_stimuli/pictures/0951_fw.png	134.03572726249695	
86	74.54196310043335	picture	0		69	84.0	/experiments/knapen_AOT/AOT_stimuli/pictures/2152_fw.png	134.04391837120056	0.5833802223205566
86	75.10884499549866	response	0	k		84.0	/experiments/knapen_AOT/AOT_stimuli/pictures/2152_fw.png	134.61080026626587	
87	75.1253433227539	picture	0		82	85.0	/experiments/knapen_AOT/AOT_stimuli/pictures/1322_fw.png	134.62729859352112	0.6916875839233398
87	75.80055046081543	response	0	k		85.0	/experiments/knapen_AOT/AOT_stimuli/pictures/1322_fw.png	135.30250573158264	
88	75.81703090667725	picture	0		65	86.0	/experiments/knapen_AOT/AOT_stimuli/pictures/0607_fw.png	135.31898617744446	0.5442829132080078
88	76.3506088256836	response	0	k		86.0	/experiments/knapen_AOT/AOT_stimuli/pictures/0607_fw.png	135.8525640964508	
89	76.36131381988525	picture	0		98	87.0	/experiments/knapen_AOT/AOT_stimuli/pictures/1917_fw.png	135.86326909065247	0.8194565773010254
89	77.16716289520264	response	0	j		87.0	/experiments/knapen_AOT/AOT_stimuli/pictures/1917_fw.png	136.66911816596985	
90	77.18077039718628	picture	0		69	88.0	/experiments/knapen_AOT/AOT_stimuli/pictures/0169_fw.png	136.6827256679535	0.5834193229675293
90	77.75053429603577	response	0	j		88.0	/experiments/knapen_AOT/AOT_stimuli/pictures/0169_fw.png	137.25248956680298	
91	77.76418972015381	picture	0		81	89.0	/experiments/knapen_AOT/AOT_stimuli/pictures/0174_fw.png	137.26614499092102	0.6862955093383789
91	78.4261384010315	response	0	j		89.0	/experiments/knapen_AOT/AOT_stimuli/pictures/0174_fw.png	137.9280936717987	
92	78.45048522949219	picture	0		68	90.0	/experiments/knapen_AOT/AOT_stimuli/pictures/0078_fw.png	137.9524405002594	0.574901819229126
92	79.0089499950409	response	0	j		90.0	/experiments/knapen_AOT/AOT_stimuli/pictures/0078_fw.png	138.5109052658081	
93	79.02538704872131	picture	0		80	91.0	/experiments/knapen_AOT/AOT_stimuli/pictures/0774_fw.png	138.52734231948853	0.675025463104248
93	79.68386316299438	response	0	j		91.0	/experiments/knapen_AOT/AOT_stimuli/pictures/0774_fw.png	139.1858184337616	
94	79.70041251182556	picture	0		91	92.0	/experiments/knapen_AOT/AOT_stimuli/pictures/0577_fw.png	139.20236778259277	0.7582762241363525
94	80.45055675506592	response	0	k		92.0	/experiments/knapen_AOT/AOT_stimuli/pictures/0577_fw.png	139.95251202583313	
95	80.45868873596191	picture	0		93	93.0	/experiments/knapen_AOT/AOT_stimuli/pictures/1374_fw.png	139.96064400672913	0.7776532173156738
95	81.21809935569763	response	0	k		93.0	/experiments/knapen_AOT/AOT_stimuli/pictures/1374_fw.png	140.72005462646484	
96	81.23634195327759	picture	0		79	94.0	/experiments/knapen_AOT/AOT_stimuli/pictures/1639_fw.png	140.7382972240448	0.6597456932067871
96	81.88388514518738	response	0	j		94.0	/experiments/knapen_AOT/AOT_stimuli/pictures/1639_fw.png	141.3858404159546	
97	81.89608764648438	picture	0		92	95.0	/experiments/knapen_AOT/AOT_stimuli/pictures/2126_fw.png	141.3980429172516	0.7710626125335693
97	82.65072274208069	response	0	k		95.0	/experiments/knapen_AOT/AOT_stimuli/pictures/2126_fw.png	142.1526780128479	
98	82.66715025901794	picture	0		96	96.0	/experiments/knapen_AOT/AOT_stimuli/pictures/0074_fw.png	142.16910552978516	0.8053569793701172
98	83.45891451835632	response	0	k		96.0	/experiments/knapen_AOT/AOT_stimuli/pictures/0074_fw.png	142.96086978912354	
99	83.47250723838806	picture	0		94	97.0	/experiments/knapen_AOT/AOT_stimuli/pictures/2131_fw.png	142.97446250915527	0.7916460037231445
99	84.25056910514832	response	0	k		97.0	/experiments/knapen_AOT/AOT_stimuli/pictures/2131_fw.png	143.75252437591553	
100	84.2641532421112	picture	0		72	98.0	/experiments/knapen_AOT/AOT_stimuli/pictures/1250_fw.png	143.76610851287842	0.6041958332061768
100	84.85896182060242	response	0	k		98.0	/experiments/knapen_AOT/AOT_stimuli/pictures/1250_fw.png	144.36091709136963	
101	84.86834907531738	picture	0		89	99.0	/experiments/knapen_AOT/AOT_stimuli/pictures/2036_fw.png	144.3703043460846	0.7487728595733643
101	85.60065770149231	response	0	j		99.0	/experiments/knapen_AOT/AOT_stimuli/pictures/2036_fw.png	145.10261297225952	
102	85.61712193489075	picture	0		120	100.0	/experiments/knapen_AOT/AOT_stimuli/pictures/1584_fw.png	145.11907720565796	1.001190423965454
102	86.60923838615417	response	0	k		100.0	/experiments/knapen_AOT/AOT_stimuli/pictures/1584_fw.png	146.1111936569214	
103	86.6183123588562	picture	0		95	101.0	/experiments/knapen_AOT/AOT_stimuli/pictures/2177_fw.png	146.1202676296234	0.7916796207427979
103	87.40061068534851	response	0	k		101.0	/experiments/knapen_AOT/AOT_stimuli/pictures/2177_fw.png	146.90256595611572	
104	87.409991979599	picture	0		82	102.0	/experiments/knapen_AOT/AOT_stimuli/pictures/0490_fw.png	146.9119472503662	0.687523603439331
104	88.08416271209717	response	0	j		102.0	/experiments/knapen_AOT/AOT_stimuli/pictures/0490_fw.png	147.58611798286438	
105	88.09751558303833	picture	0		75	103.0	/experiments/knapen_AOT/AOT_stimuli/pictures/0900_fw.png	147.59947085380554	0.6319253444671631
105	88.71730589866638	response	0	j		103.0	/experiments/knapen_AOT/AOT_stimuli/pictures/0900_fw.png	148.2192611694336	
106	88.7294409275055	picture	0		72	104.0	/experiments/knapen_AOT/AOT_stimuli/pictures/0793_fw.png	148.2313961982727	0.5973002910614014
106	89.31728029251099	response	0	j		104.0	/experiments/knapen_AOT/AOT_stimuli/pictures/0793_fw.png	148.8192355632782	
107	89.3267412185669	picture	0		80	105.0	/experiments/knapen_AOT/AOT_stimuli/pictures/0706_fw.png	148.8286964893341	0.6665973663330078
107	89.98405146598816	response	0	j		105.0	/experiments/knapen_AOT/AOT_stimuli/pictures/0706_fw.png	149.48600673675537	
108	89.9933385848999	picture	0		85	106.0	/experiments/knapen_AOT/AOT_stimuli/pictures/1890_fw.png	149.49529385566711	0.7083477973937988
108	90.69231390953064	response	0	k		106.0	/experiments/knapen_AOT/AOT_stimuli/pictures/1890_fw.png	150.19426918029785	
109	90.7016863822937	picture	0		90	107.0	/experiments/knapen_AOT/AOT_stimuli/pictures/0962_fw.png	150.2036416530609	0.7499938011169434
109	91.44257974624634	response	0	k		107.0	/experiments/knapen_AOT/AOT_stimuli/pictures/0962_fw.png	150.94453501701355	
110	91.45168018341064	picture	0		84	108.0	/experiments/knapen_AOT/AOT_stimuli/pictures/1988_fw.png	150.95363545417786	0.7072627544403076
110	92.14230871200562	response	0	j		108.0	/experiments/knapen_AOT/AOT_stimuli/pictures/1988_fw.png	151.64426398277283	
111	92.15894293785095	picture	0		77	109.0	/experiments/knapen_AOT/AOT_stimuli/pictures/0819_fw.png	151.66089820861816	0.6499617099761963
111	92.79233956336975	response	0	k		109.0	/experiments/knapen_AOT/AOT_stimuli/pictures/0819_fw.png	152.29429483413696	
112	92.80890464782715	picture	0		101	110.0	/experiments/knapen_AOT/AOT_stimuli/pictures/1678_fw.png	152.31085991859436	0.8511536121368408
112	93.64255952835083	response	0	j		110.0	/experiments/knapen_AOT/AOT_stimuli/pictures/1678_fw.png	153.14451479911804	
113	93.66005825996399	picture	0		77	111.0	/experiments/knapen_AOT/AOT_stimuli/pictures/1438_fw.png	153.1620135307312	0.6458463668823242
113	94.29250001907349	response	0	j		111.0	/experiments/knapen_AOT/AOT_stimuli/pictures/1438_fw.png	153.7944552898407	
114	94.30590462684631	picture	0		75	112.0	/experiments/knapen_AOT/AOT_stimuli/pictures/1156_fw.png	153.80785989761353	0.636340856552124
114	94.9258599281311	response	0	j		112.0	/experiments/knapen_AOT/AOT_stimuli/pictures/1156_fw.png	154.42781519889832	
115	94.94224548339844	picture	0		67	113.0	/experiments/knapen_AOT/AOT_stimuli/pictures/1741_fw.png	154.44420075416565	0.5582804679870605
115	95.49242448806763	response	0	j		113.0	/experiments/knapen_AOT/AOT_stimuli/pictures/1741_fw.png	154.99437975883484	
116	95.5005259513855	picture	0		71	114.0	/experiments/knapen_AOT/AOT_stimuli/pictures/0085_fw.png	155.0024812221527	0.5970268249511719
116	96.08412909507751	response	0	j		114.0	/experiments/knapen_AOT/AOT_stimuli/pictures/0085_fw.png	155.58608436584473	
117	96.09755277633667	picture	0		73	115.0	/experiments/knapen_AOT/AOT_stimuli/pictures/2038_fw.png	155.59950804710388	0.611328125
117	96.70069599151611	response	0	j		115.0	/experiments/knapen_AOT/AOT_stimuli/pictures/2038_fw.png	156.20265126228333	
118	96.70888090133667	picture	0		74	116.0	/experiments/knapen_AOT/AOT_stimuli/pictures/0908_fw.png	156.21083617210388	0.6251189708709717
118	97.31760168075562	response	0	j		116.0	/experiments/knapen_AOT/AOT_stimuli/pictures/0908_fw.png	156.81955695152283	
119	97.33399987220764	picture	0		81	117.0	/experiments/knapen_AOT/AOT_stimuli/pictures/0899_fw.png	156.83595514297485	0.6802666187286377
119	98.00079441070557	response	0	j		117.0	/experiments/knapen_AOT/AOT_stimuli/pictures/0899_fw.png	157.50274968147278	
120	98.01426649093628	picture	0		90	118.0	/experiments/knapen_AOT/AOT_stimuli/pictures/0997_fw.png	157.5162217617035	0.7569057941436768
120	98.75912594795227	response	0	k		118.0	/experiments/knapen_AOT/AOT_stimuli/pictures/0997_fw.png	158.26108121871948	
121	98.77117228507996	picture	0		137	119.0	/experiments/knapen_AOT/AOT_stimuli/pictures/0423_fw.png	158.27312755584717	1.1462070941925049
121	99.900719165802	response	0	k		119.0	/experiments/knapen_AOT/AOT_stimuli/pictures/0423_fw.png	159.4026744365692	
122	99.91737937927246	picture	0		121	120.0	/experiments/knapen_AOT/AOT_stimuli/pictures/1702_fw.png	159.41933465003967	1.0135376453399658
122	100.91742205619812	response	0	k		120.0	/experiments/knapen_AOT/AOT_stimuli/pictures/1702_fw.png	160.41937732696533	
123	100.93091702461243	picture	0		68	121.0	/experiments/knapen_AOT/AOT_stimuli/pictures/1500_fw.png	160.43287229537964	0.5696711540222168
123	101.49244976043701	response	0	k		121.0	/experiments/knapen_AOT/AOT_stimuli/pictures/1500_fw.png	160.99440503120422	
124	101.50058817863464	picture	0		75	122.0	/experiments/knapen_AOT/AOT_stimuli/pictures/0414_fw.png	161.00254344940186	0.6333956718444824
124	102.1174066066742	response	0	k		122.0	/experiments/knapen_AOT/AOT_stimuli/pictures/0414_fw.png	161.6193618774414	
125	102.13398385047913	picture	0		74	123.0	/experiments/knapen_AOT/AOT_stimuli/pictures/1840_fw.png	161.63593912124634	0.6251957416534424
125	102.7424545288086	response	0	k		123.0	/experiments/knapen_AOT/AOT_stimuli/pictures/1840_fw.png	162.2444097995758	
126	102.75917959213257	picture	0		116	124.0	/experiments/knapen_AOT/AOT_stimuli/pictures/1955_fw.png	162.26113486289978	0.9704155921936035
126	103.71741938591003	response	0	k		124.0	/experiments/knapen_AOT/AOT_stimuli/pictures/1955_fw.png	163.21937465667725	
127	103.72959518432617	picture	0		131	125.0	/experiments/knapen_AOT/AOT_stimuli/pictures/0096_fw.png	163.23155045509338	1.0960540771484375
127	104.80916237831116	response	0	j		125.0	/experiments/knapen_AOT/AOT_stimuli/pictures/0096_fw.png	164.31111764907837	
128	104.82564926147461	picture	0		73	126.0	/experiments/knapen_AOT/AOT_stimuli/pictures/1976_fw.png	164.32760453224182	0.6167387962341309
128	105.41820001602173	response	0	k		126.0	/experiments/knapen_AOT/AOT_stimuli/pictures/1976_fw.png	164.92015528678894	
129	105.44238805770874	picture	0		95	127.0	/experiments/knapen_AOT/AOT_stimuli/pictures/1989_fw.png	164.94434332847595	0.7940807342529297
129	106.22585391998291	response	0	j		127.0	/experiments/knapen_AOT/AOT_stimuli/pictures/1989_fw.png	165.72780919075012	
130	106.23646879196167	picture	0		110	128.0	/experiments/knapen_AOT/AOT_stimuli/pictures/1571_fw.png	165.73842406272888	0.9225361347198486
130	107.14264416694641	response	0	k		128.0	/experiments/knapen_AOT/AOT_stimuli/pictures/1571_fw.png	166.64459943771362	
131	107.15900492668152	picture	0		91	129.0	/experiments/knapen_AOT/AOT_stimuli/pictures/0475_fw.png	166.66096019744873	0.7666711807250977
131	107.9093770980835	response	0	j		129.0	/experiments/knapen_AOT/AOT_stimuli/pictures/0475_fw.png	167.4113323688507	
132	107.92567610740662	picture	0		72	130.0	/experiments/knapen_AOT/AOT_stimuli/pictures/0203_fw.png	167.42763137817383	0.6083347797393799
132	108.5175609588623	response	0	j		130.0	/experiments/knapen_AOT/AOT_stimuli/pictures/0203_fw.png	168.01951622962952	
133	108.534010887146	picture	0		97	131.0	/experiments/knapen_AOT/AOT_stimuli/pictures/0296_fw.png	168.0359661579132	0.8166818618774414
133	109.33416032791138	response	0	j		131.0	/experiments/knapen_AOT/AOT_stimuli/pictures/0296_fw.png	168.8361155986786	
134	109.35069274902344	picture	0		81	132.0	/experiments/knapen_AOT/AOT_stimuli/pictures/1544_fw.png	168.85264801979065	0.6833269596099854
134	110.0177674293518	response	0	k		132.0	/experiments/knapen_AOT/AOT_stimuli/pictures/1544_fw.png	169.51972270011902	
135	110.03401970863342	picture	0		121	133.0	/experiments/knapen_AOT/AOT_stimuli/pictures/0044_fw.png	169.53597497940063	1.0083250999450684
135	111.03416514396667	response	0	j		133.0	/experiments/knapen_AOT/AOT_stimuli/pictures/0044_fw.png	170.5361204147339	
136	111.04234480857849	picture	0		76	134.0	/experiments/knapen_AOT/AOT_stimuli/pictures/0892_fw.png	170.5443000793457	0.6386318206787109
136	111.667555809021	response	0	k		134.0	/experiments/knapen_AOT/AOT_stimuli/pictures/0892_fw.png	171.1695110797882	
137	111.6809766292572	picture	0		80	135.0	/experiments/knapen_AOT/AOT_stimuli/pictures/1283_fw.png	171.1829319000244	0.6780862808227539
137	112.34253215789795	response	0	j		135.0	/experiments/knapen_AOT/AOT_stimuli/pictures/1283_fw.png	171.84448742866516	
138	112.35906291007996	picture	0		104	136.0	/experiments/knapen_AOT/AOT_stimuli/pictures/1959_fw.png	171.86101818084717	0.8704936504364014
138	113.20991516113281	response	0	k		136.0	/experiments/knapen_AOT/AOT_stimuli/pictures/1959_fw.png	172.71187043190002	
139	113.22955656051636	picture	0		88	137.0	/experiments/knapen_AOT/AOT_stimuli/pictures/0272_fw.png	172.73151183128357	0.7294797897338867
139	113.9509437084198	response	0	k		137.0	/experiments/knapen_AOT/AOT_stimuli/pictures/0272_fw.png	173.452898979187	
140	113.95903635025024	picture	0		73	138.0	/experiments/knapen_AOT/AOT_stimuli/pictures/1985_fw.png	173.46099162101746	0.616868257522583
140	114.55950832366943	response	0	j		138.0	/experiments/knapen_AOT/AOT_stimuli/pictures/1985_fw.png	174.06146359443665	
141	114.57590460777283	picture	0		109	139.0	/experiments/knapen_AOT/AOT_stimuli/pictures/0818_fw.png	174.07785987854004	0.9106049537658691
141	115.47599959373474	response	0	j		139.0	/experiments/knapen_AOT/AOT_stimuli/pictures/0818_fw.png	174.97795486450195	
142	115.4865095615387	picture	0		83	140.0	/experiments/knapen_AOT/AOT_stimuli/pictures/1229_fw.png	174.9884648323059	0.6944622993469238
142	116.16758871078491	response	0	k		140.0	/experiments/knapen_AOT/AOT_stimuli/pictures/1229_fw.png	175.66954398155212	
143	116.18097186088562	picture	0		79	141.0	/experiments/knapen_AOT/AOT_stimuli/pictures/2170_fw.png	175.68292713165283	0.666663646697998
143	116.83433723449707	response	0	j		141.0	/experiments/knapen_AOT/AOT_stimuli/pictures/2170_fw.png	176.33629250526428	
144	116.84763550758362	picture	0		170	142.0	/experiments/knapen_AOT/AOT_stimuli/pictures/0886_fw.png	176.34959077835083	1.4236154556274414
144	118.25931715965271	response	0	j		142.0	/experiments/knapen_AOT/AOT_stimuli/pictures/0886_fw.png	177.76127243041992	
145	118.27125096321106	picture	0		111	143.0	/experiments/knapen_AOT/AOT_stimuli/pictures/0416_fw.png	177.77320623397827	0.9236962795257568
145	119.18430042266846	response	0	j		143.0	/experiments/knapen_AOT/AOT_stimuli/pictures/0416_fw.png	178.68625569343567	
146	119.19494724273682	picture	0		74	144.0	/experiments/knapen_AOT/AOT_stimuli/pictures/1714_fw.png	178.69690251350403	0.6180260181427002
146	119.8011794090271	response	0	k		144.0	/experiments/knapen_AOT/AOT_stimuli/pictures/1714_fw.png	179.3031346797943	
147	119.81297326087952	picture	0		99	145.0	/experiments/knapen_AOT/AOT_stimuli/pictures/0424_fw.png	179.31492853164673	0.8263599872589111
147	120.6259412765503	response	0	k		145.0	/experiments/knapen_AOT/AOT_stimuli/pictures/0424_fw.png	180.1278965473175	
148	120.63933324813843	picture	0		100	146.0	/experiments/knapen_AOT/AOT_stimuli/pictures/0189_fw.png	180.14128851890564	0.8449194431304932
148	121.4676342010498	response	0	j		146.0	/experiments/knapen_AOT/AOT_stimuli/pictures/0189_fw.png	180.96958947181702	
149	121.48425269126892	picture	0		96	147.0	/experiments/knapen_AOT/AOT_stimuli/pictures/0122_fw.png	180.98620796203613	0.8082294464111328
149	122.27608919143677	response	0	j		147.0	/experiments/knapen_AOT/AOT_stimuli/pictures/0122_fw.png	181.77804446220398	
150	122.29248213768005	picture	0		127	148.0	/experiments/knapen_AOT/AOT_stimuli/pictures/1199_fw.png	181.79443740844727	1.062140941619873
150	123.34266209602356	response	0	k		148.0	/experiments/knapen_AOT/AOT_stimuli/pictures/1199_fw.png	182.84461736679077	
151	123.35462307929993	picture	0		103	149.0	/experiments/knapen_AOT/AOT_stimuli/pictures/1485_fw.png	182.85657835006714	0.8628671169281006
151	124.19370532035828	response	0	k		149.0	/experiments/knapen_AOT/AOT_stimuli/pictures/1485_fw.png	183.6956605911255	
152	124.21749019622803	picture	0		80	150.0	/experiments/knapen_AOT/AOT_stimuli/pictures/1384_fw.png	183.71944546699524	0.6750268936157227
152	124.8759970664978	response	0	k		150.0	/experiments/knapen_AOT/AOT_stimuli/pictures/1384_fw.png	184.37795233726501	
153	124.89251708984375	picture	0		109	151.0	/experiments/knapen_AOT/AOT_stimuli/pictures/1162_fw.png	184.39447236061096	0.9166955947875977
153	125.79273796081543	response	0	j		151.0	/experiments/knapen_AOT/AOT_stimuli/pictures/1162_fw.png	185.29469323158264	
154	125.80921268463135	picture	0		84	152.0	/experiments/knapen_AOT/AOT_stimuli/pictures/1029_fw.png	185.31116795539856	0.7083351612091064
154	126.50102400779724	response	0	k		152.0	/experiments/knapen_AOT/AOT_stimuli/pictures/1029_fw.png	186.00297927856445	
155	126.51754784584045	picture	0		95	153.0	/experiments/knapen_AOT/AOT_stimuli/pictures/2103_fw.png	186.01950311660767	0.8000414371490479
155	127.30100870132446	response	0	j		153.0	/experiments/knapen_AOT/AOT_stimuli/pictures/2103_fw.png	186.80296397209167	
156	127.3175892829895	picture	0		91	154.0	/experiments/knapen_AOT/AOT_stimuli/pictures/0396_fw.png	186.8195445537567	0.7592484951019287
156	128.06766653060913	response	0	k		154.0	/experiments/knapen_AOT/AOT_stimuli/pictures/0396_fw.png	187.56962180137634	
157	128.07683777809143	picture	0		76	155.0	/experiments/knapen_AOT/AOT_stimuli/pictures/0080_fw.png	187.57879304885864	0.6323602199554443
157	128.70102047920227	response	0	k		155.0	/experiments/knapen_AOT/AOT_stimuli/pictures/0080_fw.png	188.20297574996948	
158	128.70919799804688	picture	0		131	156.0	/experiments/knapen_AOT/AOT_stimuli/pictures/0735_fw.png	188.2111532688141	1.1000416278839111
158	129.7926836013794	response	0	j		156.0	/experiments/knapen_AOT/AOT_stimuli/pictures/0735_fw.png	189.2946388721466	
159	129.8092396259308	picture	0		98	157.0	/experiments/knapen_AOT/AOT_stimuli/pictures/0402_fw.png	189.311194896698	0.8166799545288086
159	130.61017060279846	response	0	j		157.0	/experiments/knapen_AOT/AOT_stimuli/pictures/0402_fw.png	190.11212587356567	
160	130.6259195804596	picture	0		86	158.0	/experiments/knapen_AOT/AOT_stimuli/pictures/0215_fw.png	190.1278748512268	0.7217748165130615
160	131.33435368537903	response	0	j		158.0	/experiments/knapen_AOT/AOT_stimuli/pictures/0215_fw.png	190.83630895614624	
161	131.34769439697266	picture	0		97	159.0	/experiments/knapen_AOT/AOT_stimuli/pictures/1031_fw.png	190.84964966773987	0.8198778629302979
161	132.15117764472961	response	0	j		159.0	/experiments/knapen_AOT/AOT_stimuli/pictures/1031_fw.png	191.65313291549683	
162	132.16757225990295	picture	0		88	160.0	/experiments/knapen_AOT/AOT_stimuli/pictures/1382_fw.png	191.66952753067017	0.7356698513031006
162	132.89271235466003	response	0	k		160.0	/experiments/knapen_AOT/AOT_stimuli/pictures/1382_fw.png	192.39466762542725	
163	132.90324211120605	picture	0		83	161.0	/experiments/knapen_AOT/AOT_stimuli/pictures/0733_fw.png	192.40519738197327	0.6944749355316162
163	133.58442044258118	response	0	j		161.0	/experiments/knapen_AOT/AOT_stimuli/pictures/0733_fw.png	193.0863757133484	
164	133.59771704673767	picture	0		93	162.0	/experiments/knapen_AOT/AOT_stimuli/pictures/0455_fw.png	193.09967231750488	0.7865369319915771
164	134.36781930923462	response	0	j		162.0	/experiments/knapen_AOT/AOT_stimuli/pictures/0455_fw.png	193.86977458000183	
165	134.38425397872925	picture	0		66	163.0	/experiments/knapen_AOT/AOT_stimuli/pictures/1778_fw.png	193.88620924949646	0.5583410263061523
165	134.9260814189911	response	0	j		163.0	/experiments/knapen_AOT/AOT_stimuli/pictures/1778_fw.png	194.4280366897583	
166	134.9425950050354	picture	0		104	164.0	/experiments/knapen_AOT/AOT_stimuli/pictures/0944_fw.png	194.4445502758026	0.8750011920928955
166	135.80114459991455	response	0	j		164.0	/experiments/knapen_AOT/AOT_stimuli/pictures/0944_fw.png	195.30309987068176	
167	135.8175961971283	picture	0		94	165.0	/experiments/knapen_AOT/AOT_stimuli/pictures/0408_fw.png	195.3195514678955	0.7916891574859619
167	136.59279131889343	response	0	k		165.0	/experiments/knapen_AOT/AOT_stimuli/pictures/0408_fw.png	196.09474658966064	
168	136.60928535461426	picture	0		96	166.0	/experiments/knapen_AOT/AOT_stimuli/pictures/1539_fw.png	196.11124062538147	0.8083558082580566
168	137.4013156890869	response	0	j		166.0	/experiments/knapen_AOT/AOT_stimuli/pictures/1539_fw.png	196.90327095985413	
169	137.41764116287231	picture	0		81	167.0	/experiments/knapen_AOT/AOT_stimuli/pictures/1264_fw.png	196.91959643363953	0.6800968647003174
169	138.08446621894836	response	0	j		167.0	/experiments/knapen_AOT/AOT_stimuli/pictures/1264_fw.png	197.58642148971558	
170	138.09773802757263	picture	0		100	168.0	/experiments/knapen_AOT/AOT_stimuli/pictures/1746_fw.png	197.59969329833984	0.8402621746063232
170	138.92614102363586	response	0	k		168.0	/experiments/knapen_AOT/AOT_stimuli/pictures/1746_fw.png	198.42809629440308	
171	138.93800020217896	picture	0		83	169.0	/experiments/knapen_AOT/AOT_stimuli/pictures/1173_fw.png	198.43995547294617	0.6879544258117676
171	139.61018824577332	response	0	j		169.0	/experiments/knapen_AOT/AOT_stimuli/pictures/1173_fw.png	199.11214351654053	
172	139.62595462799072	picture	0		78	170.0	/experiments/knapen_AOT/AOT_stimuli/pictures/0275_fw.png	199.12790989875793	0.6583712100982666
172	140.268000125885	response	0	k		170.0	/experiments/knapen_AOT/AOT_stimuli/pictures/0275_fw.png	199.76995539665222	
173	140.284325838089	picture	0		115	171.0	/experiments/knapen_AOT/AOT_stimuli/pictures/0730_fw.png	199.7862811088562	0.9592373371124268
173	141.23454332351685	response	0	k		171.0	/experiments/knapen_AOT/AOT_stimuli/pictures/0730_fw.png	200.73649859428406	
174	141.24356317520142	picture	0		91	172.0	/experiments/knapen_AOT/AOT_stimuli/pictures/0400_fw.png	200.74551844596863	0.765777587890625
174	141.99301958084106	response	0	k		172.0	/experiments/knapen_AOT/AOT_stimuli/pictures/0400_fw.png	201.49497485160828	
175	142.00934076309204	picture	0		106	173.0	/experiments/knapen_AOT/AOT_stimuli/pictures/1051_fw.png	201.51129603385925	0.8870232105255127
175	142.88450169563293	response	0	k		173.0	/experiments/knapen_AOT/AOT_stimuli/pictures/1051_fw.png	202.38645696640015	
176	142.89636397361755	picture	0		85	174.0	/experiments/knapen_AOT/AOT_stimuli/pictures/0575_fw.png	202.39831924438477	0.712975263595581
176	143.58614492416382	response	0	k		174.0	/experiments/knapen_AOT/AOT_stimuli/pictures/0575_fw.png	203.08810019493103	
177	143.60933923721313	picture	0		80	175.0	/experiments/knapen_AOT/AOT_stimuli/pictures/0134_fw.png	203.11129450798035	0.6750102043151855
177	144.26802110671997	response	0	j		175.0	/experiments/knapen_AOT/AOT_stimuli/pictures/0134_fw.png	203.76997637748718	
178	144.28434944152832	picture	0		83	176.0	/experiments/knapen_AOT/AOT_stimuli/pictures/1483_fw.png	203.78630471229553	0.7000529766082764
178	144.96782898902893	response	0	k		176.0	/experiments/knapen_AOT/AOT_stimuli/pictures/1483_fw.png	204.46978425979614	
179	144.9844024181366	picture	0		83	177.0	/experiments/knapen_AOT/AOT_stimuli/pictures/1888_fw.png	204.4863576889038	0.6966812610626221
179	145.66780281066895	response	0	k		177.0	/experiments/knapen_AOT/AOT_stimuli/pictures/1888_fw.png	205.16975808143616	
180	145.68108367919922	picture	0		76	178.0	/experiments/knapen_AOT/AOT_stimuli/pictures/2127_fw.png	205.18303894996643	0.6319582462310791
180	146.30122208595276	response	0	j		178.0	/experiments/knapen_AOT/AOT_stimuli/pictures/2127_fw.png	205.80317735671997	
181	146.3130419254303	picture	0		84	179.0	/experiments/knapen_AOT/AOT_stimuli/pictures/1187_fw.png	205.8149971961975	0.7047927379608154
181	146.99486327171326	response	0	j		179.0	/experiments/knapen_AOT/AOT_stimuli/pictures/1187_fw.png	206.49681854248047	
182	147.0178346633911	picture	0		88	180.0	/experiments/knapen_AOT/AOT_stimuli/pictures/1315_fw.png	206.51978993415833	0.73319411277771
182	147.74282550811768	response	0	k		180.0	/experiments/knapen_AOT/AOT_stimuli/pictures/1315_fw.png	207.2447807788849	
183	147.75102877616882	picture	0		90	181.0	/experiments/knapen_AOT/AOT_stimuli/pictures/0362_fw.png	207.25298404693604	0.7583866119384766
183	148.49296236038208	response	0	k		181.0	/experiments/knapen_AOT/AOT_stimuli/pictures/0362_fw.png	207.9949176311493	
184	148.5094153881073	picture	0		75	182.0	/experiments/knapen_AOT/AOT_stimuli/pictures/2139_fw.png	208.0113706588745	0.6300508975982666
184	149.12620162963867	response	0	j		182.0	/experiments/knapen_AOT/AOT_stimuli/pictures/2139_fw.png	208.62815690040588	
185	149.13946628570557	picture	0		91	183.0	/experiments/knapen_AOT/AOT_stimuli/pictures/1755_fw.png	208.64142155647278	0.763857364654541
185	149.89294052124023	response	0	j		183.0	/experiments/knapen_AOT/AOT_stimuli/pictures/1755_fw.png	209.39489579200745	
186	149.9033236503601	picture	0		107	184.0	/experiments/knapen_AOT/AOT_stimuli/pictures/0029_fw.png	209.40527892112732	0.8977560997009277
186	150.78456234931946	response	0	j		184.0	/experiments/knapen_AOT/AOT_stimuli/pictures/0029_fw.png	210.28651762008667	
187	150.80107975006104	picture	0		81	185.0	/experiments/knapen_AOT/AOT_stimuli/pictures/1559_fw.png	210.30303502082825	0.6786496639251709
187	151.4679355621338	response	0	k		185.0	/experiments/knapen_AOT/AOT_stimuli/pictures/1559_fw.png	210.969890832901	
188	151.4797294139862	picture	0		104	186.0	/experiments/knapen_AOT/AOT_stimuli/pictures/0651_fw.png	210.98168468475342	1.0046980381011963
188	152.46808576583862	response	0	k		186.0	/experiments/knapen_AOT/AOT_stimuli/pictures/0651_fw.png	211.97004103660583	
189	152.4844274520874	picture	0		110	187.0	/experiments/knapen_AOT/AOT_stimuli/pictures/1288_fw.png	211.98638272285461	0.9189119338989258
189	153.3929958343506	response	0	k		187.0	/experiments/knapen_AOT/AOT_stimuli/pictures/1288_fw.png	212.8949511051178	
190	153.40333938598633	picture	0		64	188.0	/experiments/knapen_AOT/AOT_stimuli/pictures/1030_fw.png	212.90529465675354	0.5347533226013184
190	153.92633318901062	response	0	j		188.0	/experiments/knapen_AOT/AOT_stimuli/pictures/1030_fw.png	213.42828845977783	
191	153.93809270858765	picture	0		88	189.0	/experiments/knapen_AOT/AOT_stimuli/pictures/1297_fw.png	213.44004797935486	0.7380533218383789
191	154.65960931777954	response	0	j		189.0	/experiments/knapen_AOT/AOT_stimuli/pictures/1297_fw.png	214.16156458854675	
192	154.67614603042603	picture	0		68	190.0	/experiments/knapen_AOT/AOT_stimuli/pictures/0965_fw.png	214.17810130119324	0.5674681663513184
192	155.2346475124359	response	0	k		190.0	/experiments/knapen_AOT/AOT_stimuli/pictures/0965_fw.png	214.73660278320312	
193	155.24361419677734	picture	0		108	191.0	/experiments/knapen_AOT/AOT_stimuli/pictures/1044_fw.png	214.74556946754456	0.9076981544494629
193	156.13464403152466	response	0	k		191.0	/experiments/knapen_AOT/AOT_stimuli/pictures/1044_fw.png	215.63659930229187	
194	156.1513123512268	picture	0		104	192.0	/experiments/knapen_AOT/AOT_stimuli/pictures/1487_fw.png	215.65326762199402	0.870093822479248
194	157.0099356174469	response	0	k		192.0	/experiments/knapen_AOT/AOT_stimuli/pictures/1487_fw.png	216.5118908882141	
195	157.02140617370605	picture	0		103	193.0	/experiments/knapen_AOT/AOT_stimuli/pictures/0395_fw.png	216.52336144447327	0.8547413349151611
195	157.86806273460388	response	0	k		193.0	/experiments/knapen_AOT/AOT_stimuli/pictures/0395_fw.png	217.3700180053711	
196	157.87614750862122	picture	0		76	194.0	/experiments/knapen_AOT/AOT_stimuli/pictures/1598_fw.png	217.37810277938843	0.6383426189422607
196	158.501362323761	response	0	j		194.0	/experiments/knapen_AOT/AOT_stimuli/pictures/1598_fw.png	218.0033175945282	
197	158.51449012756348	picture	0		85	195.0	/experiments/knapen_AOT/AOT_stimuli/pictures/1058_fw.png	218.0164453983307	0.7152626514434814
197	159.21803259849548	response	0	j		195.0	/experiments/knapen_AOT/AOT_stimuli/pictures/1058_fw.png	218.7199878692627	
198	159.22975277900696	picture	0		107	196.0	/experiments/knapen_AOT/AOT_stimuli/pictures/1855_fw.png	218.73170804977417	0.8888859748840332
198	160.1097981929779	response	0	j		196.0	/experiments/knapen_AOT/AOT_stimuli/pictures/1855_fw.png	219.61175346374512	
199	160.118638753891	picture	0		99	197.0	/experiments/knapen_AOT/AOT_stimuli/pictures/0469_fw.png	219.6205940246582	0.8325438499450684
199	160.9347014427185	response	0	k		197.0	/experiments/knapen_AOT/AOT_stimuli/pictures/0469_fw.png	220.43665671348572	
200	160.95118260383606	picture	0		109	198.0	/experiments/knapen_AOT/AOT_stimuli/pictures/1271_fw.png	220.45313787460327	0.916682243347168
200	161.85170578956604	response	0	k		198.0	/experiments/knapen_AOT/AOT_stimuli/pictures/1271_fw.png	221.35366106033325	
201	161.86786484718323	picture	0		103	199.0	/experiments/knapen_AOT/AOT_stimuli/pictures/1583_fw.png	221.36982011795044	0.8619194030761719
201	162.71802830696106	response	0	k		199.0	/experiments/knapen_AOT/AOT_stimuli/pictures/1583_fw.png	222.21998357772827	
202	162.7297842502594	picture	0		78	200.0	/experiments/knapen_AOT/AOT_stimuli/pictures/1564_fw.png	222.2317395210266	0.6528050899505615
202	163.3680489063263	response	0	j		200.0	/experiments/knapen_AOT/AOT_stimuli/pictures/1564_fw.png	222.8700041770935	
203	163.38258934020996	picture	0		88	201.0	/experiments/knapen_AOT/AOT_stimuli/pictures/1178_fw.png	222.88454461097717	0.7436306476593018
203	164.1097457408905	response	0	k		201.0	/experiments/knapen_AOT/AOT_stimuli/pictures/1178_fw.png	223.61170101165771	
204	164.12621998786926	picture	0		81	202.0	/experiments/knapen_AOT/AOT_stimuli/pictures/1084_fw.png	223.62817525863647	0.6833839416503906
204	164.79311180114746	response	0	j		202.0	/experiments/knapen_AOT/AOT_stimuli/pictures/1084_fw.png	224.29506707191467	
205	164.80960392951965	picture	0		82	203.0	/experiments/knapen_AOT/AOT_stimuli/pictures/0094_fw.png	224.31155920028687	0.6917328834533691
205	165.48476028442383	response	0	k		203.0	/experiments/knapen_AOT/AOT_stimuli/pictures/0094_fw.png	224.98671555519104	
206	165.50133681297302	picture	0		85	204.0	/experiments/knapen_AOT/AOT_stimuli/pictures/1947_fw.png	225.00329208374023	0.7166199684143066
206	166.1938283443451	response	0	k		204.0	/experiments/knapen_AOT/AOT_stimuli/pictures/1947_fw.png	225.6957836151123	
207	166.21795678138733	picture	0		82	205.0	/experiments/knapen_AOT/AOT_stimuli/pictures/2108_fw.png	225.71991205215454	0.685469388961792
207	166.89314079284668	response	0	k		205.0	/experiments/knapen_AOT/AOT_stimuli/pictures/2108_fw.png	226.3950960636139	
208	166.90342617034912	picture	0		74	206.0	/experiments/knapen_AOT/AOT_stimuli/pictures/2086_fw.png	226.40538144111633	0.6229081153869629
208	167.509840965271	response	0	k		206.0	/experiments/knapen_AOT/AOT_stimuli/pictures/2086_fw.png	227.0117962360382	
209	167.52633428573608	picture	0		98	207.0	/experiments/knapen_AOT/AOT_stimuli/pictures/0521_fw.png	227.0282895565033	0.8249850273132324
209	168.33481788635254	response	0	k		207.0	/experiments/knapen_AOT/AOT_stimuli/pictures/0521_fw.png	227.83677315711975	
210	168.35131931304932	picture	0		85	208.0	/experiments/knapen_AOT/AOT_stimuli/pictures/2077_fw.png	227.85327458381653	0.7118709087371826
210	169.05150771141052	response	0	j		208.0	/experiments/knapen_AOT/AOT_stimuli/pictures/2077_fw.png	228.55346298217773	
211	169.0631902217865	picture	0		76	209.0	/experiments/knapen_AOT/AOT_stimuli/pictures/1421_fw.png	228.5651454925537	0.6389405727386475
211	169.68511819839478	response	0	j		209.0	/experiments/knapen_AOT/AOT_stimuli/pictures/1421_fw.png	229.187073469162	
212	169.70213079452515	picture	0		114	210.0	/experiments/knapen_AOT/AOT_stimuli/pictures/1175_fw.png	229.20408606529236	0.9513530731201172
212	170.6431860923767	response	0	j		210.0	/experiments/knapen_AOT/AOT_stimuli/pictures/1175_fw.png	230.14514136314392	
213	170.65348386764526	picture	0		100	211.0	/experiments/knapen_AOT/AOT_stimuli/pictures/1473_fw.png	230.15543913841248	0.8395285606384277
213	171.4765739440918	response	0	j		211.0	/experiments/knapen_AOT/AOT_stimuli/pictures/1473_fw.png	230.978529214859	
214	171.4930124282837	picture	0		97	212.0	/experiments/knapen_AOT/AOT_stimuli/pictures/1999_fw.png	230.9949676990509	0.8132743835449219
214	172.2932164669037	response	0	k		212.0	/experiments/knapen_AOT/AOT_stimuli/pictures/1999_fw.png	231.7951717376709	
215	172.3062868118286	picture	0		85	213.0	/experiments/knapen_AOT/AOT_stimuli/pictures/0330_fw.png	231.80824208259583	0.711798906326294
215	172.99393558502197	response	0	j		213.0	/experiments/knapen_AOT/AOT_stimuli/pictures/0330_fw.png	232.49589085578918	
216	173.0180857181549	picture	0		130	214.0	/experiments/knapen_AOT/AOT_stimuli/pictures/2133_fw.png	232.52004098892212	1.0916945934295654
216	174.09342575073242	response	0	k		214.0	/experiments/knapen_AOT/AOT_stimuli/pictures/2133_fw.png	233.59538102149963	
217	174.10978031158447	picture	0		82	215.0	/experiments/knapen_AOT/AOT_stimuli/pictures/0382_fw.png	233.61173558235168	0.6916489601135254
217	174.78493928909302	response	0	k		215.0	/experiments/knapen_AOT/AOT_stimuli/pictures/0382_fw.png	234.28689455986023	
218	174.801429271698	picture	0		104	216.0	/experiments/knapen_AOT/AOT_stimuli/pictures/1145_fw.png	234.3033845424652	0.866621732711792
218	175.65994024276733	response	0	k		216.0	/experiments/knapen_AOT/AOT_stimuli/pictures/1145_fw.png	235.16189551353455	
219	175.6680510044098	picture	0		103	217.0	/experiments/knapen_AOT/AOT_stimuli/pictures/1776_fw.png	235.170006275177	0.8604774475097656
219	176.51826548576355	response	0	k		217.0	/experiments/knapen_AOT/AOT_stimuli/pictures/1776_fw.png	236.02022075653076	
220	176.52852845191956	picture	0		76	218.0	/experiments/knapen_AOT/AOT_stimuli/pictures/0099_fw.png	236.03048372268677	0.6395688056945801
220	177.15161061286926	response	0	k		218.0	/experiments/knapen_AOT/AOT_stimuli/pictures/0099_fw.png	236.65356588363647	
221	177.16809725761414	picture	0		81	219.0	/experiments/knapen_AOT/AOT_stimuli/pictures/0654_fw.png	236.67005252838135	0.6834065914154053
221	177.83498120307922	response	0	j		219.0	/experiments/knapen_AOT/AOT_stimuli/pictures/0654_fw.png	237.33693647384644	
222	177.85150384902954	picture	0		109	220.0	/experiments/knapen_AOT/AOT_stimuli/pictures/1615_fw.png	237.35345911979675	0.9131741523742676
222	178.7516655921936	response	0	k		220.0	/experiments/knapen_AOT/AOT_stimuli/pictures/1615_fw.png	238.25362086296082	
223	178.7646780014038	picture	0		102	221.0	/experiments/knapen_AOT/AOT_stimuli/pictures/1442_fw.png	238.26663327217102	0.8472135066986084
223	179.59527945518494	response	0	k		221.0	/experiments/knapen_AOT/AOT_stimuli/pictures/1442_fw.png	239.09723472595215	
224	179.61189150810242	picture	0		121	222.0	/experiments/knapen_AOT/AOT_stimuli/pictures/0374_fw.png	239.11384677886963	1.006932020187378
224	180.6100368499756	response	0	j		222.0	/experiments/knapen_AOT/AOT_stimuli/pictures/0374_fw.png	240.1119921207428	
225	180.6188235282898	picture	0		80	223.0	/experiments/knapen_AOT/AOT_stimuli/pictures/0670_fw.png	240.120778799057	0.6743640899658203
225	181.27671194076538	response	0	k		223.0	/experiments/knapen_AOT/AOT_stimuli/pictures/0670_fw.png	240.7786672115326	
226	181.29318761825562	picture	0		111	224.0	/experiments/knapen_AOT/AOT_stimuli/pictures/0101_fw.png	240.79514288902283	0.9333186149597168
226	182.21005702018738	response	0	k		224.0	/experiments/knapen_AOT/AOT_stimuli/pictures/0101_fw.png	241.7120122909546	
227	182.22650623321533	picture	0		93	225.0	/experiments/knapen_AOT/AOT_stimuli/pictures/1573_fw.png	241.72846150398254	0.7812795639038086
227	182.9862813949585	response	0	j		225.0	/experiments/knapen_AOT/AOT_stimuli/pictures/1573_fw.png	242.4882366657257	
228	183.00778579711914	picture	0		89	226.0	/experiments/knapen_AOT/AOT_stimuli/pictures/0980_fw.png	242.50974106788635	0.7520687580108643
228	183.7433943748474	response	0	j		226.0	/experiments/knapen_AOT/AOT_stimuli/pictures/0980_fw.png	243.24534964561462	
229	183.75985455513	picture	0		73	227.0	/experiments/knapen_AOT/AOT_stimuli/pictures/1665_fw.png	243.26180982589722	0.6090319156646729
229	184.36010789871216	response	0	j		227.0	/experiments/knapen_AOT/AOT_stimuli/pictures/1665_fw.png	243.86206316947937	
230	184.36888647079468	picture	0		124	228.0	/experiments/knapen_AOT/AOT_stimuli/pictures/0659_fw.png	243.8708417415619	1.0347299575805664
230	185.38666319847107	response	0	k		228.0	/experiments/knapen_AOT/AOT_stimuli/pictures/0659_fw.png	244.88861846923828	
231	185.40361642837524	picture	0		79	229.0	/experiments/knapen_AOT/AOT_stimuli/pictures/2072_fw.png	244.90557169914246	0.66463303565979
231	186.05195784568787	response	0	j		229.0	/experiments/knapen_AOT/AOT_stimuli/pictures/2072_fw.png	245.55391311645508	
232	186.06824946403503	picture	0		83	230.0	/experiments/knapen_AOT/AOT_stimuli/pictures/0276_fw.png	245.57020473480225	0.7000012397766113
232	186.75196480751038	response	0	j		230.0	/experiments/knapen_AOT/AOT_stimuli/pictures/0276_fw.png	246.2539200782776	
233	186.76825070381165	picture	0		81	231.0	/experiments/knapen_AOT/AOT_stimuli/pictures/0901_fw.png	246.27020597457886	0.6833395957946777
233	187.43511652946472	response	0	k		231.0	/experiments/knapen_AOT/AOT_stimuli/pictures/0901_fw.png	246.93707180023193	
234	187.45159029960632	picture	0		85	232.0	/experiments/knapen_AOT/AOT_stimuli/pictures/1873_fw.png	246.95354557037354	0.7166979312896729
234	188.15176343917847	response	0	j		232.0	/experiments/knapen_AOT/AOT_stimuli/pictures/1873_fw.png	247.65371870994568	
235	188.168288230896	picture	0		79	233.0	/experiments/knapen_AOT/AOT_stimuli/pictures/0417_fw.png	247.6702435016632	0.6589646339416504
235	188.81847190856934	response	0	k		233.0	/experiments/knapen_AOT/AOT_stimuli/pictures/0417_fw.png	248.32042717933655	
236	188.82725286483765	picture	0		78	234.0	/experiments/knapen_AOT/AOT_stimuli/pictures/0206_fw.png	248.32920813560486	0.6577503681182861
236	189.46851468086243	response	0	k		234.0	/experiments/knapen_AOT/AOT_stimuli/pictures/0206_fw.png	248.97046995162964	
237	189.48500323295593	picture	0		91	235.0	/experiments/knapen_AOT/AOT_stimuli/pictures/2042_fw.png	248.98695850372314	0.7666141986846924
237	190.23516392707825	response	0	j		235.0	/experiments/knapen_AOT/AOT_stimuli/pictures/2042_fw.png	249.73711919784546	
238	190.25161743164062	picture	0		92	236.0	/experiments/knapen_AOT/AOT_stimuli/pictures/1135_fw.png	249.75357270240784	0.8000426292419434
238	191.0101673603058	response	0	j		236.0	/experiments/knapen_AOT/AOT_stimuli/pictures/1135_fw.png	250.512122631073	
239	191.05166006088257	picture	0		76	237.0	/experiments/knapen_AOT/AOT_stimuli/pictures/0343_fw.png	250.55361533164978	0.6417696475982666
239	191.6768832206726	response	0	j		237.0	/experiments/knapen_AOT/AOT_stimuli/pictures/0343_fw.png	251.17883849143982	
240	191.69342970848083	picture	0		86	238.0	/experiments/knapen_AOT/AOT_stimuli/pictures/0710_fw.png	251.19538497924805	0.7248866558074951
240	192.40227961540222	response	0	j		238.0	/experiments/knapen_AOT/AOT_stimuli/pictures/0710_fw.png	251.90423488616943	
241	192.41831636428833	picture	0		99	239.0	/experiments/knapen_AOT/AOT_stimuli/pictures/0806_fw.png	251.92027163505554	0.8333775997161865
241	193.2353265285492	response	0	k		239.0	/experiments/knapen_AOT/AOT_stimuli/pictures/0806_fw.png	252.7372817993164	
242	193.25169396400452	picture	0		91	240.0	/experiments/knapen_AOT/AOT_stimuli/pictures/1024_fw.png	252.75364923477173	0.7666656970977783
242	194.00194001197815	response	0	k		240.0	/experiments/knapen_AOT/AOT_stimuli/pictures/1024_fw.png	253.50389528274536	
243	194.0183596611023	picture	0		89	241.0	/experiments/knapen_AOT/AOT_stimuli/pictures/0509_fw.png	253.5203149318695	0.7464747428894043
243	194.75189757347107	response	0	j		241.0	/experiments/knapen_AOT/AOT_stimuli/pictures/0509_fw.png	254.25385284423828	
244	194.7648344039917	picture	0		93	242.0	/experiments/knapen_AOT/AOT_stimuli/pictures/1163_fw.png	254.2667896747589	0.7708034515380859
244	195.52699422836304	response	0	k		242.0	/experiments/knapen_AOT/AOT_stimuli/pictures/1163_fw.png	255.02894949913025	
245	195.53563785552979	picture	0		81	243.0	/experiments/knapen_AOT/AOT_stimuli/pictures/1238_fw.png	255.037593126297	0.6743834018707275
245	196.19434309005737	response	0	k		243.0	/experiments/knapen_AOT/AOT_stimuli/pictures/1238_fw.png	255.69629836082458	
246	196.2100212574005	picture	0		95	244.0	/experiments/knapen_AOT/AOT_stimuli/pictures/1531_fw.png	255.71197652816772	0.8000540733337402
246	196.98690724372864	response	0	k		244.0	/experiments/knapen_AOT/AOT_stimuli/pictures/1531_fw.png	256.48886251449585	
247	197.01007533073425	picture	0		77	245.0	/experiments/knapen_AOT/AOT_stimuli/pictures/1619_fw.png	256.51203060150146	0.6499993801116943
247	197.64377856254578	response	0	k		245.0	/experiments/knapen_AOT/AOT_stimuli/pictures/1619_fw.png	257.145733833313	
248	197.66007471084595	picture	0		71	246.0	/experiments/knapen_AOT/AOT_stimuli/pictures/1097_fw.png	257.16202998161316	0.6001155376434326
248	198.24362707138062	response	0	j		246.0	/experiments/knapen_AOT/AOT_stimuli/pictures/1097_fw.png	257.7455823421478	
249	198.26019024848938	picture	0		77	247.0	/experiments/knapen_AOT/AOT_stimuli/pictures/0488_fw.png	257.7621455192566	0.6499030590057373
249	198.8939929008484	response	0	k		247.0	/experiments/knapen_AOT/AOT_stimuli/pictures/0488_fw.png	258.3959481716156	
250	198.91009330749512	picture	0		85	248.0	/experiments/knapen_AOT/AOT_stimuli/pictures/1368_fw.png	258.41204857826233	0.7166776657104492
250	199.61052942276	response	0	k		248.0	/experiments/knapen_AOT/AOT_stimuli/pictures/1368_fw.png	259.1124846935272	
251	199.62677097320557	picture	0		77	249.0	/experiments/knapen_AOT/AOT_stimuli/pictures/2117_fw.png	259.1287262439728	0.6500153541564941
251	200.26060795783997	response	0	j		249.0	/experiments/knapen_AOT/AOT_stimuli/pictures/2117_fw.png	259.7625632286072	
252	200.27678632736206	picture	0		86	250.0	/experiments/knapen_AOT/AOT_stimuli/pictures/1168_fw.png	259.7787415981293	0.7172558307647705
252	200.97870635986328	response	0	j		250.0	/experiments/knapen_AOT/AOT_stimuli/pictures/1168_fw.png	260.4806616306305	
253	200.99404215812683	picture	0		115	251.0	/experiments/knapen_AOT/AOT_stimuli/pictures/1193_fw.png	260.49599742889404	0.9661188125610352
253	201.94375729560852	response	0	k		251.0	/experiments/knapen_AOT/AOT_stimuli/pictures/1193_fw.png	261.44571256637573	
254	201.96016097068787	picture	0		84	252.0	/experiments/knapen_AOT/AOT_stimuli/pictures/0457_fw.png	261.4621162414551	0.7083404064178467
254	202.6520640850067	response	0	j		252.0	/experiments/knapen_AOT/AOT_stimuli/pictures/0457_fw.png	262.1540193557739	
255	202.6685013771057	picture	0		89	253.0	/experiments/knapen_AOT/AOT_stimuli/pictures/2137_fw.png	262.1704566478729	0.7499902248382568
255	203.40217185020447	response	0	j		253.0	/experiments/knapen_AOT/AOT_stimuli/pictures/2137_fw.png	262.9041271209717	
256	203.41849160194397	picture	0		71	254.0	/experiments/knapen_AOT/AOT_stimuli/pictures/1481_fw.png	262.9204468727112	0.6000308990478516
256	203.9947953224182	response	0	j		254.0	/experiments/knapen_AOT/AOT_stimuli/pictures/1481_fw.png	263.4967505931854	
257	204.01852250099182	picture	0		67	255.0	/experiments/knapen_AOT/AOT_stimuli/pictures/0952_fw.png	263.52047777175903	0.5667004585266113
257	204.56245160102844	response	0	k		255.0	/experiments/knapen_AOT/AOT_stimuli/pictures/0952_fw.png	264.06440687179565	
258	204.58522295951843	picture	0		84	256.0	/experiments/knapen_AOT/AOT_stimuli/pictures/0372_fw.png	264.08717823028564	0.7005062103271484
258	205.27710008621216	response	0	j		256.0	/experiments/knapen_AOT/AOT_stimuli/pictures/0372_fw.png	264.77905535697937	
259	205.28572916984558	picture	0		72	257.0	/experiments/knapen_AOT/AOT_stimuli/pictures/0087_fw.png	264.7876844406128	0.6042346954345703
259	205.87710428237915	response	0	k		257.0	/experiments/knapen_AOT/AOT_stimuli/pictures/0087_fw.png	265.37905955314636	
260	205.88996386528015	picture	0		91	258.0	/experiments/knapen_AOT/AOT_stimuli/pictures/0697_fw.png	265.39191913604736	0.7569258213043213
260	206.63539934158325	response	0	j		258.0	/experiments/knapen_AOT/AOT_stimuli/pictures/0697_fw.png	266.13735461235046	
261	206.64688968658447	picture	0		85	259.0	/experiments/knapen_AOT/AOT_stimuli/pictures/2083_fw.png	266.1488449573517	0.708362340927124
261	207.34372305870056	response	0	k		259.0	/experiments/knapen_AOT/AOT_stimuli/pictures/2083_fw.png	266.8456783294678	
262	207.3552520275116	picture	0		89	260.0	/experiments/knapen_AOT/AOT_stimuli/pictures/1075_fw.png	266.8572072982788	0.7466769218444824
262	208.08542776107788	response	0	j		260.0	/experiments/knapen_AOT/AOT_stimuli/pictures/1075_fw.png	267.5873830318451	
263	208.10192894935608	picture	0		86	261.0	/experiments/knapen_AOT/AOT_stimuli/pictures/0711_fw.png	267.6038842201233	0.7249948978424072
263	208.81060481071472	response	0	j		261.0	/experiments/knapen_AOT/AOT_stimuli/pictures/0711_fw.png	268.31256008148193	
264	208.8269238471985	picture	0		93	262.0	/experiments/knapen_AOT/AOT_stimuli/pictures/2040_fw.png	268.3288791179657	0.7833759784698486
264	209.58652639389038	response	0	j		262.0	/experiments/knapen_AOT/AOT_stimuli/pictures/2040_fw.png	269.0884816646576	
265	209.61029982566833	picture	0		86	263.0	/experiments/knapen_AOT/AOT_stimuli/pictures/0726_fw.png	269.11225509643555	0.7249865531921387
265	210.3188078403473	response	0	j		263.0	/experiments/knapen_AOT/AOT_stimuli/pictures/0726_fw.png	269.8207631111145	
266	210.33528637886047	picture	0		81	264.0	/experiments/knapen_AOT/AOT_stimuli/pictures/0987_fw.png	269.8372416496277	0.6833300590515137
266	211.00238919258118	response	0	k		264.0	/experiments/knapen_AOT/AOT_stimuli/pictures/0987_fw.png	270.5043444633484	
267	211.018616437912	picture	0		73	265.0	/experiments/knapen_AOT/AOT_stimuli/pictures/0369_fw.png	270.5205717086792	0.6144237518310547
267	211.61881804466248	response	0	j		265.0	/experiments/knapen_AOT/AOT_stimuli/pictures/0369_fw.png	271.1207733154297	
268	211.63304018974304	picture	0		110	266.0	/experiments/knapen_AOT/AOT_stimuli/pictures/1623_fw.png	271.13499546051025	0.9272933006286621
268	212.54386258125305	response	0	j		266.0	/experiments/knapen_AOT/AOT_stimuli/pictures/1623_fw.png	272.04581785202026	
269	212.5603334903717	picture	0		81	267.0	/experiments/knapen_AOT/AOT_stimuli/pictures/0436_fw.png	272.0622887611389	0.6833324432373047
269	213.22733640670776	response	0	k		267.0	/experiments/knapen_AOT/AOT_stimuli/pictures/0436_fw.png	272.729291677475	
270	213.243665933609	picture	0		108	268.0	/experiments/knapen_AOT/AOT_stimuli/pictures/1392_fw.png	272.7456212043762	0.9084367752075195
270	214.13555121421814	response	0	k		268.0	/experiments/knapen_AOT/AOT_stimuli/pictures/1392_fw.png	273.63750648498535	
271	214.15210270881653	picture	0		98	269.0	/experiments/knapen_AOT/AOT_stimuli/pictures/0162_fw.png	273.65405797958374	0.8249430656433105
271	214.96056199073792	response	0	j		269.0	/experiments/knapen_AOT/AOT_stimuli/pictures/0162_fw.png	274.4625172615051	
272	214.97704577445984	picture	0		73	270.0	/experiments/knapen_AOT/AOT_stimuli/pictures/0918_fw.png	274.47900104522705	0.6143913269042969
272	215.57719779014587	response	0	j		270.0	/experiments/knapen_AOT/AOT_stimuli/pictures/0918_fw.png	275.0791530609131	
273	215.59143710136414	picture	0		76	271.0	/experiments/knapen_AOT/AOT_stimuli/pictures/2122_fw.png	275.09339237213135	0.6439034938812256
273	216.2188937664032	response	0	k		271.0	/experiments/knapen_AOT/AOT_stimuli/pictures/2122_fw.png	275.7208490371704	
274	216.23534059524536	picture	0		98	272.0	/experiments/knapen_AOT/AOT_stimuli/pictures/1183_fw.png	275.7372958660126	0.8250412940979004
274	217.04411792755127	response	0	k		272.0	/experiments/knapen_AOT/AOT_stimuli/pictures/1183_fw.png	276.5460731983185	
275	217.06038188934326	picture	0		92	273.0	/experiments/knapen_AOT/AOT_stimuli/pictures/1493_fw.png	276.5623371601105	0.7749905586242676
275	217.81915187835693	response	0	j		273.0	/experiments/knapen_AOT/AOT_stimuli/pictures/1493_fw.png	277.32110714912415	
276	217.83537244796753	picture	0		83	274.0	/experiments/knapen_AOT/AOT_stimuli/pictures/1247_fw.png	277.33732771873474	0.7000298500061035
276	218.51892518997192	response	0	j		274.0	/experiments/knapen_AOT/AOT_stimuli/pictures/1247_fw.png	278.02088046073914	
277	218.53540229797363	picture	0		75	275.0	/experiments/knapen_AOT/AOT_stimuli/pictures/0850_fw.png	278.03735756874084	0.6254606246948242
277	219.15225672721863	response	0	j		275.0	/experiments/knapen_AOT/AOT_stimuli/pictures/0850_fw.png	278.65421199798584	
278	219.16086292266846	picture	0		108	276.0	/experiments/knapen_AOT/AOT_stimuli/pictures/0869_fw.png	278.66281819343567	0.9078679084777832
278	220.0522689819336	response	0	k		276.0	/experiments/knapen_AOT/AOT_stimuli/pictures/0869_fw.png	279.5542242527008	
279	220.06873083114624	picture	0		91	277.0	/experiments/knapen_AOT/AOT_stimuli/pictures/0295_fw.png	279.57068610191345	0.7588236331939697
279	220.81896710395813	response	0	k		277.0	/experiments/knapen_AOT/AOT_stimuli/pictures/0295_fw.png	280.32092237472534	
280	220.8275544643402	picture	0		76	278.0	/experiments/knapen_AOT/AOT_stimuli/pictures/1022_fw.png	280.3295097351074	0.6412217617034912
280	221.45228505134583	response	0	j		278.0	/experiments/knapen_AOT/AOT_stimuli/pictures/1022_fw.png	280.95424032211304	
281	221.4687762260437	picture	0		72	279.0	/experiments/knapen_AOT/AOT_stimuli/pictures/0005_fw.png	280.9707314968109	0.6018486022949219
281	222.06072306632996	response	0	j		279.0	/experiments/knapen_AOT/AOT_stimuli/pictures/0005_fw.png	281.56267833709717	
282	222.07062482833862	picture	0		69	280.0	/experiments/knapen_AOT/AOT_stimuli/pictures/0092_fw.png	281.57258009910583	0.58152174949646
282	222.63568139076233	response	0	j		280.0	/experiments/knapen_AOT/AOT_stimuli/pictures/0092_fw.png	282.13763666152954	
283	222.65214657783508	picture	0		99	281.0	/experiments/knapen_AOT/AOT_stimuli/pictures/0858_fw.png	282.1541018486023	0.8333063125610352
283	223.46901321411133	response	0	j		281.0	/experiments/knapen_AOT/AOT_stimuli/pictures/0858_fw.png	282.97096848487854	
284	223.48545289039612	picture	0		96	282.0	/experiments/knapen_AOT/AOT_stimuli/pictures/1704_fw.png	282.98740816116333	0.8083739280700684
284	224.2777237892151	response	0	j		282.0	/experiments/knapen_AOT/AOT_stimuli/pictures/1704_fw.png	283.7796790599823	
285	224.2938268184662	picture	0		91	283.0	/experiments/knapen_AOT/AOT_stimuli/pictures/0984_fw.png	283.7957820892334	0.7666666507720947
285	225.0442042350769	response	0	k		283.0	/experiments/knapen_AOT/AOT_stimuli/pictures/0984_fw.png	284.5461595058441	
286	225.06049346923828	picture	0		100	284.0	/experiments/knapen_AOT/AOT_stimuli/pictures/1104_fw.png	284.5624487400055	0.841681718826294
286	225.8856861591339	response	0	j		284.0	/experiments/knapen_AOT/AOT_stimuli/pictures/1104_fw.png	285.3876414299011	
287	225.90217518806458	picture	0		74	285.0	/experiments/knapen_AOT/AOT_stimuli/pictures/1593_fw.png	285.4041304588318	0.6250581741333008
287	226.5108184814453	response	0	k		285.0	/experiments/knapen_AOT/AOT_stimuli/pictures/1593_fw.png	286.0127737522125	
288	226.52723336219788	picture	0		83	286.0	/experiments/knapen_AOT/AOT_stimuli/pictures/0248_fw.png	286.0291886329651	0.6999824047088623
288	227.2109773159027	response	0	k		286.0	/experiments/knapen_AOT/AOT_stimuli/pictures/0248_fw.png	286.7129325866699	
289	227.22721576690674	picture	0		88	287.0	/experiments/knapen_AOT/AOT_stimuli/pictures/2090_fw.png	286.72917103767395	0.7416501045227051
289	227.95236086845398	response	0	j		287.0	/experiments/knapen_AOT/AOT_stimuli/pictures/2090_fw.png	287.4543161392212	
290	227.96886587142944	picture	0		101	288.0	/experiments/knapen_AOT/AOT_stimuli/pictures/0449_fw.png	287.47082114219666	0.8499763011932373
290	228.8023931980133	response	0	j		288.0	/experiments/knapen_AOT/AOT_stimuli/pictures/0449_fw.png	288.3043484687805	
291	228.81884217262268	picture	0		90	289.0	/experiments/knapen_AOT/AOT_stimuli/pictures/0066_fw.png	288.3207974433899	0.7583591938018799
291	229.5607705116272	response	0	j		289.0	/experiments/knapen_AOT/AOT_stimuli/pictures/0066_fw.png	289.0627257823944	
292	229.57720136642456	picture	0		94	290.0	/experiments/knapen_AOT/AOT_stimuli/pictures/0586_fw.png	289.0791566371918	0.79170823097229
292	230.3525161743164	response	0	k		290.0	/experiments/knapen_AOT/AOT_stimuli/pictures/0586_fw.png	289.8544714450836	
293	230.36890959739685	picture	0		141	291.0	/experiments/knapen_AOT/AOT_stimuli/pictures/1901_fw.png	289.87086486816406	1.1833274364471436
293	231.53602695465088	response	0	k		291.0	/experiments/knapen_AOT/AOT_stimuli/pictures/1901_fw.png	291.0379822254181	
294	231.552237033844	picture	0		92	292.0	/experiments/knapen_AOT/AOT_stimuli/pictures/0649_fw.png	291.0541923046112	0.7754318714141846
294	232.31103515625	response	0	k		292.0	/experiments/knapen_AOT/AOT_stimuli/pictures/0649_fw.png	291.8129904270172	
295	232.32766890525818	picture	0		71	293.0	/experiments/knapen_AOT/AOT_stimuli/pictures/1628_fw.png	291.8296241760254	0.5995786190032959
295	232.91085004806519	response	0	k		293.0	/experiments/knapen_AOT/AOT_stimuli/pictures/1628_fw.png	292.4128053188324	
296	232.92724752426147	picture	0		81	294.0	/experiments/knapen_AOT/AOT_stimuli/pictures/0870_fw.png	292.4292027950287	0.6781890392303467
296	233.58663868904114	response	0	k		294.0	/experiments/knapen_AOT/AOT_stimuli/pictures/0870_fw.png	293.08859395980835	
297	233.60543656349182	picture	0		87	295.0	/experiments/knapen_AOT/AOT_stimuli/pictures/0835_fw.png	293.10739183425903	0.7301547527313232
297	234.31912302970886	response	0	j		295.0	/experiments/knapen_AOT/AOT_stimuli/pictures/0835_fw.png	293.8210783004761	
298	234.33559131622314	picture	0		138	296.0	/experiments/knapen_AOT/AOT_stimuli/pictures/0920_fw.png	293.83754658699036	1.1583590507507324
298	235.47752356529236	response	0	k		296.0	/experiments/knapen_AOT/AOT_stimuli/pictures/0920_fw.png	294.97947883605957	
299	235.49395036697388	picture	0		133	297.0	/experiments/knapen_AOT/AOT_stimuli/pictures/0909_fw.png	294.9959056377411	1.1166965961456299
299	236.58646702766418	response	0	k		297.0	/experiments/knapen_AOT/AOT_stimuli/pictures/0909_fw.png	296.0884222984314	
300	236.6106469631195	picture	0		184	298.0	/experiments/knapen_AOT/AOT_stimuli/pictures/1347_fw.png	296.1126022338867	1.5416622161865234
300	238.13581442832947	response	0	k		298.0	/experiments/knapen_AOT/AOT_stimuli/pictures/1347_fw.png	297.6377696990967	
301	238.15230917930603	picture	0		109	299.0	/experiments/knapen_AOT/AOT_stimuli/pictures/0444_fw.png	297.65426445007324	0.9167115688323975
301	239.05251169204712	response	0	j		299.0	/experiments/knapen_AOT/AOT_stimuli/pictures/0444_fw.png	298.55446696281433	
302	239.06902074813843	picture	0		88	300.0	/experiments/knapen_AOT/AOT_stimuli/pictures/0254_fw.png	298.57097601890564	0.7416367530822754
302	239.7941858768463	response	0	j		300.0	/experiments/knapen_AOT/AOT_stimuli/pictures/0254_fw.png	299.2961411476135	
303	239.8106575012207	picture	0		79	301.0	/experiments/knapen_AOT/AOT_stimuli/pictures/1469_fw.png	299.3126127719879	0.6628930568695068
303	240.46088528633118	response	0	j		301.0	/experiments/knapen_AOT/AOT_stimuli/pictures/1469_fw.png	299.9628405570984	
304	240.4735505580902	picture	0		84	302.0	/experiments/knapen_AOT/AOT_stimuli/pictures/0699_fw.png	299.9755058288574	0.7037947177886963
304	241.16085696220398	response	0	j		302.0	/experiments/knapen_AOT/AOT_stimuli/pictures/0699_fw.png	300.6628122329712	
305	241.1773452758789	picture	0		74	303.0	/experiments/knapen_AOT/AOT_stimuli/pictures/1974_fw.png	300.6793005466461	0.6226096153259277
305	241.77828860282898	response	0	k		303.0	/experiments/knapen_AOT/AOT_stimuli/pictures/1974_fw.png	301.2802438735962	
306	241.79995489120483	picture	0		105	304.0	/experiments/knapen_AOT/AOT_stimuli/pictures/1385_fw.png	301.30191016197205	0.8857326507568359
306	242.6692419052124	response	0	j		304.0	/experiments/knapen_AOT/AOT_stimuli/pictures/1385_fw.png	302.1711971759796	
307	242.68568754196167	picture	0		89	305.0	/experiments/knapen_AOT/AOT_stimuli/pictures/1921_fw.png	302.1876428127289	0.750023603439331
307	243.41921472549438	response	0	j		305.0	/experiments/knapen_AOT/AOT_stimuli/pictures/1921_fw.png	302.9211699962616	
308	243.435711145401	picture	0		81	306.0	/experiments/knapen_AOT/AOT_stimuli/pictures/0321_fw.png	302.9376664161682	0.6833648681640625
308	244.10255932807922	response	0	j		306.0	/experiments/knapen_AOT/AOT_stimuli/pictures/0321_fw.png	303.60451459884644	
309	244.11907601356506	picture	0		66	307.0	/experiments/knapen_AOT/AOT_stimuli/pictures/1212_fw.png	303.6210312843323	0.5558757781982422
309	244.66090989112854	response	0	j		307.0	/experiments/knapen_AOT/AOT_stimuli/pictures/1212_fw.png	304.16286516189575	
310	244.6749517917633	picture	0		103	308.0	/experiments/knapen_AOT/AOT_stimuli/pictures/2066_fw.png	304.1769070625305	0.8690943717956543
310	245.52759981155396	response	0	j		308.0	/experiments/knapen_AOT/AOT_stimuli/pictures/2066_fw.png	305.02955508232117	
311	245.54404616355896	picture	0		69	309.0	/experiments/knapen_AOT/AOT_stimuli/pictures/1528_fw.png	305.0460014343262	0.5833370685577393
311	246.11131238937378	response	0	j		309.0	/experiments/knapen_AOT/AOT_stimuli/pictures/1528_fw.png	305.613267660141	
312	246.1273832321167	picture	0		79	310.0	/experiments/knapen_AOT/AOT_stimuli/pictures/1990_fw.png	305.6293385028839	0.6586713790893555
312	246.7710726261139	response	0	k		310.0	/experiments/knapen_AOT/AOT_stimuli/pictures/1990_fw.png	306.2730278968811	
313	246.78605461120605	picture	0		115	311.0	/experiments/knapen_AOT/AOT_stimuli/pictures/1635_fw.png	306.28800988197327	0.9663901329040527
313	247.73599123954773	response	0	j		311.0	/experiments/knapen_AOT/AOT_stimuli/pictures/1635_fw.png	307.23794651031494	
314	247.7524447441101	picture	0		97	312.0	/experiments/knapen_AOT/AOT_stimuli/pictures/0500_fw.png	307.2544000148773	0.8166317939758301
314	248.55266904830933	response	0	k		312.0	/experiments/knapen_AOT/AOT_stimuli/pictures/0500_fw.png	308.05462431907654	
315	248.56907653808594	picture	0		94	313.0	/experiments/knapen_AOT/AOT_stimuli/pictures/2059_fw.png	308.07103180885315	0.7916793823242188
315	249.34436988830566	response	0	j		313.0	/experiments/knapen_AOT/AOT_stimuli/pictures/2059_fw.png	308.8463251590729	
316	249.36075592041016	picture	0		124	314.0	/experiments/knapen_AOT/AOT_stimuli/pictures/0034_fw.png	308.86271119117737	1.0416674613952637
316	250.37863612174988	response	0	k		314.0	/experiments/knapen_AOT/AOT_stimuli/pictures/0034_fw.png	309.8805913925171	
317	250.40242338180542	picture	0		103	315.0	/experiments/knapen_AOT/AOT_stimuli/pictures/1958_fw.png	309.90437865257263	0.8666942119598389
317	251.2526240348816	response	0	k		315.0	/experiments/knapen_AOT/AOT_stimuli/pictures/1958_fw.png	310.7545793056488	
318	251.26911759376526	picture	0		65	316.0	/experiments/knapen_AOT/AOT_stimuli/pictures/2101_fw.png	310.77107286453247	0.5499823093414307
318	251.8027002811432	response	0	k		316.0	/experiments/knapen_AOT/AOT_stimuli/pictures/2101_fw.png	311.3046555519104	
319	251.8190999031067	picture	0		77	317.0	/experiments/knapen_AOT/AOT_stimuli/pictures/1095_fw.png	311.3210551738739	0.6500332355499268
319	252.45265579223633	response	0	k		317.0	/experiments/knapen_AOT/AOT_stimuli/pictures/1095_fw.png	311.95461106300354	
320	252.46913313865662	picture	0		97	318.0	/experiments/knapen_AOT/AOT_stimuli/pictures/1449_fw.png	311.9710884094238	0.8166828155517578
320	253.26935172080994	response	0	k		318.0	/experiments/knapen_AOT/AOT_stimuli/pictures/1449_fw.png	312.77130699157715	
321	253.28581595420837	picture	0		75	319.0	/experiments/knapen_AOT/AOT_stimuli/pictures/0848_fw.png	312.7877712249756	0.6334142684936523
321	253.90294122695923	response	0	k		319.0	/experiments/knapen_AOT/AOT_stimuli/pictures/0848_fw.png	313.40489649772644	
322	253.91923022270203	picture	0		78	320.0	/experiments/knapen_AOT/AOT_stimuli/pictures/0865_fw.png	313.42118549346924	0.6585776805877686
322	254.56126427650452	response	0	j		320.0	/experiments/knapen_AOT/AOT_stimuli/pictures/0865_fw.png	314.06321954727173	
323	254.5778079032898	picture	0		83	321.0	/experiments/knapen_AOT/AOT_stimuli/pictures/1139_fw.png	314.079763174057	0.6997148990631104
323	255.261057138443	response	0	j		321.0	/experiments/knapen_AOT/AOT_stimuli/pictures/1139_fw.png	314.7630124092102	
324	255.2775228023529	picture	0		72	322.0	/experiments/knapen_AOT/AOT_stimuli/pictures/0569_fw.png	314.7794780731201	0.6083433628082275
324	255.86937141418457	response	0	k		322.0	/experiments/knapen_AOT/AOT_stimuli/pictures/0569_fw.png	315.3713266849518	
325	255.88586616516113	picture	0		95	323.0	/experiments/knapen_AOT/AOT_stimuli/pictures/1961_fw.png	315.38782143592834	0.7999944686889648
325	256.6693859100342	response	0	k		323.0	/experiments/knapen_AOT/AOT_stimuli/pictures/1961_fw.png	316.1713411808014	
326	256.6858606338501	picture	0		92	324.0	/experiments/knapen_AOT/AOT_stimuli/pictures/0535_fw.png	316.1878159046173	0.7750053405761719
326	257.4444172382355	response	0	j		324.0	/experiments/knapen_AOT/AOT_stimuli/pictures/0535_fw.png	316.9463725090027	
327	257.46086597442627	picture	0		77	325.0	/experiments/knapen_AOT/AOT_stimuli/pictures/0002_fw.png	316.9628212451935	0.6499934196472168
327	258.0944609642029	response	0	k		325.0	/experiments/knapen_AOT/AOT_stimuli/pictures/0002_fw.png	317.5964162349701	
328	258.1108593940735	picture	0		92	326.0	/experiments/knapen_AOT/AOT_stimuli/pictures/1769_fw.png	317.6128146648407	0.7750225067138672
328	258.8694281578064	response	0	j		326.0	/experiments/knapen_AOT/AOT_stimuli/pictures/1769_fw.png	318.3713834285736	
329	258.88588190078735	picture	0		80	327.0	/experiments/knapen_AOT/AOT_stimuli/pictures/0597_fw.png	318.38783717155457	0.6750636100769043
329	259.54440808296204	response	0	k		327.0	/experiments/knapen_AOT/AOT_stimuli/pictures/0597_fw.png	319.04636335372925	
330	259.56094551086426	picture	0		92	328.0	/experiments/knapen_AOT/AOT_stimuli/pictures/0006_fw.png	319.06290078163147	0.774972677230835
330	260.3194136619568	response	0	k		328.0	/experiments/knapen_AOT/AOT_stimuli/pictures/0006_fw.png	319.821368932724	
331	260.3359181880951	picture	0		95	329.0	/experiments/knapen_AOT/AOT_stimuli/pictures/0452_fw.png	319.8378734588623	0.7974853515625
331	261.11939787864685	response	0	j		329.0	/experiments/knapen_AOT/AOT_stimuli/pictures/0452_fw.png	320.62135314941406	
332	261.1334035396576	picture	0		100	330.0	/experiments/knapen_AOT/AOT_stimuli/pictures/1159_fw.png	320.6353588104248	0.8441905975341797
332	261.96116733551025	response	0	j		330.0	/experiments/knapen_AOT/AOT_stimuli/pictures/1159_fw.png	321.46312260627747	
333	261.9775941371918	picture	0		121	331.0	/experiments/knapen_AOT/AOT_stimuli/pictures/0185_fw.png	321.479549407959	1.0166535377502441
333	262.97040462493896	response	0	j		331.0	/experiments/knapen_AOT/AOT_stimuli/pictures/0185_fw.png	322.4723598957062	
334	262.994247674942	picture	0		74	332.0	/experiments/knapen_AOT/AOT_stimuli/pictures/0484_fw.png	322.49620294570923	0.625016450881958
334	263.6028039455414	response	0	j		332.0	/experiments/knapen_AOT/AOT_stimuli/pictures/0484_fw.png	323.1047592163086	
335	263.619264125824	picture	0		79	333.0	/experiments/knapen_AOT/AOT_stimuli/pictures/0709_fw.png	323.1212193965912	0.6667885780334473
335	264.2696304321289	response	0	j		333.0	/experiments/knapen_AOT/AOT_stimuli/pictures/0709_fw.png	323.7715857028961	
336	264.2860527038574	picture	0		161	334.0	/experiments/knapen_AOT/AOT_stimuli/pictures/2069_fw.png	323.78800797462463	1.3500516414642334
336	265.61950516700745	response	0	k		334.0	/experiments/knapen_AOT/AOT_stimuli/pictures/2069_fw.png	325.12146043777466	
337	265.63610434532166	picture	0		80	335.0	/experiments/knapen_AOT/AOT_stimuli/pictures/2166_fw.png	325.13805961608887	0.6749029159545898
337	266.294554233551	response	0	k		335.0	/experiments/knapen_AOT/AOT_stimuli/pictures/2166_fw.png	325.79650950431824	
338	266.31100726127625	picture	0		94	336.0	/experiments/knapen_AOT/AOT_stimuli/pictures/1375_fw.png	325.81296253204346	0.7916233539581299
338	267.0863780975342	response	0	k		336.0	/experiments/knapen_AOT/AOT_stimuli/pictures/1375_fw.png	326.5883333683014	
339	267.1026306152344	picture	0		96	337.0	/experiments/knapen_AOT/AOT_stimuli/pictures/0147_fw.png	326.6045858860016	0.8085782527923584
339	267.8949589729309	response	0	j		337.0	/experiments/knapen_AOT/AOT_stimuli/pictures/0147_fw.png	327.3969142436981	
340	267.91120886802673	picture	0		84	338.0	/experiments/knapen_AOT/AOT_stimuli/pictures/2065_fw.png	327.41316413879395	0.7081098556518555
340	268.60302209854126	response	0	j		338.0	/experiments/knapen_AOT/AOT_stimuli/pictures/2065_fw.png	328.1049773693085	
341	268.6193187236786	picture	0		79	339.0	/experiments/knapen_AOT/AOT_stimuli/pictures/2061_fw.png	328.1212739944458	0.6666741371154785
341	269.26955461502075	response	0	j		339.0	/experiments/knapen_AOT/AOT_stimuli/pictures/2061_fw.png	328.77150988578796	
342	269.28599286079407	picture	0		89	340.0	/experiments/knapen_AOT/AOT_stimuli/pictures/0228_fw.png	328.7879481315613	0.7500109672546387
342	270.01952290534973	response	0	k		340.0	/experiments/knapen_AOT/AOT_stimuli/pictures/0228_fw.png	329.52147817611694	
343	270.0360038280487	picture	0		131	341.0	/experiments/knapen_AOT/AOT_stimuli/pictures/1387_fw.png	329.5379590988159	1.1000216007232666
343	271.12018299102783	response	0	j		341.0	/experiments/knapen_AOT/AOT_stimuli/pictures/1387_fw.png	330.62213826179504	
344	271.136025428772	picture	0		156	342.0	/experiments/knapen_AOT/AOT_stimuli/pictures/0146_fw.png	330.6379806995392	1.3083510398864746
344	272.42785000801086	response	0	j		342.0	/experiments/knapen_AOT/AOT_stimuli/pictures/0146_fw.png	331.9298052787781	
345	272.44437646865845	picture	0		89	343.0	/experiments/knapen_AOT/AOT_stimuli/pictures/1770_fw.png	331.94633173942566	0.7499959468841553
345	273.1714217662811	response	0	j		343.0	/experiments/knapen_AOT/AOT_stimuli/pictures/1770_fw.png	332.67337703704834	
346	273.1943724155426	picture	0		101	344.0	/experiments/knapen_AOT/AOT_stimuli/pictures/1488_fw.png	332.6963276863098	0.850034236907959
346	274.0278809070587	response	0	j		344.0	/experiments/knapen_AOT/AOT_stimuli/pictures/1488_fw.png	333.5298361778259	
347	274.04440665245056	picture	0		91	345.0	/experiments/knapen_AOT/AOT_stimuli/pictures/0684_fw.png	333.5463619232178	0.7626833915710449
347	274.7945456504822	response	0	k		345.0	/experiments/knapen_AOT/AOT_stimuli/pictures/0684_fw.png	334.2965009212494	
348	274.8070900440216	picture	0		71	346.0	/experiments/knapen_AOT/AOT_stimuli/pictures/0036_fw.png	334.3090453147888	0.5956084728240967
348	275.3862087726593	response	0	k		346.0	/experiments/knapen_AOT/AOT_stimuli/pictures/0036_fw.png	334.8881640434265	
349	275.4026985168457	picture	0		71	347.0	/experiments/knapen_AOT/AOT_stimuli/pictures/0299_fw.png	334.9046537876129	0.6000161170959473
349	275.9869136810303	response	0	k		347.0	/experiments/knapen_AOT/AOT_stimuli/pictures/0299_fw.png	335.4888689517975	
350	276.00271463394165	picture	0		88	348.0	/experiments/knapen_AOT/AOT_stimuli/pictures/1775_fw.png	335.50466990470886	0.7417027950286865
350	276.7279419898987	response	0	k		348.0	/experiments/knapen_AOT/AOT_stimuli/pictures/1775_fw.png	336.2298972606659	
351	276.74441742897034	picture	0		69	349.0	/experiments/knapen_AOT/AOT_stimuli/pictures/2019_fw.png	336.24637269973755	0.5833537578582764
351	277.31133246421814	response	0	j		349.0	/experiments/knapen_AOT/AOT_stimuli/pictures/2019_fw.png	336.81328773498535	
352	277.3277711868286	picture	0		87	350.0	/experiments/knapen_AOT/AOT_stimuli/pictures/1624_fw.png	336.8297264575958	0.7332875728607178
352	278.04452896118164	response	0	k		350.0	/experiments/knapen_AOT/AOT_stimuli/pictures/1624_fw.png	337.54648423194885	
353	278.06105875968933	picture	0		182	351.0	/experiments/knapen_AOT/AOT_stimuli/pictures/1462_fw.png	337.56301403045654	1.5250537395477295
353	279.56351494789124	response	0	k		351.0	/experiments/knapen_AOT/AOT_stimuli/pictures/1462_fw.png	339.06547021865845	
354	279.58611249923706	picture	0		87	352.0	/experiments/knapen_AOT/AOT_stimuli/pictures/0624_fw.png	339.0880677700043	0.7333388328552246
354	280.30294132232666	response	0	k		352.0	/experiments/knapen_AOT/AOT_stimuli/pictures/0624_fw.png	339.8048965930939	
355	280.3194513320923	picture	0		80	353.0	/experiments/knapen_AOT/AOT_stimuli/pictures/0573_fw.png	339.8214066028595	0.6751561164855957
355	280.9714560508728	response	0	k		353.0	/experiments/knapen_AOT/AOT_stimuli/pictures/0573_fw.png	340.47341132164	
356	280.9946074485779	picture	0		82	354.0	/experiments/knapen_AOT/AOT_stimuli/pictures/1756_fw.png	340.4965627193451	0.6915192604064941
356	281.66984272003174	response	0	j		354.0	/experiments/knapen_AOT/AOT_stimuli/pictures/1756_fw.png	341.17179799079895	
357	281.6861267089844	picture	0		113	355.0	/experiments/knapen_AOT/AOT_stimuli/pictures/1732_fw.png	341.1880819797516	0.9499962329864502
357	282.620001077652	response	0	k		355.0	/experiments/knapen_AOT/AOT_stimuli/pictures/1732_fw.png	342.1219563484192	
358	282.6361229419708	picture	0		145	356.0	/experiments/knapen_AOT/AOT_stimuli/pictures/1082_fw.png	342.13807821273804	1.216684103012085
358	283.83632230758667	response	0	j		356.0	/experiments/knapen_AOT/AOT_stimuli/pictures/1082_fw.png	343.3382775783539	
359	283.8528070449829	picture	0		101	357.0	/experiments/knapen_AOT/AOT_stimuli/pictures/1053_fw.png	343.3547623157501	0.8500175476074219
359	284.68639159202576	response	0	j		357.0	/experiments/knapen_AOT/AOT_stimuli/pictures/1053_fw.png	344.18834686279297	
360	284.70282459259033	picture	0		105	358.0	/experiments/knapen_AOT/AOT_stimuli/pictures/1236_fw.png	344.20477986335754	0.883352518081665
360	285.5624899864197	response	0	k		358.0	/experiments/knapen_AOT/AOT_stimuli/pictures/1236_fw.png	345.0644452571869	
361	285.586177110672	picture	0		79	359.0	/experiments/knapen_AOT/AOT_stimuli/pictures/1648_fw.png	345.0881323814392	0.6666803359985352
361	286.23627829551697	response	0	j		359.0	/experiments/knapen_AOT/AOT_stimuli/pictures/1648_fw.png	345.7382335662842	
362	286.25285744667053	stim	0		526			345.75481271743774	4.404391527175903
362	290.6373727321625	response	0	space				350.1393280029297	
