trial_nr	onset	event_type	phase	response	nr_frames	picture_index	picture_file	onset_abs	duration
0	0.19147610664367676	stim	0		736			121.37656712532043	6.2333948612213135
0	6.350074052810669	response	0	space				127.53516507148743	
2	6.42487096786499	picture	0		246	0.0	/experiments/knapen_aot/AOT/AOT_stimuli/pictures/0482_fw.png	127.60996198654175	2.093712091445923
2	8.466784954071045	response	0	j		0.0	/experiments/knapen_aot/AOT/AOT_stimuli/pictures/0482_fw.png	129.6518759727478	
3	8.518583059310913	picture	0		134	1.0	/experiments/knapen_aot/AOT/AOT_stimuli/pictures/0590_fw.png	129.70367407798767	1.164660930633545
3	9.625079154968262	response	0	k		1.0	/experiments/knapen_aot/AOT/AOT_stimuli/pictures/0590_fw.png	130.81017017364502	
4	9.683243989944458	picture	0		128	2.0	/experiments/knapen_aot/AOT/AOT_stimuli/pictures/1144_fw.png	130.86833500862122	1.1166839599609375
4	10.741740942001343	response	0	k		2.0	/experiments/knapen_aot/AOT/AOT_stimuli/pictures/1144_fw.png	131.9268319606781	
5	10.799927949905396	picture	0		100	3.0	/experiments/knapen_aot/AOT/AOT_stimuli/pictures/1109_fw.png	131.98501896858215	0.8584561347961426
5	11.625096082687378	response	0	j		3.0	/experiments/knapen_aot/AOT/AOT_stimuli/pictures/1109_fw.png	132.81018710136414	
6	11.658384084701538	picture	0		99	4.0	/experiments/knapen_aot/AOT/AOT_stimuli/pictures/0269_fw.png	132.8434751033783	0.8673210144042969
6	12.475106000900269	response	0	j		4.0	/experiments/knapen_aot/AOT/AOT_stimuli/pictures/0269_fw.png	133.66019701957703	
7	12.525705099105835	picture	0		131	5.0	/experiments/knapen_aot/AOT/AOT_stimuli/pictures/1554_fw.png	133.7107961177826	1.1527400016784668
7	13.601598978042603	response	0	k		5.0	/experiments/knapen_aot/AOT/AOT_stimuli/pictures/1554_fw.png	134.78668999671936	
8	13.678445100784302	picture	0		97	6.0	/experiments/knapen_aot/AOT/AOT_stimuli/pictures/0965_fw.png	134.86353611946106	0.8714859485626221
8	14.475067138671875	response	0	k		6.0	/experiments/knapen_aot/AOT/AOT_stimuli/pictures/0965_fw.png	135.66015815734863	
9	14.549931049346924	picture	0		110	7.0	/experiments/knapen_aot/AOT/AOT_stimuli/pictures/1167_fw.png	135.73502206802368	0.9757020473480225
9	15.45846700668335	response	0	j		7.0	/experiments/knapen_aot/AOT/AOT_stimuli/pictures/1167_fw.png	136.6435580253601	
10	15.525633096694946	picture	0		96	8.0	/experiments/knapen_aot/AOT/AOT_stimuli/pictures/0219_fw.png	136.7107241153717	0.8577859401702881
10	16.317561149597168	response	0	j		8.0	/experiments/knapen_aot/AOT/AOT_stimuli/pictures/0219_fw.png	137.50265216827393	
11	16.383419036865234	picture	0		101	9.0	/experiments/knapen_aot/AOT/AOT_stimuli/pictures/0275_fw.png	137.568510055542	0.8748869895935059
11	17.210237979888916	response	0	j		9.0	/experiments/knapen_aot/AOT/AOT_stimuli/pictures/0275_fw.png	138.39532899856567	
12	17.25830602645874	picture	0		116	10.0	/experiments/knapen_aot/AOT/AOT_stimuli/pictures/1680_fw.png	138.4433970451355	1.000075101852417
12	18.210453033447266	response	0	j		10.0	/experiments/knapen_aot/AOT/AOT_stimuli/pictures/1680_fw.png	139.39554405212402	
13	18.258381128311157	picture	0		126	11.0	/experiments/knapen_aot/AOT/AOT_stimuli/pictures/0112_fw.png	139.44347214698792	1.0916368961334229
13	19.300137996673584	response	0	k		11.0	/experiments/knapen_aot/AOT/AOT_stimuli/pictures/0112_fw.png	140.48522901535034	
14	19.35001802444458	picture	0		98	12.0	/experiments/knapen_aot/AOT/AOT_stimuli/pictures/1679_fw.png	140.53510904312134	0.877082109451294
14	20.158627033233643	response	0	j		12.0	/experiments/knapen_aot/AOT/AOT_stimuli/pictures/1679_fw.png	141.3437180519104	
15	20.227100133895874	picture	0		97	13.0	/experiments/knapen_aot/AOT/AOT_stimuli/pictures/0677_fw.png	141.41219115257263	0.8403058052062988
15	21.025880098342896	response	0	k		13.0	/experiments/knapen_aot/AOT/AOT_stimuli/pictures/0677_fw.png	142.21097111701965	
16	21.067405939102173	picture	0		108	14.0	/experiments/knapen_aot/AOT/AOT_stimuli/pictures/0256_fw.png	142.25249695777893	0.9326510429382324
16	21.958510160446167	response	0	j		14.0	/experiments/knapen_aot/AOT/AOT_stimuli/pictures/0256_fw.png	143.14360117912292	
17	22.000056982040405	picture	0		99	15.0	/experiments/knapen_aot/AOT/AOT_stimuli/pictures/0578_fw.png	143.18514800071716	0.8749959468841553
17	22.81761908531189	response	0	k		15.0	/experiments/knapen_aot/AOT/AOT_stimuli/pictures/0578_fw.png	144.00271010398865	
18	22.87505292892456	picture	0		97	16.0	/experiments/knapen_aot/AOT/AOT_stimuli/pictures/1619_fw.png	144.06014394760132	0.8589770793914795
18	23.67519998550415	response	0	k		16.0	/experiments/knapen_aot/AOT/AOT_stimuli/pictures/1619_fw.png	144.8602910041809	
19	23.73403000831604	picture	0		91	17.0	/experiments/knapen_aot/AOT/AOT_stimuli/pictures/1524_fw.png	144.9191210269928	0.8077421188354492
19	24.48416304588318	response	0	k		17.0	/experiments/knapen_aot/AOT/AOT_stimuli/pictures/1524_fw.png	145.66925406455994	
20	24.54177212715149	picture	0		95	18.0	/experiments/knapen_aot/AOT/AOT_stimuli/pictures/0121_fw.png	145.72686314582825	0.8172698020935059
20	25.325212001800537	response	0	k		18.0	/experiments/knapen_aot/AOT/AOT_stimuli/pictures/0121_fw.png	146.5103030204773	
21	25.359041929244995	picture	0		100	19.0	/experiments/knapen_aot/AOT/AOT_stimuli/pictures/1735_fw.png	146.54413294792175	0.8750112056732178
21	26.183620929718018	response	0	j		19.0	/experiments/knapen_aot/AOT/AOT_stimuli/pictures/1735_fw.png	147.36871194839478	
22	26.234053134918213	picture	0		86	20.0	/experiments/knapen_aot/AOT/AOT_stimuli/pictures/1410_fw.png	147.41914415359497	0.7578179836273193
22	26.94267201423645	response	0	k		20.0	/experiments/knapen_aot/AOT/AOT_stimuli/pictures/1410_fw.png	148.1277630329132	
23	26.991871118545532	picture	0		102	21.0	/experiments/knapen_aot/AOT/AOT_stimuli/pictures/1468_fw.png	148.1769621372223	0.8832449913024902
23	27.833581924438477	response	0	j		21.0	/experiments/knapen_aot/AOT/AOT_stimuli/pictures/1468_fw.png	149.01867294311523	
24	27.875116109848022	picture	0		92	22.0	/experiments/knapen_aot/AOT/AOT_stimuli/pictures/0428_fw.png	149.06020712852478	0.8000059127807617
24	28.63362407684326	response	0	j		22.0	/experiments/knapen_aot/AOT/AOT_stimuli/pictures/0428_fw.png	149.81871509552002	
25	28.675122022628784	picture	0		119	23.0	/experiments/knapen_aot/AOT/AOT_stimuli/pictures/1366_fw.png	149.86021304130554	1.033376932144165
25	29.65866208076477	response	0	j		23.0	/experiments/knapen_aot/AOT/AOT_stimuli/pictures/1366_fw.png	150.84375309944153	
26	29.70849895477295	picture	0		103	24.0	/experiments/knapen_aot/AOT/AOT_stimuli/pictures/1079_fw.png	150.8935899734497	0.9005939960479736
26	30.558764934539795	response	0	j		24.0	/experiments/knapen_aot/AOT/AOT_stimuli/pictures/1079_fw.png	151.74385595321655	
27	30.609092950820923	picture	0		129	25.0	/experiments/knapen_aot/AOT/AOT_stimuli/pictures/0239_fw.png	151.79418396949768	1.1160640716552734
27	31.675275087356567	response	0	k		25.0	/experiments/knapen_aot/AOT/AOT_stimuli/pictures/0239_fw.png	152.86036610603333	
28	31.725157022476196	picture	0		100	26.0	/experiments/knapen_aot/AOT/AOT_stimuli/pictures/1630_fw.png	152.91024804115295	0.8666760921478271
28	32.55031609535217	response	0	k		26.0	/experiments/knapen_aot/AOT/AOT_stimuli/pictures/1630_fw.png	153.73540711402893	
29	32.59183311462402	picture	0		119	27.0	/experiments/knapen_aot/AOT/AOT_stimuli/pictures/0311_fw.png	153.77692413330078	1.0250358581542969
29	33.56926703453064	response	0	k		27.0	/experiments/knapen_aot/AOT/AOT_stimuli/pictures/0311_fw.png	154.7543580532074	
30	33.61686897277832	picture	0		109	28.0	/experiments/knapen_aot/AOT/AOT_stimuli/pictures/0126_fw.png	154.80195999145508	0.9922399520874023
30	34.51708006858826	response	0	k		28.0	/experiments/knapen_aot/AOT/AOT_stimuli/pictures/0126_fw.png	155.70217108726501	
31	34.60910892486572	picture	0		93	29.0	/experiments/knapen_aot/AOT/AOT_stimuli/pictures/0794_fw.png	155.79419994354248	0.8328170776367188
31	35.37540912628174	response	0	j		29.0	/experiments/knapen_aot/AOT/AOT_stimuli/pictures/0794_fw.png	156.5605001449585	
32	35.44192600250244	picture	0		109	30.0	/experiments/knapen_aot/AOT/AOT_stimuli/pictures/1513_fw.png	156.6270170211792	0.9520261287689209
32	36.34212303161621	response	0	k		30.0	/experiments/knapen_aot/AOT/AOT_stimuli/pictures/1513_fw.png	157.52721405029297	
33	36.39395213127136	picture	0		98	31.0	/experiments/knapen_aot/AOT/AOT_stimuli/pictures/0786_fw.png	157.57904314994812	0.8563089370727539
33	37.194190979003906	response	0	j		31.0	/experiments/knapen_aot/AOT/AOT_stimuli/pictures/0786_fw.png	158.37928199768066	
34	37.250261068344116	picture	0		191	32.0	/experiments/knapen_aot/AOT/AOT_stimuli/pictures/1745_fw.png	158.43535208702087	1.6500539779663086
34	38.834007024765015	response	0	k		32.0	/experiments/knapen_aot/AOT/AOT_stimuli/pictures/1745_fw.png	160.01909804344177	
35	38.900315046310425	picture	0		175	33.0	/experiments/knapen_aot/AOT/AOT_stimuli/pictures/0447_fw.png	160.08540606498718	1.500452995300293
35	40.350549936294556	response	0	j		33.0	/experiments/knapen_aot/AOT/AOT_stimuli/pictures/0447_fw.png	161.5356409549713	
36	40.40076804161072	picture	0		102	34.0	/experiments/knapen_aot/AOT/AOT_stimuli/pictures/0923_fw.png	161.58585906028748	0.8750510215759277
36	41.24212098121643	response	0	k		34.0	/experiments/knapen_aot/AOT/AOT_stimuli/pictures/0923_fw.png	162.4272119998932	
37	41.275819063186646	picture	0		102	35.0	/experiments/knapen_aot/AOT/AOT_stimuli/pictures/0084_fw.png	162.4609100818634	0.8911480903625488
37	42.117093086242676	response	0	j		35.0	/experiments/knapen_aot/AOT/AOT_stimuli/pictures/0084_fw.png	163.30218410491943	
38	42.166967153549194	picture	0		87	36.0	/experiments/knapen_aot/AOT/AOT_stimuli/pictures/1315_fw.png	163.35205817222595	0.7834558486938477
38	42.90897512435913	response	0	j		36.0	/experiments/knapen_aot/AOT/AOT_stimuli/pictures/1315_fw.png	164.0940661430359	
39	42.95042300224304	picture	0		120	37.0	/experiments/knapen_aot/AOT/AOT_stimuli/pictures/0659_fw.png	164.1355140209198	1.033790111541748
39	43.94267201423645	response	0	k		37.0	/experiments/knapen_aot/AOT/AOT_stimuli/pictures/0659_fw.png	165.1277630329132	
40	43.98421311378479	picture	0		97	38.0	/experiments/knapen_aot/AOT/AOT_stimuli/pictures/1423_fw.png	165.16930413246155	0.8680520057678223
40	44.777719020843506	response	0	k		38.0	/experiments/knapen_aot/AOT/AOT_stimuli/pictures/1423_fw.png	165.96281003952026	
41	44.85226511955261	picture	0		88	39.0	/experiments/knapen_aot/AOT/AOT_stimuli/pictures/0217_fw.png	166.03735613822937	0.8541789054870605
41	45.57548403739929	response	0	j		39.0	/experiments/knapen_aot/AOT/AOT_stimuli/pictures/0217_fw.png	166.76057505607605	
42	45.70644402503967	picture	0		99	40.0	/experiments/knapen_aot/AOT/AOT_stimuli/pictures/1251_fw.png	166.89153504371643	0.8605971336364746
42	46.52602505683899	response	0	j		40.0	/experiments/knapen_aot/AOT/AOT_stimuli/pictures/1251_fw.png	167.71111607551575	
43	46.56704115867615	picture	0		81	41.0	/experiments/knapen_aot/AOT/AOT_stimuli/pictures/0606_fw.png	167.7521321773529	0.7228257656097412
43	47.23434495925903	response	0	k		41.0	/experiments/knapen_aot/AOT/AOT_stimuli/pictures/0606_fw.png	168.4194359779358	
44	47.28986692428589	picture	0		102	42.0	/experiments/knapen_aot/AOT/AOT_stimuli/pictures/1572_fw.png	168.47495794296265	0.8939201831817627
44	48.13391613960266	response	0	k		42.0	/experiments/knapen_aot/AOT/AOT_stimuli/pictures/1572_fw.png	169.31900715827942	
45	48.18378710746765	picture	0		94	43.0	/experiments/knapen_aot/AOT/AOT_stimuli/pictures/1697_fw.png	169.3688781261444	0.8417308330535889
45	48.958930015563965	response	0	j		43.0	/experiments/knapen_aot/AOT/AOT_stimuli/pictures/1697_fw.png	170.14402103424072	
46	49.02551794052124	picture	0		75	44.0	/experiments/knapen_aot/AOT/AOT_stimuli/pictures/2100_fw.png	170.210608959198	0.6749231815338135
46	49.642194986343384	response	0	j		44.0	/experiments/knapen_aot/AOT/AOT_stimuli/pictures/2100_fw.png	170.82728600502014	
47	49.700441122055054	picture	0		89	45.0	/experiments/knapen_aot/AOT/AOT_stimuli/pictures/0735_fw.png	170.8855321407318	0.7916648387908936
47	50.433879137039185	response	0	k		45.0	/experiments/knapen_aot/AOT/AOT_stimuli/pictures/0735_fw.png	171.61897015571594	
48	50.49210596084595	picture	0		94	46.0	/experiments/knapen_aot/AOT/AOT_stimuli/pictures/0557_fw.png	171.6771969795227	0.8463680744171143
48	51.26718711853027	response	0	k		46.0	/experiments/knapen_aot/AOT/AOT_stimuli/pictures/0557_fw.png	172.45227813720703	
49	51.33847403526306	picture	0		91	47.0	/experiments/knapen_aot/AOT/AOT_stimuli/pictures/1710_fw.png	172.52356505393982	0.7953450679779053
49	52.083899974823	response	0	j		47.0	/experiments/knapen_aot/AOT/AOT_stimuli/pictures/1710_fw.png	173.26899099349976	
50	52.13381910324097	picture	0		127	48.0	/experiments/knapen_aot/AOT/AOT_stimuli/pictures/0098_fw.png	173.31891012191772	1.0935468673706055
50	53.183923959732056	response	0	j		48.0	/experiments/knapen_aot/AOT/AOT_stimuli/pictures/0098_fw.png	174.3690149784088	
51	53.22736597061157	picture	0		158	49.0	/experiments/knapen_aot/AOT/AOT_stimuli/pictures/1414_fw.png	174.41245698928833	1.373142957687378
51	54.53396201133728	response	0	j		49.0	/experiments/knapen_aot/AOT/AOT_stimuli/pictures/1414_fw.png	175.71905303001404	
52	54.60050892829895	picture	0		97	50.0	/experiments/knapen_aot/AOT/AOT_stimuli/pictures/1275_fw.png	175.7855999469757	0.8666150569915771
52	55.39386296272278	response	0	j		50.0	/experiments/knapen_aot/AOT/AOT_stimuli/pictures/1275_fw.png	176.57895398139954	
53	55.46712398529053	picture	0		95	51.0	/experiments/knapen_aot/AOT/AOT_stimuli/pictures/0655_fw.png	176.65221500396729	0.8297841548919678
53	56.25063514709473	response	0	j		51.0	/experiments/knapen_aot/AOT/AOT_stimuli/pictures/0655_fw.png	177.43572616577148	
54	56.296908140182495	picture	0		98	52.0	/experiments/knapen_aot/AOT/AOT_stimuli/pictures/0725_fw.png	177.48199915885925	0.8401758670806885
54	57.100621938705444	response	0	j		52.0	/experiments/knapen_aot/AOT/AOT_stimuli/pictures/0725_fw.png	178.2857129573822	
55	57.137084007263184	picture	0		86	53.0	/experiments/knapen_aot/AOT/AOT_stimuli/pictures/0479_fw.png	178.32217502593994	0.7550959587097168
55	57.84228301048279	response	0	j		53.0	/experiments/knapen_aot/AOT/AOT_stimuli/pictures/0479_fw.png	179.02737402915955	
56	57.8921799659729	picture	0		84	54.0	/experiments/knapen_aot/AOT/AOT_stimuli/pictures/1567_fw.png	179.07727098464966	0.741706132888794
56	58.58400511741638	response	0	k		54.0	/experiments/knapen_aot/AOT/AOT_stimuli/pictures/1567_fw.png	179.76909613609314	
57	58.633886098861694	picture	0		96	55.0	/experiments/knapen_aot/AOT/AOT_stimuli/pictures/1841_fw.png	179.81897711753845	0.8643229007720947
57	59.419063091278076	response	0	j		55.0	/experiments/knapen_aot/AOT/AOT_stimuli/pictures/1841_fw.png	180.60415410995483	
58	59.49820899963379	picture	0		126	56.0	/experiments/knapen_aot/AOT/AOT_stimuli/pictures/0644_fw.png	180.68330001831055	1.0940849781036377
58	60.542354106903076	response	0	k		56.0	/experiments/knapen_aot/AOT/AOT_stimuli/pictures/0644_fw.png	181.72744512557983	
59	60.59229397773743	picture	0		84	57.0	/experiments/knapen_aot/AOT/AOT_stimuli/pictures/0376_fw.png	181.77738499641418	0.7332770824432373
59	61.284075021743774	response	0	k		57.0	/experiments/knapen_aot/AOT/AOT_stimuli/pictures/0376_fw.png	182.46916604042053	
60	61.325571060180664	picture	0		108	58.0	/experiments/knapen_aot/AOT/AOT_stimuli/pictures/1126_fw.png	182.51066207885742	0.9365110397338867
60	62.21079111099243	response	0	k		58.0	/experiments/knapen_aot/AOT/AOT_stimuli/pictures/1126_fw.png	183.3958821296692	
61	62.26208209991455	picture	0		157	59.0	/experiments/knapen_aot/AOT/AOT_stimuli/pictures/0784_fw.png	183.4471731185913	1.340311050415039
61	63.55911302566528	response	0	j		59.0	/experiments/knapen_aot/AOT/AOT_stimuli/pictures/0784_fw.png	184.74420404434204	
62	63.60239315032959	picture	0		80	60.0	/experiments/knapen_aot/AOT/AOT_stimuli/pictures/0626_fw.png	184.78748416900635	0.7152678966522217
62	64.25903701782227	response	0	k		60.0	/experiments/knapen_aot/AOT/AOT_stimuli/pictures/0626_fw.png	185.44412803649902	
63	64.31766104698181	picture	0		121	61.0	/experiments/knapen_aot/AOT/AOT_stimuli/pictures/0531_fw.png	185.50275206565857	1.0579249858856201
63	65.31782102584839	response	0	k		61.0	/experiments/knapen_aot/AOT/AOT_stimuli/pictures/0531_fw.png	186.50291204452515	
64	65.37558603286743	picture	0		475	62.0	/experiments/knapen_aot/AOT/AOT_stimuli/pictures/0044_fw.png	186.5606770515442	4.033375978469849
64	69.32580709457397	response	0	k		62.0	/experiments/knapen_aot/AOT/AOT_stimuli/pictures/0044_fw.png	190.51089811325073	
65	69.40896201133728	picture	0		103	63.0	/experiments/knapen_aot/AOT/AOT_stimuli/pictures/0895_fw.png	190.59405303001404	0.9087419509887695
65	70.25910210609436	response	0	j		63.0	/experiments/knapen_aot/AOT/AOT_stimuli/pictures/0895_fw.png	191.44419312477112	
66	70.31770396232605	picture	0		97	64.0	/experiments/knapen_aot/AOT/AOT_stimuli/pictures/1576_fw.png	191.5027949810028	0.8333511352539062
66	71.11758613586426	response	0	j		64.0	/experiments/knapen_aot/AOT/AOT_stimuli/pictures/1576_fw.png	192.30267715454102	
67	71.15105509757996	picture	0		92	65.0	/experiments/knapen_aot/AOT/AOT_stimuli/pictures/0323_fw.png	192.3361461162567	0.7996199131011963
67	71.90920901298523	response	0	j		65.0	/experiments/knapen_aot/AOT/AOT_stimuli/pictures/0323_fw.png	193.094300031662	
68	71.95067501068115	picture	0		119	66.0	/experiments/knapen_aot/AOT/AOT_stimuli/pictures/1296_fw.png	193.1357660293579	1.0268571376800537
68	72.93418502807617	response	0	k		66.0	/experiments/knapen_aot/AOT/AOT_stimuli/pictures/1296_fw.png	194.11927604675293	
69	72.9775321483612	picture	0		93	67.0	/experiments/knapen_aot/AOT/AOT_stimuli/pictures/0226_fw.png	194.16262316703796	0.8315088748931885
69	73.7426381111145	response	0	j		67.0	/experiments/knapen_aot/AOT/AOT_stimuli/pictures/0226_fw.png	194.92772912979126	
70	73.8090410232544	picture	0		91	68.0	/experiments/knapen_aot/AOT/AOT_stimuli/pictures/2178_fw.png	194.99413204193115	0.8084549903869629
70	74.55918312072754	response	0	k		68.0	/experiments/knapen_aot/AOT/AOT_stimuli/pictures/2178_fw.png	195.7442741394043	
71	74.61749601364136	picture	0		163	69.0	/experiments/knapen_aot/AOT/AOT_stimuli/pictures/0703_fw.png	195.80258703231812	1.399980068206787
71	75.96768403053284	response	0	j		69.0	/experiments/knapen_aot/AOT/AOT_stimuli/pictures/0703_fw.png	197.1527750492096	
72	76.01747608184814	picture	0		81	70.0	/experiments/knapen_aot/AOT/AOT_stimuli/pictures/0132_fw.png	197.2025671005249	0.7249698638916016
72	76.68420505523682	response	0	j		70.0	/experiments/knapen_aot/AOT/AOT_stimuli/pictures/0132_fw.png	197.86929607391357	
73	76.74244594573975	picture	0		91	71.0	/experiments/knapen_aot/AOT/AOT_stimuli/pictures/0490_fw.png	197.9275369644165	0.7767021656036377
73	77.49261999130249	response	0	k		71.0	/experiments/knapen_aot/AOT/AOT_stimuli/pictures/0490_fw.png	198.67771100997925	
74	77.51914811134338	picture	0		126	72.0	/experiments/knapen_aot/AOT/AOT_stimuli/pictures/0992_fw.png	198.70423913002014	1.0816748142242432
74	78.5592131614685	response	0	j		72.0	/experiments/knapen_aot/AOT/AOT_stimuli/pictures/0992_fw.png	199.74430418014526	
75	78.60082292556763	picture	0		105	73.0	/experiments/knapen_aot/AOT/AOT_stimuli/pictures/2117_fw.png	199.78591394424438	0.9416592121124268
75	79.46759414672852	response	0	j		73.0	/experiments/knapen_aot/AOT/AOT_stimuli/pictures/2117_fw.png	200.65268516540527	
76	79.54248213768005	picture	0		94	74.0	/experiments/knapen_aot/AOT/AOT_stimuli/pictures/1883_fw.png	200.7275731563568	0.844775915145874
76	80.31793308258057	response	0	j		74.0	/experiments/knapen_aot/AOT/AOT_stimuli/pictures/1883_fw.png	201.50302410125732	
77	80.38725805282593	picture	0		89	75.0	/experiments/knapen_aot/AOT/AOT_stimuli/pictures/2115_fw.png	201.57234907150269	0.7916529178619385
77	81.11771297454834	response	0	k		75.0	/experiments/knapen_aot/AOT/AOT_stimuli/pictures/2115_fw.png	202.3028039932251	
78	81.17891097068787	picture	0		102	76.0	/experiments/knapen_aot/AOT/AOT_stimuli/pictures/1054_fw.png	202.36400198936462	0.8820371627807617
78	82.0109350681305	response	0	k		76.0	/experiments/knapen_aot/AOT/AOT_stimuli/pictures/1054_fw.png	203.19602608680725	
79	82.06094813346863	picture	0		80	77.0	/experiments/knapen_aot/AOT/AOT_stimuli/pictures/2173_fw.png	203.24603915214539	0.7082688808441162
79	82.71765899658203	response	0	k		77.0	/experiments/knapen_aot/AOT/AOT_stimuli/pictures/2173_fw.png	203.9027500152588	
80	82.76921701431274	picture	0		89	78.0	/experiments/knapen_aot/AOT/AOT_stimuli/pictures/1861_fw.png	203.9543080329895	0.7649350166320801
80	83.5009880065918	response	0	j		78.0	/experiments/knapen_aot/AOT/AOT_stimuli/pictures/1861_fw.png	204.68607902526855	
81	83.53415203094482	picture	0		101	79.0	/experiments/knapen_aot/AOT/AOT_stimuli/pictures/1008_fw.png	204.71924304962158	0.900048017501831
81	84.36773610115051	response	0	j		79.0	/experiments/knapen_aot/AOT/AOT_stimuli/pictures/1008_fw.png	205.55282711982727	
82	84.43420004844666	picture	0		73	80.0	/experiments/knapen_aot/AOT/AOT_stimuli/pictures/0128_fw.png	205.6192910671234	0.6500349044799805
82	85.03436303138733	response	0	k		80.0	/experiments/knapen_aot/AOT/AOT_stimuli/pictures/0128_fw.png	206.2194540500641	
83	85.08423495292664	picture	0		113	81.0	/experiments/knapen_aot/AOT/AOT_stimuli/pictures/1377_fw.png	206.2693259716034	0.9836010932922363
83	86.01096105575562	response	0	j		81.0	/experiments/knapen_aot/AOT/AOT_stimuli/pictures/1377_fw.png	207.19605207443237	
84	86.06783604621887	picture	0		116	82.0	/experiments/knapen_aot/AOT/AOT_stimuli/pictures/2147_fw.png	207.25292706489563	1.0000009536743164
84	87.01941704750061	response	0	j		82.0	/experiments/knapen_aot/AOT/AOT_stimuli/pictures/2147_fw.png	208.20450806617737	
85	87.06783699989319	picture	0		106	83.0	/experiments/knapen_aot/AOT/AOT_stimuli/pictures/0575_fw.png	208.25292801856995	0.9247701168060303
85	87.94297003746033	response	0	j		83.0	/experiments/knapen_aot/AOT/AOT_stimuli/pictures/0575_fw.png	209.12806105613708	
86	87.99260711669922	picture	0		152	84.0	/experiments/knapen_aot/AOT/AOT_stimuli/pictures/1091_fw.png	209.17769813537598	1.308305025100708
86	89.25102615356445	response	0	j		84.0	/experiments/knapen_aot/AOT/AOT_stimuli/pictures/1091_fw.png	210.4361171722412	
87	89.30091214179993	picture	0		85	85.0	/experiments/knapen_aot/AOT/AOT_stimuli/pictures/0715_fw.png	210.48600316047668	0.7461509704589844
87	89.99456214904785	response	0	j		85.0	/experiments/knapen_aot/AOT/AOT_stimuli/pictures/0715_fw.png	211.1796531677246	
88	90.04706311225891	picture	0		98	86.0	/experiments/knapen_aot/AOT/AOT_stimuli/pictures/0113_fw.png	211.23215413093567	0.8819408416748047
88	90.85114407539368	response	0	k		86.0	/experiments/knapen_aot/AOT/AOT_stimuli/pictures/0113_fw.png	212.03623509407043	
89	90.92900395393372	picture	0		80	87.0	/experiments/knapen_aot/AOT/AOT_stimuli/pictures/1481_fw.png	212.11409497261047	0.7469220161437988
89	91.58441305160522	response	0	k		87.0	/experiments/knapen_aot/AOT/AOT_stimuli/pictures/1481_fw.png	212.76950407028198	
90	91.67592597007751	picture	0		91	88.0	/experiments/knapen_aot/AOT/AOT_stimuli/pictures/2002_fw.png	212.86101698875427	0.7917571067810059
90	92.42608904838562	response	0	k		88.0	/experiments/knapen_aot/AOT/AOT_stimuli/pictures/2002_fw.png	213.61118006706238	
91	92.46768307685852	picture	0		78	89.0	/experiments/knapen_aot/AOT/AOT_stimuli/pictures/0798_fw.png	213.65277409553528	0.6835000514984131
91	93.10973596572876	response	0	j		89.0	/experiments/knapen_aot/AOT/AOT_stimuli/pictures/0798_fw.png	214.29482698440552	
92	93.15118312835693	picture	0		97	90.0	/experiments/knapen_aot/AOT/AOT_stimuli/pictures/0442_fw.png	214.3362741470337	0.8681168556213379
92	93.95109415054321	response	0	k		90.0	/experiments/knapen_aot/AOT/AOT_stimuli/pictures/0442_fw.png	215.13618516921997	
93	94.01929998397827	picture	0		244	91.0	/experiments/knapen_aot/AOT/AOT_stimuli/pictures/0294_fw.png	215.20439100265503	2.0832631587982178
93	96.04292607307434	response	0	j		91.0	/experiments/knapen_aot/AOT/AOT_stimuli/pictures/0294_fw.png	217.2280170917511	
94	96.10256314277649	picture	0		138	92.0	/experiments/knapen_aot/AOT/AOT_stimuli/pictures/0357_fw.png	217.28765416145325	1.1875598430633545
94	97.24293804168701	response	0	k		92.0	/experiments/knapen_aot/AOT/AOT_stimuli/pictures/0357_fw.png	218.42802906036377	
95	97.29012298583984	picture	0		95	93.0	/experiments/knapen_aot/AOT/AOT_stimuli/pictures/0394_fw.png	218.4752140045166	0.8276679515838623
95	98.07611894607544	response	0	j		93.0	/experiments/knapen_aot/AOT/AOT_stimuli/pictures/0394_fw.png	219.2612099647522	
96	98.1177909374237	picture	0		83	94.0	/experiments/knapen_aot/AOT/AOT_stimuli/pictures/0714_fw.png	219.30288195610046	0.7665531635284424
96	98.82610511779785	response	0	k		94.0	/experiments/knapen_aot/AOT/AOT_stimuli/pictures/0714_fw.png	220.0111961364746	
97	98.88434410095215	picture	0		83	95.0	/experiments/knapen_aot/AOT/AOT_stimuli/pictures/2111_fw.png	220.0694351196289	0.7500259876251221
97	99.56807899475098	response	0	k		95.0	/experiments/knapen_aot/AOT/AOT_stimuli/pictures/2111_fw.png	220.75317001342773	
98	99.63437008857727	picture	0		94	96.0	/experiments/knapen_aot/AOT/AOT_stimuli/pictures/2082_fw.png	220.81946110725403	0.8249869346618652
98	100.40303301811218	response	0	k		96.0	/experiments/knapen_aot/AOT/AOT_stimuli/pictures/2082_fw.png	221.58812403678894	
99	100.45935702323914	picture	0		124	97.0	/experiments/knapen_aot/AOT/AOT_stimuli/pictures/2042_fw.png	221.6444480419159	1.0751569271087646
99	101.48480796813965	response	0	j		97.0	/experiments/knapen_aot/AOT/AOT_stimuli/pictures/2042_fw.png	222.6698989868164	
100	101.5345139503479	picture	0		73	98.0	/experiments/knapen_aot/AOT/AOT_stimuli/pictures/2171_fw.png	222.71960496902466	0.6375939846038818
100	102.13455295562744	response	0	k		98.0	/experiments/knapen_aot/AOT/AOT_stimuli/pictures/2171_fw.png	223.3196439743042	
101	102.17210793495178	picture	0		79	99.0	/experiments/knapen_aot/AOT/AOT_stimuli/pictures/2031_fw.png	223.35719895362854	0.6806411743164062
101	102.81825304031372	response	0	k		99.0	/experiments/knapen_aot/AOT/AOT_stimuli/pictures/2031_fw.png	224.00334405899048	
102	102.85274910926819	picture	0		83	100.0	/experiments/knapen_aot/AOT/AOT_stimuli/pictures/0341_fw.png	224.03784012794495	0.7292020320892334
102	103.53465509414673	response	0	k		100.0	/experiments/knapen_aot/AOT/AOT_stimuli/pictures/0341_fw.png	224.7197461128235	
103	103.58195114135742	picture	0		90	101.0	/experiments/knapen_aot/AOT/AOT_stimuli/pictures/0757_fw.png	224.76704216003418	0.8124229907989502
103	104.32618808746338	response	0	j		101.0	/experiments/knapen_aot/AOT/AOT_stimuli/pictures/0757_fw.png	225.51127910614014	
104	104.39437413215637	picture	0		119	102.0	/experiments/knapen_aot/AOT/AOT_stimuli/pictures/1197_fw.png	225.57946515083313	1.0567059516906738
104	105.37621593475342	response	0	k		102.0	/experiments/knapen_aot/AOT/AOT_stimuli/pictures/1197_fw.png	226.56130695343018	
105	105.45108008384705	picture	0		99	103.0	/experiments/knapen_aot/AOT/AOT_stimuli/pictures/0424_fw.png	226.6361711025238	0.8749969005584717
105	106.26794004440308	response	0	j		103.0	/experiments/knapen_aot/AOT/AOT_stimuli/pictures/0424_fw.png	227.45303106307983	
106	106.32607698440552	picture	0		82	104.0	/experiments/knapen_aot/AOT/AOT_stimuli/pictures/0216_fw.png	227.51116800308228	0.7084319591522217
106	106.99460792541504	response	0	j		104.0	/experiments/knapen_aot/AOT/AOT_stimuli/pictures/0216_fw.png	228.1796989440918	
107	107.03450894355774	picture	0		78	105.0	/experiments/knapen_aot/AOT/AOT_stimuli/pictures/1652_fw.png	228.2195999622345	0.683351993560791
107	107.676265001297	response	0	k		105.0	/experiments/knapen_aot/AOT/AOT_stimuli/pictures/1652_fw.png	228.86135601997375	
108	107.71786093711853	picture	0		94	106.0	/experiments/knapen_aot/AOT/AOT_stimuli/pictures/1173_fw.png	228.9029519557953	0.8249192237854004
108	108.49301409721375	response	0	k		106.0	/experiments/knapen_aot/AOT/AOT_stimuli/pictures/1173_fw.png	229.6781051158905	
109	108.54278016090393	picture	0		93	107.0	/experiments/knapen_aot/AOT/AOT_stimuli/pictures/1842_fw.png	229.7278711795807	0.8417458534240723
109	109.30969309806824	response	0	k		107.0	/experiments/knapen_aot/AOT/AOT_stimuli/pictures/1842_fw.png	230.494784116745	
110	109.384526014328	picture	0		76	108.0	/experiments/knapen_aot/AOT/AOT_stimuli/pictures/1904_fw.png	230.56961703300476	0.6974070072174072
110	110.00281095504761	response	0	j		108.0	/experiments/knapen_aot/AOT/AOT_stimuli/pictures/1904_fw.png	231.18790197372437	
111	110.08193302154541	picture	0		77	109.0	/experiments/knapen_aot/AOT/AOT_stimuli/pictures/0652_fw.png	231.26702404022217	0.6944270133972168
111	110.71797704696655	response	0	k		109.0	/experiments/knapen_aot/AOT/AOT_stimuli/pictures/0652_fw.png	231.9030680656433	
112	110.77636003494263	picture	0		87	110.0	/experiments/knapen_aot/AOT/AOT_stimuli/pictures/2127_fw.png	231.96145105361938	0.7916479110717773
112	111.49303698539734	response	0	k		110.0	/experiments/knapen_aot/AOT/AOT_stimuli/pictures/2127_fw.png	232.6781280040741	
113	111.5680079460144	picture	0		121	111.0	/experiments/knapen_aot/AOT/AOT_stimuli/pictures/0804_fw.png	232.75309896469116	1.041701078414917
113	112.56815695762634	response	0	k		111.0	/experiments/knapen_aot/AOT/AOT_stimuli/pictures/0804_fw.png	233.7532479763031	
114	112.60970902442932	picture	0		80	112.0	/experiments/knapen_aot/AOT/AOT_stimuli/pictures/1278_fw.png	233.79480004310608	0.7083280086517334
114	113.26800513267517	response	0	k		112.0	/experiments/knapen_aot/AOT/AOT_stimuli/pictures/1278_fw.png	234.45309615135193	
115	113.31803703308105	picture	0		92	113.0	/experiments/knapen_aot/AOT/AOT_stimuli/pictures/1641_fw.png	234.5031280517578	0.799901008605957
115	114.07640194892883	response	0	k		113.0	/experiments/knapen_aot/AOT/AOT_stimuli/pictures/1641_fw.png	235.2614929676056	
116	114.11793804168701	picture	0		104	114.0	/experiments/knapen_aot/AOT/AOT_stimuli/pictures/0721_fw.png	235.30302906036377	0.9166610240936279
116	114.97637510299683	response	0	k		114.0	/experiments/knapen_aot/AOT/AOT_stimuli/pictures/0721_fw.png	236.16146612167358	
117	115.03459906578064	picture	0		82	115.0	/experiments/knapen_aot/AOT/AOT_stimuli/pictures/0237_fw.png	236.2196900844574	0.7279829978942871
117	115.7096860408783	response	0	j		115.0	/experiments/knapen_aot/AOT/AOT_stimuli/pictures/0237_fw.png	236.89477705955505	
118	115.76258206367493	picture	0		85	116.0	/experiments/knapen_aot/AOT/AOT_stimuli/pictures/1559_fw.png	236.94767308235168	0.7720329761505127
118	116.45982909202576	response	0	j		116.0	/experiments/knapen_aot/AOT/AOT_stimuli/pictures/1559_fw.png	237.64492011070251	
119	116.53461503982544	picture	0		78	117.0	/experiments/knapen_aot/AOT/AOT_stimuli/pictures/1694_fw.png	237.7197060585022	0.6833620071411133
119	117.1763710975647	response	0	j		117.0	/experiments/knapen_aot/AOT/AOT_stimuli/pictures/1694_fw.png	238.36146211624146	
120	117.21797704696655	picture	0		91	118.0	/experiments/knapen_aot/AOT/AOT_stimuli/pictures/0471_fw.png	238.4030680656433	0.7945899963378906
120	117.96805810928345	response	0	k		118.0	/experiments/knapen_aot/AOT/AOT_stimuli/pictures/0471_fw.png	239.1531491279602	
121	118.01256704330444	picture	0		78	119.0	/experiments/knapen_aot/AOT/AOT_stimuli/pictures/0496_fw.png	239.1976580619812	0.701361894607544
121	118.65152502059937	response	0	k		119.0	/experiments/knapen_aot/AOT/AOT_stimuli/pictures/0496_fw.png	239.83661603927612	
122	118.71392893791199	picture	0		73	120.0	/experiments/knapen_aot/AOT/AOT_stimuli/pictures/0952_fw.png	239.89901995658875	0.65972900390625
122	119.30974912643433	response	0	j		120.0	/experiments/knapen_aot/AOT/AOT_stimuli/pictures/0952_fw.png	240.49484014511108	
123	119.37365794181824	picture	0		88	121.0	/experiments/knapen_aot/AOT/AOT_stimuli/pictures/0688_fw.png	240.558748960495	0.785987138748169
123	120.10143494606018	response	0	j		121.0	/experiments/knapen_aot/AOT/AOT_stimuli/pictures/0688_fw.png	241.28652596473694	
124	120.1596450805664	picture	0		83	122.0	/experiments/knapen_aot/AOT/AOT_stimuli/pictures/2120_fw.png	241.34473609924316	0.7349178791046143
124	120.84308004379272	response	0	k		122.0	/experiments/knapen_aot/AOT/AOT_stimuli/pictures/2120_fw.png	242.02817106246948	
125	120.89456295967102	picture	0		71	123.0	/experiments/knapen_aot/AOT/AOT_stimuli/pictures/0286_fw.png	242.07965397834778	0.6318440437316895
125	121.47644114494324	response	0	j		123.0	/experiments/knapen_aot/AOT/AOT_stimuli/pictures/0286_fw.png	242.66153216362	
126	121.52640700340271	picture	0		81	124.0	/experiments/knapen_aot/AOT/AOT_stimuli/pictures/0177_fw.png	242.71149802207947	0.7292180061340332
126	122.19320893287659	response	0	j		124.0	/experiments/knapen_aot/AOT/AOT_stimuli/pictures/0177_fw.png	243.37829995155334	
127	122.25562500953674	picture	0		70	125.0	/experiments/knapen_aot/AOT/AOT_stimuli/pictures/1505_fw.png	243.4407160282135	0.6123740673065186
127	122.82642602920532	response	0	k		125.0	/experiments/knapen_aot/AOT/AOT_stimuli/pictures/1505_fw.png	244.01151704788208	
128	122.86799907684326	picture	0		91	126.0	/experiments/knapen_aot/AOT/AOT_stimuli/pictures/1785_fw.png	244.05309009552002	0.7999889850616455
128	123.61160802841187	response	0	j		126.0	/experiments/knapen_aot/AOT/AOT_stimuli/pictures/1785_fw.png	244.79669904708862	
129	123.66798806190491	picture	0		77	127.0	/experiments/knapen_aot/AOT/AOT_stimuli/pictures/1480_fw.png	244.85307908058167	0.6834180355072021
129	124.30147099494934	response	0	k		127.0	/experiments/knapen_aot/AOT/AOT_stimuli/pictures/1480_fw.png	245.4865620136261	
130	124.35140609741211	picture	0		113	128.0	/experiments/knapen_aot/AOT/AOT_stimuli/pictures/1712_fw.png	245.53649711608887	1.00146484375
130	125.28493595123291	response	0	j		128.0	/experiments/knapen_aot/AOT/AOT_stimuli/pictures/1712_fw.png	246.47002696990967	
131	125.35287094116211	picture	0		101	129.0	/experiments/knapen_aot/AOT/AOT_stimuli/pictures/0823_fw.png	246.53796195983887	0.8984570503234863
131	126.1848521232605	response	0	k		129.0	/experiments/knapen_aot/AOT/AOT_stimuli/pictures/0823_fw.png	247.36994314193726	
132	126.2513279914856	picture	0		89	130.0	/experiments/knapen_aot/AOT/AOT_stimuli/pictures/0111_fw.png	247.43641901016235	0.7752180099487305
132	126.98514604568481	response	0	j		130.0	/experiments/knapen_aot/AOT/AOT_stimuli/pictures/0111_fw.png	248.17023706436157	
133	127.02654600143433	picture	0		175	131.0	/experiments/knapen_aot/AOT/AOT_stimuli/pictures/1695_fw.png	248.21163702011108	1.492927074432373
133	128.4766390323639	response	0	k		131.0	/experiments/knapen_aot/AOT/AOT_stimuli/pictures/1695_fw.png	249.66173005104065	
134	128.5194730758667	picture	0		102	132.0	/experiments/knapen_aot/AOT/AOT_stimuli/pictures/2152_fw.png	249.70456409454346	0.8902480602264404
134	129.36001110076904	response	0	j		132.0	/experiments/knapen_aot/AOT/AOT_stimuli/pictures/2152_fw.png	250.5451021194458	
135	129.40972113609314	picture	0		88	133.0	/experiments/knapen_aot/AOT/AOT_stimuli/pictures/0406_fw.png	250.5948121547699	0.7695229053497314
135	130.13488602638245	response	0	j		133.0	/experiments/knapen_aot/AOT/AOT_stimuli/pictures/0406_fw.png	251.3199770450592	
136	130.17924404144287	picture	0		84	134.0	/experiments/knapen_aot/AOT/AOT_stimuli/pictures/1727_fw.png	251.36433506011963	0.7305309772491455
136	130.86819100379944	response	0	j		134.0	/experiments/knapen_aot/AOT/AOT_stimuli/pictures/1727_fw.png	252.0532820224762	
137	130.90977501869202	picture	0		80	135.0	/experiments/knapen_aot/AOT/AOT_stimuli/pictures/0538_fw.png	252.09486603736877	0.70831298828125
137	131.5683569908142	response	0	k		135.0	/experiments/knapen_aot/AOT/AOT_stimuli/pictures/0538_fw.png	252.75344800949097	
138	131.61808800697327	picture	0		81	136.0	/experiments/knapen_aot/AOT/AOT_stimuli/pictures/1624_fw.png	252.80317902565002	0.7209780216217041
138	132.2849099636078	response	0	k		136.0	/experiments/knapen_aot/AOT/AOT_stimuli/pictures/1624_fw.png	253.47000098228455	
139	132.33906602859497	picture	0		90	137.0	/experiments/knapen_aot/AOT/AOT_stimuli/pictures/0131_fw.png	253.52415704727173	0.8040549755096436
139	133.07660603523254	response	0	k		137.0	/experiments/knapen_aot/AOT/AOT_stimuli/pictures/0131_fw.png	254.2616970539093	
140	133.14312100410461	picture	0		84	138.0	/experiments/knapen_aot/AOT/AOT_stimuli/pictures/0023_fw.png	254.32821202278137	0.7667140960693359
140	133.8349061012268	response	0	k		138.0	/experiments/knapen_aot/AOT/AOT_stimuli/pictures/0023_fw.png	255.01999711990356	
141	133.90983510017395	picture	0		87	139.0	/experiments/knapen_aot/AOT/AOT_stimuli/pictures/0766_fw.png	255.0949261188507	0.7834858894348145
141	134.6265721321106	response	0	k		139.0	/experiments/knapen_aot/AOT/AOT_stimuli/pictures/0766_fw.png	255.81166315078735	
142	134.69332098960876	picture	0		105	140.0	/experiments/knapen_aot/AOT/AOT_stimuli/pictures/1826_fw.png	255.87841200828552	0.9095790386199951
142	135.5599491596222	response	0	j		140.0	/experiments/knapen_aot/AOT/AOT_stimuli/pictures/1826_fw.png	256.74504017829895	
143	135.60290002822876	picture	0		282	141.0	/experiments/knapen_aot/AOT/AOT_stimuli/pictures/1704_fw.png	256.7879910469055	2.381959915161133
143	137.94334197044373	response	0	k		141.0	/experiments/knapen_aot/AOT/AOT_stimuli/pictures/1704_fw.png	259.1284329891205	
144	137.9848599433899	picture	0		109	142.0	/experiments/knapen_aot/AOT/AOT_stimuli/pictures/0176_fw.png	259.16995096206665	0.9667041301727295
144	138.88498711585999	response	0	k		142.0	/experiments/knapen_aot/AOT/AOT_stimuli/pictures/0176_fw.png	260.07007813453674	
145	138.95156407356262	picture	0		105	143.0	/experiments/knapen_aot/AOT/AOT_stimuli/pictures/0143_fw.png	260.1366550922394	0.9362618923187256
145	139.8118760585785	response	0	j		143.0	/experiments/knapen_aot/AOT/AOT_stimuli/pictures/0143_fw.png	260.99696707725525	
146	139.88782596588135	picture	0		87	144.0	/experiments/knapen_aot/AOT/AOT_stimuli/pictures/0320_fw.png	261.0729169845581	0.772097110748291
146	140.59507703781128	response	0	j		144.0	/experiments/knapen_aot/AOT/AOT_stimuli/pictures/0320_fw.png	261.78016805648804	
147	140.65992307662964	picture	0		101	145.0	/experiments/knapen_aot/AOT/AOT_stimuli/pictures/0185_fw.png	261.8450140953064	0.9014310836791992
147	141.49338507652283	response	0	j		145.0	/experiments/knapen_aot/AOT/AOT_stimuli/pictures/0185_fw.png	262.6784760951996	
148	141.56135416030884	picture	0		71	146.0	/experiments/knapen_aot/AOT/AOT_stimuli/pictures/0701_fw.png	262.7464451789856	0.6250748634338379
148	142.1434440612793	response	0	k		146.0	/experiments/knapen_aot/AOT/AOT_stimuli/pictures/0701_fw.png	263.32853507995605	
149	142.18642902374268	picture	0		94	147.0	/experiments/knapen_aot/AOT/AOT_stimuli/pictures/1566_fw.png	263.37152004241943	0.8151199817657471
149	142.96002411842346	response	0	k		147.0	/experiments/knapen_aot/AOT/AOT_stimuli/pictures/1566_fw.png	264.1451151371002	
150	143.00154900550842	picture	0		82	148.0	/experiments/knapen_aot/AOT/AOT_stimuli/pictures/0168_fw.png	264.1866400241852	0.7194969654083252
150	143.6767110824585	response	0	k		148.0	/experiments/knapen_aot/AOT/AOT_stimuli/pictures/0168_fw.png	264.86180210113525	
151	143.72104597091675	picture	0		97	149.0	/experiments/knapen_aot/AOT/AOT_stimuli/pictures/2142_fw.png	264.9061369895935	0.8556041717529297
151	144.51850295066833	response	0	j		149.0	/experiments/knapen_aot/AOT/AOT_stimuli/pictures/2142_fw.png	265.7035939693451	
152	144.57665014266968	picture	0		87	150.0	/experiments/knapen_aot/AOT/AOT_stimuli/pictures/0747_fw.png	265.76174116134644	0.7833869457244873
152	145.29342103004456	response	0	j		150.0	/experiments/knapen_aot/AOT/AOT_stimuli/pictures/0747_fw.png	266.4785120487213	
153	145.36003708839417	picture	0		81	151.0	/experiments/knapen_aot/AOT/AOT_stimuli/pictures/0203_fw.png	266.5451281070709	0.7499918937683105
153	146.02692413330078	response	0	j		151.0	/experiments/knapen_aot/AOT/AOT_stimuli/pictures/0203_fw.png	267.21201515197754	
154	146.11002898216248	picture	0		103	152.0	/experiments/knapen_aot/AOT/AOT_stimuli/pictures/0640_fw.png	267.29512000083923	0.902838945388794
154	146.9600751399994	response	0	j		152.0	/experiments/knapen_aot/AOT/AOT_stimuli/pictures/0640_fw.png	268.14516615867615	
155	147.01286792755127	picture	0		95	153.0	/experiments/knapen_aot/AOT/AOT_stimuli/pictures/1685_fw.png	268.197958946228	0.8331780433654785
155	147.78663301467896	response	0	k		153.0	/experiments/knapen_aot/AOT/AOT_stimuli/pictures/1685_fw.png	268.9717240333557	
156	147.84604597091675	picture	0		78	154.0	/experiments/knapen_aot/AOT/AOT_stimuli/pictures/0049_fw.png	269.0311369895935	0.7014350891113281
156	148.51008915901184	response	0	k		154.0	/experiments/knapen_aot/AOT/AOT_stimuli/pictures/0049_fw.png	269.6951801776886	
157	148.54748106002808	picture	0		101	155.0	/experiments/knapen_aot/AOT/AOT_stimuli/pictures/0492_fw.png	269.73257207870483	0.8875138759613037
157	149.37676000595093	response	0	j		155.0	/experiments/knapen_aot/AOT/AOT_stimuli/pictures/0492_fw.png	270.5618510246277	
158	149.43499493598938	picture	0		130	156.0	/experiments/knapen_aot/AOT/AOT_stimuli/pictures/1767_fw.png	270.62008595466614	1.13344407081604
158	150.51012015342712	response	0	k		156.0	/experiments/knapen_aot/AOT/AOT_stimuli/pictures/1767_fw.png	271.6952111721039	
159	150.56843900680542	picture	0		88	157.0	/experiments/knapen_aot/AOT/AOT_stimuli/pictures/0411_fw.png	271.7535300254822	0.7916820049285889
159	151.29349899291992	response	0	k		157.0	/experiments/knapen_aot/AOT/AOT_stimuli/pictures/0411_fw.png	272.4785900115967	
160	151.360121011734	picture	0		78	158.0	/experiments/knapen_aot/AOT/AOT_stimuli/pictures/0529_fw.png	272.54521203041077	0.6915841102600098
160	151.99533915519714	response	0	j		158.0	/experiments/knapen_aot/AOT/AOT_stimuli/pictures/0529_fw.png	273.1804301738739	
161	152.05170512199402	picture	0		82	159.0	/experiments/knapen_aot/AOT/AOT_stimuli/pictures/0209_fw.png	273.2367961406708	0.7500209808349609
161	152.72698092460632	response	0	k		159.0	/experiments/knapen_aot/AOT/AOT_stimuli/pictures/0209_fw.png	273.9120719432831	
162	152.80172610282898	picture	0		124	160.0	/experiments/knapen_aot/AOT/AOT_stimuli/pictures/1312_fw.png	273.98681712150574	1.0749578475952148
162	153.8201620578766	response	0	k		160.0	/experiments/knapen_aot/AOT/AOT_stimuli/pictures/1312_fw.png	275.00525307655334	
163	153.8766839504242	picture	0		85	161.0	/experiments/knapen_aot/AOT/AOT_stimuli/pictures/1581_fw.png	275.06177496910095	0.7750921249389648
163	154.57702708244324	response	0	k		161.0	/experiments/knapen_aot/AOT/AOT_stimuli/pictures/1581_fw.png	275.76211810112	
164	154.65177607536316	picture	0		95	162.0	/experiments/knapen_aot/AOT/AOT_stimuli/pictures/0100_fw.png	275.8368670940399	0.8582949638366699
164	155.4351770877838	response	0	k		162.0	/experiments/knapen_aot/AOT/AOT_stimuli/pictures/0100_fw.png	276.62026810646057	
165	155.51007103919983	picture	0		91	163.0	/experiments/knapen_aot/AOT/AOT_stimuli/pictures/1754_fw.png	276.6951620578766	0.7916679382324219
165	156.2602641582489	response	0	j		163.0	/experiments/knapen_aot/AOT/AOT_stimuli/pictures/1754_fw.png	277.44535517692566	
166	156.30173897743225	picture	0		84	164.0	/experiments/knapen_aot/AOT/AOT_stimuli/pictures/0021_fw.png	277.486829996109	0.7180430889129639
166	156.98687601089478	response	0	j		164.0	/experiments/knapen_aot/AOT/AOT_stimuli/pictures/0021_fw.png	278.17196702957153	
167	157.01978206634521	picture	0		121	165.0	/experiments/knapen_aot/AOT/AOT_stimuli/pictures/1120_fw.png	278.204873085022	1.0486869812011719
167	158.01189613342285	response	0	j		165.0	/experiments/knapen_aot/AOT/AOT_stimuli/pictures/1120_fw.png	279.1969871520996	
168	158.0684690475464	picture	0		92	166.0	/experiments/knapen_aot/AOT/AOT_stimuli/pictures/0961_fw.png	279.25356006622314	0.8334000110626221
168	158.8269500732422	response	0	k		166.0	/experiments/knapen_aot/AOT/AOT_stimuli/pictures/0961_fw.png	280.01204109191895	
169	158.901869058609	picture	0		172	167.0	/experiments/knapen_aot/AOT/AOT_stimuli/pictures/0318_fw.png	280.08696007728577	1.4749128818511963
169	160.32705903053284	response	0	j		167.0	/experiments/knapen_aot/AOT/AOT_stimuli/pictures/0318_fw.png	281.5121500492096	
170	160.3767819404602	picture	0		101	168.0	/experiments/knapen_aot/AOT/AOT_stimuli/pictures/0134_fw.png	281.56187295913696	0.9083690643310547
170	161.20385813713074	response	0	k		168.0	/experiments/knapen_aot/AOT/AOT_stimuli/pictures/0134_fw.png	282.3889491558075	
171	161.28515100479126	picture	0		105	169.0	/experiments/knapen_aot/AOT/AOT_stimuli/pictures/1442_fw.png	282.470242023468	0.9083960056304932
171	162.15205693244934	response	0	j		169.0	/experiments/knapen_aot/AOT/AOT_stimuli/pictures/1442_fw.png	283.3371479511261	
172	162.19354701042175	picture	0		139	170.0	/experiments/knapen_aot/AOT/AOT_stimuli/pictures/1221_fw.png	283.3786380290985	1.20135498046875
172	163.34368014335632	response	0	j		170.0	/experiments/knapen_aot/AOT/AOT_stimuli/pictures/1221_fw.png	284.5287711620331	
173	163.3949019908905	picture	0		85	171.0	/experiments/knapen_aot/AOT/AOT_stimuli/pictures/0738_fw.png	284.57999300956726	0.7652900218963623
173	164.0936450958252	response	0	j		171.0	/experiments/knapen_aot/AOT/AOT_stimuli/pictures/0738_fw.png	285.27873611450195	
174	164.16019201278687	picture	0		85	172.0	/experiments/knapen_aot/AOT/AOT_stimuli/pictures/1234_fw.png	285.3452830314636	0.7624850273132324
174	164.86030793190002	response	0	j		172.0	/experiments/knapen_aot/AOT/AOT_stimuli/pictures/1234_fw.png	286.0453989505768	
175	164.9226770401001	picture	0		84	173.0	/experiments/knapen_aot/AOT/AOT_stimuli/pictures/1368_fw.png	286.10776805877686	0.763840913772583
175	165.60360312461853	response	0	k		173.0	/experiments/knapen_aot/AOT/AOT_stimuli/pictures/1368_fw.png	286.7886941432953	
176	165.68651795387268	picture	0		76	174.0	/experiments/knapen_aot/AOT/AOT_stimuli/pictures/1223_fw.png	286.87160897254944	0.6987462043762207
176	166.31031799316406	response	0	k		174.0	/experiments/knapen_aot/AOT/AOT_stimuli/pictures/1223_fw.png	287.4954090118408	
177	166.3852641582489	picture	0		71	175.0	/experiments/knapen_aot/AOT/AOT_stimuli/pictures/1597_fw.png	287.57035517692566	0.625018835067749
177	166.96873092651367	response	0	k		175.0	/experiments/knapen_aot/AOT/AOT_stimuli/pictures/1597_fw.png	288.15382194519043	
178	167.01028299331665	picture	0		79	176.0	/experiments/knapen_aot/AOT/AOT_stimuli/pictures/1543_fw.png	288.1953740119934	0.691673994064331
178	167.66035103797913	response	0	j		176.0	/experiments/knapen_aot/AOT/AOT_stimuli/pictures/1543_fw.png	288.8454420566559	
179	167.70195698738098	picture	0		96	177.0	/experiments/knapen_aot/AOT/AOT_stimuli/pictures/1335_fw.png	288.88704800605774	0.833251953125
179	168.49386405944824	response	0	j		177.0	/experiments/knapen_aot/AOT/AOT_stimuli/pictures/1335_fw.png	289.678955078125	
180	168.53520894050598	picture	0		92	178.0	/experiments/knapen_aot/AOT/AOT_stimuli/pictures/0846_fw.png	289.72029995918274	0.8250150680541992
180	169.29380106925964	response	0	j		178.0	/experiments/knapen_aot/AOT/AOT_stimuli/pictures/0846_fw.png	290.4788920879364	
181	169.36022400856018	picture	0		81	179.0	/experiments/knapen_aot/AOT/AOT_stimuli/pictures/0651_fw.png	290.54531502723694	0.75
181	170.02045607566833	response	0	k		179.0	/experiments/knapen_aot/AOT/AOT_stimuli/pictures/0651_fw.png	291.2055470943451	
182	170.11022400856018	picture	0		92	180.0	/experiments/knapen_aot/AOT/AOT_stimuli/pictures/0628_fw.png	291.29531502723694	0.808380126953125
182	170.86889100074768	response	0	j		180.0	/experiments/knapen_aot/AOT/AOT_stimuli/pictures/0628_fw.png	292.05398201942444	
183	170.9186041355133	picture	0		70	181.0	/experiments/knapen_aot/AOT/AOT_stimuli/pictures/0150_fw.png	292.10369515419006	0.6166830062866211
183	171.4939341545105	response	0	k		181.0	/experiments/knapen_aot/AOT/AOT_stimuli/pictures/0150_fw.png	292.67902517318726	
184	171.53528714179993	picture	0		99	182.0	/experiments/knapen_aot/AOT/AOT_stimuli/pictures/1229_fw.png	292.7203781604767	0.8666839599609375
184	172.35213708877563	response	0	j		182.0	/experiments/knapen_aot/AOT/AOT_stimuli/pictures/1229_fw.png	293.5372281074524	
185	172.40197110176086	picture	0		81	183.0	/experiments/knapen_aot/AOT/AOT_stimuli/pictures/1544_fw.png	293.5870621204376	0.7082839012145996
185	173.06872296333313	response	0	j		183.0	/experiments/knapen_aot/AOT/AOT_stimuli/pictures/1544_fw.png	294.2538139820099	
186	173.11025500297546	picture	0		93	184.0	/experiments/knapen_aot/AOT/AOT_stimuli/pictures/1954_fw.png	294.2953460216522	0.8417279720306396
186	173.87707614898682	response	0	k		184.0	/experiments/knapen_aot/AOT/AOT_stimuli/pictures/1954_fw.png	295.0621671676636	
187	173.9519829750061	picture	0		90	185.0	/experiments/knapen_aot/AOT/AOT_stimuli/pictures/0600_fw.png	295.13707399368286	0.824958086013794
187	174.69375205039978	response	0	j		185.0	/experiments/knapen_aot/AOT/AOT_stimuli/pictures/0600_fw.png	295.87884306907654	
188	174.7769410610199	picture	0		88	186.0	/experiments/knapen_aot/AOT/AOT_stimuli/pictures/1232_fw.png	295.96203207969666	0.7584269046783447
188	175.50208711624146	response	0	j		186.0	/experiments/knapen_aot/AOT/AOT_stimuli/pictures/1232_fw.png	296.6871781349182	
189	175.53536796569824	picture	0		94	187.0	/experiments/knapen_aot/AOT/AOT_stimuli/pictures/0291_fw.png	296.720458984375	0.8596181869506836
189	176.3105161190033	response	0	k		187.0	/experiments/knapen_aot/AOT/AOT_stimuli/pictures/0291_fw.png	297.49560713768005	
190	176.39498615264893	picture	0		101	188.0	/experiments/knapen_aot/AOT/AOT_stimuli/pictures/1741_fw.png	297.5800771713257	0.8750479221343994
190	177.22040605545044	response	0	k		188.0	/experiments/knapen_aot/AOT/AOT_stimuli/pictures/1741_fw.png	298.4054970741272	
191	177.27003407478333	picture	0		86	189.0	/experiments/knapen_aot/AOT/AOT_stimuli/pictures/0245_fw.png	298.4551250934601	0.7500019073486328
191	177.97716093063354	response	0	j		189.0	/experiments/knapen_aot/AOT/AOT_stimuli/pictures/0245_fw.png	299.1622519493103	
192	178.02003598213196	picture	0		73	190.0	/experiments/knapen_aot/AOT/AOT_stimuli/pictures/1376_fw.png	299.2051270008087	0.6404190063476562
192	178.61206007003784	response	0	k		190.0	/experiments/knapen_aot/AOT/AOT_stimuli/pictures/1376_fw.png	299.7971510887146	
193	178.66045498847961	picture	0		70	191.0	/experiments/knapen_aot/AOT/AOT_stimuli/pictures/0552_fw.png	299.8455460071564	0.644150972366333
193	179.23546195030212	response	0	k		191.0	/experiments/knapen_aot/AOT/AOT_stimuli/pictures/0552_fw.png	300.4205529689789	
194	179.30460596084595	picture	0		99	192.0	/experiments/knapen_aot/AOT/AOT_stimuli/pictures/2024_fw.png	300.4896969795227	0.889070987701416
194	180.11901998519897	response	0	j		192.0	/experiments/knapen_aot/AOT/AOT_stimuli/pictures/2024_fw.png	301.30411100387573	
195	180.19367694854736	picture	0		77	193.0	/experiments/knapen_aot/AOT/AOT_stimuli/pictures/0765_fw.png	301.3787679672241	0.6943080425262451
195	180.82057404518127	response	0	k		193.0	/experiments/knapen_aot/AOT/AOT_stimuli/pictures/0765_fw.png	302.00566506385803	
196	180.8879849910736	picture	0		80	194.0	/experiments/knapen_aot/AOT/AOT_stimuli/pictures/0704_fw.png	302.07307600975037	0.7152810096740723
196	181.54390501976013	response	0	k		194.0	/experiments/knapen_aot/AOT/AOT_stimuli/pictures/0704_fw.png	302.7289960384369	
197	181.60326600074768	picture	0		76	195.0	/experiments/knapen_aot/AOT/AOT_stimuli/pictures/1021_fw.png	302.78835701942444	0.6737749576568604
197	182.22718405723572	response	0	k		195.0	/experiments/knapen_aot/AOT/AOT_stimuli/pictures/1021_fw.png	303.4122750759125	
198	182.27704095840454	picture	0		82	196.0	/experiments/knapen_aot/AOT/AOT_stimuli/pictures/1222_fw.png	303.4621319770813	0.716698169708252
198	182.95220303535461	response	0	j		196.0	/experiments/knapen_aot/AOT/AOT_stimuli/pictures/1222_fw.png	304.1372940540314	
199	182.9937391281128	picture	0		92	197.0	/experiments/knapen_aot/AOT/AOT_stimuli/pictures/1206_fw.png	304.17883014678955	0.8108489513397217
199	183.7522370815277	response	0	j		197.0	/experiments/knapen_aot/AOT/AOT_stimuli/pictures/1206_fw.png	304.93732810020447	
200	183.80458807945251	picture	0		78	198.0	/experiments/knapen_aot/AOT/AOT_stimuli/pictures/0829_fw.png	304.9896790981293	0.7084169387817383
200	184.44388699531555	response	0	k		198.0	/experiments/knapen_aot/AOT/AOT_stimuli/pictures/0829_fw.png	305.6289780139923	
201	184.51300501823425	picture	0		90	199.0	/experiments/knapen_aot/AOT/AOT_stimuli/pictures/0515_fw.png	305.698096036911	0.7986149787902832
201	185.2522201538086	response	0	j		199.0	/experiments/knapen_aot/AOT/AOT_stimuli/pictures/0515_fw.png	306.43731117248535	
202	185.31161999702454	picture	0		194	200.0	/experiments/knapen_aot/AOT/AOT_stimuli/pictures/1107_fw.png	306.4967110157013	1.6665740013122559
202	186.91906309127808	response	0	k		200.0	/experiments/knapen_aot/AOT/AOT_stimuli/pictures/1107_fw.png	308.10415410995483	
203	186.9781939983368	picture	0		273	201.0	/experiments/knapen_aot/AOT/AOT_stimuli/pictures/0296_fw.png	308.16328501701355	2.312610149383545
203	189.24401998519897	response	0	j		201.0	/experiments/knapen_aot/AOT/AOT_stimuli/pictures/0296_fw.png	310.42911100387573	
204	189.29080414772034	picture	0		116	202.0	/experiments/knapen_aot/AOT/AOT_stimuli/pictures/0202_fw.png	310.4758951663971	1.0207488536834717
204	190.25232601165771	response	0	k		202.0	/experiments/knapen_aot/AOT/AOT_stimuli/pictures/0202_fw.png	311.4374170303345	
205	190.3115530014038	picture	0		87	203.0	/experiments/knapen_aot/AOT/AOT_stimuli/pictures/0905_fw.png	311.49664402008057	0.7917420864105225
205	191.02726197242737	response	0	j		203.0	/experiments/knapen_aot/AOT/AOT_stimuli/pictures/0905_fw.png	312.2123529911041	
206	191.10329508781433	picture	0		83	204.0	/experiments/knapen_aot/AOT/AOT_stimuli/pictures/1048_fw.png	312.2883861064911	0.7322430610656738
206	191.78580808639526	response	0	j		204.0	/experiments/knapen_aot/AOT/AOT_stimuli/pictures/1048_fw.png	312.970899105072	
207	191.83553814888	picture	0		101	205.0	/experiments/knapen_aot/AOT/AOT_stimuli/pictures/0722_fw.png	313.02062916755676	0.8788588047027588
207	192.66905212402344	response	0	k		205.0	/experiments/knapen_aot/AOT/AOT_stimuli/pictures/0722_fw.png	313.8541431427002	
208	192.71439695358276	picture	0		110	206.0	/experiments/knapen_aot/AOT/AOT_stimuli/pictures/0324_fw.png	313.8994879722595	0.958280086517334
208	193.61245203018188	response	0	j		206.0	/experiments/knapen_aot/AOT/AOT_stimuli/pictures/0324_fw.png	314.79754304885864	
209	193.6726770401001	picture	0		98	207.0	/experiments/knapen_aot/AOT/AOT_stimuli/pictures/2132_fw.png	314.85776805877686	0.8545429706573486
209	194.47750115394592	response	0	k		207.0	/experiments/knapen_aot/AOT/AOT_stimuli/pictures/2132_fw.png	315.6625921726227	
210	194.52722001075745	picture	0		81	208.0	/experiments/knapen_aot/AOT/AOT_stimuli/pictures/0913_fw.png	315.7123110294342	0.7250361442565918
210	195.18742299079895	response	0	j		208.0	/experiments/knapen_aot/AOT/AOT_stimuli/pictures/0913_fw.png	316.3725140094757	
211	195.25225615501404	picture	0		94	209.0	/experiments/knapen_aot/AOT/AOT_stimuli/pictures/0395_fw.png	316.4373471736908	0.8166289329528809
211	196.02734112739563	response	0	j		209.0	/experiments/knapen_aot/AOT/AOT_stimuli/pictures/0395_fw.png	317.2124321460724	
212	196.06888508796692	picture	0		88	210.0	/experiments/knapen_aot/AOT/AOT_stimuli/pictures/1137_fw.png	317.2539761066437	0.7635459899902344
212	196.78737497329712	response	0	j		210.0	/experiments/knapen_aot/AOT/AOT_stimuli/pictures/1137_fw.png	317.9724659919739	
213	196.83243107795715	picture	0		67	211.0	/experiments/knapen_aot/AOT/AOT_stimuli/pictures/1872_fw.png	318.0175220966339	0.6042299270629883
213	197.38581109046936	response	0	k		211.0	/experiments/knapen_aot/AOT/AOT_stimuli/pictures/1872_fw.png	318.5709021091461	
214	197.43666100502014	picture	0		98	212.0	/experiments/knapen_aot/AOT/AOT_stimuli/pictures/1649_fw.png	318.6217520236969	0.8822751045227051
214	198.24405193328857	response	0	k		212.0	/experiments/knapen_aot/AOT/AOT_stimuli/pictures/1649_fw.png	319.42914295196533	
215	198.31893610954285	picture	0		86	213.0	/experiments/knapen_aot/AOT/AOT_stimuli/pictures/1534_fw.png	319.5040271282196	0.7774138450622559
215	199.0207359790802	response	0	j		213.0	/experiments/knapen_aot/AOT/AOT_stimuli/pictures/1534_fw.png	320.20582699775696	
216	199.0963499546051	picture	0		79	214.0	/experiments/knapen_aot/AOT/AOT_stimuli/pictures/1218_fw.png	320.28144097328186	0.7059791088104248
216	199.74413514137268	response	0	k		214.0	/experiments/knapen_aot/AOT/AOT_stimuli/pictures/1218_fw.png	320.92922616004944	
217	199.80232906341553	picture	0		76	215.0	/experiments/knapen_aot/AOT/AOT_stimuli/pictures/1309_fw.png	320.9874200820923	0.6999690532684326
217	200.45250296592712	response	0	k		215.0	/experiments/knapen_aot/AOT/AOT_stimuli/pictures/1309_fw.png	321.6375939846039	
218	200.50229811668396	picture	0		74	216.0	/experiments/knapen_aot/AOT/AOT_stimuli/pictures/1927_fw.png	321.6873891353607	0.666672945022583
218	201.11088395118713	response	0	k		216.0	/experiments/knapen_aot/AOT/AOT_stimuli/pictures/1927_fw.png	322.2959749698639	
219	201.16897106170654	picture	0		75	217.0	/experiments/knapen_aot/AOT/AOT_stimuli/pictures/0543_fw.png	322.3540620803833	0.6584100723266602
219	201.78589296340942	response	0	j		217.0	/experiments/knapen_aot/AOT/AOT_stimuli/pictures/0543_fw.png	322.9709839820862	
220	201.8273811340332	picture	0		113	218.0	/experiments/knapen_aot/AOT/AOT_stimuli/pictures/1062_fw.png	323.01247215270996	0.9844529628753662
220	202.76097011566162	response	0	k		218.0	/experiments/knapen_aot/AOT/AOT_stimuli/pictures/1062_fw.png	323.9460611343384	
221	202.81183409690857	picture	0		84	219.0	/experiments/knapen_aot/AOT/AOT_stimuli/pictures/0179_fw.png	323.9969251155853	0.7498040199279785
221	203.50258803367615	response	0	j		219.0	/experiments/knapen_aot/AOT/AOT_stimuli/pictures/0179_fw.png	324.6876790523529	
222	203.56163811683655	picture	0		110	220.0	/experiments/knapen_aot/AOT/AOT_stimuli/pictures/0068_fw.png	324.7467291355133	0.9657399654388428
222	204.46912813186646	response	0	j		220.0	/experiments/knapen_aot/AOT/AOT_stimuli/pictures/0068_fw.png	325.6542191505432	
223	204.5273780822754	picture	0		80	221.0	/experiments/knapen_aot/AOT/AOT_stimuli/pictures/0223_fw.png	325.71246910095215	0.7083818912506104
223	205.1859200000763	response	0	k		221.0	/experiments/knapen_aot/AOT/AOT_stimuli/pictures/0223_fw.png	326.37101101875305	
224	205.235759973526	picture	0		83	222.0	/experiments/knapen_aot/AOT/AOT_stimuli/pictures/1848_fw.png	326.42085099220276	0.7356491088867188
224	205.91920709609985	response	0	k		222.0	/experiments/knapen_aot/AOT/AOT_stimuli/pictures/1848_fw.png	327.1042981147766	
225	205.97140908241272	picture	0		76	223.0	/experiments/knapen_aot/AOT/AOT_stimuli/pictures/0926_fw.png	327.1565001010895	0.6666688919067383
225	206.58746814727783	response	0	k		223.0	/experiments/knapen_aot/AOT/AOT_stimuli/pictures/0926_fw.png	327.7725591659546	
226	206.63807797431946	picture	0		99	224.0	/experiments/knapen_aot/AOT/AOT_stimuli/pictures/1538_fw.png	327.8231689929962	0.8476700782775879
226	207.45261907577515	response	0	j		224.0	/experiments/knapen_aot/AOT/AOT_stimuli/pictures/1538_fw.png	328.6377100944519	
227	207.48574805259705	picture	0		92	225.0	/experiments/knapen_aot/AOT/AOT_stimuli/pictures/0928_fw.png	328.6708390712738	0.8001220226287842
227	208.2441921234131	response	0	j		225.0	/experiments/knapen_aot/AOT/AOT_stimuli/pictures/0928_fw.png	329.42928314208984	
228	208.28587007522583	picture	0		75	226.0	/experiments/knapen_aot/AOT/AOT_stimuli/pictures/1367_fw.png	329.4709610939026	0.6831998825073242
228	208.90264511108398	response	0	k		226.0	/experiments/knapen_aot/AOT/AOT_stimuli/pictures/1367_fw.png	330.08773612976074	
229	208.96906995773315	picture	0		89	227.0	/experiments/knapen_aot/AOT/AOT_stimuli/pictures/1455_fw.png	330.1541609764099	0.7916660308837891
229	209.70267415046692	response	0	k		227.0	/experiments/knapen_aot/AOT/AOT_stimuli/pictures/1455_fw.png	330.8877651691437	
230	209.76073598861694	picture	0		102	228.0	/experiments/knapen_aot/AOT/AOT_stimuli/pictures/0109_fw.png	330.9458270072937	0.8843159675598145
230	210.59589314460754	response	0	k		228.0	/experiments/knapen_aot/AOT/AOT_stimuli/pictures/0109_fw.png	331.7809841632843	
231	210.64505195617676	picture	0		77	229.0	/experiments/knapen_aot/AOT/AOT_stimuli/pictures/0669_fw.png	331.8301429748535	0.7083179950714111
231	211.27774906158447	response	0	j		229.0	/experiments/knapen_aot/AOT/AOT_stimuli/pictures/0669_fw.png	332.46284008026123	
232	211.35336995124817	picture	0		97	230.0	/experiments/knapen_aot/AOT/AOT_stimuli/pictures/1177_fw.png	332.5384609699249	0.8490970134735107
232	212.15269708633423	response	0	j		230.0	/experiments/knapen_aot/AOT/AOT_stimuli/pictures/1177_fw.png	333.337788105011	
233	212.20246696472168	picture	0		73	231.0	/experiments/knapen_aot/AOT/AOT_stimuli/pictures/2030_fw.png	333.38755798339844	0.6370880603790283
233	212.79579496383667	response	0	k		231.0	/experiments/knapen_aot/AOT/AOT_stimuli/pictures/2030_fw.png	333.9808859825134	
234	212.8395550251007	picture	0		80	232.0	/experiments/knapen_aot/AOT/AOT_stimuli/pictures/2011_fw.png	334.02464604377747	0.6963660717010498
234	213.49426007270813	response	0	k		232.0	/experiments/knapen_aot/AOT/AOT_stimuli/pictures/2011_fw.png	334.6793510913849	
235	213.53592109680176	picture	0		83	233.0	/experiments/knapen_aot/AOT/AOT_stimuli/pictures/0968_fw.png	334.7210121154785	0.7500159740447998
235	214.21268916130066	response	0	j		233.0	/experiments/knapen_aot/AOT/AOT_stimuli/pictures/0968_fw.png	335.3977801799774	
236	214.28593707084656	picture	0		76	234.0	/experiments/knapen_aot/AOT/AOT_stimuli/pictures/1775_fw.png	335.4710280895233	0.6915779113769531
236	214.91106796264648	response	0	k		234.0	/experiments/knapen_aot/AOT/AOT_stimuli/pictures/1775_fw.png	336.09615898132324	
237	214.9775149822235	picture	0		91	235.0	/experiments/knapen_aot/AOT/AOT_stimuli/pictures/1432_fw.png	336.16260600090027	0.81662917137146
237	215.72783398628235	response	0	k		235.0	/experiments/knapen_aot/AOT/AOT_stimuli/pictures/1432_fw.png	336.9129250049591	
238	215.79414415359497	picture	0		157	236.0	/experiments/knapen_aot/AOT/AOT_stimuli/pictures/0052_fw.png	336.97923517227173	1.343977928161621
238	217.0943419933319	response	0	k		236.0	/experiments/knapen_aot/AOT/AOT_stimuli/pictures/0052_fw.png	338.27943301200867	
239	217.1381220817566	picture	0		79	237.0	/experiments/knapen_aot/AOT/AOT_stimuli/pictures/0963_fw.png	338.32321310043335	0.6893839836120605
239	217.78608512878418	response	0	k		237.0	/experiments/knapen_aot/AOT/AOT_stimuli/pictures/0963_fw.png	338.97117614746094	
240	217.82750606536865	picture	0		78	238.0	/experiments/knapen_aot/AOT/AOT_stimuli/pictures/0502_fw.png	339.0125970840454	0.6834080219268799
240	218.46942806243896	response	0	k		238.0	/experiments/knapen_aot/AOT/AOT_stimuli/pictures/0502_fw.png	339.6545190811157	
241	218.51091408729553	picture	0		92	239.0	/experiments/knapen_aot/AOT/AOT_stimuli/pictures/0848_fw.png	339.6960051059723	0.8009400367736816
241	219.26942014694214	response	0	j		239.0	/experiments/knapen_aot/AOT/AOT_stimuli/pictures/0848_fw.png	340.4545111656189	
242	219.3118541240692	picture	0		170	240.0	/experiments/knapen_aot/AOT/AOT_stimuli/pictures/1176_fw.png	340.496945142746	1.6249258518218994
242	220.71937704086304	response	0	j		240.0	/experiments/knapen_aot/AOT/AOT_stimuli/pictures/1176_fw.png	341.9044680595398	
243	220.9367799758911	picture	0		105	241.0	/experiments/knapen_aot/AOT/AOT_stimuli/pictures/0083_fw.png	342.12187099456787	0.9028799533843994
243	221.7960240840912	response	0	j		241.0	/experiments/knapen_aot/AOT/AOT_stimuli/pictures/0083_fw.png	342.98111510276794	
244	221.8396599292755	picture	0		261	242.0	/experiments/knapen_aot/AOT/AOT_stimuli/pictures/0170_fw.png	343.02475094795227	2.229586124420166
244	223.99599695205688	response	0	j		242.0	/experiments/knapen_aot/AOT/AOT_stimuli/pictures/0170_fw.png	345.18108797073364	
245	224.06924605369568	picture	0		107	243.0	/experiments/knapen_aot/AOT/AOT_stimuli/pictures/0260_fw.png	345.25433707237244	0.9370908737182617
245	224.95288109779358	response	0	j		243.0	/experiments/knapen_aot/AOT/AOT_stimuli/pictures/0260_fw.png	346.13797211647034	
246	225.00633692741394	picture	0		91	244.0	/experiments/knapen_aot/AOT/AOT_stimuli/pictures/1123_fw.png	346.1914279460907	0.9166011810302734
246	225.7528829574585	response	0	j		244.0	/experiments/knapen_aot/AOT/AOT_stimuli/pictures/1123_fw.png	346.93797397613525	
247	225.9229381084442	picture	0		166	245.0	/experiments/knapen_aot/AOT/AOT_stimuli/pictures/0629_fw.png	347.108029127121	1.4213569164276123
247	227.29448413848877	response	0	j		245.0	/experiments/knapen_aot/AOT/AOT_stimuli/pictures/0629_fw.png	348.4795751571655	
248	227.34429502487183	picture	0		94	246.0	/experiments/knapen_aot/AOT/AOT_stimuli/pictures/1782_fw.png	348.5293860435486	0.8286480903625488
248	228.11947202682495	response	0	j		246.0	/experiments/knapen_aot/AOT/AOT_stimuli/pictures/1782_fw.png	349.3045630455017	
249	228.17294311523438	picture	0		161	247.0	/experiments/knapen_aot/AOT/AOT_stimuli/pictures/1825_fw.png	349.35803413391113	1.3964588642120361
249	229.5029799938202	response	0	k		247.0	/experiments/knapen_aot/AOT/AOT_stimuli/pictures/1825_fw.png	350.68807101249695	
250	229.5694019794464	picture	0		96	248.0	/experiments/knapen_aot/AOT/AOT_stimuli/pictures/1020_fw.png	350.75449299812317	0.8583481311798096
250	230.3611969947815	response	0	k		248.0	/experiments/knapen_aot/AOT/AOT_stimuli/pictures/1020_fw.png	351.54628801345825	
251	230.42775011062622	picture	0		82	249.0	/experiments/knapen_aot/AOT/AOT_stimuli/pictures/0374_fw.png	351.612841129303	0.7665858268737793
251	231.10302114486694	response	0	j		249.0	/experiments/knapen_aot/AOT/AOT_stimuli/pictures/0374_fw.png	352.2881121635437	
252	231.1943359375	picture	0		73	250.0	/experiments/knapen_aot/AOT/AOT_stimuli/pictures/0720_fw.png	352.37942695617676	0.6416721343994141
252	231.78775596618652	response	0	k		250.0	/experiments/knapen_aot/AOT/AOT_stimuli/pictures/0720_fw.png	352.9728469848633	
253	231.8360080718994	picture	0		94	251.0	/experiments/knapen_aot/AOT/AOT_stimuli/pictures/2143_fw.png	353.0210990905762	0.8092269897460938
253	232.60461807250977	response	0	k		251.0	/experiments/knapen_aot/AOT/AOT_stimuli/pictures/2143_fw.png	353.7897090911865	
254	232.6452350616455	picture	0		87	252.0	/experiments/knapen_aot/AOT/AOT_stimuli/pictures/1298_fw.png	353.83032608032227	0.7575020790100098
254	233.36120295524597	response	0	j		252.0	/experiments/knapen_aot/AOT/AOT_stimuli/pictures/1298_fw.png	354.54629397392273	
255	233.40273714065552	picture	0		103	253.0	/experiments/knapen_aot/AOT/AOT_stimuli/pictures/0969_fw.png	354.5878281593323	0.9166669845581055
255	234.25292992591858	response	0	k		253.0	/experiments/knapen_aot/AOT/AOT_stimuli/pictures/0969_fw.png	355.43802094459534	
256	234.31940412521362	picture	0		96	254.0	/experiments/knapen_aot/AOT/AOT_stimuli/pictures/2141_fw.png	355.5044951438904	0.8467240333557129
256	235.11122798919678	response	0	k		254.0	/experiments/knapen_aot/AOT/AOT_stimuli/pictures/2141_fw.png	356.29631900787354	
257	235.16612815856934	picture	0		89	255.0	/experiments/knapen_aot/AOT/AOT_stimuli/pictures/0568_fw.png	356.3512191772461	0.7866277694702148
257	235.9030361175537	response	0	j		255.0	/experiments/knapen_aot/AOT/AOT_stimuli/pictures/0568_fw.png	357.08812713623047	
258	235.95275592803955	picture	0		107	256.0	/experiments/knapen_aot/AOT/AOT_stimuli/pictures/1643_fw.png	357.1378469467163	0.9500291347503662
258	236.83629393577576	response	0	j		256.0	/experiments/knapen_aot/AOT/AOT_stimuli/pictures/1643_fw.png	358.0213849544525	
259	236.90278506278992	picture	0		93	257.0	/experiments/knapen_aot/AOT/AOT_stimuli/pictures/0047_fw.png	358.0878760814667	0.8257858753204346
259	237.6696560382843	response	0	j		257.0	/experiments/knapen_aot/AOT/AOT_stimuli/pictures/0047_fw.png	358.85474705696106	
260	237.72857093811035	picture	0		80	258.0	/experiments/knapen_aot/AOT/AOT_stimuli/pictures/0465_fw.png	358.9136619567871	0.6944360733032227
260	238.3862431049347	response	0	j		258.0	/experiments/knapen_aot/AOT/AOT_stimuli/pictures/0465_fw.png	359.57133412361145	
261	238.42300701141357	picture	0		73	259.0	/experiments/knapen_aot/AOT/AOT_stimuli/pictures/1269_fw.png	359.60809803009033	0.6464359760284424
261	239.01279497146606	response	0	k		259.0	/experiments/knapen_aot/AOT/AOT_stimuli/pictures/1269_fw.png	360.1978859901428	
262	239.06944298744202	picture	0		283	260.0	/experiments/knapen_aot/AOT/AOT_stimuli/pictures/0293_fw.png	360.2545340061188	2.409168004989624
262	241.41296410560608	response	0	k		260.0	/experiments/knapen_aot/AOT/AOT_stimuli/pictures/0293_fw.png	362.59805512428284	
263	241.47861099243164	picture	0		91	261.0	/experiments/knapen_aot/AOT/AOT_stimuli/pictures/0140_fw.png	362.6637020111084	0.8159141540527344
263	242.22136116027832	response	0	k		261.0	/experiments/knapen_aot/AOT/AOT_stimuli/pictures/0140_fw.png	363.4064521789551	
264	242.29452514648438	picture	0		231	262.0	/experiments/knapen_aot/AOT/AOT_stimuli/pictures/1557_fw.png	363.47961616516113	1.991637945175171
264	244.20468997955322	response	0	k		262.0	/experiments/knapen_aot/AOT/AOT_stimuli/pictures/1557_fw.png	365.38978099823	
265	244.28616309165955	picture	0		95	263.0	/experiments/knapen_aot/AOT/AOT_stimuli/pictures/0007_fw.png	365.4712541103363	0.8583488464355469
265	245.06972694396973	response	0	j		263.0	/experiments/knapen_aot/AOT/AOT_stimuli/pictures/0007_fw.png	366.2548179626465	
266	245.1445119380951	picture	0		131	264.0	/experiments/knapen_aot/AOT/AOT_stimuli/pictures/0509_fw.png	366.32960295677185	1.1583671569824219
266	246.22886300086975	response	0	k		264.0	/experiments/knapen_aot/AOT/AOT_stimuli/pictures/0509_fw.png	367.4139540195465	
267	246.30287909507751	picture	0		96	265.0	/experiments/knapen_aot/AOT/AOT_stimuli/pictures/1849_fw.png	367.4879701137543	0.8500819206237793
267	247.0947470664978	response	0	k		265.0	/experiments/knapen_aot/AOT/AOT_stimuli/pictures/1849_fw.png	368.27983808517456	
268	247.1529610157013	picture	0		153	266.0	/experiments/knapen_aot/AOT/AOT_stimuli/pictures/0348_fw.png	368.33805203437805	1.3082799911499023
268	248.41302800178528	response	0	k		266.0	/experiments/knapen_aot/AOT/AOT_stimuli/pictures/0348_fw.png	369.59811902046204	
269	248.4612410068512	picture	0		67	267.0	/experiments/knapen_aot/AOT/AOT_stimuli/pictures/2038_fw.png	369.64633202552795	0.6007559299468994
269	249.00480604171753	response	0	k		267.0	/experiments/knapen_aot/AOT/AOT_stimuli/pictures/2038_fw.png	370.1898970603943	
270	249.0619969367981	picture	0		70	268.0	/experiments/knapen_aot/AOT/AOT_stimuli/pictures/0836_fw.png	370.24708795547485	0.6242470741271973
270	249.63654613494873	response	0	k		268.0	/experiments/knapen_aot/AOT/AOT_stimuli/pictures/0836_fw.png	370.8216371536255	
271	249.6862440109253	picture	0		83	269.0	/experiments/knapen_aot/AOT/AOT_stimuli/pictures/1906_fw.png	370.87133502960205	0.7583580017089844
271	250.3698239326477	response	0	j		269.0	/experiments/knapen_aot/AOT/AOT_stimuli/pictures/1906_fw.png	371.55491495132446	
272	250.44460201263428	picture	0		146	270.0	/experiments/knapen_aot/AOT/AOT_stimuli/pictures/0995_fw.png	371.62969303131104	1.2499971389770508
272	251.65313506126404	response	0	k		270.0	/experiments/knapen_aot/AOT/AOT_stimuli/pictures/0995_fw.png	372.8382260799408	
273	251.69459915161133	picture	0		89	271.0	/experiments/knapen_aot/AOT/AOT_stimuli/pictures/1194_fw.png	372.8796901702881	0.8000328540802002
273	252.4280879497528	response	0	j		271.0	/experiments/knapen_aot/AOT/AOT_stimuli/pictures/1194_fw.png	373.61317896842957	
274	252.49463200569153	picture	0		79	272.0	/experiments/knapen_aot/AOT/AOT_stimuli/pictures/1852_fw.png	373.6797230243683	0.7201769351959229
274	253.1448061466217	response	0	j		272.0	/experiments/knapen_aot/AOT/AOT_stimuli/pictures/1852_fw.png	374.32989716529846	
275	253.21480894088745	picture	0		88	273.0	/experiments/knapen_aot/AOT/AOT_stimuli/pictures/1103_fw.png	374.3998999595642	0.7881591320037842
275	253.937166929245	response	0	k		273.0	/experiments/knapen_aot/AOT/AOT_stimuli/pictures/1103_fw.png	375.12225794792175	
276	254.00296807289124	picture	0		87	274.0	/experiments/knapen_aot/AOT/AOT_stimuli/pictures/2086_fw.png	375.188059091568	0.9340620040893555
276	254.71988797187805	response	0	k		274.0	/experiments/knapen_aot/AOT/AOT_stimuli/pictures/2086_fw.png	375.9049789905548	
277	254.9370300769806	picture	0		83	275.0	/experiments/knapen_aot/AOT/AOT_stimuli/pictures/1820_fw.png	376.12212109565735	0.7576379776000977
277	255.61316299438477	response	0	k		275.0	/experiments/knapen_aot/AOT/AOT_stimuli/pictures/1820_fw.png	376.7982540130615	
278	255.6946680545807	picture	0		89	276.0	/experiments/knapen_aot/AOT/AOT_stimuli/pictures/1133_fw.png	376.87975907325745	0.8333220481872559
278	256.42813897132874	response	0	k		276.0	/experiments/knapen_aot/AOT/AOT_stimuli/pictures/1133_fw.png	377.6132299900055	
279	256.52799010276794	picture	0		120	277.0	/experiments/knapen_aot/AOT/AOT_stimuli/pictures/0708_fw.png	377.7130811214447	1.0340368747711182
279	257.5206489562988	response	0	k		277.0	/experiments/knapen_aot/AOT/AOT_stimuli/pictures/0708_fw.png	378.7057399749756	
280	257.56202697753906	picture	0		78	278.0	/experiments/knapen_aot/AOT/AOT_stimuli/pictures/0967_fw.png	378.7471179962158	0.6910090446472168
280	258.19643998146057	response	0	j		278.0	/experiments/knapen_aot/AOT/AOT_stimuli/pictures/0967_fw.png	379.38153100013733	
281	258.2530360221863	picture	0		80	279.0	/experiments/knapen_aot/AOT/AOT_stimuli/pictures/1747_fw.png	379.43812704086304	0.7166759967803955
281	258.91162300109863	response	0	k		279.0	/experiments/knapen_aot/AOT/AOT_stimuli/pictures/1747_fw.png	380.0967140197754	
282	258.9697120189667	picture	0		83	280.0	/experiments/knapen_aot/AOT/AOT_stimuli/pictures/0408_fw.png	380.15480303764343	0.7668271064758301
282	259.6531591415405	response	0	k		280.0	/experiments/knapen_aot/AOT/AOT_stimuli/pictures/0408_fw.png	380.8382501602173	
283	259.7365391254425	picture	0		76	281.0	/experiments/knapen_aot/AOT/AOT_stimuli/pictures/1689_fw.png	380.92163014411926	0.7282938957214355
283	260.38667702674866	response	0	j		281.0	/experiments/knapen_aot/AOT/AOT_stimuli/pictures/1689_fw.png	381.5717680454254	
284	260.46483302116394	picture	0		85	282.0	/experiments/knapen_aot/AOT/AOT_stimuli/pictures/0507_fw.png	381.6499240398407	0.7715771198272705
284	261.16159296035767	response	0	j		282.0	/experiments/knapen_aot/AOT/AOT_stimuli/pictures/0507_fw.png	382.3466839790344	
285	261.2364101409912	picture	0		87	283.0	/experiments/knapen_aot/AOT/AOT_stimuli/pictures/1975_fw.png	382.42150115966797	0.7500309944152832
285	261.9532940387726	response	0	j		283.0	/experiments/knapen_aot/AOT/AOT_stimuli/pictures/1975_fw.png	383.13838505744934	
286	261.9864411354065	picture	0		77	284.0	/experiments/knapen_aot/AOT/AOT_stimuli/pictures/1515_fw.png	383.17153215408325	0.6749539375305176
286	262.6132321357727	response	0	k		284.0	/experiments/knapen_aot/AOT/AOT_stimuli/pictures/1515_fw.png	383.79832315444946	
287	262.661395072937	picture	0		82	285.0	/experiments/knapen_aot/AOT/AOT_stimuli/pictures/1806_fw.png	383.84648609161377	0.7270779609680176
287	263.3366651535034	response	0	j		285.0	/experiments/knapen_aot/AOT/AOT_stimuli/pictures/1806_fw.png	384.5217561721802	
288	263.38847303390503	picture	0		76	286.0	/experiments/knapen_aot/AOT/AOT_stimuli/pictures/0834_fw.png	384.5735640525818	0.7084410190582275
288	264.00477504730225	response	0	k		286.0	/experiments/knapen_aot/AOT/AOT_stimuli/pictures/0834_fw.png	385.189866065979	
289	264.09691405296326	picture	0		97	287.0	/experiments/knapen_aot/AOT/AOT_stimuli/pictures/0058_fw.png	385.28200507164	0.8561980724334717
289	264.89564204216003	response	0	j		287.0	/experiments/knapen_aot/AOT/AOT_stimuli/pictures/0058_fw.png	386.0807330608368	
290	264.95311212539673	picture	0		79	288.0	/experiments/knapen_aot/AOT/AOT_stimuli/pictures/1748_fw.png	386.1382031440735	0.7000298500061035
290	265.59656715393066	response	0	k		288.0	/experiments/knapen_aot/AOT/AOT_stimuli/pictures/1748_fw.png	386.7816581726074	
291	265.65314197540283	picture	0		86	289.0	/experiments/knapen_aot/AOT/AOT_stimuli/pictures/1473_fw.png	386.8382329940796	0.7583491802215576
291	266.3617079257965	response	0	k		289.0	/experiments/knapen_aot/AOT/AOT_stimuli/pictures/1473_fw.png	387.54679894447327	
292	266.4114911556244	picture	0		82	290.0	/experiments/knapen_aot/AOT/AOT_stimuli/pictures/2068_fw.png	387.59658217430115	0.724998950958252
292	267.0867109298706	response	0	k		290.0	/experiments/knapen_aot/AOT/AOT_stimuli/pictures/2068_fw.png	388.27180194854736	
293	267.13649010658264	picture	0		107	291.0	/experiments/knapen_aot/AOT/AOT_stimuli/pictures/0763_fw.png	388.3215811252594	0.9333658218383789
293	268.0133581161499	response	0	j		291.0	/experiments/knapen_aot/AOT/AOT_stimuli/pictures/0763_fw.png	389.19844913482666	
294	268.069855928421	picture	0		90	292.0	/experiments/knapen_aot/AOT/AOT_stimuli/pictures/0147_fw.png	389.2549469470978	0.7916171550750732
294	268.80489110946655	response	0	j		292.0	/experiments/knapen_aot/AOT/AOT_stimuli/pictures/0147_fw.png	389.9899821281433	
295	268.8614730834961	picture	0		76	293.0	/experiments/knapen_aot/AOT/AOT_stimuli/pictures/1057_fw.png	390.04656410217285	0.6917169094085693
295	269.48677015304565	response	0	k		293.0	/experiments/knapen_aot/AOT/AOT_stimuli/pictures/1057_fw.png	390.6718611717224	
296	269.55318999290466	picture	0		78	294.0	/experiments/knapen_aot/AOT/AOT_stimuli/pictures/1363_fw.png	390.7382810115814	0.703557014465332
296	270.18880701065063	response	0	k		294.0	/experiments/knapen_aot/AOT/AOT_stimuli/pictures/1363_fw.png	391.3738980293274	
297	270.25674700737	picture	0		82	295.0	/experiments/knapen_aot/AOT/AOT_stimuli/pictures/0656_fw.png	391.44183802604675	0.7214770317077637
297	270.92837715148926	response	0	j		295.0	/experiments/knapen_aot/AOT/AOT_stimuli/pictures/0656_fw.png	392.113468170166	
298	270.97822403907776	picture	0		75	296.0	/experiments/knapen_aot/AOT/AOT_stimuli/pictures/0369_fw.png	392.1633150577545	0.701977014541626
298	271.58841609954834	response	0	k		296.0	/experiments/knapen_aot/AOT/AOT_stimuli/pictures/0369_fw.png	392.7735071182251	
299	271.6802010536194	picture	0		89	297.0	/experiments/knapen_aot/AOT/AOT_stimuli/pictures/0973_fw.png	392.86529207229614	0.7980070114135742
299	272.4050190448761	response	0	j		297.0	/experiments/knapen_aot/AOT/AOT_stimuli/pictures/0973_fw.png	393.59011006355286	
300	272.47820806503296	picture	0		71	298.0	/experiments/knapen_aot/AOT/AOT_stimuli/pictures/1550_fw.png	393.6632990837097	0.6416730880737305
300	273.0622651576996	response	0	k		298.0	/experiments/knapen_aot/AOT/AOT_stimuli/pictures/1550_fw.png	394.24735617637634	
301	273.1198811531067	picture	0		117	299.0	/experiments/knapen_aot/AOT/AOT_stimuli/pictures/1716_fw.png	394.30497217178345	1.0257689952850342
301	274.0866849422455	response	0	k		299.0	/experiments/knapen_aot/AOT/AOT_stimuli/pictures/1716_fw.png	395.27177596092224	
302	274.1456501483917	picture	0		91	300.0	/experiments/knapen_aot/AOT/AOT_stimuli/pictures/0431_fw.png	395.3307411670685	0.8159229755401611
302	274.8957779407501	response	0	j		300.0	/experiments/knapen_aot/AOT/AOT_stimuli/pictures/0431_fw.png	396.0808689594269	
303	274.9615731239319	picture	0		76	301.0	/experiments/knapen_aot/AOT/AOT_stimuli/pictures/2026_fw.png	396.14666414260864	0.6917908191680908
303	275.58690214157104	response	0	k		301.0	/experiments/knapen_aot/AOT/AOT_stimuli/pictures/2026_fw.png	396.7719931602478	
304	275.6533639431	picture	0		91	302.0	/experiments/knapen_aot/AOT/AOT_stimuli/pictures/0308_fw.png	396.83845496177673	0.8582320213317871
304	276.39719104766846	response	0	k		302.0	/experiments/knapen_aot/AOT/AOT_stimuli/pictures/0308_fw.png	397.5822820663452	
305	276.51159596443176	picture	0		144	303.0	/experiments/knapen_aot/AOT/AOT_stimuli/pictures/1698_fw.png	397.6966869831085	1.2500100135803223
305	277.70348715782166	response	0	k		303.0	/experiments/knapen_aot/AOT/AOT_stimuli/pictures/1698_fw.png	398.8885781764984	
306	277.7616059780121	picture	0		124	304.0	/experiments/knapen_aot/AOT/AOT_stimuli/pictures/1523_fw.png	398.94669699668884	1.099992036819458
306	278.7868890762329	response	0	k		304.0	/experiments/knapen_aot/AOT/AOT_stimuli/pictures/1523_fw.png	399.97198009490967	
307	278.86159801483154	picture	0		148	305.0	/experiments/knapen_aot/AOT/AOT_stimuli/pictures/0070_fw.png	400.0466890335083	1.300178050994873
307	280.08680295944214	response	0	k		305.0	/experiments/knapen_aot/AOT/AOT_stimuli/pictures/0070_fw.png	401.2718939781189	
308	280.1617760658264	picture	0		137	306.0	/experiments/knapen_aot/AOT/AOT_stimuli/pictures/0521_fw.png	401.3468670845032	1.192180871963501
308	281.2952151298523	response	0	j		306.0	/experiments/knapen_aot/AOT/AOT_stimuli/pictures/0521_fw.png	402.48030614852905	
309	281.3539569377899	picture	0		94	307.0	/experiments/knapen_aot/AOT/AOT_stimuli/pictures/1833_fw.png	402.5390479564667	0.8160240650177002
309	282.1285660266876	response	0	j		307.0	/experiments/knapen_aot/AOT/AOT_stimuli/pictures/1833_fw.png	403.3136570453644	
310	282.1699810028076	picture	0		103	308.0	/experiments/knapen_aot/AOT/AOT_stimuli/pictures/1658_fw.png	403.3550720214844	0.9000189304351807
310	283.0206780433655	response	0	k		308.0	/experiments/knapen_aot/AOT/AOT_stimuli/pictures/1658_fw.png	404.20576906204224	
311	283.0699999332428	picture	0		83	309.0	/experiments/knapen_aot/AOT/AOT_stimuli/pictures/0930_fw.png	404.25509095191956	0.7250242233276367
311	283.75357007980347	response	0	k		309.0	/experiments/knapen_aot/AOT/AOT_stimuli/pictures/0930_fw.png	404.9386610984802	
312	283.79502415657043	picture	0		103	310.0	/experiments/knapen_aot/AOT/AOT_stimuli/pictures/1888_fw.png	404.9801151752472	0.9083859920501709
312	284.64585614204407	response	0	k		310.0	/experiments/knapen_aot/AOT/AOT_stimuli/pictures/1888_fw.png	405.8309471607208	
313	284.7034101486206	picture	0		95	311.0	/experiments/knapen_aot/AOT/AOT_stimuli/pictures/1421_fw.png	405.88850116729736	0.8249819278717041
313	285.48697304725647	response	0	k		311.0	/experiments/knapen_aot/AOT/AOT_stimuli/pictures/1421_fw.png	406.6720640659332	
314	285.5283920764923	picture	0		89	312.0	/experiments/knapen_aot/AOT/AOT_stimuli/pictures/1832_fw.png	406.71348309516907	0.7999870777130127
314	286.26193404197693	response	0	j		312.0	/experiments/knapen_aot/AOT/AOT_stimuli/pictures/1832_fw.png	407.4470250606537	
315	286.3283791542053	picture	0		90	313.0	/experiments/knapen_aot/AOT/AOT_stimuli/pictures/1606_fw.png	407.5134701728821	0.7686867713928223
315	287.070209980011	response	0	j		313.0	/experiments/knapen_aot/AOT/AOT_stimuli/pictures/1606_fw.png	408.25530099868774	
316	287.09706592559814	picture	0		82	314.0	/experiments/knapen_aot/AOT/AOT_stimuli/pictures/1033_fw.png	408.2821569442749	0.7360291481018066
316	287.77085995674133	response	0	k		314.0	/experiments/knapen_aot/AOT/AOT_stimuli/pictures/1033_fw.png	408.9559509754181	
317	287.83309507369995	picture	0		114	315.0	/experiments/knapen_aot/AOT/AOT_stimuli/pictures/0321_fw.png	409.0181860923767	1.0208370685577393
317	288.77086210250854	response	0	k		315.0	/experiments/knapen_aot/AOT/AOT_stimuli/pictures/0321_fw.png	409.9559531211853	
318	288.8539321422577	picture	0		104	316.0	/experiments/knapen_aot/AOT/AOT_stimuli/pictures/2123_fw.png	410.03902316093445	0.9167079925537109
318	289.71207308769226	response	0	k		316.0	/experiments/knapen_aot/AOT/AOT_stimuli/pictures/2123_fw.png	410.897164106369	
319	289.7706401348114	picture	0		95	317.0	/experiments/knapen_aot/AOT/AOT_stimuli/pictures/1396_fw.png	410.95573115348816	0.8494608402252197
319	290.5535831451416	response	0	j		317.0	/experiments/knapen_aot/AOT/AOT_stimuli/pictures/1396_fw.png	411.73867416381836	
320	290.6201009750366	picture	0		77	318.0	/experiments/knapen_aot/AOT/AOT_stimuli/pictures/0159_fw.png	411.8051919937134	0.7000019550323486
320	291.25364899635315	response	0	k		318.0	/experiments/knapen_aot/AOT/AOT_stimuli/pictures/0159_fw.png	412.4387400150299	
321	291.32010293006897	picture	0		102	319.0	/experiments/knapen_aot/AOT/AOT_stimuli/pictures/0601_fw.png	412.5051939487457	0.8881151676177979
321	292.1620841026306	response	0	j		319.0	/experiments/knapen_aot/AOT/AOT_stimuli/pictures/0601_fw.png	413.3471751213074	
322	292.20821809768677	picture	0		85	320.0	/experiments/knapen_aot/AOT/AOT_stimuli/pictures/0614_fw.png	413.3933091163635	0.7869179248809814
322	292.91209506988525	response	0	j		320.0	/experiments/knapen_aot/AOT/AOT_stimuli/pictures/0614_fw.png	414.097186088562	
323	292.99513602256775	picture	0		72	321.0	/experiments/knapen_aot/AOT/AOT_stimuli/pictures/1945_fw.png	414.1802270412445	0.6435360908508301
323	293.5870621204376	response	0	k		321.0	/experiments/knapen_aot/AOT/AOT_stimuli/pictures/1945_fw.png	414.7721531391144	
324	293.6386721134186	picture	0		78	322.0	/experiments/knapen_aot/AOT/AOT_stimuli/pictures/0094_fw.png	414.82376313209534	0.7564918994903564
324	294.2786021232605	response	0	k		322.0	/experiments/knapen_aot/AOT/AOT_stimuli/pictures/0094_fw.png	415.46369314193726	
325	294.39516401290894	picture	0		111	323.0	/experiments/knapen_aot/AOT/AOT_stimuli/pictures/1795_fw.png	415.5802550315857	0.975024938583374
325	295.3126001358032	response	0	k		323.0	/experiments/knapen_aot/AOT/AOT_stimuli/pictures/1795_fw.png	416.49769115448	
326	295.3701889514923	picture	0		84	324.0	/experiments/knapen_aot/AOT/AOT_stimuli/pictures/0573_fw.png	416.55527997016907	0.750007152557373
326	296.0626039505005	response	0	k		324.0	/experiments/knapen_aot/AOT/AOT_stimuli/pictures/0573_fw.png	417.24769496917725	
327	296.1201961040497	picture	0		84	325.0	/experiments/knapen_aot/AOT/AOT_stimuli/pictures/1780_fw.png	417.30528712272644	0.7338719367980957
327	296.8053209781647	response	0	k		325.0	/experiments/knapen_aot/AOT/AOT_stimuli/pictures/1780_fw.png	417.99041199684143	
328	296.8540680408478	picture	0		80	326.0	/experiments/knapen_aot/AOT/AOT_stimuli/pictures/1542_fw.png	418.03915905952454	0.6875278949737549
328	297.5120680332184	response	0	k		326.0	/experiments/knapen_aot/AOT/AOT_stimuli/pictures/1542_fw.png	418.69715905189514	
329	297.54159593582153	picture	0		89	327.0	/experiments/knapen_aot/AOT/AOT_stimuli/pictures/0107_fw.png	418.7266869544983	0.7869400978088379
329	298.27869510650635	response	0	k		327.0	/experiments/knapen_aot/AOT/AOT_stimuli/pictures/0107_fw.png	419.4637861251831	
330	298.32853603363037	picture	0		83	328.0	/experiments/knapen_aot/AOT/AOT_stimuli/pictures/2099_fw.png	419.51362705230713	0.7478289604187012
330	299.0053701400757	response	0	j		328.0	/experiments/knapen_aot/AOT/AOT_stimuli/pictures/2099_fw.png	420.19046115875244	
331	299.0763649940491	picture	0		94	329.0	/experiments/knapen_aot/AOT/AOT_stimuli/pictures/1476_fw.png	420.26145601272583	0.8521740436553955
331	299.8541600704193	response	0	j		329.0	/experiments/knapen_aot/AOT/AOT_stimuli/pictures/1476_fw.png	421.03925108909607	
332	299.92853903770447	picture	0		92	330.0	/experiments/knapen_aot/AOT/AOT_stimuli/pictures/0404_fw.png	421.1136300563812	0.8083438873291016
332	300.68756794929504	response	0	j		330.0	/experiments/knapen_aot/AOT/AOT_stimuli/pictures/0404_fw.png	421.8726589679718	
333	300.73688292503357	picture	0		88	331.0	/experiments/knapen_aot/AOT/AOT_stimuli/pictures/0934_fw.png	421.9219739437103	0.7916760444641113
333	301.46208596229553	response	0	j		331.0	/experiments/knapen_aot/AOT/AOT_stimuli/pictures/0934_fw.png	422.6471769809723	
334	301.5285589694977	picture	0		94	332.0	/experiments/knapen_aot/AOT/AOT_stimuli/pictures/0753_fw.png	422.71364998817444	0.8185269832611084
334	302.30378103256226	response	0	j		332.0	/experiments/knapen_aot/AOT/AOT_stimuli/pictures/0753_fw.png	423.488872051239	
335	302.3470859527588	picture	0		89	333.0	/experiments/knapen_aot/AOT/AOT_stimuli/pictures/1789_fw.png	423.53217697143555	0.784857988357544
335	303.0787401199341	response	0	j		333.0	/experiments/knapen_aot/AOT/AOT_stimuli/pictures/1789_fw.png	424.26383113861084	
336	303.13194394111633	picture	0		81	334.0	/experiments/knapen_aot/AOT/AOT_stimuli/pictures/2176_fw.png	424.3170349597931	0.8550150394439697
336	303.7887930870056	response	0	k		334.0	/experiments/knapen_aot/AOT/AOT_stimuli/pictures/2176_fw.png	424.9738841056824	
337	303.9869589805603	picture	0		78	335.0	/experiments/knapen_aot/AOT/AOT_stimuli/pictures/1485_fw.png	425.17204999923706	0.7083029747009277
337	304.62879395484924	response	0	k		335.0	/experiments/knapen_aot/AOT/AOT_stimuli/pictures/1485_fw.png	425.813884973526	
338	304.69526195526123	picture	0		81	336.0	/experiments/knapen_aot/AOT/AOT_stimuli/pictures/1509_fw.png	425.880352973938	0.7333672046661377
338	305.3621881008148	response	0	k		336.0	/experiments/knapen_aot/AOT/AOT_stimuli/pictures/1509_fw.png	426.5472791194916	
339	305.42862915992737	picture	0		115	337.0	/experiments/knapen_aot/AOT/AOT_stimuli/pictures/0200_fw.png	426.6137201786041	1.0089399814605713
339	306.37880516052246	response	0	k		337.0	/experiments/knapen_aot/AOT/AOT_stimuli/pictures/0200_fw.png	427.5638961791992	
340	306.43756914138794	picture	0		94	338.0	/experiments/knapen_aot/AOT/AOT_stimuli/pictures/1568_fw.png	427.6226601600647	0.833204984664917
340	307.2055470943451	response	0	j		338.0	/experiments/knapen_aot/AOT/AOT_stimuli/pictures/1568_fw.png	428.39063811302185	
341	307.27077412605286	picture	0		77	339.0	/experiments/knapen_aot/AOT/AOT_stimuli/pictures/1517_fw.png	428.4558651447296	0.6945388317108154
341	307.90383195877075	response	0	k		339.0	/experiments/knapen_aot/AOT/AOT_stimuli/pictures/1517_fw.png	429.0889229774475	
342	307.9653129577637	picture	0		138	340.0	/experiments/knapen_aot/AOT/AOT_stimuli/pictures/0387_fw.png	429.15040397644043	1.1883361339569092
342	309.10427498817444	response	0	j		340.0	/experiments/knapen_aot/AOT/AOT_stimuli/pictures/0387_fw.png	430.2893660068512	
343	309.1536490917206	picture	0		452	341.0	/experiments/knapen_aot/AOT/AOT_stimuli/pictures/1181_fw.png	430.33874011039734	3.816715955734253
343	312.9123110771179	response	0	j		341.0	/experiments/knapen_aot/AOT/AOT_stimuli/pictures/1181_fw.png	434.0974020957947	
344	312.97036504745483	picture	0		75	342.0	/experiments/knapen_aot/AOT/AOT_stimuli/pictures/0665_fw.png	434.1554560661316	0.6684820652008057
344	313.5873529911041	response	0	k		342.0	/experiments/knapen_aot/AOT/AOT_stimuli/pictures/0665_fw.png	434.7724440097809	
345	313.63884711265564	picture	0		92	343.0	/experiments/knapen_aot/AOT/AOT_stimuli/pictures/0255_fw.png	434.8239381313324	0.8065569400787354
345	314.38879799842834	response	0	k		343.0	/experiments/knapen_aot/AOT/AOT_stimuli/pictures/0255_fw.png	435.5738890171051	
346	314.4454040527344	picture	0		75	344.0	/experiments/knapen_aot/AOT/AOT_stimuli/pictures/0744_fw.png	435.63049507141113	0.6833419799804688
346	315.06259298324585	response	0	k		344.0	/experiments/knapen_aot/AOT/AOT_stimuli/pictures/0744_fw.png	436.2476840019226	
347	315.12874603271484	picture	0		82	345.0	/experiments/knapen_aot/AOT/AOT_stimuli/pictures/1776_fw.png	436.3138370513916	0.7333579063415527
347	315.797297000885	response	0	k		345.0	/experiments/knapen_aot/AOT/AOT_stimuli/pictures/1776_fw.png	436.98238801956177	
348	315.8621039390564	picture	0		82	346.0	/experiments/knapen_aot/AOT/AOT_stimuli/pictures/1398_fw.png	437.04719495773315	0.7500050067901611
348	316.56269907951355	response	0	j		346.0	/experiments/knapen_aot/AOT/AOT_stimuli/pictures/1398_fw.png	437.7477900981903	
349	316.61210894584656	picture	0		80	347.0	/experiments/knapen_aot/AOT/AOT_stimuli/pictures/1653_fw.png	437.7971999645233	0.7005300521850586
349	317.270956993103	response	0	k		347.0	/experiments/knapen_aot/AOT/AOT_stimuli/pictures/1653_fw.png	438.4560480117798	
350	317.3126389980316	picture	0		100	348.0	/experiments/knapen_aot/AOT/AOT_stimuli/pictures/1909_fw.png	438.4977300167084	0.8744909763336182
350	318.137326002121	response	0	k		348.0	/experiments/knapen_aot/AOT/AOT_stimuli/pictures/1909_fw.png	439.32241702079773	
351	318.18712997436523	picture	0		120	349.0	/experiments/knapen_aot/AOT/AOT_stimuli/pictures/1683_fw.png	439.372220993042	1.0499989986419678
351	319.1789901256561	response	0	j		349.0	/experiments/knapen_aot/AOT/AOT_stimuli/pictures/1683_fw.png	440.3640811443329	
352	319.2371289730072	picture	0		88	350.0	/experiments/knapen_aot/AOT/AOT_stimuli/pictures/0617_fw.png	440.42221999168396	0.7916991710662842
352	319.9623050689697	response	0	j		350.0	/experiments/knapen_aot/AOT/AOT_stimuli/pictures/0617_fw.png	441.1473960876465	
353	320.0288281440735	picture	0		92	351.0	/experiments/knapen_aot/AOT/AOT_stimuli/pictures/0142_fw.png	441.21391916275024	0.8393299579620361
353	320.7872929573059	response	0	j		351.0	/experiments/knapen_aot/AOT/AOT_stimuli/pictures/0142_fw.png	441.97238397598267	
354	320.8681581020355	picture	0		69	352.0	/experiments/knapen_aot/AOT/AOT_stimuli/pictures/1545_fw.png	442.0532491207123	0.6388258934020996
354	321.43780398368835	response	0	k		352.0	/experiments/knapen_aot/AOT/AOT_stimuli/pictures/1545_fw.png	442.6228950023651	
355	321.5069839954376	picture	0		74	353.0	/experiments/knapen_aot/AOT/AOT_stimuli/pictures/1395_fw.png	442.6920750141144	0.6469261646270752
355	322.1123950481415	response	0	j		353.0	/experiments/knapen_aot/AOT/AOT_stimuli/pictures/1395_fw.png	443.29748606681824	
356	322.1539101600647	picture	0		91	354.0	/experiments/knapen_aot/AOT/AOT_stimuli/pictures/0634_fw.png	443.33900117874146	0.7916219234466553
356	322.90406012535095	response	0	k		354.0	/experiments/knapen_aot/AOT/AOT_stimuli/pictures/0634_fw.png	444.0891511440277	
357	322.94553208351135	picture	0		92	355.0	/experiments/knapen_aot/AOT/AOT_stimuli/pictures/1487_fw.png	444.1306231021881	0.8253049850463867
357	323.7040400505066	response	0	j		355.0	/experiments/knapen_aot/AOT/AOT_stimuli/pictures/1487_fw.png	444.88913106918335	
358	323.77083706855774	picture	0		83	356.0	/experiments/knapen_aot/AOT/AOT_stimuli/pictures/2145_fw.png	444.9559280872345	0.7580258846282959
358	324.4540419578552	response	0	j		356.0	/experiments/knapen_aot/AOT/AOT_stimuli/pictures/2145_fw.png	445.639132976532	
359	324.52886295318604	picture	0		108	357.0	/experiments/knapen_aot/AOT/AOT_stimuli/pictures/0427_fw.png	445.7139539718628	0.958355188369751
359	325.4139151573181	response	0	j		357.0	/experiments/knapen_aot/AOT/AOT_stimuli/pictures/0427_fw.png	446.5990061759949	
360	325.4872181415558	picture	0		88	358.0	/experiments/knapen_aot/AOT/AOT_stimuli/pictures/0638_fw.png	446.67230916023254	0.7628259658813477
360	326.2056829929352	response	0	k		358.0	/experiments/knapen_aot/AOT/AOT_stimuli/pictures/0638_fw.png	447.39077401161194	
361	326.25004410743713	picture	0		118	359.0	/experiments/knapen_aot/AOT/AOT_stimuli/pictures/1357_fw.png	447.4351351261139	1.0288598537445068
361	327.22952103614807	response	0	k		359.0	/experiments/knapen_aot/AOT/AOT_stimuli/pictures/1357_fw.png	448.41461205482483	
362	327.27890396118164	stim	0		674			448.4639949798584	5.651758193969727
362	328.4217610359192	response	0	k				449.60685205459595	
362	328.77899503707886	response	0	j				449.9640860557556	
362	332.89702105522156	response	0	space				454.0821120738983	
