trial_nr	onset	event_type	phase	response	nr_frames	picture_index	picture_file	onset_abs	duration
0	0.21521210670471191	stim	0		2630			159.4338240623474	22.024045944213867
0	22.147846937179565	response	0	space				181.36645889282227	
2	22.23925805091858	picture	0		118	0.0	/experiments/knapen_AOT/AOT_stimuli/pictures/0162_fw.png	181.45787000656128	1.0250439643859863
2	23.214484930038452	response	0	j		0.0	/experiments/knapen_AOT/AOT_stimuli/pictures/0162_fw.png	182.43309688568115	
3	23.264302015304565	picture	0		156	1.0	/experiments/knapen_AOT/AOT_stimuli/pictures/0545_fw.png	182.48291397094727	1.350032091140747
3	24.549309968948364	response	0	k		1.0	/experiments/knapen_AOT/AOT_stimuli/pictures/0545_fw.png	183.76792192459106	
4	24.614334106445312	picture	0		134	2.0	/experiments/knapen_AOT/AOT_stimuli/pictures/1952_fw.png	183.832946062088	1.1427209377288818
4	25.72269892692566	response	0	k		2.0	/experiments/knapen_AOT/AOT_stimuli/pictures/1952_fw.png	184.94131088256836	
5	25.757055044174194	picture	0		198	3.0	/experiments/knapen_AOT/AOT_stimuli/pictures/1050_fw.png	184.9756669998169	1.6665868759155273
5	27.397818088531494	response	0	j		3.0	/experiments/knapen_AOT/AOT_stimuli/pictures/1050_fw.png	186.6164300441742	
6	27.42364192008972	picture	0		111	4.0	/experiments/knapen_AOT/AOT_stimuli/pictures/1191_fw.png	186.64225387573242	0.9514811038970947
6	28.33279299736023	response	0	k		4.0	/experiments/knapen_AOT/AOT_stimuli/pictures/1191_fw.png	187.55140495300293	
7	28.375123023986816	picture	0		110	5.0	/experiments/knapen_AOT/AOT_stimuli/pictures/1884_fw.png	187.59373497962952	0.9558849334716797
7	29.281147003173828	response	0	j		5.0	/experiments/knapen_AOT/AOT_stimuli/pictures/1884_fw.png	188.49975895881653	
8	29.331007957458496	picture	0		102	6.0	/experiments/knapen_AOT/AOT_stimuli/pictures/0574_fw.png	188.5496199131012	0.8774750232696533
8	30.172791004180908	response	0	k		6.0	/experiments/knapen_AOT/AOT_stimuli/pictures/0574_fw.png	189.3914029598236	
9	30.20848298072815	picture	0		264	7.0	/experiments/knapen_AOT/AOT_stimuli/pictures/0933_fw.png	189.42709493637085	2.2308669090270996
9	32.397934913635254	response	0	k		7.0	/experiments/knapen_AOT/AOT_stimuli/pictures/0933_fw.png	191.61654686927795	
10	32.43934988975525	picture	0		102	8.0	/experiments/knapen_AOT/AOT_stimuli/pictures/0677_fw.png	191.65796184539795	0.9499950408935547
10	33.28114604949951	response	0	j		8.0	/experiments/knapen_AOT/AOT_stimuli/pictures/0677_fw.png	192.4997580051422	
11	33.389344930648804	picture	0		97	9.0	/experiments/knapen_AOT/AOT_stimuli/pictures/1654_fw.png	192.6079568862915	0.8608419895172119
11	34.18967008590698	response	0	k		9.0	/experiments/knapen_AOT/AOT_stimuli/pictures/1654_fw.png	193.40828204154968	
12	34.250186920166016	picture	0		100	10.0	/experiments/knapen_AOT/AOT_stimuli/pictures/1974_fw.png	193.46879887580872	0.8977160453796387
12	35.072948932647705	response	0	j		10.0	/experiments/knapen_AOT/AOT_stimuli/pictures/1974_fw.png	194.2915608882904	
13	35.147902965545654	picture	0		232	11.0	/experiments/knapen_AOT/AOT_stimuli/pictures/1602_fw.png	194.36651492118835	1.9772229194641113
13	37.07294297218323	response	0	j		11.0	/experiments/knapen_AOT/AOT_stimuli/pictures/1602_fw.png	196.29155492782593	
14	37.125125885009766	picture	0		101	12.0	/experiments/knapen_AOT/AOT_stimuli/pictures/0518_fw.png	196.34373784065247	0.8644430637359619
14	37.949836015701294	response	0	j		12.0	/experiments/knapen_AOT/AOT_stimuli/pictures/0518_fw.png	197.168447971344	
15	37.98956894874573	picture	0		113	13.0	/experiments/knapen_AOT/AOT_stimuli/pictures/0523_fw.png	197.20818090438843	0.9831881523132324
15	38.922942876815796	response	0	j		13.0	/experiments/knapen_AOT/AOT_stimuli/pictures/0523_fw.png	198.1415548324585	
16	38.97275710105896	picture	0		97	14.0	/experiments/knapen_AOT/AOT_stimuli/pictures/0710_fw.png	198.19136905670166	0.819206953048706
16	39.76615309715271	response	0	j		14.0	/experiments/knapen_AOT/AOT_stimuli/pictures/0710_fw.png	198.9847650527954	
17	39.791964054107666	picture	0		119	15.0	/experiments/knapen_AOT/AOT_stimuli/pictures/1246_fw.png	199.01057600975037	1.0391888618469238
17	40.77298593521118	response	0	k		15.0	/experiments/knapen_AOT/AOT_stimuli/pictures/1246_fw.png	199.99159789085388	
18	40.83115291595459	picture	0		115	16.0	/experiments/knapen_AOT/AOT_stimuli/pictures/1991_fw.png	200.0497648715973	0.9833669662475586
18	41.781370878219604	response	0	k		16.0	/experiments/knapen_AOT/AOT_stimuli/pictures/1991_fw.png	200.9999828338623	
19	41.81451988220215	picture	0		183	17.0	/experiments/knapen_AOT/AOT_stimuli/pictures/1040_fw.png	201.03313183784485	1.5749931335449219
19	43.33133792877197	response	0	k		17.0	/experiments/knapen_AOT/AOT_stimuli/pictures/1040_fw.png	202.54994988441467	
20	43.38951301574707	picture	0		126	18.0	/experiments/knapen_AOT/AOT_stimuli/pictures/1725_fw.png	202.60812497138977	1.083298921585083
20	44.43128705024719	response	0	j		18.0	/experiments/knapen_AOT/AOT_stimuli/pictures/1725_fw.png	203.6498990058899	
21	44.47281193733215	picture	0		120	19.0	/experiments/knapen_AOT/AOT_stimuli/pictures/1528_fw.png	203.69142389297485	1.0136311054229736
21	45.46467900276184	response	0	k		19.0	/experiments/knapen_AOT/AOT_stimuli/pictures/1528_fw.png	204.68329095840454	
22	45.48644304275513	picture	0		99	20.0	/experiments/knapen_AOT/AOT_stimuli/pictures/0910_fw.png	204.70505499839783	0.8614258766174316
22	46.30630707740784	response	0	j		20.0	/experiments/knapen_AOT/AOT_stimuli/pictures/0910_fw.png	205.52491903305054	
23	46.34786891937256	picture	0		99	21.0	/experiments/knapen_AOT/AOT_stimuli/pictures/0030_fw.png	205.56648087501526	0.8539330959320068
23	47.15803098678589	response	0	k		21.0	/experiments/knapen_AOT/AOT_stimuli/pictures/0030_fw.png	206.3766429424286	
24	47.201802015304565	picture	0		254	22.0	/experiments/knapen_AOT/AOT_stimuli/pictures/0796_fw.png	206.42041397094727	2.131843090057373
24	49.30643701553345	response	0	k		22.0	/experiments/knapen_AOT/AOT_stimuli/pictures/0796_fw.png	208.52504897117615	
25	49.33364510536194	picture	0		142	23.0	/experiments/knapen_AOT/AOT_stimuli/pictures/1941_fw.png	208.55225706100464	1.2226219177246094
25	50.50650906562805	response	0	k		23.0	/experiments/knapen_AOT/AOT_stimuli/pictures/1941_fw.png	209.72512102127075	
26	50.55626702308655	picture	0		130	24.0	/experiments/knapen_AOT/AOT_stimuli/pictures/1024_fw.png	209.77487897872925	1.117671012878418
26	51.63148307800293	response	0	k		24.0	/experiments/knapen_AOT/AOT_stimuli/pictures/1024_fw.png	210.85009503364563	
27	51.673938035964966	picture	0		116	25.0	/experiments/knapen_AOT/AOT_stimuli/pictures/0032_fw.png	210.89254999160767	1.0000569820404053
27	52.631438970565796	response	0	k		25.0	/experiments/knapen_AOT/AOT_stimuli/pictures/0032_fw.png	211.8500509262085	
28	52.67399501800537	picture	0		315	26.0	/experiments/knapen_AOT/AOT_stimuli/pictures/1540_fw.png	211.89260697364807	2.666543960571289
28	55.28997588157654	response	0	k		26.0	/experiments/knapen_AOT/AOT_stimuli/pictures/1540_fw.png	214.50858783721924	
29	55.34053897857666	picture	0		104	27.0	/experiments/knapen_AOT/AOT_stimuli/pictures/0353_fw.png	214.55915093421936	0.9098289012908936
29	56.198168992996216	response	0	j		27.0	/experiments/knapen_AOT/AOT_stimuli/pictures/0353_fw.png	215.41678094863892	
30	56.250367879867554	picture	0		163	28.0	/experiments/knapen_AOT/AOT_stimuli/pictures/1630_fw.png	215.46897983551025	1.3818600177764893
30	57.598206996917725	response	0	k		28.0	/experiments/knapen_AOT/AOT_stimuli/pictures/1630_fw.png	216.81681895256042	
31	57.63222789764404	picture	0		170	29.0	/experiments/knapen_AOT/AOT_stimuli/pictures/1323_fw.png	216.85083985328674	1.4491510391235352
31	59.03988599777222	response	0	k		29.0	/experiments/knapen_AOT/AOT_stimuli/pictures/1323_fw.png	218.25849795341492	
32	59.08137893676758	picture	0		175	30.0	/experiments/knapen_AOT/AOT_stimuli/pictures/1044_fw.png	218.29999089241028	1.5022671222686768
32	60.53165006637573	response	0	k		30.0	/experiments/knapen_AOT/AOT_stimuli/pictures/1044_fw.png	219.75026202201843	
33	60.583646059036255	picture	0		99	31.0	/experiments/knapen_AOT/AOT_stimuli/pictures/2004_fw.png	219.80225801467896	0.8477368354797363
33	61.39820694923401	response	0	k		31.0	/experiments/knapen_AOT/AOT_stimuli/pictures/2004_fw.png	220.6168189048767	
34	61.43138289451599	picture	0		95	32.0	/experiments/knapen_AOT/AOT_stimuli/pictures/1477_fw.png	220.6499948501587	0.8607101440429688
34	62.215025901794434	response	0	j		32.0	/experiments/knapen_AOT/AOT_stimuli/pictures/1477_fw.png	221.43363785743713	
35	62.29209303855896	picture	0		111	33.0	/experiments/knapen_AOT/AOT_stimuli/pictures/0980_fw.png	221.51070499420166	0.9726829528808594
35	63.20658802986145	response	0	j		33.0	/experiments/knapen_AOT/AOT_stimuli/pictures/0980_fw.png	222.42519998550415	
36	63.26477599143982	picture	0		92	34.0	/experiments/knapen_AOT/AOT_stimuli/pictures/0792_fw.png	222.48338794708252	0.9583189487457275
36	64.02323508262634	response	0	j		34.0	/experiments/knapen_AOT/AOT_stimuli/pictures/0792_fw.png	223.24184703826904	
37	64.22309494018555	picture	0		113	35.0	/experiments/knapen_AOT/AOT_stimuli/pictures/1849_fw.png	223.44170689582825	0.9750330448150635
37	65.14979004859924	response	0	k		35.0	/experiments/knapen_AOT/AOT_stimuli/pictures/1849_fw.png	224.36840200424194	
38	65.19812798500061	picture	0		136	36.0	/experiments/knapen_AOT/AOT_stimuli/pictures/1004_fw.png	224.4167399406433	1.2120230197906494
38	66.3232729434967	response	0	k		36.0	/experiments/knapen_AOT/AOT_stimuli/pictures/1004_fw.png	225.5418848991394	
39	66.41015100479126	picture	0		112	37.0	/experiments/knapen_AOT/AOT_stimuli/pictures/0624_fw.png	225.62876296043396	1.0486280918121338
39	67.33158898353577	response	0	k		37.0	/experiments/knapen_AOT/AOT_stimuli/pictures/0624_fw.png	226.55020093917847	
40	67.4587790966034	picture	0		271	38.0	/experiments/knapen_AOT/AOT_stimuli/pictures/0822_fw.png	226.6773910522461	2.297745943069458
40	69.70679688453674	response	0	k		38.0	/experiments/knapen_AOT/AOT_stimuli/pictures/0822_fw.png	228.92540884017944	
41	69.75652503967285	picture	0		92	39.0	/experiments/knapen_AOT/AOT_stimuli/pictures/0338_fw.png	228.97513699531555	0.8134520053863525
41	70.51499104499817	response	0	k		39.0	/experiments/knapen_AOT/AOT_stimuli/pictures/0338_fw.png	229.73360300064087	
42	70.5699770450592	picture	0		98	40.0	/experiments/knapen_AOT/AOT_stimuli/pictures/1790_fw.png	229.7885890007019	0.8540709018707275
42	71.38168787956238	response	0	j		40.0	/experiments/knapen_AOT/AOT_stimuli/pictures/1790_fw.png	230.60029983520508	
43	71.42404794692993	picture	0		97	41.0	/experiments/knapen_AOT/AOT_stimuli/pictures/1811_fw.png	230.64265990257263	0.8408069610595703
43	72.2233190536499	response	0	k		41.0	/experiments/knapen_AOT/AOT_stimuli/pictures/1811_fw.png	231.4419310092926	
44	72.2648549079895	picture	0		93	42.0	/experiments/knapen_AOT/AOT_stimuli/pictures/0182_fw.png	231.4834668636322	0.7917871475219727
44	73.03168201446533	response	0	j		42.0	/experiments/knapen_AOT/AOT_stimuli/pictures/0182_fw.png	232.25029397010803	
45	73.05664205551147	picture	0		115	43.0	/experiments/knapen_AOT/AOT_stimuli/pictures/1130_fw.png	232.27525401115417	0.9785909652709961
45	74.00683403015137	response	0	k		43.0	/experiments/knapen_AOT/AOT_stimuli/pictures/1130_fw.png	233.22544598579407	
46	74.03523302078247	picture	0		107	44.0	/experiments/knapen_AOT/AOT_stimuli/pictures/0407_fw.png	233.25384497642517	0.9097039699554443
46	74.91502904891968	response	0	j		44.0	/experiments/knapen_AOT/AOT_stimuli/pictures/0407_fw.png	234.13364100456238	
47	74.94493699073792	picture	0		113	45.0	/experiments/knapen_AOT/AOT_stimuli/pictures/0134_fw.png	234.16354894638062	0.96527099609375
47	75.88192200660706	response	0	k		45.0	/experiments/knapen_AOT/AOT_stimuli/pictures/0134_fw.png	235.10053396224976	
48	75.91020798683167	picture	0		96	46.0	/experiments/knapen_AOT/AOT_stimuli/pictures/1069_fw.png	235.12881994247437	0.8464720249176025
48	76.69840097427368	response	0	j		46.0	/experiments/knapen_AOT/AOT_stimuli/pictures/1069_fw.png	235.91701292991638	
49	76.75668001174927	picture	0		104	47.0	/experiments/knapen_AOT/AOT_stimuli/pictures/2177_fw.png	235.97529196739197	0.8832709789276123
49	77.61511301994324	response	0	j		47.0	/experiments/knapen_AOT/AOT_stimuli/pictures/2177_fw.png	236.83372497558594	
50	77.63995099067688	picture	0		244	48.0	/experiments/knapen_AOT/AOT_stimuli/pictures/0500_fw.png	236.85856294631958	2.061872959136963
50	79.66514706611633	response	0	j		48.0	/experiments/knapen_AOT/AOT_stimuli/pictures/0500_fw.png	238.88375902175903	
51	79.70182394981384	picture	0		102	49.0	/experiments/knapen_AOT/AOT_stimuli/pictures/1612_fw.png	238.92043590545654	0.8631711006164551
51	80.5335168838501	response	0	j		49.0	/experiments/knapen_AOT/AOT_stimuli/pictures/1612_fw.png	239.7521288394928	
52	80.5649950504303	picture	0		120	50.0	/experiments/knapen_AOT/AOT_stimuli/pictures/1003_fw.png	239.783607006073	1.025946855545044
52	81.55013298988342	response	0	j		50.0	/experiments/knapen_AOT/AOT_stimuli/pictures/1003_fw.png	240.76874494552612	
53	81.59094190597534	picture	0		102	51.0	/experiments/knapen_AOT/AOT_stimuli/pictures/0891_fw.png	240.80955386161804	0.890855073928833
53	82.4318699836731	response	0	j		51.0	/experiments/knapen_AOT/AOT_stimuli/pictures/0891_fw.png	241.6504819393158	
54	82.48179697990417	picture	0		125	52.0	/experiments/knapen_AOT/AOT_stimuli/pictures/0153_fw.png	241.70040893554688	1.1090819835662842
54	83.54166889190674	response	0	k		52.0	/experiments/knapen_AOT/AOT_stimuli/pictures/0153_fw.png	242.76028084754944	
55	83.59087896347046	picture	0		92	53.0	/experiments/knapen_AOT/AOT_stimuli/pictures/1371_fw.png	242.80949091911316	0.8241720199584961
55	84.34261989593506	response	0	j		53.0	/experiments/knapen_AOT/AOT_stimuli/pictures/1371_fw.png	243.56123185157776	
56	84.41505098342896	picture	0		179	54.0	/experiments/knapen_AOT/AOT_stimuli/pictures/1869_fw.png	243.63366293907166	1.5090649127960205
56	85.89866495132446	response	0	k		54.0	/experiments/knapen_AOT/AOT_stimuli/pictures/1869_fw.png	245.11727690696716	
57	85.92411589622498	picture	0		224	55.0	/experiments/knapen_AOT/AOT_stimuli/pictures/0514_fw.png	245.14272785186768	1.8828210830688477
57	87.78200387954712	response	0	k		55.0	/experiments/knapen_AOT/AOT_stimuli/pictures/0514_fw.png	247.00061583518982	
58	87.80693697929382	picture	0		82	56.0	/experiments/knapen_AOT/AOT_stimuli/pictures/0042_fw.png	247.02554893493652	0.7499139308929443
58	88.48202204704285	response	0	k		56.0	/experiments/knapen_AOT/AOT_stimuli/pictures/0042_fw.png	247.70063400268555	
59	88.55685091018677	picture	0		98	57.0	/experiments/knapen_AOT/AOT_stimuli/pictures/0889_fw.png	247.77546286582947	0.8416781425476074
59	89.358815908432	response	0	k		57.0	/experiments/knapen_AOT/AOT_stimuli/pictures/0889_fw.png	248.5774278640747	
60	89.39852905273438	picture	0		110	58.0	/experiments/knapen_AOT/AOT_stimuli/pictures/1659_fw.png	248.61714100837708	0.9562728404998779
60	90.30695509910583	response	0	k		58.0	/experiments/knapen_AOT/AOT_stimuli/pictures/1659_fw.png	249.52556705474854	
61	90.35480189323425	picture	0		98	59.0	/experiments/knapen_AOT/AOT_stimuli/pictures/1959_fw.png	249.57341384887695	1.0353012084960938
61	91.16537499427795	response	0	j		59.0	/experiments/knapen_AOT/AOT_stimuli/pictures/1959_fw.png	250.38398694992065	
62	91.39010310173035	picture	0		120	60.0	/experiments/knapen_AOT/AOT_stimuli/pictures/0196_fw.png	250.60871505737305	1.0500538349151611
62	92.38209700584412	response	0	j		60.0	/experiments/knapen_AOT/AOT_stimuli/pictures/0196_fw.png	251.60070896148682	
63	92.44015693664551	picture	0		94	61.0	/experiments/knapen_AOT/AOT_stimuli/pictures/0828_fw.png	251.6587688922882	0.8036260604858398
63	93.21529197692871	response	0	j		61.0	/experiments/knapen_AOT/AOT_stimuli/pictures/0828_fw.png	252.4339039325714	
64	93.24378299713135	picture	0		110	62.0	/experiments/knapen_AOT/AOT_stimuli/pictures/1481_fw.png	252.46239495277405	0.9304769039154053
64	94.141774892807	response	0	k		62.0	/experiments/knapen_AOT/AOT_stimuli/pictures/1481_fw.png	253.3603868484497	
65	94.17425990104675	picture	0		95	63.0	/experiments/knapen_AOT/AOT_stimuli/pictures/1372_fw.png	253.39287185668945	0.8244180679321289
65	94.95021796226501	response	0	j		63.0	/experiments/knapen_AOT/AOT_stimuli/pictures/1372_fw.png	254.16882991790771	
66	94.99867796897888	picture	0		112	64.0	/experiments/knapen_AOT/AOT_stimuli/pictures/1349_fw.png	254.21728992462158	0.9672949314117432
66	95.92387104034424	response	0	k		64.0	/experiments/knapen_AOT/AOT_stimuli/pictures/1349_fw.png	255.14248299598694	
67	95.96597290039062	picture	0		119	65.0	/experiments/knapen_AOT/AOT_stimuli/pictures/0843_fw.png	255.18458485603333	1.0277631282806396
67	96.9420530796051	response	0	j		65.0	/experiments/knapen_AOT/AOT_stimuli/pictures/0843_fw.png	256.1606650352478	
68	96.99373602867126	picture	0		101	66.0	/experiments/knapen_AOT/AOT_stimuli/pictures/1017_fw.png	256.21234798431396	0.9881739616394043
68	97.82378602027893	response	0	j		66.0	/experiments/knapen_AOT/AOT_stimuli/pictures/1017_fw.png	257.04239797592163	
69	97.98190999031067	picture	0		408	67.0	/experiments/knapen_AOT/AOT_stimuli/pictures/1236_fw.png	257.20052194595337	3.458364963531494
69	101.37372994422913	response	0	k		67.0	/experiments/knapen_AOT/AOT_stimuli/pictures/1236_fw.png	260.5923418998718	
70	101.44027495384216	picture	0		94	68.0	/experiments/knapen_AOT/AOT_stimuli/pictures/1103_fw.png	260.65888690948486	0.983410120010376
70	102.21541810035706	response	0	j		68.0	/experiments/knapen_AOT/AOT_stimuli/pictures/1103_fw.png	261.43403005599976	
71	102.42368507385254	picture	0		90	69.0	/experiments/knapen_AOT/AOT_stimuli/pictures/0352_fw.png	261.64229702949524	0.7784378528594971
71	103.16552305221558	response	0	j		69.0	/experiments/knapen_AOT/AOT_stimuli/pictures/0352_fw.png	262.3841350078583	
72	103.20212292671204	picture	0		174	70.0	/experiments/knapen_AOT/AOT_stimuli/pictures/0650_fw.png	262.42073488235474	1.4965851306915283
72	104.6405200958252	response	0	k		70.0	/experiments/knapen_AOT/AOT_stimuli/pictures/0650_fw.png	263.8591320514679	
73	104.69870805740356	picture	0		190	71.0	/experiments/knapen_AOT/AOT_stimuli/pictures/1578_fw.png	263.91732001304626	1.6083488464355469
73	106.27395105361938	response	0	j		71.0	/experiments/knapen_AOT/AOT_stimuli/pictures/1578_fw.png	265.4925630092621	
74	106.30705690383911	picture	0		156	72.0	/experiments/knapen_AOT/AOT_stimuli/pictures/1326_fw.png	265.5256688594818	1.3416650295257568
74	107.59882497787476	response	0	j		72.0	/experiments/knapen_AOT/AOT_stimuli/pictures/1326_fw.png	266.81743693351746	
75	107.64872193336487	picture	0		96	73.0	/experiments/knapen_AOT/AOT_stimuli/pictures/0296_fw.png	266.86733388900757	0.8166940212249756
75	108.44055891036987	response	0	k		73.0	/experiments/knapen_AOT/AOT_stimuli/pictures/0296_fw.png	267.6591708660126	
76	108.46541595458984	picture	0		156	74.0	/experiments/knapen_AOT/AOT_stimuli/pictures/1193_fw.png	267.68402791023254	1.3333590030670166
76	109.75785708427429	response	0	k		74.0	/experiments/knapen_AOT/AOT_stimuli/pictures/1193_fw.png	268.976469039917	
77	109.79877495765686	picture	0		125	75.0	/experiments/knapen_AOT/AOT_stimuli/pictures/2070_fw.png	269.01738691329956	1.0582671165466309
77	110.83214998245239	response	0	k		75.0	/experiments/knapen_AOT/AOT_stimuli/pictures/2070_fw.png	270.0507619380951	
78	110.85704207420349	picture	0		111	76.0	/experiments/knapen_AOT/AOT_stimuli/pictures/1095_fw.png	270.0756540298462	0.9354138374328613
78	111.77384901046753	response	0	j		76.0	/experiments/knapen_AOT/AOT_stimuli/pictures/1095_fw.png	270.99246096611023	
79	111.79245591163635	picture	0		129	77.0	/experiments/knapen_AOT/AOT_stimuli/pictures/2179_fw.png	271.01106786727905	1.1111011505126953
79	112.85721206665039	response	0	k		77.0	/experiments/knapen_AOT/AOT_stimuli/pictures/2179_fw.png	272.0758240222931	
80	112.90355706214905	picture	0		129	78.0	/experiments/knapen_AOT/AOT_stimuli/pictures/0555_fw.png	272.12216901779175	1.1118528842926025
80	113.95880007743835	response	0	k		78.0	/experiments/knapen_AOT/AOT_stimuli/pictures/0555_fw.png	273.17741203308105	
81	114.01540994644165	picture	0		261	79.0	/experiments/knapen_AOT/AOT_stimuli/pictures/0312_fw.png	273.23402190208435	2.208454132080078
81	116.18223404884338	response	0	k		79.0	/experiments/knapen_AOT/AOT_stimuli/pictures/0312_fw.png	275.4008460044861	
82	116.22386407852173	picture	0		211	80.0	/experiments/knapen_AOT/AOT_stimuli/pictures/0236_fw.png	275.44247603416443	1.816619873046875
82	117.97391104698181	response	0	j		80.0	/experiments/knapen_AOT/AOT_stimuli/pictures/0236_fw.png	277.1925230026245	
83	118.0404839515686	picture	0		98	81.0	/experiments/knapen_AOT/AOT_stimuli/pictures/1269_fw.png	277.2590959072113	0.8500609397888184
83	118.84913802146912	response	0	k		81.0	/experiments/knapen_AOT/AOT_stimuli/pictures/1269_fw.png	278.0677499771118	
84	118.89054489135742	picture	0		108	82.0	/experiments/knapen_AOT/AOT_stimuli/pictures/0051_fw.png	278.1091568470001	0.9297351837158203
84	119.78228497505188	response	0	k		82.0	/experiments/knapen_AOT/AOT_stimuli/pictures/0051_fw.png	279.0008969306946	
85	119.82028007507324	picture	0		110	83.0	/experiments/knapen_AOT/AOT_stimuli/pictures/1338_fw.png	279.03889203071594	0.945274829864502
85	120.71786594390869	response	0	j		83.0	/experiments/knapen_AOT/AOT_stimuli/pictures/1338_fw.png	279.9364778995514	
86	120.76555490493774	picture	0		96	84.0	/experiments/knapen_AOT/AOT_stimuli/pictures/0324_fw.png	279.98416686058044	0.8500230312347412
86	121.55134701728821	response	0	j		84.0	/experiments/knapen_AOT/AOT_stimuli/pictures/0324_fw.png	280.7699589729309	
87	121.61557793617249	picture	0		104	85.0	/experiments/knapen_AOT/AOT_stimuli/pictures/1250_fw.png	280.8341898918152	0.899975061416626
87	122.4740400314331	response	0	k		85.0	/experiments/knapen_AOT/AOT_stimuli/pictures/1250_fw.png	281.6926519870758	
88	122.51555299758911	picture	0		134	86.0	/experiments/knapen_AOT/AOT_stimuli/pictures/1842_fw.png	281.7341649532318	1.1590549945831299
88	123.62404203414917	response	0	k		86.0	/experiments/knapen_AOT/AOT_stimuli/pictures/1842_fw.png	282.84265398979187	
89	123.67460799217224	picture	0		93	87.0	/experiments/knapen_AOT/AOT_stimuli/pictures/2135_fw.png	282.89321994781494	0.8409500122070312
89	124.4407250881195	response	0	j		87.0	/experiments/knapen_AOT/AOT_stimuli/pictures/2135_fw.png	283.6593370437622	
90	124.51555800437927	picture	0		96	88.0	/experiments/knapen_AOT/AOT_stimuli/pictures/0541_fw.png	283.734169960022	0.9505970478057861
90	125.30741000175476	response	0	j		88.0	/experiments/knapen_AOT/AOT_stimuli/pictures/0541_fw.png	284.52602195739746	
91	125.46615505218506	picture	0		225	89.0	/experiments/knapen_AOT/AOT_stimuli/pictures/1490_fw.png	284.68476700782776	1.9028229713439941
91	127.33245396614075	response	0	k		89.0	/experiments/knapen_AOT/AOT_stimuli/pictures/1490_fw.png	286.55106592178345	
92	127.36897802352905	picture	0		99	90.0	/experiments/knapen_AOT/AOT_stimuli/pictures/1507_fw.png	286.58758997917175	0.840256929397583
92	128.19083189964294	response	0	j		90.0	/experiments/knapen_AOT/AOT_stimuli/pictures/1507_fw.png	287.40944385528564	
93	128.20923495292664	picture	0		183	91.0	/experiments/knapen_AOT/AOT_stimuli/pictures/1628_fw.png	287.42784690856934	1.6064441204071045
93	129.724191904068	response	0	k		91.0	/experiments/knapen_AOT/AOT_stimuli/pictures/1628_fw.png	288.9428038597107	
94	129.81567907333374	picture	0		133	92.0	/experiments/knapen_AOT/AOT_stimuli/pictures/1818_fw.png	289.03429102897644	1.1416728496551514
94	130.91586804389954	response	0	k		92.0	/experiments/knapen_AOT/AOT_stimuli/pictures/1818_fw.png	290.13447999954224	
95	130.9573519229889	picture	0		212	93.0	/experiments/knapen_AOT/AOT_stimuli/pictures/1953_fw.png	290.1759638786316	1.8004579544067383
95	132.7163999080658	response	0	k		93.0	/experiments/knapen_AOT/AOT_stimuli/pictures/1953_fw.png	291.9350118637085	
96	132.75780987739563	picture	0		87	94.0	/experiments/knapen_AOT/AOT_stimuli/pictures/2014_fw.png	291.97642183303833	0.7661981582641602
96	133.4741508960724	response	0	j		94.0	/experiments/knapen_AOT/AOT_stimuli/pictures/2014_fw.png	292.6927628517151	
97	133.5240080356598	picture	0		145	95.0	/experiments/knapen_AOT/AOT_stimuli/pictures/0866_fw.png	292.7426199913025	1.2269408702850342
97	134.7241449356079	response	0	k		95.0	/experiments/knapen_AOT/AOT_stimuli/pictures/0866_fw.png	293.9427568912506	
98	134.75094890594482	picture	0		78	96.0	/experiments/knapen_AOT/AOT_stimuli/pictures/0542_fw.png	293.9695608615875	0.6815400123596191
98	135.3908839225769	response	0	j		96.0	/experiments/knapen_AOT/AOT_stimuli/pictures/0542_fw.png	294.6094958782196	
99	135.43248891830444	picture	0		118	97.0	/experiments/knapen_AOT/AOT_stimuli/pictures/0782_fw.png	294.65110087394714	0.9921050071716309
99	136.4075379371643	response	0	j		97.0	/experiments/knapen_AOT/AOT_stimuli/pictures/0782_fw.png	295.626149892807	
100	136.42459392547607	picture	0		105	98.0	/experiments/knapen_AOT/AOT_stimuli/pictures/0890_fw.png	295.6432058811188	0.9244570732116699
100	137.2909278869629	response	0	k		98.0	/experiments/knapen_AOT/AOT_stimuli/pictures/0890_fw.png	296.5095398426056	
101	137.34905099868774	picture	0		122	99.0	/experiments/knapen_AOT/AOT_stimuli/pictures/0357_fw.png	296.56766295433044	1.0269548892974854
101	138.35070991516113	response	0	k		99.0	/experiments/knapen_AOT/AOT_stimuli/pictures/0357_fw.png	297.56932187080383	
102	138.37600588798523	picture	0		167	100.0	/experiments/knapen_AOT/AOT_stimuli/pictures/0253_fw.png	297.59461784362793	1.4148321151733398
102	139.758043050766	response	0	k		100.0	/experiments/knapen_AOT/AOT_stimuli/pictures/0253_fw.png	298.9766550064087	
103	139.79083800315857	picture	0		108	101.0	/experiments/knapen_AOT/AOT_stimuli/pictures/0604_fw.png	299.00944995880127	0.9416189193725586
103	140.6826159954071	response	0	k		101.0	/experiments/knapen_AOT/AOT_stimuli/pictures/0604_fw.png	299.9012279510498	
104	140.73245692253113	picture	0		90	102.0	/experiments/knapen_AOT/AOT_stimuli/pictures/1255_fw.png	299.9510688781738	0.7616021633148193
104	141.47424292564392	response	0	j		102.0	/experiments/knapen_AOT/AOT_stimuli/pictures/1255_fw.png	300.6928548812866	
105	141.49405908584595	picture	0		149	103.0	/experiments/knapen_AOT/AOT_stimuli/pictures/0663_fw.png	300.71267104148865	1.2800889015197754
105	142.72423696517944	response	0	j		103.0	/experiments/knapen_AOT/AOT_stimuli/pictures/0663_fw.png	301.94284892082214	
106	142.77414798736572	picture	0		466	104.0	/experiments/knapen_AOT/AOT_stimuli/pictures/0373_fw.png	301.9927599430084	3.935163974761963
106	146.6493170261383	response	0	j		104.0	/experiments/knapen_AOT/AOT_stimuli/pictures/0373_fw.png	305.867928981781	
107	146.70931196212769	picture	0		84	105.0	/experiments/knapen_AOT/AOT_stimuli/pictures/0755_fw.png	305.9279239177704	0.723351001739502
107	147.39936590194702	response	0	k		105.0	/experiments/knapen_AOT/AOT_stimuli/pictures/0755_fw.png	306.6179778575897	
108	147.4326629638672	picture	0		102	106.0	/experiments/knapen_AOT/AOT_stimuli/pictures/0148_fw.png	306.6512749195099	0.9165360927581787
108	148.30010104179382	response	0	k		106.0	/experiments/knapen_AOT/AOT_stimuli/pictures/0148_fw.png	307.5187129974365	
109	148.34919905662537	picture	0		134	107.0	/experiments/knapen_AOT/AOT_stimuli/pictures/0195_fw.png	307.56781101226807	1.1519358158111572
109	149.45772004127502	response	0	j		107.0	/experiments/knapen_AOT/AOT_stimuli/pictures/0195_fw.png	308.6763319969177	
110	149.50113487243652	picture	0		203	108.0	/experiments/knapen_AOT/AOT_stimuli/pictures/1045_fw.png	308.7197468280792	1.7082240581512451
110	151.18286108970642	response	0	k		108.0	/experiments/knapen_AOT/AOT_stimuli/pictures/1045_fw.png	310.4014730453491	
111	151.20935893058777	picture	0		229	109.0	/experiments/knapen_AOT/AOT_stimuli/pictures/1543_fw.png	310.42797088623047	1.9236750602722168
111	153.10788488388062	response	0	k		109.0	/experiments/knapen_AOT/AOT_stimuli/pictures/1543_fw.png	312.3264968395233	
112	153.13303399085999	picture	0		95	110.0	/experiments/knapen_AOT/AOT_stimuli/pictures/0273_fw.png	312.3516459465027	0.8329429626464844
112	153.91608309745789	response	0	k		110.0	/experiments/knapen_AOT/AOT_stimuli/pictures/0273_fw.png	313.1346950531006	
113	153.96597695350647	picture	0		145	111.0	/experiments/knapen_AOT/AOT_stimuli/pictures/1592_fw.png	313.18458890914917	1.275007963180542
113	155.15938210487366	response	0	k		111.0	/experiments/knapen_AOT/AOT_stimuli/pictures/1592_fw.png	314.37799406051636	
114	155.240984916687	picture	0		422	112.0	/experiments/knapen_AOT/AOT_stimuli/pictures/0712_fw.png	314.4595968723297	3.5417380332946777
114	158.74283695220947	response	0	k		112.0	/experiments/knapen_AOT/AOT_stimuli/pictures/0712_fw.png	317.9614489078522	
115	158.7827229499817	picture	0		108	113.0	/experiments/knapen_AOT/AOT_stimuli/pictures/1028_fw.png	318.0013349056244	0.9267899990081787
115	159.67504596710205	response	0	j		113.0	/experiments/knapen_AOT/AOT_stimuli/pictures/1028_fw.png	318.89365792274475	
116	159.70951294898987	picture	0		106	114.0	/experiments/knapen_AOT/AOT_stimuli/pictures/1597_fw.png	318.92812490463257	0.9584929943084717
116	160.58286499977112	response	0	k		114.0	/experiments/knapen_AOT/AOT_stimuli/pictures/1597_fw.png	319.8014769554138	
117	160.66800594329834	picture	0		356	115.0	/experiments/knapen_AOT/AOT_stimuli/pictures/1223_fw.png	319.88661789894104	2.9997811317443848
117	163.6245939731598	response	0	k		115.0	/experiments/knapen_AOT/AOT_stimuli/pictures/1223_fw.png	322.8432059288025	
118	163.66778707504272	picture	0		104	116.0	/experiments/knapen_AOT/AOT_stimuli/pictures/2040_fw.png	322.8863990306854	0.906728982925415
118	164.52454710006714	response	0	k		116.0	/experiments/knapen_AOT/AOT_stimuli/pictures/2040_fw.png	323.74315905570984	
119	164.57451605796814	picture	0		95	117.0	/experiments/knapen_AOT/AOT_stimuli/pictures/0301_fw.png	323.79312801361084	0.8165709972381592
119	165.35134410858154	response	0	j		117.0	/experiments/knapen_AOT/AOT_stimuli/pictures/0301_fw.png	324.56995606422424	
120	165.3910870552063	picture	0		864	118.0	/experiments/knapen_AOT/AOT_stimuli/pictures/1131_fw.png	324.609699010849	7.233479976654053
120	172.5831220149994	response	0	k		118.0	/experiments/knapen_AOT/AOT_stimuli/pictures/1131_fw.png	331.8017339706421	
121	172.62456703186035	picture	0		90	119.0	/experiments/knapen_AOT/AOT_stimuli/pictures/1683_fw.png	331.84317898750305	0.779541015625
121	173.3663990497589	response	0	j		119.0	/experiments/knapen_AOT/AOT_stimuli/pictures/1683_fw.png	332.5850110054016	
122	173.40410804748535	picture	0		93	120.0	/experiments/knapen_AOT/AOT_stimuli/pictures/0760_fw.png	332.62272000312805	0.8454878330230713
122	174.15959405899048	response	0	k		120.0	/experiments/knapen_AOT/AOT_stimuli/pictures/0760_fw.png	333.3782060146332	
123	174.24959588050842	picture	0		95	121.0	/experiments/knapen_AOT/AOT_stimuli/pictures/0539_fw.png	333.4682078361511	0.8166220188140869
123	175.0330810546875	response	0	j		121.0	/experiments/knapen_AOT/AOT_stimuli/pictures/0539_fw.png	334.2516930103302	
124	175.0662178993225	picture	0		100	122.0	/experiments/knapen_AOT/AOT_stimuli/pictures/0283_fw.png	334.2848298549652	0.8586771488189697
124	175.89143896102905	response	0	k		122.0	/experiments/knapen_AOT/AOT_stimuli/pictures/0283_fw.png	335.11005091667175	
125	175.92489504814148	picture	0		155	123.0	/experiments/knapen_AOT/AOT_stimuli/pictures/0097_fw.png	335.1435070037842	1.3080308437347412
125	177.20806407928467	response	0	j		123.0	/experiments/knapen_AOT/AOT_stimuli/pictures/0097_fw.png	336.42667603492737	
126	177.23292589187622	picture	0		100	124.0	/experiments/knapen_AOT/AOT_stimuli/pictures/0731_fw.png	336.4515378475189	0.8795571327209473
126	178.05812788009644	response	0	j		124.0	/experiments/knapen_AOT/AOT_stimuli/pictures/0731_fw.png	337.27673983573914	
127	178.11248302459717	picture	0		119	125.0	/experiments/knapen_AOT/AOT_stimuli/pictures/1548_fw.png	337.33109498023987	1.020503044128418
127	179.09979104995728	response	0	k		125.0	/experiments/knapen_AOT/AOT_stimuli/pictures/1548_fw.png	338.3184030056	
128	179.1329860687256	picture	0		433	126.0	/experiments/knapen_AOT/AOT_stimuli/pictures/1927_fw.png	338.3515980243683	3.6500208377838135
128	182.73329210281372	response	0	k		126.0	/experiments/knapen_AOT/AOT_stimuli/pictures/1927_fw.png	341.9519040584564	
129	182.7830069065094	picture	0		87	127.0	/experiments/knapen_AOT/AOT_stimuli/pictures/0246_fw.png	342.0016188621521	0.7600741386413574
129	183.49980807304382	response	0	j		127.0	/experiments/knapen_AOT/AOT_stimuli/pictures/0246_fw.png	342.7184200286865	
130	183.54308104515076	picture	0		102	128.0	/experiments/knapen_AOT/AOT_stimuli/pictures/0546_fw.png	342.76169300079346	0.8680770397186279
130	184.38341903686523	response	0	k		128.0	/experiments/knapen_AOT/AOT_stimuli/pictures/0546_fw.png	343.60203099250793	
131	184.41115808486938	picture	0		150	129.0	/experiments/knapen_AOT/AOT_stimuli/pictures/1620_fw.png	343.6297700405121	1.263779878616333
131	185.64982199668884	response	0	k		129.0	/experiments/knapen_AOT/AOT_stimuli/pictures/1620_fw.png	344.86843395233154	
132	185.67493796348572	picture	0		88	130.0	/experiments/knapen_AOT/AOT_stimuli/pictures/0243_fw.png	344.8935499191284	0.7500269412994385
132	186.39985609054565	response	0	j		130.0	/experiments/knapen_AOT/AOT_stimuli/pictures/0243_fw.png	345.61846804618835	
133	186.42496490478516	picture	0		118	131.0	/experiments/knapen_AOT/AOT_stimuli/pictures/1928_fw.png	345.64357686042786	1.0747711658477783
133	187.39987087249756	response	0	k		131.0	/experiments/knapen_AOT/AOT_stimuli/pictures/1928_fw.png	346.61848282814026	
134	187.49973607063293	picture	0		109	132.0	/experiments/knapen_AOT/AOT_stimuli/pictures/0660_fw.png	346.71834802627563	0.9333078861236572
134	188.39986205101013	response	0	k		132.0	/experiments/knapen_AOT/AOT_stimuli/pictures/0660_fw.png	347.61847400665283	
135	188.4330439567566	picture	0		103	133.0	/experiments/knapen_AOT/AOT_stimuli/pictures/2089_fw.png	347.6516559123993	0.8750250339508057
135	189.28318405151367	response	0	k		133.0	/experiments/knapen_AOT/AOT_stimuli/pictures/2089_fw.png	348.5017960071564	
136	189.3080689907074	picture	0		141	134.0	/experiments/knapen_AOT/AOT_stimuli/pictures/1183_fw.png	348.5266809463501	1.1934309005737305
136	190.4750120639801	response	0	k		134.0	/experiments/knapen_AOT/AOT_stimuli/pictures/1183_fw.png	349.6936240196228	
137	190.50149989128113	picture	0		87	135.0	/experiments/knapen_AOT/AOT_stimuli/pictures/1057_fw.png	349.7201118469238	0.7567942142486572
137	191.2168529033661	response	0	j		135.0	/experiments/knapen_AOT/AOT_stimuli/pictures/1057_fw.png	350.4354648590088	
138	191.25829410552979	picture	0		127	136.0	/experiments/knapen_AOT/AOT_stimuli/pictures/0290_fw.png	350.4769060611725	1.0764408111572266
138	192.30824398994446	response	0	k		136.0	/experiments/knapen_AOT/AOT_stimuli/pictures/0290_fw.png	351.52685594558716	
139	192.334734916687	picture	0		113	137.0	/experiments/knapen_AOT/AOT_stimuli/pictures/1381_fw.png	351.5533468723297	1.1484110355377197
139	193.26674389839172	response	0	k		137.0	/experiments/knapen_AOT/AOT_stimuli/pictures/1381_fw.png	352.4853558540344	
140	193.48314595222473	picture	0		105	138.0	/experiments/knapen_AOT/AOT_stimuli/pictures/0892_fw.png	352.70175790786743	0.9499919414520264
140	194.3434660434723	response	0	k		138.0	/experiments/knapen_AOT/AOT_stimuli/pictures/0892_fw.png	353.562077999115	
141	194.43313789367676	picture	0		81	139.0	/experiments/knapen_AOT/AOT_stimuli/pictures/1400_fw.png	353.65174984931946	0.7419040203094482
141	195.10001587867737	response	0	k		139.0	/experiments/knapen_AOT/AOT_stimuli/pictures/1400_fw.png	354.31862783432007	
142	195.1750419139862	picture	0		130	140.0	/experiments/knapen_AOT/AOT_stimuli/pictures/1485_fw.png	354.3936538696289	1.1180601119995117
142	196.25007891654968	response	0	k		140.0	/experiments/knapen_AOT/AOT_stimuli/pictures/1485_fw.png	355.4686908721924	
143	196.29310202598572	picture	0		116	141.0	/experiments/knapen_AOT/AOT_stimuli/pictures/1521_fw.png	355.5117139816284	0.9900779724121094
143	197.24998903274536	response	0	j		141.0	/experiments/knapen_AOT/AOT_stimuli/pictures/1521_fw.png	356.46860098838806	
144	197.28317999839783	picture	0		83	142.0	/experiments/knapen_AOT/AOT_stimuli/pictures/0963_fw.png	356.5017919540405	0.7183279991149902
144	197.966943025589	response	0	j		142.0	/experiments/knapen_AOT/AOT_stimuli/pictures/0963_fw.png	357.1855549812317	
145	198.00150799751282	picture	0		142	143.0	/experiments/knapen_AOT/AOT_stimuli/pictures/1558_fw.png	357.2201199531555	1.2152459621429443
145	199.17520809173584	response	0	j		143.0	/experiments/knapen_AOT/AOT_stimuli/pictures/1558_fw.png	358.39382004737854	
146	199.21675395965576	picture	0		103	144.0	/experiments/knapen_AOT/AOT_stimuli/pictures/1701_fw.png	358.43536591529846	0.8831920623779297
146	200.0666708946228	response	0	k		144.0	/experiments/knapen_AOT/AOT_stimuli/pictures/1701_fw.png	359.2852828502655	
147	200.0999460220337	picture	0		99	145.0	/experiments/knapen_AOT/AOT_stimuli/pictures/2038_fw.png	359.3185579776764	0.8583328723907471
147	200.9167709350586	response	0	j		145.0	/experiments/knapen_AOT/AOT_stimuli/pictures/2038_fw.png	360.1353828907013	
148	200.95827889442444	picture	0		125	146.0	/experiments/knapen_AOT/AOT_stimuli/pictures/2096_fw.png	360.17689085006714	1.0584211349487305
148	201.9917459487915	response	0	k		146.0	/experiments/knapen_AOT/AOT_stimuli/pictures/2096_fw.png	361.2103579044342	
149	202.01670002937317	picture	0		93	147.0	/experiments/knapen_AOT/AOT_stimuli/pictures/2125_fw.png	361.23531198501587	0.8112189769744873
149	202.7833640575409	response	0	j		147.0	/experiments/knapen_AOT/AOT_stimuli/pictures/2125_fw.png	362.0019760131836	
150	202.82791900634766	picture	0		136	148.0	/experiments/knapen_AOT/AOT_stimuli/pictures/0609_fw.png	362.04653096199036	1.1553339958190918
150	203.94358491897583	response	0	j		148.0	/experiments/knapen_AOT/AOT_stimuli/pictures/0609_fw.png	363.16219687461853	
151	203.98325300216675	picture	0		224	149.0	/experiments/knapen_AOT/AOT_stimuli/pictures/0869_fw.png	363.20186495780945	1.891752004623413
151	205.84195709228516	response	0	j		149.0	/experiments/knapen_AOT/AOT_stimuli/pictures/0869_fw.png	365.06056904792786	
152	205.87500500679016	picture	0		85	150.0	/experiments/knapen_AOT/AOT_stimuli/pictures/1716_fw.png	365.09361696243286	0.7249770164489746
152	206.5750870704651	response	0	j		150.0	/experiments/knapen_AOT/AOT_stimuli/pictures/1716_fw.png	365.7936990261078	
153	206.59998202323914	picture	0		125	151.0	/experiments/knapen_AOT/AOT_stimuli/pictures/1252_fw.png	365.81859397888184	1.0667459964752197
153	207.6336898803711	response	0	j		151.0	/experiments/knapen_AOT/AOT_stimuli/pictures/1252_fw.png	366.8523018360138	
154	207.66672801971436	picture	0		91	152.0	/experiments/knapen_AOT/AOT_stimuli/pictures/0728_fw.png	366.88533997535706	0.7749249935150146
154	208.41693305969238	response	0	j		152.0	/experiments/knapen_AOT/AOT_stimuli/pictures/0728_fw.png	367.6355450153351	
155	208.44165301322937	picture	0		90	153.0	/experiments/knapen_AOT/AOT_stimuli/pictures/0802_fw.png	367.66026496887207	0.7613708972930908
155	209.18349289894104	response	0	j		153.0	/experiments/knapen_AOT/AOT_stimuli/pictures/0802_fw.png	368.40210485458374	
156	209.20302391052246	picture	0		91	154.0	/experiments/knapen_AOT/AOT_stimuli/pictures/2172_fw.png	368.42163586616516	0.7846760749816895
156	209.943500995636	response	0	j		154.0	/experiments/knapen_AOT/AOT_stimuli/pictures/2172_fw.png	369.1621129512787	
157	209.98769998550415	picture	0		139	155.0	/experiments/knapen_AOT/AOT_stimuli/pictures/0279_fw.png	369.20631194114685	1.187441110610962
157	211.13376092910767	response	0	k		155.0	/experiments/knapen_AOT/AOT_stimuli/pictures/0279_fw.png	370.35237288475037	
158	211.1751410961151	picture	0		103	156.0	/experiments/knapen_AOT/AOT_stimuli/pictures/1170_fw.png	370.3937530517578	0.8680717945098877
158	212.02519488334656	response	0	k		156.0	/experiments/knapen_AOT/AOT_stimuli/pictures/1170_fw.png	371.24380683898926	
159	212.043212890625	picture	0		120	157.0	/experiments/knapen_AOT/AOT_stimuli/pictures/1406_fw.png	371.2618248462677	1.0152571201324463
159	213.03353309631348	response	0	k		157.0	/experiments/knapen_AOT/AOT_stimuli/pictures/1406_fw.png	372.2521450519562	
160	213.05847001075745	picture	0		324	158.0	/experiments/knapen_AOT/AOT_stimuli/pictures/1375_fw.png	372.27708196640015	2.7346999645233154
160	215.74359893798828	response	0	k		158.0	/experiments/knapen_AOT/AOT_stimuli/pictures/1375_fw.png	374.962210893631	
161	215.79316997528076	picture	0		111	159.0	/experiments/knapen_AOT/AOT_stimuli/pictures/0191_fw.png	375.01178193092346	0.9654190540313721
161	216.70858693122864	response	0	j		159.0	/experiments/knapen_AOT/AOT_stimuli/pictures/0191_fw.png	375.92719888687134	
162	216.75858902931213	picture	0		135	160.0	/experiments/knapen_AOT/AOT_stimuli/pictures/0447_fw.png	375.97720098495483	1.15277099609375
162	217.8752830028534	response	0	k		160.0	/experiments/knapen_AOT/AOT_stimuli/pictures/0447_fw.png	377.0938949584961	
163	217.91136002540588	picture	0		116	161.0	/experiments/knapen_AOT/AOT_stimuli/pictures/1415_fw.png	377.1299719810486	1.0833780765533447
163	218.86696910858154	response	0	k		161.0	/experiments/knapen_AOT/AOT_stimuli/pictures/1415_fw.png	378.08558106422424	
164	218.99473810195923	picture	0		97	162.0	/experiments/knapen_AOT/AOT_stimuli/pictures/0860_fw.png	378.21335005760193	0.8333449363708496
164	219.79210901260376	response	0	k		162.0	/experiments/knapen_AOT/AOT_stimuli/pictures/0860_fw.png	379.01072096824646	
165	219.82808303833008	picture	0		99	163.0	/experiments/knapen_AOT/AOT_stimuli/pictures/1576_fw.png	379.0466949939728	0.8472340106964111
165	220.64209389686584	response	0	j		163.0	/experiments/knapen_AOT/AOT_stimuli/pictures/1576_fw.png	379.86070585250854	
166	220.6753170490265	picture	0		92	164.0	/experiments/knapen_AOT/AOT_stimuli/pictures/0678_fw.png	379.8939290046692	0.7916419506072998
166	221.4337821006775	response	0	k		164.0	/experiments/knapen_AOT/AOT_stimuli/pictures/0678_fw.png	380.6523940563202	
167	221.4669589996338	picture	0		466	165.0	/experiments/knapen_AOT/AOT_stimuli/pictures/1173_fw.png	380.6855709552765	3.933284044265747
167	225.33533191680908	response	0	k		165.0	/experiments/knapen_AOT/AOT_stimuli/pictures/1173_fw.png	384.5539438724518	
168	225.40024304389954	picture	0		117	166.0	/experiments/knapen_AOT/AOT_stimuli/pictures/1104_fw.png	384.61885499954224	1.0111818313598633
168	226.3671600818634	response	0	j		166.0	/experiments/knapen_AOT/AOT_stimuli/pictures/1104_fw.png	385.5857720375061	
169	226.4114248752594	picture	0		96	167.0	/experiments/knapen_AOT/AOT_stimuli/pictures/1538_fw.png	385.6300368309021	0.8265111446380615
169	227.20037603378296	response	0	j		167.0	/experiments/knapen_AOT/AOT_stimuli/pictures/1538_fw.png	386.41898798942566	
170	227.23793601989746	picture	0		82	168.0	/experiments/knapen_AOT/AOT_stimuli/pictures/2080_fw.png	386.45654797554016	0.7203540802001953
170	227.9087700843811	response	0	j		168.0	/experiments/knapen_AOT/AOT_stimuli/pictures/2080_fw.png	387.1273820400238	
171	227.95829010009766	picture	0		86	169.0	/experiments/knapen_AOT/AOT_stimuli/pictures/1438_fw.png	387.17690205574036	0.7836790084838867
171	228.68378400802612	response	0	j		169.0	/experiments/knapen_AOT/AOT_stimuli/pictures/1438_fw.png	387.9023959636688	
172	228.74196910858154	picture	0		95	170.0	/experiments/knapen_AOT/AOT_stimuli/pictures/1335_fw.png	387.96058106422424	0.8249609470367432
172	229.525386095047	response	0	k		170.0	/experiments/knapen_AOT/AOT_stimuli/pictures/1335_fw.png	388.7439980506897	
173	229.5669300556183	picture	0		90	171.0	/experiments/knapen_AOT/AOT_stimuli/pictures/1531_fw.png	388.785542011261	0.7917029857635498
173	230.30881905555725	response	0	j		171.0	/experiments/knapen_AOT/AOT_stimuli/pictures/1531_fw.png	389.52743101119995	
174	230.35863304138184	picture	0		97	172.0	/experiments/knapen_AOT/AOT_stimuli/pictures/1410_fw.png	389.57724499702454	0.8444828987121582
174	231.1522181034088	response	0	j		172.0	/experiments/knapen_AOT/AOT_stimuli/pictures/1410_fw.png	390.3708300590515	
175	231.203115940094	picture	0		112	173.0	/experiments/knapen_AOT/AOT_stimuli/pictures/1245_fw.png	390.4217278957367	0.9444229602813721
175	232.1255099773407	response	0	j		173.0	/experiments/knapen_AOT/AOT_stimuli/pictures/1245_fw.png	391.3441219329834	
176	232.14753890037537	picture	0		162	174.0	/experiments/knapen_AOT/AOT_stimuli/pictures/1320_fw.png	391.36615085601807	1.3778669834136963
176	233.4922389984131	response	0	k		174.0	/experiments/knapen_AOT/AOT_stimuli/pictures/1320_fw.png	392.7108509540558	
177	233.52540588378906	picture	0		121	175.0	/experiments/knapen_AOT/AOT_stimuli/pictures/1685_fw.png	392.74401783943176	1.025022029876709
177	234.52544903755188	response	0	k		175.0	/experiments/knapen_AOT/AOT_stimuli/pictures/1685_fw.png	393.7440609931946	
178	234.55042791366577	picture	0		116	176.0	/experiments/knapen_AOT/AOT_stimuli/pictures/1147_fw.png	393.7690398693085	0.999993085861206
178	235.50895190238953	response	0	j		176.0	/experiments/knapen_AOT/AOT_stimuli/pictures/1147_fw.png	394.7275638580322	
179	235.55042099952698	picture	0		108	177.0	/experiments/knapen_AOT/AOT_stimuli/pictures/1591_fw.png	394.7690329551697	0.9332900047302246
179	236.44214296340942	response	0	k		177.0	/experiments/knapen_AOT/AOT_stimuli/pictures/1591_fw.png	395.6607549190521	
180	236.4837110042572	picture	0		135	178.0	/experiments/knapen_AOT/AOT_stimuli/pictures/1634_fw.png	395.7023229598999	1.1500990390777588
180	237.60058093070984	response	0	j		178.0	/experiments/knapen_AOT/AOT_stimuli/pictures/1634_fw.png	396.81919288635254	
181	237.63381004333496	picture	0		91	179.0	/experiments/knapen_AOT/AOT_stimuli/pictures/1739_fw.png	396.85242199897766	0.8193459510803223
181	238.3839008808136	response	0	j		179.0	/experiments/knapen_AOT/AOT_stimuli/pictures/1739_fw.png	397.6025128364563	
182	238.45315599441528	picture	0		87	180.0	/experiments/knapen_AOT/AOT_stimuli/pictures/0308_fw.png	397.671767950058	0.7639989852905273
182	239.16727495193481	response	0	j		180.0	/experiments/knapen_AOT/AOT_stimuli/pictures/0308_fw.png	398.3858869075775	
183	239.2171549797058	picture	0		148	181.0	/experiments/knapen_AOT/AOT_stimuli/pictures/1209_fw.png	398.4357669353485	1.250011920928955
183	240.44221687316895	response	0	j		181.0	/experiments/knapen_AOT/AOT_stimuli/pictures/1209_fw.png	399.66082882881165	
184	240.46716690063477	picture	0		86	182.0	/experiments/knapen_AOT/AOT_stimuli/pictures/0128_fw.png	399.68577885627747	0.7359931468963623
184	241.17562198638916	response	0	k		182.0	/experiments/knapen_AOT/AOT_stimuli/pictures/0128_fw.png	400.39423394203186	
185	241.20316004753113	picture	0		131	183.0	/experiments/knapen_AOT/AOT_stimuli/pictures/1619_fw.png	400.4217720031738	1.125035047531128
185	242.28394293785095	response	0	j		183.0	/experiments/knapen_AOT/AOT_stimuli/pictures/1619_fw.png	401.50255489349365	
186	242.32819509506226	picture	0		99	184.0	/experiments/knapen_AOT/AOT_stimuli/pictures/1836_fw.png	401.54680705070496	0.8403139114379883
186	243.1356189250946	response	0	j		184.0	/experiments/knapen_AOT/AOT_stimuli/pictures/1836_fw.png	402.3542308807373	
187	243.16850900650024	picture	0		329	185.0	/experiments/knapen_AOT/AOT_stimuli/pictures/0503_fw.png	402.38712096214294	2.7569758892059326
187	245.90077209472656	response	0	j		185.0	/experiments/knapen_AOT/AOT_stimuli/pictures/0503_fw.png	405.11938405036926	
188	245.92548489570618	picture	0		154	186.0	/experiments/knapen_AOT/AOT_stimuli/pictures/2006_fw.png	405.1440968513489	1.319413185119629
188	247.20065903663635	response	0	j		186.0	/experiments/knapen_AOT/AOT_stimuli/pictures/2006_fw.png	406.41927099227905	
189	247.2448980808258	picture	0		93	187.0	/experiments/knapen_AOT/AOT_stimuli/pictures/1710_fw.png	406.4635100364685	0.8222689628601074
189	248.00905203819275	response	0	k		187.0	/experiments/knapen_AOT/AOT_stimuli/pictures/1710_fw.png	407.22766399383545	
190	248.0671670436859	picture	0		102	188.0	/experiments/knapen_AOT/AOT_stimuli/pictures/1650_fw.png	407.2857789993286	0.9000709056854248
190	248.90900301933289	response	0	j		188.0	/experiments/knapen_AOT/AOT_stimuli/pictures/1650_fw.png	408.1276149749756	
191	248.96723794937134	picture	0		115	189.0	/experiments/knapen_AOT/AOT_stimuli/pictures/1476_fw.png	408.18584990501404	0.9722170829772949
191	249.91738605499268	response	0	k		189.0	/experiments/knapen_AOT/AOT_stimuli/pictures/1476_fw.png	409.1359980106354	
192	249.93945503234863	picture	0		103	190.0	/experiments/knapen_AOT/AOT_stimuli/pictures/1456_fw.png	409.15806698799133	0.8957529067993164
192	250.7923550605774	response	0	k		190.0	/experiments/knapen_AOT/AOT_stimuli/pictures/1456_fw.png	410.0109670162201	
193	250.83520793914795	picture	0		95	191.0	/experiments/knapen_AOT/AOT_stimuli/pictures/0025_fw.png	410.05381989479065	0.8333489894866943
193	251.6173620223999	response	0	k		191.0	/experiments/knapen_AOT/AOT_stimuli/pictures/0025_fw.png	410.8359739780426	
194	251.66855692863464	picture	0		109	192.0	/experiments/knapen_AOT/AOT_stimuli/pictures/0022_fw.png	410.88716888427734	0.9403460025787354
194	252.56078600883484	response	0	k		192.0	/experiments/knapen_AOT/AOT_stimuli/pictures/0022_fw.png	411.77939796447754	
195	252.60890293121338	picture	0		96	193.0	/experiments/knapen_AOT/AOT_stimuli/pictures/0424_fw.png	411.8275148868561	0.8250889778137207
195	253.4007649421692	response	0	k		193.0	/experiments/knapen_AOT/AOT_stimuli/pictures/0424_fw.png	412.6193768978119	
196	253.4339919090271	picture	0		88	194.0	/experiments/knapen_AOT/AOT_stimuli/pictures/1611_fw.png	412.6526038646698	0.8416659832000732
196	254.15235495567322	response	0	j		194.0	/experiments/knapen_AOT/AOT_stimuli/pictures/1611_fw.png	413.3709669113159	
197	254.27565789222717	picture	0		102	195.0	/experiments/knapen_AOT/AOT_stimuli/pictures/0319_fw.png	413.4942698478699	0.9499890804290771
197	255.11745500564575	response	0	k		195.0	/experiments/knapen_AOT/AOT_stimuli/pictures/0319_fw.png	414.33606696128845	
198	255.22564697265625	picture	0		104	196.0	/experiments/knapen_AOT/AOT_stimuli/pictures/1780_fw.png	414.44425892829895	0.9360079765319824
198	256.0840859413147	response	0	k		196.0	/experiments/knapen_AOT/AOT_stimuli/pictures/1780_fw.png	415.3026978969574	
199	256.16165494918823	picture	0		102	197.0	/experiments/knapen_AOT/AOT_stimuli/pictures/0757_fw.png	415.38026690483093	0.8807680606842041
199	257.0008180141449	response	0	k		197.0	/experiments/knapen_AOT/AOT_stimuli/pictures/0757_fw.png	416.2194299697876	
200	257.04242300987244	picture	0		124	198.0	/experiments/knapen_AOT/AOT_stimuli/pictures/0216_fw.png	416.26103496551514	1.0706379413604736
200	258.06746006011963	response	0	k		198.0	/experiments/knapen_AOT/AOT_stimuli/pictures/0216_fw.png	417.28607201576233	
201	258.1130609512329	picture	0		118	199.0	/experiments/knapen_AOT/AOT_stimuli/pictures/1758_fw.png	417.3316729068756	0.9999780654907227
201	259.0841341018677	response	0	k		199.0	/experiments/knapen_AOT/AOT_stimuli/pictures/1758_fw.png	418.3027460575104	
202	259.11303901672363	picture	0		411	200.0	/experiments/knapen_AOT/AOT_stimuli/pictures/2027_fw.png	418.33165097236633	3.4543609619140625
202	262.5259940624237	response	0	j		200.0	/experiments/knapen_AOT/AOT_stimuli/pictures/2027_fw.png	421.7446060180664	
203	262.5673999786377	picture	0		77	201.0	/experiments/knapen_AOT/AOT_stimuli/pictures/1848_fw.png	421.7860119342804	0.6637260913848877
203	263.2008550167084	response	0	k		201.0	/experiments/knapen_AOT/AOT_stimuli/pictures/1848_fw.png	422.4194669723511	
204	263.2311260700226	picture	0		114	202.0	/experiments/knapen_AOT/AOT_stimuli/pictures/0631_fw.png	422.4497380256653	0.9947268962860107
204	264.17584204673767	response	0	j		202.0	/experiments/knapen_AOT/AOT_stimuli/pictures/0631_fw.png	423.39445400238037	
205	264.2258529663086	picture	0		114	203.0	/experiments/knapen_AOT/AOT_stimuli/pictures/2039_fw.png	423.4444649219513	0.9706830978393555
205	265.1607029438019	response	0	k		203.0	/experiments/knapen_AOT/AOT_stimuli/pictures/2039_fw.png	424.3793148994446	
206	265.19653606414795	picture	0		89	204.0	/experiments/knapen_AOT/AOT_stimuli/pictures/0100_fw.png	424.41514801979065	0.7638018131256104
206	265.92587995529175	response	0	k		204.0	/experiments/knapen_AOT/AOT_stimuli/pictures/0100_fw.png	425.14449191093445	
207	265.96033787727356	picture	0		117	205.0	/experiments/knapen_AOT/AOT_stimuli/pictures/0200_fw.png	425.17894983291626	1.0070750713348389
207	266.9260160923004	response	0	k		205.0	/experiments/knapen_AOT/AOT_stimuli/pictures/0200_fw.png	426.1446280479431	
208	266.9674129486084	picture	0		121	206.0	/experiments/knapen_AOT/AOT_stimuli/pictures/0127_fw.png	426.1860249042511	1.034661054611206
208	267.96080899238586	response	0	k		206.0	/experiments/knapen_AOT/AOT_stimuli/pictures/0127_fw.png	427.17942094802856	
209	268.0020740032196	picture	0		470	207.0	/experiments/knapen_AOT/AOT_stimuli/pictures/1355_fw.png	427.2206859588623	3.9320929050445557
209	271.9093589782715	response	0	k		207.0	/experiments/knapen_AOT/AOT_stimuli/pictures/1355_fw.png	431.1279709339142	
210	271.93416690826416	picture	0		93	208.0	/experiments/knapen_AOT/AOT_stimuli/pictures/0223_fw.png	431.15277886390686	0.8083679676055908
210	272.70103192329407	response	0	k		208.0	/experiments/knapen_AOT/AOT_stimuli/pictures/0223_fw.png	431.91964387893677	
211	272.74253487586975	picture	0		204	209.0	/experiments/knapen_AOT/AOT_stimuli/pictures/1145_fw.png	431.96114683151245	1.7501041889190674
211	274.4343988895416	response	0	j		209.0	/experiments/knapen_AOT/AOT_stimuli/pictures/1145_fw.png	433.6530108451843	
212	274.4926390647888	picture	0		111	210.0	/experiments/knapen_AOT/AOT_stimuli/pictures/1046_fw.png	433.7112510204315	0.995568037033081
212	275.4093289375305	response	0	k		210.0	/experiments/knapen_AOT/AOT_stimuli/pictures/1046_fw.png	434.6279408931732	
213	275.4882071018219	picture	0		115	211.0	/experiments/knapen_AOT/AOT_stimuli/pictures/0781_fw.png	434.7068190574646	0.9930479526519775
213	276.43439197540283	response	0	j		211.0	/experiments/knapen_AOT/AOT_stimuli/pictures/0781_fw.png	435.65300393104553	
214	276.4812550544739	picture	0		84	212.0	/experiments/knapen_AOT/AOT_stimuli/pictures/2048_fw.png	435.6998670101166	0.7291829586029053
214	277.1760160923004	response	0	k		212.0	/experiments/knapen_AOT/AOT_stimuli/pictures/2048_fw.png	436.3946280479431	
215	277.2104380130768	picture	0		104	213.0	/experiments/knapen_AOT/AOT_stimuli/pictures/0750_fw.png	436.4290499687195	0.9071829319000244
215	278.06775999069214	response	0	k		213.0	/experiments/knapen_AOT/AOT_stimuli/pictures/0750_fw.png	437.28637194633484	
216	278.1176209449768	picture	0		144	214.0	/experiments/knapen_AOT/AOT_stimuli/pictures/0278_fw.png	437.3362329006195	1.2334001064300537
216	279.3094470500946	response	0	j		214.0	/experiments/knapen_AOT/AOT_stimuli/pictures/0278_fw.png	438.5280590057373	
217	279.35102105140686	picture	0		102	215.0	/experiments/knapen_AOT/AOT_stimuli/pictures/1344_fw.png	438.56963300704956	0.8665528297424316
217	280.1927239894867	response	0	k		215.0	/experiments/knapen_AOT/AOT_stimuli/pictures/1344_fw.png	439.4113359451294	
218	280.2175738811493	picture	0		203	216.0	/experiments/knapen_AOT/AOT_stimuli/pictures/0433_fw.png	439.436185836792	1.7289152145385742
218	281.90121698379517	response	0	k		216.0	/experiments/knapen_AOT/AOT_stimuli/pictures/0433_fw.png	441.11982893943787	
219	281.94648909568787	picture	0		94	217.0	/experiments/knapen_AOT/AOT_stimuli/pictures/1598_fw.png	441.16510105133057	0.8128118515014648
219	282.71776390075684	response	0	j		217.0	/experiments/knapen_AOT/AOT_stimuli/pictures/1598_fw.png	441.93637585639954	
220	282.75930094718933	picture	0		264	218.0	/experiments/knapen_AOT/AOT_stimuli/pictures/0968_fw.png	441.97791290283203	2.241698980331421
220	284.944473028183	response	0	j		218.0	/experiments/knapen_AOT/AOT_stimuli/pictures/0968_fw.png	444.1630849838257	
221	285.00099992752075	picture	0		74	219.0	/experiments/knapen_AOT/AOT_stimuli/pictures/0911_fw.png	444.21961188316345	0.6468920707702637
221	285.60956287384033	response	0	k		219.0	/experiments/knapen_AOT/AOT_stimuli/pictures/0911_fw.png	444.82817482948303	
222	285.647891998291	picture	0		87	220.0	/experiments/knapen_AOT/AOT_stimuli/pictures/0375_fw.png	444.8665039539337	0.8198649883270264
222	286.367840051651	response	0	j		220.0	/experiments/knapen_AOT/AOT_stimuli/pictures/0375_fw.png	445.5864520072937	
223	286.46775698661804	picture	0		120	221.0	/experiments/knapen_AOT/AOT_stimuli/pictures/1488_fw.png	445.68636894226074	1.0499629974365234
223	287.45964908599854	response	0	j		221.0	/experiments/knapen_AOT/AOT_stimuli/pictures/1488_fw.png	446.67826104164124	
224	287.51771998405457	picture	0		103	222.0	/experiments/knapen_AOT/AOT_stimuli/pictures/0613_fw.png	446.73633193969727	0.9704699516296387
224	288.3610939979553	response	0	k		222.0	/experiments/knapen_AOT/AOT_stimuli/pictures/0613_fw.png	447.579705953598	
225	288.4881899356842	picture	0		100	223.0	/experiments/knapen_AOT/AOT_stimuli/pictures/1749_fw.png	447.7068018913269	0.896172046661377
225	289.3096420764923	response	0	k		223.0	/experiments/knapen_AOT/AOT_stimuli/pictures/1749_fw.png	448.528254032135	
226	289.3843619823456	picture	0		87	224.0	/experiments/knapen_AOT/AOT_stimuli/pictures/0428_fw.png	448.6029739379883	0.7583789825439453
226	290.1012260913849	response	0	k		224.0	/experiments/knapen_AOT/AOT_stimuli/pictures/0428_fw.png	449.3198380470276	
227	290.1427409648895	picture	0		108	225.0	/experiments/knapen_AOT/AOT_stimuli/pictures/0865_fw.png	449.3613529205322	0.9287919998168945
227	291.0345718860626	response	0	k		225.0	/experiments/knapen_AOT/AOT_stimuli/pictures/0865_fw.png	450.2531838417053	
228	291.0715329647064	picture	0		133	226.0	/experiments/knapen_AOT/AOT_stimuli/pictures/1804_fw.png	450.2901449203491	1.1389219760894775
228	292.1612238883972	response	0	k		226.0	/experiments/knapen_AOT/AOT_stimuli/pictures/1804_fw.png	451.3798358440399	
229	292.2104549407959	picture	0		121	227.0	/experiments/knapen_AOT/AOT_stimuli/pictures/0596_fw.png	451.4290668964386	1.0656659603118896
229	293.2096700668335	response	0	k		227.0	/experiments/knapen_AOT/AOT_stimuli/pictures/0596_fw.png	452.4282820224762	
230	293.2761209011078	picture	0		222	228.0	/experiments/knapen_AOT/AOT_stimuli/pictures/0045_fw.png	452.4947328567505	1.8584020137786865
230	295.1180078983307	response	0	j		228.0	/experiments/knapen_AOT/AOT_stimuli/pictures/0045_fw.png	454.3366198539734	
231	295.1345229148865	picture	0		88	229.0	/experiments/knapen_AOT/AOT_stimuli/pictures/1135_fw.png	454.3531348705292	0.7635211944580078
231	295.85974407196045	response	0	k		229.0	/experiments/knapen_AOT/AOT_stimuli/pictures/1135_fw.png	455.07835602760315	
232	295.8980441093445	picture	0		149	230.0	/experiments/knapen_AOT/AOT_stimuli/pictures/1566_fw.png	455.1166560649872	1.2781038284301758
232	297.12800788879395	response	0	k		230.0	/experiments/knapen_AOT/AOT_stimuli/pictures/1566_fw.png	456.34661984443665	
233	297.17614793777466	picture	0		207	231.0	/experiments/knapen_AOT/AOT_stimuli/pictures/1750_fw.png	456.39475989341736	1.7584121227264404
233	298.8930630683899	response	0	k		231.0	/experiments/knapen_AOT/AOT_stimuli/pictures/1750_fw.png	458.1116750240326	
234	298.9345600605011	picture	0		80	232.0	/experiments/knapen_AOT/AOT_stimuli/pictures/2017_fw.png	458.1531720161438	0.7273440361022949
234	299.62637591362	response	0	k		232.0	/experiments/knapen_AOT/AOT_stimuli/pictures/2017_fw.png	458.8449878692627	
235	299.6619040966034	picture	0		118	233.0	/experiments/knapen_AOT/AOT_stimuli/pictures/1527_fw.png	458.8805160522461	1.0059788227081299
235	300.63479590415955	response	0	k		233.0	/experiments/knapen_AOT/AOT_stimuli/pictures/1527_fw.png	459.85340785980225	
236	300.6678829193115	picture	0		207	234.0	/experiments/knapen_AOT/AOT_stimuli/pictures/1300_fw.png	459.8864948749542	1.75095796585083
236	302.3848180770874	response	0	j		234.0	/experiments/knapen_AOT/AOT_stimuli/pictures/1300_fw.png	461.6034300327301	
237	302.41884088516235	picture	0		268	235.0	/experiments/knapen_AOT/AOT_stimuli/pictures/1642_fw.png	461.63745284080505	2.257456064224243
237	304.643089056015	response	0	k		235.0	/experiments/knapen_AOT/AOT_stimuli/pictures/1642_fw.png	463.8617010116577	
238	304.6762969493866	picture	0		81	236.0	/experiments/knapen_AOT/AOT_stimuli/pictures/1039_fw.png	463.8949089050293	0.7166619300842285
238	305.33643889427185	response	0	j		236.0	/experiments/knapen_AOT/AOT_stimuli/pictures/1039_fw.png	464.55505084991455	
239	305.3929588794708	picture	0		94	237.0	/experiments/knapen_AOT/AOT_stimuli/pictures/1190_fw.png	464.6115708351135	0.8107030391693115
239	306.16136503219604	response	0	j		237.0	/experiments/knapen_AOT/AOT_stimuli/pictures/1190_fw.png	465.37997698783875	
240	306.20366191864014	picture	0		87	238.0	/experiments/knapen_AOT/AOT_stimuli/pictures/0420_fw.png	465.42227387428284	0.7560231685638428
240	306.9181010723114	response	0	j		238.0	/experiments/knapen_AOT/AOT_stimuli/pictures/0420_fw.png	466.1367130279541	
241	306.959685087204	picture	0		183	239.0	/experiments/knapen_AOT/AOT_stimuli/pictures/0736_fw.png	466.1782970428467	1.5703048706054688
241	308.4766628742218	response	0	j		239.0	/experiments/knapen_AOT/AOT_stimuli/pictures/0736_fw.png	467.6952748298645	
242	308.52998995780945	picture	0		165	240.0	/experiments/knapen_AOT/AOT_stimuli/pictures/0038_fw.png	467.74860191345215	1.3963510990142822
242	309.8931710720062	response	0	j		240.0	/experiments/knapen_AOT/AOT_stimuli/pictures/0038_fw.png	469.1117830276489	
243	309.92634105682373	picture	0		155	241.0	/experiments/knapen_AOT/AOT_stimuli/pictures/1995_fw.png	469.14495301246643	1.3190479278564453
243	311.2099289894104	response	0	k		241.0	/experiments/knapen_AOT/AOT_stimuli/pictures/1995_fw.png	470.4285409450531	
244	311.2453889846802	picture	0		96	242.0	/experiments/knapen_AOT/AOT_stimuli/pictures/0775_fw.png	470.4640009403229	0.8263199329376221
244	312.03498888015747	response	0	j		242.0	/experiments/knapen_AOT/AOT_stimuli/pictures/0775_fw.png	471.25360083580017	
245	312.0717089176178	picture	0		113	243.0	/experiments/knapen_AOT/AOT_stimuli/pictures/1564_fw.png	471.2903208732605	0.9583311080932617
245	313.0015790462494	response	0	k		243.0	/experiments/knapen_AOT/AOT_stimuli/pictures/1564_fw.png	472.2201910018921	
246	313.03004002571106	picture	0		102	244.0	/experiments/knapen_AOT/AOT_stimuli/pictures/1744_fw.png	472.24865198135376	0.9713900089263916
246	313.86821603775024	response	0	j		244.0	/experiments/knapen_AOT/AOT_stimuli/pictures/1744_fw.png	473.08682799339294	
247	314.00143003463745	picture	0		105	245.0	/experiments/knapen_AOT/AOT_stimuli/pictures/1158_fw.png	473.22004199028015	0.9175498485565186
247	314.86822295188904	response	0	k		245.0	/experiments/knapen_AOT/AOT_stimuli/pictures/1158_fw.png	474.08683490753174	
248	314.91897988319397	picture	0		126	246.0	/experiments/knapen_AOT/AOT_stimuli/pictures/2084_fw.png	474.13759183883667	1.0764830112457275
248	315.95330595970154	response	0	k		246.0	/experiments/knapen_AOT/AOT_stimuli/pictures/2084_fw.png	475.17191791534424	
249	315.9954628944397	picture	0		104	247.0	/experiments/knapen_AOT/AOT_stimuli/pictures/0786_fw.png	475.2140748500824	0.8894281387329102
249	316.85167694091797	response	0	j		247.0	/experiments/knapen_AOT/AOT_stimuli/pictures/0786_fw.png	476.07028889656067	
250	316.8848910331726	picture	0		141	248.0	/experiments/knapen_AOT/AOT_stimuli/pictures/0543_fw.png	476.1035029888153	1.1937980651855469
250	318.05169010162354	response	0	j		248.0	/experiments/knapen_AOT/AOT_stimuli/pictures/0543_fw.png	477.27030205726624	
251	318.07868909835815	picture	0		109	249.0	/experiments/knapen_AOT/AOT_stimuli/pictures/0943_fw.png	477.29730105400085	0.9791979789733887
251	318.97666907310486	response	0	k		249.0	/experiments/knapen_AOT/AOT_stimuli/pictures/0943_fw.png	478.19528102874756	
252	319.05788707733154	picture	0		107	250.0	/experiments/knapen_AOT/AOT_stimuli/pictures/0687_fw.png	478.27649903297424	1.0102579593658447
252	319.93659710884094	response	0	k		250.0	/experiments/knapen_AOT/AOT_stimuli/pictures/0687_fw.png	479.15520906448364	
253	320.0681450366974	picture	0		123	251.0	/experiments/knapen_AOT/AOT_stimuli/pictures/1115_fw.png	479.2867569923401	1.083385944366455
253	321.085098028183	response	0	j		251.0	/experiments/knapen_AOT/AOT_stimuli/pictures/1115_fw.png	480.3037099838257	
254	321.15153098106384	picture	0		96	252.0	/experiments/knapen_AOT/AOT_stimuli/pictures/0169_fw.png	480.37014293670654	0.8416368961334229
254	321.9365940093994	response	0	j		252.0	/experiments/knapen_AOT/AOT_stimuli/pictures/0169_fw.png	481.1552059650421	
255	321.99316787719727	picture	0		118	253.0	/experiments/knapen_AOT/AOT_stimuli/pictures/1351_fw.png	481.21177983283997	1.0092620849609375
255	322.96826791763306	response	0	k		253.0	/experiments/knapen_AOT/AOT_stimuli/pictures/1351_fw.png	482.18687987327576	
256	323.0024299621582	picture	0		97	254.0	/experiments/knapen_AOT/AOT_stimuli/pictures/0528_fw.png	482.2210419178009	0.8491101264953613
256	323.80178689956665	response	0	j		254.0	/experiments/knapen_AOT/AOT_stimuli/pictures/0528_fw.png	483.02039885520935	
257	323.85154008865356	picture	0		322	255.0	/experiments/knapen_AOT/AOT_stimuli/pictures/0616_fw.png	483.07015204429626	2.733350992202759
257	326.5268440246582	response	0	k		255.0	/experiments/knapen_AOT/AOT_stimuli/pictures/0616_fw.png	485.7454559803009	
258	326.5848910808563	picture	0		147	256.0	/experiments/knapen_AOT/AOT_stimuli/pictures/0126_fw.png	485.803503036499	1.2583448886871338
258	327.80186104774475	response	0	k		256.0	/experiments/knapen_AOT/AOT_stimuli/pictures/0126_fw.png	487.02047300338745	
259	327.84323596954346	picture	0		108	257.0	/experiments/knapen_AOT/AOT_stimuli/pictures/1055_fw.png	487.06184792518616	0.9369380474090576
259	328.7284700870514	response	0	j		257.0	/experiments/knapen_AOT/AOT_stimuli/pictures/1055_fw.png	487.9470820426941	
260	328.7801740169525	picture	0		93	258.0	/experiments/knapen_AOT/AOT_stimuli/pictures/0105_fw.png	487.9987859725952	0.8055410385131836
260	329.5367319583893	response	0	j		258.0	/experiments/knapen_AOT/AOT_stimuli/pictures/0105_fw.png	488.755343914032	
261	329.5857150554657	picture	0		122	259.0	/experiments/knapen_AOT/AOT_stimuli/pictures/1287_fw.png	488.8043270111084	1.0492229461669922
261	330.5934410095215	response	0	j		259.0	/experiments/knapen_AOT/AOT_stimuli/pictures/1287_fw.png	489.8120529651642	
262	330.6349380016327	picture	0		116	260.0	/experiments/knapen_AOT/AOT_stimuli/pictures/1983_fw.png	489.8535499572754	0.9855198860168457
262	331.59342908859253	response	0	j		260.0	/experiments/knapen_AOT/AOT_stimuli/pictures/1983_fw.png	490.81204104423523	
263	331.62045788764954	picture	0		282	261.0	/experiments/knapen_AOT/AOT_stimuli/pictures/2067_fw.png	490.83906984329224	2.4097471237182617
263	333.9535300731659	response	0	j		261.0	/experiments/knapen_AOT/AOT_stimuli/pictures/2067_fw.png	493.1721420288086	
264	334.0302050113678	picture	0		89	262.0	/experiments/knapen_AOT/AOT_stimuli/pictures/0431_fw.png	493.2488169670105	0.7638909816741943
264	334.753653049469	response	0	j		262.0	/experiments/knapen_AOT/AOT_stimuli/pictures/0431_fw.png	493.9722650051117	
265	334.794095993042	picture	0		113	263.0	/experiments/knapen_AOT/AOT_stimuli/pictures/1635_fw.png	494.0127079486847	0.9514009952545166
265	335.7269330024719	response	0	j		263.0	/experiments/knapen_AOT/AOT_stimuli/pictures/1635_fw.png	494.9455449581146	
266	335.7454969882965	picture	0		124	264.0	/experiments/knapen_AOT/AOT_stimuli/pictures/2134_fw.png	494.9641089439392	1.0486400127410889
266	336.7685589790344	response	0	k		264.0	/experiments/knapen_AOT/AOT_stimuli/pictures/2134_fw.png	495.9871709346771	
267	336.7941370010376	picture	0		561	265.0	/experiments/knapen_AOT/AOT_stimuli/pictures/1932_fw.png	496.0127489566803	4.724294900894165
267	341.4603888988495	response	0	k		265.0	/experiments/knapen_AOT/AOT_stimuli/pictures/1932_fw.png	500.6790008544922	
268	341.51843190193176	picture	0		96	266.0	/experiments/knapen_AOT/AOT_stimuli/pictures/1633_fw.png	500.73704385757446	0.8174011707305908
268	342.3102459907532	response	0	j		266.0	/experiments/knapen_AOT/AOT_stimuli/pictures/1633_fw.png	501.5288579463959	
269	342.33583307266235	picture	0		100	267.0	/experiments/knapen_AOT/AOT_stimuli/pictures/0354_fw.png	501.55444502830505	0.9493238925933838
269	343.1535909175873	response	0	k		267.0	/experiments/knapen_AOT/AOT_stimuli/pictures/0354_fw.png	502.37220287323	
270	343.28515696525574	picture	0		170	268.0	/experiments/knapen_AOT/AOT_stimuli/pictures/1949_fw.png	502.50376892089844	1.4332969188690186
270	344.6936230659485	response	0	j		268.0	/experiments/knapen_AOT/AOT_stimuli/pictures/1949_fw.png	503.9122350215912	
271	344.71845388412476	picture	0		97	269.0	/experiments/knapen_AOT/AOT_stimuli/pictures/0953_fw.png	503.93706583976746	0.8334782123565674
271	345.51864409446716	response	0	j		269.0	/experiments/knapen_AOT/AOT_stimuli/pictures/0953_fw.png	504.73725605010986	
272	345.5519320964813	picture	0		149	270.0	/experiments/knapen_AOT/AOT_stimuli/pictures/1867_fw.png	504.770544052124	1.4020040035247803
272	346.78532099723816	response	0	j		270.0	/experiments/knapen_AOT/AOT_stimuli/pictures/1867_fw.png	506.00393295288086	
273	346.9539361000061	picture	0		107	271.0	/experiments/knapen_AOT/AOT_stimuli/pictures/1224_fw.png	506.1725480556488	0.9895539283752441
273	347.83545994758606	response	0	k		271.0	/experiments/knapen_AOT/AOT_stimuli/pictures/1224_fw.png	507.05407190322876	
274	347.94349002838135	picture	0		109	272.0	/experiments/knapen_AOT/AOT_stimuli/pictures/0355_fw.png	507.16210198402405	0.9201788902282715
274	348.8437280654907	response	0	k		272.0	/experiments/knapen_AOT/AOT_stimuli/pictures/0355_fw.png	508.0623400211334	
275	348.8636689186096	picture	0		119	273.0	/experiments/knapen_AOT/AOT_stimuli/pictures/2055_fw.png	508.0822808742523	1.0298810005187988
275	349.8437659740448	response	0	k		273.0	/experiments/knapen_AOT/AOT_stimuli/pictures/2055_fw.png	509.0623779296875	
276	349.8935499191284	picture	0		125	274.0	/experiments/knapen_AOT/AOT_stimuli/pictures/1727_fw.png	509.1121618747711	1.102051019668579
276	350.92715311050415	response	0	j		274.0	/experiments/knapen_AOT/AOT_stimuli/pictures/1727_fw.png	510.14576506614685	
277	350.995600938797	picture	0		127	275.0	/experiments/knapen_AOT/AOT_stimuli/pictures/0365_fw.png	510.2142128944397	1.1250090599060059
277	352.0445020198822	response	0	j		275.0	/experiments/knapen_AOT/AOT_stimuli/pictures/0365_fw.png	511.2631139755249	
278	352.120609998703	picture	0		120	276.0	/experiments/knapen_AOT/AOT_stimuli/pictures/1053_fw.png	511.3392219543457	1.3813118934631348
278	353.11043906211853	response	0	k		276.0	/experiments/knapen_AOT/AOT_stimuli/pictures/1053_fw.png	512.3290510177612	
279	353.50192189216614	picture	0		105	277.0	/experiments/knapen_AOT/AOT_stimuli/pictures/1219_fw.png	512.7205338478088	0.9250431060791016
279	354.3620460033417	response	0	k		277.0	/experiments/knapen_AOT/AOT_stimuli/pictures/1219_fw.png	513.5806579589844	
280	354.42696499824524	picture	0		105	278.0	/experiments/knapen_AOT/AOT_stimuli/pictures/1889_fw.png	513.6455769538879	0.9000000953674316
280	355.29448795318604	response	0	j		278.0	/experiments/knapen_AOT/AOT_stimuli/pictures/1889_fw.png	514.5130999088287	
281	355.32696509361267	picture	0		131	279.0	/experiments/knapen_AOT/AOT_stimuli/pictures/1023_fw.png	514.5455770492554	1.1201097965240479
281	356.4105429649353	response	0	k		279.0	/experiments/knapen_AOT/AOT_stimuli/pictures/1023_fw.png	515.629154920578	
282	356.4470748901367	picture	0		93	280.0	/experiments/knapen_AOT/AOT_stimuli/pictures/0876_fw.png	515.6656868457794	0.7965741157531738
282	357.21061992645264	response	0	k		280.0	/experiments/knapen_AOT/AOT_stimuli/pictures/0876_fw.png	516.4292318820953	
283	357.2436490058899	picture	0		100	281.0	/experiments/knapen_AOT/AOT_stimuli/pictures/0780_fw.png	516.4622609615326	0.8583290576934814
283	358.06880807876587	response	0	k		281.0	/experiments/knapen_AOT/AOT_stimuli/pictures/0780_fw.png	517.2874200344086	
284	358.1019780635834	picture	0		122	282.0	/experiments/knapen_AOT/AOT_stimuli/pictures/0470_fw.png	517.3205900192261	1.0416829586029053
284	359.1105799674988	response	0	j		282.0	/experiments/knapen_AOT/AOT_stimuli/pictures/0470_fw.png	518.3291919231415	
285	359.1436610221863	picture	0		152	283.0	/experiments/knapen_AOT/AOT_stimuli/pictures/1565_fw.png	518.362272977829	1.2757620811462402
285	360.4021260738373	response	0	k		283.0	/experiments/knapen_AOT/AOT_stimuli/pictures/1565_fw.png	519.62073802948	
286	360.4194231033325	picture	0		115	284.0	/experiments/knapen_AOT/AOT_stimuli/pictures/0222_fw.png	519.6380350589752	0.9742748737335205
286	361.36206889152527	response	0	j		284.0	/experiments/knapen_AOT/AOT_stimuli/pictures/0222_fw.png	520.580680847168	
287	361.39369797706604	picture	0		94	285.0	/experiments/knapen_AOT/AOT_stimuli/pictures/0349_fw.png	520.6123099327087	0.7999999523162842
287	362.1695671081543	response	0	k		285.0	/experiments/knapen_AOT/AOT_stimuli/pictures/0349_fw.png	521.388179063797	
288	362.1936979293823	picture	0		95	286.0	/experiments/knapen_AOT/AOT_stimuli/pictures/1426_fw.png	521.412309885025	0.8367559909820557
288	362.9771559238434	response	0	j		286.0	/experiments/knapen_AOT/AOT_stimuli/pictures/1426_fw.png	522.1957678794861	
289	363.0304539203644	picture	0		114	287.0	/experiments/knapen_AOT/AOT_stimuli/pictures/0242_fw.png	522.2490658760071	0.9722561836242676
289	363.9689691066742	response	0	j		287.0	/experiments/knapen_AOT/AOT_stimuli/pictures/0242_fw.png	523.1875810623169	
290	364.00271010398865	picture	0		99	288.0	/experiments/knapen_AOT/AOT_stimuli/pictures/0444_fw.png	523.2213220596313	0.8610939979553223
290	364.81896710395813	response	0	k		288.0	/experiments/knapen_AOT/AOT_stimuli/pictures/0444_fw.png	524.0375790596008	
291	364.86380410194397	picture	0		107	289.0	/experiments/knapen_AOT/AOT_stimuli/pictures/1175_fw.png	524.0824160575867	0.9216179847717285
291	365.7372589111328	response	0	k		289.0	/experiments/knapen_AOT/AOT_stimuli/pictures/1175_fw.png	524.9558708667755	
292	365.7854220867157	picture	0		95	290.0	/experiments/knapen_AOT/AOT_stimuli/pictures/1672_fw.png	525.0040340423584	0.8283698558807373
292	366.56893610954285	response	0	k		290.0	/experiments/knapen_AOT/AOT_stimuli/pictures/1672_fw.png	525.7875480651855	
293	366.61379194259644	picture	0		1858	291.0	/experiments/knapen_AOT/AOT_stimuli/pictures/0201_fw.png	525.8324038982391	15.505214929580688
293	382.08625888824463	response	0	k		291.0	/experiments/knapen_AOT/AOT_stimuli/pictures/0201_fw.png	541.3048708438873	
294	382.1190068721771	picture	0		98	292.0	/experiments/knapen_AOT/AOT_stimuli/pictures/1304_fw.png	541.3376188278198	0.8837900161743164
294	382.9213960170746	response	0	k		292.0	/experiments/knapen_AOT/AOT_stimuli/pictures/1304_fw.png	542.1400079727173	
295	383.00279688835144	picture	0		112	293.0	/experiments/knapen_AOT/AOT_stimuli/pictures/0824_fw.png	542.2214088439941	1.0336861610412598
295	383.92147493362427	response	0	j		293.0	/experiments/knapen_AOT/AOT_stimuli/pictures/0824_fw.png	543.140086889267	
296	384.0364830493927	picture	0		106	294.0	/experiments/knapen_AOT/AOT_stimuli/pictures/0366_fw.png	543.2550950050354	1.0080218315124512
296	384.9359390735626	response	0	k		294.0	/experiments/knapen_AOT/AOT_stimuli/pictures/0366_fw.png	544.1545510292053	
297	385.04450488090515	picture	0		142	295.0	/experiments/knapen_AOT/AOT_stimuli/pictures/0930_fw.png	544.2631168365479	1.2501380443572998
297	386.2192130088806	response	0	j		295.0	/experiments/knapen_AOT/AOT_stimuli/pictures/0930_fw.png	545.4378249645233	
298	386.29464292526245	picture	0		124	296.0	/experiments/knapen_AOT/AOT_stimuli/pictures/0307_fw.png	545.5132548809052	1.0970921516418457
298	387.3192660808563	response	0	k		296.0	/experiments/knapen_AOT/AOT_stimuli/pictures/0307_fw.png	546.537878036499	
299	387.3917350769043	picture	0		102	297.0	/experiments/knapen_AOT/AOT_stimuli/pictures/0495_fw.png	546.610347032547	0.8958868980407715
299	388.2359869480133	response	0	k		297.0	/experiments/knapen_AOT/AOT_stimuli/pictures/0495_fw.png	547.454598903656	
300	388.28762197494507	picture	0		385	298.0	/experiments/knapen_AOT/AOT_stimuli/pictures/1617_fw.png	547.5062339305878	3.231450080871582
300	391.4860830307007	response	0	j		298.0	/experiments/knapen_AOT/AOT_stimuli/pictures/1617_fw.png	550.7046949863434	
301	391.51907205581665	picture	0		91	299.0	/experiments/knapen_AOT/AOT_stimuli/pictures/1883_fw.png	550.7376840114594	0.7755048274993896
301	392.26925110816956	response	0	j		299.0	/experiments/knapen_AOT/AOT_stimuli/pictures/1883_fw.png	551.4878630638123	
302	392.29457688331604	picture	0		99	300.0	/experiments/knapen_AOT/AOT_stimuli/pictures/1797_fw.png	551.5131888389587	0.8680591583251953
302	393.1109809875488	response	0	k		300.0	/experiments/knapen_AOT/AOT_stimuli/pictures/1797_fw.png	552.3295929431915	
303	393.16263604164124	picture	0		97	301.0	/experiments/knapen_AOT/AOT_stimuli/pictures/1810_fw.png	552.3812479972839	0.8397970199584961
303	393.9613239765167	response	0	k		301.0	/experiments/knapen_AOT/AOT_stimuli/pictures/1810_fw.png	553.1799359321594	
304	394.00243306159973	picture	0		103	302.0	/experiments/knapen_AOT/AOT_stimuli/pictures/0580_fw.png	553.2210450172424	0.8754968643188477
304	394.85263299942017	response	0	k		302.0	/experiments/knapen_AOT/AOT_stimuli/pictures/0580_fw.png	554.0712449550629	
305	394.8779299259186	picture	0		89	303.0	/experiments/knapen_AOT/AOT_stimuli/pictures/1809_fw.png	554.0965418815613	0.7708420753479004
305	395.6110670566559	response	0	j		303.0	/experiments/knapen_AOT/AOT_stimuli/pictures/1809_fw.png	554.8296790122986	
306	395.6487720012665	picture	0		422	304.0	/experiments/knapen_AOT/AOT_stimuli/pictures/1111_fw.png	554.8673839569092	3.57041597366333
306	399.1541759967804	response	0	k		304.0	/experiments/knapen_AOT/AOT_stimuli/pictures/1111_fw.png	558.3727879524231	
307	399.2191879749298	picture	0		92	305.0	/experiments/knapen_AOT/AOT_stimuli/pictures/1786_fw.png	558.4377999305725	0.776806116104126
307	399.9776260852814	response	0	k		305.0	/experiments/knapen_AOT/AOT_stimuli/pictures/1786_fw.png	559.1962380409241	
308	399.99599409103394	picture	0		143	306.0	/experiments/knapen_AOT/AOT_stimuli/pictures/0033_fw.png	559.2146060466766	1.208333969116211
308	401.1776990890503	response	0	j		306.0	/experiments/knapen_AOT/AOT_stimuli/pictures/0033_fw.png	560.396311044693	
309	401.20432806015015	picture	0		129	307.0	/experiments/knapen_AOT/AOT_stimuli/pictures/1856_fw.png	560.4229400157928	1.0904300212860107
309	402.2695369720459	response	0	j		307.0	/experiments/knapen_AOT/AOT_stimuli/pictures/1856_fw.png	561.4881489276886	
310	402.29475808143616	picture	0		121	308.0	/experiments/knapen_AOT/AOT_stimuli/pictures/2079_fw.png	561.5133700370789	1.0327849388122559
310	403.2948389053345	response	0	k		308.0	/experiments/knapen_AOT/AOT_stimuli/pictures/2079_fw.png	562.5134508609772	
311	403.3275430202484	picture	0		418	309.0	/experiments/knapen_AOT/AOT_stimuli/pictures/1220_fw.png	562.5461549758911	3.5167360305786133
311	406.80278396606445	response	0	k		309.0	/experiments/knapen_AOT/AOT_stimuli/pictures/1220_fw.png	566.0213959217072	
312	406.844279050827	picture	0		141	310.0	/experiments/knapen_AOT/AOT_stimuli/pictures/0641_fw.png	566.0628910064697	1.1865339279174805
312	408.01114106178284	response	0	k		310.0	/experiments/knapen_AOT/AOT_stimuli/pictures/0641_fw.png	567.2297530174255	
313	408.0308129787445	picture	0		105	311.0	/experiments/knapen_AOT/AOT_stimuli/pictures/1759_fw.png	567.2494249343872	0.8968169689178467
313	408.8945620059967	response	0	k		311.0	/experiments/knapen_AOT/AOT_stimuli/pictures/1759_fw.png	568.1131739616394	
314	408.92762994766235	picture	0		160	312.0	/experiments/knapen_AOT/AOT_stimuli/pictures/2141_fw.png	568.146241903305	1.367077112197876
314	410.2532150745392	response	0	k		312.0	/experiments/knapen_AOT/AOT_stimuli/pictures/2141_fw.png	569.4718270301819	
315	410.29470705986023	picture	0		96	313.0	/experiments/knapen_AOT/AOT_stimuli/pictures/0197_fw.png	569.5133190155029	0.8194329738616943
315	411.086669921875	response	0	j		313.0	/experiments/knapen_AOT/AOT_stimuli/pictures/0197_fw.png	570.3052818775177	
316	411.1141400337219	picture	0		115	314.0	/experiments/knapen_AOT/AOT_stimuli/pictures/0603_fw.png	570.3327519893646	0.988537073135376
316	412.0612680912018	response	0	j		314.0	/experiments/knapen_AOT/AOT_stimuli/pictures/0603_fw.png	571.2798800468445	
317	412.1026771068573	picture	0		153	315.0	/experiments/knapen_AOT/AOT_stimuli/pictures/1969_fw.png	571.3212890625	1.3379528522491455
317	413.3628010749817	response	0	k		315.0	/experiments/knapen_AOT/AOT_stimuli/pictures/1969_fw.png	572.5814130306244	
318	413.44062995910645	picture	0		920	316.0	/experiments/knapen_AOT/AOT_stimuli/pictures/0344_fw.png	572.6592419147491	7.715281009674072
318	421.09471702575684	response	0	j		316.0	/experiments/knapen_AOT/AOT_stimuli/pictures/0344_fw.png	580.3133289813995	
319	421.1559109687805	picture	0		123	317.0	/experiments/knapen_AOT/AOT_stimuli/pictures/0848_fw.png	580.3745229244232	1.0635900497436523
319	422.16290807724	response	0	k		317.0	/experiments/knapen_AOT/AOT_stimuli/pictures/0848_fw.png	581.3815200328827	
320	422.21950101852417	picture	0		523	318.0	/experiments/knapen_AOT/AOT_stimuli/pictures/1977_fw.png	581.4381129741669	4.387848854064941
320	426.56291794776917	response	0	k		318.0	/experiments/knapen_AOT/AOT_stimuli/pictures/1977_fw.png	585.7815299034119	
321	426.6073498725891	picture	0		133	319.0	/experiments/knapen_AOT/AOT_stimuli/pictures/1444_fw.png	585.8259618282318	1.1250081062316895
321	427.70309805870056	response	0	k		319.0	/experiments/knapen_AOT/AOT_stimuli/pictures/1444_fw.png	586.9217100143433	
322	427.7323579788208	picture	0		103	320.0	/experiments/knapen_AOT/AOT_stimuli/pictures/1757_fw.png	586.9509699344635	0.8819379806518555
322	428.5780670642853	response	0	k		320.0	/experiments/knapen_AOT/AOT_stimuli/pictures/1757_fw.png	587.796679019928	
323	428.61429595947266	picture	0		231	321.0	/experiments/knapen_AOT/AOT_stimuli/pictures/1705_fw.png	587.8329079151154	1.9583821296691895
323	430.528146982193	response	0	k		321.0	/experiments/knapen_AOT/AOT_stimuli/pictures/1705_fw.png	589.7467589378357	
324	430.57267808914185	picture	0		108	322.0	/experiments/knapen_AOT/AOT_stimuli/pictures/0436_fw.png	589.7912900447845	0.9167068004608154
324	431.46163296699524	response	0	k		322.0	/experiments/knapen_AOT/AOT_stimuli/pictures/0436_fw.png	590.6802449226379	
325	431.48938488960266	picture	0		95	323.0	/experiments/knapen_AOT/AOT_stimuli/pictures/1845_fw.png	590.7079968452454	0.8302450180053711
325	432.26990389823914	response	0	k		323.0	/experiments/knapen_AOT/AOT_stimuli/pictures/1845_fw.png	591.4885158538818	
326	432.31962990760803	picture	0		160	324.0	/experiments/knapen_AOT/AOT_stimuli/pictures/0830_fw.png	591.5382418632507	1.3666901588439941
326	433.6449420452118	response	0	j		324.0	/experiments/knapen_AOT/AOT_stimuli/pictures/0830_fw.png	592.8635540008545	
327	433.686320066452	picture	0		92	325.0	/experiments/knapen_AOT/AOT_stimuli/pictures/1640_fw.png	592.9049320220947	0.7751998901367188
327	434.4449338912964	response	0	j		325.0	/experiments/knapen_AOT/AOT_stimuli/pictures/1640_fw.png	593.6635458469391	
328	434.46151995658875	picture	0		88	326.0	/experiments/knapen_AOT/AOT_stimuli/pictures/1588_fw.png	593.6801319122314	0.7664461135864258
328	435.18657994270325	response	0	k		326.0	/experiments/knapen_AOT/AOT_stimuli/pictures/1588_fw.png	594.405191898346	
329	435.22796607017517	picture	0		97	327.0	/experiments/knapen_AOT/AOT_stimuli/pictures/1937_fw.png	594.4465780258179	0.8168799877166748
329	436.028146982193	response	0	k		327.0	/experiments/knapen_AOT/AOT_stimuli/pictures/1937_fw.png	595.2467589378357	
330	436.04484605789185	picture	0		158	328.0	/experiments/knapen_AOT/AOT_stimuli/pictures/1925_fw.png	595.2634580135345	1.3681249618530273
330	437.3466010093689	response	0	k		328.0	/experiments/knapen_AOT/AOT_stimuli/pictures/1925_fw.png	596.5652129650116	
331	437.4129710197449	picture	0		151	329.0	/experiments/knapen_AOT/AOT_stimuli/pictures/1903_fw.png	596.6315829753876	1.2986109256744385
331	438.6616199016571	response	0	j		329.0	/experiments/knapen_AOT/AOT_stimuli/pictures/1903_fw.png	597.8802318572998	
332	438.7115819454193	picture	0		90	330.0	/experiments/knapen_AOT/AOT_stimuli/pictures/1212_fw.png	597.930193901062	0.7916510105133057
332	439.4532148838043	response	0	k		330.0	/experiments/knapen_AOT/AOT_stimuli/pictures/1212_fw.png	598.671826839447	
333	439.5032329559326	picture	0		105	331.0	/experiments/knapen_AOT/AOT_stimuli/pictures/0136_fw.png	598.7218449115753	0.9164810180664062
333	440.3630449771881	response	0	k		331.0	/experiments/knapen_AOT/AOT_stimuli/pictures/0136_fw.png	599.5816569328308	
334	440.419713973999	picture	0		122	332.0	/experiments/knapen_AOT/AOT_stimuli/pictures/1152_fw.png	599.6383259296417	1.0500221252441406
334	441.4282109737396	response	0	k		332.0	/experiments/knapen_AOT/AOT_stimuli/pictures/1152_fw.png	600.6468229293823	
335	441.46973609924316	picture	0		79	333.0	/experiments/knapen_AOT/AOT_stimuli/pictures/1607_fw.png	600.6883480548859	0.6724188327789307
335	442.12002301216125	response	0	k		333.0	/experiments/knapen_AOT/AOT_stimuli/pictures/1607_fw.png	601.338634967804	
336	442.1421549320221	picture	0		124	334.0	/experiments/knapen_AOT/AOT_stimuli/pictures/1979_fw.png	601.3607668876648	1.0626220703125
336	443.17010593414307	response	0	k		334.0	/experiments/knapen_AOT/AOT_stimuli/pictures/1979_fw.png	602.3887178897858	
337	443.2047770023346	picture	0		117	335.0	/experiments/knapen_AOT/AOT_stimuli/pictures/2077_fw.png	602.4233889579773	1.041572093963623
337	444.1631729602814	response	0	k		335.0	/experiments/knapen_AOT/AOT_stimuli/pictures/2077_fw.png	603.3817849159241	
338	444.2463490962982	picture	0		446	336.0	/experiments/knapen_AOT/AOT_stimuli/pictures/1765_fw.png	603.4649610519409	3.748483896255493
338	447.9466691017151	response	0	k		336.0	/experiments/knapen_AOT/AOT_stimuli/pictures/1765_fw.png	607.1652810573578	
339	447.9948329925537	picture	0		209	337.0	/experiments/knapen_AOT/AOT_stimuli/pictures/0985_fw.png	607.2134449481964	1.7584741115570068
339	449.72843503952026	response	0	k		337.0	/experiments/knapen_AOT/AOT_stimuli/pictures/0985_fw.png	608.947046995163	
340	449.7533071041107	picture	0		89	338.0	/experiments/knapen_AOT/AOT_stimuli/pictures/1431_fw.png	608.9719190597534	0.7582178115844727
340	450.48675203323364	response	0	k		338.0	/experiments/knapen_AOT/AOT_stimuli/pictures/1431_fw.png	609.7053639888763	
341	450.5115249156952	picture	0		99	339.0	/experiments/knapen_AOT/AOT_stimuli/pictures/2138_fw.png	609.7301368713379	0.9000749588012695
341	451.3283898830414	response	0	k		339.0	/experiments/knapen_AOT/AOT_stimuli/pictures/2138_fw.png	610.5470018386841	
342	451.41159987449646	picture	0		99	340.0	/experiments/knapen_AOT/AOT_stimuli/pictures/2076_fw.png	610.6302118301392	0.9082741737365723
342	452.22841596603394	response	0	k		340.0	/experiments/knapen_AOT/AOT_stimuli/pictures/2076_fw.png	611.4470279216766	
343	452.31987404823303	picture	0		112	341.0	/experiments/knapen_AOT/AOT_stimuli/pictures/0726_fw.png	611.5384860038757	0.9751439094543457
343	453.24531602859497	response	0	k		341.0	/experiments/knapen_AOT/AOT_stimuli/pictures/0726_fw.png	612.4639279842377	
344	453.2950179576874	picture	0		93	342.0	/experiments/knapen_AOT/AOT_stimuli/pictures/1290_fw.png	612.5136299133301	0.8916420936584473
344	454.06179690361023	response	0	k		342.0	/experiments/knapen_AOT/AOT_stimuli/pictures/1290_fw.png	613.2804088592529	
345	454.1866600513458	picture	0		171	343.0	/experiments/knapen_AOT/AOT_stimuli/pictures/1940_fw.png	613.4052720069885	1.4582619667053223
345	455.6034779548645	response	0	j		343.0	/experiments/knapen_AOT/AOT_stimuli/pictures/1940_fw.png	614.8220899105072	
346	455.64492201805115	picture	0		193	344.0	/experiments/knapen_AOT/AOT_stimuli/pictures/1747_fw.png	614.8635339736938	1.641697883605957
346	457.2452220916748	response	0	k		344.0	/experiments/knapen_AOT/AOT_stimuli/pictures/1747_fw.png	616.4638340473175	
347	457.2866199016571	picture	0		85	345.0	/experiments/knapen_AOT/AOT_stimuli/pictures/0762_fw.png	616.5052318572998	0.751521110534668
347	457.9868130683899	response	0	j		345.0	/experiments/knapen_AOT/AOT_stimuli/pictures/0762_fw.png	617.2054250240326	
348	458.0381410121918	picture	0		207	346.0	/experiments/knapen_AOT/AOT_stimuli/pictures/0720_fw.png	617.2567529678345	1.7430388927459717
348	459.746798992157	response	0	k		346.0	/experiments/knapen_AOT/AOT_stimuli/pictures/0720_fw.png	618.9654109477997	
349	459.78117990493774	picture	0		81	347.0	/experiments/knapen_AOT/AOT_stimuli/pictures/1067_fw.png	618.9997918605804	0.6971361637115479
349	460.4452590942383	response	0	k		347.0	/experiments/knapen_AOT/AOT_stimuli/pictures/1067_fw.png	619.663871049881	
350	460.4783160686493	picture	0		96	348.0	/experiments/knapen_AOT/AOT_stimuli/pictures/0787_fw.png	619.696928024292	0.816727876663208
350	461.27025508880615	response	0	k		348.0	/experiments/knapen_AOT/AOT_stimuli/pictures/0787_fw.png	620.4888670444489	
351	461.2950439453125	picture	0		435	349.0	/experiments/knapen_AOT/AOT_stimuli/pictures/0101_fw.png	620.5136559009552	3.6389760971069336
351	464.91194891929626	response	0	j		349.0	/experiments/knapen_AOT/AOT_stimuli/pictures/0101_fw.png	624.130560874939	
352	464.93402004241943	picture	0		330	350.0	/experiments/knapen_AOT/AOT_stimuli/pictures/1369_fw.png	624.1526319980621	2.7860560417175293
352	467.6786799430847	response	0	k		350.0	/experiments/knapen_AOT/AOT_stimuli/pictures/1369_fw.png	626.8972918987274	
353	467.72007608413696	picture	0		83	351.0	/experiments/knapen_AOT/AOT_stimuli/pictures/1658_fw.png	626.9386880397797	0.7000758647918701
353	468.40362191200256	response	0	k		351.0	/experiments/knapen_AOT/AOT_stimuli/pictures/1658_fw.png	627.6222338676453	
354	468.42015194892883	picture	0		255	352.0	/experiments/knapen_AOT/AOT_stimuli/pictures/0081_fw.png	627.6387639045715	2.166684150695801
354	470.5303840637207	response	0	j		352.0	/experiments/knapen_AOT/AOT_stimuli/pictures/0081_fw.png	629.7489960193634	
355	470.58683609962463	picture	0		121	353.0	/experiments/knapen_AOT/AOT_stimuli/pictures/0415_fw.png	629.8054480552673	1.0500259399414062
355	471.5869879722595	response	0	k		353.0	/experiments/knapen_AOT/AOT_stimuli/pictures/0415_fw.png	630.8055999279022	
356	471.63686203956604	picture	0		106	354.0	/experiments/knapen_AOT/AOT_stimuli/pictures/1992_fw.png	630.8554739952087	0.9249558448791504
356	472.5119888782501	response	0	j		354.0	/experiments/knapen_AOT/AOT_stimuli/pictures/1992_fw.png	631.7306008338928	
357	472.5618178844452	picture	0		87	355.0	/experiments/knapen_AOT/AOT_stimuli/pictures/0845_fw.png	631.7804298400879	0.7681519985198975
357	473.2787969112396	response	0	k		355.0	/experiments/knapen_AOT/AOT_stimuli/pictures/0845_fw.png	632.4974088668823	
358	473.3299698829651	picture	0		78	356.0	/experiments/knapen_AOT/AOT_stimuli/pictures/2036_fw.png	632.5485818386078	0.67354416847229
358	473.9702730178833	response	0	k		356.0	/experiments/knapen_AOT/AOT_stimuli/pictures/2036_fw.png	633.188884973526	
359	474.0035140514374	picture	0		98	357.0	/experiments/knapen_AOT/AOT_stimuli/pictures/2035_fw.png	633.2221260070801	0.8472418785095215
359	474.8120539188385	response	0	k		357.0	/experiments/knapen_AOT/AOT_stimuli/pictures/2035_fw.png	634.0306658744812	
360	474.8507559299469	picture	0		89	358.0	/experiments/knapen_AOT/AOT_stimuli/pictures/1668_fw.png	634.0693678855896	0.7708320617675781
360	475.5870668888092	response	0	k		358.0	/experiments/knapen_AOT/AOT_stimuli/pictures/1668_fw.png	634.8056788444519	
361	475.6215879917145	picture	0		93	359.0	/experiments/knapen_AOT/AOT_stimuli/pictures/2175_fw.png	634.8401999473572	0.8403749465942383
361	476.4120469093323	response	0	k		359.0	/experiments/knapen_AOT/AOT_stimuli/pictures/2175_fw.png	635.630658864975	
362	476.4619629383087	stim	0		349			635.6805748939514	2.9305150508880615
362	477.6038100719452	response	0	k				636.8224220275879	
362	479.3622410297394	response	0	space				638.5808529853821	
