trial_nr	onset	event_type	phase	response	nr_frames	picture_index	picture_file	onset_abs	duration
0	0.208204984664917	stim	0		434			110.94306302070618	3.7264440059661865
0	3.8587818145751953	response	0	space				114.59363985061646	
2	3.9346489906311035	picture	0		99	0.0	/experiments/knapen_AOT/AOT_stimuli/pictures/1802_fw.png	114.66950702667236	0.8655169010162354
2	4.757444858551025	response	0	j		0.0	/experiments/knapen_AOT/AOT_stimuli/pictures/1802_fw.png	115.49230289459229	
3	4.800165891647339	picture	0		88	1.0	/experiments/knapen_AOT/AOT_stimuli/pictures/0203_fw.png	115.5350239276886	0.7748091220855713
3	5.525144815444946	response	0	j		1.0	/experiments/knapen_AOT/AOT_stimuli/pictures/0203_fw.png	116.2600028514862	
4	5.57497501373291	picture	0		83	2.0	/experiments/knapen_AOT/AOT_stimuli/pictures/0973_fw.png	116.30983304977417	0.7250299453735352
4	6.258468866348267	response	0	j		2.0	/experiments/knapen_AOT/AOT_stimuli/pictures/0973_fw.png	116.99332690238953	
5	6.300004959106445	picture	0		84	3.0	/experiments/knapen_AOT/AOT_stimuli/pictures/0910_fw.png	117.0348629951477	0.7596490383148193
5	6.991752862930298	response	0	k		3.0	/experiments/knapen_AOT/AOT_stimuli/pictures/0910_fw.png	117.72661089897156	
6	7.059653997421265	picture	0		131	4.0	/experiments/knapen_AOT/AOT_stimuli/pictures/1557_fw.png	117.79451203346252	1.1237390041351318
6	8.134981870651245	response	0	k		4.0	/experiments/knapen_AOT/AOT_stimuli/pictures/1557_fw.png	118.8698399066925	
7	8.183393001556396	picture	0		110	5.0	/experiments/knapen_AOT/AOT_stimuli/pictures/1679_fw.png	118.91825103759766	0.9665899276733398
7	9.091766834259033	response	0	k		5.0	/experiments/knapen_AOT/AOT_stimuli/pictures/1679_fw.png	119.8266248703003	
8	9.149982929229736	picture	0		76	6.0	/experiments/knapen_AOT/AOT_stimuli/pictures/1150_fw.png	119.884840965271	0.6666610240936279
8	9.768285989761353	response	0	j		6.0	/experiments/knapen_AOT/AOT_stimuli/pictures/1150_fw.png	120.50314402580261	
9	9.816643953323364	picture	0		75	7.0	/experiments/knapen_AOT/AOT_stimuli/pictures/2127_fw.png	120.55150198936462	0.6750888824462891
9	10.433482885360718	response	0	j		7.0	/experiments/knapen_AOT/AOT_stimuli/pictures/2127_fw.png	121.16834092140198	
10	10.491732835769653	picture	0		76	8.0	/experiments/knapen_AOT/AOT_stimuli/pictures/0800_fw.png	121.22659087181091	0.692946195602417
10	11.116814851760864	response	0	j		8.0	/experiments/knapen_AOT/AOT_stimuli/pictures/0800_fw.png	121.85167288780212	
11	11.18467903137207	picture	0		118	9.0	/experiments/knapen_AOT/AOT_stimuli/pictures/0348_fw.png	121.91953706741333	1.0320630073547363
11	12.151904821395874	response	0	j		9.0	/experiments/knapen_AOT/AOT_stimuli/pictures/0348_fw.png	122.88676285743713	
12	12.216742038726807	picture	0		108	10.0	/experiments/knapen_AOT/AOT_stimuli/pictures/2131_fw.png	122.95160007476807	0.9262948036193848
12	13.108497858047485	response	0	j		10.0	/experiments/knapen_AOT/AOT_stimuli/pictures/2131_fw.png	123.84335589408875	
13	13.143036842346191	picture	0		135	11.0	/experiments/knapen_AOT/AOT_stimuli/pictures/1140_fw.png	123.87789487838745	1.182037115097046
13	14.25853681564331	response	0	j		11.0	/experiments/knapen_AOT/AOT_stimuli/pictures/1140_fw.png	124.99339485168457	
14	14.325073957443237	picture	0		113	12.0	/experiments/knapen_AOT/AOT_stimuli/pictures/0273_fw.png	125.0599319934845	0.9833228588104248
14	15.258539915084839	response	0	j		12.0	/experiments/knapen_AOT/AOT_stimuli/pictures/0273_fw.png	125.9933979511261	
15	15.308396816253662	picture	0		90	13.0	/experiments/knapen_AOT/AOT_stimuli/pictures/0466_fw.png	126.04325485229492	0.7791202068328857
15	16.050253868103027	response	0	k		13.0	/experiments/knapen_AOT/AOT_stimuli/pictures/0466_fw.png	126.78511190414429	
16	16.087517023086548	picture	0		168	14.0	/experiments/knapen_AOT/AOT_stimuli/pictures/1475_fw.png	126.82237505912781	1.4292988777160645
16	17.475284814834595	response	0	k		14.0	/experiments/knapen_AOT/AOT_stimuli/pictures/1475_fw.png	128.21014285087585	
17	17.516815900802612	picture	0		80	15.0	/experiments/knapen_AOT/AOT_stimuli/pictures/0019_fw.png	128.25167393684387	0.6999819278717041
17	18.17525601387024	response	0	j		15.0	/experiments/knapen_AOT/AOT_stimuli/pictures/0019_fw.png	128.9101140499115	
18	18.216797828674316	picture	0		84	16.0	/experiments/knapen_AOT/AOT_stimuli/pictures/0123_fw.png	128.95165586471558	0.733349084854126
18	18.90864086151123	response	0	j		16.0	/experiments/knapen_AOT/AOT_stimuli/pictures/0123_fw.png	129.6434988975525	
19	18.950146913528442	picture	0		92	17.0	/experiments/knapen_AOT/AOT_stimuli/pictures/1840_fw.png	129.6850049495697	0.8000380992889404
19	19.70857000350952	response	0	k		17.0	/experiments/knapen_AOT/AOT_stimuli/pictures/1840_fw.png	130.44342803955078	
20	19.750185012817383	picture	0		137	18.0	/experiments/knapen_AOT/AOT_stimuli/pictures/1584_fw.png	130.48504304885864	1.1708040237426758
20	20.88358497619629	response	0	j		18.0	/experiments/knapen_AOT/AOT_stimuli/pictures/1584_fw.png	131.61844301223755	
21	20.92098903656006	picture	0		90	19.0	/experiments/knapen_AOT/AOT_stimuli/pictures/0844_fw.png	131.65584707260132	0.77081298828125
21	21.65862488746643	response	0	j		19.0	/experiments/knapen_AOT/AOT_stimuli/pictures/0844_fw.png	132.3934829235077	
22	21.69180202484131	picture	0		74	20.0	/experiments/knapen_AOT/AOT_stimuli/pictures/1600_fw.png	132.42666006088257	0.7251338958740234
22	22.300285816192627	response	0	j		20.0	/experiments/knapen_AOT/AOT_stimuli/pictures/1600_fw.png	133.0351438522339	
23	22.416935920715332	picture	0		108	21.0	/experiments/knapen_AOT/AOT_stimuli/pictures/2102_fw.png	133.1517939567566	0.9415440559387207
23	23.308637857437134	response	0	k		21.0	/experiments/knapen_AOT/AOT_stimuli/pictures/2102_fw.png	134.0434958934784	
24	23.358479976654053	picture	0		83	22.0	/experiments/knapen_AOT/AOT_stimuli/pictures/0763_fw.png	134.0933380126953	0.7584788799285889
24	24.041985988616943	response	0	j		22.0	/experiments/knapen_AOT/AOT_stimuli/pictures/0763_fw.png	134.7768440246582	
25	24.11695885658264	picture	0		176	23.0	/experiments/knapen_AOT/AOT_stimuli/pictures/1028_fw.png	134.8518168926239	1.4999170303344727
25	25.575472831726074	response	0	k		23.0	/experiments/knapen_AOT/AOT_stimuli/pictures/1028_fw.png	136.31033086776733	
26	25.616875886917114	picture	0		171	24.0	/experiments/knapen_AOT/AOT_stimuli/pictures/0651_fw.png	136.35173392295837	1.4916679859161377
26	27.033747911453247	response	0	k		24.0	/experiments/knapen_AOT/AOT_stimuli/pictures/0651_fw.png	137.7686059474945	
27	27.108543872833252	picture	0		182	25.0	/experiments/knapen_AOT/AOT_stimuli/pictures/1117_fw.png	137.8434019088745	1.550110101699829
27	28.617172956466675	response	0	k		25.0	/experiments/knapen_AOT/AOT_stimuli/pictures/1117_fw.png	139.35203099250793	
28	28.65865397453308	picture	0		103	26.0	/experiments/knapen_AOT/AOT_stimuli/pictures/0459_fw.png	139.39351201057434	0.9082670211791992
28	29.508689880371094	response	0	j		26.0	/experiments/knapen_AOT/AOT_stimuli/pictures/0459_fw.png	140.24354791641235	
29	29.56692099571228	picture	0		81	27.0	/experiments/knapen_AOT/AOT_stimuli/pictures/1698_fw.png	140.30177903175354	0.7250759601593018
29	30.233716011047363	response	0	j		27.0	/experiments/knapen_AOT/AOT_stimuli/pictures/1698_fw.png	140.96857404708862	
30	30.291996955871582	picture	0		75	28.0	/experiments/knapen_AOT/AOT_stimuli/pictures/0165_fw.png	141.02685499191284	0.6665940284729004
30	30.908746004104614	response	0	j		28.0	/experiments/knapen_AOT/AOT_stimuli/pictures/0165_fw.png	141.64360404014587	
31	30.958590984344482	picture	0		83	29.0	/experiments/knapen_AOT/AOT_stimuli/pictures/1894_fw.png	141.69344902038574	0.7250468730926514
31	31.64213490486145	response	0	k		29.0	/experiments/knapen_AOT/AOT_stimuli/pictures/1894_fw.png	142.3769929409027	
32	31.683637857437134	picture	0		92	30.0	/experiments/knapen_AOT/AOT_stimuli/pictures/1898_fw.png	142.4184958934784	0.7928850650787354
32	32.44208598136902	response	0	j		30.0	/experiments/knapen_AOT/AOT_stimuli/pictures/1898_fw.png	143.17694401741028	
33	32.47652292251587	picture	0		157	31.0	/experiments/knapen_AOT/AOT_stimuli/pictures/0077_fw.png	143.21138095855713	1.3487870693206787
33	33.77543497085571	response	0	k		31.0	/experiments/knapen_AOT/AOT_stimuli/pictures/0077_fw.png	144.51029300689697	
34	33.82530999183655	picture	0		117	32.0	/experiments/knapen_AOT/AOT_stimuli/pictures/1334_fw.png	144.5601680278778	1.01932692527771
34	34.792125940322876	response	0	k		32.0	/experiments/knapen_AOT/AOT_stimuli/pictures/1334_fw.png	145.52698397636414	
35	34.84463691711426	picture	0		69	33.0	/experiments/knapen_AOT/AOT_stimuli/pictures/1261_fw.png	145.57949495315552	0.6057131290435791
35	35.40878391265869	response	0	j		33.0	/experiments/knapen_AOT/AOT_stimuli/pictures/1261_fw.png	146.14364194869995	
36	35.45035004615784	picture	0		85	34.0	/experiments/knapen_AOT/AOT_stimuli/pictures/1215_fw.png	146.1852080821991	0.7345499992370605
36	36.143741846084595	response	0	j		34.0	/experiments/knapen_AOT/AOT_stimuli/pictures/1215_fw.png	146.87859988212585	
37	36.1849000453949	picture	0		72	35.0	/experiments/knapen_AOT/AOT_stimuli/pictures/0089_fw.png	146.91975808143616	0.625114917755127
37	36.77547287940979	response	0	j		35.0	/experiments/knapen_AOT/AOT_stimuli/pictures/0089_fw.png	147.51033091545105	
38	36.810014963150024	picture	0		80	36.0	/experiments/knapen_AOT/AOT_stimuli/pictures/0816_fw.png	147.54487299919128	0.848707914352417
38	37.46723198890686	response	0	j		36.0	/experiments/knapen_AOT/AOT_stimuli/pictures/0816_fw.png	148.20209002494812	
39	37.65872287750244	picture	0		104	37.0	/experiments/knapen_AOT/AOT_stimuli/pictures/0738_fw.png	148.3935809135437	0.9584970474243164
39	38.51731896400452	response	0	k		37.0	/experiments/knapen_AOT/AOT_stimuli/pictures/0738_fw.png	149.25217700004578	
40	38.61721992492676	picture	0		128	38.0	/experiments/knapen_AOT/AOT_stimuli/pictures/0332_fw.png	149.35207796096802	1.1024279594421387
40	39.67554497718811	response	0	j		38.0	/experiments/knapen_AOT/AOT_stimuli/pictures/0332_fw.png	150.41040301322937	
41	39.7196478843689	picture	0		129	39.0	/experiments/knapen_AOT/AOT_stimuli/pictures/1624_fw.png	150.45450592041016	1.11409592628479
41	40.78386092185974	response	0	j		39.0	/experiments/knapen_AOT/AOT_stimuli/pictures/1624_fw.png	151.518718957901	
42	40.83374381065369	picture	0		72	40.0	/experiments/knapen_AOT/AOT_stimuli/pictures/1494_fw.png	151.56860184669495	0.6333861351013184
42	41.42555594444275	response	0	j		40.0	/experiments/knapen_AOT/AOT_stimuli/pictures/1494_fw.png	152.160413980484	
43	41.467129945755005	picture	0		72	41.0	/experiments/knapen_AOT/AOT_stimuli/pictures/2084_fw.png	152.20198798179626	0.6667048931121826
43	42.05888295173645	response	0	j		41.0	/experiments/knapen_AOT/AOT_stimuli/pictures/2084_fw.png	152.7937409877777	
44	42.13383483886719	picture	0		136	42.0	/experiments/knapen_AOT/AOT_stimuli/pictures/1414_fw.png	152.86869287490845	1.2166211605072021
44	43.258960008621216	response	0	j		42.0	/experiments/knapen_AOT/AOT_stimuli/pictures/1414_fw.png	153.99381804466248	
45	43.35045599937439	picture	0		76	43.0	/experiments/knapen_AOT/AOT_stimuli/pictures/1349_fw.png	154.08531403541565	0.6749818325042725
45	43.96878099441528	response	0	j		43.0	/experiments/knapen_AOT/AOT_stimuli/pictures/1349_fw.png	154.70363903045654	
46	44.02543783187866	picture	0		105	44.0	/experiments/knapen_AOT/AOT_stimuli/pictures/1764_fw.png	154.76029586791992	0.908390998840332
46	44.89225792884827	response	0	j		44.0	/experiments/knapen_AOT/AOT_stimuli/pictures/1764_fw.png	155.62711596488953	
47	44.933828830718994	picture	0		98	45.0	/experiments/knapen_AOT/AOT_stimuli/pictures/2117_fw.png	155.66868686676025	0.883289098739624
47	45.742424964904785	response	0	k		45.0	/experiments/knapen_AOT/AOT_stimuli/pictures/2117_fw.png	156.47728300094604	
48	45.81711792945862	picture	0		89	46.0	/experiments/knapen_AOT/AOT_stimuli/pictures/0242_fw.png	156.55197596549988	0.7917079925537109
48	46.544301986694336	response	0	j		46.0	/experiments/knapen_AOT/AOT_stimuli/pictures/0242_fw.png	157.2791600227356	
49	46.60882592201233	picture	0		193	47.0	/experiments/knapen_AOT/AOT_stimuli/pictures/0305_fw.png	157.3436839580536	1.791666030883789
49	48.20900893211365	response	0	k		47.0	/experiments/knapen_AOT/AOT_stimuli/pictures/0305_fw.png	158.9438669681549	
50	48.40049195289612	picture	0		100	48.0	/experiments/knapen_AOT/AOT_stimuli/pictures/0828_fw.png	159.13534998893738	0.8609049320220947
50	49.225642919540405	response	0	k		48.0	/experiments/knapen_AOT/AOT_stimuli/pictures/0828_fw.png	159.96050095558167	
51	49.26139688491821	picture	0		116	49.0	/experiments/knapen_AOT/AOT_stimuli/pictures/0013_fw.png	159.99625492095947	0.9975111484527588
51	50.21740198135376	response	0	j		49.0	/experiments/knapen_AOT/AOT_stimuli/pictures/0013_fw.png	160.95226001739502	
52	50.25890803337097	picture	0		120	50.0	/experiments/knapen_AOT/AOT_stimuli/pictures/1993_fw.png	160.99376606941223	1.037282943725586
52	51.25065898895264	response	0	k		50.0	/experiments/knapen_AOT/AOT_stimuli/pictures/1993_fw.png	161.9855170249939	
53	51.29619097709656	picture	0		162	51.0	/experiments/knapen_AOT/AOT_stimuli/pictures/0901_fw.png	162.03104901313782	1.388869047164917
53	52.634161949157715	response	0	k		51.0	/experiments/knapen_AOT/AOT_stimuli/pictures/0901_fw.png	163.36901998519897	
54	52.685060024261475	picture	0		133	52.0	/experiments/knapen_AOT/AOT_stimuli/pictures/1174_fw.png	163.41991806030273	1.132159948348999
54	53.784090995788574	response	0	k		52.0	/experiments/knapen_AOT/AOT_stimuli/pictures/1174_fw.png	164.51894903182983	
55	53.817219972610474	picture	0		117	53.0	/experiments/knapen_AOT/AOT_stimuli/pictures/0065_fw.png	164.55207800865173	1.016718864440918
55	54.78404188156128	response	0	j		53.0	/experiments/knapen_AOT/AOT_stimuli/pictures/0065_fw.png	165.51889991760254	
56	54.83393883705139	picture	0		101	54.0	/experiments/knapen_AOT/AOT_stimuli/pictures/0915_fw.png	165.56879687309265	0.9084839820861816
56	55.6675329208374	response	0	k		54.0	/experiments/knapen_AOT/AOT_stimuli/pictures/0915_fw.png	166.40239095687866	
57	55.74242281913757	picture	0		97	55.0	/experiments/knapen_AOT/AOT_stimuli/pictures/1082_fw.png	166.47728085517883	0.8415541648864746
57	56.53585600852966	response	0	k		55.0	/experiments/knapen_AOT/AOT_stimuli/pictures/1082_fw.png	167.27071404457092	
58	56.58397698402405	picture	0		100	56.0	/experiments/knapen_AOT/AOT_stimuli/pictures/1648_fw.png	167.3188350200653	0.9344489574432373
58	57.40908694267273	response	0	j		56.0	/experiments/knapen_AOT/AOT_stimuli/pictures/1648_fw.png	168.143944978714	
59	57.518425941467285	picture	0		86	57.0	/experiments/knapen_AOT/AOT_stimuli/pictures/0055_fw.png	168.25328397750854	0.7656669616699219
59	58.22576093673706	response	0	j		57.0	/experiments/knapen_AOT/AOT_stimuli/pictures/0055_fw.png	168.96061897277832	
60	58.28409290313721	picture	0		112	58.0	/experiments/knapen_AOT/AOT_stimuli/pictures/1895_fw.png	169.01895093917847	0.9915530681610107
60	59.2091498374939	response	0	j		58.0	/experiments/knapen_AOT/AOT_stimuli/pictures/1895_fw.png	169.94400787353516	
61	59.27564597129822	picture	0		106	59.0	/experiments/knapen_AOT/AOT_stimuli/pictures/1436_fw.png	170.01050400733948	0.9094939231872559
61	60.1440110206604	response	0	k		59.0	/experiments/knapen_AOT/AOT_stimuli/pictures/1436_fw.png	170.87886905670166	
62	60.185139894485474	picture	0		92	60.0	/experiments/knapen_AOT/AOT_stimuli/pictures/2160_fw.png	170.91999793052673	0.8240189552307129
62	60.93573498725891	response	0	k		60.0	/experiments/knapen_AOT/AOT_stimuli/pictures/2160_fw.png	171.67059302330017	
63	61.00915884971619	picture	0		113	61.0	/experiments/knapen_AOT/AOT_stimuli/pictures/0709_fw.png	171.74401688575745	1.00235915184021
63	61.960784912109375	response	0	k		61.0	/experiments/knapen_AOT/AOT_stimuli/pictures/0709_fw.png	172.69564294815063	
64	62.0115180015564	picture	0		107	62.0	/experiments/knapen_AOT/AOT_stimuli/pictures/1139_fw.png	172.74637603759766	0.9652810096740723
64	62.89254689216614	response	0	k		62.0	/experiments/knapen_AOT/AOT_stimuli/pictures/1139_fw.png	173.6274049282074	
65	62.97679901123047	picture	0		101	63.0	/experiments/knapen_AOT/AOT_stimuli/pictures/0634_fw.png	173.71165704727173	0.8823459148406982
65	63.80917000770569	response	0	k		63.0	/experiments/knapen_AOT/AOT_stimuli/pictures/0634_fw.png	174.54402804374695	
66	63.85914492607117	picture	0		100	64.0	/experiments/knapen_AOT/AOT_stimuli/pictures/0657_fw.png	174.59400296211243	0.9999039173126221
66	64.68417286872864	response	0	j		64.0	/experiments/knapen_AOT/AOT_stimuli/pictures/0657_fw.png	175.4190309047699	
67	64.85904884338379	picture	0		100	65.0	/experiments/knapen_AOT/AOT_stimuli/pictures/0421_fw.png	175.59390687942505	0.8538920879364014
67	65.68426394462585	response	0	j		65.0	/experiments/knapen_AOT/AOT_stimuli/pictures/0421_fw.png	176.41912198066711	
68	65.71294093132019	picture	0		87	66.0	/experiments/knapen_AOT/AOT_stimuli/pictures/1575_fw.png	176.44779896736145	0.7712259292602539
68	66.42586088180542	response	0	j		66.0	/experiments/knapen_AOT/AOT_stimuli/pictures/1575_fw.png	177.16071891784668	
69	66.48416686058044	picture	0		84	67.0	/experiments/knapen_AOT/AOT_stimuli/pictures/1555_fw.png	177.2190248966217	0.8607020378112793
69	67.16935300827026	response	0	j		67.0	/experiments/knapen_AOT/AOT_stimuli/pictures/1555_fw.png	177.90421104431152	
70	67.34486889839172	picture	0		97	68.0	/experiments/knapen_AOT/AOT_stimuli/pictures/1519_fw.png	178.07972693443298	0.8475580215454102
70	68.1357319355011	response	0	k		68.0	/experiments/knapen_AOT/AOT_stimuli/pictures/1519_fw.png	178.87058997154236	
71	68.19242691993713	picture	0		92	69.0	/experiments/knapen_AOT/AOT_stimuli/pictures/0970_fw.png	178.9272849559784	0.8000469207763672
71	68.94413685798645	response	0	k		69.0	/experiments/knapen_AOT/AOT_stimuli/pictures/0970_fw.png	179.6789948940277	
72	68.9924738407135	picture	0		94	70.0	/experiments/knapen_AOT/AOT_stimuli/pictures/0678_fw.png	179.72733187675476	0.8583850860595703
72	69.76076102256775	response	0	k		70.0	/experiments/knapen_AOT/AOT_stimuli/pictures/0678_fw.png	180.495619058609	
73	69.85085892677307	picture	0		81	71.0	/experiments/knapen_AOT/AOT_stimuli/pictures/0173_fw.png	180.58571696281433	0.7583160400390625
73	70.51760601997375	response	0	j		71.0	/experiments/knapen_AOT/AOT_stimuli/pictures/0173_fw.png	181.25246405601501	
74	70.60917496681213	picture	0		83	72.0	/experiments/knapen_AOT/AOT_stimuli/pictures/1784_fw.png	181.3440330028534	0.7166879177093506
74	71.29259300231934	response	0	j		72.0	/experiments/knapen_AOT/AOT_stimuli/pictures/1784_fw.png	182.0274510383606	
75	71.32586288452148	picture	0		107	73.0	/experiments/knapen_AOT/AOT_stimuli/pictures/0497_fw.png	182.06072092056274	0.9083011150360107
75	72.20927691459656	response	0	k		73.0	/experiments/knapen_AOT/AOT_stimuli/pictures/0497_fw.png	182.94413495063782	
76	72.2341639995575	picture	0		95	74.0	/experiments/knapen_AOT/AOT_stimuli/pictures/1502_fw.png	182.96902203559875	0.8538219928741455
76	73.01765203475952	response	0	k		74.0	/experiments/knapen_AOT/AOT_stimuli/pictures/1502_fw.png	183.75251007080078	
77	73.08798599243164	picture	0		89	75.0	/experiments/knapen_AOT/AOT_stimuli/pictures/0051_fw.png	183.8228440284729	0.7878849506378174
77	73.81763100624084	response	0	j		75.0	/experiments/knapen_AOT/AOT_stimuli/pictures/0051_fw.png	184.5524890422821	
78	73.87587094306946	picture	0		92	76.0	/experiments/knapen_AOT/AOT_stimuli/pictures/0260_fw.png	184.61072897911072	0.8334219455718994
78	74.63438582420349	response	0	j		76.0	/experiments/knapen_AOT/AOT_stimuli/pictures/0260_fw.png	185.36924386024475	
79	74.70929288864136	picture	0		89	77.0	/experiments/knapen_AOT/AOT_stimuli/pictures/2073_fw.png	185.44415092468262	0.7675960063934326
79	75.44266295433044	response	0	j		77.0	/experiments/knapen_AOT/AOT_stimuli/pictures/2073_fw.png	186.1775209903717	
80	75.47688889503479	picture	0		124	78.0	/experiments/knapen_AOT/AOT_stimuli/pictures/0998_fw.png	186.21174693107605	1.0694420337677002
80	76.501060962677	response	0	k		78.0	/experiments/knapen_AOT/AOT_stimuli/pictures/0998_fw.png	187.23591899871826	
81	76.54633092880249	picture	0		176	79.0	/experiments/knapen_AOT/AOT_stimuli/pictures/0094_fw.png	187.28118896484375	1.5069520473480225
81	78.00109601020813	response	0	j		79.0	/experiments/knapen_AOT/AOT_stimuli/pictures/0094_fw.png	188.7359540462494	
82	78.05328297615051	picture	0		76	80.0	/experiments/knapen_AOT/AOT_stimuli/pictures/1228_fw.png	188.78814101219177	0.6597239971160889
82	78.67601704597473	response	0	j		80.0	/experiments/knapen_AOT/AOT_stimuli/pictures/1228_fw.png	189.410875082016	
83	78.7130069732666	picture	0		85	81.0	/experiments/knapen_AOT/AOT_stimuli/pictures/1844_fw.png	189.44786500930786	0.804602861404419
83	79.40944695472717	response	0	k		81.0	/experiments/knapen_AOT/AOT_stimuli/pictures/1844_fw.png	190.14430499076843	
84	79.51760983467102	picture	0		116	82.0	/experiments/knapen_AOT/AOT_stimuli/pictures/1640_fw.png	190.25246787071228	1.0000040531158447
84	80.47607898712158	response	0	j		82.0	/experiments/knapen_AOT/AOT_stimuli/pictures/1640_fw.png	191.21093702316284	
85	80.51761388778687	picture	0		137	83.0	/experiments/knapen_AOT/AOT_stimuli/pictures/1059_fw.png	191.25247192382812	1.183427095413208
85	81.65961694717407	response	0	j		83.0	/experiments/knapen_AOT/AOT_stimuli/pictures/1059_fw.png	192.39447498321533	
86	81.70104098320007	picture	0		112	84.0	/experiments/knapen_AOT/AOT_stimuli/pictures/0699_fw.png	192.43589901924133	0.963392972946167
86	82.62615704536438	response	0	j		84.0	/experiments/knapen_AOT/AOT_stimuli/pictures/0699_fw.png	193.36101508140564	
87	82.66443395614624	picture	0		165	85.0	/experiments/knapen_AOT/AOT_stimuli/pictures/0540_fw.png	193.3992919921875	1.5902760028839111
87	84.03449487686157	response	0	k		85.0	/experiments/knapen_AOT/AOT_stimuli/pictures/0540_fw.png	194.76935291290283	
88	84.25470995903015	picture	0		107	86.0	/experiments/knapen_AOT/AOT_stimuli/pictures/1846_fw.png	194.9895679950714	0.9379918575286865
88	85.13444185256958	response	0	j		86.0	/experiments/knapen_AOT/AOT_stimuli/pictures/1846_fw.png	195.86929988861084	
89	85.19270181655884	picture	0		91	87.0	/experiments/knapen_AOT/AOT_stimuli/pictures/0342_fw.png	195.9275598526001	0.8167860507965088
89	85.93625783920288	response	0	j		87.0	/experiments/knapen_AOT/AOT_stimuli/pictures/0342_fw.png	196.67111587524414	
90	86.00948786735535	picture	0		82	88.0	/experiments/knapen_AOT/AOT_stimuli/pictures/1633_fw.png	196.7443459033966	0.7249510288238525
90	86.68454599380493	response	0	j		88.0	/experiments/knapen_AOT/AOT_stimuli/pictures/1633_fw.png	197.4194040298462	
91	86.7344388961792	picture	0		128	89.0	/experiments/knapen_AOT/AOT_stimuli/pictures/0347_fw.png	197.46929693222046	1.174976110458374
91	87.79295301437378	response	0	j		89.0	/experiments/knapen_AOT/AOT_stimuli/pictures/0347_fw.png	198.52781105041504	
92	87.90941500663757	picture	0		85	90.0	/experiments/knapen_AOT/AOT_stimuli/pictures/1837_fw.png	198.64427304267883	0.7666728496551514
92	88.60954093933105	response	0	k		90.0	/experiments/knapen_AOT/AOT_stimuli/pictures/1837_fw.png	199.34439897537231	
93	88.67608785629272	picture	0		123	91.0	/experiments/knapen_AOT/AOT_stimuli/pictures/0682_fw.png	199.41094589233398	1.0583760738372803
93	89.69295597076416	response	0	j		91.0	/experiments/knapen_AOT/AOT_stimuli/pictures/0682_fw.png	200.42781400680542	
94	89.73446393013	picture	0		194	92.0	/experiments/knapen_AOT/AOT_stimuli/pictures/0649_fw.png	200.46932196617126	1.6499381065368652
94	91.33610081672668	response	0	k		92.0	/experiments/knapen_AOT/AOT_stimuli/pictures/0649_fw.png	202.07095885276794	
95	91.38440203666687	picture	0		116	93.0	/experiments/knapen_AOT/AOT_stimuli/pictures/1635_fw.png	202.11926007270813	1.0023388862609863
95	92.33654189109802	response	0	k		93.0	/experiments/knapen_AOT/AOT_stimuli/pictures/1635_fw.png	203.07139992713928	
96	92.38674092292786	picture	0		103	94.0	/experiments/knapen_AOT/AOT_stimuli/pictures/1879_fw.png	203.12159895896912	0.8820550441741943
96	93.23458003997803	response	0	k		94.0	/experiments/knapen_AOT/AOT_stimuli/pictures/1879_fw.png	203.9694380760193	
97	93.26879596710205	picture	0		89	95.0	/experiments/knapen_AOT/AOT_stimuli/pictures/0643_fw.png	204.0036540031433	0.807452917098999
97	94.00137281417847	response	0	j		95.0	/experiments/knapen_AOT/AOT_stimuli/pictures/0643_fw.png	204.73623085021973	
98	94.07624888420105	picture	0		166	96.0	/experiments/knapen_AOT/AOT_stimuli/pictures/1642_fw.png	204.8111069202423	1.4424960613250732
98	95.4514229297638	response	0	k		96.0	/experiments/knapen_AOT/AOT_stimuli/pictures/1642_fw.png	206.18628096580505	
99	95.51874494552612	picture	0		113	97.0	/experiments/knapen_AOT/AOT_stimuli/pictures/1786_fw.png	206.25360298156738	0.97416090965271
99	96.45144081115723	response	0	j		97.0	/experiments/knapen_AOT/AOT_stimuli/pictures/1786_fw.png	207.1862988471985	
100	96.49290585517883	picture	0		201	98.0	/experiments/knapen_AOT/AOT_stimuli/pictures/1406_fw.png	207.2277638912201	1.7165839672088623
100	98.15304398536682	response	0	k		98.0	/experiments/knapen_AOT/AOT_stimuli/pictures/1406_fw.png	208.88790202140808	
101	98.2094898223877	picture	0		104	99.0	/experiments/knapen_AOT/AOT_stimuli/pictures/1581_fw.png	208.94434785842896	0.9000351428985596
101	99.06809186935425	response	0	k		99.0	/experiments/knapen_AOT/AOT_stimuli/pictures/1581_fw.png	209.8029499053955	
102	99.10952496528625	picture	0		100	100.0	/experiments/knapen_AOT/AOT_stimuli/pictures/0999_fw.png	209.84438300132751	0.8749949932098389
102	99.93467402458191	response	0	k		100.0	/experiments/knapen_AOT/AOT_stimuli/pictures/0999_fw.png	210.66953206062317	
103	99.9845199584961	picture	0		157	101.0	/experiments/knapen_AOT/AOT_stimuli/pictures/1226_fw.png	210.71937799453735	1.3398358821868896
103	101.28467798233032	response	0	k		101.0	/experiments/knapen_AOT/AOT_stimuli/pictures/1226_fw.png	212.01953601837158	
104	101.32435584068298	picture	0		131	102.0	/experiments/knapen_AOT/AOT_stimuli/pictures/0508_fw.png	212.05921387672424	1.1268980503082275
104	102.40970993041992	response	0	j		102.0	/experiments/knapen_AOT/AOT_stimuli/pictures/0508_fw.png	213.14456796646118	
105	102.45125389099121	picture	0		118	103.0	/experiments/knapen_AOT/AOT_stimuli/pictures/2015_fw.png	213.18611192703247	1.1083381175994873
105	103.42635083198547	response	0	k		103.0	/experiments/knapen_AOT/AOT_stimuli/pictures/2015_fw.png	214.16120886802673	
106	103.5595920085907	picture	0		86	104.0	/experiments/knapen_AOT/AOT_stimuli/pictures/0083_fw.png	214.29445004463196	0.7667028903961182
106	104.26811504364014	response	0	j		104.0	/experiments/knapen_AOT/AOT_stimuli/pictures/0083_fw.png	215.0029730796814	
107	104.32629489898682	picture	0		88	105.0	/experiments/knapen_AOT/AOT_stimuli/pictures/0132_fw.png	215.06115293502808	0.7619600296020508
107	105.0513768196106	response	0	j		105.0	/experiments/knapen_AOT/AOT_stimuli/pictures/0132_fw.png	215.78623485565186	
108	105.08825492858887	picture	0		219	106.0	/experiments/knapen_AOT/AOT_stimuli/pictures/2096_fw.png	215.82311296463013	1.8547039031982422
108	106.901526927948	response	0	j		106.0	/experiments/knapen_AOT/AOT_stimuli/pictures/2096_fw.png	217.63638496398926	
109	106.94295883178711	picture	0		87	107.0	/experiments/knapen_AOT/AOT_stimuli/pictures/0675_fw.png	217.67781686782837	0.7501411437988281
109	107.65977883338928	response	0	j		107.0	/experiments/knapen_AOT/AOT_stimuli/pictures/0675_fw.png	218.39463686943054	
110	107.69309997558594	picture	0		84	108.0	/experiments/knapen_AOT/AOT_stimuli/pictures/1451_fw.png	218.4279580116272	0.7332808971405029
110	108.38473701477051	response	0	k		108.0	/experiments/knapen_AOT/AOT_stimuli/pictures/1451_fw.png	219.11959505081177	
111	108.42638087272644	picture	0		97	109.0	/experiments/knapen_AOT/AOT_stimuli/pictures/0857_fw.png	219.1612389087677	0.841655969619751
111	109.22645783424377	response	0	k		109.0	/experiments/knapen_AOT/AOT_stimuli/pictures/0857_fw.png	219.96131587028503	
112	109.26803684234619	picture	0		169	110.0	/experiments/knapen_AOT/AOT_stimuli/pictures/1358_fw.png	220.00289487838745	1.4499421119689941
112	110.66827702522278	response	0	k		110.0	/experiments/knapen_AOT/AOT_stimuli/pictures/1358_fw.png	221.40313506126404	
113	110.71797895431519	picture	0		116	111.0	/experiments/knapen_AOT/AOT_stimuli/pictures/0507_fw.png	221.45283699035645	1.0000989437103271
113	111.67665791511536	response	0	k		111.0	/experiments/knapen_AOT/AOT_stimuli/pictures/0507_fw.png	222.41151595115662	
114	111.71807789802551	picture	0		91	112.0	/experiments/knapen_AOT/AOT_stimuli/pictures/1155_fw.png	222.45293593406677	0.7869930267333984
114	112.46815085411072	response	0	j		112.0	/experiments/knapen_AOT/AOT_stimuli/pictures/1155_fw.png	223.20300889015198	
115	112.50507092475891	picture	0		151	113.0	/experiments/knapen_AOT/AOT_stimuli/pictures/1814_fw.png	223.23992896080017	1.296320915222168
115	113.74503898620605	response	0	k		113.0	/experiments/knapen_AOT/AOT_stimuli/pictures/1814_fw.png	224.47989702224731	
116	113.80139183998108	picture	0		89	114.0	/experiments/knapen_AOT/AOT_stimuli/pictures/0607_fw.png	224.53624987602234	0.7667181491851807
116	114.5348699092865	response	0	k		114.0	/experiments/knapen_AOT/AOT_stimuli/pictures/0607_fw.png	225.26972794532776	
117	114.56810998916626	picture	0		99	115.0	/experiments/knapen_AOT/AOT_stimuli/pictures/1422_fw.png	225.30296802520752	0.8583219051361084
117	115.38483881950378	response	0	j		115.0	/experiments/knapen_AOT/AOT_stimuli/pictures/1422_fw.png	226.11969685554504	
118	115.42643189430237	picture	0		114	116.0	/experiments/knapen_AOT/AOT_stimuli/pictures/1180_fw.png	226.16128993034363	0.9813859462738037
118	116.36165595054626	response	0	j		116.0	/experiments/knapen_AOT/AOT_stimuli/pictures/1180_fw.png	227.09651398658752	
119	116.40781784057617	picture	0		88	117.0	/experiments/knapen_AOT/AOT_stimuli/pictures/0258_fw.png	227.14267587661743	0.7936530113220215
119	117.13487887382507	response	0	j		117.0	/experiments/knapen_AOT/AOT_stimuli/pictures/0258_fw.png	227.86973690986633	
120	117.2014708518982	picture	0		89	118.0	/experiments/knapen_AOT/AOT_stimuli/pictures/2045_fw.png	227.93632888793945	0.7917840480804443
120	117.93500304222107	response	0	k		118.0	/experiments/knapen_AOT/AOT_stimuli/pictures/2045_fw.png	228.66986107826233	
121	117.99325489997864	picture	0		121	119.0	/experiments/knapen_AOT/AOT_stimuli/pictures/2086_fw.png	228.7281129360199	1.0499629974365234
121	118.99340200424194	response	0	k		119.0	/experiments/knapen_AOT/AOT_stimuli/pictures/2086_fw.png	229.7282600402832	
122	119.04321789741516	picture	0		100	120.0	/experiments/knapen_AOT/AOT_stimuli/pictures/0696_fw.png	229.77807593345642	0.9000411033630371
122	119.86836290359497	response	0	k		120.0	/experiments/knapen_AOT/AOT_stimuli/pictures/0696_fw.png	230.60322093963623	
123	119.9432590007782	picture	0		214	121.0	/experiments/knapen_AOT/AOT_stimuli/pictures/1866_fw.png	230.67811703681946	1.8534119129180908
123	121.73650884628296	response	0	k		121.0	/experiments/knapen_AOT/AOT_stimuli/pictures/1866_fw.png	232.47136688232422	
124	121.79667091369629	picture	0		102	122.0	/experiments/knapen_AOT/AOT_stimuli/pictures/0225_fw.png	232.53152894973755	0.8750460147857666
124	122.63500785827637	response	0	k		122.0	/experiments/knapen_AOT/AOT_stimuli/pictures/0225_fw.png	233.36986589431763	
125	122.67171692848206	picture	0		129	123.0	/experiments/knapen_AOT/AOT_stimuli/pictures/1185_fw.png	233.40657496452332	1.0973260402679443
125	123.7350389957428	response	0	j		123.0	/experiments/knapen_AOT/AOT_stimuli/pictures/1185_fw.png	234.46989703178406	
126	123.76904296875	picture	0		95	124.0	/experiments/knapen_AOT/AOT_stimuli/pictures/2134_fw.png	234.50390100479126	0.8193540573120117
126	124.54504585266113	response	0	j		124.0	/experiments/knapen_AOT/AOT_stimuli/pictures/2134_fw.png	235.2799038887024	
127	124.58839702606201	picture	0		92	125.0	/experiments/knapen_AOT/AOT_stimuli/pictures/1794_fw.png	235.32325506210327	0.8131499290466309
127	125.33674097061157	response	0	k		125.0	/experiments/knapen_AOT/AOT_stimuli/pictures/1794_fw.png	236.07159900665283	
128	125.40154695510864	picture	0		92	126.0	/experiments/knapen_AOT/AOT_stimuli/pictures/2098_fw.png	236.1364049911499	0.7999999523162842
128	126.15327882766724	response	0	k		126.0	/experiments/knapen_AOT/AOT_stimuli/pictures/2098_fw.png	236.8881368637085	
129	126.20154690742493	picture	0		152	127.0	/experiments/knapen_AOT/AOT_stimuli/pictures/0663_fw.png	236.9364049434662	1.3250060081481934
129	127.46002793312073	response	0	k		127.0	/experiments/knapen_AOT/AOT_stimuli/pictures/0663_fw.png	238.194885969162	
130	127.52655291557312	picture	0		121	128.0	/experiments/knapen_AOT/AOT_stimuli/pictures/2123_fw.png	238.26141095161438	1.0619299411773682
130	128.526713848114	response	0	k		128.0	/experiments/knapen_AOT/AOT_stimuli/pictures/2123_fw.png	239.26157188415527	
131	128.5884828567505	picture	0		90	129.0	/experiments/knapen_AOT/AOT_stimuli/pictures/0150_fw.png	239.32334089279175	0.8194739818572998
131	129.32674193382263	response	0	k		129.0	/experiments/knapen_AOT/AOT_stimuli/pictures/0150_fw.png	240.0615999698639	
132	129.4079568386078	picture	0		82	130.0	/experiments/knapen_AOT/AOT_stimuli/pictures/2038_fw.png	240.14281487464905	0.7290661334991455
132	130.0851378440857	response	0	k		130.0	/experiments/knapen_AOT/AOT_stimuli/pictures/2038_fw.png	240.81999588012695	
133	130.13702297210693	picture	0		92	131.0	/experiments/knapen_AOT/AOT_stimuli/pictures/1834_fw.png	240.8718810081482	0.8063719272613525
133	130.89339900016785	response	0	j		131.0	/experiments/knapen_AOT/AOT_stimuli/pictures/1834_fw.png	241.6282570362091	
134	130.9433948993683	picture	0		125	132.0	/experiments/knapen_AOT/AOT_stimuli/pictures/0694_fw.png	241.67825293540955	1.0686659812927246
134	131.96998691558838	response	0	k		132.0	/experiments/knapen_AOT/AOT_stimuli/pictures/0694_fw.png	242.70484495162964	
135	132.012060880661	picture	0		97	133.0	/experiments/knapen_AOT/AOT_stimuli/pictures/1042_fw.png	242.74691891670227	0.8479621410369873
135	132.8100848197937	response	0	j		133.0	/experiments/knapen_AOT/AOT_stimuli/pictures/1042_fw.png	243.54494285583496	
136	132.860023021698	picture	0		84	134.0	/experiments/knapen_AOT/AOT_stimuli/pictures/0610_fw.png	243.59488105773926	0.7284359931945801
136	133.54536485671997	response	0	j		134.0	/experiments/knapen_AOT/AOT_stimuli/pictures/0610_fw.png	244.28022289276123	
137	133.58845901489258	picture	0		82	135.0	/experiments/knapen_AOT/AOT_stimuli/pictures/1306_fw.png	244.32331705093384	0.7299048900604248
137	134.26012802124023	response	0	j		135.0	/experiments/knapen_AOT/AOT_stimuli/pictures/1306_fw.png	244.9949860572815	
138	134.318363904953	picture	0		128	136.0	/experiments/knapen_AOT/AOT_stimuli/pictures/0144_fw.png	245.05322194099426	1.1173219680786133
138	135.37673902511597	response	0	k		136.0	/experiments/knapen_AOT/AOT_stimuli/pictures/0144_fw.png	246.11159706115723	
139	135.43568587303162	picture	0		99	137.0	/experiments/knapen_AOT/AOT_stimuli/pictures/0561_fw.png	246.17054390907288	0.8750450611114502
139	136.25177097320557	response	0	k		137.0	/experiments/knapen_AOT/AOT_stimuli/pictures/0561_fw.png	246.98662900924683	
140	136.31073093414307	picture	0		142	138.0	/experiments/knapen_AOT/AOT_stimuli/pictures/1711_fw.png	247.04558897018433	1.2161190509796143
140	137.48514485359192	response	0	j		138.0	/experiments/knapen_AOT/AOT_stimuli/pictures/1711_fw.png	248.22000288963318	
141	137.52684998512268	picture	0		134	139.0	/experiments/knapen_AOT/AOT_stimuli/pictures/0525_fw.png	248.26170802116394	1.1519808769226074
141	138.63522100448608	response	0	k		139.0	/experiments/knapen_AOT/AOT_stimuli/pictures/0525_fw.png	249.37007904052734	
142	138.6788308620453	picture	0		172	140.0	/experiments/knapen_AOT/AOT_stimuli/pictures/0503_fw.png	249.41368889808655	1.486037015914917
142	140.10255789756775	response	0	j		140.0	/experiments/knapen_AOT/AOT_stimuli/pictures/0503_fw.png	250.837415933609	
143	140.1648678779602	picture	0		128	141.0	/experiments/knapen_AOT/AOT_stimuli/pictures/0764_fw.png	250.89972591400146	1.0973141193389893
143	141.22701287269592	response	0	k		141.0	/experiments/knapen_AOT/AOT_stimuli/pictures/0764_fw.png	251.96187090873718	
144	141.2621819972992	picture	0		117	142.0	/experiments/knapen_AOT/AOT_stimuli/pictures/0805_fw.png	251.99704003334045	1.0062808990478516
144	142.22760486602783	response	0	k		142.0	/experiments/knapen_AOT/AOT_stimuli/pictures/0805_fw.png	252.9624629020691	
145	142.26846289634705	picture	0		99	143.0	/experiments/knapen_AOT/AOT_stimuli/pictures/1667_fw.png	253.0033209323883	0.8834359645843506
145	143.08532691001892	response	0	j		143.0	/experiments/knapen_AOT/AOT_stimuli/pictures/1667_fw.png	253.82018494606018	
146	143.1518988609314	picture	0		89	144.0	/experiments/knapen_AOT/AOT_stimuli/pictures/2018_fw.png	253.88675689697266	0.7749800682067871
146	143.88521790504456	response	0	k		144.0	/experiments/knapen_AOT/AOT_stimuli/pictures/2018_fw.png	254.62007594108582	
147	143.92687892913818	picture	0		105	145.0	/experiments/knapen_AOT/AOT_stimuli/pictures/0377_fw.png	254.66173696517944	0.918597936630249
147	144.79360389709473	response	0	j		145.0	/experiments/knapen_AOT/AOT_stimuli/pictures/0377_fw.png	255.528461933136	
148	144.84547686576843	picture	0		119	146.0	/experiments/knapen_AOT/AOT_stimuli/pictures/1189_fw.png	255.5803349018097	1.0277819633483887
148	145.82699298858643	response	0	k		146.0	/experiments/knapen_AOT/AOT_stimuli/pictures/1189_fw.png	256.5618510246277	
149	145.87325882911682	picture	0		156	147.0	/experiments/knapen_AOT/AOT_stimuli/pictures/1470_fw.png	256.6081168651581	1.3542211055755615
149	147.15353393554688	response	0	k		147.0	/experiments/knapen_AOT/AOT_stimuli/pictures/1470_fw.png	257.88839197158813	
150	147.22747993469238	picture	0		93	148.0	/experiments/knapen_AOT/AOT_stimuli/pictures/0799_fw.png	257.96233797073364	0.8160068988800049
150	147.9936249256134	response	0	k		148.0	/experiments/knapen_AOT/AOT_stimuli/pictures/0799_fw.png	258.72848296165466	
151	148.0434868335724	picture	0		200	149.0	/experiments/knapen_AOT/AOT_stimuli/pictures/0568_fw.png	258.77834486961365	1.7117540836334229
151	149.702134847641	response	0	j		149.0	/experiments/knapen_AOT/AOT_stimuli/pictures/0568_fw.png	260.43699288368225	
152	149.7552409172058	picture	0		101	150.0	/experiments/knapen_AOT/AOT_stimuli/pictures/2094_fw.png	260.49009895324707	0.8819730281829834
152	150.58531188964844	response	0	j		150.0	/experiments/knapen_AOT/AOT_stimuli/pictures/2094_fw.png	261.3201699256897	
153	150.6372139453888	picture	0		144	151.0	/experiments/knapen_AOT/AOT_stimuli/pictures/0710_fw.png	261.37207198143005	1.2648189067840576
153	151.82709097862244	response	0	k		151.0	/experiments/knapen_AOT/AOT_stimuli/pictures/0710_fw.png	262.5619490146637	
154	151.90203285217285	picture	0		84	152.0	/experiments/knapen_AOT/AOT_stimuli/pictures/0745_fw.png	262.6368908882141	0.7282700538635254
154	152.5936939716339	response	0	k		152.0	/experiments/knapen_AOT/AOT_stimuli/pictures/0745_fw.png	263.32855200767517	
155	152.63030290603638	picture	0		95	153.0	/experiments/knapen_AOT/AOT_stimuli/pictures/0248_fw.png	263.36516094207764	0.8194401264190674
155	153.41044998168945	response	0	j		153.0	/experiments/knapen_AOT/AOT_stimuli/pictures/0248_fw.png	264.1453080177307	
156	153.44974303245544	picture	0		85	154.0	/experiments/knapen_AOT/AOT_stimuli/pictures/1305_fw.png	264.1846010684967	0.7361969947814941
156	154.14526891708374	response	0	j		154.0	/experiments/knapen_AOT/AOT_stimuli/pictures/1305_fw.png	264.880126953125	
157	154.18594002723694	picture	0		87	155.0	/experiments/knapen_AOT/AOT_stimuli/pictures/0303_fw.png	264.9207980632782	0.7915589809417725
157	154.90211987495422	response	0	j		155.0	/experiments/knapen_AOT/AOT_stimuli/pictures/0303_fw.png	265.6369779109955	
158	154.9774990081787	picture	0		88	156.0	/experiments/knapen_AOT/AOT_stimuli/pictures/1490_fw.png	265.71235704421997	0.7638988494873047
158	155.70216298103333	response	0	j		156.0	/experiments/knapen_AOT/AOT_stimuli/pictures/1490_fw.png	266.4370210170746	
159	155.74139785766602	picture	0		88	157.0	/experiments/knapen_AOT/AOT_stimuli/pictures/0401_fw.png	266.4762558937073	0.7689101696014404
159	156.46872282028198	response	0	j		157.0	/experiments/knapen_AOT/AOT_stimuli/pictures/0401_fw.png	267.20358085632324	
160	156.51030802726746	picture	0		104	158.0	/experiments/knapen_AOT/AOT_stimuli/pictures/0030_fw.png	267.2451660633087	0.8918149471282959
160	157.36203503608704	response	0	j		158.0	/experiments/knapen_AOT/AOT_stimuli/pictures/0030_fw.png	268.0968930721283	
161	157.40212297439575	picture	0		94	159.0	/experiments/knapen_AOT/AOT_stimuli/pictures/1585_fw.png	268.136981010437	0.8115279674530029
161	158.1770679950714	response	0	j		159.0	/experiments/knapen_AOT/AOT_stimuli/pictures/1585_fw.png	268.91192603111267	
162	158.21365094184875	picture	0		113	160.0	/experiments/knapen_AOT/AOT_stimuli/pictures/0317_fw.png	268.94850897789	1.0069348812103271
162	159.13696599006653	response	0	k		160.0	/experiments/knapen_AOT/AOT_stimuli/pictures/0317_fw.png	269.8718240261078	
163	159.22058582305908	picture	0		91	161.0	/experiments/knapen_AOT/AOT_stimuli/pictures/1191_fw.png	269.95544385910034	0.784771203994751
163	159.96216487884521	response	0	j		161.0	/experiments/knapen_AOT/AOT_stimuli/pictures/1191_fw.png	270.6970229148865	
164	160.00535702705383	picture	0		107	162.0	/experiments/knapen_AOT/AOT_stimuli/pictures/1690_fw.png	270.7402150630951	0.9383900165557861
164	160.88550281524658	response	0	k		162.0	/experiments/knapen_AOT/AOT_stimuli/pictures/1690_fw.png	271.62036085128784	
165	160.94374704360962	picture	0		127	163.0	/experiments/knapen_AOT/AOT_stimuli/pictures/1864_fw.png	271.6786050796509	1.091648817062378
165	161.99400687217712	response	0	k		163.0	/experiments/knapen_AOT/AOT_stimuli/pictures/1864_fw.png	272.7288649082184	
166	162.035395860672	picture	0		114	164.0	/experiments/knapen_AOT/AOT_stimuli/pictures/0786_fw.png	272.77025389671326	0.9768710136413574
166	162.97715401649475	response	0	j		164.0	/experiments/knapen_AOT/AOT_stimuli/pictures/0786_fw.png	273.712012052536	
167	163.01226687431335	picture	0		99	165.0	/experiments/knapen_AOT/AOT_stimuli/pictures/0090_fw.png	273.7471249103546	0.8564670085906982
167	163.8272099494934	response	0	j		165.0	/experiments/knapen_AOT/AOT_stimuli/pictures/0090_fw.png	274.56206798553467	
168	163.86873388290405	picture	0		116	166.0	/experiments/knapen_AOT/AOT_stimuli/pictures/0702_fw.png	274.6035919189453	0.9999821186065674
168	164.82726001739502	response	0	k		166.0	/experiments/knapen_AOT/AOT_stimuli/pictures/0702_fw.png	275.5621180534363	
169	164.86871600151062	picture	0		87	167.0	/experiments/knapen_AOT/AOT_stimuli/pictures/1510_fw.png	275.6035740375519	0.766711950302124
169	165.58559489250183	response	0	j		167.0	/experiments/knapen_AOT/AOT_stimuli/pictures/1510_fw.png	276.3204529285431	
170	165.63542795181274	picture	0		90	168.0	/experiments/knapen_AOT/AOT_stimuli/pictures/0501_fw.png	276.370285987854	0.7935769557952881
170	166.37731099128723	response	0	j		168.0	/experiments/knapen_AOT/AOT_stimuli/pictures/0501_fw.png	277.1121690273285	
171	166.42900490760803	picture	0		214	169.0	/experiments/knapen_AOT/AOT_stimuli/pictures/0835_fw.png	277.1638629436493	1.8314459323883057
171	168.20224785804749	response	0	k		169.0	/experiments/knapen_AOT/AOT_stimuli/pictures/0835_fw.png	278.93710589408875	
172	168.26045083999634	picture	0		88	170.0	/experiments/knapen_AOT/AOT_stimuli/pictures/1286_fw.png	278.9953088760376	0.766772985458374
172	168.98560404777527	response	0	j		170.0	/experiments/knapen_AOT/AOT_stimuli/pictures/1286_fw.png	279.7204620838165	
173	169.0272238254547	picture	0		133	171.0	/experiments/knapen_AOT/AOT_stimuli/pictures/0195_fw.png	279.762081861496	1.1379270553588867
173	170.12743496894836	response	0	j		171.0	/experiments/knapen_AOT/AOT_stimuli/pictures/0195_fw.png	280.8622930049896	
174	170.1651508808136	picture	0		76	172.0	/experiments/knapen_AOT/AOT_stimuli/pictures/0081_fw.png	280.90000891685486	0.6537661552429199
174	170.78561282157898	response	0	j		172.0	/experiments/knapen_AOT/AOT_stimuli/pictures/0081_fw.png	281.52047085762024	
175	170.81891703605652	picture	0		193	173.0	/experiments/knapen_AOT/AOT_stimuli/pictures/0014_fw.png	281.5537750720978	1.674961805343628
175	172.41905784606934	response	0	k		173.0	/experiments/knapen_AOT/AOT_stimuli/pictures/0014_fw.png	283.1539158821106	
176	172.49387884140015	picture	0		143	174.0	/experiments/knapen_AOT/AOT_stimuli/pictures/1960_fw.png	283.2287368774414	1.2333149909973145
176	173.67729902267456	response	0	j		174.0	/experiments/knapen_AOT/AOT_stimuli/pictures/1960_fw.png	284.4121570587158	
177	173.72719383239746	picture	0		117	175.0	/experiments/knapen_AOT/AOT_stimuli/pictures/1632_fw.png	284.4620518684387	1.0004360675811768
177	174.694100856781	response	0	k		175.0	/experiments/knapen_AOT/AOT_stimuli/pictures/1632_fw.png	285.42895889282227	
178	174.72762989997864	picture	0		152	176.0	/experiments/knapen_AOT/AOT_stimuli/pictures/1337_fw.png	285.4624879360199	1.3079109191894531
178	175.9856560230255	response	0	k		176.0	/experiments/knapen_AOT/AOT_stimuli/pictures/1337_fw.png	286.7205140590668	
179	176.0355408191681	picture	0		105	177.0	/experiments/knapen_AOT/AOT_stimuli/pictures/0603_fw.png	286.77039885520935	0.9334151744842529
179	176.92735195159912	response	0	k		177.0	/experiments/knapen_AOT/AOT_stimuli/pictures/0603_fw.png	287.6622099876404	
180	176.96895599365234	picture	0		113	178.0	/experiments/knapen_AOT/AOT_stimuli/pictures/1229_fw.png	287.7038140296936	0.9750199317932129
180	177.9024178981781	response	0	k		178.0	/experiments/knapen_AOT/AOT_stimuli/pictures/1229_fw.png	288.63727593421936	
181	177.94397592544556	picture	0		119	179.0	/experiments/knapen_AOT/AOT_stimuli/pictures/2021_fw.png	288.6788339614868	1.041585922241211
181	178.9273509979248	response	0	j		179.0	/experiments/knapen_AOT/AOT_stimuli/pictures/2021_fw.png	289.66220903396606	
182	178.98556184768677	picture	0		109	180.0	/experiments/knapen_AOT/AOT_stimuli/pictures/2005_fw.png	289.720419883728	0.9417259693145752
182	179.88570189476013	response	0	k		180.0	/experiments/knapen_AOT/AOT_stimuli/pictures/2005_fw.png	290.6205599308014	
183	179.92728781700134	picture	0		112	181.0	/experiments/knapen_AOT/AOT_stimuli/pictures/0840_fw.png	290.6621458530426	0.9602022171020508
183	180.85287284851074	response	0	k		181.0	/experiments/knapen_AOT/AOT_stimuli/pictures/0840_fw.png	291.587730884552	
184	180.8874900341034	picture	0		98	182.0	/experiments/knapen_AOT/AOT_stimuli/pictures/0802_fw.png	291.62234807014465	0.874957799911499
184	181.69419288635254	response	0	k		182.0	/experiments/knapen_AOT/AOT_stimuli/pictures/0802_fw.png	292.4290509223938	
185	181.7624478340149	picture	0		84	183.0	/experiments/knapen_AOT/AOT_stimuli/pictures/0108_fw.png	292.49730587005615	0.7499921321868896
185	182.45253086090088	response	0	j		183.0	/experiments/knapen_AOT/AOT_stimuli/pictures/0108_fw.png	293.18738889694214	
186	182.51243996620178	picture	0		155	184.0	/experiments/knapen_AOT/AOT_stimuli/pictures/0436_fw.png	293.24729800224304	1.331575870513916
186	183.79423999786377	response	0	k		184.0	/experiments/knapen_AOT/AOT_stimuli/pictures/0436_fw.png	294.52909803390503	
187	183.8440158367157	picture	0		122	185.0	/experiments/knapen_AOT/AOT_stimuli/pictures/0648_fw.png	294.57887387275696	1.2102100849151611
187	184.8529179096222	response	0	k		185.0	/experiments/knapen_AOT/AOT_stimuli/pictures/0648_fw.png	295.58777594566345	
188	185.05422592163086	picture	0		107	186.0	/experiments/knapen_AOT/AOT_stimuli/pictures/1233_fw.png	295.7890839576721	0.9481620788574219
188	185.93621301651	response	0	j		186.0	/experiments/knapen_AOT/AOT_stimuli/pictures/1233_fw.png	296.67107105255127	
189	186.00238800048828	picture	0		141	187.0	/experiments/knapen_AOT/AOT_stimuli/pictures/1132_fw.png	296.73724603652954	1.2333958148956299
189	187.16256093978882	response	0	k		187.0	/experiments/knapen_AOT/AOT_stimuli/pictures/1132_fw.png	297.8974189758301	
190	187.2357838153839	picture	0		92	188.0	/experiments/knapen_AOT/AOT_stimuli/pictures/1710_fw.png	297.97064185142517	0.8165991306304932
190	187.99420189857483	response	0	k		188.0	/experiments/knapen_AOT/AOT_stimuli/pictures/1710_fw.png	298.7290599346161	
191	188.0523829460144	picture	0		111	189.0	/experiments/knapen_AOT/AOT_stimuli/pictures/0428_fw.png	298.78724098205566	0.95318603515625
191	188.96261501312256	response	0	k		189.0	/experiments/knapen_AOT/AOT_stimuli/pictures/0428_fw.png	299.6974730491638	
192	189.00556898117065	picture	0		118	190.0	/experiments/knapen_AOT/AOT_stimuli/pictures/0112_fw.png	299.7404270172119	1.030168056488037
192	189.97798800468445	response	0	j		190.0	/experiments/knapen_AOT/AOT_stimuli/pictures/0112_fw.png	300.7128460407257	
193	190.0357370376587	picture	0		87	191.0	/experiments/knapen_AOT/AOT_stimuli/pictures/0720_fw.png	300.77059507369995	0.754558801651001
193	190.74601483345032	response	0	k		191.0	/experiments/knapen_AOT/AOT_stimuli/pictures/0720_fw.png	301.4808728694916	
194	190.7902958393097	picture	0		233	192.0	/experiments/knapen_AOT/AOT_stimuli/pictures/0711_fw.png	301.52515387535095	1.9652740955352783
194	192.71924781799316	response	0	k		192.0	/experiments/knapen_AOT/AOT_stimuli/pictures/0711_fw.png	303.4541058540344	
195	192.75556993484497	picture	0		115	193.0	/experiments/knapen_AOT/AOT_stimuli/pictures/0454_fw.png	303.49042797088623	0.9968810081481934
195	193.70256090164185	response	0	j		193.0	/experiments/knapen_AOT/AOT_stimuli/pictures/0454_fw.png	304.4374189376831	
196	193.75245094299316	picture	0		121	194.0	/experiments/knapen_AOT/AOT_stimuli/pictures/0981_fw.png	304.4873089790344	1.0379149913787842
196	194.74613189697266	response	0	k		194.0	/experiments/knapen_AOT/AOT_stimuli/pictures/0981_fw.png	305.4809899330139	
197	194.79036593437195	picture	0		107	195.0	/experiments/knapen_AOT/AOT_stimuli/pictures/2147_fw.png	305.5252239704132	0.9375650882720947
197	195.66930985450745	response	0	j		195.0	/experiments/knapen_AOT/AOT_stimuli/pictures/2147_fw.png	306.4041678905487	
198	195.72793102264404	picture	0		97	196.0	/experiments/knapen_AOT/AOT_stimuli/pictures/1744_fw.png	306.4627890586853	0.8412399291992188
198	196.52763199806213	response	0	j		196.0	/experiments/knapen_AOT/AOT_stimuli/pictures/1744_fw.png	307.2624900341034	
199	196.56917095184326	picture	0		90	197.0	/experiments/knapen_AOT/AOT_stimuli/pictures/1781_fw.png	307.3040289878845	0.783336877822876
199	197.31133604049683	response	0	j		197.0	/experiments/knapen_AOT/AOT_stimuli/pictures/1781_fw.png	308.0461940765381	
200	197.35250782966614	picture	0		94	198.0	/experiments/knapen_AOT/AOT_stimuli/pictures/1272_fw.png	308.0873658657074	0.8250000476837158
200	198.12761402130127	response	0	j		198.0	/experiments/knapen_AOT/AOT_stimuli/pictures/1272_fw.png	308.86247205734253	
201	198.17750787734985	picture	0		92	199.0	/experiments/knapen_AOT/AOT_stimuli/pictures/1989_fw.png	308.9123659133911	0.8084800243377686
201	198.9363329410553	response	0	k		199.0	/experiments/knapen_AOT/AOT_stimuli/pictures/1989_fw.png	309.67119097709656	
202	198.98598790168762	picture	0		125	200.0	/experiments/knapen_AOT/AOT_stimuli/pictures/0154_fw.png	309.7208459377289	1.074876070022583
202	200.01977491378784	response	0	k		200.0	/experiments/knapen_AOT/AOT_stimuli/pictures/0154_fw.png	310.7546329498291	
203	200.0608639717102	picture	0		99	201.0	/experiments/knapen_AOT/AOT_stimuli/pictures/2176_fw.png	310.79572200775146	0.8666720390319824
203	200.8776798248291	response	0	k		201.0	/experiments/knapen_AOT/AOT_stimuli/pictures/2176_fw.png	311.61253786087036	
204	200.9275360107422	picture	0		226	202.0	/experiments/knapen_AOT/AOT_stimuli/pictures/0586_fw.png	311.66239404678345	1.9166679382324219
204	202.8027539253235	response	0	k		202.0	/experiments/knapen_AOT/AOT_stimuli/pictures/0586_fw.png	313.53761196136475	
205	202.8442039489746	picture	0		103	203.0	/experiments/knapen_AOT/AOT_stimuli/pictures/0810_fw.png	313.57906198501587	0.8918330669403076
205	203.69443702697754	response	0	j		203.0	/experiments/knapen_AOT/AOT_stimuli/pictures/0810_fw.png	314.4292950630188	
206	203.73603701591492	picture	0		74	204.0	/experiments/knapen_AOT/AOT_stimuli/pictures/1610_fw.png	314.4708950519562	0.6585249900817871
206	204.33772993087769	response	0	j		204.0	/experiments/knapen_AOT/AOT_stimuli/pictures/1610_fw.png	315.07258796691895	
207	204.3945620059967	picture	0		106	205.0	/experiments/knapen_AOT/AOT_stimuli/pictures/0898_fw.png	315.12942004203796	0.9330179691314697
207	205.26987481117249	response	0	k		205.0	/experiments/knapen_AOT/AOT_stimuli/pictures/0898_fw.png	316.00473284721375	
208	205.32757997512817	picture	0		125	206.0	/experiments/knapen_AOT/AOT_stimuli/pictures/0066_fw.png	316.06243801116943	1.0669798851013184
208	206.35477685928345	response	0	j		206.0	/experiments/knapen_AOT/AOT_stimuli/pictures/0066_fw.png	317.0896348953247	
209	206.3945598602295	picture	0		89	207.0	/experiments/knapen_AOT/AOT_stimuli/pictures/1278_fw.png	317.12941789627075	0.7747530937194824
209	207.12775588035583	response	0	j		207.0	/experiments/knapen_AOT/AOT_stimuli/pictures/1278_fw.png	317.8626139163971	
210	207.16931295394897	picture	0		90	208.0	/experiments/knapen_AOT/AOT_stimuli/pictures/1618_fw.png	317.90417098999023	0.7947330474853516
210	207.91121101379395	response	0	j		208.0	/experiments/knapen_AOT/AOT_stimuli/pictures/1618_fw.png	318.6460690498352	
211	207.96404600143433	picture	0		186	209.0	/experiments/knapen_AOT/AOT_stimuli/pictures/0489_fw.png	318.6989040374756	1.6219940185546875
211	209.50281381607056	response	0	j		209.0	/experiments/knapen_AOT/AOT_stimuli/pictures/0489_fw.png	320.2376718521118	
212	209.586040019989	picture	0		143	210.0	/experiments/knapen_AOT/AOT_stimuli/pictures/1669_fw.png	320.3208980560303	1.2333338260650635
212	210.7627968788147	response	0	j		210.0	/experiments/knapen_AOT/AOT_stimuli/pictures/1669_fw.png	321.49765491485596	
213	210.81937384605408	picture	0		114	211.0	/experiments/knapen_AOT/AOT_stimuli/pictures/1304_fw.png	321.55423188209534	0.9780139923095703
213	211.75454902648926	response	0	j		211.0	/experiments/knapen_AOT/AOT_stimuli/pictures/1304_fw.png	322.4894070625305	
214	211.79738783836365	picture	0		110	212.0	/experiments/knapen_AOT/AOT_stimuli/pictures/1606_fw.png	322.5322458744049	1.1736350059509277
214	212.70296502113342	response	0	j		212.0	/experiments/knapen_AOT/AOT_stimuli/pictures/1606_fw.png	323.4378230571747	
215	212.97102284431458	picture	0		102	213.0	/experiments/knapen_AOT/AOT_stimuli/pictures/0071_fw.png	323.70588088035583	0.8751270771026611
215	213.811429977417	response	0	j		213.0	/experiments/knapen_AOT/AOT_stimuli/pictures/0071_fw.png	324.54628801345825	
216	213.84614992141724	picture	0		112	214.0	/experiments/knapen_AOT/AOT_stimuli/pictures/1695_fw.png	324.5810079574585	0.9816699028015137
216	214.76283288002014	response	0	k		214.0	/experiments/knapen_AOT/AOT_stimuli/pictures/1695_fw.png	325.4976909160614	
217	214.82781982421875	picture	0		125	215.0	/experiments/knapen_AOT/AOT_stimuli/pictures/0534_fw.png	325.56267786026	1.0668392181396484
217	215.8613109588623	response	0	k		215.0	/experiments/knapen_AOT/AOT_stimuli/pictures/0534_fw.png	326.59616899490356	
218	215.8946590423584	picture	0		108	216.0	/experiments/knapen_AOT/AOT_stimuli/pictures/0343_fw.png	326.62951707839966	0.9330699443817139
218	216.78635692596436	response	0	k		216.0	/experiments/knapen_AOT/AOT_stimuli/pictures/0343_fw.png	327.5212149620056	
219	216.8277289867401	picture	0		100	217.0	/experiments/knapen_AOT/AOT_stimuli/pictures/1330_fw.png	327.5625870227814	0.8750288486480713
219	217.6530840396881	response	0	k		217.0	/experiments/knapen_AOT/AOT_stimuli/pictures/1330_fw.png	328.38794207572937	
220	217.70275783538818	picture	0		133	218.0	/experiments/knapen_AOT/AOT_stimuli/pictures/1000_fw.png	328.43761587142944	1.1433119773864746
220	218.80297589302063	response	0	k		218.0	/experiments/knapen_AOT/AOT_stimuli/pictures/1000_fw.png	329.5378339290619	
221	218.84606981277466	picture	0		127	219.0	/experiments/knapen_AOT/AOT_stimuli/pictures/0929_fw.png	329.5809278488159	1.106741189956665
221	219.8948700428009	response	0	k		219.0	/experiments/knapen_AOT/AOT_stimuli/pictures/0929_fw.png	330.62972807884216	
222	219.95281100273132	picture	0		101	220.0	/experiments/knapen_AOT/AOT_stimuli/pictures/1739_fw.png	330.6876690387726	0.8515908718109131
222	220.78639698028564	response	0	j		220.0	/experiments/knapen_AOT/AOT_stimuli/pictures/1739_fw.png	331.5212550163269	
223	220.80440187454224	picture	0		104	221.0	/experiments/knapen_AOT/AOT_stimuli/pictures/0253_fw.png	331.5392599105835	0.8984360694885254
223	221.6614170074463	response	0	j		221.0	/experiments/knapen_AOT/AOT_stimuli/pictures/0253_fw.png	332.39627504348755	
224	221.70283794403076	picture	0		105	222.0	/experiments/knapen_AOT/AOT_stimuli/pictures/0777_fw.png	332.437695980072	0.9083631038665771
224	222.5630328655243	response	0	k		222.0	/experiments/knapen_AOT/AOT_stimuli/pictures/0777_fw.png	333.29789090156555	
225	222.61120104789734	picture	0		130	223.0	/experiments/knapen_AOT/AOT_stimuli/pictures/1124_fw.png	333.3460590839386	1.1249678134918213
225	223.6864879131317	response	0	j		223.0	/experiments/knapen_AOT/AOT_stimuli/pictures/1124_fw.png	334.421345949173	
226	223.73616886138916	picture	0		114	224.0	/experiments/knapen_AOT/AOT_stimuli/pictures/1194_fw.png	334.4710268974304	1.0083329677581787
226	224.6781129837036	response	0	j		224.0	/experiments/knapen_AOT/AOT_stimuli/pictures/1194_fw.png	335.4129710197449	
227	224.74450182914734	picture	0		107	225.0	/experiments/knapen_AOT/AOT_stimuli/pictures/1752_fw.png	335.4793598651886	0.9334461688995361
227	225.62804985046387	response	0	k		225.0	/experiments/knapen_AOT/AOT_stimuli/pictures/1752_fw.png	336.3629078865051	
228	225.67794799804688	picture	0		98	226.0	/experiments/knapen_AOT/AOT_stimuli/pictures/1965_fw.png	336.41280603408813	0.8582918643951416
228	226.48649287223816	response	0	k		226.0	/experiments/knapen_AOT/AOT_stimuli/pictures/1965_fw.png	337.2213509082794	
229	226.53623986244202	picture	0		102	227.0	/experiments/knapen_AOT/AOT_stimuli/pictures/1096_fw.png	337.2710978984833	0.8832991123199463
229	227.3780119419098	response	0	k		227.0	/experiments/knapen_AOT/AOT_stimuli/pictures/1096_fw.png	338.11286997795105	
230	227.41953897476196	picture	0		110	228.0	/experiments/knapen_AOT/AOT_stimuli/pictures/0983_fw.png	338.1543970108032	0.9474358558654785
230	228.32816791534424	response	0	j		228.0	/experiments/knapen_AOT/AOT_stimuli/pictures/0983_fw.png	339.0630259513855	
231	228.36697483062744	picture	0		97	229.0	/experiments/knapen_AOT/AOT_stimuli/pictures/0103_fw.png	339.1018328666687	0.8611230850219727
231	229.16986894607544	response	0	j		229.0	/experiments/knapen_AOT/AOT_stimuli/pictures/0103_fw.png	339.9047269821167	
232	229.2280979156494	picture	0		99	230.0	/experiments/knapen_AOT/AOT_stimuli/pictures/0817_fw.png	339.9629559516907	0.8581719398498535
232	230.04473400115967	response	0	k		230.0	/experiments/knapen_AOT/AOT_stimuli/pictures/0817_fw.png	340.7795920372009	
233	230.08626985549927	picture	0		119	231.0	/experiments/knapen_AOT/AOT_stimuli/pictures/0515_fw.png	340.8211278915405	1.024996042251587
233	231.0697958469391	response	0	j		231.0	/experiments/knapen_AOT/AOT_stimuli/pictures/0515_fw.png	341.80465388298035	
234	231.11126589775085	picture	0		130	232.0	/experiments/knapen_AOT/AOT_stimuli/pictures/0462_fw.png	341.8461239337921	1.1333849430084229
234	232.18655395507812	response	0	k		232.0	/experiments/knapen_AOT/AOT_stimuli/pictures/0462_fw.png	342.9214119911194	
235	232.24465084075928	picture	0		161	233.0	/experiments/knapen_AOT/AOT_stimuli/pictures/0591_fw.png	342.97950887680054	1.3834340572357178
235	233.5780999660492	response	0	j		233.0	/experiments/knapen_AOT/AOT_stimuli/pictures/0591_fw.png	344.31295800209045	
236	233.628084897995	picture	0		103	234.0	/experiments/knapen_AOT/AOT_stimuli/pictures/0363_fw.png	344.36294293403625	0.8917059898376465
236	234.47827696800232	response	0	j		234.0	/experiments/knapen_AOT/AOT_stimuli/pictures/0363_fw.png	345.2131350040436	
237	234.51979088783264	picture	0		98	235.0	/experiments/knapen_AOT/AOT_stimuli/pictures/0654_fw.png	345.2546489238739	0.8582320213317871
237	235.3282389640808	response	0	j		235.0	/experiments/knapen_AOT/AOT_stimuli/pictures/0654_fw.png	346.06309700012207	
238	235.37802290916443	picture	0		93	236.0	/experiments/knapen_AOT/AOT_stimuli/pictures/0475_fw.png	346.1128809452057	0.8015251159667969
238	236.13816499710083	response	0	k		236.0	/experiments/knapen_AOT/AOT_stimuli/pictures/0475_fw.png	346.8730230331421	
239	236.17954802513123	picture	0		150	237.0	/experiments/knapen_AOT/AOT_stimuli/pictures/1617_fw.png	346.9144060611725	1.2848339080810547
239	237.41987085342407	response	0	k		237.0	/experiments/knapen_AOT/AOT_stimuli/pictures/1617_fw.png	348.15472888946533	
240	237.46438193321228	picture	0		197	238.0	/experiments/knapen_AOT/AOT_stimuli/pictures/0722_fw.png	348.19923996925354	1.6719779968261719
240	239.09492683410645	response	0	j		238.0	/experiments/knapen_AOT/AOT_stimuli/pictures/0722_fw.png	349.8297848701477	
241	239.13635993003845	picture	0		89	239.0	/experiments/knapen_AOT/AOT_stimuli/pictures/1225_fw.png	349.8712179660797	0.7723751068115234
241	239.86992287635803	response	0	j		239.0	/experiments/knapen_AOT/AOT_stimuli/pictures/1225_fw.png	350.6047809123993	
242	239.90873503684998	picture	0		96	240.0	/experiments/knapen_AOT/AOT_stimuli/pictures/1399_fw.png	350.64359307289124	0.8360309600830078
242	240.7033019065857	response	0	j		240.0	/experiments/knapen_AOT/AOT_stimuli/pictures/1399_fw.png	351.43815994262695	
243	240.74476599693298	picture	0		148	241.0	/experiments/knapen_AOT/AOT_stimuli/pictures/0168_fw.png	351.47962403297424	1.3167450428009033
243	241.9949209690094	response	0	k		241.0	/experiments/knapen_AOT/AOT_stimuli/pictures/0168_fw.png	352.72977900505066	
244	242.0615110397339	picture	0		126	242.0	/experiments/knapen_AOT/AOT_stimuli/pictures/0644_fw.png	352.79636907577515	1.0764009952545166
244	243.10333585739136	response	0	k		242.0	/experiments/knapen_AOT/AOT_stimuli/pictures/0644_fw.png	353.8381938934326	
245	243.1379120349884	picture	0		86	243.0	/experiments/knapen_AOT/AOT_stimuli/pictures/1125_fw.png	353.87277007102966	0.7654159069061279
245	243.84498000144958	response	0	j		243.0	/experiments/knapen_AOT/AOT_stimuli/pictures/1125_fw.png	354.57983803749084	
246	243.90332794189453	picture	0		142	244.0	/experiments/knapen_AOT/AOT_stimuli/pictures/2077_fw.png	354.6381859779358	1.2164790630340576
246	245.0783519744873	response	0	k		244.0	/experiments/knapen_AOT/AOT_stimuli/pictures/2077_fw.png	355.81321001052856	
247	245.1198070049286	picture	0		126	245.0	/experiments/knapen_AOT/AOT_stimuli/pictures/1177_fw.png	355.85466504096985	1.1083238124847412
247	246.15515804290771	response	0	k		245.0	/experiments/knapen_AOT/AOT_stimuli/pictures/1177_fw.png	356.890016078949	
248	246.22813081741333	picture	0		97	246.0	/experiments/knapen_AOT/AOT_stimuli/pictures/1374_fw.png	356.9629888534546	0.8417282104492188
248	247.02827191352844	response	0	k		246.0	/experiments/knapen_AOT/AOT_stimuli/pictures/1374_fw.png	357.7631299495697	
249	247.06985902786255	picture	0		123	247.0	/experiments/knapen_AOT/AOT_stimuli/pictures/0313_fw.png	357.8047170639038	1.075028896331787
249	248.08667182922363	response	0	k		247.0	/experiments/knapen_AOT/AOT_stimuli/pictures/0313_fw.png	358.8215298652649	
250	248.14488792419434	picture	0		138	248.0	/experiments/knapen_AOT/AOT_stimuli/pictures/1441_fw.png	358.8797459602356	1.1833269596099854
250	249.28668999671936	response	0	k		248.0	/experiments/knapen_AOT/AOT_stimuli/pictures/1441_fw.png	360.0215480327606	
251	249.32821488380432	picture	0		93	249.0	/experiments/knapen_AOT/AOT_stimuli/pictures/1401_fw.png	360.0630729198456	0.7890341281890869
251	250.09503984451294	response	0	j		249.0	/experiments/knapen_AOT/AOT_stimuli/pictures/1401_fw.png	360.8298978805542	
252	250.1172490119934	picture	0		84	250.0	/experiments/knapen_AOT/AOT_stimuli/pictures/0115_fw.png	360.85210704803467	0.7776639461517334
252	250.81171202659607	response	0	j		250.0	/experiments/knapen_AOT/AOT_stimuli/pictures/0115_fw.png	361.54657006263733	
253	250.89491295814514	picture	0		89	251.0	/experiments/knapen_AOT/AOT_stimuli/pictures/1559_fw.png	361.6297709941864	0.7709288597106934
253	251.62839102745056	response	0	j		251.0	/experiments/knapen_AOT/AOT_stimuli/pictures/1559_fw.png	362.3632490634918	
254	251.66584181785583	picture	0		99	252.0	/experiments/knapen_AOT/AOT_stimuli/pictures/0881_fw.png	362.4006998538971	0.8623800277709961
254	252.4785668849945	response	0	k		252.0	/experiments/knapen_AOT/AOT_stimuli/pictures/0881_fw.png	363.21342492103577	
255	252.52822184562683	picture	0		103	253.0	/experiments/knapen_AOT/AOT_stimuli/pictures/1246_fw.png	363.2630798816681	0.916741132736206
255	253.37835001945496	response	0	k		253.0	/experiments/knapen_AOT/AOT_stimuli/pictures/1246_fw.png	364.1132080554962	
256	253.44496297836304	picture	0		129	254.0	/experiments/knapen_AOT/AOT_stimuli/pictures/0076_fw.png	364.1798210144043	1.116610050201416
256	254.51186084747314	response	0	j		254.0	/experiments/knapen_AOT/AOT_stimuli/pictures/0076_fw.png	365.2467188835144	
257	254.56157302856445	picture	0		100	255.0	/experiments/knapen_AOT/AOT_stimuli/pictures/1450_fw.png	365.2964310646057	0.8750028610229492
257	255.38671684265137	response	0	k		255.0	/experiments/knapen_AOT/AOT_stimuli/pictures/1450_fw.png	366.1215748786926	
258	255.4365758895874	picture	0		151	256.0	/experiments/knapen_AOT/AOT_stimuli/pictures/1062_fw.png	366.17143392562866	1.3083600997924805
258	256.6868178844452	response	0	j		256.0	/experiments/knapen_AOT/AOT_stimuli/pictures/1062_fw.png	367.42167592048645	
259	256.7449359893799	picture	0		176	257.0	/experiments/knapen_AOT/AOT_stimuli/pictures/0097_fw.png	367.47979402542114	1.5111818313598633
259	258.20346903800964	response	0	j		257.0	/experiments/knapen_AOT/AOT_stimuli/pictures/0097_fw.png	368.9383270740509	
260	258.25611782073975	picture	0		83	258.0	/experiments/knapen_AOT/AOT_stimuli/pictures/1821_fw.png	368.990975856781	0.7500131130218506
260	258.9369339942932	response	0	k		258.0	/experiments/knapen_AOT/AOT_stimuli/pictures/1821_fw.png	369.6717920303345	
261	259.0061309337616	picture	0		115	259.0	/experiments/knapen_AOT/AOT_stimuli/pictures/2062_fw.png	369.74098896980286	0.9888730049133301
261	259.94693398475647	response	0	j		259.0	/experiments/knapen_AOT/AOT_stimuli/pictures/2062_fw.png	370.68179202079773	
262	259.9950039386749	picture	0		89	260.0	/experiments/knapen_AOT/AOT_stimuli/pictures/1331_fw.png	370.7298619747162	0.7751579284667969
262	260.72852182388306	response	0	k		260.0	/experiments/knapen_AOT/AOT_stimuli/pictures/1331_fw.png	371.4633798599243	
263	260.7701618671417	picture	0		98	261.0	/experiments/knapen_AOT/AOT_stimuli/pictures/0719_fw.png	371.505019903183	0.8581891059875488
263	261.5716710090637	response	0	k		261.0	/experiments/knapen_AOT/AOT_stimuli/pictures/0719_fw.png	372.306529045105	
264	261.6283509731293	picture	0		106	262.0	/experiments/knapen_AOT/AOT_stimuli/pictures/0740_fw.png	372.36320900917053	0.9166698455810547
264	262.50358390808105	response	0	k		262.0	/experiments/knapen_AOT/AOT_stimuli/pictures/0740_fw.png	373.2384419441223	
265	262.5450208187103	picture	0		95	263.0	/experiments/knapen_AOT/AOT_stimuli/pictures/1929_fw.png	373.2798788547516	0.8251581192016602
265	263.32853603363037	response	0	k		263.0	/experiments/knapen_AOT/AOT_stimuli/pictures/1929_fw.png	374.06339406967163	
266	263.370178937912	picture	0		111	264.0	/experiments/knapen_AOT/AOT_stimuli/pictures/1497_fw.png	374.10503697395325	0.9582939147949219
266	264.28699803352356	response	0	j		264.0	/experiments/knapen_AOT/AOT_stimuli/pictures/1497_fw.png	375.0218560695648	
267	264.3284728527069	picture	0		134	265.0	/experiments/knapen_AOT/AOT_stimuli/pictures/1364_fw.png	375.06333088874817	1.1707751750946045
267	265.43688797950745	response	0	k		265.0	/experiments/knapen_AOT/AOT_stimuli/pictures/1364_fw.png	376.1717460155487	
268	265.4992480278015	picture	0		83	266.0	/experiments/knapen_AOT/AOT_stimuli/pictures/0813_fw.png	376.2341060638428	0.7291638851165771
268	266.17860889434814	response	0	j		266.0	/experiments/knapen_AOT/AOT_stimuli/pictures/0813_fw.png	376.9134669303894	
269	266.2284119129181	picture	0		104	267.0	/experiments/knapen_AOT/AOT_stimuli/pictures/1269_fw.png	376.96326994895935	0.8958230018615723
269	267.08696389198303	response	0	k		267.0	/experiments/knapen_AOT/AOT_stimuli/pictures/1269_fw.png	377.8218219280243	
270	267.12423491477966	picture	0		106	268.0	/experiments/knapen_AOT/AOT_stimuli/pictures/0058_fw.png	377.8590929508209	0.9125359058380127
270	267.99536204338074	response	0	k		268.0	/experiments/knapen_AOT/AOT_stimuli/pictures/0058_fw.png	378.730220079422	
271	268.0367708206177	picture	0		96	269.0	/experiments/knapen_AOT/AOT_stimuli/pictures/1608_fw.png	378.77162885665894	0.8333621025085449
271	268.82856488227844	response	0	j		269.0	/experiments/knapen_AOT/AOT_stimuli/pictures/1608_fw.png	379.5634229183197	
272	268.8701329231262	picture	0		112	270.0	/experiments/knapen_AOT/AOT_stimuli/pictures/0075_fw.png	379.6049909591675	0.969412088394165
272	269.79539704322815	response	0	j		270.0	/experiments/knapen_AOT/AOT_stimuli/pictures/0075_fw.png	380.5302550792694	
273	269.8395450115204	picture	0		115	271.0	/experiments/knapen_AOT/AOT_stimuli/pictures/1143_fw.png	380.57440304756165	1.013929843902588
273	270.7870798110962	response	0	k		271.0	/experiments/knapen_AOT/AOT_stimuli/pictures/1143_fw.png	381.52193784713745	
274	270.853474855423	picture	0		99	272.0	/experiments/knapen_AOT/AOT_stimuli/pictures/0620_fw.png	381.58833289146423	0.8584380149841309
274	271.67044281959534	response	0	k		272.0	/experiments/knapen_AOT/AOT_stimuli/pictures/0620_fw.png	382.4053008556366	
275	271.7119128704071	picture	0		102	273.0	/experiments/knapen_AOT/AOT_stimuli/pictures/0124_fw.png	382.44677090644836	0.8916511535644531
275	272.54704785346985	response	0	k		273.0	/experiments/knapen_AOT/AOT_stimuli/pictures/0124_fw.png	383.2819058895111	
276	272.60356402397156	picture	0		95	274.0	/experiments/knapen_AOT/AOT_stimuli/pictures/1184_fw.png	383.3384220600128	0.826279878616333
276	273.3869979381561	response	0	k		274.0	/experiments/knapen_AOT/AOT_stimuli/pictures/1184_fw.png	384.1218559741974	
277	273.4298439025879	picture	0		157	275.0	/experiments/knapen_AOT/AOT_stimuli/pictures/0216_fw.png	384.16470193862915	1.3569879531860352
277	274.72858595848083	response	0	k		275.0	/experiments/knapen_AOT/AOT_stimuli/pictures/0216_fw.png	385.4634439945221	
278	274.7868318557739	picture	0		80	276.0	/experiments/knapen_AOT/AOT_stimuli/pictures/1149_fw.png	385.5216898918152	0.6917171478271484
278	275.44540882110596	response	0	j		276.0	/experiments/knapen_AOT/AOT_stimuli/pictures/1149_fw.png	386.1802668571472	
279	275.4785490036011	picture	0		109	277.0	/experiments/knapen_AOT/AOT_stimuli/pictures/1627_fw.png	386.21340703964233	0.9333360195159912
279	276.3786129951477	response	0	k		277.0	/experiments/knapen_AOT/AOT_stimuli/pictures/1627_fw.png	387.11347103118896	
280	276.41188502311707	picture	0		165	278.0	/experiments/knapen_AOT/AOT_stimuli/pictures/0708_fw.png	387.1467430591583	1.4166648387908936
280	277.778666973114	response	0	k		278.0	/experiments/knapen_AOT/AOT_stimuli/pictures/0708_fw.png	388.5135250091553	
281	277.82854986190796	picture	0		97	279.0	/experiments/knapen_AOT/AOT_stimuli/pictures/0854_fw.png	388.5634078979492	0.8583371639251709
281	278.6287109851837	response	0	k		279.0	/experiments/knapen_AOT/AOT_stimuli/pictures/0854_fw.png	389.363569021225	
282	278.68688702583313	picture	0		117	280.0	/experiments/knapen_AOT/AOT_stimuli/pictures/1408_fw.png	389.4217450618744	1.0085139274597168
282	279.6537449359894	response	0	k		280.0	/experiments/knapen_AOT/AOT_stimuli/pictures/1408_fw.png	390.38860297203064	
283	279.69540095329285	picture	0		116	281.0	/experiments/knapen_AOT/AOT_stimuli/pictures/0133_fw.png	390.4302589893341	0.9998819828033447
283	280.65374994277954	response	0	k		281.0	/experiments/knapen_AOT/AOT_stimuli/pictures/0133_fw.png	391.3886079788208	
284	280.6952829360962	picture	0		99	282.0	/experiments/knapen_AOT/AOT_stimuli/pictures/1976_fw.png	391.43014097213745	0.874993085861206
284	281.5122938156128	response	0	k		282.0	/experiments/knapen_AOT/AOT_stimuli/pictures/1976_fw.png	392.24715185165405	
285	281.5702760219574	picture	0		104	283.0	/experiments/knapen_AOT/AOT_stimuli/pictures/0465_fw.png	392.30513405799866	0.9012868404388428
285	282.4287939071655	response	0	k		283.0	/experiments/knapen_AOT/AOT_stimuli/pictures/0465_fw.png	393.1636519432068	
286	282.47156286239624	picture	0		105	284.0	/experiments/knapen_AOT/AOT_stimuli/pictures/1704_fw.png	393.2064208984375	0.9153900146484375
286	283.33725690841675	response	0	j		284.0	/experiments/knapen_AOT/AOT_stimuli/pictures/1704_fw.png	394.072114944458	
287	283.3869528770447	picture	0		80	285.0	/experiments/knapen_AOT/AOT_stimuli/pictures/0680_fw.png	394.12181091308594	0.7027010917663574
287	284.04555892944336	response	0	j		285.0	/experiments/knapen_AOT/AOT_stimuli/pictures/0680_fw.png	394.7804169654846	
288	284.08965396881104	picture	0		161	286.0	/experiments/knapen_AOT/AOT_stimuli/pictures/1756_fw.png	394.8245120048523	1.3750100135803223
288	285.42054986953735	response	0	k		286.0	/experiments/knapen_AOT/AOT_stimuli/pictures/1756_fw.png	396.1554079055786	
289	285.46466398239136	picture	0		98	287.0	/experiments/knapen_AOT/AOT_stimuli/pictures/0771_fw.png	396.1995220184326	0.8473160266876221
289	286.2705328464508	response	0	k		287.0	/experiments/knapen_AOT/AOT_stimuli/pictures/0771_fw.png	397.00539088249207	
290	286.311980009079	picture	0		120	288.0	/experiments/knapen_AOT/AOT_stimuli/pictures/2114_fw.png	397.04683804512024	1.058426856994629
290	287.3038499355316	response	0	k		288.0	/experiments/knapen_AOT/AOT_stimuli/pictures/2114_fw.png	398.0387079715729	
291	287.3704068660736	picture	0		92	289.0	/experiments/knapen_AOT/AOT_stimuli/pictures/1327_fw.png	398.10526490211487	0.8083240985870361
291	288.12883591651917	response	0	k		289.0	/experiments/knapen_AOT/AOT_stimuli/pictures/1327_fw.png	398.8636939525604	
292	288.17873096466064	picture	0		110	290.0	/experiments/knapen_AOT/AOT_stimuli/pictures/0990_fw.png	398.9135890007019	0.9749789237976074
292	289.08729887008667	response	0	j		290.0	/experiments/knapen_AOT/AOT_stimuli/pictures/0990_fw.png	399.82215690612793	
293	289.15370988845825	picture	0		106	291.0	/experiments/knapen_AOT/AOT_stimuli/pictures/0812_fw.png	399.8885679244995	0.9249930381774902
293	290.028892993927	response	0	k		291.0	/experiments/knapen_AOT/AOT_stimuli/pictures/0812_fw.png	400.76375102996826	
294	290.07870292663574	picture	0		84	292.0	/experiments/knapen_AOT/AOT_stimuli/pictures/0010_fw.png	400.813560962677	0.733335018157959
294	290.76387095451355	response	0	k		292.0	/experiments/knapen_AOT/AOT_stimuli/pictures/0010_fw.png	401.4987289905548	
295	290.8120379447937	picture	0		107	293.0	/experiments/knapen_AOT/AOT_stimuli/pictures/1237_fw.png	401.54689598083496	0.9250690937042236
295	291.69566202163696	response	0	j		293.0	/experiments/knapen_AOT/AOT_stimuli/pictures/1237_fw.png	402.4305200576782	
296	291.7371070384979	picture	0		96	294.0	/experiments/knapen_AOT/AOT_stimuli/pictures/1012_fw.png	402.4719650745392	0.8456428050994873
296	292.5289180278778	response	0	k		294.0	/experiments/knapen_AOT/AOT_stimuli/pictures/1012_fw.png	403.26377606391907	
297	292.5827498435974	picture	0		87	295.0	/experiments/knapen_AOT/AOT_stimuli/pictures/0980_fw.png	403.3176078796387	0.7543389797210693
297	293.29567885398865	response	0	j		295.0	/experiments/knapen_AOT/AOT_stimuli/pictures/0980_fw.png	404.0305368900299	
298	293.3370888233185	picture	0		96	296.0	/experiments/knapen_AOT/AOT_stimuli/pictures/1827_fw.png	404.07194685935974	0.8333311080932617
298	294.12901496887207	response	0	k		296.0	/experiments/knapen_AOT/AOT_stimuli/pictures/1827_fw.png	404.86387300491333	
299	294.17041993141174	picture	0		151	297.0	/experiments/knapen_AOT/AOT_stimuli/pictures/0031_fw.png	404.905277967453	1.29168701171875
299	295.42062401771545	response	0	k		297.0	/experiments/knapen_AOT/AOT_stimuli/pictures/0031_fw.png	406.1554820537567	
300	295.4621069431305	picture	0		100	298.0	/experiments/knapen_AOT/AOT_stimuli/pictures/0100_fw.png	406.19696497917175	0.8666999340057373
300	296.287428855896	response	0	j		298.0	/experiments/knapen_AOT/AOT_stimuli/pictures/0100_fw.png	407.02228689193726	
301	296.32880687713623	picture	0		131	299.0	/experiments/knapen_AOT/AOT_stimuli/pictures/1407_fw.png	407.0636649131775	1.1333849430084229
301	297.4124870300293	response	0	k		299.0	/experiments/knapen_AOT/AOT_stimuli/pictures/1407_fw.png	408.14734506607056	
302	297.46219182014465	picture	0		95	300.0	/experiments/knapen_AOT/AOT_stimuli/pictures/1943_fw.png	408.1970498561859	0.8499701023101807
302	298.2706298828125	response	0	k		300.0	/experiments/knapen_AOT/AOT_stimuli/pictures/1943_fw.png	409.00548791885376	
303	298.31216192245483	picture	0		85	301.0	/experiments/knapen_AOT/AOT_stimuli/pictures/0468_fw.png	409.0470199584961	0.7666749954223633
303	299.0124490261078	response	0	j		301.0	/experiments/knapen_AOT/AOT_stimuli/pictures/0468_fw.png	409.74730706214905	
304	299.0788369178772	picture	0		86	302.0	/experiments/knapen_AOT/AOT_stimuli/pictures/2016_fw.png	409.81369495391846	0.7499980926513672
304	299.7874610424042	response	0	j		302.0	/experiments/knapen_AOT/AOT_stimuli/pictures/2016_fw.png	410.52231907844543	
305	299.82883501052856	picture	0		108	303.0	/experiments/knapen_AOT/AOT_stimuli/pictures/1202_fw.png	410.5636930465698	0.9333608150482178
305	300.7206768989563	response	0	j		303.0	/experiments/knapen_AOT/AOT_stimuli/pictures/1202_fw.png	411.45553493499756	
306	300.7621958255768	picture	0		82	304.0	/experiments/knapen_AOT/AOT_stimuli/pictures/0275_fw.png	411.49705386161804	0.7166600227355957
306	301.43733286857605	response	0	j		304.0	/experiments/knapen_AOT/AOT_stimuli/pictures/0275_fw.png	412.1721909046173	
307	301.4788558483124	picture	0		155	305.0	/experiments/knapen_AOT/AOT_stimuli/pictures/1162_fw.png	412.21371388435364	1.3333649635314941
307	302.7556109428406	response	0	k		305.0	/experiments/knapen_AOT/AOT_stimuli/pictures/1162_fw.png	413.49046897888184	
308	302.8122208118439	picture	0		146	306.0	/experiments/knapen_AOT/AOT_stimuli/pictures/2064_fw.png	413.54707884788513	1.2833330631256104
308	304.0206959247589	response	0	k		306.0	/experiments/knapen_AOT/AOT_stimuli/pictures/2064_fw.png	414.75555396080017	
309	304.0955538749695	picture	0		108	307.0	/experiments/knapen_AOT/AOT_stimuli/pictures/1981_fw.png	414.83041191101074	0.9500579833984375
309	304.98749899864197	response	0	j		307.0	/experiments/knapen_AOT/AOT_stimuli/pictures/1981_fw.png	415.7223570346832	
310	305.0456118583679	picture	0		96	308.0	/experiments/knapen_AOT/AOT_stimuli/pictures/2100_fw.png	415.7804698944092	0.8289589881896973
310	305.83750081062317	response	0	j		308.0	/experiments/knapen_AOT/AOT_stimuli/pictures/2100_fw.png	416.57235884666443	
311	305.8745708465576	picture	0		118	309.0	/experiments/knapen_AOT/AOT_stimuli/pictures/0612_fw.png	416.6094288825989	1.0416619777679443
311	306.84589982032776	response	0	j		309.0	/experiments/knapen_AOT/AOT_stimuli/pictures/0612_fw.png	417.580757856369	
312	306.91623282432556	picture	0		102	310.0	/experiments/knapen_AOT/AOT_stimuli/pictures/1609_fw.png	417.6510908603668	0.8888721466064453
312	307.74737882614136	response	0	j		310.0	/experiments/knapen_AOT/AOT_stimuli/pictures/1609_fw.png	418.4822368621826	
313	307.805104970932	picture	0		124	311.0	/experiments/knapen_AOT/AOT_stimuli/pictures/0927_fw.png	418.53996300697327	1.0905170440673828
313	308.82910990715027	response	0	j		311.0	/experiments/knapen_AOT/AOT_stimuli/pictures/0927_fw.png	419.5639679431915	
314	308.8956220149994	picture	0		91	312.0	/experiments/knapen_AOT/AOT_stimuli/pictures/1097_fw.png	419.63048005104065	0.819221019744873
314	309.6458508968353	response	0	k		312.0	/experiments/knapen_AOT/AOT_stimuli/pictures/1097_fw.png	420.3807089328766	
315	309.71484303474426	picture	0		82	313.0	/experiments/knapen_AOT/AOT_stimuli/pictures/1213_fw.png	420.4497010707855	0.7153539657592773
315	310.387521982193	response	0	k		313.0	/experiments/knapen_AOT/AOT_stimuli/pictures/1213_fw.png	421.12238001823425	
316	310.43019700050354	picture	0		114	314.0	/experiments/knapen_AOT/AOT_stimuli/pictures/1644_fw.png	421.1650550365448	0.9999809265136719
316	311.36419892311096	response	0	k		314.0	/experiments/knapen_AOT/AOT_stimuli/pictures/1644_fw.png	422.0990569591522	
317	311.4301779270172	picture	0		102	315.0	/experiments/knapen_AOT/AOT_stimuli/pictures/0830_fw.png	422.1650359630585	0.8821430206298828
317	312.27082681655884	response	0	j		315.0	/experiments/knapen_AOT/AOT_stimuli/pictures/0830_fw.png	423.0056848526001	
318	312.3123209476471	picture	0		101	316.0	/experiments/knapen_AOT/AOT_stimuli/pictures/0522_fw.png	423.04717898368835	0.9000520706176758
318	313.13922095298767	response	0	k		316.0	/experiments/knapen_AOT/AOT_stimuli/pictures/0522_fw.png	423.87407898902893	
319	313.21237301826477	picture	0		157	317.0	/experiments/knapen_AOT/AOT_stimuli/pictures/0705_fw.png	423.94723105430603	1.3705859184265137
319	314.512601852417	response	0	k		317.0	/experiments/knapen_AOT/AOT_stimuli/pictures/0705_fw.png	425.24745988845825	
320	314.5829589366913	picture	0		168	318.0	/experiments/knapen_AOT/AOT_stimuli/pictures/2177_fw.png	425.31781697273254	1.4460809230804443
320	315.9710199832916	response	0	k		318.0	/experiments/knapen_AOT/AOT_stimuli/pictures/2177_fw.png	426.7058780193329	
321	316.02903985977173	picture	0		104	319.0	/experiments/knapen_AOT/AOT_stimuli/pictures/1126_fw.png	426.763897895813	0.8942601680755615
321	316.8876988887787	response	0	k		319.0	/experiments/knapen_AOT/AOT_stimuli/pictures/1126_fw.png	427.62255692481995	
322	316.9233000278473	picture	0		205	320.0	/experiments/knapen_AOT/AOT_stimuli/pictures/0592_fw.png	427.65815806388855	1.7391459941864014
322	318.6210539340973	response	0	k		320.0	/experiments/knapen_AOT/AOT_stimuli/pictures/0592_fw.png	429.35591197013855	
323	318.6624460220337	picture	0		91	321.0	/experiments/knapen_AOT/AOT_stimuli/pictures/1413_fw.png	429.39730405807495	0.8025259971618652
323	319.41263794898987	response	0	k		321.0	/experiments/knapen_AOT/AOT_stimuli/pictures/1413_fw.png	430.1474959850311	
324	319.46497201919556	picture	0		82	322.0	/experiments/knapen_AOT/AOT_stimuli/pictures/0850_fw.png	430.1998300552368	0.7153019905090332
324	320.13098788261414	response	0	j		322.0	/experiments/knapen_AOT/AOT_stimuli/pictures/0850_fw.png	430.8658459186554	
325	320.1802740097046	picture	0		89	323.0	/experiments/knapen_AOT/AOT_stimuli/pictures/0453_fw.png	430.91513204574585	0.7738378047943115
325	320.91256189346313	response	0	j		323.0	/experiments/knapen_AOT/AOT_stimuli/pictures/0453_fw.png	431.6474199295044	
326	320.9541118144989	picture	0		94	324.0	/experiments/knapen_AOT/AOT_stimuli/pictures/0537_fw.png	431.68896985054016	0.8333680629730225
326	321.7292230129242	response	0	k		324.0	/experiments/knapen_AOT/AOT_stimuli/pictures/0537_fw.png	432.46408104896545	
327	321.7874798774719	picture	0		109	325.0	/experiments/knapen_AOT/AOT_stimuli/pictures/0700_fw.png	432.5223379135132	0.9500160217285156
327	322.68756794929504	response	0	j		325.0	/experiments/knapen_AOT/AOT_stimuli/pictures/0700_fw.png	433.4224259853363	
328	322.73749589920044	picture	0		83	326.0	/experiments/knapen_AOT/AOT_stimuli/pictures/0389_fw.png	433.4723539352417	0.734403133392334
328	323.42110681533813	response	0	j		326.0	/experiments/knapen_AOT/AOT_stimuli/pictures/0389_fw.png	434.1559648513794	
329	323.4718990325928	picture	0		72	327.0	/experiments/knapen_AOT/AOT_stimuli/pictures/0084_fw.png	434.20675706863403	0.6322968006134033
329	324.0626199245453	response	0	j		327.0	/experiments/knapen_AOT/AOT_stimuli/pictures/0084_fw.png	434.79747796058655	
330	324.1041958332062	picture	0		147	328.0	/experiments/knapen_AOT/AOT_stimuli/pictures/2066_fw.png	434.83905386924744	1.2916932106018066
330	325.32113790512085	response	0	j		328.0	/experiments/knapen_AOT/AOT_stimuli/pictures/2066_fw.png	436.0559959411621	
331	325.395889043808	picture	0		92	329.0	/experiments/knapen_AOT/AOT_stimuli/pictures/2056_fw.png	436.13074707984924	0.7999768257141113
331	326.1476318836212	response	0	k		329.0	/experiments/knapen_AOT/AOT_stimuli/pictures/2056_fw.png	436.8824899196625	
332	326.1958658695221	picture	0		95	330.0	/experiments/knapen_AOT/AOT_stimuli/pictures/0939_fw.png	436.93072390556335	0.8500299453735352
332	326.9793689250946	response	0	k		330.0	/experiments/knapen_AOT/AOT_stimuli/pictures/0939_fw.png	437.71422696113586	
333	327.04589581489563	picture	0		96	331.0	/experiments/knapen_AOT/AOT_stimuli/pictures/0731_fw.png	437.7807538509369	0.9333162307739258
333	327.8377938270569	response	0	k		331.0	/experiments/knapen_AOT/AOT_stimuli/pictures/0731_fw.png	438.57265186309814	
334	327.97921204566956	picture	0		93	332.0	/experiments/knapen_AOT/AOT_stimuli/pictures/0672_fw.png	438.7140700817108	0.808337926864624
334	328.73941802978516	response	0	k		332.0	/experiments/knapen_AOT/AOT_stimuli/pictures/0672_fw.png	439.4742760658264	
335	328.7875499725342	picture	0		112	333.0	/experiments/knapen_AOT/AOT_stimuli/pictures/1548_fw.png	439.52240800857544	0.9666810035705566
335	329.7128109931946	response	0	k		333.0	/experiments/knapen_AOT/AOT_stimuli/pictures/1548_fw.png	440.44766902923584	
336	329.75423097610474	picture	0		89	334.0	/experiments/knapen_AOT/AOT_stimuli/pictures/1222_fw.png	440.489089012146	0.7833969593048096
336	330.4878578186035	response	0	k		334.0	/experiments/knapen_AOT/AOT_stimuli/pictures/1222_fw.png	441.2227158546448	
337	330.53762793540955	picture	0		104	335.0	/experiments/knapen_AOT/AOT_stimuli/pictures/1061_fw.png	441.2724859714508	0.9083209037780762
337	331.39617395401	response	0	k		335.0	/experiments/knapen_AOT/AOT_stimuli/pictures/1061_fw.png	442.13103199005127	
338	331.4459488391876	picture	0		84	336.0	/experiments/knapen_AOT/AOT_stimuli/pictures/2087_fw.png	442.1808068752289	0.7416629791259766
338	332.1310169696808	response	0	k		336.0	/experiments/knapen_AOT/AOT_stimuli/pictures/2087_fw.png	442.86587500572205	
339	332.1876118183136	picture	0		88	337.0	/experiments/knapen_AOT/AOT_stimuli/pictures/1385_fw.png	442.92246985435486	0.7667021751403809
339	332.912850856781	response	0	k		337.0	/experiments/knapen_AOT/AOT_stimuli/pictures/1385_fw.png	443.64770889282227	
340	332.954313993454	picture	0		83	338.0	/experiments/knapen_AOT/AOT_stimuli/pictures/1811_fw.png	443.68917202949524	0.7607450485229492
340	333.637818813324	response	0	j		338.0	/experiments/knapen_AOT/AOT_stimuli/pictures/1811_fw.png	444.37267684936523	
341	333.71505904197693	picture	0		130	339.0	/experiments/knapen_AOT/AOT_stimuli/pictures/0972_fw.png	444.4499170780182	1.1475729942321777
341	334.78781294822693	response	0	k		339.0	/experiments/knapen_AOT/AOT_stimuli/pictures/0972_fw.png	445.5226709842682	
342	334.8626320362091	picture	0		112	340.0	/experiments/knapen_AOT/AOT_stimuli/pictures/1158_fw.png	445.59749007225037	0.9500179290771484
342	335.7879128456116	response	0	k		340.0	/experiments/knapen_AOT/AOT_stimuli/pictures/1158_fw.png	446.52277088165283	
343	335.81264996528625	picture	0		91	341.0	/experiments/knapen_AOT/AOT_stimuli/pictures/1605_fw.png	446.5475080013275	0.8084208965301514
343	336.55614495277405	response	0	j		341.0	/experiments/knapen_AOT/AOT_stimuli/pictures/1605_fw.png	447.2910029888153	
344	336.6210708618164	picture	0		97	342.0	/experiments/knapen_AOT/AOT_stimuli/pictures/1384_fw.png	447.35592889785767	0.8499569892883301
344	337.4212999343872	response	0	j		342.0	/experiments/knapen_AOT/AOT_stimuli/pictures/1384_fw.png	448.15615797042847	
345	337.47102785110474	picture	0		112	343.0	/experiments/knapen_AOT/AOT_stimuli/pictures/0721_fw.png	448.205885887146	1.0010039806365967
345	338.3963038921356	response	0	k		343.0	/experiments/knapen_AOT/AOT_stimuli/pictures/0721_fw.png	449.1311619281769	
346	338.47203183174133	picture	0		92	344.0	/experiments/knapen_AOT/AOT_stimuli/pictures/2041_fw.png	449.2068898677826	0.8073360919952393
346	339.2295489311218	response	0	k		344.0	/experiments/knapen_AOT/AOT_stimuli/pictures/2041_fw.png	449.9644069671631	
347	339.2793679237366	picture	0		85	345.0	/experiments/knapen_AOT/AOT_stimuli/pictures/2054_fw.png	450.01422595977783	0.7500090599060059
347	339.9794828891754	response	0	k		345.0	/experiments/knapen_AOT/AOT_stimuli/pictures/2054_fw.png	450.7143409252167	
348	340.0293769836426	picture	0		90	346.0	/experiments/knapen_AOT/AOT_stimuli/pictures/1453_fw.png	450.76423501968384	0.7916719913482666
348	340.7644820213318	response	0	j		346.0	/experiments/knapen_AOT/AOT_stimuli/pictures/1453_fw.png	451.49934005737305	
349	340.82104897499084	picture	0		128	347.0	/experiments/knapen_AOT/AOT_stimuli/pictures/1231_fw.png	451.5559070110321	1.1167259216308594
349	341.8796088695526	response	0	j		347.0	/experiments/knapen_AOT/AOT_stimuli/pictures/1231_fw.png	452.6144669055939	
350	341.9377748966217	picture	0		99	348.0	/experiments/knapen_AOT/AOT_stimuli/pictures/0505_fw.png	452.67263293266296	0.895535945892334
350	342.74788784980774	response	0	j		348.0	/experiments/knapen_AOT/AOT_stimuli/pictures/0505_fw.png	453.482745885849	
351	342.83331084251404	picture	0		126	349.0	/experiments/knapen_AOT/AOT_stimuli/pictures/2082_fw.png	453.5681688785553	1.0901551246643066
351	343.8714008331299	response	0	k		349.0	/experiments/knapen_AOT/AOT_stimuli/pictures/2082_fw.png	454.60625886917114	
352	343.92346596717834	picture	0		100	350.0	/experiments/knapen_AOT/AOT_stimuli/pictures/0936_fw.png	454.6583240032196	1.030972957611084
352	344.7396788597107	response	0	k		350.0	/experiments/knapen_AOT/AOT_stimuli/pictures/0936_fw.png	455.47453689575195	
353	344.95443892478943	picture	0		128	351.0	/experiments/knapen_AOT/AOT_stimuli/pictures/0640_fw.png	455.6892969608307	1.1084721088409424
353	346.01310992240906	response	0	k		351.0	/experiments/knapen_AOT/AOT_stimuli/pictures/0640_fw.png	456.7479679584503	
354	346.06291103363037	picture	0		102	352.0	/experiments/knapen_AOT/AOT_stimuli/pictures/0628_fw.png	456.79776906967163	0.883234977722168
354	346.9047088623047	response	0	k		352.0	/experiments/knapen_AOT/AOT_stimuli/pictures/0628_fw.png	457.63956689834595	
355	346.94614601135254	picture	0		84	353.0	/experiments/knapen_AOT/AOT_stimuli/pictures/1313_fw.png	457.6810040473938	0.7416598796844482
355	347.63808703422546	response	0	j		353.0	/experiments/knapen_AOT/AOT_stimuli/pictures/1313_fw.png	458.3729450702667	
356	347.687805891037	picture	0		87	354.0	/experiments/knapen_AOT/AOT_stimuli/pictures/0333_fw.png	458.42266392707825	0.7666950225830078
356	348.4046640396118	response	0	k		354.0	/experiments/knapen_AOT/AOT_stimuli/pictures/0333_fw.png	459.1395220756531	
357	348.45450091362	picture	0		160	355.0	/experiments/knapen_AOT/AOT_stimuli/pictures/0039_fw.png	459.18935894966125	1.3856661319732666
357	349.7796149253845	response	0	j		355.0	/experiments/knapen_AOT/AOT_stimuli/pictures/0039_fw.png	460.5144729614258	
358	349.84016704559326	picture	0		113	356.0	/experiments/knapen_AOT/AOT_stimuli/pictures/0169_fw.png	460.5750250816345	0.9811289310455322
358	350.77130484580994	response	0	k		356.0	/experiments/knapen_AOT/AOT_stimuli/pictures/0169_fw.png	461.5061628818512	
359	350.8212959766388	picture	0		99	357.0	/experiments/knapen_AOT/AOT_stimuli/pictures/2103_fw.png	461.55615401268005	0.8666949272155762
359	351.6380989551544	response	0	k		357.0	/experiments/knapen_AOT/AOT_stimuli/pictures/2103_fw.png	462.3729569911957	
360	351.68799090385437	picture	0		89	358.0	/experiments/knapen_AOT/AOT_stimuli/pictures/2145_fw.png	462.42284893989563	0.7841789722442627
360	352.4215178489685	response	0	j		358.0	/experiments/knapen_AOT/AOT_stimuli/pictures/2145_fw.png	463.15637588500977	
361	352.47216987609863	picture	0		157	359.0	/experiments/knapen_AOT/AOT_stimuli/pictures/0032_fw.png	463.2070279121399	1.3610670566558838
361	353.7646310329437	response	0	k		359.0	/experiments/knapen_AOT/AOT_stimuli/pictures/0032_fw.png	464.499489068985	
362	353.8332369327545	stim	0		521			464.5680949687958	4.379723072052002
362	358.16084003448486	response	0	space				468.8956980705261	
