trial_nr	onset	event_type	phase	response	nr_frames	picture_index	picture_file	onset_abs	duration
0	0.21436595916748047	stim	0		864			112.08939409255981	7.216701030731201
0	7.414791107177734	response	0	space				119.28981924057007	
2	7.431066989898682	picture	0		129	0.0	/experiments/knapen_AOT/AOT_stimuli/pictures/0756_fw.png	119.30609512329102	1.0852489471435547
2	8.501743078231812	response	0	k		0.0	/experiments/knapen_AOT/AOT_stimuli/pictures/0756_fw.png	120.37677121162415	
3	8.516315937042236	picture	0		138	1.0	/experiments/knapen_AOT/AOT_stimuli/pictures/0744_fw.png	120.39134407043457	1.1920020580291748
3	9.697990894317627	response	0	k		1.0	/experiments/knapen_AOT/AOT_stimuli/pictures/0744_fw.png	121.57301902770996	
4	9.708317995071411	picture	0		114	2.0	/experiments/knapen_AOT/AOT_stimuli/pictures/1999_fw.png	121.58334612846375	0.9514060020446777
4	10.641132116317749	response	0	j		2.0	/experiments/knapen_AOT/AOT_stimuli/pictures/1999_fw.png	122.51616024971008	
5	10.659723997116089	picture	0		109	3.0	/experiments/knapen_AOT/AOT_stimuli/pictures/0709_fw.png	122.53475213050842	0.9097230434417725
5	11.55626893043518	response	0	k		3.0	/experiments/knapen_AOT/AOT_stimuli/pictures/0709_fw.png	123.43129706382751	
6	11.569447040557861	picture	0		95	4.0	/experiments/knapen_AOT/AOT_stimuli/pictures/0873_fw.png	123.4444751739502	0.7987010478973389
6	12.356327056884766	response	0	j		4.0	/experiments/knapen_AOT/AOT_stimuli/pictures/0873_fw.png	124.2313551902771	
7	12.3681480884552	picture	0		138	5.0	/experiments/knapen_AOT/AOT_stimuli/pictures/1301_fw.png	124.24317622184753	1.1462929248809814
7	13.506372928619385	response	0	k		5.0	/experiments/knapen_AOT/AOT_stimuli/pictures/1301_fw.png	125.38140106201172	
8	13.514441013336182	picture	0		99	6.0	/experiments/knapen_AOT/AOT_stimuli/pictures/1431_fw.png	125.38946914672852	0.8259170055389404
8	14.331329107284546	response	0	j		6.0	/experiments/knapen_AOT/AOT_stimuli/pictures/1431_fw.png	126.20635724067688	
9	14.340358018875122	picture	0		188	7.0	/experiments/knapen_AOT/AOT_stimuli/pictures/0596_fw.png	126.21538615226746	1.569295883178711
9	15.89808702468872	response	0	j		7.0	/experiments/knapen_AOT/AOT_stimuli/pictures/0596_fw.png	127.77311515808105	
10	15.909653902053833	picture	0		89	8.0	/experiments/knapen_AOT/AOT_stimuli/pictures/1122_fw.png	127.78468203544617	0.7431449890136719
10	16.633076906204224	response	0	j		8.0	/experiments/knapen_AOT/AOT_stimuli/pictures/1122_fw.png	128.50810503959656	
11	16.652798891067505	picture	0		97	9.0	/experiments/knapen_AOT/AOT_stimuli/pictures/0087_fw.png	128.52782702445984	0.8126111030578613
11	17.456290006637573	response	0	j		9.0	/experiments/knapen_AOT/AOT_stimuli/pictures/0087_fw.png	129.3313181400299	
12	17.465409994125366	picture	0		94	10.0	/experiments/knapen_AOT/AOT_stimuli/pictures/0513_fw.png	129.3404381275177	0.7846939563751221
12	18.233032941818237	response	0	k		10.0	/experiments/knapen_AOT/AOT_stimuli/pictures/0513_fw.png	130.10806107521057	
13	18.25010395050049	picture	0		152	11.0	/experiments/knapen_AOT/AOT_stimuli/pictures/0022_fw.png	130.12513208389282	1.2644171714782715
13	19.50658106803894	response	0	j		11.0	/experiments/knapen_AOT/AOT_stimuli/pictures/0022_fw.png	131.38160920143127	
14	19.51452112197876	picture	0		141	12.0	/experiments/knapen_AOT/AOT_stimuli/pictures/1126_fw.png	131.3895492553711	1.1800618171691895
14	20.681457996368408	response	0	k		12.0	/experiments/knapen_AOT/AOT_stimuli/pictures/1126_fw.png	132.55648612976074	
15	20.69458293914795	picture	0		113	13.0	/experiments/knapen_AOT/AOT_stimuli/pictures/1375_fw.png	132.56961107254028	0.9449529647827148
15	21.624823093414307	response	0	j		13.0	/experiments/knapen_AOT/AOT_stimuli/pictures/1375_fw.png	133.49985122680664	
16	21.639535903930664	picture	0		106	14.0	/experiments/knapen_AOT/AOT_stimuli/pictures/1041_fw.png	133.514564037323	0.8883101940155029
16	22.514705896377563	response	0	k		14.0	/experiments/knapen_AOT/AOT_stimuli/pictures/1041_fw.png	134.3897340297699	
17	22.527846097946167	picture	0		87	15.0	/experiments/knapen_AOT/AOT_stimuli/pictures/2064_fw.png	134.4028742313385	0.7291848659515381
17	23.248071908950806	response	0	k		15.0	/experiments/knapen_AOT/AOT_stimuli/pictures/2064_fw.png	135.12310004234314	
18	23.257030963897705	picture	0		90	16.0	/experiments/knapen_AOT/AOT_stimuli/pictures/1914_fw.png	135.13205909729004	0.750115156173706
18	23.998070001602173	response	0	j		16.0	/experiments/knapen_AOT/AOT_stimuli/pictures/1914_fw.png	135.8730981349945	
19	24.00714612007141	picture	0		80	17.0	/experiments/knapen_AOT/AOT_stimuli/pictures/0563_fw.png	135.88217425346375	0.6824707984924316
19	24.66468596458435	response	0	k		17.0	/experiments/knapen_AOT/AOT_stimuli/pictures/0563_fw.png	136.53971409797668	
20	24.689616918563843	picture	0		129	18.0	/experiments/knapen_AOT/AOT_stimuli/pictures/2168_fw.png	136.56464505195618	1.0749871730804443
20	25.75647211074829	response	0	k		18.0	/experiments/knapen_AOT/AOT_stimuli/pictures/2168_fw.png	137.63150024414062	
21	25.764604091644287	picture	0		117	19.0	/experiments/knapen_AOT/AOT_stimuli/pictures/2013_fw.png	137.63963222503662	0.9785609245300293
21	26.731625080108643	response	0	j		19.0	/experiments/knapen_AOT/AOT_stimuli/pictures/2013_fw.png	138.60665321350098	
22	26.743165016174316	picture	0		103	20.0	/experiments/knapen_AOT/AOT_stimuli/pictures/2005_fw.png	138.61819314956665	0.854780912399292
22	27.590615034103394	response	0	k		20.0	/experiments/knapen_AOT/AOT_stimuli/pictures/2005_fw.png	139.46564316749573	
23	27.59794592857361	picture	0		103	21.0	/experiments/knapen_AOT/AOT_stimuli/pictures/1866_fw.png	139.47297406196594	0.8605000972747803
23	28.44816493988037	response	0	j		21.0	/experiments/knapen_AOT/AOT_stimuli/pictures/1866_fw.png	140.3231930732727	
24	28.45844602584839	picture	0		83	22.0	/experiments/knapen_AOT/AOT_stimuli/pictures/0605_fw.png	140.33347415924072	0.6945929527282715
24	29.13978099822998	response	0	j		22.0	/experiments/knapen_AOT/AOT_stimuli/pictures/0605_fw.png	141.01480913162231	
25	29.15303897857666	picture	0		88	23.0	/experiments/knapen_AOT/AOT_stimuli/pictures/2176_fw.png	141.028067111969	0.7366080284118652
25	29.88152003288269	response	0	k		23.0	/experiments/knapen_AOT/AOT_stimuli/pictures/2176_fw.png	141.75654816627502	
26	29.889647006988525	picture	0		101	24.0	/experiments/knapen_AOT/AOT_stimuli/pictures/0886_fw.png	141.76467514038086	0.846764087677002
26	30.723278045654297	response	0	j		24.0	/experiments/knapen_AOT/AOT_stimuli/pictures/0886_fw.png	142.59830617904663	
27	30.736411094665527	picture	0		95	25.0	/experiments/knapen_AOT/AOT_stimuli/pictures/1752_fw.png	142.61143922805786	0.7984569072723389
27	31.523207902908325	response	0	k		25.0	/experiments/knapen_AOT/AOT_stimuli/pictures/1752_fw.png	143.39823603630066	
28	31.534868001937866	picture	0		83	26.0	/experiments/knapen_AOT/AOT_stimuli/pictures/1344_fw.png	143.4098961353302	0.6943590641021729
28	32.20802593231201	response	0	k		26.0	/experiments/knapen_AOT/AOT_stimuli/pictures/1344_fw.png	144.08305406570435	
29	32.22922706604004	picture	0		91	27.0	/experiments/knapen_AOT/AOT_stimuli/pictures/1837_fw.png	144.10425519943237	0.7640190124511719
29	32.98161196708679	response	0	j		27.0	/experiments/knapen_AOT/AOT_stimuli/pictures/1837_fw.png	144.85664010047913	
30	32.99324607849121	picture	0		90	28.0	/experiments/knapen_AOT/AOT_stimuli/pictures/0188_fw.png	144.86827421188354	0.7500309944152832
30	33.7316780090332	response	0	k		28.0	/experiments/knapen_AOT/AOT_stimuli/pictures/0188_fw.png	145.60670614242554	
31	33.743277072906494	picture	0		119	29.0	/experiments/knapen_AOT/AOT_stimuli/pictures/0126_fw.png	145.61830520629883	1.0068860054016113
31	34.73986601829529	response	0	j		29.0	/experiments/knapen_AOT/AOT_stimuli/pictures/0126_fw.png	146.61489415168762	
32	34.750163078308105	picture	0		99	30.0	/experiments/knapen_AOT/AOT_stimuli/pictures/0348_fw.png	146.62519121170044	0.8264398574829102
32	35.564882040023804	response	0	j		30.0	/experiments/knapen_AOT/AOT_stimuli/pictures/0348_fw.png	147.43991017341614	
33	35.576602935791016	picture	0		102	31.0	/experiments/knapen_AOT/AOT_stimuli/pictures/1572_fw.png	147.45163106918335	0.8471770286560059
33	36.408201932907104	response	0	k		31.0	/experiments/knapen_AOT/AOT_stimuli/pictures/1572_fw.png	148.28323006629944	
34	36.42377996444702	picture	0		82	32.0	/experiments/knapen_AOT/AOT_stimuli/pictures/2065_fw.png	148.29880809783936	0.6876480579376221
34	37.09836506843567	response	0	k		32.0	/experiments/knapen_AOT/AOT_stimuli/pictures/2065_fw.png	148.973393201828	
35	37.111428022384644	picture	0		96	33.0	/experiments/knapen_AOT/AOT_stimuli/pictures/1308_fw.png	148.98645615577698	0.7985348701477051
35	37.89831209182739	response	0	k		33.0	/experiments/knapen_AOT/AOT_stimuli/pictures/1308_fw.png	149.77334022521973	
36	37.90996289253235	picture	0		100	34.0	/experiments/knapen_AOT/AOT_stimuli/pictures/1331_fw.png	149.78499102592468	0.8333292007446289
36	38.73160696029663	response	0	j		34.0	/experiments/knapen_AOT/AOT_stimuli/pictures/1331_fw.png	150.60663509368896	
37	38.74329209327698	picture	0		93	35.0	/experiments/knapen_AOT/AOT_stimuli/pictures/1246_fw.png	150.6183202266693	0.7778398990631104
37	39.50739789009094	response	0	k		35.0	/experiments/knapen_AOT/AOT_stimuli/pictures/1246_fw.png	151.38242602348328	
38	39.52113199234009	picture	0		108	36.0	/experiments/knapen_AOT/AOT_stimuli/pictures/1144_fw.png	151.39616012573242	0.9028511047363281
38	40.40834093093872	response	0	k		36.0	/experiments/knapen_AOT/AOT_stimuli/pictures/1144_fw.png	152.28336906433105	
39	40.423983097076416	picture	0		96	37.0	/experiments/knapen_AOT/AOT_stimuli/pictures/0658_fw.png	152.29901123046875	0.7991948127746582
39	41.21499800682068	response	0	k		37.0	/experiments/knapen_AOT/AOT_stimuli/pictures/0658_fw.png	153.090026140213	
40	41.223177909851074	picture	0		95	38.0	/experiments/knapen_AOT/AOT_stimuli/pictures/0929_fw.png	153.0982060432434	0.7979540824890137
40	41.99985098838806	response	0	k		38.0	/experiments/knapen_AOT/AOT_stimuli/pictures/0929_fw.png	153.8748791217804	
41	42.02113199234009	picture	0		125	39.0	/experiments/knapen_AOT/AOT_stimuli/pictures/0409_fw.png	153.89616012573242	1.0485360622406006
41	43.05665397644043	response	0	j		39.0	/experiments/knapen_AOT/AOT_stimuli/pictures/0409_fw.png	154.93168210983276	
42	43.06966805458069	picture	0		121	40.0	/experiments/knapen_AOT/AOT_stimuli/pictures/1682_fw.png	154.94469618797302	1.0069680213928223
42	44.065062046051025	response	0	j		40.0	/experiments/knapen_AOT/AOT_stimuli/pictures/1682_fw.png	155.94009017944336	
43	44.07663607597351	picture	0		84	41.0	/experiments/knapen_AOT/AOT_stimuli/pictures/1225_fw.png	155.95166420936584	0.7014749050140381
43	44.75910305976868	response	0	k		41.0	/experiments/knapen_AOT/AOT_stimuli/pictures/1225_fw.png	156.634131193161	
44	44.77811098098755	picture	0		92	42.0	/experiments/knapen_AOT/AOT_stimuli/pictures/0157_fw.png	156.65313911437988	0.7708449363708496
44	45.540127992630005	response	0	k		42.0	/experiments/knapen_AOT/AOT_stimuli/pictures/0157_fw.png	157.41515612602234	
45	45.5489559173584	picture	0		93	43.0	/experiments/knapen_AOT/AOT_stimuli/pictures/1643_fw.png	157.42398405075073	0.7777090072631836
45	46.31504988670349	response	0	j		43.0	/experiments/knapen_AOT/AOT_stimuli/pictures/1643_fw.png	158.19007802009583	
46	46.32666492462158	picture	0		109	44.0	/experiments/knapen_AOT/AOT_stimuli/pictures/0193_fw.png	158.20169305801392	0.9098310470581055
46	47.22350311279297	response	0	j		44.0	/experiments/knapen_AOT/AOT_stimuli/pictures/0193_fw.png	159.0985312461853	
47	47.23649597167969	picture	0		89	45.0	/experiments/knapen_AOT/AOT_stimuli/pictures/2052_fw.png	159.11152410507202	0.7500009536743164
47	47.967292070388794	response	0	j		45.0	/experiments/knapen_AOT/AOT_stimuli/pictures/2052_fw.png	159.84232020378113	
48	47.986496925354004	picture	0		95	46.0	/experiments/knapen_AOT/AOT_stimuli/pictures/0530_fw.png	159.86152505874634	0.7915971279144287
48	48.75899791717529	response	0	j		46.0	/experiments/knapen_AOT/AOT_stimuli/pictures/0530_fw.png	160.63402605056763	
49	48.77809405326843	picture	0		91	47.0	/experiments/knapen_AOT/AOT_stimuli/pictures/0481_fw.png	160.65312218666077	0.7638740539550781
49	49.531721115112305	response	0	j		47.0	/experiments/knapen_AOT/AOT_stimuli/pictures/0481_fw.png	161.40674924850464	
50	49.54196810722351	picture	0		95	48.0	/experiments/knapen_AOT/AOT_stimuli/pictures/0217_fw.png	161.41699624061584	0.7916498184204102
50	50.32342505455017	response	0	k		48.0	/experiments/knapen_AOT/AOT_stimuli/pictures/0217_fw.png	162.1984531879425	
51	50.33361792564392	picture	0		110	49.0	/experiments/knapen_AOT/AOT_stimuli/pictures/1938_fw.png	162.20864605903625	0.9167170524597168
51	51.2400848865509	response	0	k		49.0	/experiments/knapen_AOT/AOT_stimuli/pictures/1938_fw.png	163.11511301994324	
52	51.25033497810364	picture	0		96	50.0	/experiments/knapen_AOT/AOT_stimuli/pictures/0954_fw.png	163.12536311149597	0.7986409664154053
52	52.040077924728394	response	0	j		50.0	/experiments/knapen_AOT/AOT_stimuli/pictures/0954_fw.png	163.91510605812073	
53	52.04897594451904	picture	0		95	51.0	/experiments/knapen_AOT/AOT_stimuli/pictures/1724_fw.png	163.92400407791138	0.7916150093078613
53	52.831804037094116	response	0	j		51.0	/experiments/knapen_AOT/AOT_stimuli/pictures/1724_fw.png	164.70683217048645	
54	52.840590953826904	picture	0		101	52.0	/experiments/knapen_AOT/AOT_stimuli/pictures/1765_fw.png	164.71561908721924	0.847210168838501
54	53.674169063568115	response	0	k		52.0	/experiments/knapen_AOT/AOT_stimuli/pictures/1765_fw.png	165.54919719696045	
55	53.687801122665405	picture	0		83	53.0	/experiments/knapen_AOT/AOT_stimuli/pictures/0781_fw.png	165.56282925605774	0.6945018768310547
55	54.3669331073761	response	0	j		53.0	/experiments/knapen_AOT/AOT_stimuli/pictures/0781_fw.png	166.24196124076843	
56	54.38230299949646	picture	0		93	54.0	/experiments/knapen_AOT/AOT_stimuli/pictures/1747_fw.png	166.2573311328888	0.7778398990631104
56	55.148561000823975	response	0	j		54.0	/experiments/knapen_AOT/AOT_stimuli/pictures/1747_fw.png	167.0235891342163	
57	55.16014289855957	picture	0		128	55.0	/experiments/knapen_AOT/AOT_stimuli/pictures/0831_fw.png	167.0351710319519	1.069378137588501
57	56.21575403213501	response	0	j		55.0	/experiments/knapen_AOT/AOT_stimuli/pictures/0831_fw.png	168.09078216552734	
58	56.22952103614807	picture	0		115	56.0	/experiments/knapen_AOT/AOT_stimuli/pictures/1109_fw.png	168.1045491695404	0.965256929397583
58	57.17565894126892	response	0	k		56.0	/experiments/knapen_AOT/AOT_stimuli/pictures/1109_fw.png	169.05068707466125	
59	57.194777965545654	picture	0		82	57.0	/experiments/knapen_AOT/AOT_stimuli/pictures/1781_fw.png	169.069806098938	0.6805429458618164
59	57.86517691612244	response	0	k		57.0	/experiments/knapen_AOT/AOT_stimuli/pictures/1781_fw.png	169.74020504951477	
60	57.87532091140747	picture	0		86	58.0	/experiments/knapen_AOT/AOT_stimuli/pictures/1862_fw.png	169.7503490447998	0.7152881622314453
60	58.575061082839966	response	0	k		58.0	/experiments/knapen_AOT/AOT_stimuli/pictures/1862_fw.png	170.4500892162323	
61	58.590609073638916	picture	0		84	59.0	/experiments/knapen_AOT/AOT_stimuli/pictures/0573_fw.png	170.46563720703125	0.7014679908752441
61	59.28190803527832	response	0	j		59.0	/experiments/knapen_AOT/AOT_stimuli/pictures/0573_fw.png	171.15693616867065	
62	59.29207706451416	picture	0		138	60.0	/experiments/knapen_AOT/AOT_stimuli/pictures/0734_fw.png	171.1671051979065	1.1735429763793945
62	60.456937074661255	response	0	k		60.0	/experiments/knapen_AOT/AOT_stimuli/pictures/0734_fw.png	172.3319652080536	
63	60.465620040893555	picture	0		109	61.0	/experiments/knapen_AOT/AOT_stimuli/pictures/1518_fw.png	172.3406481742859	0.9098210334777832
63	61.35866403579712	response	0	j		61.0	/experiments/knapen_AOT/AOT_stimuli/pictures/1518_fw.png	173.23369216918945	
64	61.37544107437134	picture	0		96	62.0	/experiments/knapen_AOT/AOT_stimuli/pictures/1324_fw.png	173.25046920776367	0.7986369132995605
64	62.158759117126465	response	0	k		62.0	/experiments/knapen_AOT/AOT_stimuli/pictures/1324_fw.png	174.0337872505188	
65	62.1740779876709	picture	0		85	63.0	/experiments/knapen_AOT/AOT_stimuli/pictures/0850_fw.png	174.04910612106323	0.7083020210266113
65	62.873635053634644	response	0	k		63.0	/experiments/knapen_AOT/AOT_stimuli/pictures/0850_fw.png	174.74866318702698	
66	62.88238000869751	picture	0		86	64.0	/experiments/knapen_AOT/AOT_stimuli/pictures/1373_fw.png	174.75740814208984	0.7161409854888916
66	63.58349108695984	response	0	k		64.0	/experiments/knapen_AOT/AOT_stimuli/pictures/1373_fw.png	175.45851922035217	
67	63.5985209941864	picture	0		99	65.0	/experiments/knapen_AOT/AOT_stimuli/pictures/0649_fw.png	175.47354912757874	0.8255441188812256
67	64.41526508331299	response	0	k		65.0	/experiments/knapen_AOT/AOT_stimuli/pictures/0649_fw.png	176.29029321670532	
68	64.42406511306763	picture	0		97	66.0	/experiments/knapen_AOT/AOT_stimuli/pictures/0324_fw.png	176.29909324645996	0.8125
68	65.22359204292297	response	0	j		66.0	/experiments/knapen_AOT/AOT_stimuli/pictures/0324_fw.png	177.0986201763153	
69	65.23656511306763	picture	0		99	67.0	/experiments/knapen_AOT/AOT_stimuli/pictures/1684_fw.png	177.11159324645996	0.8264579772949219
69	66.04927706718445	response	0	j		67.0	/experiments/knapen_AOT/AOT_stimuli/pictures/1684_fw.png	177.92430520057678	
70	66.06302309036255	picture	0		126	68.0	/experiments/knapen_AOT/AOT_stimuli/pictures/0815_fw.png	177.93805122375488	1.0554678440093994
70	67.10700011253357	response	0	j		68.0	/experiments/knapen_AOT/AOT_stimuli/pictures/0815_fw.png	178.9820282459259	
71	67.11849093437195	picture	0		105	69.0	/experiments/knapen_AOT/AOT_stimuli/pictures/1332_fw.png	178.99351906776428	0.8750009536743164
71	67.97514295578003	response	0	j		69.0	/experiments/knapen_AOT/AOT_stimuli/pictures/1332_fw.png	179.85017108917236	
72	67.99349188804626	picture	0		81	70.0	/experiments/knapen_AOT/AOT_stimuli/pictures/0740_fw.png	179.8685200214386	0.6736671924591064
72	68.65704107284546	response	0	k		70.0	/experiments/knapen_AOT/AOT_stimuli/pictures/0740_fw.png	180.5320692062378	
73	68.66715908050537	picture	0		89	71.0	/experiments/knapen_AOT/AOT_stimuli/pictures/1209_fw.png	180.5421872138977	0.7430589199066162
73	69.39870190620422	response	0	j		71.0	/experiments/knapen_AOT/AOT_stimuli/pictures/1209_fw.png	181.27373003959656	
74	69.41021800041199	picture	0		85	72.0	/experiments/knapen_AOT/AOT_stimuli/pictures/0907_fw.png	181.28524613380432	0.7083079814910889
74	70.10701608657837	response	0	k		72.0	/experiments/knapen_AOT/AOT_stimuli/pictures/0907_fw.png	181.9820442199707	
75	70.11852598190308	picture	0		102	73.0	/experiments/knapen_AOT/AOT_stimuli/pictures/1548_fw.png	181.9935541152954	0.8471720218658447
75	70.95015597343445	response	0	j		73.0	/experiments/knapen_AOT/AOT_stimuli/pictures/1548_fw.png	182.82518410682678	
76	70.96569800376892	picture	0		114	74.0	/experiments/knapen_AOT/AOT_stimuli/pictures/1350_fw.png	182.84072613716125	0.9515299797058105
76	71.90703201293945	response	0	k		74.0	/experiments/knapen_AOT/AOT_stimuli/pictures/1350_fw.png	183.7820601463318	
77	71.91722798347473	picture	0		99	75.0	/experiments/knapen_AOT/AOT_stimuli/pictures/1436_fw.png	183.79225611686707	0.8263430595397949
77	72.7321150302887	response	0	j		75.0	/experiments/knapen_AOT/AOT_stimuli/pictures/1436_fw.png	184.60714316368103	
78	72.74357104301453	picture	0		98	76.0	/experiments/knapen_AOT/AOT_stimuli/pictures/1479_fw.png	184.61859917640686	0.8194448947906494
78	73.54930305480957	response	0	j		76.0	/experiments/knapen_AOT/AOT_stimuli/pictures/1479_fw.png	185.4243311882019	
79	73.56301593780518	picture	0		89	77.0	/experiments/knapen_AOT/AOT_stimuli/pictures/0613_fw.png	185.4380440711975	0.7500550746917725
79	74.29930090904236	response	0	k		77.0	/experiments/knapen_AOT/AOT_stimuli/pictures/0613_fw.png	186.1743290424347	
80	74.31307101249695	picture	0		84	78.0	/experiments/knapen_AOT/AOT_stimuli/pictures/0071_fw.png	186.18809914588928	0.7083349227905273
80	75.00761389732361	response	0	k		78.0	/experiments/knapen_AOT/AOT_stimuli/pictures/0071_fw.png	186.88264203071594	
81	75.02140593528748	picture	0		129	79.0	/experiments/knapen_AOT/AOT_stimuli/pictures/0931_fw.png	186.8964340686798	1.0832569599151611
81	76.09097194671631	response	0	j		79.0	/experiments/knapen_AOT/AOT_stimuli/pictures/0931_fw.png	187.96600008010864	
82	76.10466289520264	picture	0		102	80.0	/experiments/knapen_AOT/AOT_stimuli/pictures/0898_fw.png	187.97969102859497	0.8541572093963623
82	76.94203305244446	response	0	j		80.0	/experiments/knapen_AOT/AOT_stimuli/pictures/0898_fw.png	188.8170611858368	
83	76.958820104599	picture	0		109	81.0	/experiments/knapen_AOT/AOT_stimuli/pictures/1930_fw.png	188.83384823799133	0.90972900390625
83	77.85711097717285	response	0	j		81.0	/experiments/knapen_AOT/AOT_stimuli/pictures/1930_fw.png	189.73213911056519	
84	77.86854910850525	picture	0		93	82.0	/experiments/knapen_AOT/AOT_stimuli/pictures/1466_fw.png	189.74357724189758	0.7917888164520264
84	78.64878392219543	response	0	k		82.0	/experiments/knapen_AOT/AOT_stimuli/pictures/1466_fw.png	190.52381205558777	
85	78.66033792495728	picture	0		91	83.0	/experiments/knapen_AOT/AOT_stimuli/pictures/0880_fw.png	190.5353660583496	0.7569401264190674
85	79.40729689598083	response	0	j		83.0	/experiments/knapen_AOT/AOT_stimuli/pictures/0880_fw.png	191.28232502937317	
86	79.41727805137634	picture	0		111	84.0	/experiments/knapen_AOT/AOT_stimuli/pictures/0612_fw.png	191.29230618476868	0.9234910011291504
86	80.33213996887207	response	0	k		84.0	/experiments/knapen_AOT/AOT_stimuli/pictures/0612_fw.png	192.2071681022644	
87	80.3407690525055	picture	0		182	85.0	/experiments/knapen_AOT/AOT_stimuli/pictures/0556_fw.png	192.21579718589783	1.5207698345184326
87	81.84887599945068	response	0	j		85.0	/experiments/knapen_AOT/AOT_stimuli/pictures/0556_fw.png	193.72390413284302	
88	81.86153888702393	picture	0		106	86.0	/experiments/knapen_AOT/AOT_stimuli/pictures/1812_fw.png	193.73656702041626	0.882033109664917
88	82.73221802711487	response	0	k		86.0	/experiments/knapen_AOT/AOT_stimuli/pictures/1812_fw.png	194.6072461605072	
89	82.74357199668884	picture	0		120	87.0	/experiments/knapen_AOT/AOT_stimuli/pictures/0807_fw.png	194.61860013008118	1.0000550746917725
89	83.73220610618591	response	0	k		87.0	/experiments/knapen_AOT/AOT_stimuli/pictures/0807_fw.png	195.60723423957825	
90	83.74362707138062	picture	0		106	88.0	/experiments/knapen_AOT/AOT_stimuli/pictures/2149_fw.png	195.61865520477295	0.8819248676300049
90	84.6155059337616	response	0	k		88.0	/experiments/knapen_AOT/AOT_stimuli/pictures/2149_fw.png	196.49053406715393	
91	84.62555193901062	picture	0		98	89.0	/experiments/knapen_AOT/AOT_stimuli/pictures/0108_fw.png	196.50058007240295	0.8195631504058838
91	85.43233799934387	response	0	j		89.0	/experiments/knapen_AOT/AOT_stimuli/pictures/0108_fw.png	197.3073661327362	
92	85.4451150894165	picture	0		89	90.0	/experiments/knapen_AOT/AOT_stimuli/pictures/1217_fw.png	197.32014322280884	0.7431340217590332
92	86.16711711883545	response	0	k		90.0	/experiments/knapen_AOT/AOT_stimuli/pictures/1217_fw.png	198.04214525222778	
93	86.18824911117554	picture	0		87	91.0	/experiments/knapen_AOT/AOT_stimuli/pictures/0567_fw.png	198.06327724456787	0.7290389537811279
93	86.90727210044861	response	0	k		91.0	/experiments/knapen_AOT/AOT_stimuli/pictures/0567_fw.png	198.78230023384094	
94	86.91728806495667	picture	0		103	92.0	/experiments/knapen_AOT/AOT_stimuli/pictures/0240_fw.png	198.792316198349	0.861116886138916
94	87.7591609954834	response	0	k		92.0	/experiments/knapen_AOT/AOT_stimuli/pictures/0240_fw.png	199.63418912887573	
95	87.77840495109558	picture	0		93	93.0	/experiments/knapen_AOT/AOT_stimuli/pictures/1698_fw.png	199.65343308448792	0.77081298828125
95	88.53382110595703	response	0	j		93.0	/experiments/knapen_AOT/AOT_stimuli/pictures/1698_fw.png	200.40884923934937	
96	88.54921793937683	picture	0		109	94.0	/experiments/knapen_AOT/AOT_stimuli/pictures/1358_fw.png	200.42424607276917	0.909837007522583
96	89.44918203353882	response	0	j		94.0	/experiments/knapen_AOT/AOT_stimuli/pictures/1358_fw.png	201.32421016693115	
97	89.45905494689941	picture	0		89	95.0	/experiments/knapen_AOT/AOT_stimuli/pictures/1128_fw.png	201.33408308029175	0.7429850101470947
97	90.19063901901245	response	0	j		95.0	/experiments/knapen_AOT/AOT_stimuli/pictures/1128_fw.png	202.06566715240479	
98	90.20203995704651	picture	0		89	96.0	/experiments/knapen_AOT/AOT_stimuli/pictures/1309_fw.png	202.07706809043884	0.7430541515350342
98	90.92589092254639	response	0	j		96.0	/experiments/knapen_AOT/AOT_stimuli/pictures/1309_fw.png	202.80091905593872	
99	90.94509410858154	picture	0		86	97.0	/experiments/knapen_AOT/AOT_stimuli/pictures/2136_fw.png	202.82012224197388	0.715277910232544
99	91.64897799491882	response	0	k		97.0	/experiments/knapen_AOT/AOT_stimuli/pictures/2136_fw.png	203.52400612831116	
100	91.66037201881409	picture	0		86	98.0	/experiments/knapen_AOT/AOT_stimuli/pictures/1911_fw.png	203.53540015220642	0.7152369022369385
100	92.36573910713196	response	0	k		98.0	/experiments/knapen_AOT/AOT_stimuli/pictures/1911_fw.png	204.2407672405243	
101	92.37560892105103	picture	0		115	99.0	/experiments/knapen_AOT/AOT_stimuli/pictures/0086_fw.png	204.25063705444336	0.9584410190582275
101	93.32403111457825	response	0	j		99.0	/experiments/knapen_AOT/AOT_stimuli/pictures/0086_fw.png	205.19905924797058	
102	93.33404994010925	picture	0		83	100.0	/experiments/knapen_AOT/AOT_stimuli/pictures/0036_fw.png	205.2090780735016	0.6944630146026611
102	94.01566910743713	response	0	j		100.0	/experiments/knapen_AOT/AOT_stimuli/pictures/0036_fw.png	205.89069724082947	
103	94.02851295471191	picture	0		86	101.0	/experiments/knapen_AOT/AOT_stimuli/pictures/1007_fw.png	205.90354108810425	0.72210693359375
103	94.7339448928833	response	0	k		101.0	/experiments/knapen_AOT/AOT_stimuli/pictures/1007_fw.png	206.60897302627563	
104	94.75061988830566	picture	0		102	102.0	/experiments/knapen_AOT/AOT_stimuli/pictures/0871_fw.png	206.625648021698	0.8541860580444336
104	95.59104704856873	response	0	k		102.0	/experiments/knapen_AOT/AOT_stimuli/pictures/0871_fw.png	207.46607518196106	
105	95.6048059463501	picture	0		110	103.0	/experiments/knapen_AOT/AOT_stimuli/pictures/0051_fw.png	207.47983407974243	0.9237191677093506
105	96.51564693450928	response	0	k		103.0	/experiments/knapen_AOT/AOT_stimuli/pictures/0051_fw.png	208.3906750679016	
106	96.52852511405945	picture	0		116	104.0	/experiments/knapen_AOT/AOT_stimuli/pictures/0219_fw.png	208.40355324745178	0.9651608467102051
106	97.48238110542297	response	0	j		104.0	/experiments/knapen_AOT/AOT_stimuli/pictures/0219_fw.png	209.3574092388153	
107	97.49368596076965	picture	0		135	105.0	/experiments/knapen_AOT/AOT_stimuli/pictures/0925_fw.png	209.368714094162	1.1250500679016113
107	98.60741209983826	response	0	j		105.0	/experiments/knapen_AOT/AOT_stimuli/pictures/0925_fw.png	210.4824402332306	
108	98.61873602867126	picture	0		88	106.0	/experiments/knapen_AOT/AOT_stimuli/pictures/0204_fw.png	210.4937641620636	0.736083984375
108	99.3339478969574	response	0	j		106.0	/experiments/knapen_AOT/AOT_stimuli/pictures/0204_fw.png	211.20897603034973	
109	99.35482001304626	picture	0		97	107.0	/experiments/knapen_AOT/AOT_stimuli/pictures/1438_fw.png	211.2298481464386	0.8125948905944824
109	100.15069603919983	response	0	k		107.0	/experiments/knapen_AOT/AOT_stimuli/pictures/1438_fw.png	212.02572417259216	
110	100.16741490364075	picture	0		84	108.0	/experiments/knapen_AOT/AOT_stimuli/pictures/0211_fw.png	212.04244303703308	0.7013051509857178
110	100.85737299919128	response	0	k		108.0	/experiments/knapen_AOT/AOT_stimuli/pictures/0211_fw.png	212.73240113258362	
111	100.86872005462646	picture	0		89	109.0	/experiments/knapen_AOT/AOT_stimuli/pictures/2128_fw.png	212.7437481880188	0.7430570125579834
111	101.59917402267456	response	0	j		109.0	/experiments/knapen_AOT/AOT_stimuli/pictures/2128_fw.png	213.4742021560669	
112	101.61177706718445	picture	0		95	110.0	/experiments/knapen_AOT/AOT_stimuli/pictures/0124_fw.png	213.48680520057678	0.791813850402832
112	102.39073491096497	response	0	k		110.0	/experiments/knapen_AOT/AOT_stimuli/pictures/0124_fw.png	214.2657630443573	
113	102.40359091758728	picture	0		112	111.0	/experiments/knapen_AOT/AOT_stimuli/pictures/0319_fw.png	214.27861905097961	0.9304661750793457
113	103.31738996505737	response	0	j		111.0	/experiments/knapen_AOT/AOT_stimuli/pictures/0319_fw.png	215.1924180984497	
114	103.33405709266663	picture	0		77	112.0	/experiments/knapen_AOT/AOT_stimuli/pictures/0936_fw.png	215.20908522605896	0.6458768844604492
114	103.96613311767578	response	0	j		112.0	/experiments/knapen_AOT/AOT_stimuli/pictures/0936_fw.png	215.84116125106812	
115	103.97993397712708	picture	0		81	113.0	/experiments/knapen_AOT/AOT_stimuli/pictures/1440_fw.png	215.8549621105194	0.6805210113525391
115	104.64910793304443	response	0	k		113.0	/experiments/knapen_AOT/AOT_stimuli/pictures/1440_fw.png	216.52413606643677	
116	104.66045498847961	picture	0		118	114.0	/experiments/knapen_AOT/AOT_stimuli/pictures/2148_fw.png	216.53548312187195	0.9861819744110107
116	105.63279509544373	response	0	k		114.0	/experiments/knapen_AOT/AOT_stimuli/pictures/2148_fw.png	217.50782322883606	
117	105.64663696289062	picture	0		102	115.0	/experiments/knapen_AOT/AOT_stimuli/pictures/0123_fw.png	217.52166509628296	0.8540899753570557
117	106.49080204963684	response	0	j		115.0	/experiments/knapen_AOT/AOT_stimuli/pictures/0123_fw.png	218.36583018302917	
118	106.50072693824768	picture	0		85	116.0	/experiments/knapen_AOT/AOT_stimuli/pictures/1614_fw.png	218.37575507164001	0.7084109783172607
118	107.19917702674866	response	0	k		116.0	/experiments/knapen_AOT/AOT_stimuli/pictures/1614_fw.png	219.074205160141	
119	107.20913791656494	picture	0		109	117.0	/experiments/knapen_AOT/AOT_stimuli/pictures/0431_fw.png	219.08416604995728	0.9235119819641113
119	108.11736607551575	response	0	j		117.0	/experiments/knapen_AOT/AOT_stimuli/pictures/0431_fw.png	219.99239420890808	
120	108.13264989852905	picture	0		99	118.0	/experiments/knapen_AOT/AOT_stimuli/pictures/1760_fw.png	220.0076780319214	0.826491117477417
120	108.94921708106995	response	0	j		118.0	/experiments/knapen_AOT/AOT_stimuli/pictures/1760_fw.png	220.82424521446228	
121	108.95914101600647	picture	0		88	119.0	/experiments/knapen_AOT/AOT_stimuli/pictures/1397_fw.png	220.8341691493988	0.7361299991607666
121	109.6825909614563	response	0	j		119.0	/experiments/knapen_AOT/AOT_stimuli/pictures/1397_fw.png	221.55761909484863	
122	109.69527101516724	picture	0		96	120.0	/experiments/knapen_AOT/AOT_stimuli/pictures/1844_fw.png	221.57029914855957	0.798569917678833
122	110.48254990577698	response	0	j		120.0	/experiments/knapen_AOT/AOT_stimuli/pictures/1844_fw.png	222.3575780391693	
123	110.49384093284607	picture	0		79	121.0	/experiments/knapen_AOT/AOT_stimuli/pictures/1202_fw.png	222.3688690662384	0.6597561836242676
123	111.13444590568542	response	0	k		121.0	/experiments/knapen_AOT/AOT_stimuli/pictures/1202_fw.png	223.00947403907776	
124	111.15359711647034	picture	0		92	122.0	/experiments/knapen_AOT/AOT_stimuli/pictures/1091_fw.png	223.02862524986267	0.7639079093933105
124	111.90753293037415	response	0	k		122.0	/experiments/knapen_AOT/AOT_stimuli/pictures/1091_fw.png	223.78256106376648	
125	111.91750502586365	picture	0		89	123.0	/experiments/knapen_AOT/AOT_stimuli/pictures/0869_fw.png	223.79253315925598	0.7430720329284668
125	112.64919710159302	response	0	k		123.0	/experiments/knapen_AOT/AOT_stimuli/pictures/0869_fw.png	224.52422523498535	
126	112.66057705879211	picture	0		140	124.0	/experiments/knapen_AOT/AOT_stimuli/pictures/1830_fw.png	224.53560519218445	1.166693925857544
126	113.815908908844	response	0	k		124.0	/experiments/knapen_AOT/AOT_stimuli/pictures/1830_fw.png	225.69093704223633	
127	113.82727098464966	picture	0		111	125.0	/experiments/knapen_AOT/AOT_stimuli/pictures/2083_fw.png	225.702299118042	0.9235599040985107
127	114.73411297798157	response	0	k		125.0	/experiments/knapen_AOT/AOT_stimuli/pictures/2083_fw.png	226.6091411113739	
128	114.75083088874817	picture	0		96	126.0	/experiments/knapen_AOT/AOT_stimuli/pictures/0924_fw.png	226.6258590221405	0.7985830307006836
128	115.54104590415955	response	0	j		126.0	/experiments/knapen_AOT/AOT_stimuli/pictures/0924_fw.png	227.41607403755188	
129	115.54941391944885	picture	0		84	127.0	/experiments/knapen_AOT/AOT_stimuli/pictures/1422_fw.png	227.4244420528412	0.7013580799102783
129	116.24096202850342	response	0	k		127.0	/experiments/knapen_AOT/AOT_stimuli/pictures/1422_fw.png	228.11599016189575	
130	116.25077199935913	picture	0		114	128.0	/experiments/knapen_AOT/AOT_stimuli/pictures/0972_fw.png	228.12580013275146	0.9514288902282715
130	117.19105195999146	response	0	j		128.0	/experiments/knapen_AOT/AOT_stimuli/pictures/0972_fw.png	229.0660800933838	
131	117.2022008895874	picture	0		88	129.0	/experiments/knapen_AOT/AOT_stimuli/pictures/0716_fw.png	229.07722902297974	0.7361350059509277
131	117.91768908500671	response	0	k		129.0	/experiments/knapen_AOT/AOT_stimuli/pictures/0716_fw.png	229.79271721839905	
132	117.93833589553833	picture	0		121	130.0	/experiments/knapen_AOT/AOT_stimuli/pictures/1046_fw.png	229.81336402893066	1.013883113861084
132	118.93419194221497	response	0	j		130.0	/experiments/knapen_AOT/AOT_stimuli/pictures/1046_fw.png	230.8092200756073	
133	118.95221900939941	picture	0		122	131.0	/experiments/knapen_AOT/AOT_stimuli/pictures/0331_fw.png	230.82724714279175	1.0138659477233887
133	119.95767593383789	response	0	k		131.0	/experiments/knapen_AOT/AOT_stimuli/pictures/0331_fw.png	231.83270406723022	
134	119.9660849571228	picture	0		123	132.0	/experiments/knapen_AOT/AOT_stimuli/pictures/0179_fw.png	231.84111309051514	1.0278000831604004
134	120.98266506195068	response	0	j		132.0	/experiments/knapen_AOT/AOT_stimuli/pictures/0179_fw.png	232.85769319534302	
135	120.9938850402832	picture	0		96	133.0	/experiments/knapen_AOT/AOT_stimuli/pictures/1811_fw.png	232.86891317367554	0.7986888885498047
135	121.7826669216156	response	0	j		133.0	/experiments/knapen_AOT/AOT_stimuli/pictures/1811_fw.png	233.65769505500793	
136	121.79257392883301	picture	0		109	134.0	/experiments/knapen_AOT/AOT_stimuli/pictures/1993_fw.png	233.66760206222534	0.9096710681915283
136	122.69100689888	response	0	k		134.0	/experiments/knapen_AOT/AOT_stimuli/pictures/1993_fw.png	234.56603503227234	
137	122.70224499702454	picture	0		99	135.0	/experiments/knapen_AOT/AOT_stimuli/pictures/0250_fw.png	234.57727313041687	0.8264009952545166
137	123.50944900512695	response	0	j		135.0	/experiments/knapen_AOT/AOT_stimuli/pictures/0250_fw.png	235.3844771385193	
138	123.52864599227905	picture	0		91	136.0	/experiments/knapen_AOT/AOT_stimuli/pictures/0866_fw.png	235.4036741256714	0.7569448947906494
138	124.27441501617432	response	0	k		136.0	/experiments/knapen_AOT/AOT_stimuli/pictures/0866_fw.png	236.14944314956665	
139	124.2855908870697	picture	0		116	137.0	/experiments/knapen_AOT/AOT_stimuli/pictures/1854_fw.png	236.16061902046204	0.9653692245483398
139	125.24106407165527	response	0	j		137.0	/experiments/knapen_AOT/AOT_stimuli/pictures/1854_fw.png	237.1160922050476	
140	125.25096011161804	picture	0		86	138.0	/experiments/knapen_AOT/AOT_stimuli/pictures/0414_fw.png	237.12598824501038	0.7152647972106934
140	125.95770406723022	response	0	j		138.0	/experiments/knapen_AOT/AOT_stimuli/pictures/0414_fw.png	237.83273220062256	
141	125.96622490882874	picture	0		80	139.0	/experiments/knapen_AOT/AOT_stimuli/pictures/0058_fw.png	237.84125304222107	0.6665661334991455
141	126.62443709373474	response	0	j		139.0	/experiments/knapen_AOT/AOT_stimuli/pictures/0058_fw.png	238.49946522712708	
142	126.63279104232788	picture	0		89	140.0	/experiments/knapen_AOT/AOT_stimuli/pictures/1391_fw.png	238.50781917572021	0.7430808544158936
142	127.36610388755798	response	0	k		140.0	/experiments/knapen_AOT/AOT_stimuli/pictures/1391_fw.png	239.24113202095032	
143	127.37587189674377	picture	0		82	141.0	/experiments/knapen_AOT/AOT_stimuli/pictures/1127_fw.png	239.2509000301361	0.6874260902404785
143	128.0496211051941	response	0	j		141.0	/experiments/knapen_AOT/AOT_stimuli/pictures/1127_fw.png	239.92464923858643	
144	128.06329798698425	picture	0		79	142.0	/experiments/knapen_AOT/AOT_stimuli/pictures/0674_fw.png	239.9383261203766	0.6668460369110107
144	128.70933508872986	response	0	k		142.0	/experiments/knapen_AOT/AOT_stimuli/pictures/0674_fw.png	240.5843632221222	
145	128.73014402389526	picture	0		97	143.0	/experiments/knapen_AOT/AOT_stimuli/pictures/1229_fw.png	240.6051721572876	0.8124139308929443
145	129.52597498893738	response	0	j		143.0	/experiments/knapen_AOT/AOT_stimuli/pictures/1229_fw.png	241.4010031223297	
146	129.5425579547882	picture	0		75	144.0	/experiments/knapen_AOT/AOT_stimuli/pictures/1300_fw.png	241.41758608818054	0.6250259876251221
146	130.15775895118713	response	0	k		144.0	/experiments/knapen_AOT/AOT_stimuli/pictures/1300_fw.png	242.03278708457947	
147	130.16758394241333	picture	0		80	145.0	/experiments/knapen_AOT/AOT_stimuli/pictures/1473_fw.png	242.04261207580566	0.6667330265045166
147	130.82444500923157	response	0	k		145.0	/experiments/knapen_AOT/AOT_stimuli/pictures/1473_fw.png	242.6994731426239	
148	130.83431696891785	picture	0		89	146.0	/experiments/knapen_AOT/AOT_stimuli/pictures/0599_fw.png	242.70934510231018	0.7429771423339844
148	131.56612300872803	response	0	k		146.0	/experiments/knapen_AOT/AOT_stimuli/pictures/0599_fw.png	243.44115114212036	
149	131.57729411125183	picture	0		91	147.0	/experiments/knapen_AOT/AOT_stimuli/pictures/0552_fw.png	243.45232224464417	0.7570228576660156
149	132.32462811470032	response	0	j		147.0	/experiments/knapen_AOT/AOT_stimuli/pictures/0552_fw.png	244.19965624809265	
150	132.33431696891785	picture	0		79	148.0	/experiments/knapen_AOT/AOT_stimuli/pictures/1031_fw.png	244.20934510231018	0.6597061157226562
150	132.98283696174622	response	0	k		148.0	/experiments/knapen_AOT/AOT_stimuli/pictures/1031_fw.png	244.85786509513855	
151	132.9940230846405	picture	0		119	149.0	/experiments/knapen_AOT/AOT_stimuli/pictures/1068_fw.png	244.86905121803284	0.9930469989776611
151	133.97447800636292	response	0	k		149.0	/experiments/knapen_AOT/AOT_stimuli/pictures/1068_fw.png	245.84950613975525	
152	133.98707008361816	picture	0		98	150.0	/experiments/knapen_AOT/AOT_stimuli/pictures/1768_fw.png	245.8620982170105	0.854132890701294
152	134.83288192749023	response	0	j		150.0	/experiments/knapen_AOT/AOT_stimuli/pictures/1768_fw.png	246.70791006088257	
153	134.84120297431946	picture	0		71	151.0	/experiments/knapen_AOT/AOT_stimuli/pictures/1427_fw.png	246.7162311077118	0.5972890853881836
153	135.42466592788696	response	0	j		151.0	/experiments/knapen_AOT/AOT_stimuli/pictures/1427_fw.png	247.2996940612793	
154	135.43849205970764	picture	0		90	152.0	/experiments/knapen_AOT/AOT_stimuli/pictures/0693_fw.png	247.31352019309998	0.756882905960083
154	136.18288898468018	response	0	k		152.0	/experiments/knapen_AOT/AOT_stimuli/pictures/0693_fw.png	248.0579171180725	
155	136.19537496566772	picture	0		73	153.0	/experiments/knapen_AOT/AOT_stimuli/pictures/1006_fw.png	248.07040309906006	0.6041460037231445
155	136.7912380695343	response	0	k		153.0	/experiments/knapen_AOT/AOT_stimuli/pictures/1006_fw.png	248.66626620292664	
156	136.79952096939087	picture	0		88	154.0	/experiments/knapen_AOT/AOT_stimuli/pictures/1446_fw.png	248.6745491027832	0.7361330986022949
156	137.5245599746704	response	0	j		154.0	/experiments/knapen_AOT/AOT_stimuli/pictures/1446_fw.png	249.39958810806274	
157	137.53565406799316	picture	0		66	155.0	/experiments/knapen_AOT/AOT_stimuli/pictures/0575_fw.png	249.4106822013855	0.5486898422241211
157	138.07457995414734	response	0	k		155.0	/experiments/knapen_AOT/AOT_stimuli/pictures/0575_fw.png	249.94960808753967	
158	138.08434391021729	picture	0		80	156.0	/experiments/knapen_AOT/AOT_stimuli/pictures/1451_fw.png	249.95937204360962	0.6666810512542725
158	138.7412600517273	response	0	k		156.0	/experiments/knapen_AOT/AOT_stimuli/pictures/1451_fw.png	250.61628818511963	
159	138.75102496147156	picture	0		86	157.0	/experiments/knapen_AOT/AOT_stimuli/pictures/0154_fw.png	250.6260530948639	0.7152831554412842
159	139.45798206329346	response	0	j		157.0	/experiments/knapen_AOT/AOT_stimuli/pictures/0154_fw.png	251.3330101966858	
160	139.46630811691284	picture	0		100	158.0	/experiments/knapen_AOT/AOT_stimuli/pictures/0848_fw.png	251.34133625030518	0.8333117961883545
160	140.28473591804504	response	0	j		158.0	/experiments/knapen_AOT/AOT_stimuli/pictures/0848_fw.png	252.15976405143738	
161	140.2996199131012	picture	0		96	159.0	/experiments/knapen_AOT/AOT_stimuli/pictures/0461_fw.png	252.17464804649353	0.8056280612945557
161	141.08459901809692	response	0	j		159.0	/experiments/knapen_AOT/AOT_stimuli/pictures/0461_fw.png	252.95962715148926	
162	141.10524797439575	picture	0		78	160.0	/experiments/knapen_AOT/AOT_stimuli/pictures/0262_fw.png	252.9802761077881	0.6527900695800781
162	141.74958610534668	response	0	j		160.0	/experiments/knapen_AOT/AOT_stimuli/pictures/0262_fw.png	253.624614238739	
163	141.75803804397583	picture	0		75	161.0	/experiments/knapen_AOT/AOT_stimuli/pictures/1097_fw.png	253.63306617736816	0.6249949932098389
163	142.37460589408875	response	0	k		161.0	/experiments/knapen_AOT/AOT_stimuli/pictures/1097_fw.png	254.24963402748108	
164	142.38303303718567	picture	0		83	162.0	/experiments/knapen_AOT/AOT_stimuli/pictures/0450_fw.png	254.258061170578	0.6998400688171387
164	143.06628704071045	response	0	j		162.0	/experiments/knapen_AOT/AOT_stimuli/pictures/0450_fw.png	254.94131517410278	
165	143.0828731060028	picture	0		86	163.0	/experiments/knapen_AOT/AOT_stimuli/pictures/1474_fw.png	254.95790123939514	0.7168099880218506
165	143.7913041114807	response	0	k		163.0	/experiments/knapen_AOT/AOT_stimuli/pictures/1474_fw.png	255.66633224487305	
166	143.79968309402466	picture	0		102	164.0	/experiments/knapen_AOT/AOT_stimuli/pictures/1472_fw.png	255.674711227417	0.8540878295898438
166	144.64145708084106	response	0	j		164.0	/experiments/knapen_AOT/AOT_stimuli/pictures/1472_fw.png	256.5164852142334	
167	144.6537709236145	picture	0		100	165.0	/experiments/knapen_AOT/AOT_stimuli/pictures/0332_fw.png	256.52879905700684	0.8333630561828613
167	145.47464990615845	response	0	k		165.0	/experiments/knapen_AOT/AOT_stimuli/pictures/0332_fw.png	257.3496780395508	
168	145.48713397979736	picture	0		82	166.0	/experiments/knapen_AOT/AOT_stimuli/pictures/1719_fw.png	257.3621621131897	0.6805341243743896
168	146.1580319404602	response	0	j		166.0	/experiments/knapen_AOT/AOT_stimuli/pictures/1719_fw.png	258.03306007385254	
169	146.16766810417175	picture	0		70	167.0	/experiments/knapen_AOT/AOT_stimuli/pictures/2054_fw.png	258.0426962375641	0.5902698040008545
169	146.74136400222778	response	0	k		167.0	/experiments/knapen_AOT/AOT_stimuli/pictures/2054_fw.png	258.6163921356201	
170	146.7579379081726	picture	0		205	168.0	/experiments/knapen_AOT/AOT_stimuli/pictures/1840_fw.png	258.63296604156494	1.708299160003662
170	148.45816111564636	response	0	k		168.0	/experiments/knapen_AOT/AOT_stimuli/pictures/1840_fw.png	260.3331892490387	
171	148.46623706817627	picture	0		83	169.0	/experiments/knapen_AOT/AOT_stimuli/pictures/0247_fw.png	260.3412652015686	0.6945350170135498
171	149.1496660709381	response	0	k		169.0	/experiments/knapen_AOT/AOT_stimuli/pictures/0247_fw.png	261.02469420433044	
172	149.16077208518982	picture	0		93	170.0	/experiments/knapen_AOT/AOT_stimuli/pictures/0945_fw.png	261.03580021858215	0.7778499126434326
172	149.9248080253601	response	0	k		170.0	/experiments/knapen_AOT/AOT_stimuli/pictures/0945_fw.png	261.79983615875244	
173	149.93862199783325	picture	0		95	171.0	/experiments/knapen_AOT/AOT_stimuli/pictures/0252_fw.png	261.8136501312256	0.7986841201782227
173	150.7247290611267	response	0	j		171.0	/experiments/knapen_AOT/AOT_stimuli/pictures/0252_fw.png	262.59975719451904	
174	150.73730611801147	picture	0		96	172.0	/experiments/knapen_AOT/AOT_stimuli/pictures/0789_fw.png	262.6123342514038	0.7984898090362549
174	151.5246980190277	response	0	k		172.0	/experiments/knapen_AOT/AOT_stimuli/pictures/0789_fw.png	263.39972615242004	
175	151.53579592704773	picture	0		96	173.0	/experiments/knapen_AOT/AOT_stimuli/pictures/0318_fw.png	263.41082406044006	0.7987220287322998
175	152.32471799850464	response	0	j		173.0	/experiments/knapen_AOT/AOT_stimuli/pictures/0318_fw.png	264.199746131897	
176	152.33451795578003	picture	0		70	174.0	/experiments/knapen_AOT/AOT_stimuli/pictures/1064_fw.png	264.20954608917236	0.5831949710845947
176	152.90807008743286	response	0	j		174.0	/experiments/knapen_AOT/AOT_stimuli/pictures/1064_fw.png	264.7830982208252	
177	152.91771292686462	picture	0		83	175.0	/experiments/knapen_AOT/AOT_stimuli/pictures/1791_fw.png	264.79274106025696	0.6945281028747559
177	153.59977102279663	response	0	j		175.0	/experiments/knapen_AOT/AOT_stimuli/pictures/1791_fw.png	265.47479915618896	
178	153.61224102973938	picture	0		76	176.0	/experiments/knapen_AOT/AOT_stimuli/pictures/0425_fw.png	265.4872691631317	0.6318910121917725
178	154.23306798934937	response	0	j		176.0	/experiments/knapen_AOT/AOT_stimuli/pictures/0425_fw.png	266.1080961227417	
179	154.24413204193115	picture	0		82	177.0	/experiments/knapen_AOT/AOT_stimuli/pictures/1616_fw.png	266.1191601753235	0.6805880069732666
179	154.91646003723145	response	0	k		177.0	/experiments/knapen_AOT/AOT_stimuli/pictures/1616_fw.png	266.7914881706238	
180	154.92472004890442	picture	0		159	178.0	/experiments/knapen_AOT/AOT_stimuli/pictures/0870_fw.png	266.79974818229675	1.3263039588928223
180	156.24163389205933	response	0	j		178.0	/experiments/knapen_AOT/AOT_stimuli/pictures/0870_fw.png	268.11666202545166	
181	156.25102400779724	picture	0		86	179.0	/experiments/knapen_AOT/AOT_stimuli/pictures/1636_fw.png	268.1260521411896	0.7154049873352051
181	156.958153963089	response	0	j		179.0	/experiments/knapen_AOT/AOT_stimuli/pictures/1636_fw.png	268.8331820964813	
182	156.96642899513245	picture	0		94	180.0	/experiments/knapen_AOT/AOT_stimuli/pictures/1393_fw.png	268.8414571285248	0.7847270965576172
182	157.74154210090637	response	0	k		180.0	/experiments/knapen_AOT/AOT_stimuli/pictures/1393_fw.png	269.6165702342987	
183	157.75115609169006	picture	0		98	181.0	/experiments/knapen_AOT/AOT_stimuli/pictures/1687_fw.png	269.6261842250824	0.8194389343261719
183	158.55820298194885	response	0	k		181.0	/experiments/knapen_AOT/AOT_stimuli/pictures/1687_fw.png	270.4332311153412	
184	158.57059502601624	picture	0		84	182.0	/experiments/knapen_AOT/AOT_stimuli/pictures/1873_fw.png	270.44562315940857	0.7014579772949219
184	159.25840592384338	response	0	k		182.0	/experiments/knapen_AOT/AOT_stimuli/pictures/1873_fw.png	271.1334340572357	
185	159.27205300331116	picture	0		83	183.0	/experiments/knapen_AOT/AOT_stimuli/pictures/1998_fw.png	271.1470811367035	0.6943991184234619
185	159.9581880569458	response	0	j		183.0	/experiments/knapen_AOT/AOT_stimuli/pictures/1998_fw.png	271.83321619033813	
186	159.96645212173462	picture	0		122	184.0	/experiments/knapen_AOT/AOT_stimuli/pictures/0923_fw.png	271.84148025512695	1.02079176902771
186	160.97486400604248	response	0	k		184.0	/experiments/knapen_AOT/AOT_stimuli/pictures/0923_fw.png	272.8498921394348	
187	160.98724389076233	picture	0		89	185.0	/experiments/knapen_AOT/AOT_stimuli/pictures/1796_fw.png	272.86227202415466	0.7639369964599609
187	161.741534948349	response	0	k		185.0	/experiments/knapen_AOT/AOT_stimuli/pictures/1796_fw.png	273.61656308174133	
188	161.7511808872223	picture	0		75	186.0	/experiments/knapen_AOT/AOT_stimuli/pictures/0835_fw.png	273.6262090206146	0.625075101852417
188	162.36656999588013	response	0	k		186.0	/experiments/knapen_AOT/AOT_stimuli/pictures/0835_fw.png	274.24159812927246	
189	162.3762559890747	picture	0		68	187.0	/experiments/knapen_AOT/AOT_stimuli/pictures/1928_fw.png	274.25128412246704	0.5693459510803223
189	162.93320989608765	response	0	k		187.0	/experiments/knapen_AOT/AOT_stimuli/pictures/1928_fw.png	274.80823802948	
190	162.94560194015503	picture	0		71	188.0	/experiments/knapen_AOT/AOT_stimuli/pictures/0800_fw.png	274.82063007354736	0.5903110504150391
190	163.52491807937622	response	0	k		188.0	/experiments/knapen_AOT/AOT_stimuli/pictures/0800_fw.png	275.39994621276855	
191	163.53591299057007	picture	0		91	189.0	/experiments/knapen_AOT/AOT_stimuli/pictures/0583_fw.png	275.4109411239624	0.7569050788879395
191	164.27655696868896	response	0	j		189.0	/experiments/knapen_AOT/AOT_stimuli/pictures/0583_fw.png	276.1515851020813	
192	164.292818069458	picture	0		77	190.0	/experiments/knapen_AOT/AOT_stimuli/pictures/1657_fw.png	276.16784620285034	0.6458559036254883
192	164.9249930381775	response	0	j		190.0	/experiments/knapen_AOT/AOT_stimuli/pictures/1657_fw.png	276.8000211715698	
193	164.9386739730835	picture	0		69	191.0	/experiments/knapen_AOT/AOT_stimuli/pictures/0340_fw.png	276.81370210647583	0.5833570957183838
193	165.50830507278442	response	0	k		191.0	/experiments/knapen_AOT/AOT_stimuli/pictures/0340_fw.png	277.38333320617676	
194	165.52203106880188	picture	0		65	192.0	/experiments/knapen_AOT/AOT_stimuli/pictures/1082_fw.png	277.3970592021942	0.5486109256744385
194	166.0583848953247	response	0	k		192.0	/experiments/knapen_AOT/AOT_stimuli/pictures/1082_fw.png	277.93341302871704	
195	166.07064199447632	picture	0		95	193.0	/experiments/knapen_AOT/AOT_stimuli/pictures/0270_fw.png	277.94567012786865	0.7916820049285889
195	166.85003399848938	response	0	j		193.0	/experiments/knapen_AOT/AOT_stimuli/pictures/0270_fw.png	278.7250621318817	
196	166.8623239994049	picture	0		73	194.0	/experiments/knapen_AOT/AOT_stimuli/pictures/1212_fw.png	278.73735213279724	0.6042060852050781
196	167.45832800865173	response	0	k		194.0	/experiments/knapen_AOT/AOT_stimuli/pictures/1212_fw.png	279.33335614204407	
197	167.46653008460999	picture	0		92	195.0	/experiments/knapen_AOT/AOT_stimuli/pictures/0893_fw.png	279.3415582180023	0.7708859443664551
197	168.22498512268066	response	0	j		195.0	/experiments/knapen_AOT/AOT_stimuli/pictures/0893_fw.png	280.100013256073	
198	168.23741602897644	picture	0		96	196.0	/experiments/knapen_AOT/AOT_stimuli/pictures/0755_fw.png	280.1124441623688	0.7985060214996338
198	169.02492499351501	response	0	k		196.0	/experiments/knapen_AOT/AOT_stimuli/pictures/0755_fw.png	280.89995312690735	
199	169.03592205047607	picture	0		78	197.0	/experiments/knapen_AOT/AOT_stimuli/pictures/1882_fw.png	280.9109501838684	0.6528730392456055
199	169.66838788986206	response	0	k		197.0	/experiments/knapen_AOT/AOT_stimuli/pictures/1882_fw.png	281.5434160232544	
200	169.68879508972168	picture	0		96	198.0	/experiments/knapen_AOT/AOT_stimuli/pictures/1556_fw.png	281.563823223114	0.8054788112640381
200	170.47662806510925	response	0	j		198.0	/experiments/knapen_AOT/AOT_stimuli/pictures/1556_fw.png	282.3516561985016	
201	170.49427390098572	picture	0		83	199.0	/experiments/knapen_AOT/AOT_stimuli/pictures/1260_fw.png	282.36930203437805	0.6944801807403564
201	171.1751480102539	response	0	j		199.0	/experiments/knapen_AOT/AOT_stimuli/pictures/1260_fw.png	283.05017614364624	
202	171.18875408172607	picture	0		117	200.0	/experiments/knapen_AOT/AOT_stimuli/pictures/1816_fw.png	283.0637822151184	0.979144811630249
202	172.15835094451904	response	0	j		200.0	/experiments/knapen_AOT/AOT_stimuli/pictures/1816_fw.png	284.0333790779114	
203	172.16789889335632	picture	0		78	201.0	/experiments/knapen_AOT/AOT_stimuli/pictures/0382_fw.png	284.04292702674866	0.6569900512695312
203	172.80847811698914	response	0	j		201.0	/experiments/knapen_AOT/AOT_stimuli/pictures/0382_fw.png	284.68350625038147	
204	172.82488894462585	picture	0		72	202.0	/experiments/knapen_AOT/AOT_stimuli/pictures/1164_fw.png	284.6999170780182	0.6000649929046631
204	173.41668605804443	response	0	j		202.0	/experiments/knapen_AOT/AOT_stimuli/pictures/1164_fw.png	285.29171419143677	
205	173.42495393753052	picture	0		72	203.0	/experiments/knapen_AOT/AOT_stimuli/pictures/2145_fw.png	285.29998207092285	0.6082980632781982
205	174.0167179107666	response	0	j		203.0	/experiments/knapen_AOT/AOT_stimuli/pictures/2145_fw.png	285.89174604415894	
206	174.03325200080872	picture	0		78	204.0	/experiments/knapen_AOT/AOT_stimuli/pictures/0732_fw.png	285.90828013420105	0.6555049419403076
206	174.6683030128479	response	0	j		204.0	/experiments/knapen_AOT/AOT_stimuli/pictures/0732_fw.png	286.54333114624023	
207	174.68875694274902	picture	0		76	205.0	/experiments/knapen_AOT/AOT_stimuli/pictures/1716_fw.png	286.56378507614136	0.638862133026123
207	175.3166959285736	response	0	k		205.0	/experiments/knapen_AOT/AOT_stimuli/pictures/1716_fw.png	287.19172406196594	
208	175.32761907577515	picture	0		80	206.0	/experiments/knapen_AOT/AOT_stimuli/pictures/1115_fw.png	287.2026472091675	0.6667690277099609
208	175.98334908485413	response	0	k		206.0	/experiments/knapen_AOT/AOT_stimuli/pictures/1115_fw.png	287.85837721824646	
209	175.9943881034851	picture	0		68	207.0	/experiments/knapen_AOT/AOT_stimuli/pictures/1664_fw.png	287.86941623687744	0.5693647861480713
209	176.55021595954895	response	0	k		207.0	/experiments/knapen_AOT/AOT_stimuli/pictures/1664_fw.png	288.4252440929413	
210	176.56375288963318	picture	0		98	208.0	/experiments/knapen_AOT/AOT_stimuli/pictures/1490_fw.png	288.4387810230255	0.819486141204834
210	177.37507796287537	response	0	j		208.0	/experiments/knapen_AOT/AOT_stimuli/pictures/1490_fw.png	289.2501060962677	
211	177.383239030838	picture	0		71	209.0	/experiments/knapen_AOT/AOT_stimuli/pictures/0298_fw.png	289.25826716423035	0.597282886505127
211	177.96685409545898	response	0	k		209.0	/experiments/knapen_AOT/AOT_stimuli/pictures/0298_fw.png	289.8418822288513	
212	177.98052191734314	picture	0		98	210.0	/experiments/knapen_AOT/AOT_stimuli/pictures/0690_fw.png	289.8555500507355	0.8278160095214844
212	178.79316806793213	response	0	k		210.0	/experiments/knapen_AOT/AOT_stimuli/pictures/0690_fw.png	290.66819620132446	
213	178.80833792686462	picture	0		88	211.0	/experiments/knapen_AOT/AOT_stimuli/pictures/1715_fw.png	290.68336606025696	0.7346000671386719
213	179.5334300994873	response	0	j		211.0	/experiments/knapen_AOT/AOT_stimuli/pictures/1715_fw.png	291.40845823287964	
214	179.5429379940033	picture	0		115	212.0	/experiments/knapen_AOT/AOT_stimuli/pictures/0640_fw.png	291.41796612739563	0.9583690166473389
214	180.491770029068	response	0	j		212.0	/experiments/knapen_AOT/AOT_stimuli/pictures/0640_fw.png	292.3667981624603	
215	180.50130701065063	picture	0		85	213.0	/experiments/knapen_AOT/AOT_stimuli/pictures/1139_fw.png	292.37633514404297	0.7083210945129395
215	181.20016503334045	response	0	k		213.0	/experiments/knapen_AOT/AOT_stimuli/pictures/1139_fw.png	293.0751931667328	
216	181.20962810516357	picture	0		80	214.0	/experiments/knapen_AOT/AOT_stimuli/pictures/1421_fw.png	293.0846562385559	0.6666929721832275
216	181.8600790500641	response	0	k		214.0	/experiments/knapen_AOT/AOT_stimuli/pictures/1421_fw.png	293.7351071834564	
217	181.8763210773468	picture	0		88	215.0	/experiments/knapen_AOT/AOT_stimuli/pictures/0127_fw.png	293.75134921073914	0.7361578941345215
217	182.60023307800293	response	0	j		215.0	/experiments/knapen_AOT/AOT_stimuli/pictures/0127_fw.png	294.47526121139526	
218	182.61247897148132	picture	0		80	216.0	/experiments/knapen_AOT/AOT_stimuli/pictures/0539_fw.png	294.48750710487366	0.6666951179504395
218	183.26014494895935	response	0	k		216.0	/experiments/knapen_AOT/AOT_stimuli/pictures/0539_fw.png	295.1351730823517	
219	183.27917408943176	picture	0		111	217.0	/experiments/knapen_AOT/AOT_stimuli/pictures/0050_fw.png	295.1542022228241	0.9235408306121826
219	184.1917929649353	response	0	j		217.0	/experiments/knapen_AOT/AOT_stimuli/pictures/0050_fw.png	296.06682109832764	
220	184.20271492004395	picture	0		9	218.0	/experiments/knapen_AOT/AOT_stimuli/pictures/1908_fw.png	296.0777430534363	0.07639598846435547
220	184.26005792617798	response	0	j		218.0	/experiments/knapen_AOT/AOT_stimuli/pictures/1908_fw.png	296.1350860595703	
221	184.2791109085083	picture	0		158	219.0	/experiments/knapen_AOT/AOT_stimuli/pictures/1011_fw.png	296.15413904190063	1.3125791549682617
221	185.5835120677948	response	0	j		219.0	/experiments/knapen_AOT/AOT_stimuli/pictures/1011_fw.png	297.45854020118713	
222	185.59169006347656	picture	0		117	220.0	/experiments/knapen_AOT/AOT_stimuli/pictures/1901_fw.png	297.4667181968689	1.0000200271606445
222	186.58363795280457	response	0	k		220.0	/experiments/knapen_AOT/AOT_stimuli/pictures/1901_fw.png	298.4586660861969	
223	186.5917100906372	picture	0		80	221.0	/experiments/knapen_AOT/AOT_stimuli/pictures/1540_fw.png	298.46673822402954	0.6666660308837891
223	187.24355912208557	response	0	j		221.0	/experiments/knapen_AOT/AOT_stimuli/pictures/1540_fw.png	299.1185872554779	
224	187.258376121521	picture	0		78	222.0	/experiments/knapen_AOT/AOT_stimuli/pictures/0627_fw.png	299.13340425491333	0.6526279449462891
224	187.9003140926361	response	0	j		222.0	/experiments/knapen_AOT/AOT_stimuli/pictures/0627_fw.png	299.77534222602844	
225	187.91100406646729	picture	0		93	223.0	/experiments/knapen_AOT/AOT_stimuli/pictures/1857_fw.png	299.7860321998596	0.7779190540313721
225	188.66847801208496	response	0	j		223.0	/experiments/knapen_AOT/AOT_stimuli/pictures/1857_fw.png	300.5435061454773	
226	188.68892312049866	picture	0		97	224.0	/experiments/knapen_AOT/AOT_stimuli/pictures/0704_fw.png	300.563951253891	0.8123807907104492
226	189.4919331073761	response	0	k		224.0	/experiments/knapen_AOT/AOT_stimuli/pictures/0704_fw.png	301.36696124076843	
227	189.5013039112091	picture	0		101	225.0	/experiments/knapen_AOT/AOT_stimuli/pictures/0412_fw.png	301.37633204460144	0.8404331207275391
227	190.33361411094666	response	0	j		225.0	/experiments/knapen_AOT/AOT_stimuli/pictures/0412_fw.png	302.208642244339	
228	190.34173703193665	picture	0		92	226.0	/experiments/knapen_AOT/AOT_stimuli/pictures/1471_fw.png	302.216765165329	0.7706799507141113
228	191.100261926651	response	0	j		226.0	/experiments/knapen_AOT/AOT_stimuli/pictures/1471_fw.png	302.97529006004333	
229	191.11241698265076	picture	0		74	227.0	/experiments/knapen_AOT/AOT_stimuli/pictures/1689_fw.png	302.9874451160431	0.6180319786071777
229	191.71688795089722	response	0	k		227.0	/experiments/knapen_AOT/AOT_stimuli/pictures/1689_fw.png	303.59191608428955	
230	191.73044896125793	picture	0		94	228.0	/experiments/knapen_AOT/AOT_stimuli/pictures/1275_fw.png	303.60547709465027	0.7916569709777832
230	192.50859093666077	response	0	k		228.0	/experiments/knapen_AOT/AOT_stimuli/pictures/1275_fw.png	304.3836190700531	
231	192.52210593223572	picture	0		92	229.0	/experiments/knapen_AOT/AOT_stimuli/pictures/0822_fw.png	304.39713406562805	0.7709860801696777
231	193.28363704681396	response	0	j		229.0	/experiments/knapen_AOT/AOT_stimuli/pictures/0822_fw.png	305.1586651802063	
232	193.2930920124054	picture	0		149	230.0	/experiments/knapen_AOT/AOT_stimuli/pictures/1498_fw.png	305.16812014579773	1.2429299354553223
232	194.52533102035522	response	0	j		230.0	/experiments/knapen_AOT/AOT_stimuli/pictures/1498_fw.png	306.40035915374756	
233	194.53602194786072	picture	0		74	231.0	/experiments/knapen_AOT/AOT_stimuli/pictures/0574_fw.png	306.41105008125305	0.6180970668792725
233	195.14217591285706	response	0	j		231.0	/experiments/knapen_AOT/AOT_stimuli/pictures/0574_fw.png	307.0172040462494	
234	195.15411901474	picture	0		152	232.0	/experiments/knapen_AOT/AOT_stimuli/pictures/1157_fw.png	307.0291471481323	1.2639760971069336
234	196.40869808197021	response	0	k		232.0	/experiments/knapen_AOT/AOT_stimuli/pictures/1157_fw.png	308.28372621536255	
235	196.41809511184692	picture	0		89	233.0	/experiments/knapen_AOT/AOT_stimuli/pictures/1751_fw.png	308.29312324523926	0.7430028915405273
235	197.15054392814636	response	0	k		233.0	/experiments/knapen_AOT/AOT_stimuli/pictures/1751_fw.png	309.0255720615387	
236	197.16109800338745	picture	0		85	234.0	/experiments/knapen_AOT/AOT_stimuli/pictures/0974_fw.png	309.0361261367798	0.7083098888397217
236	197.85196900367737	response	0	j		234.0	/experiments/knapen_AOT/AOT_stimuli/pictures/0974_fw.png	309.7269971370697	
237	197.86940789222717	picture	0		76	235.0	/experiments/knapen_AOT/AOT_stimuli/pictures/0164_fw.png	309.7444360256195	0.6319921016693115
237	198.49206709861755	response	0	k		235.0	/experiments/knapen_AOT/AOT_stimuli/pictures/0164_fw.png	310.3670952320099	
238	198.50139999389648	picture	0		87	236.0	/experiments/knapen_AOT/AOT_stimuli/pictures/0653_fw.png	310.3764281272888	0.7291018962860107
238	199.21696305274963	response	0	j		236.0	/experiments/knapen_AOT/AOT_stimuli/pictures/0653_fw.png	311.09199118614197	
239	199.2305018901825	picture	0		147	237.0	/experiments/knapen_AOT/AOT_stimuli/pictures/0411_fw.png	311.10553002357483	1.2291600704193115
239	200.44377899169922	response	0	j		237.0	/experiments/knapen_AOT/AOT_stimuli/pictures/0411_fw.png	312.31880712509155	
240	200.4596619606018	picture	0		78	238.0	/experiments/knapen_AOT/AOT_stimuli/pictures/0872_fw.png	312.33469009399414	0.6527969837188721
240	201.10036993026733	response	0	j		238.0	/experiments/knapen_AOT/AOT_stimuli/pictures/0872_fw.png	312.97539806365967	
241	201.11245894432068	picture	0		82	239.0	/experiments/knapen_AOT/AOT_stimuli/pictures/0847_fw.png	312.987487077713	0.6807260513305664
241	201.78374695777893	response	0	j		239.0	/experiments/knapen_AOT/AOT_stimuli/pictures/0847_fw.png	313.65877509117126	
242	201.79318499565125	picture	0		75	240.0	/experiments/knapen_AOT/AOT_stimuli/pictures/1843_fw.png	313.6682131290436	0.624967098236084
242	202.40873289108276	response	0	j		240.0	/experiments/knapen_AOT/AOT_stimuli/pictures/1843_fw.png	314.2837610244751	
243	202.41815209388733	picture	0		84	241.0	/experiments/knapen_AOT/AOT_stimuli/pictures/0920_fw.png	314.29318022727966	0.7013468742370605
243	203.1087338924408	response	0	j		241.0	/experiments/knapen_AOT/AOT_stimuli/pictures/0920_fw.png	314.98376202583313	
244	203.1194989681244	picture	0		81	242.0	/experiments/knapen_AOT/AOT_stimuli/pictures/2018_fw.png	314.9945271015167	0.6736850738525391
244	203.78374695777893	response	0	k		242.0	/experiments/knapen_AOT/AOT_stimuli/pictures/2018_fw.png	315.65877509117126	
245	203.79318404197693	picture	0		92	243.0	/experiments/knapen_AOT/AOT_stimuli/pictures/0565_fw.png	315.66821217536926	0.770766019821167
245	204.55044388771057	response	0	k		243.0	/experiments/knapen_AOT/AOT_stimuli/pictures/0565_fw.png	316.4254720211029	
246	204.5639500617981	picture	0		83	244.0	/experiments/knapen_AOT/AOT_stimuli/pictures/0526_fw.png	316.43897819519043	0.6946320533752441
246	205.24381494522095	response	0	j		244.0	/experiments/knapen_AOT/AOT_stimuli/pictures/0526_fw.png	317.1188430786133	
247	205.25858211517334	picture	0		99	245.0	/experiments/knapen_AOT/AOT_stimuli/pictures/0060_fw.png	317.1336102485657	0.8262019157409668
247	206.0755500793457	response	0	k		245.0	/experiments/knapen_AOT/AOT_stimuli/pictures/0060_fw.png	317.95057821273804	
248	206.0847840309143	picture	0		129	246.0	/experiments/knapen_AOT/AOT_stimuli/pictures/0841_fw.png	317.95981216430664	1.076469898223877
248	207.1504669189453	response	0	k		246.0	/experiments/knapen_AOT/AOT_stimuli/pictures/0841_fw.png	319.02549505233765	
249	207.16125392913818	picture	0		76	247.0	/experiments/knapen_AOT/AOT_stimuli/pictures/1014_fw.png	319.0362820625305	0.6319620609283447
249	207.78379607200623	response	0	j		247.0	/experiments/knapen_AOT/AOT_stimuli/pictures/1014_fw.png	319.65882420539856	
250	207.79321599006653	picture	0		117	248.0	/experiments/knapen_AOT/AOT_stimuli/pictures/0041_fw.png	319.66824412345886	0.9790189266204834
250	208.75878810882568	response	0	j		248.0	/experiments/knapen_AOT/AOT_stimuli/pictures/0041_fw.png	320.633816242218	
251	208.772234916687	picture	0		91	249.0	/experiments/knapen_AOT/AOT_stimuli/pictures/1448_fw.png	320.64726305007935	0.7640221118927002
251	209.52563190460205	response	0	k		249.0	/experiments/knapen_AOT/AOT_stimuli/pictures/1448_fw.png	321.4006600379944	
252	209.5362570285797	picture	0		91	250.0	/experiments/knapen_AOT/AOT_stimuli/pictures/0999_fw.png	321.41128516197205	0.7846300601959229
252	210.3088619709015	response	0	j		250.0	/experiments/knapen_AOT/AOT_stimuli/pictures/0999_fw.png	322.1838901042938	
253	210.32088708877563	picture	0		78	251.0	/experiments/knapen_AOT/AOT_stimuli/pictures/1841_fw.png	322.19591522216797	0.6461319923400879
253	210.95885801315308	response	0	j		251.0	/experiments/knapen_AOT/AOT_stimuli/pictures/1841_fw.png	322.8338861465454	
254	210.96701908111572	picture	0		104	252.0	/experiments/knapen_AOT/AOT_stimuli/pictures/0820_fw.png	322.84204721450806	0.867750883102417
254	211.81885194778442	response	0	k		252.0	/experiments/knapen_AOT/AOT_stimuli/pictures/0820_fw.png	323.69388008117676	
255	211.83476996421814	picture	0		99	253.0	/experiments/knapen_AOT/AOT_stimuli/pictures/2035_fw.png	323.7097980976105	0.8264350891113281
255	212.6439230442047	response	0	k		253.0	/experiments/knapen_AOT/AOT_stimuli/pictures/2035_fw.png	324.51895117759705	
256	212.66120505332947	picture	0		86	254.0	/experiments/knapen_AOT/AOT_stimuli/pictures/1509_fw.png	324.5362331867218	0.7153210639953613
256	213.36736702919006	response	0	k		254.0	/experiments/knapen_AOT/AOT_stimuli/pictures/1509_fw.png	325.2423951625824	
257	213.37652611732483	picture	0		70	255.0	/experiments/knapen_AOT/AOT_stimuli/pictures/0035_fw.png	325.25155425071716	0.5833327770233154
257	213.9506630897522	response	0	k		255.0	/experiments/knapen_AOT/AOT_stimuli/pictures/0035_fw.png	325.82569122314453	
258	213.95985889434814	picture	0		90	256.0	/experiments/knapen_AOT/AOT_stimuli/pictures/1503_fw.png	325.8348870277405	0.7499840259552002
258	214.70063710212708	response	0	j		256.0	/experiments/knapen_AOT/AOT_stimuli/pictures/1503_fw.png	326.5756652355194	
259	214.70984292030334	picture	0		79	257.0	/experiments/knapen_AOT/AOT_stimuli/pictures/0757_fw.png	326.5848710536957	0.6656310558319092
259	215.35891604423523	response	0	k		257.0	/experiments/knapen_AOT/AOT_stimuli/pictures/0757_fw.png	327.23394417762756	
260	215.37547397613525	picture	0		90	258.0	/experiments/knapen_AOT/AOT_stimuli/pictures/1018_fw.png	327.2505021095276	0.7511141300201416
260	216.11738991737366	response	0	k		258.0	/experiments/knapen_AOT/AOT_stimuli/pictures/1018_fw.png	327.992418050766	
261	216.1265881061554	picture	0		81	259.0	/experiments/knapen_AOT/AOT_stimuli/pictures/0727_fw.png	328.00161623954773	0.6738557815551758
261	216.7923219203949	response	0	k		259.0	/experiments/knapen_AOT/AOT_stimuli/pictures/0727_fw.png	328.66735005378723	
262	216.80044388771057	picture	0		106	260.0	/experiments/knapen_AOT/AOT_stimuli/pictures/1936_fw.png	328.6754720211029	0.8885490894317627
262	217.67558407783508	response	0	k		260.0	/experiments/knapen_AOT/AOT_stimuli/pictures/1936_fw.png	329.5506122112274	
263	217.68899297714233	picture	0		95	261.0	/experiments/knapen_AOT/AOT_stimuli/pictures/1107_fw.png	329.56402111053467	0.7986040115356445
263	218.47562503814697	response	0	j		261.0	/experiments/knapen_AOT/AOT_stimuli/pictures/1107_fw.png	330.3506531715393	
264	218.48759698867798	picture	0		119	262.0	/experiments/knapen_AOT/AOT_stimuli/pictures/1113_fw.png	330.3626251220703	0.9930601119995117
264	219.46736192703247	response	0	j		262.0	/experiments/knapen_AOT/AOT_stimuli/pictures/1113_fw.png	331.3423900604248	
265	219.4806571006775	picture	0		70	263.0	/experiments/knapen_AOT/AOT_stimuli/pictures/0079_fw.png	331.3556852340698	0.5903029441833496
265	220.05895590782166	response	0	j		263.0	/experiments/knapen_AOT/AOT_stimuli/pictures/0079_fw.png	331.933984041214	
266	220.07096004486084	picture	0		90	264.0	/experiments/knapen_AOT/AOT_stimuli/pictures/0067_fw.png	331.9459881782532	0.7500078678131104
266	220.8022758960724	response	0	j		264.0	/experiments/knapen_AOT/AOT_stimuli/pictures/0067_fw.png	332.6773040294647	
267	220.82096791267395	picture	0		104	265.0	/experiments/knapen_AOT/AOT_stimuli/pictures/0018_fw.png	332.6959960460663	0.8680710792541504
267	221.67565608024597	response	0	j		265.0	/experiments/knapen_AOT/AOT_stimuli/pictures/0018_fw.png	333.5506842136383	
268	221.6890389919281	picture	0		213	266.0	/experiments/knapen_AOT/AOT_stimuli/pictures/1792_fw.png	333.56406712532043	1.7847609519958496
268	223.45905089378357	response	0	k		266.0	/experiments/knapen_AOT/AOT_stimuli/pictures/1792_fw.png	335.3340790271759	
269	223.47379994392395	picture	0		80	267.0	/experiments/knapen_AOT/AOT_stimuli/pictures/1496_fw.png	335.3488280773163	0.6735610961914062
269	224.1340069770813	response	0	k		267.0	/experiments/knapen_AOT/AOT_stimuli/pictures/1496_fw.png	336.00903511047363	
270	224.14736104011536	picture	0		131	268.0	/experiments/knapen_AOT/AOT_stimuli/pictures/0692_fw.png	336.0223891735077	1.0972318649291992
270	225.22742295265198	response	0	j		268.0	/experiments/knapen_AOT/AOT_stimuli/pictures/0692_fw.png	337.1024510860443	
271	225.24459290504456	picture	0		155	269.0	/experiments/knapen_AOT/AOT_stimuli/pictures/0955_fw.png	337.1196210384369	1.291680097579956
271	226.525780916214	response	0	j		269.0	/experiments/knapen_AOT/AOT_stimuli/pictures/0955_fw.png	338.4008090496063	
272	226.5362730026245	picture	0		117	270.0	/experiments/knapen_AOT/AOT_stimuli/pictures/0347_fw.png	338.41130113601685	0.972661018371582
272	227.50075507164001	response	0	k		270.0	/experiments/knapen_AOT/AOT_stimuli/pictures/0347_fw.png	339.37578320503235	
273	227.5089340209961	picture	0		79	271.0	/experiments/knapen_AOT/AOT_stimuli/pictures/0408_fw.png	339.3839621543884	0.6593029499053955
273	228.1591420173645	response	0	k		271.0	/experiments/knapen_AOT/AOT_stimuli/pictures/0408_fw.png	340.03417015075684	
274	228.1682369709015	picture	0		63	272.0	/experiments/knapen_AOT/AOT_stimuli/pictures/1669_fw.png	340.0432651042938	0.5277800559997559
274	228.68422293663025	response	0	k		272.0	/experiments/knapen_AOT/AOT_stimuli/pictures/1669_fw.png	340.5592510700226	
275	228.69601702690125	picture	0		138	273.0	/experiments/knapen_AOT/AOT_stimuli/pictures/0666_fw.png	340.5710451602936	1.1528589725494385
275	229.8340721130371	response	0	j		273.0	/experiments/knapen_AOT/AOT_stimuli/pictures/0666_fw.png	341.70910024642944	
276	229.84887599945068	picture	0		100	274.0	/experiments/knapen_AOT/AOT_stimuli/pictures/2175_fw.png	341.723904132843	0.8402070999145508
276	230.67578792572021	response	0	k		274.0	/experiments/knapen_AOT/AOT_stimuli/pictures/2175_fw.png	342.55081605911255	
277	230.68908309936523	picture	0		113	275.0	/experiments/knapen_AOT/AOT_stimuli/pictures/1325_fw.png	342.56411123275757	0.9532098770141602
277	231.61915397644043	response	0	j		275.0	/experiments/knapen_AOT/AOT_stimuli/pictures/1325_fw.png	343.49418210983276	
278	231.6422929763794	picture	0		127	276.0	/experiments/knapen_AOT/AOT_stimuli/pictures/0522_fw.png	343.51732110977173	1.0607390403747559
278	232.6925139427185	response	0	k		276.0	/experiments/knapen_AOT/AOT_stimuli/pictures/0522_fw.png	344.56754207611084	
279	232.70303201675415	picture	0		85	277.0	/experiments/knapen_AOT/AOT_stimuli/pictures/1712_fw.png	344.5780601501465	0.7083089351654053
279	233.3941740989685	response	0	k		277.0	/experiments/knapen_AOT/AOT_stimuli/pictures/1712_fw.png	345.26920223236084	
280	233.41134095191956	picture	0		100	278.0	/experiments/knapen_AOT/AOT_stimuli/pictures/1160_fw.png	345.2863690853119	0.8333470821380615
280	234.23409700393677	response	0	j		278.0	/experiments/knapen_AOT/AOT_stimuli/pictures/1160_fw.png	346.1091251373291	
281	234.24468803405762	picture	0		97	279.0	/experiments/knapen_AOT/AOT_stimuli/pictures/1145_fw.png	346.11971616744995	0.80594801902771
281	235.04261589050293	response	0	j		279.0	/experiments/knapen_AOT/AOT_stimuli/pictures/1145_fw.png	346.91764402389526	
282	235.05063605308533	picture	0		83	280.0	/experiments/knapen_AOT/AOT_stimuli/pictures/0603_fw.png	346.92566418647766	0.7218198776245117
282	235.75920701026917	response	0	j		280.0	/experiments/knapen_AOT/AOT_stimuli/pictures/0603_fw.png	347.6342351436615	
283	235.77245593070984	picture	0		98	281.0	/experiments/knapen_AOT/AOT_stimuli/pictures/1487_fw.png	347.6474840641022	0.8198671340942383
283	236.58422303199768	response	0	j		281.0	/experiments/knapen_AOT/AOT_stimuli/pictures/1487_fw.png	348.45925116539	
284	236.59232306480408	picture	0		85	282.0	/experiments/knapen_AOT/AOT_stimuli/pictures/1879_fw.png	348.4673511981964	0.7083389759063721
284	237.29265308380127	response	0	j		282.0	/experiments/knapen_AOT/AOT_stimuli/pictures/1879_fw.png	349.1676812171936	
285	237.30066204071045	picture	0		84	283.0	/experiments/knapen_AOT/AOT_stimuli/pictures/0638_fw.png	349.1756901741028	0.7009708881378174
285	237.98580503463745	response	0	j		283.0	/experiments/knapen_AOT/AOT_stimuli/pictures/0638_fw.png	349.8608331680298	
286	238.00163292884827	picture	0		87	284.0	/experiments/knapen_AOT/AOT_stimuli/pictures/0541_fw.png	349.8766610622406	0.7291760444641113
286	238.71764612197876	response	0	j		284.0	/experiments/knapen_AOT/AOT_stimuli/pictures/0541_fw.png	350.5926742553711	
287	238.73080897331238	picture	0		94	285.0	/experiments/knapen_AOT/AOT_stimuli/pictures/1004_fw.png	350.6058371067047	0.7916629314422607
287	239.50924611091614	response	0	k		285.0	/experiments/knapen_AOT/AOT_stimuli/pictures/1004_fw.png	351.3842742443085	
288	239.52247190475464	picture	0		97	286.0	/experiments/knapen_AOT/AOT_stimuli/pictures/1898_fw.png	351.397500038147	0.8126389980316162
288	240.32611298561096	response	0	j		286.0	/experiments/knapen_AOT/AOT_stimuli/pictures/1898_fw.png	352.2011411190033	
289	240.33511090278625	picture	0		155	287.0	/experiments/knapen_AOT/AOT_stimuli/pictures/0577_fw.png	352.2101390361786	1.2915260791778564
289	241.61774492263794	response	0	k		287.0	/experiments/knapen_AOT/AOT_stimuli/pictures/0577_fw.png	353.4927730560303	
290	241.6266369819641	picture	0		92	288.0	/experiments/knapen_AOT/AOT_stimuli/pictures/1596_fw.png	353.50166511535645	0.7742340564727783
290	242.37764811515808	response	0	k		288.0	/experiments/knapen_AOT/AOT_stimuli/pictures/1596_fw.png	354.2526762485504	
291	242.4008710384369	picture	0		117	289.0	/experiments/knapen_AOT/AOT_stimuli/pictures/0916_fw.png	354.2758991718292	0.9758188724517822
291	243.36758995056152	response	0	j		289.0	/experiments/knapen_AOT/AOT_stimuli/pictures/0916_fw.png	355.24261808395386	
292	243.37668991088867	picture	0		165	290.0	/experiments/knapen_AOT/AOT_stimuli/pictures/1296_fw.png	355.251718044281	1.3750150203704834
292	244.74271392822266	response	0	j		290.0	/experiments/knapen_AOT/AOT_stimuli/pictures/1296_fw.png	356.617742061615	
293	244.75170493125916	picture	0		96	291.0	/experiments/knapen_AOT/AOT_stimuli/pictures/0248_fw.png	356.6267330646515	0.8056180477142334
293	245.54277300834656	response	0	k		291.0	/experiments/knapen_AOT/AOT_stimuli/pictures/0248_fw.png	357.4178011417389	
294	245.5573229789734	picture	0		104	292.0	/experiments/knapen_AOT/AOT_stimuli/pictures/1131_fw.png	357.4323511123657	0.8749959468841553
294	246.41096591949463	response	0	j		292.0	/experiments/knapen_AOT/AOT_stimuli/pictures/1131_fw.png	358.28599405288696	
295	246.43231892585754	picture	0		144	293.0	/experiments/knapen_AOT/AOT_stimuli/pictures/0434_fw.png	358.3073470592499	1.210205078125
295	247.62617301940918	response	0	k		293.0	/experiments/knapen_AOT/AOT_stimuli/pictures/0434_fw.png	359.5012011528015	
296	247.64252400398254	picture	0		96	294.0	/experiments/knapen_AOT/AOT_stimuli/pictures/0357_fw.png	359.5175521373749	0.8083529472351074
296	248.43438601493835	response	0	k		294.0	/experiments/knapen_AOT/AOT_stimuli/pictures/0357_fw.png	360.3094141483307	
297	248.45087695121765	picture	0		88	295.0	/experiments/knapen_AOT/AOT_stimuli/pictures/0686_fw.png	360.32590508461	0.7383689880371094
297	249.17601108551025	response	0	j		295.0	/experiments/knapen_AOT/AOT_stimuli/pictures/0686_fw.png	361.0510392189026	
298	249.18924593925476	picture	0		136	296.0	/experiments/knapen_AOT/AOT_stimuli/pictures/0265_fw.png	361.0642740726471	1.1389861106872559
298	250.31770396232605	response	0	j		296.0	/experiments/knapen_AOT/AOT_stimuli/pictures/0265_fw.png	362.1927320957184	
299	250.32823204994202	picture	0		125	297.0	/experiments/knapen_AOT/AOT_stimuli/pictures/2143_fw.png	362.20326018333435	1.0476758480072021
299	251.35943007469177	response	0	j		297.0	/experiments/knapen_AOT/AOT_stimuli/pictures/2143_fw.png	363.2344582080841	
300	251.37590789794922	picture	0		122	298.0	/experiments/knapen_AOT/AOT_stimuli/pictures/0039_fw.png	363.25093603134155	1.0216751098632812
300	252.37848496437073	response	0	k		298.0	/experiments/knapen_AOT/AOT_stimuli/pictures/0039_fw.png	364.25351309776306	
301	252.3975830078125	picture	0		85	299.0	/experiments/knapen_AOT/AOT_stimuli/pictures/0889_fw.png	364.27261114120483	0.7152600288391113
301	253.10115098953247	response	0	k		299.0	/experiments/knapen_AOT/AOT_stimuli/pictures/0889_fw.png	364.9761791229248	
302	253.1128430366516	picture	0		88	300.0	/experiments/knapen_AOT/AOT_stimuli/pictures/2058_fw.png	364.98787117004395	0.7381629943847656
302	253.83535289764404	response	0	j		300.0	/experiments/knapen_AOT/AOT_stimuli/pictures/2058_fw.png	365.7103810310364	
303	253.85100603103638	picture	0		79	301.0	/experiments/knapen_AOT/AOT_stimuli/pictures/1846_fw.png	365.7260341644287	0.6647250652313232
303	254.50120997428894	response	0	k		301.0	/experiments/knapen_AOT/AOT_stimuli/pictures/1846_fw.png	366.3762381076813	
304	254.5157310962677	picture	0		74	302.0	/experiments/knapen_AOT/AOT_stimuli/pictures/2091_fw.png	366.39075922966003	0.624910831451416
304	255.12621903419495	response	0	k		302.0	/experiments/knapen_AOT/AOT_stimuli/pictures/2091_fw.png	367.0012471675873	
305	255.14064192771912	picture	0		75	303.0	/experiments/knapen_AOT/AOT_stimuli/pictures/0544_fw.png	367.01567006111145	0.6319520473480225
305	255.75951504707336	response	0	k		303.0	/experiments/knapen_AOT/AOT_stimuli/pictures/0544_fw.png	367.6345431804657	
306	255.77259397506714	picture	0		99	304.0	/experiments/knapen_AOT/AOT_stimuli/pictures/1772_fw.png	367.6476221084595	0.8333640098571777
306	256.5860080718994	response	0	k		304.0	/experiments/knapen_AOT/AOT_stimuli/pictures/1772_fw.png	368.46103620529175	
307	256.6059579849243	picture	0		88	305.0	/experiments/knapen_AOT/AOT_stimuli/pictures/1055_fw.png	368.48098611831665	0.7430441379547119
307	257.33453702926636	response	0	j		305.0	/experiments/knapen_AOT/AOT_stimuli/pictures/1055_fw.png	369.2095651626587	
308	257.349002122879	picture	0		86	306.0	/experiments/knapen_AOT/AOT_stimuli/pictures/0152_fw.png	369.22403025627136	0.7270097732543945
308	258.05951404571533	response	0	k		306.0	/experiments/knapen_AOT/AOT_stimuli/pictures/0152_fw.png	369.93454217910767	
309	258.0760118961334	picture	0		89	307.0	/experiments/knapen_AOT/AOT_stimuli/pictures/0371_fw.png	369.95104002952576	0.7452421188354492
309	258.8094320297241	response	0	k		307.0	/experiments/knapen_AOT/AOT_stimuli/pictures/0371_fw.png	370.68446016311646	
310	258.8212540149689	picture	0		89	308.0	/experiments/knapen_AOT/AOT_stimuli/pictures/1856_fw.png	370.6962821483612	0.7430620193481445
310	259.5512149333954	response	0	j		308.0	/experiments/knapen_AOT/AOT_stimuli/pictures/1856_fw.png	371.4262430667877	
311	259.564316034317	picture	0		99	309.0	/experiments/knapen_AOT/AOT_stimuli/pictures/0349_fw.png	371.43934416770935	0.8617329597473145
311	260.4178628921509	response	0	k		309.0	/experiments/knapen_AOT/AOT_stimuli/pictures/0349_fw.png	372.2928910255432	
312	260.42604899406433	picture	0		82	310.0	/experiments/knapen_AOT/AOT_stimuli/pictures/0043_fw.png	372.30107712745667	0.6868588924407959
312	261.1012749671936	response	0	k		310.0	/experiments/knapen_AOT/AOT_stimuli/pictures/0043_fw.png	372.97630310058594	
313	261.1129078865051	picture	0		96	311.0	/experiments/knapen_AOT/AOT_stimuli/pictures/0941_fw.png	372.98793601989746	0.8047771453857422
313	261.901230096817	response	0	j		311.0	/experiments/knapen_AOT/AOT_stimuli/pictures/0941_fw.png	373.77625823020935	
314	261.91768503189087	picture	0		86	312.0	/experiments/knapen_AOT/AOT_stimuli/pictures/2116_fw.png	373.7927131652832	0.7229950428009033
314	262.6263349056244	response	0	j		312.0	/experiments/knapen_AOT/AOT_stimuli/pictures/2116_fw.png	374.5013630390167	
315	262.6406800746918	picture	0		81	313.0	/experiments/knapen_AOT/AOT_stimuli/pictures/0981_fw.png	374.5157082080841	0.6805968284606934
315	263.30956411361694	response	0	j		313.0	/experiments/knapen_AOT/AOT_stimuli/pictures/0981_fw.png	375.1845922470093	
316	263.32127690315247	picture	0		77	314.0	/experiments/knapen_AOT/AOT_stimuli/pictures/1240_fw.png	375.1963050365448	0.6464262008666992
316	263.9512560367584	response	0	j		314.0	/experiments/knapen_AOT/AOT_stimuli/pictures/1240_fw.png	375.82628417015076	
317	263.96770310401917	picture	0		73	315.0	/experiments/knapen_AOT/AOT_stimuli/pictures/1748_fw.png	375.8427312374115	0.6106557846069336
317	264.5611209869385	response	0	k		315.0	/experiments/knapen_AOT/AOT_stimuli/pictures/1748_fw.png	376.4361491203308	
318	264.5783588886261	picture	0		127	316.0	/experiments/knapen_AOT/AOT_stimuli/pictures/0849_fw.png	376.45338702201843	1.0623722076416016
318	265.6262381076813	response	0	k		316.0	/experiments/knapen_AOT/AOT_stimuli/pictures/0849_fw.png	377.5012662410736	
319	265.6407310962677	picture	0		64	317.0	/experiments/knapen_AOT/AOT_stimuli/pictures/1644_fw.png	377.51575922966003	0.5437119007110596
319	266.1612570285797	response	0	k		317.0	/experiments/knapen_AOT/AOT_stimuli/pictures/1644_fw.png	378.03628516197205	
320	266.18444299697876	picture	0		110	318.0	/experiments/knapen_AOT/AOT_stimuli/pictures/1608_fw.png	378.0594711303711	0.9215950965881348
320	267.09304094314575	response	0	j		318.0	/experiments/knapen_AOT/AOT_stimuli/pictures/1608_fw.png	378.9680690765381	
321	267.1060380935669	picture	0		92	319.0	/experiments/knapen_AOT/AOT_stimuli/pictures/2111_fw.png	378.98106622695923	0.7710089683532715
321	267.86796402931213	response	0	k		319.0	/experiments/knapen_AOT/AOT_stimuli/pictures/2111_fw.png	379.74299216270447	
322	267.87704706192017	picture	0		101	320.0	/experiments/knapen_AOT/AOT_stimuli/pictures/0620_fw.png	379.7520751953125	0.849066972732544
322	268.7104799747467	response	0	k		320.0	/experiments/knapen_AOT/AOT_stimuli/pictures/0620_fw.png	380.58550810813904	
323	268.7261140346527	picture	0		101	321.0	/experiments/knapen_AOT/AOT_stimuli/pictures/0659_fw.png	380.60114216804504	0.84527587890625
323	269.55305790901184	response	0	k		321.0	/experiments/knapen_AOT/AOT_stimuli/pictures/0659_fw.png	381.4280860424042	
324	269.57138991355896	picture	0		86	322.0	/experiments/knapen_AOT/AOT_stimuli/pictures/1053_fw.png	381.4464180469513	0.7152070999145508
324	270.2764880657196	response	0	k		322.0	/experiments/knapen_AOT/AOT_stimuli/pictures/1053_fw.png	382.15151619911194	
325	270.2865970134735	picture	0		106	323.0	/experiments/knapen_AOT/AOT_stimuli/pictures/0169_fw.png	382.16162514686584	0.8819329738616943
325	271.1530361175537	response	0	k		323.0	/experiments/knapen_AOT/AOT_stimuli/pictures/0169_fw.png	383.02806425094604	
326	271.1685299873352	picture	0		92	324.0	/experiments/knapen_AOT/AOT_stimuli/pictures/1417_fw.png	383.04355812072754	0.7708930969238281
326	271.9264130592346	response	0	j		324.0	/experiments/knapen_AOT/AOT_stimuli/pictures/1417_fw.png	383.80144119262695	
327	271.93942308425903	picture	0		94	325.0	/experiments/knapen_AOT/AOT_stimuli/pictures/1790_fw.png	383.81445121765137	0.7916579246520996
327	272.7180631160736	response	0	k		325.0	/experiments/knapen_AOT/AOT_stimuli/pictures/1790_fw.png	384.59309124946594	
328	272.73108100891113	picture	0		89	326.0	/experiments/knapen_AOT/AOT_stimuli/pictures/0380_fw.png	384.60610914230347	0.7500259876251221
328	273.46808099746704	response	0	k		326.0	/experiments/knapen_AOT/AOT_stimuli/pictures/0380_fw.png	385.3431091308594	
329	273.48110699653625	picture	0		82	327.0	/experiments/knapen_AOT/AOT_stimuli/pictures/0281_fw.png	385.3561351299286	0.6874580383300781
329	274.1529839038849	response	0	k		327.0	/experiments/knapen_AOT/AOT_stimuli/pictures/0281_fw.png	386.0280120372772	
330	274.16856503486633	picture	0		82	328.0	/experiments/knapen_AOT/AOT_stimuli/pictures/1013_fw.png	386.04359316825867	0.6875419616699219
330	274.84312200546265	response	0	j		328.0	/experiments/knapen_AOT/AOT_stimuli/pictures/1013_fw.png	386.718150138855	
331	274.85610699653625	picture	0		121	329.0	/experiments/knapen_AOT/AOT_stimuli/pictures/0019_fw.png	386.7311351299286	1.0139961242675781
331	275.85972905158997	response	0	j		329.0	/experiments/knapen_AOT/AOT_stimuli/pictures/0019_fw.png	387.7347571849823	
332	275.87010312080383	picture	0		80	330.0	/experiments/knapen_AOT/AOT_stimuli/pictures/1266_fw.png	387.74513125419617	0.666632890701294
332	276.52644205093384	response	0	j		330.0	/experiments/knapen_AOT/AOT_stimuli/pictures/1266_fw.png	388.4014701843262	
333	276.5367360115051	picture	0		75	331.0	/experiments/knapen_AOT/AOT_stimuli/pictures/1205_fw.png	388.41176414489746	0.6249239444732666
333	277.1447079181671	response	0	k		331.0	/experiments/knapen_AOT/AOT_stimuli/pictures/1205_fw.png	389.01973605155945	
334	277.1616599559784	picture	0		88	332.0	/experiments/knapen_AOT/AOT_stimuli/pictures/1494_fw.png	389.0366880893707	0.736130952835083
334	277.88480401039124	response	0	k		332.0	/experiments/knapen_AOT/AOT_stimuli/pictures/1494_fw.png	389.75983214378357	
335	277.8977909088135	picture	0		94	333.0	/experiments/knapen_AOT/AOT_stimuli/pictures/0115_fw.png	389.7728190422058	0.7951931953430176
335	278.6765019893646	response	0	j		333.0	/experiments/knapen_AOT/AOT_stimuli/pictures/0115_fw.png	390.55153012275696	
336	278.6929841041565	picture	0		97	334.0	/experiments/knapen_AOT/AOT_stimuli/pictures/2031_fw.png	390.5680122375488	0.809067964553833
336	279.4930500984192	response	0	k		334.0	/experiments/knapen_AOT/AOT_stimuli/pictures/2031_fw.png	391.3680782318115	
337	279.5020520687103	picture	0		99	335.0	/experiments/knapen_AOT/AOT_stimuli/pictures/1044_fw.png	391.37708020210266	0.826401948928833
337	280.3180959224701	response	0	j		335.0	/experiments/knapen_AOT/AOT_stimuli/pictures/1044_fw.png	392.1931240558624	
338	280.32845401763916	picture	0		78	336.0	/experiments/knapen_AOT/AOT_stimuli/pictures/2105_fw.png	392.2034821510315	0.6526970863342285
338	280.96215200424194	response	0	k		336.0	/experiments/knapen_AOT/AOT_stimuli/pictures/2105_fw.png	392.8371801376343	
339	280.9811511039734	picture	0		126	337.0	/experiments/knapen_AOT/AOT_stimuli/pictures/1231_fw.png	392.8561792373657	1.0555658340454102
339	282.0265619754791	response	0	j		337.0	/experiments/knapen_AOT/AOT_stimuli/pictures/1231_fw.png	393.90159010887146	
340	282.0367169380188	picture	0		89	338.0	/experiments/knapen_AOT/AOT_stimuli/pictures/1532_fw.png	393.91174507141113	0.7430269718170166
340	282.7614231109619	response	0	k		338.0	/experiments/knapen_AOT/AOT_stimuli/pictures/1532_fw.png	394.63645124435425	
341	282.7797439098358	picture	0		86	339.0	/experiments/knapen_AOT/AOT_stimuli/pictures/0752_fw.png	394.65477204322815	0.7152721881866455
341	283.484806060791	response	0	j		339.0	/experiments/knapen_AOT/AOT_stimuli/pictures/0752_fw.png	395.35983419418335	
342	283.49501609802246	picture	0		90	340.0	/experiments/knapen_AOT/AOT_stimuli/pictures/1650_fw.png	395.3700442314148	0.7502169609069824
342	284.23477005958557	response	0	k		340.0	/experiments/knapen_AOT/AOT_stimuli/pictures/1650_fw.png	396.1097981929779	
343	284.24523305892944	picture	0		101	341.0	/experiments/knapen_AOT/AOT_stimuli/pictures/0007_fw.png	396.1202611923218	0.8401579856872559
343	285.0765929222107	response	0	k		341.0	/experiments/knapen_AOT/AOT_stimuli/pictures/0007_fw.png	396.951621055603	
344	285.0853910446167	picture	0		93	342.0	/experiments/knapen_AOT/AOT_stimuli/pictures/1148_fw.png	396.96041917800903	0.7777328491210938
344	285.85161304473877	response	0	j		342.0	/experiments/knapen_AOT/AOT_stimuli/pictures/1148_fw.png	397.7266411781311	
345	285.8631238937378	picture	0		89	343.0	/experiments/knapen_AOT/AOT_stimuli/pictures/0894_fw.png	397.7381520271301	0.7570450305938721
345	286.60991501808167	response	0	j		343.0	/experiments/knapen_AOT/AOT_stimuli/pictures/0894_fw.png	398.484943151474	
346	286.62016892433167	picture	0		82	344.0	/experiments/knapen_AOT/AOT_stimuli/pictures/0220_fw.png	398.495197057724	0.6895201206207275
346	287.29388403892517	response	0	k		344.0	/experiments/knapen_AOT/AOT_stimuli/pictures/0220_fw.png	399.1689121723175	
347	287.3096890449524	picture	0		76	345.0	/experiments/knapen_AOT/AOT_stimuli/pictures/2045_fw.png	399.1847171783447	0.6367480754852295
347	287.9348409175873	response	0	k		345.0	/experiments/knapen_AOT/AOT_stimuli/pictures/2045_fw.png	399.8098690509796	
348	287.9464371204376	picture	0		78	346.0	/experiments/knapen_AOT/AOT_stimuli/pictures/1579_fw.png	399.82146525382996	0.6549849510192871
348	288.58552598953247	response	0	k		346.0	/experiments/knapen_AOT/AOT_stimuli/pictures/1579_fw.png	400.4605541229248	
349	288.6014220714569	picture	0		99	347.0	/experiments/knapen_AOT/AOT_stimuli/pictures/1063_fw.png	400.47645020484924	0.8332948684692383
349	289.4188051223755	response	0	k		347.0	/experiments/knapen_AOT/AOT_stimuli/pictures/1063_fw.png	401.2938332557678	
350	289.43471693992615	picture	0		89	348.0	/experiments/knapen_AOT/AOT_stimuli/pictures/0026_fw.png	401.3097450733185	0.7478549480438232
350	290.1615478992462	response	0	k		348.0	/experiments/knapen_AOT/AOT_stimuli/pictures/0026_fw.png	402.03657603263855	
351	290.18257188796997	picture	0		91	349.0	/experiments/knapen_AOT/AOT_stimuli/pictures/0453_fw.png	402.0576000213623	0.7639060020446777
351	290.9349389076233	response	0	k		349.0	/experiments/knapen_AOT/AOT_stimuli/pictures/0453_fw.png	402.8099670410156	
352	290.94647789001465	picture	0		89	350.0	/experiments/knapen_AOT/AOT_stimuli/pictures/1904_fw.png	402.821506023407	0.7430591583251953
352	291.67662596702576	response	0	k		350.0	/experiments/knapen_AOT/AOT_stimuli/pictures/1904_fw.png	403.5516541004181	
353	291.68953704833984	picture	0		101	351.0	/experiments/knapen_AOT/AOT_stimuli/pictures/1660_fw.png	403.5645651817322	0.847308874130249
353	292.52671790122986	response	0	j		351.0	/experiments/knapen_AOT/AOT_stimuli/pictures/1660_fw.png	404.4017460346222	
354	292.5368459224701	picture	0		87	352.0	/experiments/knapen_AOT/AOT_stimuli/pictures/1339_fw.png	404.4118740558624	0.7312860488891602
354	293.25223898887634	response	0	k		352.0	/experiments/knapen_AOT/AOT_stimuli/pictures/1339_fw.png	405.1272671222687	
355	293.26813197135925	picture	0		89	353.0	/experiments/knapen_AOT/AOT_stimuli/pictures/2151_fw.png	405.1431601047516	0.7500810623168945
355	294.002240896225	response	0	j		353.0	/experiments/knapen_AOT/AOT_stimuli/pictures/2151_fw.png	405.8772690296173	
356	294.01821303367615	picture	0		154	354.0	/experiments/knapen_AOT/AOT_stimuli/pictures/1909_fw.png	405.8932411670685	1.2916290760040283
356	295.2940239906311	response	0	j		354.0	/experiments/knapen_AOT/AOT_stimuli/pictures/1909_fw.png	407.16905212402344	
357	295.3098421096802	picture	0		82	355.0	/experiments/knapen_AOT/AOT_stimuli/pictures/1656_fw.png	407.1848702430725	0.6853289604187012
357	295.9850549697876	response	0	j		355.0	/experiments/knapen_AOT/AOT_stimuli/pictures/1656_fw.png	407.86008310317993	
358	295.9951710700989	picture	0		79	356.0	/experiments/knapen_AOT/AOT_stimuli/pictures/1032_fw.png	407.8701992034912	0.6646749973297119
358	296.64326095581055	response	0	j		356.0	/experiments/knapen_AOT/AOT_stimuli/pictures/1032_fw.png	408.5182890892029	
359	296.6598460674286	picture	0		81	357.0	/experiments/knapen_AOT/AOT_stimuli/pictures/1250_fw.png	408.5348742008209	0.6756348609924316
359	297.326740026474	response	0	j		357.0	/experiments/knapen_AOT/AOT_stimuli/pictures/1250_fw.png	409.20176815986633	
360	297.335480928421	picture	0		78	358.0	/experiments/knapen_AOT/AOT_stimuli/pictures/0033_fw.png	409.21050906181335	0.6527810096740723
360	297.97661304473877	response	0	j		358.0	/experiments/knapen_AOT/AOT_stimuli/pictures/0033_fw.png	409.8516411781311	
361	297.9882619380951	picture	0		89	359.0	/experiments/knapen_AOT/AOT_stimuli/pictures/1945_fw.png	409.8632900714874	0.7465879917144775
361	298.7121739387512	response	0	k		359.0	/experiments/knapen_AOT/AOT_stimuli/pictures/1945_fw.png	410.58720207214355	
362	298.73484992980957	stim	0		524			410.6098780632019	4.386979103088379
362	303.1017920970917	response	0	space				414.976820230484	
