trial_nr	onset	event_type	phase	response	nr_frames	picture_index	picture_file	onset_abs	duration
0	0.20676708221435547	stim	0		520			110.8365330696106	4.3416969776153564
0	4.531936168670654	response	0	space				115.1617021560669	
2	4.548464059829712	picture	0		126	0.0	/experiments/knapen_AOT/AOT_stimuli/pictures/0184_fw.png	115.17823004722595	1.073983907699585
2	5.587534189224243	response	0	j		0.0	/experiments/knapen_AOT/AOT_stimuli/pictures/0184_fw.png	116.21730017662048	
3	5.622447967529297	picture	0		118	1.0	/experiments/knapen_AOT/AOT_stimuli/pictures/0526_fw.png	116.25221395492554	0.9885861873626709
3	6.598625183105469	response	0	j		1.0	/experiments/knapen_AOT/AOT_stimuli/pictures/0526_fw.png	117.22839117050171	
4	6.611034154891968	picture	0		106	2.0	/experiments/knapen_AOT/AOT_stimuli/pictures/1773_fw.png	117.24080014228821	0.8819379806518555
4	7.481938123703003	response	0	j		2.0	/experiments/knapen_AOT/AOT_stimuli/pictures/1773_fw.png	118.11170411109924	
5	7.492972135543823	picture	0		115	3.0	/experiments/knapen_AOT/AOT_stimuli/pictures/0999_fw.png	118.12273812294006	0.9583449363708496
5	8.440309047698975	response	0	j		3.0	/experiments/knapen_AOT/AOT_stimuli/pictures/0999_fw.png	119.07007503509521	
6	8.451317071914673	picture	0		92	4.0	/experiments/knapen_AOT/AOT_stimuli/pictures/1381_fw.png	119.08108305931091	0.7638349533081055
6	9.206948041915894	response	0	j		4.0	/experiments/knapen_AOT/AOT_stimuli/pictures/1381_fw.png	119.83671402931213	
7	9.215152025222778	picture	0		117	5.0	/experiments/knapen_AOT/AOT_stimuli/pictures/1913_fw.png	119.84491801261902	0.9792041778564453
7	10.175424098968506	response	0	k		5.0	/experiments/knapen_AOT/AOT_stimuli/pictures/1913_fw.png	120.80519008636475	
8	10.194356203079224	picture	0		247	6.0	/experiments/knapen_AOT/AOT_stimuli/pictures/0971_fw.png	120.82412219047546	2.0557479858398438
8	12.24048399925232	response	0	k		6.0	/experiments/knapen_AOT/AOT_stimuli/pictures/0971_fw.png	122.87024998664856	
9	12.250104188919067	picture	0		96	7.0	/experiments/knapen_AOT/AOT_stimuli/pictures/1584_fw.png	122.87987017631531	0.798508882522583
9	13.0403311252594	response	0	k		7.0	/experiments/knapen_AOT/AOT_stimuli/pictures/1584_fw.png	123.67009711265564	
10	13.04861307144165	picture	0		113	8.0	/experiments/knapen_AOT/AOT_stimuli/pictures/0198_fw.png	123.67837905883789	0.9443869590759277
10	13.975320100784302	response	0	k		8.0	/experiments/knapen_AOT/AOT_stimuli/pictures/0198_fw.png	124.60508608818054	
11	13.993000030517578	picture	0		108	9.0	/experiments/knapen_AOT/AOT_stimuli/pictures/0867_fw.png	124.62276601791382	0.9028069972991943
11	14.88217306137085	response	0	k		9.0	/experiments/knapen_AOT/AOT_stimuli/pictures/0867_fw.png	125.51193904876709	
12	14.895807027816772	picture	0		132	10.0	/experiments/knapen_AOT/AOT_stimuli/pictures/0036_fw.png	125.52557301521301	1.1041550636291504
12	15.990385055541992	response	0	j		10.0	/experiments/knapen_AOT/AOT_stimuli/pictures/0036_fw.png	126.62015104293823	
13	15.999962091445923	picture	0		96	11.0	/experiments/knapen_AOT/AOT_stimuli/pictures/0964_fw.png	126.62972807884216	0.7986199855804443
13	16.790374040603638	response	0	k		11.0	/experiments/knapen_AOT/AOT_stimuli/pictures/0964_fw.png	127.42014002799988	
14	16.798582077026367	picture	0		99	12.0	/experiments/knapen_AOT/AOT_stimuli/pictures/1922_fw.png	127.42834806442261	0.8264880180358887
14	17.615365982055664	response	0	k		12.0	/experiments/knapen_AOT/AOT_stimuli/pictures/1922_fw.png	128.2451319694519	
15	17.625070095062256	picture	0		108	13.0	/experiments/knapen_AOT/AOT_stimuli/pictures/1119_fw.png	128.2548360824585	0.9027259349822998
15	18.515522003173828	response	0	k		13.0	/experiments/knapen_AOT/AOT_stimuli/pictures/1119_fw.png	129.14528799057007	
16	18.527796030044556	picture	0		104	14.0	/experiments/knapen_AOT/AOT_stimuli/pictures/1317_fw.png	129.1575620174408	0.862462043762207
16	19.38202714920044	response	0	k		14.0	/experiments/knapen_AOT/AOT_stimuli/pictures/1317_fw.png	130.01179313659668	
17	19.390258073806763	picture	0		114	15.0	/experiments/knapen_AOT/AOT_stimuli/pictures/1820_fw.png	130.020024061203	0.9499990940093994
17	20.332102060317993	response	0	k		15.0	/experiments/knapen_AOT/AOT_stimuli/pictures/1820_fw.png	130.96186804771423	
18	20.340257167816162	picture	0		103	16.0	/experiments/knapen_AOT/AOT_stimuli/pictures/1619_fw.png	130.9700231552124	0.8612229824066162
18	21.19040012359619	response	0	k		16.0	/experiments/knapen_AOT/AOT_stimuli/pictures/1619_fw.png	131.82016611099243	
19	21.20148015022278	picture	0		118	17.0	/experiments/knapen_AOT/AOT_stimuli/pictures/1266_fw.png	131.83124613761902	0.9805288314819336
19	22.167129039764404	response	0	j		17.0	/experiments/knapen_AOT/AOT_stimuli/pictures/1266_fw.png	132.79689502716064	
20	22.182008981704712	picture	0		98	18.0	/experiments/knapen_AOT/AOT_stimuli/pictures/0608_fw.png	132.81177496910095	0.8180520534515381
20	22.990430116653442	response	0	j		18.0	/experiments/knapen_AOT/AOT_stimuli/pictures/0608_fw.png	133.62019610404968	
21	23.00006103515625	picture	0		96	19.0	/experiments/knapen_AOT/AOT_stimuli/pictures/0281_fw.png	133.6298270225525	0.7985930442810059
21	23.79044198989868	response	0	j		19.0	/experiments/knapen_AOT/AOT_stimuli/pictures/0281_fw.png	134.42020797729492	
22	23.798654079437256	picture	0		97	20.0	/experiments/knapen_AOT/AOT_stimuli/pictures/2128_fw.png	134.4284200668335	0.8124868869781494
22	24.598797082901	response	0	k		20.0	/experiments/knapen_AOT/AOT_stimuli/pictures/2128_fw.png	135.22856307029724	
23	24.611140966415405	picture	0		155	21.0	/experiments/knapen_AOT/AOT_stimuli/pictures/0348_fw.png	135.24090695381165	1.291675090789795
23	25.890578985214233	response	0	k		21.0	/experiments/knapen_AOT/AOT_stimuli/pictures/0348_fw.png	136.52034497261047	
24	25.9028160572052	picture	0		135	22.0	/experiments/knapen_AOT/AOT_stimuli/pictures/0305_fw.png	136.53258204460144	1.1597299575805664
24	27.048941135406494	response	0	j		22.0	/experiments/knapen_AOT/AOT_stimuli/pictures/0305_fw.png	137.67870712280273	
25	27.062546014785767	picture	0		99	23.0	/experiments/knapen_AOT/AOT_stimuli/pictures/0025_fw.png	137.692312002182	0.827916145324707
25	27.882193088531494	response	0	j		23.0	/experiments/knapen_AOT/AOT_stimuli/pictures/0025_fw.png	138.51195907592773	
26	27.890462160110474	picture	0		115	24.0	/experiments/knapen_AOT/AOT_stimuli/pictures/1299_fw.png	138.5202281475067	0.9637880325317383
26	28.84058403968811	response	0	k		24.0	/experiments/knapen_AOT/AOT_stimuli/pictures/1299_fw.png	139.47035002708435	
27	28.854250192642212	picture	0		151	25.0	/experiments/knapen_AOT/AOT_stimuli/pictures/0097_fw.png	139.48401618003845	1.2638750076293945
27	30.107189178466797	response	0	k		25.0	/experiments/knapen_AOT/AOT_stimuli/pictures/0097_fw.png	140.73695516586304	
28	30.118125200271606	picture	0		116	26.0	/experiments/knapen_AOT/AOT_stimuli/pictures/1565_fw.png	140.74789118766785	0.9654228687286377
28	31.074021100997925	response	0	k		26.0	/experiments/knapen_AOT/AOT_stimuli/pictures/1565_fw.png	141.70378708839417	
29	31.083548069000244	picture	0		125	27.0	/experiments/knapen_AOT/AOT_stimuli/pictures/1745_fw.png	141.71331405639648	1.0415520668029785
29	32.11573505401611	response	0	j		27.0	/experiments/knapen_AOT/AOT_stimuli/pictures/1745_fw.png	142.74550104141235	
30	32.12510013580322	picture	0		107	28.0	/experiments/knapen_AOT/AOT_stimuli/pictures/1866_fw.png	142.75486612319946	0.8904590606689453
30	33.00723719596863	response	0	j		28.0	/experiments/knapen_AOT/AOT_stimuli/pictures/1866_fw.png	143.63700318336487	
31	33.01555919647217	picture	0		97	29.0	/experiments/knapen_AOT/AOT_stimuli/pictures/2044_fw.png	143.6453251838684	0.8109269142150879
31	33.8156201839447	response	0	j		29.0	/experiments/knapen_AOT/AOT_stimuli/pictures/2044_fw.png	144.44538617134094	
32	33.826486110687256	picture	0		128	30.0	/experiments/knapen_AOT/AOT_stimuli/pictures/1748_fw.png	144.4562520980835	1.0695860385894775
32	34.88226914405823	response	0	k		30.0	/experiments/knapen_AOT/AOT_stimuli/pictures/1748_fw.png	145.51203513145447	
33	34.89607214927673	picture	0		136	31.0	/experiments/knapen_AOT/AOT_stimuli/pictures/2172_fw.png	145.52583813667297	1.1388189792633057
33	36.02405619621277	response	0	j		31.0	/experiments/knapen_AOT/AOT_stimuli/pictures/2172_fw.png	146.653822183609	
34	36.03489112854004	picture	0		106	32.0	/experiments/knapen_AOT/AOT_stimuli/pictures/1651_fw.png	146.66465711593628	0.8820438385009766
34	36.907310009002686	response	0	j		32.0	/experiments/knapen_AOT/AOT_stimuli/pictures/1651_fw.png	147.53707599639893	
35	36.916934967041016	picture	0		105	33.0	/experiments/knapen_AOT/AOT_stimuli/pictures/0495_fw.png	147.54670095443726	0.8750100135803223
35	37.78230309486389	response	0	k		33.0	/experiments/knapen_AOT/AOT_stimuli/pictures/0495_fw.png	148.41206908226013	
36	37.79194498062134	picture	0		144	34.0	/experiments/knapen_AOT/AOT_stimuli/pictures/0474_fw.png	148.42171096801758	1.2012450695037842
36	38.98228096961975	response	0	j		34.0	/experiments/knapen_AOT/AOT_stimuli/pictures/0474_fw.png	149.612046957016	
37	38.99319005012512	picture	0		111	35.0	/experiments/knapen_AOT/AOT_stimuli/pictures/2061_fw.png	149.62295603752136	0.9237689971923828
37	39.90734100341797	response	0	k		35.0	/experiments/knapen_AOT/AOT_stimuli/pictures/2061_fw.png	150.5371069908142	
38	39.916959047317505	picture	0		102	36.0	/experiments/knapen_AOT/AOT_stimuli/pictures/0217_fw.png	150.54672503471375	0.854032039642334
38	40.75732707977295	response	0	k		36.0	/experiments/knapen_AOT/AOT_stimuli/pictures/0217_fw.png	151.3870930671692	
39	40.77099108695984	picture	0		101	37.0	/experiments/knapen_AOT/AOT_stimuli/pictures/2002_fw.png	151.40075707435608	0.8472120761871338
39	41.60733103752136	response	0	k		37.0	/experiments/knapen_AOT/AOT_stimuli/pictures/2002_fw.png	152.2370970249176	
40	41.61820316314697	picture	0		100	38.0	/experiments/knapen_AOT/AOT_stimuli/pictures/0410_fw.png	152.2479691505432	0.8333728313446045
40	42.44078612327576	response	0	j		38.0	/experiments/knapen_AOT/AOT_stimuli/pictures/0410_fw.png	153.070552110672	
41	42.45157599449158	picture	0		102	39.0	/experiments/knapen_AOT/AOT_stimuli/pictures/1734_fw.png	153.08134198188782	0.8473401069641113
41	43.29087519645691	response	0	j		39.0	/experiments/knapen_AOT/AOT_stimuli/pictures/1734_fw.png	153.92064118385315	
42	43.29891610145569	picture	0		87	40.0	/experiments/knapen_AOT/AOT_stimuli/pictures/1580_fw.png	153.92868208885193	0.7291100025177002
42	44.015881061553955	response	0	k		40.0	/experiments/knapen_AOT/AOT_stimuli/pictures/1580_fw.png	154.6456470489502	
43	44.02802610397339	picture	0		92	41.0	/experiments/knapen_AOT/AOT_stimuli/pictures/0553_fw.png	154.65779209136963	0.7639188766479492
43	44.78239917755127	response	0	j		41.0	/experiments/knapen_AOT/AOT_stimuli/pictures/0553_fw.png	155.4121651649475	
44	44.79194498062134	picture	0		99	42.0	/experiments/knapen_AOT/AOT_stimuli/pictures/0797_fw.png	155.42171096801758	0.8262941837310791
44	45.607391119003296	response	0	j		42.0	/experiments/knapen_AOT/AOT_stimuli/pictures/0797_fw.png	156.23715710639954	
45	45.61823916435242	picture	0		122	43.0	/experiments/knapen_AOT/AOT_stimuli/pictures/1949_fw.png	156.24800515174866	1.0139989852905273
45	46.62421798706055	response	0	k		43.0	/experiments/knapen_AOT/AOT_stimuli/pictures/1949_fw.png	157.2539839744568	
46	46.632238149642944	picture	0		133	44.0	/experiments/knapen_AOT/AOT_stimuli/pictures/2170_fw.png	157.26200413703918	1.1110210418701172
46	47.72577404975891	response	0	j		44.0	/experiments/knapen_AOT/AOT_stimuli/pictures/2170_fw.png	158.35554003715515	
47	47.74325919151306	picture	0		86	45.0	/experiments/knapen_AOT/AOT_stimuli/pictures/2132_fw.png	158.3730251789093	0.715399980545044
47	48.44922614097595	response	0	j		45.0	/experiments/knapen_AOT/AOT_stimuli/pictures/2132_fw.png	159.0789921283722	
48	48.458659172058105	picture	0		86	46.0	/experiments/knapen_AOT/AOT_stimuli/pictures/0666_fw.png	159.08842515945435	0.7153170108795166
48	49.16586518287659	response	0	j		46.0	/experiments/knapen_AOT/AOT_stimuli/pictures/0666_fw.png	159.79563117027283	
49	49.17397618293762	picture	0		87	47.0	/experiments/knapen_AOT/AOT_stimuli/pictures/0380_fw.png	159.80374217033386	0.7290987968444824
49	49.890950202941895	response	0	j		47.0	/experiments/knapen_AOT/AOT_stimuli/pictures/0380_fw.png	160.52071619033813	
50	49.903074979782104	picture	0		107	48.0	/experiments/knapen_AOT/AOT_stimuli/pictures/1301_fw.png	160.53284096717834	0.8889741897583008
50	50.78245401382446	response	0	k		48.0	/experiments/knapen_AOT/AOT_stimuli/pictures/1301_fw.png	161.4122200012207	
51	50.792049169540405	picture	0		112	49.0	/experiments/knapen_AOT/AOT_stimuli/pictures/1867_fw.png	161.42181515693665	0.9373610019683838
51	51.70917201042175	response	0	k		49.0	/experiments/knapen_AOT/AOT_stimuli/pictures/1867_fw.png	162.338937997818	
52	51.72941017150879	picture	0		91	50.0	/experiments/knapen_AOT/AOT_stimuli/pictures/2072_fw.png	162.35917615890503	0.7638819217681885
52	52.48260807991028	response	0	k		50.0	/experiments/knapen_AOT/AOT_stimuli/pictures/2072_fw.png	163.11237406730652	
53	52.49329209327698	picture	0		90	51.0	/experiments/knapen_AOT/AOT_stimuli/pictures/1017_fw.png	163.12305808067322	0.7500090599060059
53	53.23260712623596	response	0	j		51.0	/experiments/knapen_AOT/AOT_stimuli/pictures/1017_fw.png	163.8623731136322	
54	53.24330115318298	picture	0		95	52.0	/experiments/knapen_AOT/AOT_stimuli/pictures/0947_fw.png	163.87306714057922	0.7916638851165771
54	54.024309158325195	response	0	j		52.0	/experiments/knapen_AOT/AOT_stimuli/pictures/0947_fw.png	164.65407514572144	
55	54.03496503829956	picture	0		85	53.0	/experiments/knapen_AOT/AOT_stimuli/pictures/1514_fw.png	164.6647310256958	0.708341121673584
55	54.72590517997742	response	0	j		53.0	/experiments/knapen_AOT/AOT_stimuli/pictures/1514_fw.png	165.35567116737366	
56	54.743306159973145	picture	0		98	54.0	/experiments/knapen_AOT/AOT_stimuli/pictures/0533_fw.png	165.37307214736938	0.819572925567627
56	55.54920220375061	response	0	k		54.0	/experiments/knapen_AOT/AOT_stimuli/pictures/0533_fw.png	166.17896819114685	
57	55.56287908554077	picture	0		93	55.0	/experiments/knapen_AOT/AOT_stimuli/pictures/0024_fw.png	166.192645072937	0.7778589725494385
57	56.32613706588745	response	0	k		55.0	/experiments/knapen_AOT/AOT_stimuli/pictures/0024_fw.png	166.9559030532837	
58	56.34073805809021	picture	0		142	56.0	/experiments/knapen_AOT/AOT_stimuli/pictures/1120_fw.png	166.97050404548645	1.1874020099639893
58	57.50916004180908	response	0	j		56.0	/experiments/knapen_AOT/AOT_stimuli/pictures/1120_fw.png	168.13892602920532	
59	57.5281400680542	picture	0		109	57.0	/experiments/knapen_AOT/AOT_stimuli/pictures/1060_fw.png	168.15790605545044	0.9096810817718506
59	58.42419505119324	response	0	j		57.0	/experiments/knapen_AOT/AOT_stimuli/pictures/1060_fw.png	169.05396103858948	
60	58.43782114982605	picture	0		103	58.0	/experiments/knapen_AOT/AOT_stimuli/pictures/1246_fw.png	169.0675871372223	0.8612630367279053
60	59.291035175323486	response	0	k		58.0	/experiments/knapen_AOT/AOT_stimuli/pictures/1246_fw.png	169.92080116271973	
61	59.299084186553955	picture	0		100	59.0	/experiments/knapen_AOT/AOT_stimuli/pictures/0233_fw.png	169.9288501739502	0.8333377838134766
61	60.117757081985474	response	0	j		59.0	/experiments/knapen_AOT/AOT_stimuli/pictures/0233_fw.png	170.7475230693817	
62	60.13242197036743	picture	0		98	60.0	/experiments/knapen_AOT/AOT_stimuli/pictures/0602_fw.png	170.76218795776367	0.81929612159729
62	60.94091796875	response	0	k		60.0	/experiments/knapen_AOT/AOT_stimuli/pictures/0602_fw.png	171.57068395614624	
63	60.95171809196472	picture	0		150	61.0	/experiments/knapen_AOT/AOT_stimuli/pictures/0875_fw.png	171.58148407936096	1.2500128746032715
63	62.19099807739258	response	0	k		61.0	/experiments/knapen_AOT/AOT_stimuli/pictures/0875_fw.png	172.82076406478882	
64	62.20173096656799	picture	0		132	62.0	/experiments/knapen_AOT/AOT_stimuli/pictures/1869_fw.png	172.83149695396423	1.0973761081695557
64	63.291110038757324	response	0	k		62.0	/experiments/knapen_AOT/AOT_stimuli/pictures/1869_fw.png	173.92087602615356	
65	63.29910707473755	picture	0		102	63.0	/experiments/knapen_AOT/AOT_stimuli/pictures/2159_fw.png	173.9288730621338	0.854058027267456
65	64.14105105400085	response	0	j		63.0	/experiments/knapen_AOT/AOT_stimuli/pictures/2159_fw.png	174.7708170413971	
66	64.153165102005	picture	0		95	64.0	/experiments/knapen_AOT/AOT_stimuli/pictures/1982_fw.png	174.78293108940125	0.7916960716247559
66	64.92596197128296	response	0	j		64.0	/experiments/knapen_AOT/AOT_stimuli/pictures/1982_fw.png	175.5557279586792	
67	64.94486117362976	picture	0		105	65.0	/experiments/knapen_AOT/AOT_stimuli/pictures/0575_fw.png	175.574627161026	0.8749558925628662
67	65.80772018432617	response	0	k		65.0	/experiments/knapen_AOT/AOT_stimuli/pictures/0575_fw.png	176.4374861717224	
68	65.81981706619263	picture	0		101	66.0	/experiments/knapen_AOT/AOT_stimuli/pictures/0914_fw.png	176.44958305358887	0.8402581214904785
68	66.64948511123657	response	0	k		66.0	/experiments/knapen_AOT/AOT_stimuli/pictures/0914_fw.png	177.2792510986328	
69	66.6600751876831	picture	0		110	67.0	/experiments/knapen_AOT/AOT_stimuli/pictures/1319_fw.png	177.28984117507935	0.9444599151611328
69	67.59101104736328	response	0	j		67.0	/experiments/knapen_AOT/AOT_stimuli/pictures/1319_fw.png	178.22077703475952	
70	67.60453510284424	picture	0		140	68.0	/experiments/knapen_AOT/AOT_stimuli/pictures/2015_fw.png	178.23430109024048	1.1736359596252441
70	68.76617217063904	response	0	k		68.0	/experiments/knapen_AOT/AOT_stimuli/pictures/2015_fw.png	179.39593815803528	
71	68.77817106246948	picture	0		122	69.0	/experiments/knapen_AOT/AOT_stimuli/pictures/1629_fw.png	179.40793704986572	1.013942003250122
71	69.78276109695435	response	0	j		69.0	/experiments/knapen_AOT/AOT_stimuli/pictures/1629_fw.png	180.4125270843506	
72	69.7921130657196	picture	0		110	70.0	/experiments/knapen_AOT/AOT_stimuli/pictures/2053_fw.png	180.42187905311584	0.9166510105133057
72	70.69280409812927	response	0	k		70.0	/experiments/knapen_AOT/AOT_stimuli/pictures/2053_fw.png	181.3225700855255	
73	70.70876407623291	picture	0		99	71.0	/experiments/knapen_AOT/AOT_stimuli/pictures/0179_fw.png	181.33853006362915	0.8263819217681885
73	71.52453112602234	response	0	j		71.0	/experiments/knapen_AOT/AOT_stimuli/pictures/0179_fw.png	182.15429711341858	
74	71.5351459980011	picture	0		204	72.0	/experiments/knapen_AOT/AOT_stimuli/pictures/0055_fw.png	182.16491198539734	1.701442003250122
74	73.22456407546997	response	0	j		72.0	/experiments/knapen_AOT/AOT_stimuli/pictures/0055_fw.png	183.8543300628662	
75	73.23658800125122	picture	0		189	73.0	/experiments/knapen_AOT/AOT_stimuli/pictures/1612_fw.png	183.86635398864746	1.5763370990753174
75	74.79943013191223	response	0	k		73.0	/experiments/knapen_AOT/AOT_stimuli/pictures/1612_fw.png	185.42919611930847	
76	74.81292510032654	picture	0		109	74.0	/experiments/knapen_AOT/AOT_stimuli/pictures/1453_fw.png	185.44269108772278	0.9166529178619385
76	75.71620416641235	response	0	k		74.0	/experiments/knapen_AOT/AOT_stimuli/pictures/1453_fw.png	186.3459701538086	
77	75.72957801818848	picture	0		98	75.0	/experiments/knapen_AOT/AOT_stimuli/pictures/2145_fw.png	186.35934400558472	0.81974196434021
77	76.54118609428406	response	0	k		75.0	/experiments/knapen_AOT/AOT_stimuli/pictures/2145_fw.png	187.1709520816803	
78	76.54931998252869	picture	0		101	76.0	/experiments/knapen_AOT/AOT_stimuli/pictures/0084_fw.png	187.17908596992493	0.8469672203063965
78	77.38279700279236	response	0	k		76.0	/experiments/knapen_AOT/AOT_stimuli/pictures/0084_fw.png	188.0125629901886	
79	77.39628720283508	picture	0		95	77.0	/experiments/knapen_AOT/AOT_stimuli/pictures/0093_fw.png	188.02605319023132	0.7986798286437988
79	78.18287801742554	response	0	j		77.0	/experiments/knapen_AOT/AOT_stimuli/pictures/0093_fw.png	188.81264400482178	
80	78.19496703147888	picture	0		109	78.0	/experiments/knapen_AOT/AOT_stimuli/pictures/0164_fw.png	188.82473301887512	0.9097480773925781
80	79.08447098731995	response	0	j		78.0	/experiments/knapen_AOT/AOT_stimuli/pictures/0164_fw.png	189.7142369747162	
81	79.10471510887146	picture	0		189	79.0	/experiments/knapen_AOT/AOT_stimuli/pictures/1999_fw.png	189.7344810962677	1.5833919048309326
81	80.67453598976135	response	0	k		79.0	/experiments/knapen_AOT/AOT_stimuli/pictures/1999_fw.png	191.3043019771576	
82	80.68810701370239	picture	0		93	80.0	/experiments/knapen_AOT/AOT_stimuli/pictures/1188_fw.png	191.31787300109863	0.7779641151428223
82	81.45797204971313	response	0	j		80.0	/experiments/knapen_AOT/AOT_stimuli/pictures/1188_fw.png	192.08773803710938	
83	81.46607112884521	picture	0		118	81.0	/experiments/knapen_AOT/AOT_stimuli/pictures/1788_fw.png	192.09583711624146	0.9858348369598389
83	82.44123315811157	response	0	k		81.0	/experiments/knapen_AOT/AOT_stimuli/pictures/1788_fw.png	193.0709991455078	
84	82.45190596580505	picture	0		103	82.0	/experiments/knapen_AOT/AOT_stimuli/pictures/1261_fw.png	193.0816719532013	0.8610901832580566
84	83.29285597801208	response	0	k		82.0	/experiments/knapen_AOT/AOT_stimuli/pictures/1261_fw.png	193.92262196540833	
85	83.31299614906311	picture	0		101	83.0	/experiments/knapen_AOT/AOT_stimuli/pictures/0423_fw.png	193.94276213645935	0.8472108840942383
85	84.1496090888977	response	0	j		83.0	/experiments/knapen_AOT/AOT_stimuli/pictures/0423_fw.png	194.77937507629395	
86	84.16020703315735	picture	0		140	84.0	/experiments/knapen_AOT/AOT_stimuli/pictures/1891_fw.png	194.7899730205536	1.166689157485962
86	85.30959606170654	response	0	j		84.0	/experiments/knapen_AOT/AOT_stimuli/pictures/1891_fw.png	195.93936204910278	
87	85.32689619064331	picture	0		91	85.0	/experiments/knapen_AOT/AOT_stimuli/pictures/1664_fw.png	195.95666217803955	0.7570018768310547
87	86.07475805282593	response	0	j		85.0	/experiments/knapen_AOT/AOT_stimuli/pictures/1664_fw.png	196.70452404022217	
88	86.08389806747437	picture	0		106	86.0	/experiments/knapen_AOT/AOT_stimuli/pictures/1924_fw.png	196.7136640548706	0.8822109699249268
88	86.95795917510986	response	0	j		86.0	/experiments/knapen_AOT/AOT_stimuli/pictures/1924_fw.png	197.5877251625061	
89	86.96610903739929	picture	0		98	87.0	/experiments/knapen_AOT/AOT_stimuli/pictures/0856_fw.png	197.59587502479553	0.8191421031951904
89	87.7747859954834	response	0	k		87.0	/experiments/knapen_AOT/AOT_stimuli/pictures/0856_fw.png	198.40455198287964	
90	87.78525114059448	picture	0		105	88.0	/experiments/knapen_AOT/AOT_stimuli/pictures/0551_fw.png	198.41501712799072	0.8749949932098389
90	88.64966201782227	response	0	k		88.0	/experiments/knapen_AOT/AOT_stimuli/pictures/0551_fw.png	199.2794280052185	
91	88.66024613380432	picture	0		137	89.0	/experiments/knapen_AOT/AOT_stimuli/pictures/0220_fw.png	199.29001212120056	1.1393978595733643
91	89.79142713546753	response	0	k		89.0	/experiments/knapen_AOT/AOT_stimuli/pictures/0220_fw.png	200.42119312286377	
92	89.79964399337769	picture	0		136	90.0	/experiments/knapen_AOT/AOT_stimuli/pictures/1472_fw.png	200.42940998077393	1.1384150981903076
92	90.92476797103882	response	0	k		90.0	/experiments/knapen_AOT/AOT_stimuli/pictures/1472_fw.png	201.55453395843506	
93	90.938059091568	picture	0		230	91.0	/experiments/knapen_AOT/AOT_stimuli/pictures/0365_fw.png	201.56782507896423	1.9236629009246826
93	92.8498010635376	response	0	k		91.0	/experiments/knapen_AOT/AOT_stimuli/pictures/0365_fw.png	203.47956705093384	
94	92.86172199249268	picture	0		124	92.0	/experiments/knapen_AOT/AOT_stimuli/pictures/0752_fw.png	203.49148797988892	1.0347630977630615
94	93.87644219398499	response	0	k		92.0	/experiments/knapen_AOT/AOT_stimuli/pictures/0752_fw.png	204.50620818138123	
95	93.89648509025574	picture	0		93	93.0	/experiments/knapen_AOT/AOT_stimuli/pictures/0911_fw.png	204.52625107765198	0.7782070636749268
95	94.65968799591064	response	0	j		93.0	/experiments/knapen_AOT/AOT_stimuli/pictures/0911_fw.png	205.28945398330688	
96	94.67469215393066	picture	0		253	94.0	/experiments/knapen_AOT/AOT_stimuli/pictures/1945_fw.png	205.3044581413269	2.1106109619140625
96	96.77487301826477	response	0	j		94.0	/experiments/knapen_AOT/AOT_stimuli/pictures/1945_fw.png	207.404639005661	
97	96.78530311584473	picture	0		134	95.0	/experiments/knapen_AOT/AOT_stimuli/pictures/2006_fw.png	207.41506910324097	1.1181039810180664
97	97.88472008705139	response	0	k		95.0	/experiments/knapen_AOT/AOT_stimuli/pictures/2006_fw.png	208.51448607444763	
98	97.9034070968628	picture	0		211	96.0	/experiments/knapen_AOT/AOT_stimuli/pictures/0186_fw.png	208.53317308425903	1.7569780349731445
98	99.6498429775238	response	0	k		96.0	/experiments/knapen_AOT/AOT_stimuli/pictures/0186_fw.png	210.27960896492004	
99	99.66038513183594	picture	0		262	97.0	/experiments/knapen_AOT/AOT_stimuli/pictures/0467_fw.png	210.29015111923218	2.180945873260498
99	101.83326506614685	response	0	k		97.0	/experiments/knapen_AOT/AOT_stimuli/pictures/0467_fw.png	212.4630310535431	
100	101.84133100509644	picture	0		108	98.0	/experiments/knapen_AOT/AOT_stimuli/pictures/1019_fw.png	212.47109699249268	0.902353048324585
100	102.73323202133179	response	0	j		98.0	/experiments/knapen_AOT/AOT_stimuli/pictures/1019_fw.png	213.36299800872803	
101	102.74368405342102	picture	0		163	99.0	/experiments/knapen_AOT/AOT_stimuli/pictures/1040_fw.png	213.37345004081726	1.3612561225891113
101	104.084890127182	response	0	k		99.0	/experiments/knapen_AOT/AOT_stimuli/pictures/1040_fw.png	214.71465611457825	
102	104.10494017601013	picture	0		105	100.0	/experiments/knapen_AOT/AOT_stimuli/pictures/0818_fw.png	214.73470616340637	0.8818809986114502
102	104.97494411468506	response	0	j		100.0	/experiments/knapen_AOT/AOT_stimuli/pictures/0818_fw.png	215.6047101020813	
103	104.98682117462158	picture	0		88	101.0	/experiments/knapen_AOT/AOT_stimuli/pictures/1761_fw.png	215.61658716201782	0.729604959487915
103	105.70829200744629	response	0	j		101.0	/experiments/knapen_AOT/AOT_stimuli/pictures/1761_fw.png	216.33805799484253	
104	105.7164261341095	picture	0		101	102.0	/experiments/knapen_AOT/AOT_stimuli/pictures/1320_fw.png	216.34619212150574	0.8467469215393066
104	106.55003714561462	response	0	j		102.0	/experiments/knapen_AOT/AOT_stimuli/pictures/1320_fw.png	217.17980313301086	
105	106.5631730556488	picture	0		94	103.0	/experiments/knapen_AOT/AOT_stimuli/pictures/0836_fw.png	217.19293904304504	0.7916769981384277
105	107.34156107902527	response	0	j		103.0	/experiments/knapen_AOT/AOT_stimuli/pictures/0836_fw.png	217.9713270664215	
106	107.35485005378723	picture	0		89	104.0	/experiments/knapen_AOT/AOT_stimuli/pictures/0464_fw.png	217.98461604118347	0.7501571178436279
106	108.09150815010071	response	0	j		104.0	/experiments/knapen_AOT/AOT_stimuli/pictures/0464_fw.png	218.72127413749695	
107	108.10500717163086	picture	0		95	105.0	/experiments/knapen_AOT/AOT_stimuli/pictures/1010_fw.png	218.7347731590271	0.7984910011291504
107	108.88480615615845	response	0	j		105.0	/experiments/knapen_AOT/AOT_stimuli/pictures/1010_fw.png	219.5145721435547	
108	108.90349817276001	picture	0		172	106.0	/experiments/knapen_AOT/AOT_stimuli/pictures/0180_fw.png	219.53326416015625	1.4306018352508545
108	110.32499098777771	response	0	k		106.0	/experiments/knapen_AOT/AOT_stimuli/pictures/0180_fw.png	220.95475697517395	
109	110.33410000801086	picture	0		148	107.0	/experiments/knapen_AOT/AOT_stimuli/pictures/1484_fw.png	220.9638659954071	1.2360551357269287
109	111.55833411216736	response	0	k		107.0	/experiments/knapen_AOT/AOT_stimuli/pictures/1484_fw.png	222.1881000995636	
110	111.5701551437378	picture	0		96	108.0	/experiments/knapen_AOT/AOT_stimuli/pictures/2064_fw.png	222.19992113113403	0.798630952835083
110	112.35831212997437	response	0	j		108.0	/experiments/knapen_AOT/AOT_stimuli/pictures/2064_fw.png	222.9880781173706	
111	112.36878609657288	picture	0		107	109.0	/experiments/knapen_AOT/AOT_stimuli/pictures/0361_fw.png	222.99855208396912	0.889394998550415
111	113.24329400062561	response	0	k		109.0	/experiments/knapen_AOT/AOT_stimuli/pictures/0361_fw.png	223.87305998802185	
112	113.25818109512329	picture	0		127	110.0	/experiments/knapen_AOT/AOT_stimuli/pictures/1391_fw.png	223.88794708251953	1.0619940757751465
112	114.30835914611816	response	0	k		110.0	/experiments/knapen_AOT/AOT_stimuli/pictures/1391_fw.png	224.9381251335144	
113	114.32017517089844	picture	0		170	111.0	/experiments/knapen_AOT/AOT_stimuli/pictures/0129_fw.png	224.94994115829468	1.4380018711090088
113	115.75013399124146	response	0	k		111.0	/experiments/knapen_AOT/AOT_stimuli/pictures/0129_fw.png	226.3798999786377	
114	115.75817704200745	picture	0		88	112.0	/experiments/knapen_AOT/AOT_stimuli/pictures/1665_fw.png	226.3879430294037	0.7356140613555908
114	116.47667098045349	response	0	j		112.0	/experiments/knapen_AOT/AOT_stimuli/pictures/1665_fw.png	227.10643696784973	
115	116.49379110336304	picture	0		206	113.0	/experiments/knapen_AOT/AOT_stimuli/pictures/0739_fw.png	227.12355709075928	1.7153658866882324
115	118.20013499259949	response	0	j		113.0	/experiments/knapen_AOT/AOT_stimuli/pictures/0739_fw.png	228.82990097999573	
116	118.20915699005127	picture	0		95	114.0	/experiments/knapen_AOT/AOT_stimuli/pictures/0310_fw.png	228.8389229774475	0.7917370796203613
116	118.9917221069336	response	0	k		114.0	/experiments/knapen_AOT/AOT_stimuli/pictures/0310_fw.png	229.62148809432983	
117	119.00089406967163	picture	0		84	115.0	/experiments/knapen_AOT/AOT_stimuli/pictures/0584_fw.png	229.63066005706787	0.7012650966644287
117	119.69168710708618	response	0	j		115.0	/experiments/knapen_AOT/AOT_stimuli/pictures/0584_fw.png	230.32145309448242	
118	119.70215916633606	picture	0		91	116.0	/experiments/knapen_AOT/AOT_stimuli/pictures/0081_fw.png	230.3319251537323	0.7570388317108154
118	120.44336819648743	response	0	j		116.0	/experiments/knapen_AOT/AOT_stimuli/pictures/0081_fw.png	231.07313418388367	
119	120.45919799804688	picture	0		216	117.0	/experiments/knapen_AOT/AOT_stimuli/pictures/0658_fw.png	231.08896398544312	1.7990469932556152
119	122.24334597587585	response	0	k		117.0	/experiments/knapen_AOT/AOT_stimuli/pictures/0658_fw.png	232.8731119632721	
120	122.25824499130249	picture	0		96	118.0	/experiments/knapen_AOT/AOT_stimuli/pictures/0571_fw.png	232.88801097869873	0.8050570487976074
120	123.04325199127197	response	0	k		118.0	/experiments/knapen_AOT/AOT_stimuli/pictures/0571_fw.png	233.6730179786682	
121	123.0633020401001	picture	0		95	119.0	/experiments/knapen_AOT/AOT_stimuli/pictures/2016_fw.png	233.69306802749634	0.7986690998077393
121	123.84344696998596	response	0	k		119.0	/experiments/knapen_AOT/AOT_stimuli/pictures/2016_fw.png	234.4732129573822	
122	123.86197113990784	picture	0		110	120.0	/experiments/knapen_AOT/AOT_stimuli/pictures/1727_fw.png	234.49173712730408	0.9166369438171387
122	124.76679301261902	response	0	k		120.0	/experiments/knapen_AOT/AOT_stimuli/pictures/1727_fw.png	235.39655900001526	
123	124.77860808372498	picture	0		103	121.0	/experiments/knapen_AOT/AOT_stimuli/pictures/1540_fw.png	235.40837407112122	0.8547179698944092
123	125.62523818016052	response	0	k		121.0	/experiments/knapen_AOT/AOT_stimuli/pictures/1540_fw.png	236.25500416755676	
124	125.63332605361938	picture	0		115	122.0	/experiments/knapen_AOT/AOT_stimuli/pictures/1659_fw.png	236.26309204101562	0.9583539962768555
124	126.58353400230408	response	0	k		122.0	/experiments/knapen_AOT/AOT_stimuli/pictures/1659_fw.png	237.21329998970032	
125	126.59168004989624	picture	0		129	123.0	/experiments/knapen_AOT/AOT_stimuli/pictures/2033_fw.png	237.22144603729248	1.0759620666503906
125	127.65191698074341	response	0	k		123.0	/experiments/knapen_AOT/AOT_stimuli/pictures/2033_fw.png	238.28168296813965	
126	127.66764211654663	picture	0		170	124.0	/experiments/knapen_AOT/AOT_stimuli/pictures/0805_fw.png	238.29740810394287	1.4165329933166504
126	129.0751371383667	response	0	k		124.0	/experiments/knapen_AOT/AOT_stimuli/pictures/0805_fw.png	239.70490312576294	
127	129.08417510986328	picture	0		95	125.0	/experiments/knapen_AOT/AOT_stimuli/pictures/0481_fw.png	239.71394109725952	0.7916989326477051
127	129.86702299118042	response	0	j		125.0	/experiments/knapen_AOT/AOT_stimuli/pictures/0481_fw.png	240.49678897857666	
128	129.875874042511	picture	0		95	126.0	/experiments/knapen_AOT/AOT_stimuli/pictures/1309_fw.png	240.50564002990723	0.7917771339416504
128	130.65201210975647	response	0	j		126.0	/experiments/knapen_AOT/AOT_stimuli/pictures/1309_fw.png	241.2817780971527	
129	130.66765117645264	picture	0		89	127.0	/experiments/knapen_AOT/AOT_stimuli/pictures/0522_fw.png	241.29741716384888	0.7430369853973389
129	131.40035104751587	response	0	j		127.0	/experiments/knapen_AOT/AOT_stimuli/pictures/0522_fw.png	242.0301170349121	
130	131.41068816184998	picture	0		90	128.0	/experiments/knapen_AOT/AOT_stimuli/pictures/1823_fw.png	242.04045414924622	0.7499330043792725
130	132.15025520324707	response	0	j		128.0	/experiments/knapen_AOT/AOT_stimuli/pictures/1823_fw.png	242.7800211906433	
131	132.16062116622925	picture	0		104	129.0	/experiments/knapen_AOT/AOT_stimuli/pictures/0644_fw.png	242.7903871536255	0.8680579662322998
131	133.0168981552124	response	0	k		129.0	/experiments/knapen_AOT/AOT_stimuli/pictures/0644_fw.png	243.64666414260864	
132	133.02867913246155	picture	0		97	130.0	/experiments/knapen_AOT/AOT_stimuli/pictures/1590_fw.png	243.6584451198578	0.8055479526519775
132	133.82529211044312	response	0	j		130.0	/experiments/knapen_AOT/AOT_stimuli/pictures/1590_fw.png	244.45505809783936	
133	133.83422708511353	picture	0		90	131.0	/experiments/knapen_AOT/AOT_stimuli/pictures/2143_fw.png	244.46399307250977	0.7499909400939941
133	134.57534503936768	response	0	j		131.0	/experiments/knapen_AOT/AOT_stimuli/pictures/2143_fw.png	245.20511102676392	
134	134.58421802520752	picture	0		207	132.0	/experiments/knapen_AOT/AOT_stimuli/pictures/1743_fw.png	245.21398401260376	1.7291979789733887
134	136.30030798912048	response	0	j		132.0	/experiments/knapen_AOT/AOT_stimuli/pictures/1743_fw.png	246.93007397651672	
135	136.3134160041809	picture	0		123	133.0	/experiments/knapen_AOT/AOT_stimuli/pictures/0445_fw.png	246.94318199157715	1.0347230434417725
135	137.33442997932434	response	0	j		133.0	/experiments/knapen_AOT/AOT_stimuli/pictures/0445_fw.png	247.96419596672058	
136	137.34813904762268	picture	0		111	134.0	/experiments/knapen_AOT/AOT_stimuli/pictures/0516_fw.png	247.97790503501892	0.9305689334869385
136	138.26693320274353	response	0	k		134.0	/experiments/knapen_AOT/AOT_stimuli/pictures/0516_fw.png	248.89669919013977	
137	138.27870798110962	picture	0		93	135.0	/experiments/knapen_AOT/AOT_stimuli/pictures/0870_fw.png	248.90847396850586	0.7778551578521729
137	139.042729139328	response	0	k		135.0	/experiments/knapen_AOT/AOT_stimuli/pictures/0870_fw.png	249.67249512672424	
138	139.0565631389618	picture	0		123	136.0	/experiments/knapen_AOT/AOT_stimuli/pictures/0736_fw.png	249.68632912635803	1.027698040008545
138	140.0753140449524	response	0	j		136.0	/experiments/knapen_AOT/AOT_stimuli/pictures/0736_fw.png	250.70508003234863	
139	140.08426117897034	picture	0		134	137.0	/experiments/knapen_AOT/AOT_stimuli/pictures/1491_fw.png	250.71402716636658	1.1181387901306152
139	141.19211316108704	response	0	j		137.0	/experiments/knapen_AOT/AOT_stimuli/pictures/1491_fw.png	251.82187914848328	
140	141.20239996910095	picture	0		118	138.0	/experiments/knapen_AOT/AOT_stimuli/pictures/2111_fw.png	251.8321659564972	0.9860501289367676
140	142.1753191947937	response	0	k		138.0	/experiments/knapen_AOT/AOT_stimuli/pictures/2111_fw.png	252.80508518218994	
141	142.18845009803772	picture	0		99	139.0	/experiments/knapen_AOT/AOT_stimuli/pictures/2133_fw.png	252.81821608543396	0.8333508968353271
141	143.0087811946869	response	0	k		139.0	/experiments/knapen_AOT/AOT_stimuli/pictures/2133_fw.png	253.63854718208313	
142	143.02180099487305	picture	0		119	140.0	/experiments/knapen_AOT/AOT_stimuli/pictures/0757_fw.png	253.6515669822693	1.0
142	144.00886011123657	response	0	k		140.0	/experiments/knapen_AOT/AOT_stimuli/pictures/0757_fw.png	254.6386260986328	
143	144.02180099487305	picture	0		209	141.0	/experiments/knapen_AOT/AOT_stimuli/pictures/0674_fw.png	254.6515669822693	1.7500159740447998
143	145.75884413719177	response	0	k		141.0	/experiments/knapen_AOT/AOT_stimuli/pictures/0674_fw.png	256.388610124588	
144	145.77181696891785	picture	0		106	142.0	/experiments/knapen_AOT/AOT_stimuli/pictures/1167_fw.png	256.4015829563141	0.8890280723571777
144	146.64377307891846	response	0	k		142.0	/experiments/knapen_AOT/AOT_stimuli/pictures/1167_fw.png	257.2735390663147	
145	146.66084504127502	picture	0		111	143.0	/experiments/knapen_AOT/AOT_stimuli/pictures/1133_fw.png	257.29061102867126	0.9234731197357178
145	147.5754370689392	response	0	k		143.0	/experiments/knapen_AOT/AOT_stimuli/pictures/1133_fw.png	258.20520305633545	
146	147.58431816101074	picture	0		100	144.0	/experiments/knapen_AOT/AOT_stimuli/pictures/0633_fw.png	258.214084148407	0.8335049152374268
146	148.4088649749756	response	0	j		144.0	/experiments/knapen_AOT/AOT_stimuli/pictures/0633_fw.png	259.0386309623718	
147	148.41782307624817	picture	0		105	145.0	/experiments/knapen_AOT/AOT_stimuli/pictures/1404_fw.png	259.0475890636444	0.8750500679016113
147	149.2838191986084	response	0	k		145.0	/experiments/knapen_AOT/AOT_stimuli/pictures/1404_fw.png	259.91358518600464	
148	149.29287314414978	picture	0		92	146.0	/experiments/knapen_AOT/AOT_stimuli/pictures/1014_fw.png	259.922639131546	0.7706408500671387
148	150.05040311813354	response	0	j		146.0	/experiments/knapen_AOT/AOT_stimuli/pictures/1014_fw.png	260.6801691055298	
149	150.06351399421692	picture	0		86	147.0	/experiments/knapen_AOT/AOT_stimuli/pictures/2096_fw.png	260.69327998161316	0.7222499847412109
149	150.77547097206116	response	0	j		147.0	/experiments/knapen_AOT/AOT_stimuli/pictures/2096_fw.png	261.4052369594574	
150	150.78576397895813	picture	0		101	148.0	/experiments/knapen_AOT/AOT_stimuli/pictures/0574_fw.png	261.41552996635437	0.8402941226959229
150	151.61050009727478	response	0	k		148.0	/experiments/knapen_AOT/AOT_stimuli/pictures/0574_fw.png	262.240266084671	
151	151.62605810165405	picture	0		93	149.0	/experiments/knapen_AOT/AOT_stimuli/pictures/1515_fw.png	262.2558240890503	0.7777590751647949
151	152.392165184021	response	0	k		149.0	/experiments/knapen_AOT/AOT_stimuli/pictures/1515_fw.png	263.02193117141724	
152	152.40381717681885	picture	0		95	150.0	/experiments/knapen_AOT/AOT_stimuli/pictures/1371_fw.png	263.0335831642151	0.7916948795318604
152	153.1839141845703	response	0	j		150.0	/experiments/knapen_AOT/AOT_stimuli/pictures/1371_fw.png	263.81368017196655	
153	153.1955120563507	picture	0		143	151.0	/experiments/knapen_AOT/AOT_stimuli/pictures/1462_fw.png	263.82527804374695	1.188291072845459
153	154.37626004219055	response	0	j		151.0	/experiments/knapen_AOT/AOT_stimuli/pictures/1462_fw.png	265.0060260295868	
154	154.38380312919617	picture	0		109	152.0	/experiments/knapen_AOT/AOT_stimuli/pictures/0291_fw.png	265.0135691165924	0.9089200496673584
154	155.28395104408264	response	0	k		152.0	/experiments/knapen_AOT/AOT_stimuli/pictures/0291_fw.png	265.9137170314789	
155	155.29272317886353	picture	0		170	153.0	/experiments/knapen_AOT/AOT_stimuli/pictures/1579_fw.png	265.92248916625977	1.4168620109558105
155	156.7006139755249	response	0	k		153.0	/experiments/knapen_AOT/AOT_stimuli/pictures/1579_fw.png	267.33037996292114	
156	156.70958518981934	picture	0		102	154.0	/experiments/knapen_AOT/AOT_stimuli/pictures/0679_fw.png	267.3393511772156	0.8539938926696777
156	157.55063605308533	response	0	j		154.0	/experiments/knapen_AOT/AOT_stimuli/pictures/0679_fw.png	268.18040204048157	
157	157.563579082489	picture	0		110	155.0	/experiments/knapen_AOT/AOT_stimuli/pictures/0119_fw.png	268.19334506988525	0.9236059188842773
157	158.47554111480713	response	0	k		155.0	/experiments/knapen_AOT/AOT_stimuli/pictures/0119_fw.png	269.10530710220337	
158	158.4871850013733	picture	0		230	156.0	/experiments/knapen_AOT/AOT_stimuli/pictures/0649_fw.png	269.11695098876953	1.9167280197143555
158	160.39227318763733	response	0	j		156.0	/experiments/knapen_AOT/AOT_stimuli/pictures/0649_fw.png	271.02203917503357	
159	160.40391302108765	picture	0		110	157.0	/experiments/knapen_AOT/AOT_stimuli/pictures/0877_fw.png	271.0336790084839	0.944411039352417
159	161.33470511436462	response	0	j		157.0	/experiments/knapen_AOT/AOT_stimuli/pictures/0877_fw.png	271.96447110176086	
160	161.34832406044006	picture	0		164	158.0	/experiments/knapen_AOT/AOT_stimuli/pictures/1345_fw.png	271.9780900478363	1.3772540092468262
160	162.70972609519958	response	0	j		158.0	/experiments/knapen_AOT/AOT_stimuli/pictures/1345_fw.png	273.3394920825958	
161	162.7255780696869	picture	0		99	159.0	/experiments/knapen_AOT/AOT_stimuli/pictures/0229_fw.png	273.35534405708313	0.8311150074005127
161	163.54304599761963	response	0	j		159.0	/experiments/knapen_AOT/AOT_stimuli/pictures/0229_fw.png	274.17281198501587	
162	163.5566930770874	picture	0		98	160.0	/experiments/knapen_AOT/AOT_stimuli/pictures/1440_fw.png	274.18645906448364	0.8194611072540283
162	164.3673710823059	response	0	k		160.0	/experiments/knapen_AOT/AOT_stimuli/pictures/1440_fw.png	274.99713706970215	
163	164.37615418434143	picture	0		91	161.0	/experiments/knapen_AOT/AOT_stimuli/pictures/1874_fw.png	275.00592017173767	0.7639069557189941
163	165.12632417678833	response	0	j		161.0	/experiments/knapen_AOT/AOT_stimuli/pictures/1874_fw.png	275.75609016418457	
164	165.14006114006042	picture	0		104	162.0	/experiments/knapen_AOT/AOT_stimuli/pictures/2025_fw.png	275.76982712745667	0.8749959468841553
164	165.99400520324707	response	0	k		162.0	/experiments/knapen_AOT/AOT_stimuli/pictures/2025_fw.png	276.6237711906433	
165	166.01505708694458	picture	0		95	163.0	/experiments/knapen_AOT/AOT_stimuli/pictures/0664_fw.png	276.6448230743408	0.7986099720001221
165	166.7946741580963	response	0	j		163.0	/experiments/knapen_AOT/AOT_stimuli/pictures/0664_fw.png	277.42444014549255	
166	166.8136670589447	picture	0		116	164.0	/experiments/knapen_AOT/AOT_stimuli/pictures/0150_fw.png	277.44343304634094	0.9722890853881836
166	167.7757179737091	response	0	k		164.0	/experiments/knapen_AOT/AOT_stimuli/pictures/0150_fw.png	278.40548396110535	
167	167.78595614433289	picture	0		90	165.0	/experiments/knapen_AOT/AOT_stimuli/pictures/0698_fw.png	278.4157221317291	0.7500779628753662
167	168.52568316459656	response	0	j		165.0	/experiments/knapen_AOT/AOT_stimuli/pictures/0698_fw.png	279.1554491519928	
168	168.53603410720825	picture	0		180	166.0	/experiments/knapen_AOT/AOT_stimuli/pictures/1325_fw.png	279.1658000946045	1.5000460147857666
168	170.01905918121338	response	0	j		166.0	/experiments/knapen_AOT/AOT_stimuli/pictures/1325_fw.png	280.6488251686096	
169	170.03608012199402	picture	0		140	167.0	/experiments/knapen_AOT/AOT_stimuli/pictures/0869_fw.png	280.66584610939026	1.1665349006652832
169	171.18583416938782	response	0	j		167.0	/experiments/knapen_AOT/AOT_stimuli/pictures/0869_fw.png	281.81560015678406	
170	171.2026150226593	picture	0		119	168.0	/experiments/knapen_AOT/AOT_stimuli/pictures/0002_fw.png	281.83238101005554	0.9930541515350342
170	172.1842679977417	response	0	j		168.0	/experiments/knapen_AOT/AOT_stimuli/pictures/0002_fw.png	282.81403398513794	
171	172.19566917419434	picture	0		156	169.0	/experiments/knapen_AOT/AOT_stimuli/pictures/1757_fw.png	282.8254351615906	1.2986359596252441
171	173.48416113853455	response	0	k		169.0	/experiments/knapen_AOT/AOT_stimuli/pictures/1757_fw.png	284.1139271259308	
172	173.49430513381958	picture	0		101	170.0	/experiments/knapen_AOT/AOT_stimuli/pictures/0829_fw.png	284.1240711212158	0.8403170108795166
172	174.3258512020111	response	0	j		170.0	/experiments/knapen_AOT/AOT_stimuli/pictures/0829_fw.png	284.95561718940735	
173	174.3346221446991	picture	0		81	171.0	/experiments/knapen_AOT/AOT_stimuli/pictures/0157_fw.png	284.96438813209534	0.680474042892456
173	174.9941689968109	response	0	j		171.0	/experiments/knapen_AOT/AOT_stimuli/pictures/0157_fw.png	285.62393498420715	
174	175.01509618759155	picture	0		94	172.0	/experiments/knapen_AOT/AOT_stimuli/pictures/2058_fw.png	285.6448621749878	0.7917988300323486
174	175.78578305244446	response	0	k		172.0	/experiments/knapen_AOT/AOT_stimuli/pictures/2058_fw.png	286.4155490398407	
175	175.8068950176239	picture	0		105	173.0	/experiments/knapen_AOT/AOT_stimuli/pictures/1290_fw.png	286.43666100502014	0.8819370269775391
175	176.67600297927856	response	0	k		173.0	/experiments/knapen_AOT/AOT_stimuli/pictures/1290_fw.png	287.3057689666748	
176	176.68883204460144	picture	0		99	174.0	/experiments/knapen_AOT/AOT_stimuli/pictures/1581_fw.png	287.3185980319977	0.8333439826965332
176	177.50923919677734	response	0	k		174.0	/experiments/knapen_AOT/AOT_stimuli/pictures/1581_fw.png	288.1390051841736	
177	177.52217602729797	picture	0		89	175.0	/experiments/knapen_AOT/AOT_stimuli/pictures/1257_fw.png	288.1519420146942	0.7499270439147949
177	178.25919103622437	response	0	j		175.0	/experiments/knapen_AOT/AOT_stimuli/pictures/1257_fw.png	288.8889570236206	
178	178.27210307121277	picture	0		119	176.0	/experiments/knapen_AOT/AOT_stimuli/pictures/1550_fw.png	288.901869058609	0.9999909400939941
178	179.25929498672485	response	0	k		176.0	/experiments/knapen_AOT/AOT_stimuli/pictures/1550_fw.png	289.8890609741211	
179	179.27209401130676	picture	0		126	177.0	/experiments/knapen_AOT/AOT_stimuli/pictures/1886_fw.png	289.901859998703	1.0555810928344727
179	180.31755018234253	response	0	k		177.0	/experiments/knapen_AOT/AOT_stimuli/pictures/1886_fw.png	290.94731616973877	
180	180.32767510414124	picture	0		150	178.0	/experiments/knapen_AOT/AOT_stimuli/pictures/1684_fw.png	290.9574410915375	1.2499959468841553
180	181.5676281452179	response	0	j		178.0	/experiments/knapen_AOT/AOT_stimuli/pictures/1684_fw.png	292.19739413261414	
181	181.5776710510254	picture	0		120	179.0	/experiments/knapen_AOT/AOT_stimuli/pictures/1851_fw.png	292.20743703842163	1.000002145767212
181	182.56766819953918	response	0	j		179.0	/experiments/knapen_AOT/AOT_stimuli/pictures/1851_fw.png	293.1974341869354	
182	182.5776731967926	picture	0		102	180.0	/experiments/knapen_AOT/AOT_stimuli/pictures/1630_fw.png	293.20743918418884	0.8564138412475586
182	183.41102719306946	response	0	k		180.0	/experiments/knapen_AOT/AOT_stimuli/pictures/1630_fw.png	294.0407931804657	
183	183.43408703804016	picture	0		100	181.0	/experiments/knapen_AOT/AOT_stimuli/pictures/1888_fw.png	294.0638530254364	0.8380250930786133
183	184.2592740058899	response	0	k		181.0	/experiments/knapen_AOT/AOT_stimuli/pictures/1888_fw.png	294.88903999328613	
184	184.27211213111877	picture	0		101	182.0	/experiments/knapen_AOT/AOT_stimuli/pictures/0375_fw.png	294.901878118515	0.8472280502319336
184	185.1093270778656	response	0	k		182.0	/experiments/knapen_AOT/AOT_stimuli/pictures/0375_fw.png	295.73909306526184	
185	185.1193401813507	picture	0		112	183.0	/experiments/knapen_AOT/AOT_stimuli/pictures/1505_fw.png	295.74910616874695	0.9375150203704834
185	186.04323601722717	response	0	j		183.0	/experiments/knapen_AOT/AOT_stimuli/pictures/1505_fw.png	296.6730020046234	
186	186.0568552017212	picture	0		325	184.0	/experiments/knapen_AOT/AOT_stimuli/pictures/1883_fw.png	296.68662118911743	2.715298891067505
186	188.75933504104614	response	0	k		184.0	/experiments/knapen_AOT/AOT_stimuli/pictures/1883_fw.png	299.3891010284424	
187	188.7721540927887	picture	0		120	185.0	/experiments/knapen_AOT/AOT_stimuli/pictures/0234_fw.png	299.40192008018494	1.006972074508667
187	189.76774501800537	response	0	k		185.0	/experiments/knapen_AOT/AOT_stimuli/pictures/0234_fw.png	300.3975110054016	
188	189.77912616729736	picture	0		110	186.0	/experiments/knapen_AOT/AOT_stimuli/pictures/0096_fw.png	300.4088921546936	0.9166629314422607
188	190.68446516990662	response	0	j		186.0	/experiments/knapen_AOT/AOT_stimuli/pictures/0096_fw.png	301.31423115730286	
189	190.69578909873962	picture	0		112	187.0	/experiments/knapen_AOT/AOT_stimuli/pictures/0346_fw.png	301.32555508613586	0.9306719303131104
189	191.6177999973297	response	0	j		187.0	/experiments/knapen_AOT/AOT_stimuli/pictures/0346_fw.png	302.24756598472595	
190	191.62646102905273	picture	0		99	188.0	/experiments/knapen_AOT/AOT_stimuli/pictures/1746_fw.png	302.256227016449	0.8263540267944336
190	192.44277715682983	response	0	j		188.0	/experiments/knapen_AOT/AOT_stimuli/pictures/1746_fw.png	303.0725431442261	
191	192.45281505584717	picture	0		125	189.0	/experiments/knapen_AOT/AOT_stimuli/pictures/1822_fw.png	303.0825810432434	1.0417120456695557
191	193.48436212539673	response	0	j		189.0	/experiments/knapen_AOT/AOT_stimuli/pictures/1822_fw.png	304.11412811279297	
192	193.49452710151672	picture	0		114	190.0	/experiments/knapen_AOT/AOT_stimuli/pictures/1776_fw.png	304.12429308891296	0.9512748718261719
192	194.4343400001526	response	0	k		190.0	/experiments/knapen_AOT/AOT_stimuli/pictures/1776_fw.png	305.0641059875488	
193	194.4458019733429	picture	0		101	191.0	/experiments/knapen_AOT/AOT_stimuli/pictures/0223_fw.png	305.07556796073914	0.8402800559997559
193	195.276025056839	response	0	k		191.0	/experiments/knapen_AOT/AOT_stimuli/pictures/0223_fw.png	305.90579104423523	
194	195.28608202934265	picture	0		98	192.0	/experiments/knapen_AOT/AOT_stimuli/pictures/2060_fw.png	305.9158480167389	0.8194921016693115
194	196.0928180217743	response	0	j		192.0	/experiments/knapen_AOT/AOT_stimuli/pictures/2060_fw.png	306.72258400917053	
195	196.10557413101196	picture	0		124	193.0	/experiments/knapen_AOT/AOT_stimuli/pictures/0899_fw.png	306.7353401184082	1.0347249507904053
195	197.1266701221466	response	0	k		193.0	/experiments/knapen_AOT/AOT_stimuli/pictures/0899_fw.png	307.75643610954285	
196	197.14029908180237	picture	0		103	194.0	/experiments/knapen_AOT/AOT_stimuli/pictures/0349_fw.png	307.7700650691986	0.861198902130127
196	197.98611116409302	response	0	k		194.0	/experiments/knapen_AOT/AOT_stimuli/pictures/0349_fw.png	308.61587715148926	
197	198.0014979839325	picture	0		96	195.0	/experiments/knapen_AOT/AOT_stimuli/pictures/0596_fw.png	308.63126397132874	0.8054630756378174
197	198.79317498207092	response	0	j		195.0	/experiments/knapen_AOT/AOT_stimuli/pictures/0596_fw.png	309.42294096946716	
198	198.8069610595703	picture	0		98	196.0	/experiments/knapen_AOT/AOT_stimuli/pictures/1021_fw.png	309.43672704696655	0.8196260929107666
198	199.61782002449036	response	0	k		196.0	/experiments/knapen_AOT/AOT_stimuli/pictures/1021_fw.png	310.2475860118866	
199	199.62658715248108	picture	0		100	197.0	/experiments/knapen_AOT/AOT_stimuli/pictures/1929_fw.png	310.2563531398773	0.8331739902496338
199	200.45114016532898	response	0	j		197.0	/experiments/knapen_AOT/AOT_stimuli/pictures/1929_fw.png	311.0809061527252	
200	200.4597611427307	picture	0		174	198.0	/experiments/knapen_AOT/AOT_stimuli/pictures/1930_fw.png	311.08952713012695	1.4513828754425049
200	201.9012382030487	response	0	k		198.0	/experiments/knapen_AOT/AOT_stimuli/pictures/1930_fw.png	312.53100419044495	
201	201.91114401817322	picture	0		95	199.0	/experiments/knapen_AOT/AOT_stimuli/pictures/0360_fw.png	312.54091000556946	0.7917799949645996
201	202.69298601150513	response	0	k		199.0	/experiments/knapen_AOT/AOT_stimuli/pictures/0360_fw.png	313.32275199890137	
202	202.70292401313782	picture	0		102	200.0	/experiments/knapen_AOT/AOT_stimuli/pictures/1478_fw.png	313.33269000053406	0.8540701866149902
202	203.5433030128479	response	0	k		200.0	/experiments/knapen_AOT/AOT_stimuli/pictures/1478_fw.png	314.17306900024414	
203	203.5569941997528	picture	0		85	201.0	/experiments/knapen_AOT/AOT_stimuli/pictures/1836_fw.png	314.18676018714905	0.7152807712554932
203	204.25955510139465	response	0	j		201.0	/experiments/knapen_AOT/AOT_stimuli/pictures/1836_fw.png	314.8893210887909	
204	204.2722749710083	picture	0		118	202.0	/experiments/knapen_AOT/AOT_stimuli/pictures/1387_fw.png	314.90204095840454	1.0069451332092285
204	205.26793217658997	response	0	j		202.0	/experiments/knapen_AOT/AOT_stimuli/pictures/1387_fw.png	315.8976981639862	
205	205.27922010421753	picture	0		106	203.0	/experiments/knapen_AOT/AOT_stimuli/pictures/0236_fw.png	315.90898609161377	0.881943941116333
205	206.144788980484	response	0	k		203.0	/experiments/knapen_AOT/AOT_stimuli/pictures/0236_fw.png	316.77455496788025	
206	206.16116404533386	picture	0		125	204.0	/experiments/knapen_AOT/AOT_stimuli/pictures/1052_fw.png	316.7909300327301	1.041762113571167
206	207.18624210357666	response	0	k		204.0	/experiments/knapen_AOT/AOT_stimuli/pictures/1052_fw.png	317.8160080909729	
207	207.20292615890503	picture	0		106	205.0	/experiments/knapen_AOT/AOT_stimuli/pictures/1466_fw.png	317.83269214630127	0.881950855255127
207	208.0762460231781	response	0	j		205.0	/experiments/knapen_AOT/AOT_stimuli/pictures/1466_fw.png	318.70601201057434	
208	208.08487701416016	picture	0		103	206.0	/experiments/knapen_AOT/AOT_stimuli/pictures/2078_fw.png	318.7146430015564	0.8610491752624512
208	208.93458914756775	response	0	k		206.0	/experiments/knapen_AOT/AOT_stimuli/pictures/2078_fw.png	319.564355134964	
209	208.9459261894226	picture	0		118	207.0	/experiments/knapen_AOT/AOT_stimuli/pictures/2136_fw.png	319.57569217681885	0.9861040115356445
209	209.91826105117798	response	0	k		207.0	/experiments/knapen_AOT/AOT_stimuli/pictures/2136_fw.png	320.5480270385742	
210	209.93203020095825	picture	0		95	208.0	/experiments/knapen_AOT/AOT_stimuli/pictures/0750_fw.png	320.5617961883545	0.7986588478088379
210	210.71802711486816	response	0	j		208.0	/experiments/knapen_AOT/AOT_stimuli/pictures/0750_fw.png	321.3477931022644	
211	210.7306890487671	picture	0		119	209.0	/experiments/knapen_AOT/AOT_stimuli/pictures/1201_fw.png	321.36045503616333	0.9930620193481445
211	211.71016907691956	response	0	j		209.0	/experiments/knapen_AOT/AOT_stimuli/pictures/1201_fw.png	322.3399350643158	
212	211.72375106811523	picture	0		95	210.0	/experiments/knapen_AOT/AOT_stimuli/pictures/0740_fw.png	322.3535170555115	0.7986080646514893
212	212.50969409942627	response	0	j		210.0	/experiments/knapen_AOT/AOT_stimuli/pictures/0740_fw.png	323.1394600868225	
213	212.52235913276672	picture	0		165	211.0	/experiments/knapen_AOT/AOT_stimuli/pictures/0298_fw.png	323.15212512016296	1.3749959468841553
213	213.8847529888153	response	0	j		211.0	/experiments/knapen_AOT/AOT_stimuli/pictures/0298_fw.png	324.51451897621155	
214	213.89735507965088	picture	0		130	212.0	/experiments/knapen_AOT/AOT_stimuli/pictures/1305_fw.png	324.5271210670471	1.0903570652008057
214	214.96967101097107	response	0	k		212.0	/experiments/knapen_AOT/AOT_stimuli/pictures/1305_fw.png	325.5994369983673	
215	214.98771214485168	picture	0		138	213.0	/experiments/knapen_AOT/AOT_stimuli/pictures/1108_fw.png	325.6174781322479	1.1527209281921387
215	216.12664198875427	response	0	k		213.0	/experiments/knapen_AOT/AOT_stimuli/pictures/1108_fw.png	326.7564079761505	
216	216.14043307304382	picture	0		96	214.0	/experiments/knapen_AOT/AOT_stimuli/pictures/2081_fw.png	326.77019906044006	0.8055679798126221
216	216.93476104736328	response	0	j		214.0	/experiments/knapen_AOT/AOT_stimuli/pictures/2081_fw.png	327.5645270347595	
217	216.94600105285645	picture	0		102	215.0	/experiments/knapen_AOT/AOT_stimuli/pictures/0980_fw.png	327.5757670402527	0.8471870422363281
217	217.77791118621826	response	0	k		215.0	/experiments/knapen_AOT/AOT_stimuli/pictures/0980_fw.png	328.4076771736145	
218	217.79318809509277	picture	0		104	216.0	/experiments/knapen_AOT/AOT_stimuli/pictures/1181_fw.png	328.422954082489	0.8681330680847168
218	218.65130305290222	response	0	j		216.0	/experiments/knapen_AOT/AOT_stimuli/pictures/1181_fw.png	329.28106904029846	
219	218.6613211631775	picture	0		109	217.0	/experiments/knapen_AOT/AOT_stimuli/pictures/0422_fw.png	329.29108715057373	0.909682035446167
219	219.55287098884583	response	0	j		217.0	/experiments/knapen_AOT/AOT_stimuli/pictures/0422_fw.png	330.18263697624207	
220	219.57100319862366	picture	0		92	218.0	/experiments/knapen_AOT/AOT_stimuli/pictures/1504_fw.png	330.2007691860199	0.763887882232666
220	220.32648420333862	response	0	k		218.0	/experiments/knapen_AOT/AOT_stimuli/pictures/1504_fw.png	330.95625019073486	
221	220.33489108085632	picture	0		102	219.0	/experiments/knapen_AOT/AOT_stimuli/pictures/1437_fw.png	330.96465706825256	0.8542070388793945
221	221.1764941215515	response	0	k		219.0	/experiments/knapen_AOT/AOT_stimuli/pictures/1437_fw.png	331.80626010894775	
222	221.18909811973572	picture	0		101	220.0	/experiments/knapen_AOT/AOT_stimuli/pictures/1075_fw.png	331.81886410713196	0.8455069065093994
222	222.0182740688324	response	0	k		220.0	/experiments/knapen_AOT/AOT_stimuli/pictures/1075_fw.png	332.64804005622864	
223	222.03460502624512	picture	0		128	221.0	/experiments/knapen_AOT/AOT_stimuli/pictures/1615_fw.png	332.66437101364136	1.0712080001831055
223	223.09319019317627	response	0	j		221.0	/experiments/knapen_AOT/AOT_stimuli/pictures/1615_fw.png	333.7229561805725	
224	223.10581302642822	picture	0		174	222.0	/experiments/knapen_AOT/AOT_stimuli/pictures/1336_fw.png	333.73557901382446	1.4583179950714111
224	224.5449821949005	response	0	j		222.0	/experiments/knapen_AOT/AOT_stimuli/pictures/1336_fw.png	335.17474818229675	
225	224.56413102149963	picture	0		95	223.0	/experiments/knapen_AOT/AOT_stimuli/pictures/1189_fw.png	335.1938970088959	0.7917051315307617
225	225.3366470336914	response	0	j		223.0	/experiments/knapen_AOT/AOT_stimuli/pictures/1189_fw.png	335.96641302108765	
226	225.3558361530304	picture	0		106	224.0	/experiments/knapen_AOT/AOT_stimuli/pictures/1050_fw.png	335.98560214042664	0.8871338367462158
226	226.22643613815308	response	0	k		224.0	/experiments/knapen_AOT/AOT_stimuli/pictures/1050_fw.png	336.8562021255493	
227	226.2429699897766	picture	0		123	225.0	/experiments/knapen_AOT/AOT_stimuli/pictures/1311_fw.png	336.87273597717285	1.0333352088928223
227	227.2599320411682	response	0	j		225.0	/experiments/knapen_AOT/AOT_stimuli/pictures/1311_fw.png	337.88969802856445	
228	227.27630519866943	picture	0		100	226.0	/experiments/knapen_AOT/AOT_stimuli/pictures/0605_fw.png	337.9060711860657	0.8365139961242676
228	228.10155510902405	response	0	j		226.0	/experiments/knapen_AOT/AOT_stimuli/pictures/0605_fw.png	338.7313210964203	
229	228.1128191947937	picture	0		125	227.0	/experiments/knapen_AOT/AOT_stimuli/pictures/0289_fw.png	338.74258518218994	1.0416297912597656
229	229.13658714294434	response	0	j		227.0	/experiments/knapen_AOT/AOT_stimuli/pictures/0289_fw.png	339.7663531303406	
230	229.15444898605347	picture	0		162	228.0	/experiments/knapen_AOT/AOT_stimuli/pictures/0723_fw.png	339.7842149734497	1.3471720218658447
230	230.4933409690857	response	0	k		228.0	/experiments/knapen_AOT/AOT_stimuli/pictures/0723_fw.png	341.12310695648193	
231	230.5016210079193	picture	0		116	229.0	/experiments/knapen_AOT/AOT_stimuli/pictures/0663_fw.png	341.13138699531555	0.9722611904144287
231	231.46015405654907	response	0	k		229.0	/experiments/knapen_AOT/AOT_stimuli/pictures/0663_fw.png	342.0899200439453	
232	231.47388219833374	picture	0		97	230.0	/experiments/knapen_AOT/AOT_stimuli/pictures/1811_fw.png	342.10364818573	0.8125219345092773
232	232.276535987854	response	0	k		230.0	/experiments/knapen_AOT/AOT_stimuli/pictures/1811_fw.png	342.90630197525024	
233	232.28640413284302	picture	0		91	231.0	/experiments/knapen_AOT/AOT_stimuli/pictures/0520_fw.png	342.91617012023926	0.7569098472595215
233	233.0349841117859	response	0	j		231.0	/experiments/knapen_AOT/AOT_stimuli/pictures/0520_fw.png	343.66475009918213	
234	233.04331398010254	picture	0		95	232.0	/experiments/knapen_AOT/AOT_stimuli/pictures/1735_fw.png	343.6730799674988	0.7916901111602783
234	233.8265631198883	response	0	k		232.0	/experiments/knapen_AOT/AOT_stimuli/pictures/1735_fw.png	344.45632910728455	
235	233.83500409126282	picture	0		260	233.0	/experiments/knapen_AOT/AOT_stimuli/pictures/1117_fw.png	344.46477007865906	2.1748299598693848
235	235.99334001541138	response	0	k		233.0	/experiments/knapen_AOT/AOT_stimuli/pictures/1117_fw.png	346.6231060028076	
236	236.0098340511322	picture	0		107	234.0	/experiments/knapen_AOT/AOT_stimuli/pictures/0694_fw.png	346.63960003852844	0.8946621417999268
236	236.8933219909668	response	0	k		234.0	/experiments/knapen_AOT/AOT_stimuli/pictures/0694_fw.png	347.52308797836304	
237	236.90449619293213	picture	0		98	235.0	/experiments/knapen_AOT/AOT_stimuli/pictures/0161_fw.png	347.53426218032837	0.8194119930267334
237	237.71018409729004	response	0	j		235.0	/experiments/knapen_AOT/AOT_stimuli/pictures/0161_fw.png	348.3399500846863	
238	237.72390818595886	picture	0		118	236.0	/experiments/knapen_AOT/AOT_stimuli/pictures/1192_fw.png	348.3536741733551	0.9861400127410889
238	238.70168900489807	response	0	k		236.0	/experiments/knapen_AOT/AOT_stimuli/pictures/1192_fw.png	349.3314549922943	
239	238.71004819869995	picture	0		81	237.0	/experiments/knapen_AOT/AOT_stimuli/pictures/2099_fw.png	349.3398141860962	0.680548906326294
239	239.3768241405487	response	0	j		237.0	/experiments/knapen_AOT/AOT_stimuli/pictures/2099_fw.png	350.00659012794495	
240	239.39059710502625	picture	0		97	238.0	/experiments/knapen_AOT/AOT_stimuli/pictures/0640_fw.png	350.0203630924225	0.8125638961791992
240	240.19330310821533	response	0	k		238.0	/experiments/knapen_AOT/AOT_stimuli/pictures/0640_fw.png	350.8230690956116	
241	240.20316100120544	picture	0		84	239.0	/experiments/knapen_AOT/AOT_stimuli/pictures/1873_fw.png	350.8329269886017	0.7013411521911621
241	240.89341402053833	response	0	j		239.0	/experiments/knapen_AOT/AOT_stimuli/pictures/1873_fw.png	351.52318000793457	
242	240.9045021533966	picture	0		142	240.0	/experiments/knapen_AOT/AOT_stimuli/pictures/0307_fw.png	351.53426814079285	1.1805808544158936
242	242.07670307159424	response	0	j		240.0	/experiments/knapen_AOT/AOT_stimuli/pictures/0307_fw.png	352.7064690589905	
243	242.0850830078125	picture	0		91	241.0	/experiments/knapen_AOT/AOT_stimuli/pictures/0430_fw.png	352.71484899520874	0.7638981342315674
243	242.835214138031	response	0	j		241.0	/experiments/knapen_AOT/AOT_stimuli/pictures/0430_fw.png	353.46498012542725	
244	242.84898114204407	picture	0		180	242.0	/experiments/knapen_AOT/AOT_stimuli/pictures/1259_fw.png	353.4787471294403	1.5069680213928223
244	244.33684015274048	response	0	k		242.0	/experiments/knapen_AOT/AOT_stimuli/pictures/1259_fw.png	354.9666061401367	
245	244.3559491634369	picture	0		315	243.0	/experiments/knapen_AOT/AOT_stimuli/pictures/0028_fw.png	354.98571515083313	2.6320078372955322
245	246.9768409729004	response	0	k		243.0	/experiments/knapen_AOT/AOT_stimuli/pictures/0028_fw.png	357.60660696029663	
246	246.98795700073242	picture	0		94	244.0	/experiments/knapen_AOT/AOT_stimuli/pictures/1634_fw.png	357.61772298812866	0.7847051620483398
246	247.76011109352112	response	0	j		244.0	/experiments/knapen_AOT/AOT_stimuli/pictures/1634_fw.png	358.38987708091736	
247	247.77266216278076	picture	0		188	245.0	/experiments/knapen_AOT/AOT_stimuli/pictures/0966_fw.png	358.402428150177	1.5624220371246338
247	249.32016515731812	response	0	k		245.0	/experiments/knapen_AOT/AOT_stimuli/pictures/0966_fw.png	359.94993114471436	
248	249.3350841999054	picture	0		96	246.0	/experiments/knapen_AOT/AOT_stimuli/pictures/1098_fw.png	359.96485018730164	0.8195219039916992
248	250.13677215576172	response	0	j		246.0	/experiments/knapen_AOT/AOT_stimuli/pictures/1098_fw.png	360.76653814315796	
249	250.1546061038971	picture	0		137	247.0	/experiments/knapen_AOT/AOT_stimuli/pictures/0948_fw.png	360.78437209129333	1.1388270854949951
249	251.2851960659027	response	0	j		247.0	/experiments/knapen_AOT/AOT_stimuli/pictures/0948_fw.png	361.91496205329895	
250	251.2934331893921	picture	0		104	248.0	/experiments/knapen_AOT/AOT_stimuli/pictures/0128_fw.png	361.92319917678833	0.868257999420166
250	252.1518111228943	response	0	j		248.0	/experiments/knapen_AOT/AOT_stimuli/pictures/0128_fw.png	362.7815771102905	
251	252.16169118881226	picture	0		95	249.0	/experiments/knapen_AOT/AOT_stimuli/pictures/2027_fw.png	362.7914571762085	0.791536808013916
251	252.9367790222168	response	0	j		249.0	/experiments/knapen_AOT/AOT_stimuli/pictures/2027_fw.png	363.56654500961304	
252	252.95322799682617	picture	0		271	250.0	/experiments/knapen_AOT/AOT_stimuli/pictures/1394_fw.png	363.5829939842224	2.2569050788879395
252	255.20189118385315	response	0	j		250.0	/experiments/knapen_AOT/AOT_stimuli/pictures/1394_fw.png	365.8316571712494	
253	255.2101330757141	picture	0		357	251.0	/experiments/knapen_AOT/AOT_stimuli/pictures/1471_fw.png	365.83989906311035	2.9793169498443604
253	258.1768820285797	response	0	j		251.0	/experiments/knapen_AOT/AOT_stimuli/pictures/1471_fw.png	368.80664801597595	
254	258.1894500255585	picture	0		101	252.0	/experiments/knapen_AOT/AOT_stimuli/pictures/0529_fw.png	368.8192160129547	0.8401949405670166
254	259.01865100860596	response	0	j		252.0	/experiments/knapen_AOT/AOT_stimuli/pictures/0529_fw.png	369.6484169960022	
255	259.0296449661255	picture	0		88	253.0	/experiments/knapen_AOT/AOT_stimuli/pictures/1813_fw.png	369.65941095352173	0.736126184463501
255	259.7520320415497	response	0	j		253.0	/experiments/knapen_AOT/AOT_stimuli/pictures/1813_fw.png	370.3817980289459	
256	259.765771150589	picture	0		105	254.0	/experiments/knapen_AOT/AOT_stimuli/pictures/0383_fw.png	370.39553713798523	0.8819859027862549
256	260.6352541446686	response	0	j		254.0	/experiments/knapen_AOT/AOT_stimuli/pictures/0383_fw.png	371.2650201320648	
257	260.64775705337524	picture	0		86	255.0	/experiments/knapen_AOT/AOT_stimuli/pictures/0338_fw.png	371.2775230407715	0.7152490615844727
257	261.35203313827515	response	0	j		255.0	/experiments/knapen_AOT/AOT_stimuli/pictures/0338_fw.png	371.9817991256714	
258	261.3630061149597	picture	0		99	256.0	/experiments/knapen_AOT/AOT_stimuli/pictures/0778_fw.png	371.99277210235596	0.8264439105987549
258	262.1769561767578	response	0	k		256.0	/experiments/knapen_AOT/AOT_stimuli/pictures/0778_fw.png	372.80672216415405	
259	262.1894500255585	picture	0		182	257.0	/experiments/knapen_AOT/AOT_stimuli/pictures/0540_fw.png	372.8192160129547	1.5138380527496338
259	263.6937201023102	response	0	k		257.0	/experiments/knapen_AOT/AOT_stimuli/pictures/0540_fw.png	374.3234860897064	
260	263.7032880783081	picture	0		195	258.0	/experiments/knapen_AOT/AOT_stimuli/pictures/0773_fw.png	374.33305406570435	1.6250569820404053
260	265.31189012527466	response	0	k		258.0	/experiments/knapen_AOT/AOT_stimuli/pictures/0773_fw.png	375.9416561126709	
261	265.3283450603485	picture	0		104	259.0	/experiments/knapen_AOT/AOT_stimuli/pictures/1380_fw.png	375.95811104774475	0.8680329322814941
261	266.1853120326996	response	0	k		259.0	/experiments/knapen_AOT/AOT_stimuli/pictures/1380_fw.png	376.8150780200958	
262	266.19637799263	picture	0		127	260.0	/experiments/knapen_AOT/AOT_stimuli/pictures/1099_fw.png	376.82614398002625	1.0555751323699951
262	267.2437901496887	response	0	k		260.0	/experiments/knapen_AOT/AOT_stimuli/pictures/1099_fw.png	377.87355613708496	
263	267.251953125	picture	0		111	261.0	/experiments/knapen_AOT/AOT_stimuli/pictures/1187_fw.png	377.88171911239624	0.9305288791656494
263	268.1687090396881	response	0	k		261.0	/experiments/knapen_AOT/AOT_stimuli/pictures/1187_fw.png	378.79847502708435	
264	268.18248200416565	picture	0		111	262.0	/experiments/knapen_AOT/AOT_stimuli/pictures/1295_fw.png	378.8122479915619	0.9305770397186279
264	269.0955150127411	response	0	j		262.0	/experiments/knapen_AOT/AOT_stimuli/pictures/1295_fw.png	379.72528100013733	
265	269.1130590438843	picture	0		360	263.0	/experiments/knapen_AOT/AOT_stimuli/pictures/0012_fw.png	379.7428250312805	3.000046968460083
265	272.0955159664154	response	0	k		263.0	/experiments/knapen_AOT/AOT_stimuli/pictures/0012_fw.png	382.72528195381165	
266	272.11310601234436	picture	0		94	264.0	/experiments/knapen_AOT/AOT_stimuli/pictures/0472_fw.png	382.7428719997406	0.7847449779510498
266	272.88538813591003	response	0	k		264.0	/experiments/knapen_AOT/AOT_stimuli/pictures/0472_fw.png	383.5151541233063	
267	272.8978509902954	picture	0		81	265.0	/experiments/knapen_AOT/AOT_stimuli/pictures/1652_fw.png	383.52761697769165	0.6735951900482178
267	273.5603699684143	response	0	k		265.0	/experiments/knapen_AOT/AOT_stimuli/pictures/1652_fw.png	384.19013595581055	
268	273.5714461803436	picture	0		105	266.0	/experiments/knapen_AOT/AOT_stimuli/pictures/0080_fw.png	384.20121216773987	0.8749818801879883
268	274.4354271888733	response	0	k		266.0	/experiments/knapen_AOT/AOT_stimuli/pictures/0080_fw.png	385.06519317626953	
269	274.4464280605316	picture	0		98	267.0	/experiments/knapen_AOT/AOT_stimuli/pictures/0523_fw.png	385.07619404792786	0.8222141265869141
269	275.2522370815277	response	0	k		267.0	/experiments/knapen_AOT/AOT_stimuli/pictures/0523_fw.png	385.88200306892395	
270	275.26864218711853	picture	0		121	268.0	/experiments/knapen_AOT/AOT_stimuli/pictures/1697_fw.png	385.89840817451477	1.0112278461456299
270	276.26892709732056	response	0	j		268.0	/experiments/knapen_AOT/AOT_stimuli/pictures/1697_fw.png	386.8986930847168	
271	276.27987003326416	picture	0		98	269.0	/experiments/knapen_AOT/AOT_stimuli/pictures/1262_fw.png	386.9096360206604	0.8193449974060059
271	277.08549404144287	response	0	k		269.0	/experiments/knapen_AOT/AOT_stimuli/pictures/1262_fw.png	387.7152600288391	
272	277.09921503067017	picture	0		117	270.0	/experiments/knapen_AOT/AOT_stimuli/pictures/1887_fw.png	387.7289810180664	0.9793081283569336
272	278.0689811706543	response	0	k		270.0	/experiments/knapen_AOT/AOT_stimuli/pictures/1887_fw.png	388.69874715805054	
273	278.0785231590271	picture	0		232	271.0	/experiments/knapen_AOT/AOT_stimuli/pictures/1614_fw.png	388.70828914642334	1.93743896484375
273	280.0022749900818	response	0	k		271.0	/experiments/knapen_AOT/AOT_stimuli/pictures/1614_fw.png	390.632040977478	
274	280.01596212387085	picture	0		114	272.0	/experiments/knapen_AOT/AOT_stimuli/pictures/2013_fw.png	390.6457281112671	0.9583148956298828
274	280.9605031013489	response	0	k		272.0	/experiments/knapen_AOT/AOT_stimuli/pictures/2013_fw.png	391.5902690887451	
275	280.97427701950073	picture	0		96	273.0	/experiments/knapen_AOT/AOT_stimuli/pictures/1624_fw.png	391.604043006897	0.8055641651153564
275	281.7689890861511	response	0	j		273.0	/experiments/knapen_AOT/AOT_stimuli/pictures/1624_fw.png	392.39875507354736	
276	281.7798411846161	picture	0		93	274.0	/experiments/knapen_AOT/AOT_stimuli/pictures/0299_fw.png	392.40960717201233	0.7777769565582275
276	282.54397106170654	response	0	j		274.0	/experiments/knapen_AOT/AOT_stimuli/pictures/0299_fw.png	393.1737370491028	
277	282.5576181411743	picture	0		108	275.0	/experiments/knapen_AOT/AOT_stimuli/pictures/0471_fw.png	393.18738412857056	0.9028029441833496
277	283.45230317115784	response	0	k		275.0	/experiments/knapen_AOT/AOT_stimuli/pictures/0471_fw.png	394.0820691585541	
278	283.46042108535767	picture	0		104	276.0	/experiments/knapen_AOT/AOT_stimuli/pictures/0931_fw.png	394.0901870727539	0.8680388927459717
278	284.3188371658325	response	0	k		276.0	/experiments/knapen_AOT/AOT_stimuli/pictures/0931_fw.png	394.94860315322876	
279	284.32845997810364	picture	0		90	277.0	/experiments/knapen_AOT/AOT_stimuli/pictures/0678_fw.png	394.9582259654999	0.7501251697540283
279	285.0690791606903	response	0	j		277.0	/experiments/knapen_AOT/AOT_stimuli/pictures/0678_fw.png	395.69884514808655	
280	285.07858514785767	picture	0		177	278.0	/experiments/knapen_AOT/AOT_stimuli/pictures/0963_fw.png	395.7083511352539	1.4790928363800049
280	286.5440900325775	response	0	k		278.0	/experiments/knapen_AOT/AOT_stimuli/pictures/0963_fw.png	397.17385601997375	
281	286.55767798423767	picture	0		91	279.0	/experiments/knapen_AOT/AOT_stimuli/pictures/1247_fw.png	397.1874439716339	0.7638611793518066
281	287.3106791973114	response	0	k		279.0	/experiments/knapen_AOT/AOT_stimuli/pictures/1247_fw.png	397.94044518470764	
282	287.3215391635895	picture	0		97	280.0	/experiments/knapen_AOT/AOT_stimuli/pictures/1641_fw.png	397.9513051509857	0.8055689334869385
282	288.11905813217163	response	0	j		280.0	/experiments/knapen_AOT/AOT_stimuli/pictures/1641_fw.png	398.74882411956787	
283	288.1271080970764	picture	0		95	281.0	/experiments/knapen_AOT/AOT_stimuli/pictures/2021_fw.png	398.75687408447266	0.7917659282684326
283	288.9106571674347	response	0	k		281.0	/experiments/knapen_AOT/AOT_stimuli/pictures/2021_fw.png	399.54042315483093	
284	288.91887402534485	picture	0		108	282.0	/experiments/knapen_AOT/AOT_stimuli/pictures/1916_fw.png	399.5486400127411	0.9026851654052734
284	289.810613155365	response	0	j		282.0	/experiments/knapen_AOT/AOT_stimuli/pictures/1916_fw.png	400.44037914276123	
285	289.8215591907501	picture	0		199	283.0	/experiments/knapen_AOT/AOT_stimuli/pictures/0252_fw.png	400.45132517814636	1.6597387790679932
285	291.4691321849823	response	0	k		283.0	/experiments/knapen_AOT/AOT_stimuli/pictures/0252_fw.png	402.09889817237854	
286	291.4812979698181	picture	0		109	284.0	/experiments/knapen_AOT/AOT_stimuli/pictures/1880_fw.png	402.11106395721436	0.9097340106964111
286	292.3774080276489	response	0	k		284.0	/experiments/knapen_AOT/AOT_stimuli/pictures/1880_fw.png	403.00717401504517	
287	292.3910319805145	picture	0		111	285.0	/experiments/knapen_AOT/AOT_stimuli/pictures/0680_fw.png	403.02079796791077	0.9305551052093506
287	293.31061601638794	response	0	k		285.0	/experiments/knapen_AOT/AOT_stimuli/pictures/0680_fw.png	403.9403820037842	
288	293.3215870857239	picture	0		98	286.0	/experiments/knapen_AOT/AOT_stimuli/pictures/1203_fw.png	403.9513530731201	0.8194389343261719
288	294.1273319721222	response	0	j		286.0	/experiments/knapen_AOT/AOT_stimuli/pictures/1203_fw.png	404.75709795951843	
289	294.14102602005005	picture	0		86	287.0	/experiments/knapen_AOT/AOT_stimuli/pictures/1139_fw.png	404.7707920074463	0.7222380638122559
289	294.8525049686432	response	0	j		287.0	/experiments/knapen_AOT/AOT_stimuli/pictures/1139_fw.png	405.48227095603943	
290	294.8632640838623	picture	0		149	288.0	/experiments/knapen_AOT/AOT_stimuli/pictures/0396_fw.png	405.49303007125854	1.2430698871612549
290	296.0872061252594	response	0	j		288.0	/experiments/knapen_AOT/AOT_stimuli/pictures/0396_fw.png	406.71697211265564	
291	296.10633397102356	picture	0		102	289.0	/experiments/knapen_AOT/AOT_stimuli/pictures/1074_fw.png	406.7360999584198	0.8472540378570557
291	296.94414710998535	response	0	k		289.0	/experiments/knapen_AOT/AOT_stimuli/pictures/1074_fw.png	407.5739130973816	
292	296.9535880088806	picture	0		108	290.0	/experiments/knapen_AOT/AOT_stimuli/pictures/0630_fw.png	407.58335399627686	0.9236161708831787
292	297.8624851703644	response	0	k		290.0	/experiments/knapen_AOT/AOT_stimuli/pictures/0630_fw.png	408.4922511577606	
293	297.8772041797638	picture	0		86	291.0	/experiments/knapen_AOT/AOT_stimuli/pictures/0496_fw.png	408.50697016716003	0.7222089767456055
293	298.58575916290283	response	0	j		291.0	/experiments/knapen_AOT/AOT_stimuli/pictures/0496_fw.png	409.2155251502991	
294	298.5994131565094	picture	0		83	292.0	/experiments/knapen_AOT/AOT_stimuli/pictures/1531_fw.png	409.22917914390564	0.694504976272583
294	299.2791471481323	response	0	j		292.0	/experiments/knapen_AOT/AOT_stimuli/pictures/1531_fw.png	409.90891313552856	
295	299.293918132782	picture	0		118	293.0	/experiments/knapen_AOT/AOT_stimuli/pictures/0607_fw.png	409.9236841201782	0.9860608577728271
295	300.2626211643219	response	0	k		293.0	/experiments/knapen_AOT/AOT_stimuli/pictures/0607_fw.png	410.89238715171814	
296	300.2799789905548	picture	0		78	294.0	/experiments/knapen_AOT/AOT_stimuli/pictures/1804_fw.png	410.90974497795105	0.6527681350708008
296	300.9191551208496	response	0	j		294.0	/experiments/knapen_AOT/AOT_stimuli/pictures/1804_fw.png	411.54892110824585	
297	300.9327471256256	picture	0		115	295.0	/experiments/knapen_AOT/AOT_stimuli/pictures/0621_fw.png	411.56251311302185	0.9653799533843994
297	301.87908601760864	response	0	k		295.0	/experiments/knapen_AOT/AOT_stimuli/pictures/0621_fw.png	412.5088520050049	
298	301.89812707901	picture	0		85	296.0	/experiments/knapen_AOT/AOT_stimuli/pictures/1551_fw.png	412.52789306640625	0.7082691192626953
298	302.59424805641174	response	0	j		296.0	/experiments/knapen_AOT/AOT_stimuli/pictures/1551_fw.png	413.224014043808	
299	302.6063961982727	picture	0		93	297.0	/experiments/knapen_AOT/AOT_stimuli/pictures/2125_fw.png	413.23616218566895	0.770878791809082
299	303.36927318573	response	0	k		297.0	/experiments/knapen_AOT/AOT_stimuli/pictures/2125_fw.png	413.9990391731262	
300	303.3772749900818	picture	0		92	298.0	/experiments/knapen_AOT/AOT_stimuli/pictures/1347_fw.png	414.007040977478	0.7708170413970947
300	304.13583302497864	response	0	j		298.0	/experiments/knapen_AOT/AOT_stimuli/pictures/1347_fw.png	414.7655990123749	
301	304.1480920314789	picture	0		127	299.0	/experiments/knapen_AOT/AOT_stimuli/pictures/1537_fw.png	414.7778580188751	1.0556199550628662
301	305.19429111480713	response	0	k		299.0	/experiments/knapen_AOT/AOT_stimuli/pictures/1537_fw.png	415.82405710220337	
302	305.20371198654175	picture	0		102	300.0	/experiments/knapen_AOT/AOT_stimuli/pictures/2157_fw.png	415.833477973938	0.854093074798584
302	306.0442111492157	response	0	k		300.0	/experiments/knapen_AOT/AOT_stimuli/pictures/2157_fw.png	416.67397713661194	
303	306.05780506134033	picture	0		122	301.0	/experiments/knapen_AOT/AOT_stimuli/pictures/0665_fw.png	416.6875710487366	1.0209300518035889
303	307.06251215934753	response	0	j		301.0	/experiments/knapen_AOT/AOT_stimuli/pictures/0665_fw.png	417.6922781467438	
304	307.0787351131439	picture	0		119	302.0	/experiments/knapen_AOT/AOT_stimuli/pictures/0712_fw.png	417.70850110054016	0.9929940700531006
304	308.054239988327	response	0	k		302.0	/experiments/knapen_AOT/AOT_stimuli/pictures/0712_fw.png	418.68400597572327	
305	308.071729183197	picture	0		93	303.0	/experiments/knapen_AOT/AOT_stimuli/pictures/1984_fw.png	418.70149517059326	0.7777678966522217
305	308.83586502075195	response	0	k		303.0	/experiments/knapen_AOT/AOT_stimuli/pictures/1984_fw.png	419.4656310081482	
306	308.84949707984924	picture	0		119	304.0	/experiments/knapen_AOT/AOT_stimuli/pictures/1571_fw.png	419.4792630672455	1.0000019073486328
306	309.83583903312683	response	0	k		304.0	/experiments/knapen_AOT/AOT_stimuli/pictures/1571_fw.png	420.46560502052307	
307	309.8494989871979	picture	0		112	305.0	/experiments/knapen_AOT/AOT_stimuli/pictures/1433_fw.png	420.4792649745941	0.9375491142272949
307	310.777724981308	response	0	k		305.0	/experiments/knapen_AOT/AOT_stimuli/pictures/1433_fw.png	421.4074909687042	
308	310.78704810142517	picture	0		98	306.0	/experiments/knapen_AOT/AOT_stimuli/pictures/1065_fw.png	421.4168140888214	0.8194279670715332
308	311.5943491458893	response	0	j		306.0	/experiments/knapen_AOT/AOT_stimuli/pictures/1065_fw.png	422.2241151332855	
309	311.6064760684967	picture	0		94	307.0	/experiments/knapen_AOT/AOT_stimuli/pictures/1213_fw.png	422.23624205589294	0.7846980094909668
309	312.3775541782379	response	0	j		307.0	/experiments/knapen_AOT/AOT_stimuli/pictures/1213_fw.png	423.00732016563416	
310	312.39117407798767	picture	0		165	308.0	/experiments/knapen_AOT/AOT_stimuli/pictures/1355_fw.png	423.0209400653839	1.3819630146026611
310	313.7610111236572	response	0	j		308.0	/experiments/knapen_AOT/AOT_stimuli/pictures/1355_fw.png	424.39077711105347	
311	313.77313709259033	picture	0		117	309.0	/experiments/knapen_AOT/AOT_stimuli/pictures/1931_fw.png	424.4029030799866	0.9722819328308105
311	314.7360301017761	response	0	k		309.0	/experiments/knapen_AOT/AOT_stimuli/pictures/1931_fw.png	425.36579608917236	
312	314.74541902542114	picture	0		96	310.0	/experiments/knapen_AOT/AOT_stimuli/pictures/0770_fw.png	425.3751850128174	0.7986941337585449
312	315.5360231399536	response	0	k		310.0	/experiments/knapen_AOT/AOT_stimuli/pictures/0770_fw.png	426.16578912734985	
313	315.5441131591797	picture	0		90	311.0	/experiments/knapen_AOT/AOT_stimuli/pictures/0313_fw.png	426.1738791465759	0.75
313	316.2793641090393	response	0	j		311.0	/experiments/knapen_AOT/AOT_stimuli/pictures/0313_fw.png	426.90913009643555	
314	316.2941131591797	picture	0		102	312.0	/experiments/knapen_AOT/AOT_stimuli/pictures/1025_fw.png	426.9238791465759	0.8540549278259277
314	317.1360740661621	response	0	j		312.0	/experiments/knapen_AOT/AOT_stimuli/pictures/1025_fw.png	427.76584005355835	
315	317.1481680870056	picture	0		91	313.0	/experiments/knapen_AOT/AOT_stimuli/pictures/0420_fw.png	427.77793407440186	0.7569379806518555
315	317.89428520202637	response	0	k		313.0	/experiments/knapen_AOT/AOT_stimuli/pictures/0420_fw.png	428.5240511894226	
316	317.90510606765747	picture	0		107	314.0	/experiments/knapen_AOT/AOT_stimuli/pictures/2034_fw.png	428.5348720550537	0.8890509605407715
316	318.7861280441284	response	0	j		314.0	/experiments/knapen_AOT/AOT_stimuli/pictures/2034_fw.png	429.41589403152466	
317	318.79415702819824	picture	0		92	315.0	/experiments/knapen_AOT/AOT_stimuli/pictures/0727_fw.png	429.4239230155945	0.7707099914550781
317	319.5528681278229	response	0	k		315.0	/experiments/knapen_AOT/AOT_stimuli/pictures/0727_fw.png	430.1826341152191	
318	319.5648670196533	picture	0		129	316.0	/experiments/knapen_AOT/AOT_stimuli/pictures/0951_fw.png	430.19463300704956	1.0763750076293945
318	320.6276650428772	response	0	k		316.0	/experiments/knapen_AOT/AOT_stimuli/pictures/0951_fw.png	431.25743103027344	
319	320.6412420272827	picture	0		110	317.0	/experiments/knapen_AOT/AOT_stimuli/pictures/1087_fw.png	431.27100801467896	0.9236640930175781
319	321.5528631210327	response	0	j		317.0	/experiments/knapen_AOT/AOT_stimuli/pictures/1087_fw.png	432.18262910842896	
320	321.5649061203003	picture	0		139	318.0	/experiments/knapen_AOT/AOT_stimuli/pictures/1457_fw.png	432.19467210769653	1.159717082977295
320	322.7110471725464	response	0	k		318.0	/experiments/knapen_AOT/AOT_stimuli/pictures/1457_fw.png	433.3408131599426	
321	322.7246232032776	picture	0		87	319.0	/experiments/knapen_AOT/AOT_stimuli/pictures/1122_fw.png	433.3543891906738	0.7363708019256592
321	323.4377381801605	response	0	j		319.0	/experiments/knapen_AOT/AOT_stimuli/pictures/1122_fw.png	434.06750416755676	
322	323.46099400520325	picture	0		101	320.0	/experiments/knapen_AOT/AOT_stimuli/pictures/1114_fw.png	434.0907599925995	0.846947193145752
322	324.29436802864075	response	0	j		320.0	/experiments/knapen_AOT/AOT_stimuli/pictures/1114_fw.png	434.924134016037	
323	324.307941198349	picture	0		123	321.0	/experiments/knapen_AOT/AOT_stimuli/pictures/0460_fw.png	434.93770718574524	1.0279858112335205
323	325.3279311656952	response	0	k		321.0	/experiments/knapen_AOT/AOT_stimuli/pictures/0460_fw.png	435.95769715309143	
324	325.3359270095825	picture	0		182	322.0	/experiments/knapen_AOT/AOT_stimuli/pictures/0053_fw.png	435.96569299697876	1.520698070526123
324	326.83767914772034	response	0	j		322.0	/experiments/knapen_AOT/AOT_stimuli/pictures/0053_fw.png	437.4674451351166	
325	326.85662508010864	picture	0		84	323.0	/experiments/knapen_AOT/AOT_stimuli/pictures/1595_fw.png	437.4863910675049	0.701383113861084
325	327.5444619655609	response	0	j		323.0	/experiments/knapen_AOT/AOT_stimuli/pictures/1595_fw.png	438.17422795295715	
326	327.5580081939697	picture	0		90	324.0	/experiments/knapen_AOT/AOT_stimuli/pictures/1215_fw.png	438.18777418136597	0.7569429874420166
326	328.30284810066223	response	0	k		324.0	/experiments/knapen_AOT/AOT_stimuli/pictures/1215_fw.png	438.9326140880585	
327	328.31495118141174	picture	0		85	325.0	/experiments/knapen_AOT/AOT_stimuli/pictures/1127_fw.png	438.944717168808	0.7083098888397217
327	329.0112690925598	response	0	k		325.0	/experiments/knapen_AOT/AOT_stimuli/pictures/1127_fw.png	439.64103507995605	
328	329.02326107025146	picture	0		87	326.0	/experiments/knapen_AOT/AOT_stimuli/pictures/0262_fw.png	439.6530270576477	0.7223958969116211
328	329.736212015152	response	0	j		326.0	/experiments/knapen_AOT/AOT_stimuli/pictures/0262_fw.png	440.3659780025482	
329	329.7456569671631	picture	0		90	327.0	/experiments/knapen_AOT/AOT_stimuli/pictures/0662_fw.png	440.3754229545593	0.7500300407409668
329	330.48622012138367	response	0	k		327.0	/experiments/knapen_AOT/AOT_stimuli/pictures/0662_fw.png	441.1159861087799	
330	330.49568700790405	picture	0		87	328.0	/experiments/knapen_AOT/AOT_stimuli/pictures/1260_fw.png	441.1254529953003	0.7289950847625732
330	331.21114897727966	response	0	j		328.0	/experiments/knapen_AOT/AOT_stimuli/pictures/1260_fw.png	441.8409149646759	
331	331.2246820926666	picture	0		98	329.0	/experiments/knapen_AOT/AOT_stimuli/pictures/1771_fw.png	441.85444808006287	0.8196520805358887
331	332.02953720092773	response	0	k		329.0	/experiments/knapen_AOT/AOT_stimuli/pictures/1771_fw.png	442.659303188324	
332	332.0443341732025	picture	0		84	330.0	/experiments/knapen_AOT/AOT_stimuli/pictures/1293_fw.png	442.67410016059875	0.7220280170440674
332	332.7528371810913	response	0	j		330.0	/experiments/knapen_AOT/AOT_stimuli/pictures/1293_fw.png	443.38260316848755	
333	332.7663621902466	picture	0		86	331.0	/experiments/knapen_AOT/AOT_stimuli/pictures/2123_fw.png	443.3961281776428	0.722275972366333
333	333.4779121875763	response	0	j		331.0	/experiments/knapen_AOT/AOT_stimuli/pictures/2123_fw.png	444.10767817497253	
334	333.4886381626129	picture	0		95	332.0	/experiments/knapen_AOT/AOT_stimuli/pictures/0065_fw.png	444.11840415000916	0.7916018962860107
334	334.2628619670868	response	0	k		332.0	/experiments/knapen_AOT/AOT_stimuli/pictures/0065_fw.png	444.89262795448303	
335	334.2802400588989	picture	0		98	333.0	/experiments/knapen_AOT/AOT_stimuli/pictures/0020_fw.png	444.91000604629517	0.8194520473480225
335	335.08616518974304	response	0	j		333.0	/experiments/knapen_AOT/AOT_stimuli/pictures/0020_fw.png	445.7159311771393	
336	335.09969210624695	picture	0		117	334.0	/experiments/knapen_AOT/AOT_stimuli/pictures/0557_fw.png	445.7294580936432	0.9792220592498779
336	336.0695161819458	response	0	j		334.0	/experiments/knapen_AOT/AOT_stimuli/pictures/0557_fw.png	446.69928216934204	
337	336.0789141654968	picture	0		96	335.0	/experiments/knapen_AOT/AOT_stimuli/pictures/1341_fw.png	446.70868015289307	0.7988479137420654
337	336.86953496932983	response	0	j		335.0	/experiments/knapen_AOT/AOT_stimuli/pictures/1341_fw.png	447.4993009567261	
338	336.8777620792389	picture	0		92	336.0	/experiments/knapen_AOT/AOT_stimuli/pictures/1194_fw.png	447.50752806663513	0.7706460952758789
338	337.6295311450958	response	0	k		336.0	/experiments/knapen_AOT/AOT_stimuli/pictures/1194_fw.png	448.25929713249207	
339	337.64840817451477	picture	0		115	337.0	/experiments/knapen_AOT/AOT_stimuli/pictures/0123_fw.png	448.278174161911	0.9582870006561279
339	338.5947000980377	response	0	k		337.0	/experiments/knapen_AOT/AOT_stimuli/pictures/0123_fw.png	449.22446608543396	
340	338.6066951751709	picture	0		85	338.0	/experiments/knapen_AOT/AOT_stimuli/pictures/0722_fw.png	449.23646116256714	0.7083568572998047
340	339.30310702323914	response	0	k		338.0	/experiments/knapen_AOT/AOT_stimuli/pictures/0722_fw.png	449.9328730106354	
341	339.3150520324707	picture	0		86	339.0	/experiments/knapen_AOT/AOT_stimuli/pictures/0045_fw.png	449.94481801986694	0.7152349948883057
341	340.0196850299835	response	0	j		339.0	/experiments/knapen_AOT/AOT_stimuli/pictures/0045_fw.png	450.64945101737976	
342	340.030287027359	picture	0		96	340.0	/experiments/knapen_AOT/AOT_stimuli/pictures/2030_fw.png	450.66005301475525	0.7986321449279785
342	340.81968212127686	response	0	j		340.0	/experiments/knapen_AOT/AOT_stimuli/pictures/2030_fw.png	451.4494481086731	
343	340.828919172287	picture	0		87	341.0	/experiments/knapen_AOT/AOT_stimuli/pictures/1397_fw.png	451.4586851596832	0.7291758060455322
343	341.5446310043335	response	0	k		341.0	/experiments/knapen_AOT/AOT_stimuli/pictures/1397_fw.png	452.17439699172974	
344	341.5580949783325	picture	0		96	342.0	/experiments/knapen_AOT/AOT_stimuli/pictures/0613_fw.png	452.18786096572876	0.8056800365447998
344	342.3530972003937	response	0	k		342.0	/experiments/knapen_AOT/AOT_stimuli/pictures/0613_fw.png	452.9828631877899	
345	342.3637750148773	picture	0		160	343.0	/experiments/knapen_AOT/AOT_stimuli/pictures/1237_fw.png	452.99354100227356	1.3332111835479736
345	343.686359167099	response	0	k		343.0	/experiments/knapen_AOT/AOT_stimuli/pictures/1237_fw.png	454.31612515449524	
346	343.6969861984253	picture	0		83	344.0	/experiments/knapen_AOT/AOT_stimuli/pictures/1224_fw.png	454.32675218582153	0.6944668292999268
346	344.3780131340027	response	0	j		344.0	/experiments/knapen_AOT/AOT_stimuli/pictures/1224_fw.png	455.0077791213989	
347	344.3914530277252	picture	0		96	345.0	/experiments/knapen_AOT/AOT_stimuli/pictures/1135_fw.png	455.02121901512146	0.8055419921875
347	345.1863729953766	response	0	j		345.0	/experiments/knapen_AOT/AOT_stimuli/pictures/1135_fw.png	455.8161389827728	
348	345.1969950199127	picture	0		82	346.0	/experiments/knapen_AOT/AOT_stimuli/pictures/0569_fw.png	455.82676100730896	0.6809570789337158
348	345.86969113349915	response	0	j		346.0	/experiments/knapen_AOT/AOT_stimuli/pictures/0569_fw.png	456.4994571208954	
349	345.87795209884644	picture	0		90	347.0	/experiments/knapen_AOT/AOT_stimuli/pictures/0988_fw.png	456.5077180862427	0.7499630451202393
349	346.6197531223297	response	0	k		347.0	/experiments/knapen_AOT/AOT_stimuli/pictures/0988_fw.png	457.24951910972595	
350	346.6279151439667	picture	0		96	348.0	/experiments/knapen_AOT/AOT_stimuli/pictures/1084_fw.png	457.2576811313629	0.8052248954772949
350	347.4196979999542	response	0	j		348.0	/experiments/knapen_AOT/AOT_stimuli/pictures/1084_fw.png	458.04946398735046	
351	347.43314003944397	picture	0		136	349.0	/experiments/knapen_AOT/AOT_stimuli/pictures/0864_fw.png	458.0629060268402	1.1389570236206055
351	348.5614001750946	response	0	k		349.0	/experiments/knapen_AOT/AOT_stimuli/pictures/0864_fw.png	459.19116616249084	
352	348.5720970630646	picture	0		91	350.0	/experiments/knapen_AOT/AOT_stimuli/pictures/1375_fw.png	459.2018630504608	0.7568819522857666
352	349.3197531700134	response	0	k		350.0	/experiments/knapen_AOT/AOT_stimuli/pictures/1375_fw.png	459.94951915740967	
353	349.32897901535034	picture	0		215	351.0	/experiments/knapen_AOT/AOT_stimuli/pictures/1524_fw.png	459.9587450027466	1.7917160987854004
353	351.11143612861633	response	0	k		351.0	/experiments/knapen_AOT/AOT_stimuli/pictures/1524_fw.png	461.7412021160126	
354	351.12069511413574	picture	0		398	352.0	/experiments/knapen_AOT/AOT_stimuli/pictures/0061_fw.png	461.750461101532	3.3194289207458496
354	354.42156505584717	response	0	j		352.0	/experiments/knapen_AOT/AOT_stimuli/pictures/0061_fw.png	465.0513310432434	
355	354.4401240348816	picture	0		132	353.0	/experiments/knapen_AOT/AOT_stimuli/pictures/1044_fw.png	465.06989002227783	1.097257137298584
355	355.52826714515686	response	0	j		353.0	/experiments/knapen_AOT/AOT_stimuli/pictures/1044_fw.png	466.1580331325531	
356	355.5373811721802	picture	0		83	354.0	/experiments/knapen_AOT/AOT_stimuli/pictures/2038_fw.png	466.1671471595764	0.6944189071655273
356	356.2130961418152	response	0	k		354.0	/experiments/knapen_AOT/AOT_stimuli/pictures/2038_fw.png	466.8428621292114	
357	356.2318000793457	picture	0		255	355.0	/experiments/knapen_AOT/AOT_stimuli/pictures/0125_fw.png	466.86156606674194	2.129689931869507
357	358.3449170589447	response	0	j		355.0	/experiments/knapen_AOT/AOT_stimuli/pictures/0125_fw.png	468.97468304634094	
358	358.3614900112152	picture	0		108	356.0	/experiments/knapen_AOT/AOT_stimuli/pictures/0287_fw.png	468.99125599861145	0.9050610065460205
358	359.25318717956543	response	0	k		356.0	/experiments/knapen_AOT/AOT_stimuli/pictures/0287_fw.png	469.88295316696167	
359	359.26655101776123	picture	0		103	357.0	/experiments/knapen_AOT/AOT_stimuli/pictures/1516_fw.png	469.89631700515747	0.8699140548706055
359	360.1198899745941	response	0	k		357.0	/experiments/knapen_AOT/AOT_stimuli/pictures/1516_fw.png	470.74965596199036	
360	360.13646507263184	picture	0		129	358.0	/experiments/knapen_AOT/AOT_stimuli/pictures/0276_fw.png	470.7662310600281	1.0750579833984375
360	361.20329117774963	response	0	j		358.0	/experiments/knapen_AOT/AOT_stimuli/pictures/0276_fw.png	471.8330571651459	
361	361.2115230560303	picture	0		108	359.0	/experiments/knapen_AOT/AOT_stimuli/pictures/1610_fw.png	471.8412890434265	0.9023139476776123
361	362.1032190322876	response	0	k		359.0	/experiments/knapen_AOT/AOT_stimuli/pictures/1610_fw.png	472.73298501968384	
362	362.1138370037079	stim	0		425			472.7436029911041	3.560587167739868
362	365.65472507476807	response	0	space				476.2844910621643	
