trial_nr	onset	event_type	phase	response	nr_frames	picture_index	picture_file	onset_abs	duration
0	0.17496085166931152	stim	0		712			62.123680114746094	5.9501214027404785
0	6.108708381652832	response	0	space				68.05742764472961	
2	6.12508225440979	picture	0		190	0.0	/experiments/Knapen_AOT/AOT_stimuli/pictures/1323_fw.png	68.07380151748657	1.6096937656402588
2	7.710078716278076	response	0	j		0.0	/experiments/Knapen_AOT/AOT_stimuli/pictures/1323_fw.png	69.65879797935486	
3	7.734776020050049	picture	0		145	1.0	/experiments/Knapen_AOT/AOT_stimuli/pictures/0001_fw.png	69.68349528312683	1.2235970497131348
3	8.94194507598877	response	0	k		1.0	/experiments/Knapen_AOT/AOT_stimuli/pictures/0001_fw.png	70.89066433906555	
4	8.958373069763184	picture	0		112	2.0	/experiments/Knapen_AOT/AOT_stimuli/pictures/1282_fw.png	70.90709233283997	0.9366824626922607
4	9.883580684661865	response	0	k		2.0	/experiments/Knapen_AOT/AOT_stimuli/pictures/1282_fw.png	71.83229994773865	
5	9.895055532455444	picture	0		103	3.0	/experiments/Knapen_AOT/AOT_stimuli/pictures/0491_fw.png	71.84377479553223	0.8611307144165039
5	10.741909980773926	response	0	k		3.0	/experiments/Knapen_AOT/AOT_stimuli/pictures/0491_fw.png	72.69062924385071	
6	10.756186246871948	picture	0		96	4.0	/experiments/Knapen_AOT/AOT_stimuli/pictures/0094_fw.png	72.70490550994873	0.8055946826934814
6	11.550301790237427	response	0	j		4.0	/experiments/Knapen_AOT/AOT_stimuli/pictures/0094_fw.png	73.49902105331421	
7	11.56178092956543	picture	0		107	5.0	/experiments/Knapen_AOT/AOT_stimuli/pictures/1426_fw.png	73.51050019264221	0.8888862133026123
7	12.441935062408447	response	0	j		5.0	/experiments/Knapen_AOT/AOT_stimuli/pictures/1426_fw.png	74.39065432548523	
8	12.450667142868042	picture	0		177	6.0	/experiments/Knapen_AOT/AOT_stimuli/pictures/1322_fw.png	74.39938640594482	1.4791619777679443
8	13.916969776153564	response	0	j		6.0	/experiments/Knapen_AOT/AOT_stimuli/pictures/1322_fw.png	75.86568903923035	
9	13.929829120635986	picture	0		125	7.0	/experiments/Knapen_AOT/AOT_stimuli/pictures/1433_fw.png	75.87854838371277	1.0417242050170898
9	14.958659410476685	response	0	j		7.0	/experiments/Knapen_AOT/AOT_stimuli/pictures/1433_fw.png	76.90737867355347	
10	14.971553325653076	picture	0		109	8.0	/experiments/Knapen_AOT/AOT_stimuli/pictures/0516_fw.png	76.92027258872986	0.9203169345855713
10	15.868662357330322	response	0	j		8.0	/experiments/Knapen_AOT/AOT_stimuli/pictures/0516_fw.png	77.8173816204071	
11	15.891870260238647	picture	0		118	9.0	/experiments/Knapen_AOT/AOT_stimuli/pictures/1907_fw.png	77.84058952331543	0.9893608093261719
11	16.85951805114746	response	0	k		9.0	/experiments/Knapen_AOT/AOT_stimuli/pictures/1907_fw.png	78.80823731422424	
12	16.88123106956482	picture	0		99	10.0	/experiments/Knapen_AOT/AOT_stimuli/pictures/0359_fw.png	78.8299503326416	0.8333690166473389
12	17.700337886810303	response	0	k		10.0	/experiments/Knapen_AOT/AOT_stimuli/pictures/0359_fw.png	79.64905714988708	
13	17.714600086212158	picture	0		100	11.0	/experiments/Knapen_AOT/AOT_stimuli/pictures/1811_fw.png	79.66331934928894	0.8402760028839111
13	18.542017698287964	response	0	k		11.0	/experiments/Knapen_AOT/AOT_stimuli/pictures/1811_fw.png	80.49073696136475	
14	18.55487608909607	picture	0		138	12.0	/experiments/Knapen_AOT/AOT_stimuli/pictures/0204_fw.png	80.50359535217285	1.1457998752593994
14	19.692031860351562	response	0	k		12.0	/experiments/Knapen_AOT/AOT_stimuli/pictures/0204_fw.png	81.64075112342834	
15	19.70067596435547	picture	0		113	13.0	/experiments/Knapen_AOT/AOT_stimuli/pictures/1993_fw.png	81.64939522743225	0.9444873332977295
15	20.633721351623535	response	0	k		13.0	/experiments/Knapen_AOT/AOT_stimuli/pictures/1993_fw.png	82.58244061470032	
16	20.6451632976532	picture	0		120	14.0	/experiments/Knapen_AOT/AOT_stimuli/pictures/1798_fw.png	82.59388256072998	1.0000290870666504
16	21.63375425338745	response	0	k		14.0	/experiments/Knapen_AOT/AOT_stimuli/pictures/1798_fw.png	83.58247351646423	
17	21.64519238471985	picture	0		97	15.0	/experiments/Knapen_AOT/AOT_stimuli/pictures/1212_fw.png	83.59391164779663	0.8055219650268555
17	22.442087650299072	response	0	j		15.0	/experiments/Knapen_AOT/AOT_stimuli/pictures/1212_fw.png	84.39080691337585	
18	22.450714349746704	picture	0		98	16.0	/experiments/Knapen_AOT/AOT_stimuli/pictures/1980_fw.png	84.39943361282349	0.8194501399993896
18	23.258740663528442	response	0	k		16.0	/experiments/Knapen_AOT/AOT_stimuli/pictures/1980_fw.png	85.20745992660522	
19	23.270164489746094	picture	0		216	17.0	/experiments/Knapen_AOT/AOT_stimuli/pictures/1996_fw.png	85.21888375282288	1.8050928115844727
19	25.05876064300537	response	0	k		17.0	/experiments/Knapen_AOT/AOT_stimuli/pictures/1996_fw.png	87.00747990608215	
20	25.075257301330566	picture	0		94	18.0	/experiments/Knapen_AOT/AOT_stimuli/pictures/1210_fw.png	87.02397656440735	0.7852075099945068
20	25.85052514076233	response	0	k		18.0	/experiments/Knapen_AOT/AOT_stimuli/pictures/1210_fw.png	87.79924440383911	
21	25.860464811325073	picture	0		134	19.0	/experiments/Knapen_AOT/AOT_stimuli/pictures/1774_fw.png	87.80918407440186	1.1180739402770996
21	26.967164754867554	response	0	j		19.0	/experiments/Knapen_AOT/AOT_stimuli/pictures/1774_fw.png	88.91588401794434	
22	26.978538751602173	picture	0		110	20.0	/experiments/Knapen_AOT/AOT_stimuli/pictures/1584_fw.png	88.92725801467896	0.9166393280029297
22	27.88382601737976	response	0	k		20.0	/experiments/Knapen_AOT/AOT_stimuli/pictures/1584_fw.png	89.83254528045654	
23	27.895178079605103	picture	0		101	21.0	/experiments/Knapen_AOT/AOT_stimuli/pictures/1948_fw.png	89.84389734268188	0.8402929306030273
23	28.725467681884766	response	0	j		21.0	/experiments/Knapen_AOT/AOT_stimuli/pictures/1948_fw.png	90.67418694496155	
24	28.73547101020813	picture	0		115	22.0	/experiments/Knapen_AOT/AOT_stimuli/pictures/0527_fw.png	90.68419027328491	0.9583349227905273
24	29.683823347091675	response	0	k		22.0	/experiments/Knapen_AOT/AOT_stimuli/pictures/0527_fw.png	91.63254261016846	
25	29.693805932998657	picture	0		100	23.0	/experiments/Knapen_AOT/AOT_stimuli/pictures/1833_fw.png	91.64252519607544	0.8333699703216553
25	30.517194032669067	response	0	j		23.0	/experiments/Knapen_AOT/AOT_stimuli/pictures/1833_fw.png	92.46591329574585	
26	30.527175903320312	picture	0		106	24.0	/experiments/Knapen_AOT/AOT_stimuli/pictures/0740_fw.png	92.4758951663971	0.8819370269775391
26	31.400522708892822	response	0	j		24.0	/experiments/Knapen_AOT/AOT_stimuli/pictures/0740_fw.png	93.3492419719696	
27	31.40911293029785	picture	0		98	25.0	/experiments/Knapen_AOT/AOT_stimuli/pictures/1181_fw.png	93.35783219337463	0.8195016384124756
27	32.21720361709595	response	0	j		25.0	/experiments/Knapen_AOT/AOT_stimuli/pictures/1181_fw.png	94.16592288017273	
28	32.22861456871033	picture	0		121	26.0	/experiments/Knapen_AOT/AOT_stimuli/pictures/1783_fw.png	94.17733383178711	1.0134170055389404
28	33.22579836845398	response	0	k		26.0	/experiments/Knapen_AOT/AOT_stimuli/pictures/1783_fw.png	95.17451763153076	
29	33.24203157424927	picture	0		255	27.0	/experiments/Knapen_AOT/AOT_stimuli/pictures/1913_fw.png	95.19075083732605	2.1333587169647217
29	35.35893154144287	response	0	k		27.0	/experiments/Knapen_AOT/AOT_stimuli/pictures/1913_fw.png	97.30765080451965	
30	35.37539029121399	picture	0		102	28.0	/experiments/Knapen_AOT/AOT_stimuli/pictures/1142_fw.png	97.32410955429077	0.8532595634460449
30	36.21729636192322	response	0	k		28.0	/experiments/Knapen_AOT/AOT_stimuli/pictures/1142_fw.png	98.166015625	
31	36.228649854660034	picture	0		110	29.0	/experiments/Knapen_AOT/AOT_stimuli/pictures/1027_fw.png	98.17736911773682	0.9166562557220459
31	37.13398003578186	response	0	j		29.0	/experiments/Knapen_AOT/AOT_stimuli/pictures/1027_fw.png	99.08269929885864	
32	37.14530611038208	picture	0		99	30.0	/experiments/Knapen_AOT/AOT_stimuli/pictures/1219_fw.png	99.09402537345886	0.8301188945770264
32	37.95892858505249	response	0	k		30.0	/experiments/Knapen_AOT/AOT_stimuli/pictures/1219_fw.png	99.90764784812927	
33	37.975425004959106	picture	0		111	31.0	/experiments/Knapen_AOT/AOT_stimuli/pictures/1648_fw.png	99.92414426803589	0.9268100261688232
33	38.89232158660889	response	0	k		31.0	/experiments/Knapen_AOT/AOT_stimuli/pictures/1648_fw.png	100.84104084968567	
34	38.90223503112793	picture	0		95	32.0	/experiments/Knapen_AOT/AOT_stimuli/pictures/0911_fw.png	100.85095429420471	0.798182487487793
34	39.68393898010254	response	0	k		32.0	/experiments/Knapen_AOT/AOT_stimuli/pictures/0911_fw.png	101.63265824317932	
35	39.70041751861572	picture	0		122	33.0	/experiments/Knapen_AOT/AOT_stimuli/pictures/2076_fw.png	101.6491367816925	1.0212574005126953
35	40.708993911743164	response	0	k		33.0	/experiments/Knapen_AOT/AOT_stimuli/pictures/2076_fw.png	102.65771317481995	
36	40.72167491912842	picture	0		152	34.0	/experiments/Knapen_AOT/AOT_stimuli/pictures/1256_fw.png	102.6703941822052	1.270430088043213
36	41.97576284408569	response	0	j		34.0	/experiments/Knapen_AOT/AOT_stimuli/pictures/1256_fw.png	103.92448210716248	
37	41.99210500717163	picture	0		182	35.0	/experiments/Knapen_AOT/AOT_stimuli/pictures/1880_fw.png	103.94082427024841	1.5211749076843262
37	43.50066256523132	response	0	k		35.0	/experiments/Knapen_AOT/AOT_stimuli/pictures/1880_fw.png	105.4493818283081	
38	43.51327991485596	picture	0		141	36.0	/experiments/Knapen_AOT/AOT_stimuli/pictures/0345_fw.png	105.46199917793274	1.187199354171753
38	44.683998823165894	response	0	k		36.0	/experiments/Knapen_AOT/AOT_stimuli/pictures/0345_fw.png	106.63271808624268	
39	44.70047926902771	picture	0		90	37.0	/experiments/Knapen_AOT/AOT_stimuli/pictures/0033_fw.png	106.64919853210449	0.7504572868347168
39	45.43554949760437	response	0	k		37.0	/experiments/Knapen_AOT/AOT_stimuli/pictures/0033_fw.png	107.38426876068115	
40	45.45093655586243	picture	0		188	38.0	/experiments/Knapen_AOT/AOT_stimuli/pictures/1592_fw.png	107.39965581893921	1.569310188293457
40	47.00901532173157	response	0	k		38.0	/experiments/Knapen_AOT/AOT_stimuli/pictures/1592_fw.png	108.95773458480835	
41	47.020246744155884	picture	0		119	39.0	/experiments/Knapen_AOT/AOT_stimuli/pictures/1360_fw.png	108.96896600723267	0.9931840896606445
41	48.00072431564331	response	0	j		39.0	/experiments/Knapen_AOT/AOT_stimuli/pictures/1360_fw.png	109.94944357872009	
42	48.01343083381653	picture	0		137	40.0	/experiments/Knapen_AOT/AOT_stimuli/pictures/1469_fw.png	109.96215009689331	1.138871669769287
42	49.142505407333374	response	0	k		40.0	/experiments/Knapen_AOT/AOT_stimuli/pictures/1469_fw.png	111.09122467041016	
43	49.152302503585815	picture	0		457	41.0	/experiments/Knapen_AOT/AOT_stimuli/pictures/1588_fw.png	111.1010217666626	3.814962863922119
43	52.95103096961975	response	0	k		41.0	/experiments/Knapen_AOT/AOT_stimuli/pictures/1588_fw.png	114.89975023269653	
44	52.967265367507935	picture	0		110	42.0	/experiments/Knapen_AOT/AOT_stimuli/pictures/0324_fw.png	114.91598463058472	0.9250686168670654
44	53.875770807266235	response	0	j		42.0	/experiments/Knapen_AOT/AOT_stimuli/pictures/0324_fw.png	115.82449007034302	
45	53.892333984375	picture	0		98	43.0	/experiments/Knapen_AOT/AOT_stimuli/pictures/1952_fw.png	115.84105324745178	0.8249557018280029
45	54.700839042663574	response	0	j		43.0	/experiments/Knapen_AOT/AOT_stimuli/pictures/1952_fw.png	116.64955830574036	
46	54.717289686203	picture	0		267	44.0	/experiments/Knapen_AOT/AOT_stimuli/pictures/2110_fw.png	116.66600894927979	2.2266290187835693
46	56.9341254234314	response	0	k		44.0	/experiments/Knapen_AOT/AOT_stimuli/pictures/2110_fw.png	118.88284468650818	
47	56.94391870498657	picture	0		90	45.0	/experiments/Knapen_AOT/AOT_stimuli/pictures/0308_fw.png	118.89263796806335	0.75008225440979
47	57.684155225753784	response	0	j		45.0	/experiments/Knapen_AOT/AOT_stimuli/pictures/0308_fw.png	119.63287448883057	
48	57.69400095939636	picture	0		185	46.0	/experiments/Knapen_AOT/AOT_stimuli/pictures/0472_fw.png	119.64272022247314	1.548339605331421
48	59.225890159606934	response	0	k		46.0	/experiments/Knapen_AOT/AOT_stimuli/pictures/0472_fw.png	121.17460942268372	
49	59.24234056472778	picture	0		164	47.0	/experiments/Knapen_AOT/AOT_stimuli/pictures/2108_fw.png	121.19105982780457	1.3683245182037354
49	60.600874185562134	response	0	k		47.0	/experiments/Knapen_AOT/AOT_stimuli/pictures/2108_fw.png	122.54959344863892	
50	60.61066508293152	picture	0		117	48.0	/experiments/Knapen_AOT/AOT_stimuli/pictures/1561_fw.png	122.5593843460083	0.9791927337646484
50	61.57589936256409	response	0	k		48.0	/experiments/Knapen_AOT/AOT_stimuli/pictures/1561_fw.png	123.52461862564087	
51	61.58985781669617	picture	0		90	49.0	/experiments/Knapen_AOT/AOT_stimuli/pictures/0092_fw.png	123.53857707977295	0.7608685493469238
51	62.334187507629395	response	0	j		49.0	/experiments/Knapen_AOT/AOT_stimuli/pictures/0092_fw.png	124.28290677070618	
52	62.35072636604309	picture	0		124	50.0	/experiments/Knapen_AOT/AOT_stimuli/pictures/2179_fw.png	124.29944562911987	1.0416460037231445
52	63.375879526138306	response	0	k		50.0	/experiments/Knapen_AOT/AOT_stimuli/pictures/2179_fw.png	125.32459878921509	
53	63.392372369766235	picture	0		88	51.0	/experiments/Knapen_AOT/AOT_stimuli/pictures/0228_fw.png	125.34109163284302	0.7392463684082031
53	64.11756181716919	response	0	j		51.0	/experiments/Knapen_AOT/AOT_stimuli/pictures/0228_fw.png	126.06628108024597	
54	64.13161873817444	picture	0		98	52.0	/experiments/Knapen_AOT/AOT_stimuli/pictures/0573_fw.png	126.08033800125122	0.8274273872375488
54	64.94264912605286	response	0	k		52.0	/experiments/Knapen_AOT/AOT_stimuli/pictures/0573_fw.png	126.89136838912964	
55	64.95904612541199	picture	0		124	53.0	/experiments/Knapen_AOT/AOT_stimuli/pictures/1071_fw.png	126.90776538848877	1.0336480140686035
55	65.9842460155487	response	0	j		53.0	/experiments/Knapen_AOT/AOT_stimuli/pictures/1071_fw.png	127.93296527862549	
56	65.99269413948059	picture	0		103	54.0	/experiments/Knapen_AOT/AOT_stimuli/pictures/1363_fw.png	127.94141340255737	0.8664069175720215
56	66.84268450737	response	0	k		54.0	/experiments/Knapen_AOT/AOT_stimuli/pictures/1363_fw.png	128.79140377044678	
57	66.85910105705261	picture	0		99	55.0	/experiments/Knapen_AOT/AOT_stimuli/pictures/0814_fw.png	128.8078203201294	0.8333241939544678
57	67.67597770690918	response	0	k		55.0	/experiments/Knapen_AOT/AOT_stimuli/pictures/0814_fw.png	129.62469696998596	
58	67.69242525100708	picture	0		90	56.0	/experiments/Knapen_AOT/AOT_stimuli/pictures/1277_fw.png	129.64114451408386	0.7583436965942383
58	68.43451738357544	response	0	k		56.0	/experiments/Knapen_AOT/AOT_stimuli/pictures/1277_fw.png	130.38323664665222	
59	68.45076894760132	picture	0		98	57.0	/experiments/Knapen_AOT/AOT_stimuli/pictures/1937_fw.png	130.3994882106781	0.8197343349456787
59	69.25958681106567	response	0	k		57.0	/experiments/Knapen_AOT/AOT_stimuli/pictures/1937_fw.png	131.20830607414246	
60	69.270503282547	picture	0		178	58.0	/experiments/Knapen_AOT/AOT_stimuli/pictures/0762_fw.png	131.21922254562378	1.4886574745178223
60	70.74271154403687	response	0	j		58.0	/experiments/Knapen_AOT/AOT_stimuli/pictures/0762_fw.png	132.69143080711365	
61	70.75916075706482	picture	0		100	59.0	/experiments/Knapen_AOT/AOT_stimuli/pictures/1858_fw.png	132.7078800201416	0.8378794193267822
61	71.58430886268616	response	0	k		59.0	/experiments/Knapen_AOT/AOT_stimuli/pictures/1858_fw.png	133.53302812576294	
62	71.5970401763916	picture	0		97	60.0	/experiments/Knapen_AOT/AOT_stimuli/pictures/1918_fw.png	133.54575943946838	0.8123681545257568
62	72.40105438232422	response	0	j		60.0	/experiments/Knapen_AOT/AOT_stimuli/pictures/1918_fw.png	134.349773645401	
63	72.40940833091736	picture	0		261	61.0	/experiments/Knapen_AOT/AOT_stimuli/pictures/0209_fw.png	134.35812759399414	2.1831066608428955
63	74.57667589187622	response	0	k		61.0	/experiments/Knapen_AOT/AOT_stimuli/pictures/0209_fw.png	136.525395154953	
64	74.59251499176025	picture	0		271	62.0	/experiments/Knapen_AOT/AOT_stimuli/pictures/0269_fw.png	136.54123425483704	2.2612881660461426
64	76.84273195266724	response	0	k		62.0	/experiments/Knapen_AOT/AOT_stimuli/pictures/0269_fw.png	138.79145121574402	
65	76.8538031578064	picture	0		285	63.0	/experiments/Knapen_AOT/AOT_stimuli/pictures/0388_fw.png	138.80252242088318	2.375028371810913
65	79.21775460243225	response	0	j		63.0	/experiments/Knapen_AOT/AOT_stimuli/pictures/0388_fw.png	141.16647386550903	
66	79.22883152961731	picture	0		95	64.0	/experiments/Knapen_AOT/AOT_stimuli/pictures/0306_fw.png	141.1775507926941	0.7917354106903076
66	80.00944995880127	response	0	j		64.0	/experiments/Knapen_AOT/AOT_stimuli/pictures/0306_fw.png	141.95816922187805	
67	80.02056694030762	picture	0		193	65.0	/experiments/Knapen_AOT/AOT_stimuli/pictures/1685_fw.png	141.9692862033844	1.6110568046569824
67	81.61783528327942	response	0	k		65.0	/experiments/Knapen_AOT/AOT_stimuli/pictures/1685_fw.png	143.5665545463562	
68	81.6316237449646	picture	0		84	66.0	/experiments/Knapen_AOT/AOT_stimuli/pictures/1314_fw.png	143.58034300804138	0.7084090709686279
68	82.32614231109619	response	0	k		66.0	/experiments/Knapen_AOT/AOT_stimuli/pictures/1314_fw.png	144.27486157417297	
69	82.34003281593323	picture	0		154	67.0	/experiments/Knapen_AOT/AOT_stimuli/pictures/1306_fw.png	144.28875207901	1.291703462600708
69	83.61785292625427	response	0	j		67.0	/experiments/Knapen_AOT/AOT_stimuli/pictures/1306_fw.png	145.56657218933105	
70	83.63173627853394	picture	0		91	68.0	/experiments/Knapen_AOT/AOT_stimuli/pictures/1694_fw.png	145.58045554161072	0.763878345489502
70	84.38449549674988	response	0	k		68.0	/experiments/Knapen_AOT/AOT_stimuli/pictures/1694_fw.png	146.33321475982666	
71	84.39561462402344	picture	0		105	69.0	/experiments/Knapen_AOT/AOT_stimuli/pictures/0859_fw.png	146.34433388710022	0.8752086162567139
71	85.25960278511047	response	0	k		69.0	/experiments/Knapen_AOT/AOT_stimuli/pictures/0859_fw.png	147.20832204818726	
72	85.27082324028015	picture	0		117	70.0	/experiments/Knapen_AOT/AOT_stimuli/pictures/0263_fw.png	147.21954250335693	0.980217456817627
72	86.22799348831177	response	0	k		70.0	/experiments/Knapen_AOT/AOT_stimuli/pictures/0263_fw.png	148.17671275138855	
73	86.25104069709778	picture	0		164	71.0	/experiments/Knapen_AOT/AOT_stimuli/pictures/1348_fw.png	148.19975996017456	1.3666813373565674
73	87.60959982872009	response	0	k		71.0	/experiments/Knapen_AOT/AOT_stimuli/pictures/1348_fw.png	149.55831909179688	
74	87.61772203445435	picture	0		131	72.0	/experiments/Knapen_AOT/AOT_stimuli/pictures/0030_fw.png	149.56644129753113	1.100048542022705
74	88.70154356956482	response	0	j		72.0	/experiments/Knapen_AOT/AOT_stimuli/pictures/0030_fw.png	150.6502628326416	
75	88.71777057647705	picture	0		122	73.0	/experiments/Knapen_AOT/AOT_stimuli/pictures/1465_fw.png	150.66648983955383	1.0249252319335938
75	89.72632694244385	response	0	k		73.0	/experiments/Knapen_AOT/AOT_stimuli/pictures/1465_fw.png	151.67504620552063	
76	89.74269580841064	picture	0		116	74.0	/experiments/Knapen_AOT/AOT_stimuli/pictures/1388_fw.png	151.69141507148743	0.9723756313323975
76	90.70124530792236	response	0	k		74.0	/experiments/Knapen_AOT/AOT_stimuli/pictures/1388_fw.png	152.64996457099915	
77	90.71507143974304	picture	0		135	75.0	/experiments/Knapen_AOT/AOT_stimuli/pictures/0145_fw.png	152.66379070281982	1.1319704055786133
77	91.8345844745636	response	0	k		75.0	/experiments/Knapen_AOT/AOT_stimuli/pictures/0145_fw.png	153.78330373764038	
78	91.84704184532166	picture	0		115	76.0	/experiments/Knapen_AOT/AOT_stimuli/pictures/1138_fw.png	153.79576110839844	0.9583630561828613
78	92.79291844367981	response	0	j		76.0	/experiments/Knapen_AOT/AOT_stimuli/pictures/1138_fw.png	154.7416377067566	
79	92.80540490150452	picture	0		115	77.0	/experiments/Knapen_AOT/AOT_stimuli/pictures/2141_fw.png	154.7541241645813	0.9623575210571289
79	93.75123405456543	response	0	j		77.0	/experiments/Knapen_AOT/AOT_stimuli/pictures/2141_fw.png	155.6999533176422	
80	93.76776242256165	picture	0		105	78.0	/experiments/Knapen_AOT/AOT_stimuli/pictures/0024_fw.png	155.71648168563843	0.8833510875701904
80	94.63506841659546	response	0	j		78.0	/experiments/Knapen_AOT/AOT_stimuli/pictures/0024_fw.png	156.58378767967224	
81	94.65111351013184	picture	0		131	79.0	/experiments/Knapen_AOT/AOT_stimuli/pictures/0531_fw.png	156.59983277320862	1.0917603969573975
81	95.73455238342285	response	0	k		79.0	/experiments/Knapen_AOT/AOT_stimuli/pictures/0531_fw.png	157.68327164649963	
82	95.74287390708923	picture	0		103	80.0	/experiments/Knapen_AOT/AOT_stimuli/pictures/1637_fw.png	157.69159317016602	0.8665807247161865
82	96.59302616119385	response	0	k		80.0	/experiments/Knapen_AOT/AOT_stimuli/pictures/1637_fw.png	158.54174542427063	
83	96.60945463180542	picture	0		122	81.0	/experiments/Knapen_AOT/AOT_stimuli/pictures/1624_fw.png	158.5581738948822	1.0223610401153564
83	97.61795353889465	response	0	k		81.0	/experiments/Knapen_AOT/AOT_stimuli/pictures/1624_fw.png	159.56667280197144	
84	97.63181567192078	picture	0		110	82.0	/experiments/Knapen_AOT/AOT_stimuli/pictures/0313_fw.png	159.58053493499756	0.9236423969268799
84	98.54291129112244	response	0	j		82.0	/experiments/Knapen_AOT/AOT_stimuli/pictures/0313_fw.png	160.49163055419922	
85	98.55545806884766	picture	0		98	83.0	/experiments/Knapen_AOT/AOT_stimuli/pictures/0517_fw.png	160.50417733192444	0.812652587890625
85	99.35964870452881	response	0	j		83.0	/experiments/Knapen_AOT/AOT_stimuli/pictures/0517_fw.png	161.3083679676056	
86	99.36811065673828	picture	0		107	84.0	/experiments/Knapen_AOT/AOT_stimuli/pictures/0725_fw.png	161.31682991981506	0.8997952938079834
86	100.24416446685791	response	0	j		84.0	/experiments/Knapen_AOT/AOT_stimuli/pictures/0725_fw.png	162.1928837299347	
87	100.26790595054626	picture	0		125	85.0	/experiments/Knapen_AOT/AOT_stimuli/pictures/0540_fw.png	162.21662521362305	1.0499377250671387
87	101.30148005485535	response	0	j		85.0	/experiments/Knapen_AOT/AOT_stimuli/pictures/0540_fw.png	163.25019931793213	
88	101.3178436756134	picture	0		95	86.0	/experiments/Knapen_AOT/AOT_stimuli/pictures/1869_fw.png	163.26656293869019	0.793121337890625
88	102.10133004188538	response	0	k		86.0	/experiments/Knapen_AOT/AOT_stimuli/pictures/1869_fw.png	164.05004930496216	
89	102.11096501350403	picture	0		197	87.0	/experiments/Knapen_AOT/AOT_stimuli/pictures/2132_fw.png	164.0596842765808	1.6458709239959717
89	103.74301075935364	response	0	j		87.0	/experiments/Knapen_AOT/AOT_stimuli/pictures/2132_fw.png	165.69173002243042	
90	103.7568359375	picture	0		108	88.0	/experiments/Knapen_AOT/AOT_stimuli/pictures/0908_fw.png	165.70555520057678	0.9028356075286865
90	104.64391589164734	response	0	k		88.0	/experiments/Knapen_AOT/AOT_stimuli/pictures/0908_fw.png	166.59263515472412	
91	104.65967154502869	picture	0		101	89.0	/experiments/Knapen_AOT/AOT_stimuli/pictures/1066_fw.png	166.60839080810547	0.8498950004577637
91	105.49334239959717	response	0	k		89.0	/experiments/Knapen_AOT/AOT_stimuli/pictures/1066_fw.png	167.44206166267395	
92	105.50956654548645	picture	0		99	90.0	/experiments/Knapen_AOT/AOT_stimuli/pictures/1371_fw.png	167.45828580856323	0.8306715488433838
92	106.32648015022278	response	0	k		90.0	/experiments/Knapen_AOT/AOT_stimuli/pictures/1371_fw.png	168.27519941329956	
93	106.34023809432983	picture	0		109	91.0	/experiments/Knapen_AOT/AOT_stimuli/pictures/0050_fw.png	168.28895735740662	0.9166300296783447
93	107.23565196990967	response	0	k		91.0	/experiments/Knapen_AOT/AOT_stimuli/pictures/0050_fw.png	169.18437123298645	
94	107.25686812400818	picture	0		114	92.0	/experiments/Knapen_AOT/AOT_stimuli/pictures/0811_fw.png	169.20558738708496	0.9583625793457031
94	108.20161247253418	response	0	k		92.0	/experiments/Knapen_AOT/AOT_stimuli/pictures/0811_fw.png	170.15033173561096	
95	108.21523070335388	picture	0		102	93.0	/experiments/Knapen_AOT/AOT_stimuli/pictures/1310_fw.png	170.16394996643066	0.854135274887085
95	109.05978608131409	response	0	k		93.0	/experiments/Knapen_AOT/AOT_stimuli/pictures/1310_fw.png	171.00850534439087	
96	109.06936597824097	picture	0		114	94.0	/experiments/Knapen_AOT/AOT_stimuli/pictures/2041_fw.png	171.01808524131775	0.9569101333618164
96	110.00981998443604	response	0	j		94.0	/experiments/Knapen_AOT/AOT_stimuli/pictures/2041_fw.png	171.95853924751282	
97	110.02627611160278	picture	0		163	95.0	/experiments/Knapen_AOT/AOT_stimuli/pictures/0929_fw.png	171.97499537467957	1.3624746799468994
97	111.37642788887024	response	0	j		95.0	/experiments/Knapen_AOT/AOT_stimuli/pictures/0929_fw.png	173.32514715194702	
98	111.38875079154968	picture	0		119	96.0	/experiments/Knapen_AOT/AOT_stimuli/pictures/1423_fw.png	173.33747005462646	0.9958896636962891
98	112.36820077896118	response	0	j		96.0	/experiments/Knapen_AOT/AOT_stimuli/pictures/1423_fw.png	174.31692004203796	
99	112.38464045524597	picture	0		101	97.0	/experiments/Knapen_AOT/AOT_stimuli/pictures/2155_fw.png	174.33335971832275	0.8445053100585938
99	113.21813607215881	response	0	k		97.0	/experiments/Knapen_AOT/AOT_stimuli/pictures/2155_fw.png	175.1668553352356	
100	113.22914576530457	picture	0		147	98.0	/experiments/Knapen_AOT/AOT_stimuli/pictures/1522_fw.png	175.17786502838135	1.2223303318023682
100	114.43570470809937	response	0	k		98.0	/experiments/Knapen_AOT/AOT_stimuli/pictures/1522_fw.png	176.38442397117615	
101	114.45147609710693	picture	0		122	99.0	/experiments/Knapen_AOT/AOT_stimuli/pictures/0758_fw.png	176.40019536018372	1.0249316692352295
101	115.45984053611755	response	0	k		99.0	/experiments/Knapen_AOT/AOT_stimuli/pictures/0758_fw.png	177.40855979919434	
102	115.47640776634216	picture	0		175	100.0	/experiments/Knapen_AOT/AOT_stimuli/pictures/1752_fw.png	177.42512702941895	1.460977554321289
102	116.92648124694824	response	0	k		100.0	/experiments/Knapen_AOT/AOT_stimuli/pictures/1752_fw.png	178.87520051002502	
103	116.93738532066345	picture	0		93	101.0	/experiments/Knapen_AOT/AOT_stimuli/pictures/0132_fw.png	178.88610458374023	0.7778897285461426
103	117.7015814781189	response	0	j		101.0	/experiments/Knapen_AOT/AOT_stimuli/pictures/0132_fw.png	179.65030074119568	
104	117.7152750492096	picture	0		106	102.0	/experiments/Knapen_AOT/AOT_stimuli/pictures/0790_fw.png	179.66399431228638	0.8889095783233643
104	118.59316849708557	response	0	k		102.0	/experiments/Knapen_AOT/AOT_stimuli/pictures/0790_fw.png	180.54188776016235	
105	118.60418462753296	picture	0		473	103.0	/experiments/Knapen_AOT/AOT_stimuli/pictures/1775_fw.png	180.55290389060974	3.944380044937134
105	122.53490829467773	response	0	k		103.0	/experiments/Knapen_AOT/AOT_stimuli/pictures/1775_fw.png	184.48362755775452	
106	122.54856467247009	picture	0		97	104.0	/experiments/Knapen_AOT/AOT_stimuli/pictures/0609_fw.png	184.49728393554688	0.8126108646392822
106	123.3515932559967	response	0	k		104.0	/experiments/Knapen_AOT/AOT_stimuli/pictures/0609_fw.png	185.3003125190735	
107	123.36117553710938	picture	0		155	105.0	/experiments/Knapen_AOT/AOT_stimuli/pictures/0403_fw.png	185.30989480018616	1.2916295528411865
107	124.63578724861145	response	0	k		105.0	/experiments/Knapen_AOT/AOT_stimuli/pictures/0403_fw.png	186.58450651168823	
108	124.65280508995056	picture	0		142	106.0	/experiments/Knapen_AOT/AOT_stimuli/pictures/1391_fw.png	186.60152435302734	1.1875331401824951
108	125.82661986351013	response	0	k		106.0	/experiments/Knapen_AOT/AOT_stimuli/pictures/1391_fw.png	187.7753391265869	
109	125.84033823013306	picture	0		248	107.0	/experiments/Knapen_AOT/AOT_stimuli/pictures/1723_fw.png	187.78905749320984	2.0778446197509766
109	127.90164709091187	response	0	k		107.0	/experiments/Knapen_AOT/AOT_stimuli/pictures/1723_fw.png	189.85036635398865	
110	127.91818284988403	picture	0		111	108.0	/experiments/Knapen_AOT/AOT_stimuli/pictures/0073_fw.png	189.86690211296082	0.9291071891784668
110	128.83500790596008	response	0	j		108.0	/experiments/Knapen_AOT/AOT_stimuli/pictures/0073_fw.png	190.78372716903687	
111	128.8472900390625	picture	0		133	109.0	/experiments/Knapen_AOT/AOT_stimuli/pictures/1865_fw.png	190.79600930213928	1.1125659942626953
111	129.94334721565247	response	0	j		109.0	/experiments/Knapen_AOT/AOT_stimuli/pictures/1865_fw.png	191.89206647872925	
112	129.9598560333252	picture	0		111	110.0	/experiments/Knapen_AOT/AOT_stimuli/pictures/2173_fw.png	191.90857529640198	0.9291272163391113
112	130.87664270401	response	0	k		110.0	/experiments/Knapen_AOT/AOT_stimuli/pictures/2173_fw.png	192.8253619670868	
113	130.8889832496643	picture	0		109	111.0	/experiments/Knapen_AOT/AOT_stimuli/pictures/1806_fw.png	192.8377025127411	0.9097957611083984
113	131.78503704071045	response	0	k		111.0	/experiments/Knapen_AOT/AOT_stimuli/pictures/1806_fw.png	193.73375630378723	
114	131.7987790107727	picture	0		137	112.0	/experiments/Knapen_AOT/AOT_stimuli/pictures/1785_fw.png	193.7474982738495	1.1458566188812256
114	132.93502807617188	response	0	k		112.0	/experiments/Knapen_AOT/AOT_stimuli/pictures/1785_fw.png	194.88374733924866	
115	132.94463562965393	picture	0		121	113.0	/experiments/Knapen_AOT/AOT_stimuli/pictures/1642_fw.png	194.8933548927307	1.006950855255127
115	133.9434359073639	response	0	k		113.0	/experiments/Knapen_AOT/AOT_stimuli/pictures/1642_fw.png	195.89215517044067	
116	133.95158648490906	picture	0		122	114.0	/experiments/Knapen_AOT/AOT_stimuli/pictures/1057_fw.png	195.90030574798584	1.020772933959961
116	134.96002507209778	response	0	k		114.0	/experiments/Knapen_AOT/AOT_stimuli/pictures/1057_fw.png	196.90874433517456	
117	134.97235941886902	picture	0		108	115.0	/experiments/Knapen_AOT/AOT_stimuli/pictures/0539_fw.png	196.9210786819458	0.8959171772003174
117	135.86004424095154	response	0	j		115.0	/experiments/Knapen_AOT/AOT_stimuli/pictures/0539_fw.png	197.80876350402832	
118	135.86827659606934	picture	0		99	116.0	/experiments/Knapen_AOT/AOT_stimuli/pictures/1341_fw.png	197.81699585914612	0.8333339691162109
118	136.6851155757904	response	0	k		116.0	/experiments/Knapen_AOT/AOT_stimuli/pictures/1341_fw.png	198.6338348388672	
119	136.70161056518555	picture	0		154	117.0	/experiments/Knapen_AOT/AOT_stimuli/pictures/0524_fw.png	198.65032982826233	1.2846803665161133
119	137.97684526443481	response	0	k		117.0	/experiments/Knapen_AOT/AOT_stimuli/pictures/0524_fw.png	199.9255645275116	
120	137.98629093170166	picture	0		113	118.0	/experiments/Knapen_AOT/AOT_stimuli/pictures/0360_fw.png	199.93501019477844	0.9444525241851807
120	138.91841983795166	response	0	k		118.0	/experiments/Knapen_AOT/AOT_stimuli/pictures/0360_fw.png	200.86713910102844	
121	138.93074345588684	picture	0		91	119.0	/experiments/Knapen_AOT/AOT_stimuli/pictures/1398_fw.png	200.87946271896362	0.7569122314453125
121	139.67681455612183	response	0	j		119.0	/experiments/Knapen_AOT/AOT_stimuli/pictures/1398_fw.png	201.6255338191986	
122	139.68765568733215	picture	0		120	120.0	/experiments/Knapen_AOT/AOT_stimuli/pictures/0304_fw.png	201.63637495040894	1.0000405311584473
122	140.67684245109558	response	0	j		120.0	/experiments/Knapen_AOT/AOT_stimuli/pictures/0304_fw.png	202.62556171417236	
123	140.6876962184906	picture	0		111	121.0	/experiments/Knapen_AOT/AOT_stimuli/pictures/0768_fw.png	202.63641548156738	0.9306433200836182
123	141.60185933113098	response	0	j		121.0	/experiments/Knapen_AOT/AOT_stimuli/pictures/0768_fw.png	203.55057859420776	
124	141.61833953857422	picture	0		100	122.0	/experiments/Knapen_AOT/AOT_stimuli/pictures/1281_fw.png	203.567058801651	0.8416821956634521
124	142.44386076927185	response	0	j		122.0	/experiments/Knapen_AOT/AOT_stimuli/pictures/1281_fw.png	204.39258003234863	
125	142.46002173423767	picture	0		92	123.0	/experiments/Knapen_AOT/AOT_stimuli/pictures/0530_fw.png	204.40874099731445	0.7750339508056641
125	143.2184932231903	response	0	j		123.0	/experiments/Knapen_AOT/AOT_stimuli/pictures/0530_fw.png	205.1672124862671	
126	143.23505568504333	picture	0		116	124.0	/experiments/Knapen_AOT/AOT_stimuli/pictures/0236_fw.png	205.18377494812012	0.9666197299957275
126	144.1936354637146	response	0	k		124.0	/experiments/Knapen_AOT/AOT_stimuli/pictures/0236_fw.png	206.14235472679138	
127	144.20167541503906	picture	0		132	125.0	/experiments/Knapen_AOT/AOT_stimuli/pictures/0096_fw.png	206.15039467811584	1.1040706634521484
127	145.2935004234314	response	0	k		125.0	/experiments/Knapen_AOT/AOT_stimuli/pictures/0096_fw.png	207.24221968650818	
128	145.3057460784912	picture	0		106	126.0	/experiments/Knapen_AOT/AOT_stimuli/pictures/0830_fw.png	207.254465341568	0.8819496631622314
128	146.17684698104858	response	0	k		126.0	/experiments/Knapen_AOT/AOT_stimuli/pictures/0830_fw.png	208.12556624412537	
129	146.18769574165344	picture	0		113	127.0	/experiments/Knapen_AOT/AOT_stimuli/pictures/0183_fw.png	208.13641500473022	0.9444663524627686
129	147.11852359771729	response	0	j		127.0	/experiments/Knapen_AOT/AOT_stimuli/pictures/0183_fw.png	209.06724286079407	
130	147.1321620941162	picture	0		103	128.0	/experiments/Knapen_AOT/AOT_stimuli/pictures/0739_fw.png	209.080881357193	0.8612260818481445
130	147.98525404930115	response	0	j		128.0	/experiments/Knapen_AOT/AOT_stimuli/pictures/0739_fw.png	209.93397331237793	
131	147.99338817596436	picture	0		147	129.0	/experiments/Knapen_AOT/AOT_stimuli/pictures/1291_fw.png	209.94210743904114	1.2290964126586914
131	149.21026277542114	response	0	k		129.0	/experiments/Knapen_AOT/AOT_stimuli/pictures/1291_fw.png	211.15898203849792	
132	149.22248458862305	picture	0		97	130.0	/experiments/Knapen_AOT/AOT_stimuli/pictures/1791_fw.png	211.17120385169983	0.8055236339569092
132	150.01858520507812	response	0	k		130.0	/experiments/Knapen_AOT/AOT_stimuli/pictures/1791_fw.png	211.9673044681549	
133	150.02800822257996	picture	0		117	131.0	/experiments/Knapen_AOT/AOT_stimuli/pictures/1412_fw.png	211.97672748565674	0.9821147918701172
133	150.99356818199158	response	0	k		131.0	/experiments/Knapen_AOT/AOT_stimuli/pictures/1412_fw.png	212.94228744506836	
134	151.01012301445007	picture	0		103	132.0	/experiments/Knapen_AOT/AOT_stimuli/pictures/0099_fw.png	212.95884227752686	0.8583486080169678
134	151.86024117469788	response	0	k		132.0	/experiments/Knapen_AOT/AOT_stimuli/pictures/0099_fw.png	213.80896043777466	
135	151.86847162246704	picture	0		118	133.0	/experiments/Knapen_AOT/AOT_stimuli/pictures/1238_fw.png	213.81719088554382	1.1249938011169434
135	152.9791238307953	response	0	j		133.0	/experiments/Knapen_AOT/AOT_stimuli/pictures/1238_fw.png	214.92784309387207	
136	152.99346542358398	picture	0		167	134.0	/experiments/Knapen_AOT/AOT_stimuli/pictures/2040_fw.png	214.94218468666077	1.3955767154693604
136	154.37699723243713	response	0	k		134.0	/experiments/Knapen_AOT/AOT_stimuli/pictures/2040_fw.png	216.32571649551392	
137	154.38904213905334	picture	0		114	135.0	/experiments/Knapen_AOT/AOT_stimuli/pictures/0391_fw.png	216.33776140213013	0.9515271186828613
137	155.32706236839294	response	0	j		135.0	/experiments/Knapen_AOT/AOT_stimuli/pictures/0391_fw.png	217.27578163146973	
138	155.3405692577362	picture	0		94	136.0	/experiments/Knapen_AOT/AOT_stimuli/pictures/1216_fw.png	217.289288520813	0.7916622161865234
138	156.11875796318054	response	0	j		136.0	/experiments/Knapen_AOT/AOT_stimuli/pictures/1216_fw.png	218.06747722625732	
139	156.13223147392273	picture	0		208	137.0	/experiments/Knapen_AOT/AOT_stimuli/pictures/0945_fw.png	218.0809507369995	1.7363762855529785
139	157.86038732528687	response	0	k		137.0	/experiments/Knapen_AOT/AOT_stimuli/pictures/0945_fw.png	219.80910658836365	
140	157.8686077594757	picture	0		126	138.0	/experiments/Knapen_AOT/AOT_stimuli/pictures/1429_fw.png	219.8173270225525	1.0552754402160645
140	158.91038012504578	response	0	k		138.0	/experiments/Knapen_AOT/AOT_stimuli/pictures/1429_fw.png	220.85909938812256	
141	158.92388319969177	picture	0		103	139.0	/experiments/Knapen_AOT/AOT_stimuli/pictures/1023_fw.png	220.87260246276855	0.8613040447235107
141	159.7770767211914	response	0	k		139.0	/experiments/Knapen_AOT/AOT_stimuli/pictures/1023_fw.png	221.7257959842682	
142	159.78518724441528	picture	0		129	140.0	/experiments/Knapen_AOT/AOT_stimuli/pictures/2143_fw.png	221.73390650749207	1.083359956741333
142	160.85210871696472	response	0	j		140.0	/experiments/Knapen_AOT/AOT_stimuli/pictures/2143_fw.png	222.8008279800415	
143	160.86854720115662	picture	0		276	141.0	/experiments/Knapen_AOT/AOT_stimuli/pictures/0928_fw.png	222.8172664642334	2.3052945137023926
143	163.16041946411133	response	0	j		141.0	/experiments/Knapen_AOT/AOT_stimuli/pictures/0928_fw.png	225.1091387271881	
144	163.173841714859	picture	0		92	142.0	/experiments/Knapen_AOT/AOT_stimuli/pictures/0675_fw.png	225.1225609779358	0.7780895233154297
144	163.93551063537598	response	0	j		142.0	/experiments/Knapen_AOT/AOT_stimuli/pictures/0675_fw.png	225.88422989845276	
145	163.95193123817444	picture	0		88	143.0	/experiments/Knapen_AOT/AOT_stimuli/pictures/0954_fw.png	225.90065050125122	0.7358474731445312
145	164.67718148231506	response	0	j		143.0	/experiments/Knapen_AOT/AOT_stimuli/pictures/0954_fw.png	226.62590074539185	
146	164.68777871131897	picture	0		93	144.0	/experiments/Knapen_AOT/AOT_stimuli/pictures/1154_fw.png	226.63649797439575	0.7778370380401611
146	165.452139377594	response	0	j		144.0	/experiments/Knapen_AOT/AOT_stimuli/pictures/1154_fw.png	227.40085864067078	
147	165.46561574935913	picture	0		381	145.0	/experiments/Knapen_AOT/AOT_stimuli/pictures/0862_fw.png	227.4143350124359	3.186434268951416
147	168.6357536315918	response	0	j		145.0	/experiments/Knapen_AOT/AOT_stimuli/pictures/0862_fw.png	230.58447289466858	
148	168.65205001831055	picture	0		139	146.0	/experiments/Knapen_AOT/AOT_stimuli/pictures/0004_fw.png	230.60076928138733	1.1666133403778076
148	169.8022038936615	response	0	k		146.0	/experiments/Knapen_AOT/AOT_stimuli/pictures/0004_fw.png	231.75092315673828	
149	169.81866335868835	picture	0		113	147.0	/experiments/Knapen_AOT/AOT_stimuli/pictures/0766_fw.png	231.76738262176514	0.9455733299255371
149	170.7522349357605	response	0	k		147.0	/experiments/Knapen_AOT/AOT_stimuli/pictures/0766_fw.png	232.70095419883728	
150	170.7642366886139	picture	0		102	148.0	/experiments/Knapen_AOT/AOT_stimuli/pictures/1640_fw.png	232.71295595169067	0.8472328186035156
150	171.60222625732422	response	0	k		148.0	/experiments/Knapen_AOT/AOT_stimuli/pictures/1640_fw.png	233.550945520401	
151	171.6114695072174	picture	0		131	149.0	/experiments/Knapen_AOT/AOT_stimuli/pictures/1226_fw.png	233.5601887702942	1.0906028747558594
151	172.69382882118225	response	0	j		149.0	/experiments/Knapen_AOT/AOT_stimuli/pictures/1226_fw.png	234.64254808425903	
152	172.70207238197327	picture	0		98	150.0	/experiments/Knapen_AOT/AOT_stimuli/pictures/0199_fw.png	234.65079164505005	0.8191437721252441
152	173.51056671142578	response	0	k		150.0	/experiments/Knapen_AOT/AOT_stimuli/pictures/0199_fw.png	235.45928597450256	
153	173.5212161540985	picture	0		124	151.0	/experiments/Knapen_AOT/AOT_stimuli/pictures/0618_fw.png	235.4699354171753	1.0392096042633057
153	174.5439019203186	response	0	j		151.0	/experiments/Knapen_AOT/AOT_stimuli/pictures/0618_fw.png	236.49262118339539	
154	174.56042575836182	picture	0		110	152.0	/experiments/Knapen_AOT/AOT_stimuli/pictures/0035_fw.png	236.5091450214386	0.9191720485687256
154	175.46890997886658	response	0	k		152.0	/experiments/Knapen_AOT/AOT_stimuli/pictures/0035_fw.png	237.41762924194336	
155	175.47959780693054	picture	0		110	153.0	/experiments/Knapen_AOT/AOT_stimuli/pictures/1525_fw.png	237.42831707000732	0.9224998950958252
155	176.38575720787048	response	0	k		153.0	/experiments/Knapen_AOT/AOT_stimuli/pictures/1525_fw.png	238.33447647094727	
156	176.40209770202637	picture	0		86	154.0	/experiments/Knapen_AOT/AOT_stimuli/pictures/1689_fw.png	238.35081696510315	0.7250020503997803
156	177.11055374145508	response	0	k		154.0	/experiments/Knapen_AOT/AOT_stimuli/pictures/1689_fw.png	239.05927300453186	
157	177.12709975242615	picture	0		144	155.0	/experiments/Knapen_AOT/AOT_stimuli/pictures/1967_fw.png	239.07581901550293	1.199988603591919
157	178.31892156600952	response	0	k		155.0	/experiments/Knapen_AOT/AOT_stimuli/pictures/1967_fw.png	240.2676408290863	
158	178.32708835601807	picture	0		110	156.0	/experiments/Knapen_AOT/AOT_stimuli/pictures/2175_fw.png	240.27580761909485	0.9250564575195312
158	179.23581719398499	response	0	k		156.0	/experiments/Knapen_AOT/AOT_stimuli/pictures/2175_fw.png	241.18453645706177	
159	179.2521448135376	picture	0		144	157.0	/experiments/Knapen_AOT/AOT_stimuli/pictures/0111_fw.png	241.20086407661438	1.2083380222320557
159	180.44424891471863	response	0	k		157.0	/experiments/Knapen_AOT/AOT_stimuli/pictures/0111_fw.png	242.3929681777954	
160	180.46048283576965	picture	0		127	158.0	/experiments/Knapen_AOT/AOT_stimuli/pictures/2142_fw.png	242.40920209884644	1.0667140483856201
160	181.51066708564758	response	0	j		158.0	/experiments/Knapen_AOT/AOT_stimuli/pictures/2142_fw.png	243.45938634872437	
161	181.52719688415527	picture	0		86	159.0	/experiments/Knapen_AOT/AOT_stimuli/pictures/1651_fw.png	243.47591614723206	0.7250092029571533
161	182.23574471473694	response	0	k		159.0	/experiments/Knapen_AOT/AOT_stimuli/pictures/1651_fw.png	244.18446397781372	
162	182.25220608711243	picture	0		132	160.0	/experiments/Knapen_AOT/AOT_stimuli/pictures/0061_fw.png	244.2009253501892	1.1024131774902344
162	183.34401941299438	response	0	k		160.0	/experiments/Knapen_AOT/AOT_stimuli/pictures/0061_fw.png	245.29273867607117	
163	183.35461926460266	picture	0		106	161.0	/experiments/Knapen_AOT/AOT_stimuli/pictures/0865_fw.png	245.30333852767944	0.8819410800933838
163	184.21990752220154	response	0	j		161.0	/experiments/Knapen_AOT/AOT_stimuli/pictures/0865_fw.png	246.16862678527832	
164	184.23656034469604	picture	0		139	162.0	/experiments/Knapen_AOT/AOT_stimuli/pictures/1197_fw.png	246.18527960777283	1.1656441688537598
164	185.38569378852844	response	0	k		162.0	/experiments/Knapen_AOT/AOT_stimuli/pictures/1197_fw.png	247.33441305160522	
165	185.4022045135498	picture	0		145	163.0	/experiments/Knapen_AOT/AOT_stimuli/pictures/1031_fw.png	247.3509237766266	1.2093865871429443
165	186.60237765312195	response	0	j		163.0	/experiments/Knapen_AOT/AOT_stimuli/pictures/1031_fw.png	248.55109691619873	
166	186.61159110069275	picture	0		164	164.0	/experiments/Knapen_AOT/AOT_stimuli/pictures/1123_fw.png	248.56031036376953	1.374023675918579
166	187.96903467178345	response	0	k		164.0	/experiments/Knapen_AOT/AOT_stimuli/pictures/1123_fw.png	249.91775393486023	
167	187.98561477661133	picture	0		119	165.0	/experiments/Knapen_AOT/AOT_stimuli/pictures/1743_fw.png	249.9343340396881	0.9940376281738281
167	188.96909427642822	response	0	k		165.0	/experiments/Knapen_AOT/AOT_stimuli/pictures/1743_fw.png	250.917813539505	
168	188.97965240478516	picture	0		156	166.0	/experiments/Knapen_AOT/AOT_stimuli/pictures/2018_fw.png	250.92837166786194	1.2986433506011963
168	190.26910066604614	response	0	k		166.0	/experiments/Knapen_AOT/AOT_stimuli/pictures/2018_fw.png	252.21781992912292	
169	190.27829575538635	picture	0		92	167.0	/experiments/Knapen_AOT/AOT_stimuli/pictures/2178_fw.png	252.22701501846313	0.7740559577941895
169	191.03586554527283	response	0	j		167.0	/experiments/Knapen_AOT/AOT_stimuli/pictures/2178_fw.png	252.9845848083496	
170	191.05235171318054	picture	0		96	168.0	/experiments/Knapen_AOT/AOT_stimuli/pictures/0135_fw.png	253.00107097625732	0.8023571968078613
170	191.84410953521729	response	0	k		168.0	/experiments/Knapen_AOT/AOT_stimuli/pictures/0135_fw.png	253.79282879829407	
171	191.8547089099884	picture	0		102	169.0	/experiments/Knapen_AOT/AOT_stimuli/pictures/0336_fw.png	253.80342817306519	0.8475518226623535
171	192.69414162635803	response	0	k		169.0	/experiments/Knapen_AOT/AOT_stimuli/pictures/0336_fw.png	254.64286088943481	
172	192.70226073265076	picture	0		105	170.0	/experiments/Knapen_AOT/AOT_stimuli/pictures/1550_fw.png	254.65097999572754	0.8833906650543213
172	193.57010126113892	response	0	k		170.0	/experiments/Knapen_AOT/AOT_stimuli/pictures/1550_fw.png	255.5188205242157	
173	193.58565139770508	picture	0		97	171.0	/experiments/Knapen_AOT/AOT_stimuli/pictures/1207_fw.png	255.53437066078186	0.8166630268096924
173	194.38582921028137	response	0	k		171.0	/experiments/Knapen_AOT/AOT_stimuli/pictures/1207_fw.png	256.33454847335815	
174	194.40231442451477	picture	0		257	172.0	/experiments/Knapen_AOT/AOT_stimuli/pictures/1342_fw.png	256.35103368759155	2.1500256061553955
174	196.53593945503235	response	0	k		172.0	/experiments/Knapen_AOT/AOT_stimuli/pictures/1342_fw.png	258.48465871810913	
175	196.55234003067017	picture	0		106	173.0	/experiments/Knapen_AOT/AOT_stimuli/pictures/0428_fw.png	258.50105929374695	0.8917176723480225
175	197.42804288864136	response	0	k		173.0	/experiments/Knapen_AOT/AOT_stimuli/pictures/0428_fw.png	259.37676215171814	
176	197.4440577030182	picture	0		94	174.0	/experiments/Knapen_AOT/AOT_stimuli/pictures/1384_fw.png	259.39277696609497	0.7916350364685059
176	198.2191789150238	response	0	k		174.0	/experiments/Knapen_AOT/AOT_stimuli/pictures/1384_fw.png	260.1678981781006	
177	198.2356927394867	picture	0		184	175.0	/experiments/Knapen_AOT/AOT_stimuli/pictures/0155_fw.png	260.1844120025635	1.54170823097229
177	199.76084876060486	response	0	j		175.0	/experiments/Knapen_AOT/AOT_stimuli/pictures/0155_fw.png	261.70956802368164	
178	199.77740097045898	picture	0		125	176.0	/experiments/Knapen_AOT/AOT_stimuli/pictures/1175_fw.png	261.72612023353577	1.042619228363037
178	200.8108410835266	response	0	k		176.0	/experiments/Knapen_AOT/AOT_stimuli/pictures/1175_fw.png	262.7595603466034	
179	200.82002019882202	picture	0		101	177.0	/experiments/Knapen_AOT/AOT_stimuli/pictures/0031_fw.png	262.7687394618988	0.8472292423248291
179	201.6525764465332	response	0	k		177.0	/experiments/Knapen_AOT/AOT_stimuli/pictures/0031_fw.png	263.60129570961	
180	201.66724944114685	picture	0		77	178.0	/experiments/Knapen_AOT/AOT_stimuli/pictures/0936_fw.png	263.61596870422363	0.6518323421478271
180	202.30271530151367	response	0	j		178.0	/experiments/Knapen_AOT/AOT_stimuli/pictures/0936_fw.png	264.25143456459045	
181	202.31908178329468	picture	0		276	179.0	/experiments/Knapen_AOT/AOT_stimuli/pictures/0119_fw.png	264.26780104637146	2.308377265930176
181	204.61094093322754	response	0	k		179.0	/experiments/Knapen_AOT/AOT_stimuli/pictures/0119_fw.png	266.5596601963043	
182	204.62745904922485	picture	0		84	180.0	/experiments/Knapen_AOT/AOT_stimuli/pictures/1951_fw.png	266.57617831230164	0.7083220481872559
182	205.31924748420715	response	0	k		180.0	/experiments/Knapen_AOT/AOT_stimuli/pictures/1951_fw.png	267.26796674728394	
183	205.3357810974121	picture	0		91	181.0	/experiments/Knapen_AOT/AOT_stimuli/pictures/1960_fw.png	267.2845003604889	0.7667224407196045
183	206.08594870567322	response	0	k		181.0	/experiments/Knapen_AOT/AOT_stimuli/pictures/1960_fw.png	268.03466796875	
184	206.1025035381317	picture	0		117	182.0	/experiments/Knapen_AOT/AOT_stimuli/pictures/1051_fw.png	268.0512228012085	0.983299970626831
184	207.0693793296814	response	0	k		182.0	/experiments/Knapen_AOT/AOT_stimuli/pictures/1051_fw.png	269.0180985927582	
185	207.08580350875854	picture	0		108	183.0	/experiments/Knapen_AOT/AOT_stimuli/pictures/0723_fw.png	269.0345227718353	0.9083647727966309
185	207.97766876220703	response	0	j		183.0	/experiments/Knapen_AOT/AOT_stimuli/pictures/0723_fw.png	269.9263880252838	
186	207.99416828155518	picture	0		115	184.0	/experiments/Knapen_AOT/AOT_stimuli/pictures/1280_fw.png	269.94288754463196	0.9666521549224854
186	208.94428253173828	response	0	j		184.0	/experiments/Knapen_AOT/AOT_stimuli/pictures/1280_fw.png	270.89300179481506	
187	208.96082043647766	picture	0		112	185.0	/experiments/Knapen_AOT/AOT_stimuli/pictures/0288_fw.png	270.90953969955444	0.9416911602020264
187	209.88605570793152	response	0	j		185.0	/experiments/Knapen_AOT/AOT_stimuli/pictures/0288_fw.png	271.8347749710083	
188	209.9025115966797	picture	0		182	186.0	/experiments/Knapen_AOT/AOT_stimuli/pictures/1763_fw.png	271.85123085975647	1.5250146389007568
188	211.41119384765625	response	0	j		186.0	/experiments/Knapen_AOT/AOT_stimuli/pictures/1763_fw.png	273.35991311073303	
189	211.42752623558044	picture	0		145	187.0	/experiments/Knapen_AOT/AOT_stimuli/pictures/1251_fw.png	273.3762454986572	1.212069034576416
189	212.62768459320068	response	0	k		187.0	/experiments/Knapen_AOT/AOT_stimuli/pictures/1251_fw.png	274.57640385627747	
190	212.63959527015686	picture	0		98	188.0	/experiments/Knapen_AOT/AOT_stimuli/pictures/0647_fw.png	274.58831453323364	0.8212854862213135
190	213.44437527656555	response	0	k		188.0	/experiments/Knapen_AOT/AOT_stimuli/pictures/0647_fw.png	275.39309453964233	
191	213.46088075637817	picture	0		109	189.0	/experiments/Knapen_AOT/AOT_stimuli/pictures/0441_fw.png	275.40960001945496	0.9084148406982422
191	214.36101865768433	response	0	k		189.0	/experiments/Knapen_AOT/AOT_stimuli/pictures/0441_fw.png	276.3097379207611	
192	214.36929559707642	picture	0		124	190.0	/experiments/Knapen_AOT/AOT_stimuli/pictures/0782_fw.png	276.3180148601532	1.0415995121002197
192	215.39445805549622	response	0	j		190.0	/experiments/Knapen_AOT/AOT_stimuli/pictures/0782_fw.png	277.343177318573	
193	215.41089510917664	picture	0		110	191.0	/experiments/Knapen_AOT/AOT_stimuli/pictures/0604_fw.png	277.3596143722534	0.916651725769043
193	216.31939435005188	response	0	k		191.0	/experiments/Knapen_AOT/AOT_stimuli/pictures/0604_fw.png	278.26811361312866	
194	216.32754683494568	picture	0		131	192.0	/experiments/Knapen_AOT/AOT_stimuli/pictures/2088_fw.png	278.27626609802246	1.0967507362365723
194	217.4038712978363	response	0	k		192.0	/experiments/Knapen_AOT/AOT_stimuli/pictures/2088_fw.png	279.3525905609131	
195	217.42429757118225	picture	0		87	193.0	/experiments/Knapen_AOT/AOT_stimuli/pictures/2157_fw.png	279.37301683425903	0.7291803359985352
195	218.14441776275635	response	0	k		193.0	/experiments/Knapen_AOT/AOT_stimuli/pictures/2157_fw.png	280.09313702583313	
196	218.1534779071808	picture	0		113	194.0	/experiments/Knapen_AOT/AOT_stimuli/pictures/1526_fw.png	280.10219717025757	0.94447922706604
196	219.0861005783081	response	0	j		194.0	/experiments/Knapen_AOT/AOT_stimuli/pictures/1526_fw.png	281.0348198413849	
197	219.09795713424683	picture	0		134	195.0	/experiments/Knapen_AOT/AOT_stimuli/pictures/2135_fw.png	281.0466763973236	1.1213405132293701
197	220.2027370929718	response	0	j		195.0	/experiments/Knapen_AOT/AOT_stimuli/pictures/2135_fw.png	282.1514563560486	
198	220.2192976474762	picture	0		93	196.0	/experiments/Knapen_AOT/AOT_stimuli/pictures/2136_fw.png	282.168016910553	0.783369779586792
198	220.98000621795654	response	0	j		196.0	/experiments/Knapen_AOT/AOT_stimuli/pictures/2136_fw.png	282.9287254810333	
199	221.002667427063	picture	0		90	197.0	/experiments/Knapen_AOT/AOT_stimuli/pictures/2007_fw.png	282.95138669013977	0.7550206184387207
199	221.7444441318512	response	0	k		197.0	/experiments/Knapen_AOT/AOT_stimuli/pictures/2007_fw.png	283.693163394928	
200	221.7576880455017	picture	0		105	198.0	/experiments/Knapen_AOT/AOT_stimuli/pictures/0242_fw.png	283.7064073085785	0.8819923400878906
200	222.62782406806946	response	0	k		198.0	/experiments/Knapen_AOT/AOT_stimuli/pictures/0242_fw.png	284.57654333114624	
201	222.6396803855896	picture	0		143	199.0	/experiments/Knapen_AOT/AOT_stimuli/pictures/0619_fw.png	284.5883996486664	1.18796968460083
201	223.81216073036194	response	0	k		199.0	/experiments/Knapen_AOT/AOT_stimuli/pictures/0619_fw.png	285.7608799934387	
202	223.82765007019043	picture	0		115	200.0	/experiments/Knapen_AOT/AOT_stimuli/pictures/1973_fw.png	285.7763693332672	0.9647667407989502
202	224.777841091156	response	0	k		200.0	/experiments/Knapen_AOT/AOT_stimuli/pictures/1973_fw.png	286.7265603542328	
203	224.79241681098938	picture	0		102	201.0	/experiments/Knapen_AOT/AOT_stimuli/pictures/1903_fw.png	286.74113607406616	0.8602712154388428
203	225.6363229751587	response	0	k		201.0	/experiments/Knapen_AOT/AOT_stimuli/pictures/1903_fw.png	287.5850422382355	
204	225.65268802642822	picture	0		119	202.0	/experiments/Knapen_AOT/AOT_stimuli/pictures/0303_fw.png	287.601407289505	0.9939098358154297
204	226.6362326145172	response	0	k		202.0	/experiments/Knapen_AOT/AOT_stimuli/pictures/0303_fw.png	288.584951877594	
205	226.64659786224365	picture	0		101	203.0	/experiments/Knapen_AOT/AOT_stimuli/pictures/1337_fw.png	288.59531712532043	0.8402988910675049
205	227.47788214683533	response	0	k		203.0	/experiments/Knapen_AOT/AOT_stimuli/pictures/1337_fw.png	289.4266014099121	
206	227.48689675331116	picture	0		88	204.0	/experiments/Knapen_AOT/AOT_stimuli/pictures/0687_fw.png	289.43561601638794	0.7408366203308105
206	228.20411229133606	response	0	k		204.0	/experiments/Knapen_AOT/AOT_stimuli/pictures/0687_fw.png	290.15283155441284	
207	228.22773337364197	picture	0		101	205.0	/experiments/Knapen_AOT/AOT_stimuli/pictures/2003_fw.png	290.17645263671875	0.8424961566925049
207	229.06122016906738	response	0	j		205.0	/experiments/Knapen_AOT/AOT_stimuli/pictures/2003_fw.png	291.00993943214417	
208	229.07022953033447	picture	0		162	206.0	/experiments/Knapen_AOT/AOT_stimuli/pictures/1797_fw.png	291.01894879341125	1.3575279712677002
208	230.41125416755676	response	0	k		206.0	/experiments/Knapen_AOT/AOT_stimuli/pictures/1797_fw.png	292.35997343063354	
209	230.42775750160217	picture	0		97	207.0	/experiments/Knapen_AOT/AOT_stimuli/pictures/0946_fw.png	292.37647676467896	0.8092243671417236
209	231.22790694236755	response	0	j		207.0	/experiments/Knapen_AOT/AOT_stimuli/pictures/0946_fw.png	293.17662620544434	
210	231.2369818687439	picture	0		116	208.0	/experiments/Knapen_AOT/AOT_stimuli/pictures/0972_fw.png	293.1857011318207	0.9741482734680176
210	232.19465041160583	response	0	j		208.0	/experiments/Knapen_AOT/AOT_stimuli/pictures/0972_fw.png	294.1433696746826	
211	232.2111301422119	picture	0		150	209.0	/experiments/Knapen_AOT/AOT_stimuli/pictures/2019_fw.png	294.1598494052887	1.2583246231079102
211	233.45293474197388	response	0	k		209.0	/experiments/Knapen_AOT/AOT_stimuli/pictures/2019_fw.png	295.40165400505066	
212	233.46945476531982	picture	0		80	210.0	/experiments/Knapen_AOT/AOT_stimuli/pictures/0246_fw.png	295.4181740283966	0.6750354766845703
212	234.12806177139282	response	0	k		210.0	/experiments/Knapen_AOT/AOT_stimuli/pictures/0246_fw.png	296.0767810344696	
213	234.1444902420044	picture	0		110	211.0	/experiments/Knapen_AOT/AOT_stimuli/pictures/1312_fw.png	296.0932095050812	0.9249930381774902
213	235.05313777923584	response	0	k		211.0	/experiments/Knapen_AOT/AOT_stimuli/pictures/1312_fw.png	297.0018570423126	
214	235.06948328018188	picture	0		110	212.0	/experiments/Knapen_AOT/AOT_stimuli/pictures/0037_fw.png	297.01820254325867	0.9250192642211914
214	235.97795629501343	response	0	k		212.0	/experiments/Knapen_AOT/AOT_stimuli/pictures/0037_fw.png	297.9266755580902	
215	235.99450254440308	picture	0		100	213.0	/experiments/Knapen_AOT/AOT_stimuli/pictures/1953_fw.png	297.94322180747986	0.839679479598999
215	236.81993198394775	response	0	j		213.0	/experiments/Knapen_AOT/AOT_stimuli/pictures/1953_fw.png	298.76865124702454	
216	236.83418202400208	picture	0		103	214.0	/experiments/Knapen_AOT/AOT_stimuli/pictures/0770_fw.png	298.78290128707886	0.8610658645629883
216	237.68632531166077	response	0	k		214.0	/experiments/Knapen_AOT/AOT_stimuli/pictures/0770_fw.png	299.63504457473755	
217	237.69524788856506	picture	0		240	215.0	/experiments/Knapen_AOT/AOT_stimuli/pictures/1856_fw.png	299.64396715164185	1.9999399185180664
217	239.6863465309143	response	0	k		215.0	/experiments/Knapen_AOT/AOT_stimuli/pictures/1856_fw.png	301.6350657939911	
218	239.69518780708313	picture	0		142	216.0	/experiments/Knapen_AOT/AOT_stimuli/pictures/0446_fw.png	301.6439070701599	1.1876215934753418
218	240.8696973323822	response	0	j		216.0	/experiments/Knapen_AOT/AOT_stimuli/pictures/0446_fw.png	302.818416595459	
219	240.88280940055847	picture	0		148	217.0	/experiments/Knapen_AOT/AOT_stimuli/pictures/1069_fw.png	302.83152866363525	1.2451162338256836
219	242.11138772964478	response	0	k		217.0	/experiments/Knapen_AOT/AOT_stimuli/pictures/1069_fw.png	304.06010699272156	
220	242.12792563438416	picture	0		95	218.0	/experiments/Knapen_AOT/AOT_stimuli/pictures/1659_fw.png	304.07664489746094	0.7965540885925293
220	242.91139388084412	response	0	k		218.0	/experiments/Knapen_AOT/AOT_stimuli/pictures/1659_fw.png	304.8601131439209	
221	242.92447972297668	picture	0		94	219.0	/experiments/Knapen_AOT/AOT_stimuli/pictures/1830_fw.png	304.87319898605347	0.7951629161834717
221	243.70307040214539	response	0	k		219.0	/experiments/Knapen_AOT/AOT_stimuli/pictures/1830_fw.png	305.65178966522217	
222	243.71964263916016	picture	0		99	220.0	/experiments/Knapen_AOT/AOT_stimuli/pictures/0578_fw.png	305.66836190223694	0.8333027362823486
222	244.53639268875122	response	0	k		220.0	/experiments/Knapen_AOT/AOT_stimuli/pictures/0578_fw.png	306.485111951828	
223	244.5529453754425	picture	0		237	221.0	/experiments/Knapen_AOT/AOT_stimuli/pictures/0128_fw.png	306.5016646385193	1.9756226539611816
223	246.51976490020752	response	0	k		221.0	/experiments/Knapen_AOT/AOT_stimuli/pictures/0128_fw.png	308.4684841632843	
224	246.5285680294037	picture	0		142	222.0	/experiments/Knapen_AOT/AOT_stimuli/pictures/0866_fw.png	308.47728729248047	1.1911118030548096
224	247.70307326316833	response	0	j		222.0	/experiments/Knapen_AOT/AOT_stimuli/pictures/0866_fw.png	309.6517925262451	
225	247.7196798324585	picture	0		107	223.0	/experiments/Knapen_AOT/AOT_stimuli/pictures/1437_fw.png	309.6683990955353	0.8999598026275635
225	248.59652066230774	response	0	k		223.0	/experiments/Knapen_AOT/AOT_stimuli/pictures/1437_fw.png	310.5452399253845	
226	248.61963963508606	picture	0		127	224.0	/experiments/Knapen_AOT/AOT_stimuli/pictures/2038_fw.png	310.56835889816284	1.0666756629943848
226	249.6698043346405	response	0	j		224.0	/experiments/Knapen_AOT/AOT_stimuli/pictures/2038_fw.png	311.6185235977173	
227	249.68631529808044	picture	0		88	225.0	/experiments/Knapen_AOT/AOT_stimuli/pictures/1293_fw.png	311.6350345611572	0.7416982650756836
227	250.40399026870728	response	0	j		225.0	/experiments/Knapen_AOT/AOT_stimuli/pictures/1293_fw.png	312.35270953178406	
228	250.42801356315613	picture	0		217	226.0	/experiments/Knapen_AOT/AOT_stimuli/pictures/0042_fw.png	312.3767328262329	1.816777229309082
228	252.22829914093018	response	0	k		226.0	/experiments/Knapen_AOT/AOT_stimuli/pictures/0042_fw.png	314.17701840400696	
229	252.2447907924652	picture	0		90	227.0	/experiments/Knapen_AOT/AOT_stimuli/pictures/1870_fw.png	314.193510055542	0.7582457065582275
229	252.98662734031677	response	0	k		227.0	/experiments/Knapen_AOT/AOT_stimuli/pictures/1870_fw.png	314.93534660339355	
230	253.00303649902344	picture	0		87	228.0	/experiments/Knapen_AOT/AOT_stimuli/pictures/2124_fw.png	314.9517557621002	0.7333545684814453
230	253.72004389762878	response	0	k		228.0	/experiments/Knapen_AOT/AOT_stimuli/pictures/2124_fw.png	315.66876316070557	
231	253.73639106750488	picture	0		99	229.0	/experiments/Knapen_AOT/AOT_stimuli/pictures/1021_fw.png	315.68511033058167	0.8333714008331299
231	254.55326080322266	response	0	j		229.0	/experiments/Knapen_AOT/AOT_stimuli/pictures/1021_fw.png	316.50198006629944	
232	254.569762468338	picture	0		104	230.0	/experiments/Knapen_AOT/AOT_stimuli/pictures/1789_fw.png	316.5184817314148	0.8749778270721436
232	255.42829871177673	response	0	k		230.0	/experiments/Knapen_AOT/AOT_stimuli/pictures/1789_fw.png	317.3770179748535	
233	255.44474029541016	picture	0		102	231.0	/experiments/Knapen_AOT/AOT_stimuli/pictures/1974_fw.png	317.39345955848694	0.8548212051391602
233	256.2865083217621	response	0	j		231.0	/experiments/Knapen_AOT/AOT_stimuli/pictures/1974_fw.png	318.23522758483887	
234	256.2995615005493	picture	0		100	232.0	/experiments/Knapen_AOT/AOT_stimuli/pictures/1630_fw.png	318.2482807636261	0.84523606300354
234	257.1282756328583	response	0	j		232.0	/experiments/Knapen_AOT/AOT_stimuli/pictures/1630_fw.png	319.07699489593506	
235	257.14479756355286	picture	0		244	233.0	/experiments/Knapen_AOT/AOT_stimuli/pictures/0627_fw.png	319.09351682662964	2.036639928817749
235	259.1699023246765	response	0	k		233.0	/experiments/Knapen_AOT/AOT_stimuli/pictures/0627_fw.png	321.1186215877533	
236	259.1814374923706	picture	0		97	234.0	/experiments/Knapen_AOT/AOT_stimuli/pictures/0250_fw.png	321.1301567554474	0.8133487701416016
236	259.9782602787018	response	0	k		234.0	/experiments/Knapen_AOT/AOT_stimuli/pictures/0250_fw.png	321.92697954177856	
237	259.9947862625122	picture	0		123	235.0	/experiments/Knapen_AOT/AOT_stimuli/pictures/0722_fw.png	321.943505525589	1.0333454608917236
237	261.00513648986816	response	0	k		235.0	/experiments/Knapen_AOT/AOT_stimuli/pictures/0722_fw.png	322.95385575294495	
238	261.02813172340393	picture	0		90	236.0	/experiments/Knapen_AOT/AOT_stimuli/pictures/0620_fw.png	322.9768509864807	0.7506158351898193
238	261.76997995376587	response	0	k		236.0	/experiments/Knapen_AOT/AOT_stimuli/pictures/0620_fw.png	323.71869921684265	
239	261.77874755859375	picture	0		118	237.0	/experiments/Knapen_AOT/AOT_stimuli/pictures/1553_fw.png	323.72746682167053	0.9861257076263428
239	262.7533094882965	response	0	k		237.0	/experiments/Knapen_AOT/AOT_stimuli/pictures/1553_fw.png	324.7020287513733	
240	262.7648732662201	picture	0		100	238.0	/experiments/Knapen_AOT/AOT_stimuli/pictures/1347_fw.png	324.7135925292969	0.8382894992828369
240	263.5866892337799	response	0	j		238.0	/experiments/Knapen_AOT/AOT_stimuli/pictures/1347_fw.png	325.5354084968567	
241	263.60316276550293	picture	0		91	239.0	/experiments/Knapen_AOT/AOT_stimuli/pictures/0376_fw.png	325.5518820285797	0.7666714191436768
241	264.35328936576843	response	0	k		239.0	/experiments/Knapen_AOT/AOT_stimuli/pictures/0376_fw.png	326.3020086288452	
242	264.3698341846466	picture	0		260	240.0	/experiments/Knapen_AOT/AOT_stimuli/pictures/0278_fw.png	326.3185534477234	2.172800302505493
242	266.52833366394043	response	0	k		240.0	/experiments/Knapen_AOT/AOT_stimuli/pictures/0278_fw.png	328.4770529270172	
243	266.5426344871521	picture	0		87	241.0	/experiments/Knapen_AOT/AOT_stimuli/pictures/1361_fw.png	328.4913537502289	0.735602855682373
243	267.2617905139923	response	0	k		241.0	/experiments/Knapen_AOT/AOT_stimuli/pictures/1361_fw.png	329.2105097770691	
244	267.2782373428345	picture	0		112	242.0	/experiments/Knapen_AOT/AOT_stimuli/pictures/1258_fw.png	329.22695660591125	0.9416553974151611
244	268.2033648490906	response	0	k		242.0	/experiments/Knapen_AOT/AOT_stimuli/pictures/1258_fw.png	330.15208411216736	
245	268.21989274024963	picture	0		101	243.0	/experiments/Knapen_AOT/AOT_stimuli/pictures/1164_fw.png	330.1686120033264	0.850001335144043
245	269.05356764793396	response	0	k		243.0	/experiments/Knapen_AOT/AOT_stimuli/pictures/1164_fw.png	331.00228691101074	
246	269.0698940753937	picture	0		100	244.0	/experiments/Knapen_AOT/AOT_stimuli/pictures/0668_fw.png	331.01861333847046	0.8416621685028076
246	269.89499831199646	response	0	j		244.0	/experiments/Knapen_AOT/AOT_stimuli/pictures/0668_fw.png	331.84371757507324	
247	269.9115562438965	picture	0		88	245.0	/experiments/Knapen_AOT/AOT_stimuli/pictures/0275_fw.png	331.86027550697327	0.7353167533874512
247	270.63704776763916	response	0	j		245.0	/experiments/Knapen_AOT/AOT_stimuli/pictures/0275_fw.png	332.58576703071594	
248	270.64687299728394	picture	0		123	246.0	/experiments/Knapen_AOT/AOT_stimuli/pictures/0292_fw.png	332.5955922603607	1.0313966274261475
248	271.6617479324341	response	0	k		246.0	/experiments/Knapen_AOT/AOT_stimuli/pictures/0292_fw.png	333.61046719551086	
249	271.6782696247101	picture	0		85	247.0	/experiments/Knapen_AOT/AOT_stimuli/pictures/1511_fw.png	333.62698888778687	0.7117419242858887
249	272.3784327507019	response	0	k		247.0	/experiments/Knapen_AOT/AOT_stimuli/pictures/1511_fw.png	334.3271520137787	
250	272.390011548996	picture	0		105	248.0	/experiments/Knapen_AOT/AOT_stimuli/pictures/0974_fw.png	334.33873081207275	0.8749568462371826
250	273.2534108161926	response	0	k		248.0	/experiments/Knapen_AOT/AOT_stimuli/pictures/0974_fw.png	335.2021300792694	
251	273.26496839523315	picture	0		97	249.0	/experiments/Knapen_AOT/AOT_stimuli/pictures/1805_fw.png	335.21368765830994	0.8133213520050049
251	274.061870098114	response	0	j		249.0	/experiments/Knapen_AOT/AOT_stimuli/pictures/1805_fw.png	336.0105893611908	
252	274.07828974723816	picture	0		86	250.0	/experiments/Knapen_AOT/AOT_stimuli/pictures/0121_fw.png	336.02700901031494	0.7250375747680664
252	274.78691148757935	response	0	j		250.0	/experiments/Knapen_AOT/AOT_stimuli/pictures/0121_fw.png	336.7356307506561	
253	274.8033273220062	picture	0		118	251.0	/experiments/Knapen_AOT/AOT_stimuli/pictures/0616_fw.png	336.752046585083	0.9894862174987793
253	275.7784948348999	response	0	k		251.0	/experiments/Knapen_AOT/AOT_stimuli/pictures/0616_fw.png	337.7272140979767	
254	275.792813539505	picture	0		104	252.0	/experiments/Knapen_AOT/AOT_stimuli/pictures/1971_fw.png	337.7415328025818	0.8749687671661377
254	276.6535120010376	response	0	k		252.0	/experiments/Knapen_AOT/AOT_stimuli/pictures/1971_fw.png	338.6022312641144	
255	276.66778230667114	picture	0		97	253.0	/experiments/Knapen_AOT/AOT_stimuli/pictures/0101_fw.png	338.6165015697479	0.8124949932098389
255	277.47012424468994	response	0	k		253.0	/experiments/Knapen_AOT/AOT_stimuli/pictures/0101_fw.png	339.4188435077667	
256	277.480277299881	picture	0		103	254.0	/experiments/Knapen_AOT/AOT_stimuli/pictures/1904_fw.png	339.42899656295776	0.8611164093017578
256	278.32844638824463	response	0	j		254.0	/experiments/Knapen_AOT/AOT_stimuli/pictures/1904_fw.png	340.2771656513214	
257	278.34139370918274	picture	0		169	255.0	/experiments/Knapen_AOT/AOT_stimuli/pictures/1988_fw.png	340.2901129722595	1.4203240871429443
257	279.74531173706055	response	0	k		255.0	/experiments/Knapen_AOT/AOT_stimuli/pictures/1988_fw.png	341.69403100013733	
258	279.7617177963257	picture	0		150	256.0	/experiments/Knapen_AOT/AOT_stimuli/pictures/0847_fw.png	341.71043705940247	1.2533044815063477
258	280.99701285362244	response	0	k		256.0	/experiments/Knapen_AOT/AOT_stimuli/pictures/0847_fw.png	342.9457321166992	
259	281.01502227783203	picture	0		148	257.0	/experiments/Knapen_AOT/AOT_stimuli/pictures/0889_fw.png	342.9637415409088	1.2383673191070557
259	282.2368597984314	response	0	k		257.0	/experiments/Knapen_AOT/AOT_stimuli/pictures/0889_fw.png	344.1855790615082	
260	282.2533895969391	picture	0		124	258.0	/experiments/Knapen_AOT/AOT_stimuli/pictures/0807_fw.png	344.20210886001587	1.0416836738586426
260	283.2785499095917	response	0	k		258.0	/experiments/Knapen_AOT/AOT_stimuli/pictures/0807_fw.png	345.22726917266846	
261	283.29507327079773	picture	0		98	259.0	/experiments/Knapen_AOT/AOT_stimuli/pictures/1776_fw.png	345.2437925338745	0.8249940872192383
261	284.10353684425354	response	0	k		259.0	/experiments/Knapen_AOT/AOT_stimuli/pictures/1776_fw.png	346.0522561073303	
262	284.12006735801697	picture	0		159	260.0	/experiments/Knapen_AOT/AOT_stimuli/pictures/0059_fw.png	346.06878662109375	1.3333823680877686
262	285.4369194507599	response	0	k		260.0	/experiments/Knapen_AOT/AOT_stimuli/pictures/0059_fw.png	347.38563871383667	
263	285.45344972610474	picture	0		112	261.0	/experiments/Knapen_AOT/AOT_stimuli/pictures/0809_fw.png	347.4021689891815	0.9417219161987305
263	286.3785812854767	response	0	k		261.0	/experiments/Knapen_AOT/AOT_stimuli/pictures/0809_fw.png	348.32730054855347	
264	286.39517164230347	picture	0		96	262.0	/experiments/Knapen_AOT/AOT_stimuli/pictures/2045_fw.png	348.34389090538025	0.8004252910614014
264	287.1800181865692	response	0	k		262.0	/experiments/Knapen_AOT/AOT_stimuli/pictures/2045_fw.png	349.128737449646	
265	287.19559693336487	picture	0		178	263.0	/experiments/Knapen_AOT/AOT_stimuli/pictures/1101_fw.png	349.14431619644165	1.4912199974060059
265	288.67037868499756	response	0	k		263.0	/experiments/Knapen_AOT/AOT_stimuli/pictures/1101_fw.png	350.61909794807434	
266	288.6868169307709	picture	0		135	264.0	/experiments/Knapen_AOT/AOT_stimuli/pictures/1751_fw.png	350.63553619384766	1.1333436965942383
266	289.79635524749756	response	0	k		264.0	/experiments/Knapen_AOT/AOT_stimuli/pictures/1751_fw.png	351.74507451057434	
267	289.8201606273651	picture	0		131	265.0	/experiments/Knapen_AOT/AOT_stimuli/pictures/1472_fw.png	351.7688798904419	1.0977203845977783
267	290.9036543369293	response	0	k		265.0	/experiments/Knapen_AOT/AOT_stimuli/pictures/1472_fw.png	352.8523736000061	
268	290.9178810119629	picture	0		123	266.0	/experiments/Knapen_AOT/AOT_stimuli/pictures/0580_fw.png	352.8666002750397	1.0277481079101562
268	291.9370126724243	response	0	k		266.0	/experiments/Knapen_AOT/AOT_stimuli/pictures/0580_fw.png	353.8857319355011	
269	291.94562911987305	picture	0		187	267.0	/experiments/Knapen_AOT/AOT_stimuli/pictures/1440_fw.png	353.89434838294983	1.5662508010864258
269	293.4955196380615	response	0	k		267.0	/experiments/Knapen_AOT/AOT_stimuli/pictures/1440_fw.png	355.4442389011383	
270	293.5118799209595	picture	0		90	268.0	/experiments/Knapen_AOT/AOT_stimuli/pictures/1211_fw.png	355.46059918403625	0.7532312870025635
270	294.2537398338318	response	0	k		268.0	/experiments/Knapen_AOT/AOT_stimuli/pictures/1211_fw.png	356.20245909690857	
271	294.26511120796204	picture	0		97	269.0	/experiments/Knapen_AOT/AOT_stimuli/pictures/0661_fw.png	356.2138304710388	0.8055484294891357
271	295.06203293800354	response	0	k		269.0	/experiments/Knapen_AOT/AOT_stimuli/pictures/0661_fw.png	357.0107522010803	
272	295.0706596374512	picture	0		182	270.0	/experiments/Knapen_AOT/AOT_stimuli/pictures/1379_fw.png	357.01937890052795	1.5245864391326904
272	296.578941822052	response	0	k		270.0	/experiments/Knapen_AOT/AOT_stimuli/pictures/1379_fw.png	358.5276610851288	
273	296.59524607658386	picture	0		104	271.0	/experiments/Knapen_AOT/AOT_stimuli/pictures/0198_fw.png	358.54396533966064	0.8750491142272949
273	297.4537398815155	response	0	k		271.0	/experiments/Knapen_AOT/AOT_stimuli/pictures/0198_fw.png	359.4024591445923	
274	297.47029519081116	picture	0		386	272.0	/experiments/Knapen_AOT/AOT_stimuli/pictures/1352_fw.png	359.41901445388794	3.218384265899658
274	300.67872881889343	response	0	j		272.0	/experiments/Knapen_AOT/AOT_stimuli/pictures/1352_fw.png	362.6274480819702	
275	300.6886794567108	picture	0		141	273.0	/experiments/Knapen_AOT/AOT_stimuli/pictures/1709_fw.png	362.6373987197876	1.1736960411071777
275	301.85380959510803	response	0	k		273.0	/experiments/Knapen_AOT/AOT_stimuli/pictures/1709_fw.png	363.8025288581848	
276	301.862375497818	picture	0		234	274.0	/experiments/Knapen_AOT/AOT_stimuli/pictures/0680_fw.png	363.8110947608948	1.9579663276672363
276	303.8042941093445	response	0	k		274.0	/experiments/Knapen_AOT/AOT_stimuli/pictures/0680_fw.png	365.75301337242126	
277	303.82034182548523	picture	0		99	275.0	/experiments/Knapen_AOT/AOT_stimuli/pictures/0623_fw.png	365.769061088562	0.8333947658538818
277	304.6372277736664	response	0	k		275.0	/experiments/Knapen_AOT/AOT_stimuli/pictures/0623_fw.png	366.58594703674316	
278	304.6537365913391	picture	0		92	276.0	/experiments/Knapen_AOT/AOT_stimuli/pictures/0017_fw.png	366.6024558544159	0.7749574184417725
278	305.41232323646545	response	0	k		276.0	/experiments/Knapen_AOT/AOT_stimuli/pictures/0017_fw.png	367.36104249954224	
279	305.4286940097809	picture	0		97	277.0	/experiments/Knapen_AOT/AOT_stimuli/pictures/1446_fw.png	367.37741327285767	0.808725118637085
279	306.2288854122162	response	0	j		277.0	/experiments/Knapen_AOT/AOT_stimuli/pictures/1446_fw.png	368.17760467529297	
280	306.23741912841797	picture	0		116	278.0	/experiments/Knapen_AOT/AOT_stimuli/pictures/1738_fw.png	368.18613839149475	0.9722316265106201
280	307.1881151199341	response	0	j		278.0	/experiments/Knapen_AOT/AOT_stimuli/pictures/1738_fw.png	369.13683438301086	
281	307.2096507549286	picture	0		141	279.0	/experiments/Knapen_AOT/AOT_stimuli/pictures/1173_fw.png	369.15837001800537	1.185727596282959
281	308.378865480423	response	0	j		279.0	/experiments/Knapen_AOT/AOT_stimuli/pictures/1173_fw.png	370.32758474349976	
282	308.39537835121155	picture	0		109	280.0	/experiments/Knapen_AOT/AOT_stimuli/pictures/0282_fw.png	370.34409761428833	0.9116055965423584
282	309.29553866386414	response	0	j		280.0	/experiments/Knapen_AOT/AOT_stimuli/pictures/0282_fw.png	371.2442579269409	
283	309.3069839477539	picture	0		96	281.0	/experiments/Knapen_AOT/AOT_stimuli/pictures/0369_fw.png	371.2557032108307	0.8054873943328857
283	310.09564757347107	response	0	j		281.0	/experiments/Knapen_AOT/AOT_stimuli/pictures/0369_fw.png	372.04436683654785	
284	310.1124713420868	picture	0		91	282.0	/experiments/Knapen_AOT/AOT_stimuli/pictures/0879_fw.png	372.0611906051636	0.7638828754425049
284	310.86224603652954	response	0	j		282.0	/experiments/Knapen_AOT/AOT_stimuli/pictures/0879_fw.png	372.8109652996063	
285	310.8763542175293	picture	0		106	283.0	/experiments/Knapen_AOT/AOT_stimuli/pictures/0090_fw.png	372.8250734806061	0.894052267074585
285	311.75390100479126	response	0	j		283.0	/experiments/Knapen_AOT/AOT_stimuli/pictures/0090_fw.png	373.70262026786804	
286	311.7704064846039	picture	0		194	284.0	/experiments/Knapen_AOT/AOT_stimuli/pictures/0635_fw.png	373.71912574768066	1.6250431537628174
286	313.37892174720764	response	0	j		284.0	/experiments/Knapen_AOT/AOT_stimuli/pictures/0635_fw.png	375.3276410102844	
287	313.3954496383667	picture	0		159	285.0	/experiments/Knapen_AOT/AOT_stimuli/pictures/1089_fw.png	375.3441689014435	1.3281989097595215
287	314.7123136520386	response	0	k		285.0	/experiments/Knapen_AOT/AOT_stimuli/pictures/1089_fw.png	376.66103291511536	
288	314.7236485481262	picture	0		103	286.0	/experiments/Knapen_AOT/AOT_stimuli/pictures/0118_fw.png	376.672367811203	0.8610806465148926
288	315.5707392692566	response	0	k		286.0	/experiments/Knapen_AOT/AOT_stimuli/pictures/0118_fw.png	377.5194585323334	
289	315.5847291946411	picture	0		107	287.0	/experiments/Knapen_AOT/AOT_stimuli/pictures/1172_fw.png	377.5334484577179	0.9024617671966553
289	316.4706485271454	response	0	k		287.0	/experiments/Knapen_AOT/AOT_stimuli/pictures/1172_fw.png	378.41936779022217	
290	316.48719096183777	picture	0		102	288.0	/experiments/Knapen_AOT/AOT_stimuli/pictures/1985_fw.png	378.43591022491455	0.858339786529541
290	317.32893419265747	response	0	j		288.0	/experiments/Knapen_AOT/AOT_stimuli/pictures/1985_fw.png	379.27765345573425	
291	317.3455307483673	picture	0		117	289.0	/experiments/Knapen_AOT/AOT_stimuli/pictures/0526_fw.png	379.2942500114441	0.9832839965820312
291	318.3122684955597	response	0	j		289.0	/experiments/Knapen_AOT/AOT_stimuli/pictures/0526_fw.png	380.2609877586365	
292	318.32881474494934	picture	0		148	290.0	/experiments/Knapen_AOT/AOT_stimuli/pictures/2153_fw.png	380.2775340080261	1.2350866794586182
292	319.55408215522766	response	0	j		290.0	/experiments/Knapen_AOT/AOT_stimuli/pictures/2153_fw.png	381.50280141830444	
293	319.56390142440796	picture	0		119	291.0	/experiments/Knapen_AOT/AOT_stimuli/pictures/2023_fw.png	381.51262068748474	0.9983103275299072
293	320.54567408561707	response	0	k		291.0	/experiments/Knapen_AOT/AOT_stimuli/pictures/2023_fw.png	382.49439334869385	
294	320.56221175193787	picture	0		104	292.0	/experiments/Knapen_AOT/AOT_stimuli/pictures/2166_fw.png	382.51093101501465	0.8698666095733643
294	321.42069911956787	response	0	k		292.0	/experiments/Knapen_AOT/AOT_stimuli/pictures/2166_fw.png	383.36941838264465	
295	321.43207836151123	picture	0		99	293.0	/experiments/Knapen_AOT/AOT_stimuli/pictures/0348_fw.png	383.380797624588	0.826305627822876
295	322.2457013130188	response	0	k		293.0	/experiments/Knapen_AOT/AOT_stimuli/pictures/0348_fw.png	384.1944205760956	
296	322.2583839893341	picture	0		155	294.0	/experiments/Knapen_AOT/AOT_stimuli/pictures/1771_fw.png	384.2071032524109	1.3038578033447266
296	323.5457355976105	response	0	k		294.0	/experiments/Knapen_AOT/AOT_stimuli/pictures/1771_fw.png	385.49445486068726	
297	323.56224179267883	picture	0		86	295.0	/experiments/Knapen_AOT/AOT_stimuli/pictures/1652_fw.png	385.5109610557556	0.7249758243560791
297	324.270715713501	response	0	k		295.0	/experiments/Knapen_AOT/AOT_stimuli/pictures/1652_fw.png	386.21943497657776	
298	324.2872176170349	picture	0		161	296.0	/experiments/Knapen_AOT/AOT_stimuli/pictures/0166_fw.png	386.2359368801117	1.3460981845855713
298	325.6207113265991	response	0	k		296.0	/experiments/Knapen_AOT/AOT_stimuli/pictures/0166_fw.png	387.5694305896759	
299	325.6333158016205	picture	0		108	297.0	/experiments/Knapen_AOT/AOT_stimuli/pictures/0358_fw.png	387.58203506469727	0.9097898006439209
299	326.5290946960449	response	0	k		297.0	/experiments/Knapen_AOT/AOT_stimuli/pictures/0358_fw.png	388.4778139591217	
300	326.5431056022644	picture	0		150	298.0	/experiments/Knapen_AOT/AOT_stimuli/pictures/0734_fw.png	388.4918248653412	1.2608606815338135
300	327.7873854637146	response	0	j		298.0	/experiments/Knapen_AOT/AOT_stimuli/pictures/0734_fw.png	389.7361047267914	
301	327.8039662837982	picture	0		109	299.0	/experiments/Knapen_AOT/AOT_stimuli/pictures/1265_fw.png	389.752685546875	0.9166831970214844
301	328.7041246891022	response	0	j		299.0	/experiments/Knapen_AOT/AOT_stimuli/pictures/1265_fw.png	390.65284395217896	
302	328.7206494808197	picture	0		113	300.0	/experiments/Knapen_AOT/AOT_stimuli/pictures/0721_fw.png	390.6693687438965	0.950040340423584
302	329.65412616729736	response	0	k		300.0	/experiments/Knapen_AOT/AOT_stimuli/pictures/0721_fw.png	391.60284543037415	
303	329.6706898212433	picture	0		178	301.0	/experiments/Knapen_AOT/AOT_stimuli/pictures/1497_fw.png	391.61940908432007	1.491640329360962
303	331.14580035209656	response	0	k		301.0	/experiments/Knapen_AOT/AOT_stimuli/pictures/1497_fw.png	393.09451961517334	
304	331.16233015060425	picture	0		111	302.0	/experiments/Knapen_AOT/AOT_stimuli/pictures/1719_fw.png	393.11104941368103	0.933344841003418
304	332.079137802124	response	0	j		302.0	/experiments/Knapen_AOT/AOT_stimuli/pictures/1719_fw.png	394.0278570652008	
305	332.09567499160767	picture	0		139	303.0	/experiments/Knapen_AOT/AOT_stimuli/pictures/0079_fw.png	394.04439425468445	1.1667208671569824
305	333.24580001831055	response	0	j		303.0	/experiments/Knapen_AOT/AOT_stimuli/pictures/0079_fw.png	395.19451928138733	
306	333.26239585876465	picture	0		99	304.0	/experiments/Knapen_AOT/AOT_stimuli/pictures/0779_fw.png	395.21111512184143	0.8333330154418945
306	334.07912397384644	response	0	k		304.0	/experiments/Knapen_AOT/AOT_stimuli/pictures/0779_fw.png	396.0278432369232	
307	334.09572887420654	picture	0		163	305.0	/experiments/Knapen_AOT/AOT_stimuli/pictures/0763_fw.png	396.0444481372833	1.3666508197784424
307	335.44607305526733	response	0	k		305.0	/experiments/Knapen_AOT/AOT_stimuli/pictures/0763_fw.png	397.3947923183441	
308	335.462379693985	picture	0		102	306.0	/experiments/Knapen_AOT/AOT_stimuli/pictures/1625_fw.png	397.41109895706177	0.8586432933807373
308	336.3042347431183	response	0	k		306.0	/experiments/Knapen_AOT/AOT_stimuli/pictures/1625_fw.png	398.25295400619507	
309	336.3210229873657	picture	0		157	307.0	/experiments/Knapen_AOT/AOT_stimuli/pictures/1966_fw.png	398.2697422504425	1.316411018371582
309	337.6208941936493	response	0	j		307.0	/experiments/Knapen_AOT/AOT_stimuli/pictures/1966_fw.png	399.5696134567261	
310	337.6374340057373	picture	0		227	308.0	/experiments/Knapen_AOT/AOT_stimuli/pictures/1026_fw.png	399.5861532688141	1.8999950885772705
310	339.5210347175598	response	0	k		308.0	/experiments/Knapen_AOT/AOT_stimuli/pictures/1026_fw.png	401.4697539806366	
311	339.5374290943146	picture	0		91	309.0	/experiments/Knapen_AOT/AOT_stimuli/pictures/1050_fw.png	401.48614835739136	0.7666885852813721
311	340.28753638267517	response	0	k		309.0	/experiments/Knapen_AOT/AOT_stimuli/pictures/1050_fw.png	402.23625564575195	
312	340.30411767959595	picture	0		96	310.0	/experiments/Knapen_AOT/AOT_stimuli/pictures/0498_fw.png	402.25283694267273	0.8083264827728271
312	341.0961172580719	response	0	k		310.0	/experiments/Knapen_AOT/AOT_stimuli/pictures/0498_fw.png	403.0448365211487	
313	341.1124441623688	picture	0		98	311.0	/experiments/Knapen_AOT/AOT_stimuli/pictures/2020_fw.png	403.06116342544556	0.8250088691711426
313	341.92095851898193	response	0	k		311.0	/experiments/Knapen_AOT/AOT_stimuli/pictures/2020_fw.png	403.8696777820587	
314	341.9374530315399	picture	0		136	312.0	/experiments/Knapen_AOT/AOT_stimuli/pictures/0736_fw.png	403.8861722946167	1.1416692733764648
314	343.0627176761627	response	0	k		312.0	/experiments/Knapen_AOT/AOT_stimuli/pictures/0736_fw.png	405.0114369392395	
315	343.0791223049164	picture	0		135	313.0	/experiments/Knapen_AOT/AOT_stimuli/pictures/0930_fw.png	405.02784156799316	1.133378028869629
315	344.19645166397095	response	0	k		313.0	/experiments/Knapen_AOT/AOT_stimuli/pictures/0930_fw.png	406.14517092704773	
316	344.212500333786	picture	0		242	314.0	/experiments/Knapen_AOT/AOT_stimuli/pictures/2171_fw.png	406.1612195968628	2.0250470638275146
316	346.22123670578003	response	0	k		314.0	/experiments/Knapen_AOT/AOT_stimuli/pictures/2171_fw.png	408.1699559688568	
317	346.2375473976135	picture	0		108	315.0	/experiments/Knapen_AOT/AOT_stimuli/pictures/1078_fw.png	408.1862666606903	0.9030137062072754
317	347.1293959617615	response	0	k		315.0	/experiments/Knapen_AOT/AOT_stimuli/pictures/1078_fw.png	409.07811522483826	
318	347.1405611038208	picture	0		122	316.0	/experiments/Knapen_AOT/AOT_stimuli/pictures/0994_fw.png	409.0892803668976	1.0219671726226807
318	348.14601588249207	response	0	k		316.0	/experiments/Knapen_AOT/AOT_stimuli/pictures/0994_fw.png	410.09473514556885	
319	348.1625282764435	picture	0		132	317.0	/experiments/Knapen_AOT/AOT_stimuli/pictures/0430_fw.png	410.11124753952026	1.1029751300811768
319	349.25435161590576	response	0	j		317.0	/experiments/Knapen_AOT/AOT_stimuli/pictures/0430_fw.png	411.20307087898254	
320	349.26550340652466	picture	0		102	318.0	/experiments/Knapen_AOT/AOT_stimuli/pictures/2051_fw.png	411.21422266960144	0.8553798198699951
320	350.10434198379517	response	0	j		318.0	/experiments/Knapen_AOT/AOT_stimuli/pictures/2051_fw.png	412.05306124687195	
321	350.12088322639465	picture	0		142	319.0	/experiments/Knapen_AOT/AOT_stimuli/pictures/2097_fw.png	412.06960248947144	1.1916685104370117
321	351.29604959487915	response	0	j		319.0	/experiments/Knapen_AOT/AOT_stimuli/pictures/2097_fw.png	413.24476885795593	
322	351.31255173683167	picture	0		87	320.0	/experiments/Knapen_AOT/AOT_stimuli/pictures/0276_fw.png	413.26127099990845	0.7308194637298584
322	352.0294165611267	response	0	j		320.0	/experiments/Knapen_AOT/AOT_stimuli/pictures/0276_fw.png	413.9781358242035	
323	352.0433712005615	picture	0		80	321.0	/experiments/Knapen_AOT/AOT_stimuli/pictures/0083_fw.png	413.9920904636383	0.6735367774963379
323	352.704372882843	response	0	j		321.0	/experiments/Knapen_AOT/AOT_stimuli/pictures/0083_fw.png	414.6530921459198	
324	352.71690797805786	picture	0		173	322.0	/experiments/Knapen_AOT/AOT_stimuli/pictures/2025_fw.png	414.66562724113464	1.4540393352508545
324	354.1544282436371	response	0	k		322.0	/experiments/Knapen_AOT/AOT_stimuli/pictures/2025_fw.png	416.10314750671387	
325	354.1709473133087	picture	0		91	323.0	/experiments/Knapen_AOT/AOT_stimuli/pictures/1035_fw.png	416.1196665763855	0.7666912078857422
325	354.9210638999939	response	0	j		323.0	/experiments/Knapen_AOT/AOT_stimuli/pictures/1035_fw.png	416.8697831630707	
326	354.93763852119446	picture	0		113	324.0	/experiments/Knapen_AOT/AOT_stimuli/pictures/1547_fw.png	416.88635778427124	0.9500346183776855
326	355.8710730075836	response	0	k		324.0	/experiments/Knapen_AOT/AOT_stimuli/pictures/1547_fw.png	417.8197922706604	
327	355.88767313957214	picture	0		95	325.0	/experiments/Knapen_AOT/AOT_stimuli/pictures/1228_fw.png	417.8363924026489	0.7999529838562012
327	356.6711583137512	response	0	j		325.0	/experiments/Knapen_AOT/AOT_stimuli/pictures/1228_fw.png	418.619877576828	
328	356.68762612342834	picture	0		156	326.0	/experiments/Knapen_AOT/AOT_stimuli/pictures/1992_fw.png	418.6363453865051	1.308366298675537
328	357.9724292755127	response	0	j		326.0	/experiments/Knapen_AOT/AOT_stimuli/pictures/1992_fw.png	419.9211485385895	
329	357.9959924221039	picture	0		97	327.0	/experiments/Knapen_AOT/AOT_stimuli/pictures/1631_fw.png	419.94471168518066	0.8166904449462891
329	358.79626083374023	response	0	k		327.0	/experiments/Knapen_AOT/AOT_stimuli/pictures/1631_fw.png	420.744980096817	
330	358.81268286705017	picture	0		106	328.0	/experiments/Knapen_AOT/AOT_stimuli/pictures/0047_fw.png	420.76140213012695	0.8916575908660889
330	359.68778228759766	response	0	k		328.0	/experiments/Knapen_AOT/AOT_stimuli/pictures/0047_fw.png	421.63650155067444	
331	359.70434045791626	picture	0		106	329.0	/experiments/Knapen_AOT/AOT_stimuli/pictures/1303_fw.png	421.65305972099304	0.8876729011535645
331	360.5721595287323	response	0	k		329.0	/experiments/Knapen_AOT/AOT_stimuli/pictures/1303_fw.png	422.5208787918091	
332	360.5920133590698	picture	0		98	330.0	/experiments/Knapen_AOT/AOT_stimuli/pictures/1149_fw.png	422.5407326221466	0.8206846714019775
332	361.39639830589294	response	0	j		330.0	/experiments/Knapen_AOT/AOT_stimuli/pictures/1149_fw.png	423.3451175689697	
333	361.4126980304718	picture	0		117	331.0	/experiments/Knapen_AOT/AOT_stimuli/pictures/1977_fw.png	423.3614172935486	0.9833629131317139
333	362.3795368671417	response	0	k		331.0	/experiments/Knapen_AOT/AOT_stimuli/pictures/1977_fw.png	424.3282561302185	
334	362.3960609436035	picture	0		92	332.0	/experiments/Knapen_AOT/AOT_stimuli/pictures/0465_fw.png	424.3447802066803	0.7750093936920166
334	363.1547689437866	response	0	j		332.0	/experiments/Knapen_AOT/AOT_stimuli/pictures/0465_fw.png	425.1034882068634	
335	363.17107033729553	picture	0		103	333.0	/experiments/Knapen_AOT/AOT_stimuli/pictures/2103_fw.png	425.1197896003723	0.8666932582855225
335	364.0212826728821	response	0	k		333.0	/experiments/Knapen_AOT/AOT_stimuli/pictures/2103_fw.png	425.97000193595886	
336	364.03776359558105	picture	0		98	334.0	/experiments/Knapen_AOT/AOT_stimuli/pictures/1287_fw.png	425.98648285865784	0.8250994682312012
336	364.8463885784149	response	0	k		334.0	/experiments/Knapen_AOT/AOT_stimuli/pictures/1287_fw.png	426.7951078414917	
337	364.86286306381226	picture	0		115	335.0	/experiments/Knapen_AOT/AOT_stimuli/pictures/0955_fw.png	426.81158232688904	0.9665346145629883
337	365.81284642219543	response	0	k		335.0	/experiments/Knapen_AOT/AOT_stimuli/pictures/0955_fw.png	427.7615656852722	
338	365.82939767837524	picture	0		247	336.0	/experiments/Knapen_AOT/AOT_stimuli/pictures/2017_fw.png	427.778116941452	2.061124086380005
338	367.879549741745	response	0	k		336.0	/experiments/Knapen_AOT/AOT_stimuli/pictures/2017_fw.png	429.8282690048218	
339	367.89052176475525	picture	0		104	337.0	/experiments/Knapen_AOT/AOT_stimuli/pictures/0854_fw.png	429.83924102783203	0.8723549842834473
339	368.74628829956055	response	0	k		337.0	/experiments/Knapen_AOT/AOT_stimuli/pictures/0854_fw.png	430.69500756263733	
340	368.7628767490387	picture	0		112	338.0	/experiments/Knapen_AOT/AOT_stimuli/pictures/0409_fw.png	430.7115960121155	0.9415900707244873
340	369.6879096031189	response	0	k		338.0	/experiments/Knapen_AOT/AOT_stimuli/pictures/0409_fw.png	431.6366288661957	
341	369.7044668197632	picture	0		167	339.0	/experiments/Knapen_AOT/AOT_stimuli/pictures/2139_fw.png	431.65318608283997	1.4000506401062012
341	371.0879375934601	response	0	j		339.0	/experiments/Knapen_AOT/AOT_stimuli/pictures/2139_fw.png	433.03665685653687	
342	371.1045174598694	picture	0		92	340.0	/experiments/Knapen_AOT/AOT_stimuli/pictures/1451_fw.png	433.05323672294617	0.7722406387329102
342	371.86307740211487	response	0	k		340.0	/experiments/Knapen_AOT/AOT_stimuli/pictures/1451_fw.png	433.81179666519165	
343	371.8767580986023	picture	0		88	341.0	/experiments/Knapen_AOT/AOT_stimuli/pictures/1609_fw.png	433.8254773616791	0.7444143295288086
343	372.6048288345337	response	0	k		341.0	/experiments/Knapen_AOT/AOT_stimuli/pictures/1609_fw.png	434.5535480976105	
344	372.6211724281311	picture	0		99	342.0	/experiments/Knapen_AOT/AOT_stimuli/pictures/2147_fw.png	434.5698916912079	0.833338737487793
344	373.4381618499756	response	0	k		342.0	/experiments/Knapen_AOT/AOT_stimuli/pictures/2147_fw.png	435.38688111305237	
345	373.4545111656189	picture	0		104	343.0	/experiments/Knapen_AOT/AOT_stimuli/pictures/0140_fw.png	435.4032304286957	0.8750185966491699
345	374.3129861354828	response	0	j		343.0	/experiments/Knapen_AOT/AOT_stimuli/pictures/0140_fw.png	436.26170539855957	
346	374.32952976226807	picture	0		103	344.0	/experiments/Knapen_AOT/AOT_stimuli/pictures/0010_fw.png	436.27824902534485	0.8667407035827637
346	375.17247438430786	response	0	k		344.0	/experiments/Knapen_AOT/AOT_stimuli/pictures/0010_fw.png	437.12119364738464	
347	375.19627046585083	picture	0		104	345.0	/experiments/Knapen_AOT/AOT_stimuli/pictures/1489_fw.png	437.1449897289276	0.8680450916290283
347	376.0546684265137	response	0	j		345.0	/experiments/Knapen_AOT/AOT_stimuli/pictures/1489_fw.png	438.00338768959045	
348	376.06431555747986	picture	0		109	346.0	/experiments/Knapen_AOT/AOT_stimuli/pictures/0456_fw.png	438.01303482055664	0.9152882099151611
348	376.9630539417267	response	0	k		346.0	/experiments/Knapen_AOT/AOT_stimuli/pictures/0456_fw.png	438.91177320480347	
349	376.979603767395	picture	0		93	347.0	/experiments/Knapen_AOT/AOT_stimuli/pictures/1861_fw.png	438.9283230304718	0.7832918167114258
349	377.74663376808167	response	0	j		347.0	/experiments/Knapen_AOT/AOT_stimuli/pictures/1861_fw.png	439.69535303115845	
350	377.76289558410645	picture	0		117	348.0	/experiments/Knapen_AOT/AOT_stimuli/pictures/1019_fw.png	439.7116148471832	0.983407735824585
350	378.7297058105469	response	0	k		348.0	/experiments/Knapen_AOT/AOT_stimuli/pictures/1019_fw.png	440.67842507362366	
351	378.74630331993103	picture	0		151	349.0	/experiments/Knapen_AOT/AOT_stimuli/pictures/1094_fw.png	440.6950225830078	1.2624683380126953
351	379.99639654159546	response	0	k		349.0	/experiments/Knapen_AOT/AOT_stimuli/pictures/1094_fw.png	441.94511580467224	
352	380.0087716579437	picture	0		99	350.0	/experiments/Knapen_AOT/AOT_stimuli/pictures/1583_fw.png	441.9574909210205	0.8291909694671631
352	380.82147431373596	response	0	k		350.0	/experiments/Knapen_AOT/AOT_stimuli/pictures/1583_fw.png	442.77019357681274	
353	380.8379626274109	picture	0		324	351.0	/experiments/Knapen_AOT/AOT_stimuli/pictures/1231_fw.png	442.78668189048767	2.708341121673584
353	383.5300278663635	response	0	k		351.0	/experiments/Knapen_AOT/AOT_stimuli/pictures/1231_fw.png	445.4787471294403	
354	383.5463037490845	picture	0		348	352.0	/experiments/Knapen_AOT/AOT_stimuli/pictures/1339_fw.png	445.49502301216125	2.900007486343384
354	386.43815755844116	response	0	k		352.0	/experiments/Knapen_AOT/AOT_stimuli/pictures/1339_fw.png	448.38687682151794	
355	386.44631123542786	picture	0		89	353.0	/experiments/Knapen_AOT/AOT_stimuli/pictures/0063_fw.png	448.39503049850464	0.7502295970916748
355	387.18030405044556	response	0	k		353.0	/experiments/Knapen_AOT/AOT_stimuli/pictures/0063_fw.png	449.12902331352234	
356	387.19654083251953	picture	0		84	354.0	/experiments/Knapen_AOT/AOT_stimuli/pictures/0689_fw.png	449.1452600955963	0.7082562446594238
356	387.8882677555084	response	0	k		354.0	/experiments/Knapen_AOT/AOT_stimuli/pictures/0689_fw.png	449.8369870185852	
357	387.90479707717896	picture	0		102	355.0	/experiments/Knapen_AOT/AOT_stimuli/pictures/1932_fw.png	449.85351634025574	0.8582992553710938
357	388.74655079841614	response	0	k		355.0	/experiments/Knapen_AOT/AOT_stimuli/pictures/1932_fw.png	450.6952700614929	
358	388.76309633255005	picture	0		112	356.0	/experiments/Knapen_AOT/AOT_stimuli/pictures/1936_fw.png	450.71181559562683	0.9416141510009766
358	389.68815422058105	response	0	k		356.0	/experiments/Knapen_AOT/AOT_stimuli/pictures/1936_fw.png	451.63687348365784	
359	389.704710483551	picture	0		105	357.0	/experiments/Knapen_AOT/AOT_stimuli/pictures/0918_fw.png	451.6534297466278	0.883354663848877
359	390.5644030570984	response	0	k		357.0	/experiments/Knapen_AOT/AOT_stimuli/pictures/0918_fw.png	452.51312232017517	
360	390.5880651473999	picture	0		108	358.0	/experiments/Knapen_AOT/AOT_stimuli/pictures/1524_fw.png	452.5367844104767	0.9083254337310791
360	391.4798400402069	response	0	j		358.0	/experiments/Knapen_AOT/AOT_stimuli/pictures/1524_fw.png	453.4285593032837	
361	391.496390581131	picture	0		103	359.0	/experiments/Knapen_AOT/AOT_stimuli/pictures/1403_fw.png	453.44510984420776	0.8667166233062744
361	392.3465452194214	response	0	k		359.0	/experiments/Knapen_AOT/AOT_stimuli/pictures/1403_fw.png	454.29526448249817	
362	392.36310720443726	stim	0		723			454.31182646751404	6.044497966766357
362	398.3878321647644	response	0	space				460.3365514278412	
