trial_nr	onset	event_type	phase	response	nr_frames	picture_index	picture_file	onset_abs	duration
0	0.17352581024169922	stim	0		323			266.6483452320099	2.708350419998169
0	2.865302801132202	response	0	space				269.3401222229004	
2	2.881876230239868	picture	0		194	0.0	/experiments/Knapen_AOT/AOT_stimuli/pictures/1095_fw.png	269.35669565200806	1.64573335647583
2	4.488279342651367	response	0	k		0.0	/experiments/Knapen_AOT/AOT_stimuli/pictures/1095_fw.png	270.96309876441956	
3	4.527609586715698	picture	0		127	1.0	/experiments/Knapen_AOT/AOT_stimuli/pictures/0419_fw.png	271.0024290084839	1.0625941753387451
3	5.581556558609009	response	0	k		1.0	/experiments/Knapen_AOT/AOT_stimuli/pictures/0419_fw.png	272.0563759803772	
4	5.590203762054443	picture	0		273	2.0	/experiments/Knapen_AOT/AOT_stimuli/pictures/0630_fw.png	272.06502318382263	2.282827377319336
4	7.856557130813599	response	0	k		2.0	/experiments/Knapen_AOT/AOT_stimuli/pictures/0630_fw.png	274.3313765525818	
5	7.873031139373779	picture	0		120	3.0	/experiments/Knapen_AOT/AOT_stimuli/pictures/1701_fw.png	274.34785056114197	1.0019559860229492
5	8.864970445632935	response	0	k		3.0	/experiments/Knapen_AOT/AOT_stimuli/pictures/1701_fw.png	275.3397898674011	
6	8.874987125396729	picture	0		130	4.0	/experiments/Knapen_AOT/AOT_stimuli/pictures/1469_fw.png	275.3498065471649	1.0897243022918701
6	9.948266983032227	response	0	k		4.0	/experiments/Knapen_AOT/AOT_stimuli/pictures/1469_fw.png	276.4230864048004	
7	9.964711427688599	picture	0		112	5.0	/experiments/Knapen_AOT/AOT_stimuli/pictures/0772_fw.png	276.4395308494568	0.9380583763122559
7	10.882530212402344	response	0	k		5.0	/experiments/Knapen_AOT/AOT_stimuli/pictures/0772_fw.png	277.35734963417053	
8	10.902769804000854	picture	0		97	6.0	/experiments/Knapen_AOT/AOT_stimuli/pictures/0574_fw.png	277.37758922576904	0.8120412826538086
8	11.698249578475952	response	0	j		6.0	/experiments/Knapen_AOT/AOT_stimuli/pictures/0574_fw.png	278.17306900024414	
9	11.714811086654663	picture	0		119	7.0	/experiments/Knapen_AOT/AOT_stimuli/pictures/1950_fw.png	278.18963050842285	0.9935033321380615
9	12.698255777359009	response	0	k		7.0	/experiments/Knapen_AOT/AOT_stimuli/pictures/1950_fw.png	279.1730751991272	
10	12.708314418792725	picture	0		109	8.0	/experiments/Knapen_AOT/AOT_stimuli/pictures/1067_fw.png	279.1831338405609	0.9097321033477783
10	13.606613397598267	response	0	j		8.0	/experiments/Knapen_AOT/AOT_stimuli/pictures/1067_fw.png	280.08143281936646	
11	13.618046522140503	picture	0		162	9.0	/experiments/Knapen_AOT/AOT_stimuli/pictures/0954_fw.png	280.0928659439087	1.3550543785095215
11	14.956645011901855	response	0	j		9.0	/experiments/Knapen_AOT/AOT_stimuli/pictures/0954_fw.png	281.43146443367004	
12	14.973100900650024	picture	0		90	10.0	/experiments/Knapen_AOT/AOT_stimuli/pictures/0292_fw.png	281.4479203224182	0.7499804496765137
12	15.714983701705933	response	0	j		10.0	/experiments/Knapen_AOT/AOT_stimuli/pictures/0292_fw.png	282.1898031234741	
13	15.723081350326538	picture	0		93	11.0	/experiments/Knapen_AOT/AOT_stimuli/pictures/1832_fw.png	282.1979007720947	0.7834582328796387
13	16.490203380584717	response	0	j		11.0	/experiments/Knapen_AOT/AOT_stimuli/pictures/1832_fw.png	282.9650228023529	
14	16.506539583206177	picture	0		198	12.0	/experiments/Knapen_AOT/AOT_stimuli/pictures/0414_fw.png	282.98135900497437	1.653203010559082
14	18.14830255508423	response	0	k		12.0	/experiments/Knapen_AOT/AOT_stimuli/pictures/0414_fw.png	284.6231219768524	
15	18.15974259376526	picture	0		228	13.0	/experiments/Knapen_AOT/AOT_stimuli/pictures/1959_fw.png	284.63456201553345	1.9050829410552979
15	20.048644065856934	response	0	j		13.0	/experiments/Knapen_AOT/AOT_stimuli/pictures/1959_fw.png	286.5234634876251	
16	20.064825534820557	picture	0		95	14.0	/experiments/Knapen_AOT/AOT_stimuli/pictures/1519_fw.png	286.53964495658875	0.7963244915008545
16	20.848485231399536	response	0	j		14.0	/experiments/Knapen_AOT/AOT_stimuli/pictures/1519_fw.png	287.3233046531677	
17	20.86115002632141	picture	0		110	15.0	/experiments/Knapen_AOT/AOT_stimuli/pictures/1397_fw.png	287.3359694480896	0.9166715145111084
17	21.765023231506348	response	0	k		15.0	/experiments/Knapen_AOT/AOT_stimuli/pictures/1397_fw.png	288.23984265327454	
18	21.77782154083252	picture	0		206	16.0	/experiments/Knapen_AOT/AOT_stimuli/pictures/2044_fw.png	288.2526409626007	1.7222275733947754
18	23.490061044692993	response	0	j		16.0	/experiments/Knapen_AOT/AOT_stimuli/pictures/2044_fw.png	289.9648804664612	
19	23.500049114227295	picture	0		119	17.0	/experiments/Knapen_AOT/AOT_stimuli/pictures/1100_fw.png	289.9748685359955	0.9981310367584229
19	24.482429265975952	response	0	k		17.0	/experiments/Knapen_AOT/AOT_stimuli/pictures/1100_fw.png	290.95724868774414	
20	24.498180150985718	picture	0		97	18.0	/experiments/Knapen_AOT/AOT_stimuli/pictures/0956_fw.png	290.9729995727539	0.816723108291626
20	25.29861545562744	response	0	j		18.0	/experiments/Knapen_AOT/AOT_stimuli/pictures/0956_fw.png	291.77343487739563	
21	25.314903259277344	picture	0		105	19.0	/experiments/Knapen_AOT/AOT_stimuli/pictures/0406_fw.png	291.78972268104553	0.8796417713165283
21	26.181809663772583	response	0	j		19.0	/experiments/Knapen_AOT/AOT_stimuli/pictures/0406_fw.png	292.65662908554077	
22	26.194545030593872	picture	0		123	20.0	/experiments/Knapen_AOT/AOT_stimuli/pictures/1837_fw.png	292.66936445236206	1.0207996368408203
22	27.206815004348755	response	0	k		20.0	/experiments/Knapen_AOT/AOT_stimuli/pictures/1837_fw.png	293.68163442611694	
23	27.215344667434692	picture	0		93	21.0	/experiments/Knapen_AOT/AOT_stimuli/pictures/1465_fw.png	293.6901640892029	0.7777774333953857
23	27.98184561729431	response	0	j		21.0	/experiments/Knapen_AOT/AOT_stimuli/pictures/1465_fw.png	294.4566650390625	
24	27.993122100830078	picture	0		105	22.0	/experiments/Knapen_AOT/AOT_stimuli/pictures/0092_fw.png	294.46794152259827	0.8750097751617432
24	28.856773138046265	response	0	k		22.0	/experiments/Knapen_AOT/AOT_stimuli/pictures/0092_fw.png	295.33159255981445	
25	28.86813187599182	picture	0		226	23.0	/experiments/Knapen_AOT/AOT_stimuli/pictures/1570_fw.png	295.34295129776	1.881967544555664
25	30.74010920524597	response	0	j		23.0	/experiments/Knapen_AOT/AOT_stimuli/pictures/1570_fw.png	297.21492862701416	
26	30.750099420547485	picture	0		220	24.0	/experiments/Knapen_AOT/AOT_stimuli/pictures/1069_fw.png	297.2249188423157	1.8333346843719482
26	32.57347846031189	response	0	k		24.0	/experiments/Knapen_AOT/AOT_stimuli/pictures/1069_fw.png	299.0482978820801	
27	32.583434104919434	picture	0		126	25.0	/experiments/Knapen_AOT/AOT_stimuli/pictures/0063_fw.png	299.0582535266876	1.0485970973968506
27	33.62348532676697	response	0	k		25.0	/experiments/Knapen_AOT/AOT_stimuli/pictures/0063_fw.png	300.09830474853516	
28	33.632031202316284	picture	0		421	26.0	/experiments/Knapen_AOT/AOT_stimuli/pictures/0640_fw.png	300.1068506240845	3.5079636573791504
28	37.13187909126282	response	0	k		26.0	/experiments/Knapen_AOT/AOT_stimuli/pictures/0640_fw.png	303.606698513031	
29	37.139994859695435	picture	0		104	27.0	/experiments/Knapen_AOT/AOT_stimuli/pictures/1346_fw.png	303.6148142814636	0.8670787811279297
29	37.99851179122925	response	0	k		27.0	/experiments/Knapen_AOT/AOT_stimuli/pictures/1346_fw.png	304.47333121299744	
30	38.007073640823364	picture	0		110	28.0	/experiments/Knapen_AOT/AOT_stimuli/pictures/0838_fw.png	304.48189306259155	0.9166514873504639
30	38.915212631225586	response	0	k		28.0	/experiments/Knapen_AOT/AOT_stimuli/pictures/0838_fw.png	305.3900320529938	
31	38.92372512817383	picture	0		110	29.0	/experiments/Knapen_AOT/AOT_stimuli/pictures/1144_fw.png	305.398544549942	0.9166810512542725
31	39.83189606666565	response	0	j		29.0	/experiments/Knapen_AOT/AOT_stimuli/pictures/1144_fw.png	306.30671548843384	
32	39.8404061794281	picture	0		246	30.0	/experiments/Knapen_AOT/AOT_stimuli/pictures/1506_fw.png	306.3152256011963	2.049638271331787
32	41.874348163604736	response	0	k		30.0	/experiments/Knapen_AOT/AOT_stimuli/pictures/1506_fw.png	308.3491675853729	
33	41.89004445075989	picture	0		97	31.0	/experiments/Knapen_AOT/AOT_stimuli/pictures/0701_fw.png	308.3648638725281	0.8115091323852539
33	42.690277338027954	response	0	k		31.0	/experiments/Knapen_AOT/AOT_stimuli/pictures/0701_fw.png	309.16509675979614	
34	42.70155358314514	picture	0		95	32.0	/experiments/Knapen_AOT/AOT_stimuli/pictures/1543_fw.png	309.17637300491333	0.7916758060455322
34	43.48195147514343	response	0	j		32.0	/experiments/Knapen_AOT/AOT_stimuli/pictures/1543_fw.png	309.9567708969116	
35	43.493229389190674	picture	0		103	33.0	/experiments/Knapen_AOT/AOT_stimuli/pictures/0500_fw.png	309.96804881095886	0.8551781177520752
35	44.34025812149048	response	0	k		33.0	/experiments/Knapen_AOT/AOT_stimuli/pictures/0500_fw.png	310.81507754325867	
36	44.34840750694275	picture	0		127	34.0	/experiments/Knapen_AOT/AOT_stimuli/pictures/1216_fw.png	310.82322692871094	1.0615019798278809
36	45.398608446121216	response	0	k		34.0	/experiments/Knapen_AOT/AOT_stimuli/pictures/1216_fw.png	311.8734278678894	
37	45.40990948677063	picture	0		116	35.0	/experiments/Knapen_AOT/AOT_stimuli/pictures/1005_fw.png	311.8847289085388	0.9718985557556152
37	46.3655846118927	response	0	j		35.0	/experiments/Knapen_AOT/AOT_stimuli/pictures/1005_fw.png	312.8404040336609	
38	46.381808042526245	picture	0		118	36.0	/experiments/Knapen_AOT/AOT_stimuli/pictures/0625_fw.png	312.85662746429443	0.9864420890808105
38	47.35700297355652	response	0	k		36.0	/experiments/Knapen_AOT/AOT_stimuli/pictures/0625_fw.png	313.8318223953247	
39	47.368250131607056	picture	0		105	37.0	/experiments/Knapen_AOT/AOT_stimuli/pictures/1034_fw.png	313.84306955337524	0.8750095367431641
39	48.2320294380188	response	0	j		37.0	/experiments/Knapen_AOT/AOT_stimuli/pictures/1034_fw.png	314.706848859787	
40	48.24325966835022	picture	0		124	38.0	/experiments/Knapen_AOT/AOT_stimuli/pictures/1270_fw.png	314.7180790901184	1.034731149673462
40	49.265352964401245	response	0	k		38.0	/experiments/Knapen_AOT/AOT_stimuli/pictures/1270_fw.png	315.74017238616943	
41	49.27799081802368	picture	0		228	39.0	/experiments/Knapen_AOT/AOT_stimuli/pictures/1089_fw.png	315.75281023979187	1.8958771228790283
41	51.16540265083313	response	0	k		39.0	/experiments/Knapen_AOT/AOT_stimuli/pictures/1089_fw.png	317.6402220726013	
42	51.17386794090271	picture	0		107	40.0	/experiments/Knapen_AOT/AOT_stimuli/pictures/1528_fw.png	317.6486873626709	0.8958134651184082
42	52.05703330039978	response	0	k		40.0	/experiments/Knapen_AOT/AOT_stimuli/pictures/1528_fw.png	318.53185272216797	
43	52.06968140602112	picture	0		111	41.0	/experiments/Knapen_AOT/AOT_stimuli/pictures/0204_fw.png	318.5445008277893	0.9236164093017578
43	52.9820716381073	response	0	k		41.0	/experiments/Knapen_AOT/AOT_stimuli/pictures/0204_fw.png	319.4568910598755	
44	52.993297815322876	picture	0		123	42.0	/experiments/Knapen_AOT/AOT_stimuli/pictures/1843_fw.png	319.46811723709106	1.030228853225708
44	54.007115840911865	response	0	k		42.0	/experiments/Knapen_AOT/AOT_stimuli/pictures/1843_fw.png	320.48193526268005	
45	54.023526668548584	picture	0		135	43.0	/experiments/Knapen_AOT/AOT_stimuli/pictures/2123_fw.png	320.4983460903168	1.129483699798584
45	55.14044260978699	response	0	j		43.0	/experiments/Knapen_AOT/AOT_stimuli/pictures/2123_fw.png	321.6152620315552	
46	55.15301036834717	picture	0		105	44.0	/experiments/Knapen_AOT/AOT_stimuli/pictures/1534_fw.png	321.62782979011536	0.8789017200469971
46	56.015403032302856	response	0	k		44.0	/experiments/Knapen_AOT/AOT_stimuli/pictures/1534_fw.png	322.49022245407104	
47	56.031912088394165	picture	0		113	45.0	/experiments/Knapen_AOT/AOT_stimuli/pictures/1594_fw.png	322.50673151016235	0.9475266933441162
47	56.96542739868164	response	0	k		45.0	/experiments/Knapen_AOT/AOT_stimuli/pictures/1594_fw.png	323.44024682044983	
48	56.97943878173828	picture	0		100	46.0	/experiments/Knapen_AOT/AOT_stimuli/pictures/0843_fw.png	323.45425820350647	0.8442018032073975
48	57.80708336830139	response	0	k		46.0	/experiments/Knapen_AOT/AOT_stimuli/pictures/0843_fw.png	324.2819027900696	
49	57.82364058494568	picture	0		136	47.0	/experiments/Knapen_AOT/AOT_stimuli/pictures/1513_fw.png	324.29846000671387	1.1349482536315918
49	58.94881081581116	response	0	j		47.0	/experiments/Knapen_AOT/AOT_stimuli/pictures/1513_fw.png	325.42363023757935	
50	58.95858883857727	picture	0		104	48.0	/experiments/Knapen_AOT/AOT_stimuli/pictures/0257_fw.png	325.43340826034546	0.8680977821350098
50	59.81546068191528	response	0	j		48.0	/experiments/Knapen_AOT/AOT_stimuli/pictures/0257_fw.png	326.2902801036835	
51	59.82668662071228	picture	0		188	49.0	/experiments/Knapen_AOT/AOT_stimuli/pictures/1122_fw.png	326.30150604248047	1.5719478130340576
51	61.38217520713806	response	0	k		49.0	/experiments/Knapen_AOT/AOT_stimuli/pictures/1122_fw.png	327.85699462890625	
52	61.39863443374634	picture	0		104	50.0	/experiments/Knapen_AOT/AOT_stimuli/pictures/0314_fw.png	327.8734538555145	0.8749978542327881
52	62.25756049156189	response	0	j		50.0	/experiments/Knapen_AOT/AOT_stimuli/pictures/0314_fw.png	328.7323799133301	
53	62.273632287979126	picture	0		97	51.0	/experiments/Knapen_AOT/AOT_stimuli/pictures/1666_fw.png	328.7484517097473	0.8166670799255371
53	63.06757116317749	response	0	j		51.0	/experiments/Knapen_AOT/AOT_stimuli/pictures/1666_fw.png	329.5423905849457	
54	63.09029936790466	picture	0		138	52.0	/experiments/Knapen_AOT/AOT_stimuli/pictures/0816_fw.png	329.56511878967285	1.1583406925201416
54	64.23215246200562	response	0	j		52.0	/experiments/Knapen_AOT/AOT_stimuli/pictures/0816_fw.png	330.7069718837738	
55	64.2486400604248	picture	0		84	53.0	/experiments/Knapen_AOT/AOT_stimuli/pictures/1001_fw.png	330.723459482193	0.7030515670776367
55	64.94052243232727	response	0	j		53.0	/experiments/Knapen_AOT/AOT_stimuli/pictures/1001_fw.png	331.41534185409546	
56	64.95169162750244	picture	0		112	54.0	/experiments/Knapen_AOT/AOT_stimuli/pictures/1700_fw.png	331.42651104927063	0.938631534576416
56	65.87396144866943	response	0	j		54.0	/experiments/Knapen_AOT/AOT_stimuli/pictures/1700_fw.png	332.3487808704376	
57	65.89032316207886	picture	0		97	55.0	/experiments/Knapen_AOT/AOT_stimuli/pictures/0376_fw.png	332.36514258384705	0.8114080429077148
57	66.69056296348572	response	0	j		55.0	/experiments/Knapen_AOT/AOT_stimuli/pictures/0376_fw.png	333.1653823852539	
58	66.70173120498657	picture	0		166	56.0	/experiments/Knapen_AOT/AOT_stimuli/pictures/0321_fw.png	333.17655062675476	1.3819153308868408
58	68.06736660003662	response	0	k		56.0	/experiments/Knapen_AOT/AOT_stimuli/pictures/0321_fw.png	334.5421860218048	
59	68.08364653587341	picture	0		104	57.0	/experiments/Knapen_AOT/AOT_stimuli/pictures/1008_fw.png	334.5584659576416	0.8680951595306396
59	68.94059896469116	response	0	j		57.0	/experiments/Knapen_AOT/AOT_stimuli/pictures/1008_fw.png	335.41541838645935	
60	68.95174169540405	picture	0		168	58.0	/experiments/Knapen_AOT/AOT_stimuli/pictures/1045_fw.png	335.42656111717224	1.4027774333953857
60	70.34058904647827	response	0	j		58.0	/experiments/Knapen_AOT/AOT_stimuli/pictures/1045_fw.png	336.81540846824646	
61	70.35451912879944	picture	0		82	59.0	/experiments/Knapen_AOT/AOT_stimuli/pictures/0568_fw.png	336.8293385505676	0.6942088603973389
61	71.03228425979614	response	0	j		59.0	/experiments/Knapen_AOT/AOT_stimuli/pictures/0568_fw.png	337.50710368156433	
62	71.04872798919678	picture	0		86	60.0	/experiments/Knapen_AOT/AOT_stimuli/pictures/2095_fw.png	337.52354741096497	0.7224485874176025
62	71.7573070526123	response	0	j		60.0	/experiments/Knapen_AOT/AOT_stimuli/pictures/2095_fw.png	338.2321264743805	
63	71.77117657661438	picture	0		116	61.0	/experiments/Knapen_AOT/AOT_stimuli/pictures/1422_fw.png	338.24599599838257	0.9722228050231934
63	72.7323088645935	response	0	k		61.0	/experiments/Knapen_AOT/AOT_stimuli/pictures/1422_fw.png	339.2071282863617	
64	72.74339938163757	picture	0		129	62.0	/experiments/Knapen_AOT/AOT_stimuli/pictures/1157_fw.png	339.21821880340576	1.0764071941375732
64	73.8073365688324	response	0	k		62.0	/experiments/Knapen_AOT/AOT_stimuli/pictures/1157_fw.png	340.2821559906006	
65	73.81980657577515	picture	0		108	63.0	/experiments/Knapen_AOT/AOT_stimuli/pictures/2006_fw.png	340.29462599754333	0.8958044052124023
65	74.7073757648468	response	0	j		63.0	/experiments/Knapen_AOT/AOT_stimuli/pictures/2006_fw.png	341.182195186615	
66	74.71561098098755	picture	0		165	64.0	/experiments/Knapen_AOT/AOT_stimuli/pictures/0279_fw.png	341.19043040275574	1.3750114440917969
66	76.08257579803467	response	0	k		64.0	/experiments/Knapen_AOT/AOT_stimuli/pictures/0279_fw.png	342.55739521980286	
67	76.09062242507935	picture	0		102	65.0	/experiments/Knapen_AOT/AOT_stimuli/pictures/1671_fw.png	342.56544184684753	0.8542091846466064
67	76.93234348297119	response	0	k		65.0	/experiments/Knapen_AOT/AOT_stimuli/pictures/1671_fw.png	343.4071629047394	
68	76.94483160972595	picture	0		183	66.0	/experiments/Knapen_AOT/AOT_stimuli/pictures/0356_fw.png	343.41965103149414	1.5289857387542725
68	78.45782279968262	response	0	k		66.0	/experiments/Knapen_AOT/AOT_stimuli/pictures/0356_fw.png	344.9326422214508	
69	78.47381734848022	picture	0		197	67.0	/experiments/Knapen_AOT/AOT_stimuli/pictures/1688_fw.png	344.9486367702484	1.6500320434570312
69	80.10738801956177	response	0	j		67.0	/experiments/Knapen_AOT/AOT_stimuli/pictures/1688_fw.png	346.58220744132996	
70	80.12384939193726	picture	0		128	68.0	/experiments/Knapen_AOT/AOT_stimuli/pictures/0217_fw.png	346.59866881370544	1.0710523128509521
70	81.18240189552307	response	0	j		68.0	/experiments/Knapen_AOT/AOT_stimuli/pictures/0217_fw.png	347.65722131729126	
71	81.19490170478821	picture	0		106	69.0	/experiments/Knapen_AOT/AOT_stimuli/pictures/1912_fw.png	347.6697211265564	0.8818869590759277
71	82.06601905822754	response	0	k		69.0	/experiments/Knapen_AOT/AOT_stimuli/pictures/1912_fw.png	348.5408384799957	
72	82.07678866386414	picture	0		99	70.0	/experiments/Knapen_AOT/AOT_stimuli/pictures/0049_fw.png	348.5516080856323	0.8264141082763672
72	82.89075660705566	response	0	k		70.0	/experiments/Knapen_AOT/AOT_stimuli/pictures/0049_fw.png	349.36557602882385	
73	82.9032027721405	picture	0		96	71.0	/experiments/Knapen_AOT/AOT_stimuli/pictures/1967_fw.png	349.3780221939087	0.8123466968536377
73	83.69925165176392	response	0	j		71.0	/experiments/Knapen_AOT/AOT_stimuli/pictures/1967_fw.png	350.1740710735321	
74	83.71554946899414	picture	0		136	72.0	/experiments/Knapen_AOT/AOT_stimuli/pictures/0505_fw.png	350.19036889076233	1.139070749282837
74	84.84077739715576	response	0	k		72.0	/experiments/Knapen_AOT/AOT_stimuli/pictures/0505_fw.png	351.31559681892395	
75	84.85462021827698	picture	0		119	73.0	/experiments/Knapen_AOT/AOT_stimuli/pictures/1140_fw.png	351.32943964004517	0.999981164932251
75	85.84078121185303	response	0	k		73.0	/experiments/Knapen_AOT/AOT_stimuli/pictures/1140_fw.png	352.3156006336212	
76	85.85460138320923	picture	0		116	74.0	/experiments/Knapen_AOT/AOT_stimuli/pictures/1916_fw.png	352.3294208049774	0.9776666164398193
76	86.81583547592163	response	0	j		74.0	/experiments/Knapen_AOT/AOT_stimuli/pictures/1916_fw.png	353.2906548976898	
77	86.83226799964905	picture	0		112	75.0	/experiments/Knapen_AOT/AOT_stimuli/pictures/1415_fw.png	353.30708742141724	0.9390428066253662
77	87.75744891166687	response	0	k		75.0	/experiments/Knapen_AOT/AOT_stimuli/pictures/1415_fw.png	354.23226833343506	
78	87.77131080627441	picture	0		103	76.0	/experiments/Knapen_AOT/AOT_stimuli/pictures/0960_fw.png	354.2461302280426	0.8610572814941406
78	88.6241660118103	response	0	j		76.0	/experiments/Knapen_AOT/AOT_stimuli/pictures/0960_fw.png	355.0989854335785	
79	88.63236808776855	picture	0		112	77.0	/experiments/Knapen_AOT/AOT_stimuli/pictures/1056_fw.png	355.10718750953674	0.9375514984130859
79	89.55748176574707	response	0	j		77.0	/experiments/Knapen_AOT/AOT_stimuli/pictures/1056_fw.png	356.03230118751526	
80	89.56991958618164	picture	0		104	78.0	/experiments/Knapen_AOT/AOT_stimuli/pictures/0978_fw.png	356.04473900794983	0.8706941604614258
80	90.42443180084229	response	0	k		78.0	/experiments/Knapen_AOT/AOT_stimuli/pictures/0978_fw.png	356.8992512226105	
81	90.44061374664307	picture	0		124	79.0	/experiments/Knapen_AOT/AOT_stimuli/pictures/1200_fw.png	356.91543316841125	1.0416808128356934
81	91.45840001106262	response	0	j		79.0	/experiments/Knapen_AOT/AOT_stimuli/pictures/1200_fw.png	357.9332194328308	
82	91.48229455947876	picture	0		136	80.0	/experiments/Knapen_AOT/AOT_stimuli/pictures/0331_fw.png	357.95711398124695	1.1362388134002686
82	92.60743689537048	response	0	k		80.0	/experiments/Knapen_AOT/AOT_stimuli/pictures/0331_fw.png	359.0822563171387	
83	92.61853337287903	picture	0		118	81.0	/experiments/Knapen_AOT/AOT_stimuli/pictures/0570_fw.png	359.0933527946472	0.9888477325439453
83	93.59097170829773	response	0	k		81.0	/experiments/Knapen_AOT/AOT_stimuli/pictures/0570_fw.png	360.0657911300659	
84	93.60738110542297	picture	0		174	82.0	/experiments/Knapen_AOT/AOT_stimuli/pictures/1738_fw.png	360.08220052719116	1.455625295639038
84	95.04930591583252	response	0	k		82.0	/experiments/Knapen_AOT/AOT_stimuli/pictures/1738_fw.png	361.5241253376007	
85	95.06300640106201	picture	0		106	83.0	/experiments/Knapen_AOT/AOT_stimuli/pictures/0794_fw.png	361.5378258228302	0.8888776302337646
85	95.94087171554565	response	0	j		83.0	/experiments/Knapen_AOT/AOT_stimuli/pictures/0794_fw.png	362.41569113731384	
86	95.95188403129578	picture	0		276	84.0	/experiments/Knapen_AOT/AOT_stimuli/pictures/0887_fw.png	362.42670345306396	2.3055107593536377
86	98.24108481407166	response	0	k		84.0	/experiments/Knapen_AOT/AOT_stimuli/pictures/0887_fw.png	364.71590423583984	
87	98.25739479064941	picture	0		169	85.0	/experiments/Knapen_AOT/AOT_stimuli/pictures/1087_fw.png	364.7322142124176	1.4097812175750732
87	99.65007901191711	response	0	k		85.0	/experiments/Knapen_AOT/AOT_stimuli/pictures/1087_fw.png	366.1248984336853	
88	99.66717600822449	picture	0		107	86.0	/experiments/Knapen_AOT/AOT_stimuli/pictures/1748_fw.png	366.1419954299927	0.8958420753479004
88	100.54923582077026	response	0	j		86.0	/experiments/Knapen_AOT/AOT_stimuli/pictures/1748_fw.png	367.02405524253845	
89	100.56301808357239	picture	0		202	87.0	/experiments/Knapen_AOT/AOT_stimuli/pictures/1795_fw.png	367.0378375053406	1.687591314315796
89	102.24095964431763	response	0	k		87.0	/experiments/Knapen_AOT/AOT_stimuli/pictures/1795_fw.png	368.7157790660858	
90	102.25060939788818	picture	0		99	88.0	/experiments/Knapen_AOT/AOT_stimuli/pictures/0689_fw.png	368.7254288196564	0.8318307399749756
90	103.05836200714111	response	0	j		88.0	/experiments/Knapen_AOT/AOT_stimuli/pictures/0689_fw.png	369.5331814289093	
91	103.08244013786316	picture	0		121	89.0	/experiments/Knapen_AOT/AOT_stimuli/pictures/0549_fw.png	369.55725955963135	1.0083503723144531
91	104.08279848098755	response	0	j		89.0	/experiments/Knapen_AOT/AOT_stimuli/pictures/0549_fw.png	370.55761790275574	
92	104.09079051017761	picture	0		123	90.0	/experiments/Knapen_AOT/AOT_stimuli/pictures/0967_fw.png	370.5656099319458	1.0278217792510986
92	105.10772061347961	response	0	k		90.0	/experiments/Knapen_AOT/AOT_stimuli/pictures/0967_fw.png	371.5825400352478	
93	105.11861228942871	picture	0		121	91.0	/experiments/Knapen_AOT/AOT_stimuli/pictures/1533_fw.png	371.5934317111969	1.0069382190704346
93	106.11598300933838	response	0	k		91.0	/experiments/Knapen_AOT/AOT_stimuli/pictures/1533_fw.png	372.59080243110657	
94	106.12555050849915	picture	0		174	92.0	/experiments/Knapen_AOT/AOT_stimuli/pictures/0157_fw.png	372.60036993026733	1.4569847583770752
94	107.56628108024597	response	0	j		92.0	/experiments/Knapen_AOT/AOT_stimuli/pictures/0157_fw.png	374.04110050201416	
95	107.58253526687622	picture	0		113	93.0	/experiments/Knapen_AOT/AOT_stimuli/pictures/1225_fw.png	374.0573546886444	0.9458460807800293
95	108.51602935791016	response	0	k		93.0	/experiments/Knapen_AOT/AOT_stimuli/pictures/1225_fw.png	374.99084877967834	
96	108.52838134765625	picture	0		115	94.0	/experiments/Knapen_AOT/AOT_stimuli/pictures/0471_fw.png	375.00320076942444	0.9583327770233154
96	109.47437715530396	response	0	j		94.0	/experiments/Knapen_AOT/AOT_stimuli/pictures/0471_fw.png	375.94919657707214	
97	109.48671412467957	picture	0		201	95.0	/experiments/Knapen_AOT/AOT_stimuli/pictures/1152_fw.png	375.96153354644775	1.6735928058624268
97	111.1493661403656	response	0	j		95.0	/experiments/Knapen_AOT/AOT_stimuli/pictures/1152_fw.png	377.6241855621338	
98	111.16030693054199	picture	0		80	96.0	/experiments/Knapen_AOT/AOT_stimuli/pictures/0084_fw.png	377.6351263523102	0.6666810512542725
98	111.81611275672913	response	0	j		96.0	/experiments/Knapen_AOT/AOT_stimuli/pictures/0084_fw.png	378.2909321784973	
99	111.82698798179626	picture	0		91	97.0	/experiments/Knapen_AOT/AOT_stimuli/pictures/1461_fw.png	378.30180740356445	0.7569305896759033
99	112.57441830635071	response	0	j		97.0	/experiments/Knapen_AOT/AOT_stimuli/pictures/1461_fw.png	379.0492377281189	
100	112.58391857147217	picture	0		121	98.0	/experiments/Knapen_AOT/AOT_stimuli/pictures/1715_fw.png	379.05873799324036	1.006969690322876
100	113.58277773857117	response	0	k		98.0	/experiments/Knapen_AOT/AOT_stimuli/pictures/1715_fw.png	380.05759716033936	
101	113.59088826179504	picture	0		142	99.0	/experiments/Knapen_AOT/AOT_stimuli/pictures/0131_fw.png	380.06570768356323	1.1875100135803223
101	114.76611328125	response	0	k		99.0	/experiments/Knapen_AOT/AOT_stimuli/pictures/0131_fw.png	381.2409327030182	
102	114.77839827537537	picture	0		123	100.0	/experiments/Knapen_AOT/AOT_stimuli/pictures/1968_fw.png	381.25321769714355	1.0292067527770996
102	115.79118704795837	response	0	k		100.0	/experiments/Knapen_AOT/AOT_stimuli/pictures/1968_fw.png	382.26600646972656	
103	115.80760502815247	picture	0		123	101.0	/experiments/Knapen_AOT/AOT_stimuli/pictures/1074_fw.png	382.28242444992065	1.02634596824646
103	116.82447147369385	response	0	k		101.0	/experiments/Knapen_AOT/AOT_stimuli/pictures/1074_fw.png	383.29929089546204	
104	116.83395099639893	picture	0		186	102.0	/experiments/Knapen_AOT/AOT_stimuli/pictures/1101_fw.png	383.3087704181671	1.548663854598999
104	118.37447118759155	response	0	k		102.0	/experiments/Knapen_AOT/AOT_stimuli/pictures/1101_fw.png	384.84929060935974	
105	118.38261485099792	picture	0		193	103.0	/experiments/Knapen_AOT/AOT_stimuli/pictures/1758_fw.png	384.8574342727661	1.6110963821411133
105	119.98287963867188	response	0	k		103.0	/experiments/Knapen_AOT/AOT_stimuli/pictures/1758_fw.png	386.45769906044006	
106	119.99371123313904	picture	0		111	104.0	/experiments/Knapen_AOT/AOT_stimuli/pictures/1180_fw.png	386.4685306549072	0.9236025810241699
106	120.90781927108765	response	0	k		104.0	/experiments/Knapen_AOT/AOT_stimuli/pictures/1180_fw.png	387.38263869285583	
107	120.91731381416321	picture	0		107	105.0	/experiments/Knapen_AOT/AOT_stimuli/pictures/0486_fw.png	387.3921332359314	0.8986682891845703
107	121.79950141906738	response	0	k		105.0	/experiments/Knapen_AOT/AOT_stimuli/pictures/0486_fw.png	388.27432084083557	
108	121.81598210334778	picture	0		101	106.0	/experiments/Knapen_AOT/AOT_stimuli/pictures/1156_fw.png	388.29080152511597	0.8444230556488037
108	122.64957809448242	response	0	j		106.0	/experiments/Knapen_AOT/AOT_stimuli/pictures/1156_fw.png	389.1243975162506	
109	122.66040515899658	picture	0		227	107.0	/experiments/Knapen_AOT/AOT_stimuli/pictures/0738_fw.png	389.13522458076477	1.8972985744476318
109	124.54122376441956	response	0	k		107.0	/experiments/Knapen_AOT/AOT_stimuli/pictures/0738_fw.png	391.01604318618774	
110	124.55770373344421	picture	0		150	108.0	/experiments/Knapen_AOT/AOT_stimuli/pictures/0976_fw.png	391.0325231552124	1.2583281993865967
110	125.79958415031433	response	0	k		108.0	/experiments/Knapen_AOT/AOT_stimuli/pictures/0976_fw.png	392.2744035720825	
111	125.81603193283081	picture	0		123	109.0	/experiments/Knapen_AOT/AOT_stimuli/pictures/0858_fw.png	392.290851354599	1.0333762168884277
111	126.83299112319946	response	0	k		109.0	/experiments/Knapen_AOT/AOT_stimuli/pictures/0858_fw.png	393.30781054496765	
112	126.84940814971924	picture	0		169	110.0	/experiments/Knapen_AOT/AOT_stimuli/pictures/1318_fw.png	393.3242275714874	1.4082984924316406
112	128.24268555641174	response	0	j		110.0	/experiments/Knapen_AOT/AOT_stimuli/pictures/1318_fw.png	394.71750497817993	
113	128.25770664215088	picture	0		110	111.0	/experiments/Knapen_AOT/AOT_stimuli/pictures/0268_fw.png	394.73252606391907	0.916663408279419
113	129.1662516593933	response	0	j		111.0	/experiments/Knapen_AOT/AOT_stimuli/pictures/0268_fw.png	395.6410710811615	
114	129.1743700504303	picture	0		122	112.0	/experiments/Knapen_AOT/AOT_stimuli/pictures/0069_fw.png	395.6491894721985	1.0208022594451904
114	130.1829333305359	response	0	k		112.0	/experiments/Knapen_AOT/AOT_stimuli/pictures/0069_fw.png	396.6577527523041	
115	130.1951723098755	picture	0		119	113.0	/experiments/Knapen_AOT/AOT_stimuli/pictures/0786_fw.png	396.6699917316437	0.9930949211120605
115	131.17462968826294	response	0	k		113.0	/experiments/Knapen_AOT/AOT_stimuli/pictures/0786_fw.png	397.6494491100311	
116	131.18826723098755	picture	0		109	114.0	/experiments/Knapen_AOT/AOT_stimuli/pictures/1767_fw.png	397.66308665275574	0.919506311416626
116	132.0915720462799	response	0	j		114.0	/experiments/Knapen_AOT/AOT_stimuli/pictures/1767_fw.png	398.5663914680481	
117	132.10777354240417	picture	0		110	115.0	/experiments/Knapen_AOT/AOT_stimuli/pictures/0890_fw.png	398.58259296417236	0.9207415580749512
117	133.01637744903564	response	0	j		115.0	/experiments/Knapen_AOT/AOT_stimuli/pictures/0890_fw.png	399.49119687080383	
118	133.02851510047913	picture	0		115	116.0	/experiments/Knapen_AOT/AOT_stimuli/pictures/1917_fw.png	399.5033345222473	0.9626247882843018
118	133.97465085983276	response	0	j		116.0	/experiments/Knapen_AOT/AOT_stimuli/pictures/1917_fw.png	400.44947028160095	
119	133.99113988876343	picture	0		344	117.0	/experiments/Knapen_AOT/AOT_stimuli/pictures/1896_fw.png	400.4659593105316	2.8750908374786377
119	136.84255480766296	response	0	k		117.0	/experiments/Knapen_AOT/AOT_stimuli/pictures/1896_fw.png	403.31737422943115	
120	136.86623072624207	picture	0		87	118.0	/experiments/Knapen_AOT/AOT_stimuli/pictures/1637_fw.png	403.34105014801025	0.724909782409668
120	137.58300518989563	response	0	k		118.0	/experiments/Knapen_AOT/AOT_stimuli/pictures/1637_fw.png	404.0578246116638	
121	137.59114050865173	picture	0		419	119.0	/experiments/Knapen_AOT/AOT_stimuli/pictures/1105_fw.png	404.0659599304199	3.492966413497925
121	141.07473516464233	response	0	k		119.0	/experiments/Knapen_AOT/AOT_stimuli/pictures/1105_fw.png	407.5495545864105	
122	141.08410692214966	picture	0		106	120.0	/experiments/Knapen_AOT/AOT_stimuli/pictures/1920_fw.png	407.55892634391785	0.890446662902832
122	141.95811247825623	response	0	j		120.0	/experiments/Knapen_AOT/AOT_stimuli/pictures/1920_fw.png	408.4329319000244	
123	141.9745535850525	picture	0		163	121.0	/experiments/Knapen_AOT/AOT_stimuli/pictures/1736_fw.png	408.4493730068207	1.3595716953277588
123	143.32476162910461	response	0	k		121.0	/experiments/Knapen_AOT/AOT_stimuli/pictures/1736_fw.png	409.7995810508728	
124	143.33412528038025	picture	0		117	122.0	/experiments/Knapen_AOT/AOT_stimuli/pictures/1243_fw.png	409.80894470214844	0.9821267127990723
124	144.29977750778198	response	0	j		122.0	/experiments/Knapen_AOT/AOT_stimuli/pictures/1243_fw.png	410.77459692955017	
125	144.31625199317932	picture	0		171	123.0	/experiments/Knapen_AOT/AOT_stimuli/pictures/1441_fw.png	410.7910714149475	1.4333772659301758
125	145.7331178188324	response	0	k		123.0	/experiments/Knapen_AOT/AOT_stimuli/pictures/1441_fw.png	412.2079372406006	
126	145.7496292591095	picture	0		153	124.0	/experiments/Knapen_AOT/AOT_stimuli/pictures/1654_fw.png	412.2244486808777	1.283329725265503
126	147.01664328575134	response	0	j		124.0	/experiments/Knapen_AOT/AOT_stimuli/pictures/1654_fw.png	413.49146270751953	
127	147.032958984375	picture	0		106	125.0	/experiments/Knapen_AOT/AOT_stimuli/pictures/0903_fw.png	413.5077784061432	0.8845272064208984
127	147.90816473960876	response	0	j		125.0	/experiments/Knapen_AOT/AOT_stimuli/pictures/0903_fw.png	414.38298416137695	
128	147.9174861907959	picture	0		99	126.0	/experiments/Knapen_AOT/AOT_stimuli/pictures/1075_fw.png	414.3923056125641	0.8264286518096924
128	148.73317289352417	response	0	j		126.0	/experiments/Knapen_AOT/AOT_stimuli/pictures/1075_fw.png	415.20799231529236	
129	148.7439148426056	picture	0		299	127.0	/experiments/Knapen_AOT/AOT_stimuli/pictures/1956_fw.png	415.2187342643738	2.6308093070983887
129	151.3582320213318	response	0	k		127.0	/experiments/Knapen_AOT/AOT_stimuli/pictures/1956_fw.png	417.8330514431	
130	151.37472414970398	picture	0		95	128.0	/experiments/Knapen_AOT/AOT_stimuli/pictures/1819_fw.png	417.84954357147217	0.7927849292755127
130	152.158194065094	response	0	j		128.0	/experiments/Knapen_AOT/AOT_stimuli/pictures/1819_fw.png	418.6330134868622	
131	152.1675090789795	picture	0		177	129.0	/experiments/Knapen_AOT/AOT_stimuli/pictures/1432_fw.png	418.6423285007477	1.4821858406066895
131	153.6332552433014	response	0	k		129.0	/experiments/Knapen_AOT/AOT_stimuli/pictures/1432_fw.png	420.1080746650696	
132	153.64969491958618	picture	0		102	130.0	/experiments/Knapen_AOT/AOT_stimuli/pictures/2162_fw.png	420.12451434135437	0.8583693504333496
132	154.49207067489624	response	0	j		130.0	/experiments/Knapen_AOT/AOT_stimuli/pictures/2162_fw.png	420.96689009666443	
133	154.50806427001953	picture	0		97	131.0	/experiments/Knapen_AOT/AOT_stimuli/pictures/1510_fw.png	420.9828836917877	0.8122620582580566
133	155.30825233459473	response	0	j		131.0	/experiments/Knapen_AOT/AOT_stimuli/pictures/1510_fw.png	421.7830717563629	
134	155.3203263282776	picture	0		109	132.0	/experiments/Knapen_AOT/AOT_stimuli/pictures/0434_fw.png	421.7951457500458	0.9097838401794434
134	156.2166392803192	response	0	j		132.0	/experiments/Knapen_AOT/AOT_stimuli/pictures/0434_fw.png	422.6914587020874	
135	156.23011016845703	picture	0		152	133.0	/experiments/Knapen_AOT/AOT_stimuli/pictures/2167_fw.png	422.7049295902252	1.2779595851898193
135	157.491961479187	response	0	j		133.0	/experiments/Knapen_AOT/AOT_stimuli/pictures/2167_fw.png	423.9667809009552	
136	157.50806975364685	picture	0		112	134.0	/experiments/Knapen_AOT/AOT_stimuli/pictures/0787_fw.png	423.98288917541504	0.941697359085083
136	158.4333417415619	response	0	k		134.0	/experiments/Knapen_AOT/AOT_stimuli/pictures/0787_fw.png	424.9081611633301	
137	158.44976711273193	picture	0		118	135.0	/experiments/Knapen_AOT/AOT_stimuli/pictures/2037_fw.png	424.9245865345001	0.9916696548461914
137	159.4250180721283	response	0	j		135.0	/experiments/Knapen_AOT/AOT_stimuli/pictures/2037_fw.png	425.8998374938965	
138	159.44143676757812	picture	0		138	136.0	/experiments/Knapen_AOT/AOT_stimuli/pictures/0710_fw.png	425.9162561893463	1.1499762535095215
138	160.58363032341003	response	0	k		136.0	/experiments/Knapen_AOT/AOT_stimuli/pictures/0710_fw.png	427.0584497451782	
139	160.59141302108765	picture	0		107	137.0	/experiments/Knapen_AOT/AOT_stimuli/pictures/0913_fw.png	427.06623244285583	0.8956053256988525
139	161.47503471374512	response	0	k		137.0	/experiments/Knapen_AOT/AOT_stimuli/pictures/0913_fw.png	427.9498541355133	
140	161.4870183467865	picture	0		117	138.0	/experiments/Knapen_AOT/AOT_stimuli/pictures/1294_fw.png	427.9618377685547	0.9794495105743408
140	162.4425916671753	response	0	j		138.0	/experiments/Knapen_AOT/AOT_stimuli/pictures/1294_fw.png	428.9174110889435	
141	162.46646785736084	picture	0		108	139.0	/experiments/Knapen_AOT/AOT_stimuli/pictures/0608_fw.png	428.941287279129	0.9025216102600098
141	163.35836625099182	response	0	j		139.0	/experiments/Knapen_AOT/AOT_stimuli/pictures/0608_fw.png	429.83318567276	
142	163.36898946762085	picture	0		159	140.0	/experiments/Knapen_AOT/AOT_stimuli/pictures/0485_fw.png	429.84380888938904	1.3308396339416504
142	164.68351793289185	response	0	k		140.0	/experiments/Knapen_AOT/AOT_stimuli/pictures/0485_fw.png	431.15833735466003	
143	164.6998291015625	picture	0		114	141.0	/experiments/Knapen_AOT/AOT_stimuli/pictures/0716_fw.png	431.1746485233307	0.9583492279052734
143	165.6340982913971	response	0	j		141.0	/experiments/Knapen_AOT/AOT_stimuli/pictures/0716_fw.png	432.1089177131653	
144	165.65817832946777	picture	0		166	142.0	/experiments/Knapen_AOT/AOT_stimuli/pictures/0641_fw.png	432.13299775123596	1.3916666507720947
144	167.03340339660645	response	0	k		142.0	/experiments/Knapen_AOT/AOT_stimuli/pictures/0641_fw.png	433.50822281837463	
145	167.04984498023987	picture	0		124	143.0	/experiments/Knapen_AOT/AOT_stimuli/pictures/0387_fw.png	433.52466440200806	1.0416834354400635
145	168.0750072002411	response	0	j		143.0	/experiments/Knapen_AOT/AOT_stimuli/pictures/0387_fw.png	434.5498266220093	
146	168.09152841567993	picture	0		144	144.0	/experiments/Knapen_AOT/AOT_stimuli/pictures/2026_fw.png	434.5663478374481	1.2083425521850586
146	169.28364276885986	response	0	k		144.0	/experiments/Knapen_AOT/AOT_stimuli/pictures/2026_fw.png	435.75846219062805	
147	169.299870967865	picture	0		91	145.0	/experiments/Knapen_AOT/AOT_stimuli/pictures/1598_fw.png	435.7746903896332	0.7636096477508545
147	170.05005168914795	response	0	j		145.0	/experiments/Knapen_AOT/AOT_stimuli/pictures/1598_fw.png	436.52487111091614	
148	170.06348061561584	picture	0		140	146.0	/experiments/Knapen_AOT/AOT_stimuli/pictures/1809_fw.png	436.53830003738403	1.17360258102417
148	171.22512197494507	response	0	k		146.0	/experiments/Knapen_AOT/AOT_stimuli/pictures/1809_fw.png	437.69994139671326	
149	171.23708319664001	picture	0		106	147.0	/experiments/Knapen_AOT/AOT_stimuli/pictures/0277_fw.png	437.7119026184082	0.8888897895812988
149	172.1167721748352	response	0	k		147.0	/experiments/Knapen_AOT/AOT_stimuli/pictures/0277_fw.png	438.5915915966034	
150	172.1259729862213	picture	0		116	148.0	/experiments/Knapen_AOT/AOT_stimuli/pictures/0992_fw.png	438.6007924079895	0.9656572341918945
150	173.08341717720032	response	0	k		148.0	/experiments/Knapen_AOT/AOT_stimuli/pictures/0992_fw.png	439.5582365989685	
151	173.0916302204132	picture	0		194	149.0	/experiments/Knapen_AOT/AOT_stimuli/pictures/0685_fw.png	439.5664496421814	1.62498140335083
151	174.7001473903656	response	0	k		149.0	/experiments/Knapen_AOT/AOT_stimuli/pictures/0685_fw.png	441.1749668121338	
152	174.71661162376404	picture	0		144	150.0	/experiments/Knapen_AOT/AOT_stimuli/pictures/1306_fw.png	441.1914310455322	1.2083446979522705
152	175.9087553024292	response	0	k		150.0	/experiments/Knapen_AOT/AOT_stimuli/pictures/1306_fw.png	442.3835747241974	
153	175.9249563217163	picture	0		110	151.0	/experiments/Knapen_AOT/AOT_stimuli/pictures/1412_fw.png	442.3997757434845	0.9166481494903564
153	176.8336057662964	response	0	j		151.0	/experiments/Knapen_AOT/AOT_stimuli/pictures/1412_fw.png	443.3084251880646	
154	176.84160447120667	picture	0		126	152.0	/experiments/Knapen_AOT/AOT_stimuli/pictures/0447_fw.png	443.31642389297485	1.0552728176116943
154	177.8835208415985	response	0	j		152.0	/experiments/Knapen_AOT/AOT_stimuli/pictures/0447_fw.png	444.3583402633667	
155	177.89687728881836	picture	0		109	153.0	/experiments/Knapen_AOT/AOT_stimuli/pictures/0317_fw.png	444.37169671058655	0.9166569709777832
155	178.800190448761	response	0	j		153.0	/experiments/Knapen_AOT/AOT_stimuli/pictures/0317_fw.png	445.2750098705292	
156	178.81353425979614	picture	0		95	154.0	/experiments/Knapen_AOT/AOT_stimuli/pictures/0559_fw.png	445.28835368156433	0.8031482696533203
156	179.60019040107727	response	0	j		154.0	/experiments/Knapen_AOT/AOT_stimuli/pictures/0559_fw.png	446.07500982284546	
157	179.61668252944946	picture	0		130	155.0	/experiments/Knapen_AOT/AOT_stimuli/pictures/1275_fw.png	446.09150195121765	1.0857551097869873
157	180.6920623779297	response	0	k		155.0	/experiments/Knapen_AOT/AOT_stimuli/pictures/1275_fw.png	447.1668817996979	
158	180.70243763923645	picture	0		101	156.0	/experiments/Knapen_AOT/AOT_stimuli/pictures/1438_fw.png	447.17725706100464	0.8475911617279053
158	181.53405046463013	response	0	j		156.0	/experiments/Knapen_AOT/AOT_stimuli/pictures/1438_fw.png	448.0088698863983	
159	181.55002880096436	picture	0		90	157.0	/experiments/Knapen_AOT/AOT_stimuli/pictures/1442_fw.png	448.02484822273254	0.7499902248382568
159	182.2919590473175	response	0	j		157.0	/experiments/Knapen_AOT/AOT_stimuli/pictures/1442_fw.png	448.7667784690857	
160	182.3000190258026	picture	0		130	158.0	/experiments/Knapen_AOT/AOT_stimuli/pictures/1221_fw.png	448.7748384475708	1.0899546146392822
160	183.37526035308838	response	0	j		158.0	/experiments/Knapen_AOT/AOT_stimuli/pictures/1221_fw.png	449.85007977485657	
161	183.3899736404419	picture	0		92	159.0	/experiments/Knapen_AOT/AOT_stimuli/pictures/0262_fw.png	449.8647930622101	0.776756763458252
161	184.15022730827332	response	0	j		159.0	/experiments/Knapen_AOT/AOT_stimuli/pictures/0262_fw.png	450.6250467300415	
162	184.16673040390015	picture	0		110	160.0	/experiments/Knapen_AOT/AOT_stimuli/pictures/0103_fw.png	450.64154982566833	0.9250218868255615
162	185.07526850700378	response	0	k		160.0	/experiments/Knapen_AOT/AOT_stimuli/pictures/0103_fw.png	451.550087928772	
163	185.0917522907257	picture	0		121	161.0	/experiments/Knapen_AOT/AOT_stimuli/pictures/1154_fw.png	451.5665717124939	1.0135087966918945
163	186.09196949005127	response	0	k		161.0	/experiments/Knapen_AOT/AOT_stimuli/pictures/1154_fw.png	452.56678891181946	
164	186.1052610874176	picture	0		128	162.0	/experiments/Knapen_AOT/AOT_stimuli/pictures/0143_fw.png	452.5800805091858	1.0782101154327393
164	187.16695094108582	response	0	k		162.0	/experiments/Knapen_AOT/AOT_stimuli/pictures/0143_fw.png	453.641770362854	
165	187.18347120285034	picture	0		107	163.0	/experiments/Knapen_AOT/AOT_stimuli/pictures/1584_fw.png	453.65829062461853	0.8999941349029541
165	188.06705904006958	response	0	j		163.0	/experiments/Knapen_AOT/AOT_stimuli/pictures/1584_fw.png	454.54187846183777	
166	188.0834653377533	picture	0		160	164.0	/experiments/Knapen_AOT/AOT_stimuli/pictures/0628_fw.png	454.5582847595215	1.3416740894317627
166	189.40868997573853	response	0	j		164.0	/experiments/Knapen_AOT/AOT_stimuli/pictures/0628_fw.png	455.8835093975067	
167	189.42513942718506	picture	0		155	165.0	/experiments/Knapen_AOT/AOT_stimuli/pictures/1866_fw.png	455.89995884895325	1.298232078552246
167	190.70871710777283	response	0	j		165.0	/experiments/Knapen_AOT/AOT_stimuli/pictures/1866_fw.png	457.183536529541	
168	190.7233715057373	picture	0		130	166.0	/experiments/Knapen_AOT/AOT_stimuli/pictures/1052_fw.png	457.1981909275055	1.0902717113494873
168	191.80035758018494	response	0	j		166.0	/experiments/Knapen_AOT/AOT_stimuli/pictures/1052_fw.png	458.2751770019531	
169	191.8136432170868	picture	0		289	167.0	/experiments/Knapen_AOT/AOT_stimuli/pictures/2031_fw.png	458.288462638855	2.4198920726776123
169	194.21729612350464	response	0	j		167.0	/experiments/Knapen_AOT/AOT_stimuli/pictures/2031_fw.png	460.6921155452728	
170	194.2335352897644	picture	0		203	168.0	/experiments/Knapen_AOT/AOT_stimuli/pictures/0461_fw.png	460.7083547115326	1.7000222206115723
170	195.91708755493164	response	0	j		168.0	/experiments/Knapen_AOT/AOT_stimuli/pictures/0461_fw.png	462.39190697669983	
171	195.93355751037598	picture	0		109	169.0	/experiments/Knapen_AOT/AOT_stimuli/pictures/1076_fw.png	462.40837693214417	0.9166791439056396
171	196.82670044898987	response	0	j		169.0	/experiments/Knapen_AOT/AOT_stimuli/pictures/1076_fw.png	463.30151987075806	
172	196.85023665428162	picture	0		124	170.0	/experiments/Knapen_AOT/AOT_stimuli/pictures/1908_fw.png	463.3250560760498	1.0333218574523926
172	197.87545228004456	response	0	k		170.0	/experiments/Knapen_AOT/AOT_stimuli/pictures/1908_fw.png	464.35027170181274	
173	197.883558511734	picture	0		109	171.0	/experiments/Knapen_AOT/AOT_stimuli/pictures/0828_fw.png	464.3583779335022	0.9167101383209229
173	198.78382325172424	response	0	j		171.0	/experiments/Knapen_AOT/AOT_stimuli/pictures/0828_fw.png	465.25864267349243	
174	198.80026865005493	picture	0		193	172.0	/experiments/Knapen_AOT/AOT_stimuli/pictures/1183_fw.png	465.2750880718231	1.6106605529785156
174	200.40047526359558	response	0	k		172.0	/experiments/Knapen_AOT/AOT_stimuli/pictures/1183_fw.png	466.87529468536377	
175	200.41092920303345	picture	0		111	173.0	/experiments/Knapen_AOT/AOT_stimuli/pictures/0830_fw.png	466.88574862480164	0.9236099720001221
175	201.32547783851624	response	0	k		173.0	/experiments/Knapen_AOT/AOT_stimuli/pictures/0830_fw.png	467.8002972602844	
176	201.33453917503357	picture	0		104	174.0	/experiments/Knapen_AOT/AOT_stimuli/pictures/2023_fw.png	467.80935859680176	0.8741021156311035
176	202.1922538280487	response	0	k		174.0	/experiments/Knapen_AOT/AOT_stimuli/pictures/2023_fw.png	468.6670732498169	
177	202.20864129066467	picture	0		165	175.0	/experiments/Knapen_AOT/AOT_stimuli/pictures/1123_fw.png	468.68346071243286	1.3759253025054932
177	203.57552409172058	response	0	k		175.0	/experiments/Knapen_AOT/AOT_stimuli/pictures/1123_fw.png	470.05034351348877	
178	203.58456659317017	picture	0		99	176.0	/experiments/Knapen_AOT/AOT_stimuli/pictures/1932_fw.png	470.05938601493835	0.8324830532073975
178	204.40064120292664	response	0	k		176.0	/experiments/Knapen_AOT/AOT_stimuli/pictures/1932_fw.png	470.8754606246948	
179	204.41704964637756	picture	0		99	177.0	/experiments/Knapen_AOT/AOT_stimuli/pictures/2119_fw.png	470.89186906814575	0.8272488117218018
179	205.22629833221436	response	0	j		177.0	/experiments/Knapen_AOT/AOT_stimuli/pictures/2119_fw.png	471.70111775398254	
180	205.24429845809937	picture	0		168	178.0	/experiments/Knapen_AOT/AOT_stimuli/pictures/0394_fw.png	471.71911787986755	1.4060678482055664
180	206.626394033432	response	0	k		178.0	/experiments/Knapen_AOT/AOT_stimuli/pictures/0394_fw.png	473.1012134552002	
181	206.65036630630493	picture	0		113	179.0	/experiments/Knapen_AOT/AOT_stimuli/pictures/0594_fw.png	473.1251857280731	0.941645622253418
181	207.58417534828186	response	0	k		179.0	/experiments/Knapen_AOT/AOT_stimuli/pictures/0594_fw.png	474.05899477005005	
182	207.59201192855835	picture	0		414	180.0	/experiments/Knapen_AOT/AOT_stimuli/pictures/0158_fw.png	474.06683135032654	3.458432674407959
182	211.0343222618103	response	0	k		180.0	/experiments/Knapen_AOT/AOT_stimuli/pictures/0158_fw.png	477.5091416835785	
183	211.0504446029663	picture	0		100	181.0	/experiments/Knapen_AOT/AOT_stimuli/pictures/1178_fw.png	477.5252640247345	0.8416986465454102
183	211.8757221698761	response	0	k		181.0	/experiments/Knapen_AOT/AOT_stimuli/pictures/1178_fw.png	478.3505415916443	
184	211.89214324951172	picture	0		114	182.0	/experiments/Knapen_AOT/AOT_stimuli/pictures/0632_fw.png	478.3669626712799	0.9583110809326172
184	212.82768535614014	response	0	j		182.0	/experiments/Knapen_AOT/AOT_stimuli/pictures/0632_fw.png	479.3025047779083	
185	212.85045433044434	picture	0		110	183.0	/experiments/Knapen_AOT/AOT_stimuli/pictures/0106_fw.png	479.3252737522125	0.9250493049621582
185	213.75892210006714	response	0	k		183.0	/experiments/Knapen_AOT/AOT_stimuli/pictures/0106_fw.png	480.2337415218353	
186	213.7755036354065	picture	0		109	184.0	/experiments/Knapen_AOT/AOT_stimuli/pictures/1814_fw.png	480.2503230571747	0.9133617877960205
186	214.6755669116974	response	0	j		184.0	/experiments/Knapen_AOT/AOT_stimuli/pictures/1814_fw.png	481.1503863334656	
187	214.68886542320251	picture	0		125	185.0	/experiments/Knapen_AOT/AOT_stimuli/pictures/1305_fw.png	481.1636848449707	1.0485904216766357
187	215.7256977558136	response	0	k		185.0	/experiments/Knapen_AOT/AOT_stimuli/pictures/1305_fw.png	482.2005171775818	
188	215.73745584487915	picture	0		99	186.0	/experiments/Knapen_AOT/AOT_stimuli/pictures/0944_fw.png	482.21227526664734	0.82639479637146
188	216.55066013336182	response	0	j		186.0	/experiments/Knapen_AOT/AOT_stimuli/pictures/0944_fw.png	483.02547955513	
189	216.5638506412506	picture	0		166	187.0	/experiments/Knapen_AOT/AOT_stimuli/pictures/1750_fw.png	483.0386700630188	1.3888840675354004
189	217.94230842590332	response	0	k		187.0	/experiments/Knapen_AOT/AOT_stimuli/pictures/1750_fw.png	484.4171278476715	
190	217.952734708786	picture	0		120	188.0	/experiments/Knapen_AOT/AOT_stimuli/pictures/1995_fw.png	484.4275541305542	1.006131887435913
190	218.9423234462738	response	0	j		188.0	/experiments/Knapen_AOT/AOT_stimuli/pictures/1995_fw.png	485.417142868042	
191	218.95886659622192	picture	0		147	189.0	/experiments/Knapen_AOT/AOT_stimuli/pictures/1121_fw.png	485.4336860179901	1.2300045490264893
191	220.17568182945251	response	0	j		189.0	/experiments/Knapen_AOT/AOT_stimuli/pictures/1121_fw.png	486.6505012512207	
192	220.1888711452484	picture	0		143	190.0	/experiments/Knapen_AOT/AOT_stimuli/pictures/1003_fw.png	486.6636905670166	1.1949920654296875
192	221.37572765350342	response	0	k		190.0	/experiments/Knapen_AOT/AOT_stimuli/pictures/1003_fw.png	487.8505470752716	
193	221.3838632106781	picture	0		105	191.0	/experiments/Knapen_AOT/AOT_stimuli/pictures/1297_fw.png	487.8586826324463	0.8750121593475342
193	222.2507450580597	response	0	k		191.0	/experiments/Knapen_AOT/AOT_stimuli/pictures/1297_fw.png	488.7255644798279	
194	222.25887537002563	picture	0		121	192.0	/experiments/Knapen_AOT/AOT_stimuli/pictures/0958_fw.png	488.7336947917938	1.0133745670318604
194	223.2590799331665	response	0	k		192.0	/experiments/Knapen_AOT/AOT_stimuli/pictures/0958_fw.png	489.7338993549347	
195	223.2722499370575	picture	0		154	193.0	/experiments/Knapen_AOT/AOT_stimuli/pictures/0472_fw.png	489.7470693588257	1.2783308029174805
195	224.54238271713257	response	0	j		193.0	/experiments/Knapen_AOT/AOT_stimuli/pictures/0472_fw.png	491.01720213890076	
196	224.55058073997498	picture	0		117	194.0	/experiments/Knapen_AOT/AOT_stimuli/pictures/0009_fw.png	491.02540016174316	0.9786138534545898
196	225.51740026474	response	0	j		194.0	/experiments/Knapen_AOT/AOT_stimuli/pictures/0009_fw.png	491.9922196865082	
197	225.52919459342957	picture	0		96	195.0	/experiments/Knapen_AOT/AOT_stimuli/pictures/2074_fw.png	492.00401401519775	0.8047840595245361
197	226.31762671470642	response	0	j		195.0	/experiments/Knapen_AOT/AOT_stimuli/pictures/2074_fw.png	492.7924461364746	
198	226.3339786529541	picture	0		146	196.0	/experiments/Knapen_AOT/AOT_stimuli/pictures/2061_fw.png	492.8087980747223	1.2230110168457031
198	227.54245376586914	response	0	j		196.0	/experiments/Knapen_AOT/AOT_stimuli/pictures/2061_fw.png	494.01727318763733	
199	227.5569896697998	picture	0		121	197.0	/experiments/Knapen_AOT/AOT_stimuli/pictures/0894_fw.png	494.031809091568	1.0186827182769775
199	228.55917143821716	response	0	k		197.0	/experiments/Knapen_AOT/AOT_stimuli/pictures/0894_fw.png	495.03399085998535	
200	228.57567238807678	picture	0		102	198.0	/experiments/Knapen_AOT/AOT_stimuli/pictures/1224_fw.png	495.05049180984497	0.8563494682312012
200	229.4175066947937	response	0	j		198.0	/experiments/Knapen_AOT/AOT_stimuli/pictures/1224_fw.png	495.8923261165619	
201	229.43202185630798	picture	0		130	199.0	/experiments/Knapen_AOT/AOT_stimuli/pictures/0355_fw.png	495.9068412780762	1.093705415725708
201	230.5092203617096	response	0	k		199.0	/experiments/Knapen_AOT/AOT_stimuli/pictures/0355_fw.png	496.9840397834778	
202	230.5257272720337	picture	0		347	200.0	/experiments/Knapen_AOT/AOT_stimuli/pictures/1307_fw.png	497.0005466938019	2.8924882411956787
202	233.40920734405518	response	0	k		200.0	/experiments/Knapen_AOT/AOT_stimuli/pictures/1307_fw.png	499.88402676582336	
203	233.41821551322937	picture	0		166	201.0	/experiments/Knapen_AOT/AOT_stimuli/pictures/0201_fw.png	499.89303493499756	1.3825063705444336
203	234.79255771636963	response	0	k		201.0	/experiments/Knapen_AOT/AOT_stimuli/pictures/0201_fw.png	501.2673771381378	
204	234.8007218837738	picture	0		127	202.0	/experiments/Knapen_AOT/AOT_stimuli/pictures/1658_fw.png	501.275541305542	1.0618929862976074
204	235.8509328365326	response	0	k		202.0	/experiments/Knapen_AOT/AOT_stimuli/pictures/1658_fw.png	502.3257522583008	
205	235.8626148700714	picture	0		118	203.0	/experiments/Knapen_AOT/AOT_stimuli/pictures/1060_fw.png	502.3374342918396	0.9881558418273926
205	236.834228515625	response	0	k		203.0	/experiments/Knapen_AOT/AOT_stimuli/pictures/1060_fw.png	503.3090479373932	
206	236.8507707118988	picture	0		94	204.0	/experiments/Knapen_AOT/AOT_stimuli/pictures/1592_fw.png	503.325590133667	0.7896277904510498
206	237.6186351776123	response	0	k		204.0	/experiments/Knapen_AOT/AOT_stimuli/pictures/1592_fw.png	504.0934545993805	
207	237.64039850234985	picture	0		104	205.0	/experiments/Knapen_AOT/AOT_stimuli/pictures/0853_fw.png	504.11521792411804	0.8686931133270264
207	238.50090980529785	response	0	k		205.0	/experiments/Knapen_AOT/AOT_stimuli/pictures/0853_fw.png	504.97572922706604	
208	238.50909161567688	picture	0		119	206.0	/experiments/Knapen_AOT/AOT_stimuli/pictures/2116_fw.png	504.98391103744507	0.9924180507659912
208	239.49257349967957	response	0	k		206.0	/experiments/Knapen_AOT/AOT_stimuli/pictures/2116_fw.png	505.96739292144775	
209	239.50150966644287	picture	0		145	207.0	/experiments/Knapen_AOT/AOT_stimuli/pictures/1176_fw.png	505.97632908821106	1.2083616256713867
209	240.70093631744385	response	0	k		207.0	/experiments/Knapen_AOT/AOT_stimuli/pictures/1176_fw.png	507.17575573921204	
210	240.70987129211426	picture	0		246	208.0	/experiments/Knapen_AOT/AOT_stimuli/pictures/2012_fw.png	507.18469071388245	2.0576534271240234
210	242.75175261497498	response	0	k		208.0	/experiments/Knapen_AOT/AOT_stimuli/pictures/2012_fw.png	509.22657203674316	
211	242.76752471923828	picture	0		204	209.0	/experiments/Knapen_AOT/AOT_stimuli/pictures/0923_fw.png	509.24234414100647	1.7062747478485107
211	244.45934104919434	response	0	k		209.0	/experiments/Knapen_AOT/AOT_stimuli/pictures/0923_fw.png	510.9341604709625	
212	244.4737994670868	picture	0		139	210.0	/experiments/Knapen_AOT/AOT_stimuli/pictures/1737_fw.png	510.948618888855	1.1687421798706055
212	245.62671494483948	response	0	k		210.0	/experiments/Knapen_AOT/AOT_stimuli/pictures/1737_fw.png	512.1015343666077	
213	245.6425416469574	picture	0		115	211.0	/experiments/Knapen_AOT/AOT_stimuli/pictures/0697_fw.png	512.1173610687256	0.9666769504547119
213	246.59269213676453	response	0	k		211.0	/experiments/Knapen_AOT/AOT_stimuli/pictures/0697_fw.png	513.0675115585327	
214	246.6092185974121	picture	0		143	212.0	/experiments/Knapen_AOT/AOT_stimuli/pictures/0863_fw.png	513.0840380191803	1.2000410556793213
214	247.7927451133728	response	0	j		212.0	/experiments/Knapen_AOT/AOT_stimuli/pictures/0863_fw.png	514.267564535141	
215	247.80925965309143	picture	0		114	213.0	/experiments/Knapen_AOT/AOT_stimuli/pictures/0824_fw.png	514.2840790748596	0.9583163261413574
215	248.75105714797974	response	0	j		213.0	/experiments/Knapen_AOT/AOT_stimuli/pictures/0824_fw.png	515.2258765697479	
216	248.7675759792328	picture	0		144	214.0	/experiments/Knapen_AOT/AOT_stimuli/pictures/1398_fw.png	515.242395401001	1.208353042602539
216	249.95946145057678	response	0	k		214.0	/experiments/Knapen_AOT/AOT_stimuli/pictures/1398_fw.png	516.434280872345	
217	249.97592902183533	picture	0		102	215.0	/experiments/Knapen_AOT/AOT_stimuli/pictures/1262_fw.png	516.4507484436035	0.8520400524139404
217	250.8103334903717	response	0	j		215.0	/experiments/Knapen_AOT/AOT_stimuli/pictures/1262_fw.png	517.2851529121399	
218	250.82796907424927	picture	0		114	216.0	/experiments/Knapen_AOT/AOT_stimuli/pictures/0562_fw.png	517.3027884960175	0.9514083862304688
218	251.76776671409607	response	0	j		216.0	/experiments/Knapen_AOT/AOT_stimuli/pictures/0562_fw.png	518.2425861358643	
219	251.77937746047974	picture	0		129	217.0	/experiments/Knapen_AOT/AOT_stimuli/pictures/0821_fw.png	518.2541968822479	1.0799319744110107
219	252.8427939414978	response	0	k		217.0	/experiments/Knapen_AOT/AOT_stimuli/pictures/0821_fw.png	519.317613363266	
220	252.85930943489075	picture	0		117	218.0	/experiments/Knapen_AOT/AOT_stimuli/pictures/1287_fw.png	519.3341288566589	0.9833240509033203
220	253.8263578414917	response	0	k		218.0	/experiments/Knapen_AOT/AOT_stimuli/pictures/1287_fw.png	520.3011772632599	
221	253.84263348579407	picture	0		256	219.0	/experiments/Knapen_AOT/AOT_stimuli/pictures/1706_fw.png	520.3174529075623	2.1520707607269287
221	255.9678304195404	response	0	k		219.0	/experiments/Knapen_AOT/AOT_stimuli/pictures/1706_fw.png	522.4426498413086	
222	255.994704246521	picture	0		329	220.0	/experiments/Knapen_AOT/AOT_stimuli/pictures/0239_fw.png	522.4695236682892	2.7430572509765625
222	258.72616052627563	response	0	k		220.0	/experiments/Knapen_AOT/AOT_stimuli/pictures/0239_fw.png	525.2009799480438	
223	258.73776149749756	picture	0		117	221.0	/experiments/Knapen_AOT/AOT_stimuli/pictures/0383_fw.png	525.2125809192657	0.9722154140472412
223	259.7011547088623	response	0	j		221.0	/experiments/Knapen_AOT/AOT_stimuli/pictures/0383_fw.png	526.1759741306305	
224	259.7099769115448	picture	0		182	222.0	/experiments/Knapen_AOT/AOT_stimuli/pictures/0026_fw.png	526.184796333313	1.524423599243164
224	261.21065855026245	response	0	k		222.0	/experiments/Knapen_AOT/AOT_stimuli/pictures/0026_fw.png	527.6854779720306	
225	261.23440051078796	picture	0		305	223.0	/experiments/Knapen_AOT/AOT_stimuli/pictures/1151_fw.png	527.7092199325562	2.545048713684082
225	263.76789903640747	response	0	j		223.0	/experiments/Knapen_AOT/AOT_stimuli/pictures/1151_fw.png	530.2427184581757	
226	263.77944922447205	picture	0		100	224.0	/experiments/Knapen_AOT/AOT_stimuli/pictures/1970_fw.png	530.2542686462402	0.8383042812347412
226	264.601233959198	response	0	j		224.0	/experiments/Knapen_AOT/AOT_stimuli/pictures/1970_fw.png	531.0760533809662	
227	264.6177535057068	picture	0		107	225.0	/experiments/Knapen_AOT/AOT_stimuli/pictures/0556_fw.png	531.092572927475	0.8978374004364014
227	265.50142097473145	response	0	k		225.0	/experiments/Knapen_AOT/AOT_stimuli/pictures/0556_fw.png	531.9762403964996	
228	265.5155909061432	picture	0		110	226.0	/experiments/Knapen_AOT/AOT_stimuli/pictures/1042_fw.png	531.9904103279114	0.9236164093017578
228	266.4186613559723	response	0	k		226.0	/experiments/Knapen_AOT/AOT_stimuli/pictures/1042_fw.png	532.8934807777405	
229	266.43920731544495	picture	0		112	227.0	/experiments/Knapen_AOT/AOT_stimuli/pictures/2029_fw.png	532.9140267372131	0.9374914169311523
229	267.3680965900421	response	0	k		227.0	/experiments/Knapen_AOT/AOT_stimuli/pictures/2029_fw.png	533.8429160118103	
230	267.3766987323761	picture	0		98	228.0	/experiments/Knapen_AOT/AOT_stimuli/pictures/2137_fw.png	533.8515181541443	0.8244569301605225
230	268.1845898628235	response	0	j		228.0	/experiments/Knapen_AOT/AOT_stimuli/pictures/2137_fw.png	534.6594092845917	
231	268.2011556625366	picture	0		132	229.0	/experiments/Knapen_AOT/AOT_stimuli/pictures/2020_fw.png	534.6759750843048	1.1083643436431885
231	269.29309463500977	response	0	j		229.0	/experiments/Knapen_AOT/AOT_stimuli/pictures/2020_fw.png	535.767914056778	
232	269.3095200061798	picture	0		86	230.0	/experiments/Knapen_AOT/AOT_stimuli/pictures/1367_fw.png	535.784339427948	0.7199819087982178
232	270.01066064834595	response	0	j		230.0	/experiments/Knapen_AOT/AOT_stimuli/pictures/1367_fw.png	536.4854800701141	
233	270.029501914978	picture	0		120	231.0	/experiments/Knapen_AOT/AOT_stimuli/pictures/1791_fw.png	536.5043213367462	0.9999973773956299
233	271.01123690605164	response	0	j		231.0	/experiments/Knapen_AOT/AOT_stimuli/pictures/1791_fw.png	537.4860563278198	
234	271.02949929237366	picture	0		105	232.0	/experiments/Knapen_AOT/AOT_stimuli/pictures/2084_fw.png	537.5043187141418	0.8750064373016357
234	271.89297556877136	response	0	j		232.0	/experiments/Knapen_AOT/AOT_stimuli/pictures/2084_fw.png	538.3677949905396	
235	271.9045057296753	picture	0		126	233.0	/experiments/Knapen_AOT/AOT_stimuli/pictures/1226_fw.png	538.3793251514435	1.0550272464752197
235	272.94303369522095	response	0	k		233.0	/experiments/Knapen_AOT/AOT_stimuli/pictures/1226_fw.png	539.4178531169891	
236	272.9595329761505	picture	0		179	234.0	/experiments/Knapen_AOT/AOT_stimuli/pictures/0344_fw.png	539.4343523979187	1.5000553131103516
236	274.4430339336395	response	0	j		234.0	/experiments/Knapen_AOT/AOT_stimuli/pictures/0344_fw.png	540.9178533554077	
237	274.45958828926086	picture	0		204	235.0	/experiments/Knapen_AOT/AOT_stimuli/pictures/1585_fw.png	540.934407711029	1.7083311080932617
237	276.1513571739197	response	0	k		235.0	/experiments/Knapen_AOT/AOT_stimuli/pictures/1585_fw.png	542.6261765956879	
238	276.1679193973541	picture	0		183	236.0	/experiments/Knapen_AOT/AOT_stimuli/pictures/1096_fw.png	542.6427388191223	1.5282902717590332
238	277.6849801540375	response	0	j		236.0	/experiments/Knapen_AOT/AOT_stimuli/pictures/1096_fw.png	544.1597995758057	
239	277.69620966911316	picture	0		112	237.0	/experiments/Knapen_AOT/AOT_stimuli/pictures/0845_fw.png	544.1710290908813	0.9383878707885742
239	278.61078667640686	response	0	k		237.0	/experiments/Knapen_AOT/AOT_stimuli/pictures/0845_fw.png	545.085606098175	
240	278.63459753990173	picture	0		137	238.0	/experiments/Knapen_AOT/AOT_stimuli/pictures/0614_fw.png	545.1094169616699	1.1449532508850098
240	279.7680995464325	response	0	j		238.0	/experiments/Knapen_AOT/AOT_stimuli/pictures/0614_fw.png	546.2429189682007	
241	279.77955079078674	picture	0		240	239.0	/experiments/Knapen_AOT/AOT_stimuli/pictures/0940_fw.png	546.2543702125549	2.0000250339508057
241	281.7681248188019	response	0	k		239.0	/experiments/Knapen_AOT/AOT_stimuli/pictures/0940_fw.png	548.2429442405701	
242	281.77957582473755	picture	0		102	240.0	/experiments/Knapen_AOT/AOT_stimuli/pictures/1937_fw.png	548.2543952465057	0.8550682067871094
242	282.6185636520386	response	0	j		240.0	/experiments/Knapen_AOT/AOT_stimuli/pictures/1937_fw.png	549.0933830738068	
243	282.63464403152466	picture	0		182	241.0	/experiments/Knapen_AOT/AOT_stimuli/pictures/0998_fw.png	549.1094634532928	1.525054931640625
243	284.14338660240173	response	0	j		241.0	/experiments/Knapen_AOT/AOT_stimuli/pictures/0998_fw.png	550.6182060241699	
244	284.1596989631653	picture	0		103	242.0	/experiments/Knapen_AOT/AOT_stimuli/pictures/1457_fw.png	550.6345183849335	0.8629505634307861
244	285.0098457336426	response	0	k		242.0	/experiments/Knapen_AOT/AOT_stimuli/pictures/1457_fw.png	551.4846651554108	
245	285.02264952659607	picture	0		116	243.0	/experiments/Knapen_AOT/AOT_stimuli/pictures/1687_fw.png	551.4974689483643	0.9791746139526367
245	285.98504281044006	response	0	k		243.0	/experiments/Knapen_AOT/AOT_stimuli/pictures/1687_fw.png	552.4598622322083	
246	286.0018241405487	picture	0		106	244.0	/experiments/Knapen_AOT/AOT_stimuli/pictures/1808_fw.png	552.4766435623169	0.8912158012390137
246	286.87655782699585	response	0	k		244.0	/experiments/Knapen_AOT/AOT_stimuli/pictures/1808_fw.png	553.351377248764	
247	286.8930399417877	picture	0		165	245.0	/experiments/Knapen_AOT/AOT_stimuli/pictures/1784_fw.png	553.3678593635559	1.3833396434783936
247	288.2598330974579	response	0	k		245.0	/experiments/Knapen_AOT/AOT_stimuli/pictures/1784_fw.png	554.7346525192261	
248	288.2763795852661	picture	0		236	246.0	/experiments/Knapen_AOT/AOT_stimuli/pictures/1661_fw.png	554.7511990070343	1.96852445602417
248	290.23487091064453	response	0	j		246.0	/experiments/Knapen_AOT/AOT_stimuli/pictures/1661_fw.png	556.7096903324127	
249	290.2449040412903	picture	0		131	247.0	/experiments/Knapen_AOT/AOT_stimuli/pictures/1099_fw.png	556.7197234630585	1.0902957916259766
249	291.32653069496155	response	0	k		247.0	/experiments/Knapen_AOT/AOT_stimuli/pictures/1099_fw.png	557.8013501167297	
250	291.33519983291626	picture	0		102	248.0	/experiments/Knapen_AOT/AOT_stimuli/pictures/0372_fw.png	557.8100192546844	0.8541820049285889
250	292.176552772522	response	0	k		248.0	/experiments/Knapen_AOT/AOT_stimuli/pictures/0372_fw.png	558.6513721942902	
251	292.18938183784485	picture	0		134	249.0	/experiments/Knapen_AOT/AOT_stimuli/pictures/0544_fw.png	558.664201259613	1.1180481910705566
251	293.29334020614624	response	0	j		249.0	/experiments/Knapen_AOT/AOT_stimuli/pictures/0544_fw.png	559.7681596279144	
252	293.3074300289154	picture	0		88	250.0	/experiments/Knapen_AOT/AOT_stimuli/pictures/1255_fw.png	559.7822494506836	0.744030237197876
252	294.03491139411926	response	0	j		250.0	/experiments/Knapen_AOT/AOT_stimuli/pictures/1255_fw.png	560.5097308158875	
253	294.0514602661133	picture	0		376	251.0	/experiments/Knapen_AOT/AOT_stimuli/pictures/0364_fw.png	560.5262796878815	3.137930154800415
253	297.17661213874817	response	0	k		251.0	/experiments/Knapen_AOT/AOT_stimuli/pictures/0364_fw.png	563.6514315605164	
254	297.1893904209137	picture	0		111	252.0	/experiments/Knapen_AOT/AOT_stimuli/pictures/1515_fw.png	563.6642098426819	0.9236154556274414
254	298.1016426086426	response	0	k		252.0	/experiments/Knapen_AOT/AOT_stimuli/pictures/1515_fw.png	564.5764620304108	
255	298.11300587654114	picture	0		226	253.0	/experiments/Knapen_AOT/AOT_stimuli/pictures/0780_fw.png	564.5878252983093	1.8819527626037598
255	299.98498344421387	response	0	j		253.0	/experiments/Knapen_AOT/AOT_stimuli/pictures/0780_fw.png	566.459802865982	
256	299.9949586391449	picture	0		336	254.0	/experiments/Knapen_AOT/AOT_stimuli/pictures/0496_fw.png	566.4697780609131	2.8066277503967285
256	302.7850115299225	response	0	k		254.0	/experiments/Knapen_AOT/AOT_stimuli/pictures/0496_fw.png	569.2598309516907	
257	302.8015863895416	picture	0		127	255.0	/experiments/Knapen_AOT/AOT_stimuli/pictures/1675_fw.png	569.2764058113098	1.0614607334136963
257	303.8517107963562	response	0	j		255.0	/experiments/Knapen_AOT/AOT_stimuli/pictures/1675_fw.png	570.3265302181244	
258	303.8630471229553	picture	0		187	256.0	/experiments/Knapen_AOT/AOT_stimuli/pictures/1954_fw.png	570.3378665447235	1.5555386543273926
258	305.4025263786316	response	0	k		256.0	/experiments/Knapen_AOT/AOT_stimuli/pictures/1954_fw.png	571.8773458003998	
259	305.4185857772827	picture	0		155	257.0	/experiments/Knapen_AOT/AOT_stimuli/pictures/1927_fw.png	571.8934051990509	1.2996718883514404
259	306.70173144340515	response	0	j		257.0	/experiments/Knapen_AOT/AOT_stimuli/pictures/1927_fw.png	573.1765508651733	
260	306.71825766563416	picture	0		101	258.0	/experiments/Knapen_AOT/AOT_stimuli/pictures/0743_fw.png	573.1930770874023	0.8462188243865967
260	307.5517592430115	response	0	j		258.0	/experiments/Knapen_AOT/AOT_stimuli/pictures/0743_fw.png	574.0265786647797	
261	307.56447649002075	picture	0		138	259.0	/experiments/Knapen_AOT/AOT_stimuli/pictures/0234_fw.png	574.0392959117889	1.1538197994232178
261	308.7017776966095	response	0	k		259.0	/experiments/Knapen_AOT/AOT_stimuli/pictures/0234_fw.png	575.1765971183777	
262	308.71829628944397	picture	0		175	260.0	/experiments/Knapen_AOT/AOT_stimuli/pictures/1660_fw.png	575.1931157112122	1.466712236404419
262	310.16844153404236	response	0	k		260.0	/experiments/Knapen_AOT/AOT_stimuli/pictures/1660_fw.png	576.6432609558105	
263	310.1850085258484	picture	0		471	261.0	/experiments/Knapen_AOT/AOT_stimuli/pictures/1655_fw.png	576.6598279476166	3.9333436489105225
263	314.10184025764465	response	0	k		261.0	/experiments/Knapen_AOT/AOT_stimuli/pictures/1655_fw.png	580.5766596794128	
264	314.1183521747589	picture	0		106	262.0	/experiments/Knapen_AOT/AOT_stimuli/pictures/1204_fw.png	580.5931715965271	0.8836300373077393
264	314.98669385910034	response	0	k		262.0	/experiments/Knapen_AOT/AOT_stimuli/pictures/1204_fw.png	581.4615132808685	
265	315.00198221206665	picture	0		201	263.0	/experiments/Knapen_AOT/AOT_stimuli/pictures/0294_fw.png	581.4768016338348	1.683074712753296
265	316.66852140426636	response	0	k		263.0	/experiments/Knapen_AOT/AOT_stimuli/pictures/0294_fw.png	583.1433408260345	
266	316.68505692481995	picture	0		173	264.0	/experiments/Knapen_AOT/AOT_stimuli/pictures/1825_fw.png	583.1598763465881	1.4419569969177246
266	318.1185507774353	response	0	k		264.0	/experiments/Knapen_AOT/AOT_stimuli/pictures/1825_fw.png	584.5933701992035	
267	318.12701392173767	picture	0		131	265.0	/experiments/Knapen_AOT/AOT_stimuli/pictures/0470_fw.png	584.6018333435059	1.0997450351715088
267	319.20275259017944	response	0	j		265.0	/experiments/Knapen_AOT/AOT_stimuli/pictures/0470_fw.png	585.6775720119476	
268	319.2267589569092	picture	0		97	266.0	/experiments/Knapen_AOT/AOT_stimuli/pictures/0433_fw.png	585.7015783786774	0.8166923522949219
268	320.02695298194885	response	0	j		266.0	/experiments/Knapen_AOT/AOT_stimuli/pictures/0433_fw.png	586.501772403717	
269	320.0434513092041	picture	0		106	267.0	/experiments/Knapen_AOT/AOT_stimuli/pictures/1699_fw.png	586.5182707309723	0.8916616439819336
269	320.91856575012207	response	0	k		267.0	/experiments/Knapen_AOT/AOT_stimuli/pictures/1699_fw.png	587.3933851718903	
270	320.93511295318604	picture	0		117	268.0	/experiments/Knapen_AOT/AOT_stimuli/pictures/0412_fw.png	587.4099323749542	0.9833295345306396
270	321.901953458786	response	0	k		268.0	/experiments/Knapen_AOT/AOT_stimuli/pictures/0412_fw.png	588.3767728805542	
271	321.9184424877167	picture	0		93	269.0	/experiments/Knapen_AOT/AOT_stimuli/pictures/1288_fw.png	588.3932619094849	0.7781476974487305
271	322.68527460098267	response	0	j		269.0	/experiments/Knapen_AOT/AOT_stimuli/pictures/1288_fw.png	589.1600940227509	
272	322.6965901851654	picture	0		443	270.0	/experiments/Knapen_AOT/AOT_stimuli/pictures/2092_fw.png	589.1714096069336	3.6969258785247803
272	326.3769817352295	response	0	k		270.0	/experiments/Knapen_AOT/AOT_stimuli/pictures/2092_fw.png	592.8518011569977	
273	326.3935160636902	picture	0		208	271.0	/experiments/Knapen_AOT/AOT_stimuli/pictures/2036_fw.png	592.8683354854584	1.7416810989379883
273	328.1194257736206	response	0	k		271.0	/experiments/Knapen_AOT/AOT_stimuli/pictures/2036_fw.png	594.5942451953888	
274	328.1351971626282	picture	0		97	272.0	/experiments/Knapen_AOT/AOT_stimuli/pictures/0761_fw.png	594.6100165843964	0.8166825771331787
274	328.9353446960449	response	0	j		272.0	/experiments/Knapen_AOT/AOT_stimuli/pictures/0761_fw.png	595.4101641178131	
275	328.95187973976135	picture	0		94	273.0	/experiments/Knapen_AOT/AOT_stimuli/pictures/1607_fw.png	595.4266991615295	0.7916638851165771
275	329.7270178794861	response	0	k		273.0	/experiments/Knapen_AOT/AOT_stimuli/pictures/1607_fw.png	596.2018373012543	
276	329.74354362487793	picture	0		112	274.0	/experiments/Knapen_AOT/AOT_stimuli/pictures/0569_fw.png	596.2183630466461	0.9391655921936035
276	330.66874980926514	response	0	k		274.0	/experiments/Knapen_AOT/AOT_stimuli/pictures/0569_fw.png	597.1435692310333	
277	330.68270921707153	picture	0		101	275.0	/experiments/Knapen_AOT/AOT_stimuli/pictures/0230_fw.png	597.1575286388397	0.8525667190551758
277	331.51870012283325	response	0	j		275.0	/experiments/Knapen_AOT/AOT_stimuli/pictures/0230_fw.png	597.9935195446014	
278	331.5352759361267	picture	0		107	276.0	/experiments/Knapen_AOT/AOT_stimuli/pictures/1358_fw.png	598.0100953578949	0.8974044322967529
278	332.4187593460083	response	0	j		276.0	/experiments/Knapen_AOT/AOT_stimuli/pictures/1358_fw.png	598.8935787677765	
279	332.43268036842346	picture	0		110	277.0	/experiments/Knapen_AOT/AOT_stimuli/pictures/0457_fw.png	598.9074997901917	0.9236388206481934
279	333.3437464237213	response	0	k		277.0	/experiments/Knapen_AOT/AOT_stimuli/pictures/0457_fw.png	599.8185658454895	
280	333.35631918907166	picture	0		151	278.0	/experiments/Knapen_AOT/AOT_stimuli/pictures/1775_fw.png	599.8311386108398	1.2569472789764404
280	334.59459471702576	response	0	k		278.0	/experiments/Knapen_AOT/AOT_stimuli/pictures/1775_fw.png	601.069414138794	
281	334.6132664680481	picture	0		262	279.0	/experiments/Knapen_AOT/AOT_stimuli/pictures/0751_fw.png	601.0880858898163	2.1970455646514893
281	336.7938005924225	response	0	k		279.0	/experiments/Knapen_AOT/AOT_stimuli/pictures/0751_fw.png	603.2686200141907	
282	336.8103120326996	picture	0		99	280.0	/experiments/Knapen_AOT/AOT_stimuli/pictures/0790_fw.png	603.2851314544678	0.8333175182342529
282	337.62711787223816	response	0	j		280.0	/experiments/Knapen_AOT/AOT_stimuli/pictures/0790_fw.png	604.1019372940063	
283	337.64362955093384	picture	0		97	281.0	/experiments/Knapen_AOT/AOT_stimuli/pictures/1055_fw.png	604.118448972702	0.8168783187866211
283	338.443959236145	response	0	j		281.0	/experiments/Knapen_AOT/AOT_stimuli/pictures/1055_fw.png	604.9187786579132	
284	338.46050786972046	picture	0		116	282.0	/experiments/Knapen_AOT/AOT_stimuli/pictures/1145_fw.png	604.9353272914886	0.9748353958129883
284	339.4190249443054	response	0	j		282.0	/experiments/Knapen_AOT/AOT_stimuli/pictures/1145_fw.png	605.8938443660736	
285	339.43534326553345	picture	0		206	283.0	/experiments/Knapen_AOT/AOT_stimuli/pictures/0929_fw.png	605.9101626873016	1.7196176052093506
285	341.1438248157501	response	0	k		283.0	/experiments/Knapen_AOT/AOT_stimuli/pictures/0929_fw.png	607.6186442375183	
286	341.1549608707428	picture	0		79	284.0	/experiments/Knapen_AOT/AOT_stimuli/pictures/0075_fw.png	607.629780292511	0.6638190746307373
286	341.79449558258057	response	0	k		284.0	/experiments/Knapen_AOT/AOT_stimuli/pictures/0075_fw.png	608.2693150043488	
287	341.81877994537354	picture	0		180	285.0	/experiments/Knapen_AOT/AOT_stimuli/pictures/1173_fw.png	608.2935993671417	1.5082809925079346
287	343.3104922771454	response	0	k		285.0	/experiments/Knapen_AOT/AOT_stimuli/pictures/1173_fw.png	609.7853116989136	
288	343.32706093788147	picture	0		107	286.0	/experiments/Knapen_AOT/AOT_stimuli/pictures/1636_fw.png	609.8018803596497	0.897371768951416
288	344.2105107307434	response	0	j		286.0	/experiments/Knapen_AOT/AOT_stimuli/pictures/1636_fw.png	610.6853301525116	
289	344.2244327068329	picture	0		100	287.0	/experiments/Knapen_AOT/AOT_stimuli/pictures/0613_fw.png	610.6992521286011	0.8443202972412109
289	345.05219554901123	response	0	j		287.0	/experiments/Knapen_AOT/AOT_stimuli/pictures/0613_fw.png	611.5270149707794	
290	345.0687530040741	picture	0		98	288.0	/experiments/Knapen_AOT/AOT_stimuli/pictures/0646_fw.png	611.5435724258423	0.8250033855438232
290	345.877347946167	response	0	j		288.0	/experiments/Knapen_AOT/AOT_stimuli/pictures/0646_fw.png	612.3521673679352	
291	345.8937563896179	picture	0		245	289.0	/experiments/Knapen_AOT/AOT_stimuli/pictures/1858_fw.png	612.3685758113861	2.050002336502075
291	347.92725706100464	response	0	k		289.0	/experiments/Knapen_AOT/AOT_stimuli/pictures/1858_fw.png	614.4020764827728	
292	347.94375872612	picture	0		94	290.0	/experiments/Knapen_AOT/AOT_stimuli/pictures/0087_fw.png	614.4185781478882	0.7876543998718262
292	348.7189247608185	response	0	k		290.0	/experiments/Knapen_AOT/AOT_stimuli/pictures/0087_fw.png	615.1937441825867	
293	348.7314131259918	picture	0		159	291.0	/experiments/Knapen_AOT/AOT_stimuli/pictures/0091_fw.png	615.20623254776	1.3290724754333496
293	350.04395389556885	response	0	j		291.0	/experiments/Knapen_AOT/AOT_stimuli/pictures/0091_fw.png	616.518773317337	
294	350.06048560142517	picture	0		90	292.0	/experiments/Knapen_AOT/AOT_stimuli/pictures/0717_fw.png	616.5353050231934	0.7582981586456299
294	350.8025529384613	response	0	j		292.0	/experiments/Knapen_AOT/AOT_stimuli/pictures/0717_fw.png	617.2773723602295	
295	350.8187837600708	picture	0		157	293.0	/experiments/Knapen_AOT/AOT_stimuli/pictures/0468_fw.png	617.293603181839	1.3167424201965332
295	352.11898922920227	response	0	k		293.0	/experiments/Knapen_AOT/AOT_stimuli/pictures/0468_fw.png	618.5938086509705	
296	352.13552618026733	picture	0		105	294.0	/experiments/Knapen_AOT/AOT_stimuli/pictures/0135_fw.png	618.6103456020355	0.8833012580871582
296	353.00239062309265	response	0	j		294.0	/experiments/Knapen_AOT/AOT_stimuli/pictures/0135_fw.png	619.4772100448608	
297	353.0188274383545	picture	0		140	295.0	/experiments/Knapen_AOT/AOT_stimuli/pictures/1895_fw.png	619.4936468601227	1.1751344203948975
297	354.17727994918823	response	0	k		295.0	/experiments/Knapen_AOT/AOT_stimuli/pictures/1895_fw.png	620.6520993709564	
298	354.1939618587494	picture	0		349	296.0	/experiments/Knapen_AOT/AOT_stimuli/pictures/1143_fw.png	620.6687812805176	2.9165806770324707
298	357.0940239429474	response	0	j		296.0	/experiments/Knapen_AOT/AOT_stimuli/pictures/1143_fw.png	623.5688433647156	
299	357.11054253578186	picture	0		210	297.0	/experiments/Knapen_AOT/AOT_stimuli/pictures/0113_fw.png	623.58536195755	1.75836181640625
299	358.8523635864258	response	0	j		297.0	/experiments/Knapen_AOT/AOT_stimuli/pictures/0113_fw.png	625.327183008194	
300	358.8689043521881	picture	0		118	298.0	/experiments/Knapen_AOT/AOT_stimuli/pictures/1136_fw.png	625.3437237739563	0.9916908740997314
300	359.8440454006195	response	0	j		298.0	/experiments/Knapen_AOT/AOT_stimuli/pictures/1136_fw.png	626.3188648223877	
301	359.86059522628784	picture	0		328	299.0	/experiments/Knapen_AOT/AOT_stimuli/pictures/1356_fw.png	626.335414648056	2.7416961193084717
301	362.5857353210449	response	0	k		299.0	/experiments/Knapen_AOT/AOT_stimuli/pictures/1356_fw.png	629.0605547428131	
302	362.6022913455963	picture	0		91	300.0	/experiments/Knapen_AOT/AOT_stimuli/pictures/1098_fw.png	629.0771107673645	0.7666361331939697
302	363.3524124622345	response	0	k		300.0	/experiments/Knapen_AOT/AOT_stimuli/pictures/1098_fw.png	629.8272318840027	
303	363.3689274787903	picture	0		117	301.0	/experiments/Knapen_AOT/AOT_stimuli/pictures/1215_fw.png	629.8437469005585	0.980633020401001
303	364.33583879470825	response	0	j		301.0	/experiments/Knapen_AOT/AOT_stimuli/pictures/1215_fw.png	630.8106582164764	
304	364.3495604991913	picture	0		97	302.0	/experiments/Knapen_AOT/AOT_stimuli/pictures/1591_fw.png	630.8243799209595	0.8194124698638916
304	365.1524486541748	response	0	k		302.0	/experiments/Knapen_AOT/AOT_stimuli/pictures/1591_fw.png	631.627268075943	
305	365.1689729690552	picture	0		101	303.0	/experiments/Knapen_AOT/AOT_stimuli/pictures/0510_fw.png	631.6437923908234	0.8499987125396729
305	365.99617290496826	response	0	k		303.0	/experiments/Knapen_AOT/AOT_stimuli/pictures/0510_fw.png	632.4709923267365	
306	366.01897168159485	picture	0		192	304.0	/experiments/Knapen_AOT/AOT_stimuli/pictures/1962_fw.png	632.493791103363	1.6083834171295166
306	367.610799074173	response	0	k		304.0	/experiments/Knapen_AOT/AOT_stimuli/pictures/1962_fw.png	634.0856184959412	
307	367.62735509872437	picture	0		131	305.0	/experiments/Knapen_AOT/AOT_stimuli/pictures/1542_fw.png	634.1021745204926	1.0972347259521484
307	368.71081924438477	response	0	k		305.0	/experiments/Knapen_AOT/AOT_stimuli/pictures/1542_fw.png	635.185638666153	
308	368.7245898246765	picture	0		96	306.0	/experiments/Knapen_AOT/AOT_stimuli/pictures/1694_fw.png	635.1994092464447	0.8111474514007568
308	369.51921796798706	response	0	j		306.0	/experiments/Knapen_AOT/AOT_stimuli/pictures/1694_fw.png	635.9940373897552	
309	369.53573727607727	picture	0		171	307.0	/experiments/Knapen_AOT/AOT_stimuli/pictures/1800_fw.png	636.0105566978455	1.4333305358886719
309	370.95250511169434	response	0	j		307.0	/experiments/Knapen_AOT/AOT_stimuli/pictures/1800_fw.png	637.4273245334625	
310	370.96906781196594	picture	0		109	308.0	/experiments/Knapen_AOT/AOT_stimuli/pictures/0042_fw.png	637.4438872337341	0.9166512489318848
310	371.86920070648193	response	0	k		308.0	/experiments/Knapen_AOT/AOT_stimuli/pictures/0042_fw.png	638.3440201282501	
311	371.8857190608978	picture	0		350	309.0	/experiments/Knapen_AOT/AOT_stimuli/pictures/0330_fw.png	638.360538482666	2.92507266998291
311	374.7945363521576	response	0	k		309.0	/experiments/Knapen_AOT/AOT_stimuli/pictures/0330_fw.png	641.2693557739258	
312	374.81079173088074	picture	0		128	310.0	/experiments/Knapen_AOT/AOT_stimuli/pictures/0200_fw.png	641.2856111526489	1.0749783515930176
312	375.8692536354065	response	0	k		310.0	/experiments/Knapen_AOT/AOT_stimuli/pictures/0200_fw.png	642.3440730571747	
313	375.88577008247375	picture	0		107	311.0	/experiments/Knapen_AOT/AOT_stimuli/pictures/1836_fw.png	642.360589504242	0.8999948501586914
313	376.7693178653717	response	0	j		311.0	/experiments/Knapen_AOT/AOT_stimuli/pictures/1836_fw.png	643.2441372871399	
314	376.78576493263245	picture	0		161	312.0	/experiments/Knapen_AOT/AOT_stimuli/pictures/1997_fw.png	643.2605843544006	1.350029468536377
314	378.119259595871	response	0	j		312.0	/experiments/Knapen_AOT/AOT_stimuli/pictures/1997_fw.png	644.5940790176392	
315	378.1357944011688	picture	0		101	313.0	/experiments/Knapen_AOT/AOT_stimuli/pictures/2069_fw.png	644.610613822937	0.8458483219146729
315	378.9693064689636	response	0	j		313.0	/experiments/Knapen_AOT/AOT_stimuli/pictures/2069_fw.png	645.4441258907318	
316	378.9816427230835	picture	0		98	314.0	/experiments/Knapen_AOT/AOT_stimuli/pictures/0728_fw.png	645.4564621448517	0.8292033672332764
316	379.7945194244385	response	0	k		314.0	/experiments/Knapen_AOT/AOT_stimuli/pictures/0728_fw.png	646.2693388462067	
317	379.8108460903168	picture	0		155	315.0	/experiments/Knapen_AOT/AOT_stimuli/pictures/0194_fw.png	646.285665512085	1.2957897186279297
317	381.09437227249146	response	0	j		315.0	/experiments/Knapen_AOT/AOT_stimuli/pictures/0194_fw.png	647.5691916942596	
318	381.1066358089447	picture	0		152	316.0	/experiments/Knapen_AOT/AOT_stimuli/pictures/1049_fw.png	647.5814552307129	1.2708690166473389
318	382.36110043525696	response	0	k		316.0	/experiments/Knapen_AOT/AOT_stimuli/pictures/1049_fw.png	648.8359198570251	
319	382.37750482559204	picture	0		95	317.0	/experiments/Knapen_AOT/AOT_stimuli/pictures/1622_fw.png	648.8523242473602	0.8000140190124512
319	383.1609742641449	response	0	k		317.0	/experiments/Knapen_AOT/AOT_stimuli/pictures/1622_fw.png	649.6357936859131	
320	383.1775188446045	picture	0		107	318.0	/experiments/Knapen_AOT/AOT_stimuli/pictures/0153_fw.png	649.6523382663727	0.894399881362915
320	384.06100392341614	response	0	k		318.0	/experiments/Knapen_AOT/AOT_stimuli/pictures/0153_fw.png	650.5358233451843	
321	384.0719187259674	picture	0		110	319.0	/experiments/Knapen_AOT/AOT_stimuli/pictures/0361_fw.png	650.5467381477356	0.9166965484619141
321	384.9777030944824	response	0	k		319.0	/experiments/Knapen_AOT/AOT_stimuli/pictures/0361_fw.png	651.4525225162506	
322	384.9886152744293	picture	0		102	320.0	/experiments/Knapen_AOT/AOT_stimuli/pictures/0872_fw.png	651.4634346961975	0.8555989265441895
322	385.82781887054443	response	0	k		320.0	/experiments/Knapen_AOT/AOT_stimuli/pictures/0872_fw.png	652.3026382923126	
323	385.8442142009735	picture	0		132	321.0	/experiments/Knapen_AOT/AOT_stimuli/pictures/0766_fw.png	652.3190336227417	1.102731704711914
323	386.9360189437866	response	0	k		321.0	/experiments/Knapen_AOT/AOT_stimuli/pictures/0766_fw.png	653.4108383655548	
324	386.9469459056854	picture	0		134	322.0	/experiments/Knapen_AOT/AOT_stimuli/pictures/1407_fw.png	653.4217653274536	1.118088722229004
324	388.0527527332306	response	0	k		322.0	/experiments/Knapen_AOT/AOT_stimuli/pictures/1407_fw.png	654.5275721549988	
325	388.06503462791443	picture	0		104	323.0	/experiments/Knapen_AOT/AOT_stimuli/pictures/1381_fw.png	654.5398540496826	0.8680341243743896
325	388.91937160491943	response	0	j		323.0	/experiments/Knapen_AOT/AOT_stimuli/pictures/1381_fw.png	655.3941910266876	
326	388.9330687522888	picture	0		124	324.0	/experiments/Knapen_AOT/AOT_stimuli/pictures/0693_fw.png	655.407888174057	1.0445759296417236
326	389.96106934547424	response	0	j		324.0	/experiments/Knapen_AOT/AOT_stimuli/pictures/0693_fw.png	656.4358887672424	
327	389.97764468193054	picture	0		115	325.0	/experiments/Knapen_AOT/AOT_stimuli/pictures/0023_fw.png	656.4524641036987	0.9666745662689209
327	390.92780089378357	response	0	k		325.0	/experiments/Knapen_AOT/AOT_stimuli/pictures/0023_fw.png	657.4026203155518	
328	390.94431924819946	picture	0		123	326.0	/experiments/Knapen_AOT/AOT_stimuli/pictures/0736_fw.png	657.4191386699677	1.0333070755004883
328	391.9612846374512	response	0	j		326.0	/experiments/Knapen_AOT/AOT_stimuli/pictures/0736_fw.png	658.4361040592194	
329	391.97762632369995	picture	0		98	327.0	/experiments/Knapen_AOT/AOT_stimuli/pictures/0270_fw.png	658.4524457454681	0.8249986171722412
329	392.78009366989136	response	0	k		327.0	/experiments/Knapen_AOT/AOT_stimuli/pictures/0270_fw.png	659.2549130916595	
330	392.8026249408722	picture	0		106	328.0	/experiments/Knapen_AOT/AOT_stimuli/pictures/0694_fw.png	659.2774443626404	0.8874189853668213
330	393.67777705192566	response	0	j		328.0	/experiments/Knapen_AOT/AOT_stimuli/pictures/0694_fw.png	660.1525964736938	
331	393.690043926239	picture	0		326	329.0	/experiments/Knapen_AOT/AOT_stimuli/pictures/0935_fw.png	660.1648633480072	2.7209882736206055
331	396.38809418678284	response	0	k		329.0	/experiments/Knapen_AOT/AOT_stimuli/pictures/0935_fw.png	662.862913608551	
332	396.4110321998596	picture	0		96	330.0	/experiments/Knapen_AOT/AOT_stimuli/pictures/1475_fw.png	662.8858516216278	0.8083395957946777
332	397.2031042575836	response	0	k		330.0	/experiments/Knapen_AOT/AOT_stimuli/pictures/1475_fw.png	663.6779236793518	
333	397.2193717956543	picture	0		112	331.0	/experiments/Knapen_AOT/AOT_stimuli/pictures/0987_fw.png	663.6941912174225	0.941676139831543
333	398.14456057548523	response	0	k		331.0	/experiments/Knapen_AOT/AOT_stimuli/pictures/0987_fw.png	664.6193799972534	
334	398.16104793548584	picture	0		96	332.0	/experiments/Knapen_AOT/AOT_stimuli/pictures/0657_fw.png	664.635867357254	0.7999804019927979
334	398.95288729667664	response	0	k		332.0	/experiments/Knapen_AOT/AOT_stimuli/pictures/0657_fw.png	665.4277067184448	
335	398.96102833747864	picture	0		135	333.0	/experiments/Knapen_AOT/AOT_stimuli/pictures/1708_fw.png	665.4358477592468	1.1333584785461426
335	400.07796239852905	response	0	k		333.0	/experiments/Knapen_AOT/AOT_stimuli/pictures/1708_fw.png	666.5527818202972	
336	400.0943868160248	picture	0		134	334.0	/experiments/Knapen_AOT/AOT_stimuli/pictures/1041_fw.png	666.569206237793	1.12506103515625
336	401.20294189453125	response	0	k		334.0	/experiments/Knapen_AOT/AOT_stimuli/pictures/1041_fw.png	667.6777613162994	
337	401.21944785118103	picture	0		141	335.0	/experiments/Knapen_AOT/AOT_stimuli/pictures/0707_fw.png	667.6942672729492	1.1833467483520508
337	402.378897190094	response	0	k		335.0	/experiments/Knapen_AOT/AOT_stimuli/pictures/0707_fw.png	668.8537166118622	
338	402.4027945995331	picture	0		150	336.0	/experiments/Knapen_AOT/AOT_stimuli/pictures/1429_fw.png	668.8776140213013	1.2583250999450684
338	403.64460849761963	response	0	k		336.0	/experiments/Knapen_AOT/AOT_stimuli/pictures/1429_fw.png	670.1194279193878	
339	403.66111969947815	picture	0		226	337.0	/experiments/Knapen_AOT/AOT_stimuli/pictures/1231_fw.png	670.1359391212463	1.8917534351348877
339	405.53626346588135	response	0	j		337.0	/experiments/Knapen_AOT/AOT_stimuli/pictures/1231_fw.png	672.0110828876495	
340	405.55287313461304	picture	0		158	338.0	/experiments/Knapen_AOT/AOT_stimuli/pictures/1391_fw.png	672.0276925563812	1.3250057697296143
340	406.8613564968109	response	0	j		338.0	/experiments/Knapen_AOT/AOT_stimuli/pictures/1391_fw.png	673.3361759185791	
341	406.87787890434265	picture	0		98	339.0	/experiments/Knapen_AOT/AOT_stimuli/pictures/0797_fw.png	673.3526983261108	0.8250131607055664
341	407.6863331794739	response	0	k		339.0	/experiments/Knapen_AOT/AOT_stimuli/pictures/0797_fw.png	674.1611526012421	
342	407.7028920650482	picture	0		96	340.0	/experiments/Knapen_AOT/AOT_stimuli/pictures/0114_fw.png	674.1777114868164	0.8082871437072754
342	408.4946310520172	response	0	k		340.0	/experiments/Knapen_AOT/AOT_stimuli/pictures/0114_fw.png	674.9694504737854	
343	408.5111792087555	picture	0		97	341.0	/experiments/Knapen_AOT/AOT_stimuli/pictures/2122_fw.png	674.9859986305237	0.816687822341919
343	409.3113272190094	response	0	k		341.0	/experiments/Knapen_AOT/AOT_stimuli/pictures/2122_fw.png	675.7861466407776	
344	409.3278670310974	picture	0		92	342.0	/experiments/Knapen_AOT/AOT_stimuli/pictures/1975_fw.png	675.8026864528656	0.774993896484375
344	410.0863072872162	response	0	k		342.0	/experiments/Knapen_AOT/AOT_stimuli/pictures/1975_fw.png	676.5611267089844	
345	410.1028609275818	picture	0		101	343.0	/experiments/Knapen_AOT/AOT_stimuli/pictures/0242_fw.png	676.57768034935	0.8499913215637207
345	410.9363377094269	response	0	k		343.0	/experiments/Knapen_AOT/AOT_stimuli/pictures/0242_fw.png	677.4111571311951	
346	410.9528522491455	picture	0		120	344.0	/experiments/Knapen_AOT/AOT_stimuli/pictures/0817_fw.png	677.4276716709137	1.008354902267456
346	411.94468688964844	response	0	k		344.0	/experiments/Knapen_AOT/AOT_stimuli/pictures/0817_fw.png	678.4195063114166	
347	411.96120715141296	picture	0		210	345.0	/experiments/Knapen_AOT/AOT_stimuli/pictures/1117_fw.png	678.4360265731812	1.7583622932434082
347	413.7030436992645	response	0	j		345.0	/experiments/Knapen_AOT/AOT_stimuli/pictures/1117_fw.png	680.1778631210327	
348	413.7195694446564	picture	0		85	346.0	/experiments/Knapen_AOT/AOT_stimuli/pictures/0210_fw.png	680.1943888664246	0.7166900634765625
348	414.41978788375854	response	0	j		346.0	/experiments/Knapen_AOT/AOT_stimuli/pictures/0210_fw.png	680.8946073055267	
349	414.43625950813293	picture	0		93	347.0	/experiments/Knapen_AOT/AOT_stimuli/pictures/0651_fw.png	680.9110789299011	0.7833306789398193
349	415.2030293941498	response	0	j		347.0	/experiments/Knapen_AOT/AOT_stimuli/pictures/0651_fw.png	681.677848815918	
350	415.21959018707275	picture	0		140	348.0	/experiments/Knapen_AOT/AOT_stimuli/pictures/0703_fw.png	681.6944096088409	1.1750426292419434
350	416.3780860900879	response	0	k		348.0	/experiments/Knapen_AOT/AOT_stimuli/pictures/0703_fw.png	682.8529055118561	
351	416.3946328163147	picture	0		126	349.0	/experiments/Knapen_AOT/AOT_stimuli/pictures/1771_fw.png	682.8694522380829	1.0525233745574951
351	417.43643832206726	response	0	k		349.0	/experiments/Knapen_AOT/AOT_stimuli/pictures/1771_fw.png	683.9112577438354	
352	417.4471561908722	picture	0		113	350.0	/experiments/Knapen_AOT/AOT_stimuli/pictures/0243_fw.png	683.9219756126404	0.9474868774414062
352	418.3780953884125	response	0	k		350.0	/experiments/Knapen_AOT/AOT_stimuli/pictures/0243_fw.png	684.8529148101807	
353	418.3946430683136	picture	0		99	351.0	/experiments/Knapen_AOT/AOT_stimuli/pictures/2169_fw.png	684.8694624900818	0.8333444595336914
353	419.21144247055054	response	0	k		351.0	/experiments/Knapen_AOT/AOT_stimuli/pictures/2169_fw.png	685.6862618923187	
354	419.2279875278473	picture	0		106	352.0	/experiments/Knapen_AOT/AOT_stimuli/pictures/1142_fw.png	685.7028069496155	0.891669750213623
354	420.10312843322754	response	0	k		352.0	/experiments/Knapen_AOT/AOT_stimuli/pictures/1142_fw.png	686.5779478549957	
355	420.1196572780609	picture	0		116	353.0	/experiments/Knapen_AOT/AOT_stimuli/pictures/2144_fw.png	686.5944766998291	0.9666361808776855
355	421.0780920982361	response	0	j		353.0	/experiments/Knapen_AOT/AOT_stimuli/pictures/2144_fw.png	687.5529115200043	
356	421.0862934589386	picture	0		191	354.0	/experiments/Knapen_AOT/AOT_stimuli/pictures/1818_fw.png	687.5611128807068	1.6000516414642334
356	422.6698384284973	response	0	j		354.0	/experiments/Knapen_AOT/AOT_stimuli/pictures/1818_fw.png	689.1446578502655	
357	422.68634510040283	picture	0		102	355.0	/experiments/Knapen_AOT/AOT_stimuli/pictures/0548_fw.png	689.161164522171	0.8583788871765137
357	423.5282220840454	response	0	k		355.0	/experiments/Knapen_AOT/AOT_stimuli/pictures/0548_fw.png	690.0030415058136	
358	423.54472398757935	picture	0		158	356.0	/experiments/Knapen_AOT/AOT_stimuli/pictures/1881_fw.png	690.0195434093475	1.325005292892456
358	424.8532075881958	response	0	k		356.0	/experiments/Knapen_AOT/AOT_stimuli/pictures/1881_fw.png	691.328027009964	
359	424.8697292804718	picture	0		108	357.0	/experiments/Knapen_AOT/AOT_stimuli/pictures/1148_fw.png	691.34454870224	0.9083166122436523
359	425.76149582862854	response	0	k		357.0	/experiments/Knapen_AOT/AOT_stimuli/pictures/1148_fw.png	692.2363152503967	
360	425.77804589271545	picture	0		178	358.0	/experiments/Knapen_AOT/AOT_stimuli/pictures/0306_fw.png	692.2528653144836	1.4916999340057373
360	427.2531933784485	response	0	k		358.0	/experiments/Knapen_AOT/AOT_stimuli/pictures/0306_fw.png	693.7280128002167	
361	427.2697458267212	picture	0		111	359.0	/experiments/Knapen_AOT/AOT_stimuli/pictures/1731_fw.png	693.7445652484894	0.9333133697509766
361	428.1866283416748	response	0	k		359.0	/experiments/Knapen_AOT/AOT_stimuli/pictures/1731_fw.png	694.661447763443	
362	428.20305919647217	stim	0		670			694.6778786182404	5.603220701217651
362	433.78633999824524	response	0	space				700.2611594200134	
