trial_nr	onset	event_type	phase	response	nr_frames	picture_index	picture_file	onset_abs	duration
0	0.17785191535949707	stim	0		1180			141.15479588508606	9.913985013961792
0	10.016923904418945	response	0	space				150.9938678741455	
2	10.091836929321289	picture	0		139	0.0	/experiments/knapen_AOT/AOT_stimuli/pictures/1353_fw.png	151.06878089904785	1.1999268531799316
2	11.260244846343994	response	0	j		0.0	/experiments/knapen_AOT/AOT_stimuli/pictures/1353_fw.png	152.23718881607056	
3	11.29176378250122	picture	0		305	1.0	/experiments/knapen_AOT/AOT_stimuli/pictures/0717_fw.png	152.26870775222778	2.575064182281494
3	13.825423002243042	response	0	j		1.0	/experiments/knapen_AOT/AOT_stimuli/pictures/0717_fw.png	154.8023669719696	
4	13.866827964782715	picture	0		137	2.0	/experiments/knapen_AOT/AOT_stimuli/pictures/1718_fw.png	154.84377193450928	1.1666569709777832
4	15.000302791595459	response	0	k		2.0	/experiments/knapen_AOT/AOT_stimuli/pictures/1718_fw.png	155.97724676132202	
5	15.033484935760498	picture	0		226	3.0	/experiments/knapen_AOT/AOT_stimuli/pictures/0493_fw.png	156.01042890548706	1.9250679016113281
5	16.908708810806274	response	0	k		3.0	/experiments/knapen_AOT/AOT_stimuli/pictures/0493_fw.png	157.88565278053284	
6	16.958552837371826	picture	0		116	4.0	/experiments/knapen_AOT/AOT_stimuli/pictures/1540_fw.png	157.9354968070984	0.9918169975280762
6	17.916960954666138	response	0	k		4.0	/experiments/knapen_AOT/AOT_stimuli/pictures/1540_fw.png	158.8939049243927	
7	17.950369834899902	picture	0		117	5.0	/experiments/knapen_AOT/AOT_stimuli/pictures/0612_fw.png	158.92731380462646	1.0263171195983887
7	18.917017936706543	response	0	j		5.0	/experiments/knapen_AOT/AOT_stimuli/pictures/0612_fw.png	159.8939619064331	
8	18.97668695449829	picture	0		157	6.0	/experiments/knapen_AOT/AOT_stimuli/pictures/1821_fw.png	159.95363092422485	1.3331890106201172
8	20.275439977645874	response	0	k		6.0	/experiments/knapen_AOT/AOT_stimuli/pictures/1821_fw.png	161.25238394737244	
9	20.309875965118408	picture	0		126	7.0	/experiments/knapen_AOT/AOT_stimuli/pictures/1994_fw.png	161.28681993484497	1.0737369060516357
9	21.35051393508911	response	0	k		7.0	/experiments/knapen_AOT/AOT_stimuli/pictures/1994_fw.png	162.32745790481567	
10	21.383612871170044	picture	0		145	8.0	/experiments/knapen_AOT/AOT_stimuli/pictures/2130_fw.png	162.3605568408966	1.245939016342163
10	22.58373498916626	response	0	k		8.0	/experiments/knapen_AOT/AOT_stimuli/pictures/2130_fw.png	163.56067895889282	
11	22.629551887512207	picture	0		290	9.0	/experiments/knapen_AOT/AOT_stimuli/pictures/1737_fw.png	163.60649585723877	2.4457409381866455
11	25.033851861953735	response	0	k		9.0	/experiments/knapen_AOT/AOT_stimuli/pictures/1737_fw.png	166.0107958316803	
12	25.075292825698853	picture	0		90	10.0	/experiments/knapen_AOT/AOT_stimuli/pictures/0116_fw.png	166.05223679542542	0.7763149738311768
12	25.81715679168701	response	0	j		10.0	/experiments/knapen_AOT/AOT_stimuli/pictures/0116_fw.png	166.79410076141357	
13	25.85160779953003	picture	0		159	11.0	/experiments/knapen_AOT/AOT_stimuli/pictures/1962_fw.png	166.8285517692566	1.3488411903381348
13	27.167106866836548	response	0	j		11.0	/experiments/knapen_AOT/AOT_stimuli/pictures/1962_fw.png	168.1440508365631	
14	27.200448989868164	picture	0		129	12.0	/experiments/knapen_AOT/AOT_stimuli/pictures/0037_fw.png	168.17739295959473	1.102693796157837
14	28.26031994819641	response	0	k		12.0	/experiments/knapen_AOT/AOT_stimuli/pictures/0037_fw.png	169.23726391792297	
15	28.303142786026	picture	0		173	13.0	/experiments/knapen_AOT/AOT_stimuli/pictures/1745_fw.png	169.28008675575256	1.4651620388031006
15	29.7338387966156	response	0	j		13.0	/experiments/knapen_AOT/AOT_stimuli/pictures/1745_fw.png	170.71078276634216	
16	29.7683048248291	picture	0		135	14.0	/experiments/knapen_AOT/AOT_stimuli/pictures/0931_fw.png	170.74524879455566	1.152928113937378
16	30.883840799331665	response	0	j		14.0	/experiments/knapen_AOT/AOT_stimuli/pictures/0931_fw.png	171.86078476905823	
17	30.92123293876648	picture	0		136	15.0	/experiments/knapen_AOT/AOT_stimuli/pictures/0764_fw.png	171.89817690849304	1.1541638374328613
17	32.03575396537781	response	0	k		15.0	/experiments/knapen_AOT/AOT_stimuli/pictures/0764_fw.png	173.01269793510437	
18	32.07539677619934	picture	0		96	16.0	/experiments/knapen_AOT/AOT_stimuli/pictures/0835_fw.png	173.0523407459259	0.8250861167907715
18	32.86729383468628	response	0	k		16.0	/experiments/knapen_AOT/AOT_stimuli/pictures/0835_fw.png	173.84423780441284	
19	32.90048289299011	picture	0		211	17.0	/experiments/knapen_AOT/AOT_stimuli/pictures/0648_fw.png	173.87742686271667	1.7915599346160889
19	34.64405179023743	response	0	k		17.0	/experiments/knapen_AOT/AOT_stimuli/pictures/0648_fw.png	175.620995759964	
20	34.6920428276062	picture	0		90	18.0	/experiments/knapen_AOT/AOT_stimuli/pictures/2093_fw.png	175.66898679733276	0.7778060436248779
20	35.433939933776855	response	0	j		18.0	/experiments/knapen_AOT/AOT_stimuli/pictures/2093_fw.png	176.41088390350342	
21	35.46984887123108	picture	0		118	19.0	/experiments/knapen_AOT/AOT_stimuli/pictures/1362_fw.png	176.44679284095764	1.0223720073699951
21	36.43555998802185	response	0	j		19.0	/experiments/knapen_AOT/AOT_stimuli/pictures/1362_fw.png	177.4125039577484	
22	36.492220878601074	picture	0		109	20.0	/experiments/knapen_AOT/AOT_stimuli/pictures/1695_fw.png	177.46916484832764	0.9332859516143799
22	37.392406940460205	response	0	j		20.0	/experiments/knapen_AOT/AOT_stimuli/pictures/1695_fw.png	178.36935091018677	
23	37.425506830215454	picture	0		372	21.0	/experiments/knapen_AOT/AOT_stimuli/pictures/1743_fw.png	178.40245079994202	3.1345720291137695
23	40.51749897003174	response	0	j		21.0	/experiments/knapen_AOT/AOT_stimuli/pictures/1743_fw.png	181.4944429397583	
24	40.560078859329224	picture	0		236	22.0	/experiments/knapen_AOT/AOT_stimuli/pictures/1480_fw.png	181.5370228290558	1.9987819194793701
24	42.51747679710388	response	0	k		22.0	/experiments/knapen_AOT/AOT_stimuli/pictures/1480_fw.png	183.49442076683044	
25	42.558860778808594	picture	0		131	23.0	/experiments/knapen_AOT/AOT_stimuli/pictures/0824_fw.png	183.53580474853516	1.1124072074890137
25	43.63553285598755	response	0	k		23.0	/experiments/knapen_AOT/AOT_stimuli/pictures/0824_fw.png	184.6124768257141	
26	43.67126798629761	picture	0		257	24.0	/experiments/knapen_AOT/AOT_stimuli/pictures/1912_fw.png	184.64821195602417	2.1596519947052
26	45.80091977119446	response	0	k		24.0	/experiments/knapen_AOT/AOT_stimuli/pictures/1912_fw.png	186.77786374092102	
27	45.83091998100281	picture	0		103	25.0	/experiments/knapen_AOT/AOT_stimuli/pictures/1999_fw.png	186.80786395072937	0.8863818645477295
27	46.6840558052063	response	0	k		25.0	/experiments/knapen_AOT/AOT_stimuli/pictures/1999_fw.png	187.66099977493286	
28	46.71730184555054	picture	0		144	26.0	/experiments/knapen_AOT/AOT_stimuli/pictures/0290_fw.png	187.6942458152771	1.2387199401855469
28	47.909050941467285	response	0	j		26.0	/experiments/knapen_AOT/AOT_stimuli/pictures/0290_fw.png	188.88599491119385	
29	47.956021785736084	picture	0		169	27.0	/experiments/knapen_AOT/AOT_stimuli/pictures/1554_fw.png	188.93296575546265	1.4374949932098389
29	49.359062910079956	response	0	k		27.0	/experiments/knapen_AOT/AOT_stimuli/pictures/1554_fw.png	190.33600687980652	
30	49.39351677894592	picture	0		120	28.0	/experiments/knapen_AOT/AOT_stimuli/pictures/0436_fw.png	190.37046074867249	1.0237891674041748
30	50.384060859680176	response	0	k		28.0	/experiments/knapen_AOT/AOT_stimuli/pictures/0436_fw.png	191.36100482940674	
31	50.4173059463501	picture	0		228	29.0	/experiments/knapen_AOT/AOT_stimuli/pictures/0450_fw.png	191.39424991607666	1.9334349632263184
31	52.309191942214966	response	0	k		29.0	/experiments/knapen_AOT/AOT_stimuli/pictures/0450_fw.png	193.28613591194153	
32	52.350740909576416	picture	0		108	30.0	/experiments/knapen_AOT/AOT_stimuli/pictures/1075_fw.png	193.32768487930298	0.9332799911499023
32	53.23570990562439	response	0	k		30.0	/experiments/knapen_AOT/AOT_stimuli/pictures/1075_fw.png	194.21265387535095	
33	53.28402090072632	picture	0		647	31.0	/experiments/knapen_AOT/AOT_stimuli/pictures/0326_fw.png	194.26096487045288	5.401155948638916
33	58.6608510017395	response	0	k		31.0	/experiments/knapen_AOT/AOT_stimuli/pictures/0326_fw.png	199.63779497146606	
34	58.685176849365234	picture	0		197	32.0	/experiments/knapen_AOT/AOT_stimuli/pictures/0590_fw.png	199.6621208190918	1.673933982849121
34	60.31756091117859	response	0	k		32.0	/experiments/knapen_AOT/AOT_stimuli/pictures/0590_fw.png	201.29450488090515	
35	60.359110832214355	picture	0		91	33.0	/experiments/knapen_AOT/AOT_stimuli/pictures/1421_fw.png	201.33605480194092	0.7833390235900879
35	61.109346866607666	response	0	k		33.0	/experiments/knapen_AOT/AOT_stimuli/pictures/1421_fw.png	202.08629083633423	
36	61.14244985580444	picture	0		155	34.0	/experiments/knapen_AOT/AOT_stimuli/pictures/1663_fw.png	202.119393825531	1.3206150531768799
36	62.42591381072998	response	0	k		34.0	/experiments/knapen_AOT/AOT_stimuli/pictures/1663_fw.png	203.40285778045654	
37	62.46306490898132	picture	0		109	35.0	/experiments/knapen_AOT/AOT_stimuli/pictures/1328_fw.png	203.44000887870789	0.9306850433349609
37	63.35926079750061	response	0	k		35.0	/experiments/knapen_AOT/AOT_stimuli/pictures/1328_fw.png	204.33620476722717	
38	63.393749952316284	picture	0		118	36.0	/experiments/knapen_AOT/AOT_stimuli/pictures/0953_fw.png	204.37069392204285	1.0070350170135498
38	64.36766982078552	response	0	k		36.0	/experiments/knapen_AOT/AOT_stimuli/pictures/0953_fw.png	205.34461379051208	
39	64.40078496932983	picture	0		170	37.0	/experiments/knapen_AOT/AOT_stimuli/pictures/0763_fw.png	205.3777289390564	1.4250328540802002
39	65.80942583084106	response	0	k		37.0	/experiments/knapen_AOT/AOT_stimuli/pictures/0763_fw.png	206.78636980056763	
40	65.82581782341003	picture	0		96	38.0	/experiments/knapen_AOT/AOT_stimuli/pictures/0829_fw.png	206.8027617931366	0.8387219905853271
40	66.6177179813385	response	0	j		38.0	/experiments/knapen_AOT/AOT_stimuli/pictures/0829_fw.png	207.59466195106506	
41	66.66453981399536	picture	0		95	39.0	/experiments/knapen_AOT/AOT_stimuli/pictures/1580_fw.png	207.64148378372192	0.8402509689331055
41	67.44416379928589	response	0	j		39.0	/experiments/knapen_AOT/AOT_stimuli/pictures/1580_fw.png	208.42110776901245	
42	67.50479078292847	picture	0		139	40.0	/experiments/knapen_AOT/AOT_stimuli/pictures/2005_fw.png	208.48173475265503	1.1737000942230225
42	68.64436888694763	response	0	k		40.0	/experiments/knapen_AOT/AOT_stimuli/pictures/2005_fw.png	209.6213128566742	
43	68.67849087715149	picture	0		125	41.0	/experiments/knapen_AOT/AOT_stimuli/pictures/1202_fw.png	209.65543484687805	1.0641241073608398
43	69.70934581756592	response	0	j		41.0	/experiments/knapen_AOT/AOT_stimuli/pictures/1202_fw.png	210.68628978729248	
44	69.74261498451233	picture	0		307	42.0	/experiments/knapen_AOT/AOT_stimuli/pictures/1178_fw.png	210.7195589542389	2.5885989665985107
44	72.2927758693695	response	0	j		42.0	/experiments/knapen_AOT/AOT_stimuli/pictures/1178_fw.png	213.26971983909607	
45	72.33121395111084	picture	0		124	43.0	/experiments/knapen_AOT/AOT_stimuli/pictures/0376_fw.png	213.3081579208374	1.0625898838043213
45	73.35938382148743	response	0	j		43.0	/experiments/knapen_AOT/AOT_stimuli/pictures/0376_fw.png	214.336327791214	
46	73.39380383491516	picture	0		98	44.0	/experiments/knapen_AOT/AOT_stimuli/pictures/0160_fw.png	214.37074780464172	0.8487839698791504
46	74.20109581947327	response	0	j		44.0	/experiments/knapen_AOT/AOT_stimuli/pictures/0160_fw.png	215.17803978919983	
47	74.24258780479431	picture	0		98	45.0	/experiments/knapen_AOT/AOT_stimuli/pictures/1515_fw.png	215.21953177452087	0.8500630855560303
47	75.04454779624939	response	0	j		45.0	/experiments/knapen_AOT/AOT_stimuli/pictures/1515_fw.png	216.02149176597595	
48	75.09265089035034	picture	0		190	46.0	/experiments/knapen_AOT/AOT_stimuli/pictures/1230_fw.png	216.0695948600769	1.6167020797729492
48	76.6679368019104	response	0	j		46.0	/experiments/knapen_AOT/AOT_stimuli/pictures/1230_fw.png	217.64488077163696	
49	76.70935297012329	picture	0		157	47.0	/experiments/knapen_AOT/AOT_stimuli/pictures/1024_fw.png	217.68629693984985	1.366703987121582
49	78.03612279891968	response	0	k		47.0	/experiments/knapen_AOT/AOT_stimuli/pictures/1024_fw.png	219.01306676864624	
50	78.07605695724487	picture	0		109	48.0	/experiments/knapen_AOT/AOT_stimuli/pictures/1687_fw.png	219.05300092697144	0.9427239894866943
50	78.97624683380127	response	0	j		48.0	/experiments/knapen_AOT/AOT_stimuli/pictures/1687_fw.png	219.95319080352783	
51	79.01878094673157	picture	0		154	49.0	/experiments/knapen_AOT/AOT_stimuli/pictures/0415_fw.png	219.99572491645813	1.3265228271484375
51	80.29279398918152	response	0	k		49.0	/experiments/knapen_AOT/AOT_stimuli/pictures/0415_fw.png	221.26973795890808	
52	80.34530377388	picture	0		150	50.0	/experiments/knapen_AOT/AOT_stimuli/pictures/0535_fw.png	221.32224774360657	1.2724120616912842
52	81.58470296859741	response	0	k		50.0	/experiments/knapen_AOT/AOT_stimuli/pictures/0535_fw.png	222.56164693832397	
53	81.61771583557129	picture	0		336	51.0	/experiments/knapen_AOT/AOT_stimuli/pictures/1812_fw.png	222.59465980529785	2.8250441551208496
53	84.40971994400024	response	0	k		51.0	/experiments/knapen_AOT/AOT_stimuli/pictures/1812_fw.png	225.3866639137268	
54	84.44275999069214	picture	0		97	52.0	/experiments/knapen_AOT/AOT_stimuli/pictures/0479_fw.png	225.4197039604187	0.833319902420044
54	85.23610496520996	response	0	j		52.0	/experiments/knapen_AOT/AOT_stimuli/pictures/0479_fw.png	226.21304893493652	
55	85.27607989311218	picture	0		142	53.0	/experiments/knapen_AOT/AOT_stimuli/pictures/0735_fw.png	226.25302386283875	1.216691017150879
55	86.44450092315674	response	0	j		53.0	/experiments/knapen_AOT/AOT_stimuli/pictures/0735_fw.png	227.4214448928833	
56	86.49277091026306	picture	0		83	54.0	/experiments/knapen_AOT/AOT_stimuli/pictures/2066_fw.png	227.46971487998962	0.7250230312347412
56	87.17632794380188	response	0	k		54.0	/experiments/knapen_AOT/AOT_stimuli/pictures/2066_fw.png	228.15327191352844	
57	87.2177939414978	picture	0		185	55.0	/experiments/knapen_AOT/AOT_stimuli/pictures/0065_fw.png	228.19473791122437	1.5583789348602295
57	88.75132298469543	response	0	k		55.0	/experiments/knapen_AOT/AOT_stimuli/pictures/0065_fw.png	229.728266954422	
58	88.77617287635803	picture	0		342	56.0	/experiments/knapen_AOT/AOT_stimuli/pictures/0885_fw.png	229.7531168460846	2.8750391006469727
58	91.61799478530884	response	0	k		56.0	/experiments/knapen_AOT/AOT_stimuli/pictures/0885_fw.png	232.5949387550354	
59	91.651211977005	picture	0		483	57.0	/experiments/knapen_AOT/AOT_stimuli/pictures/1990_fw.png	232.62815594673157	4.050001859664917
59	95.66810989379883	response	0	k		57.0	/experiments/knapen_AOT/AOT_stimuli/pictures/1990_fw.png	236.6450538635254	
60	95.70121383666992	picture	0		92	58.0	/experiments/knapen_AOT/AOT_stimuli/pictures/2167_fw.png	236.67815780639648	0.7969181537628174
60	96.45295977592468	response	0	j		58.0	/experiments/knapen_AOT/AOT_stimuli/pictures/2167_fw.png	237.42990374565125	
61	96.49813199043274	picture	0		237	59.0	/experiments/knapen_AOT/AOT_stimuli/pictures/1489_fw.png	237.4750759601593	2.0068178176879883
61	98.46825194358826	response	0	k		59.0	/experiments/knapen_AOT/AOT_stimuli/pictures/1489_fw.png	239.44519591331482	
62	98.50494980812073	picture	0		123	60.0	/experiments/knapen_AOT/AOT_stimuli/pictures/1189_fw.png	239.4818937778473	1.0629770755767822
62	99.518061876297	response	0	j		60.0	/experiments/knapen_AOT/AOT_stimuli/pictures/1189_fw.png	240.49500584602356	
63	99.56792688369751	picture	0		92	61.0	/experiments/knapen_AOT/AOT_stimuli/pictures/1108_fw.png	240.54487085342407	0.7916579246520996
63	100.32644987106323	response	0	j		61.0	/experiments/knapen_AOT/AOT_stimuli/pictures/1108_fw.png	241.3033938407898	
64	100.35958480834961	picture	0		129	62.0	/experiments/knapen_AOT/AOT_stimuli/pictures/0094_fw.png	241.33652877807617	1.1250200271606445
64	101.42643594741821	response	0	k		62.0	/experiments/knapen_AOT/AOT_stimuli/pictures/0094_fw.png	242.40337991714478	
65	101.48460483551025	picture	0		113	63.0	/experiments/knapen_AOT/AOT_stimuli/pictures/0099_fw.png	242.46154880523682	0.9667079448699951
65	102.41809177398682	response	0	k		63.0	/experiments/knapen_AOT/AOT_stimuli/pictures/0099_fw.png	243.39503574371338	
66	102.45131278038025	picture	0		117	64.0	/experiments/knapen_AOT/AOT_stimuli/pictures/0213_fw.png	243.4282567501068	1.0084002017974854
66	103.4181158542633	response	0	k		64.0	/experiments/knapen_AOT/AOT_stimuli/pictures/0213_fw.png	244.39505982398987	
67	103.45971298217773	picture	0		91	65.0	/experiments/knapen_AOT/AOT_stimuli/pictures/0273_fw.png	244.4366569519043	0.8249678611755371
67	104.20985889434814	response	0	j		65.0	/experiments/knapen_AOT/AOT_stimuli/pictures/0273_fw.png	245.1868028640747	
68	104.28468084335327	picture	0		228	66.0	/experiments/knapen_AOT/AOT_stimuli/pictures/0236_fw.png	245.26162481307983	1.9417171478271484
68	106.17663478851318	response	0	j		66.0	/experiments/knapen_AOT/AOT_stimuli/pictures/0236_fw.png	247.15357875823975	
69	106.22639799118042	picture	0		140	67.0	/experiments/knapen_AOT/AOT_stimuli/pictures/0960_fw.png	247.20334196090698	1.2024719715118408
69	107.38487100601196	response	0	k		67.0	/experiments/knapen_AOT/AOT_stimuli/pictures/0960_fw.png	248.36181497573853	
70	107.42886996269226	picture	0		130	68.0	/experiments/knapen_AOT/AOT_stimuli/pictures/2165_fw.png	248.40581393241882	1.1109678745269775
70	108.50165390968323	response	0	k		68.0	/experiments/knapen_AOT/AOT_stimuli/pictures/2165_fw.png	249.4785978794098	
71	108.53983783721924	picture	0		92	69.0	/experiments/knapen_AOT/AOT_stimuli/pictures/1770_fw.png	249.5167818069458	0.8125951290130615
71	109.30151200294495	response	0	j		69.0	/experiments/knapen_AOT/AOT_stimuli/pictures/1770_fw.png	250.2784559726715	
72	109.3524329662323	picture	0		241	70.0	/experiments/knapen_AOT/AOT_stimuli/pictures/2078_fw.png	250.32937693595886	2.0490028858184814
72	111.35168194770813	response	0	j		70.0	/experiments/knapen_AOT/AOT_stimuli/pictures/2078_fw.png	252.3286259174347	
73	111.40143585205078	picture	0		259	71.0	/experiments/knapen_AOT/AOT_stimuli/pictures/0508_fw.png	252.37837982177734	2.1869919300079346
73	113.55163097381592	response	0	j		71.0	/experiments/knapen_AOT/AOT_stimuli/pictures/0508_fw.png	254.52857494354248	
74	113.58842778205872	picture	0		133	72.0	/experiments/knapen_AOT/AOT_stimuli/pictures/1036_fw.png	254.56537175178528	1.1390540599822998
74	114.68495893478394	response	0	k		72.0	/experiments/knapen_AOT/AOT_stimuli/pictures/1036_fw.png	255.6619029045105	
75	114.72748184204102	picture	0		100	73.0	/experiments/knapen_AOT/AOT_stimuli/pictures/1412_fw.png	255.70442581176758	0.8573319911956787
75	115.5516529083252	response	0	j		73.0	/experiments/knapen_AOT/AOT_stimuli/pictures/1412_fw.png	256.52859687805176	
76	115.5848138332367	picture	0		119	74.0	/experiments/knapen_AOT/AOT_stimuli/pictures/0280_fw.png	256.56175780296326	1.0249991416931152
76	116.56835699081421	response	0	k		74.0	/experiments/knapen_AOT/AOT_stimuli/pictures/0280_fw.png	257.54530096054077	
77	116.60981297492981	picture	0		143	75.0	/experiments/knapen_AOT/AOT_stimuli/pictures/0683_fw.png	257.5867569446564	1.21673583984375
77	117.79334282875061	response	0	k		75.0	/experiments/knapen_AOT/AOT_stimuli/pictures/0683_fw.png	258.7702867984772	
78	117.82654881477356	picture	0		100	76.0	/experiments/knapen_AOT/AOT_stimuli/pictures/0009_fw.png	258.8034927845001	0.866631031036377
78	118.64515399932861	response	0	k		76.0	/experiments/knapen_AOT/AOT_stimuli/pictures/0009_fw.png	259.6220979690552	
79	118.69317984580994	picture	0		95	77.0	/experiments/knapen_AOT/AOT_stimuli/pictures/0674_fw.png	259.6701238155365	0.816702127456665
79	119.47665190696716	response	0	j		77.0	/experiments/knapen_AOT/AOT_stimuli/pictures/0674_fw.png	260.4535958766937	
80	119.5098819732666	picture	0		112	78.0	/experiments/knapen_AOT/AOT_stimuli/pictures/1473_fw.png	260.48682594299316	0.9676399230957031
80	120.43502688407898	response	0	j		78.0	/experiments/knapen_AOT/AOT_stimuli/pictures/1473_fw.png	261.41197085380554	
81	120.4775218963623	picture	0		96	79.0	/experiments/knapen_AOT/AOT_stimuli/pictures/0548_fw.png	261.45446586608887	0.8262989521026611
81	121.26837682723999	response	0	k		79.0	/experiments/knapen_AOT/AOT_stimuli/pictures/0548_fw.png	262.24532079696655	
82	121.30382084846497	picture	0		427	80.0	/experiments/knapen_AOT/AOT_stimuli/pictures/1536_fw.png	262.2807648181915	3.5903170108795166
82	124.84507179260254	response	0	k		80.0	/experiments/knapen_AOT/AOT_stimuli/pictures/1536_fw.png	265.8220157623291	
83	124.89413785934448	picture	0		219	81.0	/experiments/knapen_AOT/AOT_stimuli/pictures/1482_fw.png	265.87108182907104	1.8491709232330322
83	126.71017289161682	response	0	j		81.0	/experiments/knapen_AOT/AOT_stimuli/pictures/1482_fw.png	267.6871168613434	
84	126.74330878257751	picture	0		108	82.0	/experiments/knapen_AOT/AOT_stimuli/pictures/1776_fw.png	267.7202527523041	0.9250280857086182
84	127.62863779067993	response	0	j		82.0	/experiments/knapen_AOT/AOT_stimuli/pictures/1776_fw.png	268.6055817604065	
85	127.66833686828613	picture	0		155	83.0	/experiments/knapen_AOT/AOT_stimuli/pictures/1027_fw.png	268.6452808380127	1.3508450984954834
85	128.95186686515808	response	0	k		83.0	/experiments/knapen_AOT/AOT_stimuli/pictures/1027_fw.png	269.92881083488464	
86	129.01918196678162	picture	0		98	84.0	/experiments/knapen_AOT/AOT_stimuli/pictures/1188_fw.png	269.9961259365082	0.8575558662414551
86	129.82689785957336	response	0	j		84.0	/experiments/knapen_AOT/AOT_stimuli/pictures/1188_fw.png	270.8038418292999	
87	129.87673783302307	picture	0		159	85.0	/experiments/knapen_AOT/AOT_stimuli/pictures/0188_fw.png	270.85368180274963	1.43330717086792
87	131.22762989997864	response	0	j		85.0	/experiments/knapen_AOT/AOT_stimuli/pictures/0188_fw.png	272.2045738697052	
88	131.310045003891	picture	0		144	86.0	/experiments/knapen_AOT/AOT_stimuli/pictures/1457_fw.png	272.28698897361755	1.2333579063415527
88	132.50185799598694	response	0	k		86.0	/experiments/knapen_AOT/AOT_stimuli/pictures/1457_fw.png	273.4788019657135	
89	132.54340291023254	picture	0		111	87.0	/experiments/knapen_AOT/AOT_stimuli/pictures/0246_fw.png	273.5203468799591	0.9550759792327881
89	133.4536168575287	response	0	k		87.0	/experiments/knapen_AOT/AOT_stimuli/pictures/0246_fw.png	274.43056082725525	
90	133.49847888946533	picture	0		99	88.0	/experiments/knapen_AOT/AOT_stimuli/pictures/0617_fw.png	274.4754228591919	0.8541779518127441
90	134.31869196891785	response	0	j		88.0	/experiments/knapen_AOT/AOT_stimuli/pictures/0617_fw.png	275.2956359386444	
91	134.35265684127808	picture	0		92	89.0	/experiments/knapen_AOT/AOT_stimuli/pictures/0856_fw.png	275.32960081100464	0.8157539367675781
91	135.11032795906067	response	0	k		89.0	/experiments/knapen_AOT/AOT_stimuli/pictures/0856_fw.png	276.08727192878723	
92	135.16841077804565	picture	0		110	90.0	/experiments/knapen_AOT/AOT_stimuli/pictures/0672_fw.png	276.1453547477722	0.9583890438079834
92	136.0768849849701	response	0	j		90.0	/experiments/knapen_AOT/AOT_stimuli/pictures/0672_fw.png	277.05382895469666	
93	136.12679982185364	picture	0		498	91.0	/experiments/knapen_AOT/AOT_stimuli/pictures/0219_fw.png	277.1037437915802	4.177119970321655
93	140.26864886283875	response	0	k		91.0	/experiments/knapen_AOT/AOT_stimuli/pictures/0219_fw.png	281.2455928325653	
94	140.3039197921753	picture	0		154	92.0	/experiments/knapen_AOT/AOT_stimuli/pictures/1427_fw.png	281.28086376190186	1.3062779903411865
94	141.57699298858643	response	0	j		92.0	/experiments/knapen_AOT/AOT_stimuli/pictures/1427_fw.png	282.553936958313	
95	141.61019778251648	picture	0		171	93.0	/experiments/knapen_AOT/AOT_stimuli/pictures/0321_fw.png	282.58714175224304	1.4666430950164795
95	143.02101588249207	response	0	k		93.0	/experiments/knapen_AOT/AOT_stimuli/pictures/0321_fw.png	283.9979598522186	
96	143.07684087753296	picture	0		149	94.0	/experiments/knapen_AOT/AOT_stimuli/pictures/0395_fw.png	284.0537848472595	1.2833669185638428
96	144.3103849887848	response	0	j		94.0	/experiments/knapen_AOT/AOT_stimuli/pictures/0395_fw.png	285.28732895851135	
97	144.3602077960968	picture	0		84	95.0	/experiments/knapen_AOT/AOT_stimuli/pictures/2160_fw.png	285.33715176582336	0.784217119216919
97	145.0452687740326	response	0	j		95.0	/experiments/knapen_AOT/AOT_stimuli/pictures/2160_fw.png	286.02221274375916	
98	145.14442491531372	picture	0		122	96.0	/experiments/knapen_AOT/AOT_stimuli/pictures/0862_fw.png	286.1213688850403	1.0415279865264893
98	146.15217185020447	response	0	j		96.0	/experiments/knapen_AOT/AOT_stimuli/pictures/0862_fw.png	287.12911581993103	
99	146.1859529018402	picture	0		100	97.0	/experiments/knapen_AOT/AOT_stimuli/pictures/1046_fw.png	287.1628968715668	0.9167389869689941
99	147.0104308128357	response	0	j		97.0	/experiments/knapen_AOT/AOT_stimuli/pictures/1046_fw.png	287.98737478256226	
100	147.1026918888092	picture	0		117	98.0	/experiments/knapen_AOT/AOT_stimuli/pictures/0545_fw.png	288.07963585853577	1.0000200271606445
100	148.06877899169922	response	0	j		98.0	/experiments/knapen_AOT/AOT_stimuli/pictures/0545_fw.png	289.0457229614258	
101	148.10271191596985	picture	0		150	99.0	/experiments/knapen_AOT/AOT_stimuli/pictures/1767_fw.png	289.0796558856964	1.2917239665985107
101	149.3437728881836	response	0	k		99.0	/experiments/knapen_AOT/AOT_stimuli/pictures/1767_fw.png	290.32071685791016	
102	149.39443588256836	picture	0		108	100.0	/experiments/knapen_AOT/AOT_stimuli/pictures/0657_fw.png	290.3713798522949	0.9324960708618164
102	150.28557777404785	response	0	j		100.0	/experiments/knapen_AOT/AOT_stimuli/pictures/0657_fw.png	291.2625217437744	
103	150.32693195343018	picture	0		295	101.0	/experiments/knapen_AOT/AOT_stimuli/pictures/0215_fw.png	291.30387592315674	2.4834330081939697
103	152.77713084220886	response	0	j		101.0	/experiments/knapen_AOT/AOT_stimuli/pictures/0215_fw.png	293.7540748119354	
104	152.81036496162415	picture	0		130	102.0	/experiments/knapen_AOT/AOT_stimuli/pictures/0414_fw.png	293.7873089313507	1.111840009689331
104	153.88544178009033	response	0	j		102.0	/experiments/knapen_AOT/AOT_stimuli/pictures/0414_fw.png	294.8623857498169	
105	153.92220497131348	picture	0		96	103.0	/experiments/knapen_AOT/AOT_stimuli/pictures/0637_fw.png	294.89914894104004	0.8264780044555664
105	154.71050786972046	response	0	j		103.0	/experiments/knapen_AOT/AOT_stimuli/pictures/0637_fw.png	295.687451839447	
106	154.74868297576904	picture	0		94	104.0	/experiments/knapen_AOT/AOT_stimuli/pictures/0547_fw.png	295.7256269454956	0.8123748302459717
106	155.52719593048096	response	0	j		104.0	/experiments/knapen_AOT/AOT_stimuli/pictures/0547_fw.png	296.5041399002075	
107	155.56105780601501	picture	0		86	105.0	/experiments/knapen_AOT/AOT_stimuli/pictures/0521_fw.png	296.5380017757416	0.7409591674804688
107	156.26891779899597	response	0	j		105.0	/experiments/knapen_AOT/AOT_stimuli/pictures/0521_fw.png	297.24586176872253	
108	156.30201697349548	picture	0		189	106.0	/experiments/knapen_AOT/AOT_stimuli/pictures/0964_fw.png	297.27896094322205	1.6084918975830078
108	157.86899185180664	response	0	j		106.0	/experiments/knapen_AOT/AOT_stimuli/pictures/0964_fw.png	298.8459358215332	
109	157.9105088710785	picture	0		110	107.0	/experiments/knapen_AOT/AOT_stimuli/pictures/0789_fw.png	298.88745284080505	0.9422769546508789
109	158.81892585754395	response	0	j		107.0	/experiments/knapen_AOT/AOT_stimuli/pictures/0789_fw.png	299.7958698272705	
110	158.85278582572937	picture	0		125	108.0	/experiments/knapen_AOT/AOT_stimuli/pictures/0929_fw.png	299.82972979545593	1.0659370422363281
110	159.8855447769165	response	0	k		108.0	/experiments/knapen_AOT/AOT_stimuli/pictures/0929_fw.png	300.86248874664307	
111	159.9187228679657	picture	0		83	109.0	/experiments/knapen_AOT/AOT_stimuli/pictures/0373_fw.png	300.89566683769226	0.7333779335021973
111	160.6029829978943	response	0	j		109.0	/experiments/knapen_AOT/AOT_stimuli/pictures/0373_fw.png	301.57992696762085	
112	160.6521008014679	picture	0		120	110.0	/experiments/knapen_AOT/AOT_stimuli/pictures/1377_fw.png	301.62904477119446	1.0201120376586914
112	161.63716888427734	response	0	j		110.0	/experiments/knapen_AOT/AOT_stimuli/pictures/1377_fw.png	302.6141128540039	
113	161.6722128391266	picture	0		103	111.0	/experiments/knapen_AOT/AOT_stimuli/pictures/1750_fw.png	302.64915680885315	0.9215741157531738
113	162.51971197128296	response	0	k		111.0	/experiments/knapen_AOT/AOT_stimuli/pictures/1750_fw.png	303.4966559410095	
114	162.59378695487976	picture	0		368	112.0	/experiments/knapen_AOT/AOT_stimuli/pictures/1646_fw.png	303.5707309246063	3.092341899871826
114	165.64613580703735	response	0	j		112.0	/experiments/knapen_AOT/AOT_stimuli/pictures/1646_fw.png	306.6230797767639	
115	165.6861288547516	picture	0		192	113.0	/experiments/knapen_AOT/AOT_stimuli/pictures/1182_fw.png	306.66307282447815	1.6249809265136719
115	167.27734184265137	response	0	k		113.0	/experiments/knapen_AOT/AOT_stimuli/pictures/1182_fw.png	308.25428581237793	
116	167.31110978126526	picture	0		144	114.0	/experiments/knapen_AOT/AOT_stimuli/pictures/0427_fw.png	308.2880537509918	1.2244582176208496
116	168.50230979919434	response	0	j		114.0	/experiments/knapen_AOT/AOT_stimuli/pictures/0427_fw.png	309.4792537689209	
117	168.5355679988861	picture	0		179	115.0	/experiments/knapen_AOT/AOT_stimuli/pictures/0596_fw.png	309.51251196861267	1.5255329608917236
117	170.01963686943054	response	0	k		115.0	/experiments/knapen_AOT/AOT_stimuli/pictures/0596_fw.png	310.9965808391571	
118	170.06110095977783	picture	0		104	116.0	/experiments/knapen_AOT/AOT_stimuli/pictures/2009_fw.png	311.0380449295044	0.9097909927368164
118	170.9190239906311	response	0	j		116.0	/experiments/knapen_AOT/AOT_stimuli/pictures/2009_fw.png	311.89596796035767	
119	170.97089195251465	picture	0		807	117.0	/experiments/knapen_AOT/AOT_stimuli/pictures/1288_fw.png	311.9478359222412	6.75690484046936
119	177.6863329410553	response	0	k		117.0	/experiments/knapen_AOT/AOT_stimuli/pictures/1288_fw.png	318.66327691078186	
120	177.727796792984	picture	0		138	118.0	/experiments/knapen_AOT/AOT_stimuli/pictures/0654_fw.png	318.70474076271057	1.1828951835632324
120	178.86912083625793	response	0	k		118.0	/experiments/knapen_AOT/AOT_stimuli/pictures/0654_fw.png	319.8460648059845	
121	178.91069197654724	picture	0		106	119.0	/experiments/knapen_AOT/AOT_stimuli/pictures/1157_fw.png	319.8876359462738	0.9416890144348145
121	179.81141185760498	response	0	j		119.0	/experiments/knapen_AOT/AOT_stimuli/pictures/1157_fw.png	320.78835582733154	
122	179.85238099098206	picture	0		887	120.0	/experiments/knapen_AOT/AOT_stimuli/pictures/1324_fw.png	320.8293249607086	7.4334118366241455
122	187.22969889640808	response	0	j		120.0	/experiments/knapen_AOT/AOT_stimuli/pictures/1324_fw.png	328.20664286613464	
123	187.2857928276062	picture	0		81	121.0	/experiments/knapen_AOT/AOT_stimuli/pictures/1511_fw.png	328.26273679733276	0.7083799839019775
123	187.95257592201233	response	0	j		121.0	/experiments/knapen_AOT/AOT_stimuli/pictures/1511_fw.png	328.9295198917389	
124	187.99417281150818	picture	0		129	122.0	/experiments/knapen_AOT/AOT_stimuli/pictures/1349_fw.png	328.97111678123474	1.1366519927978516
124	189.05416798591614	response	0	j		122.0	/experiments/knapen_AOT/AOT_stimuli/pictures/1349_fw.png	330.0311119556427	
125	189.13082480430603	picture	0		772	123.0	/experiments/knapen_AOT/AOT_stimuli/pictures/0776_fw.png	330.1077687740326	6.438387155532837
125	195.55282878875732	response	0	j		123.0	/experiments/knapen_AOT/AOT_stimuli/pictures/0776_fw.png	336.5297727584839	
126	195.56921195983887	picture	0		91	124.0	/experiments/knapen_AOT/AOT_stimuli/pictures/0896_fw.png	336.54615592956543	0.800091028213501
126	196.31948399543762	response	0	j		124.0	/experiments/knapen_AOT/AOT_stimuli/pictures/0896_fw.png	337.2964279651642	
127	196.36930298805237	picture	0		92	125.0	/experiments/knapen_AOT/AOT_stimuli/pictures/1498_fw.png	337.34624695777893	0.7916178703308105
127	197.12771081924438	response	0	j		125.0	/experiments/knapen_AOT/AOT_stimuli/pictures/1498_fw.png	338.10465478897095	
128	197.16092085838318	picture	0		93	126.0	/experiments/knapen_AOT/AOT_stimuli/pictures/0356_fw.png	338.13786482810974	0.8102800846099854
128	197.92775797843933	response	0	j		126.0	/experiments/knapen_AOT/AOT_stimuli/pictures/0356_fw.png	338.9047019481659	
129	197.97120094299316	picture	0		290	127.0	/experiments/knapen_AOT/AOT_stimuli/pictures/1200_fw.png	338.9481449127197	2.44814395904541
129	200.37782883644104	response	0	k		127.0	/experiments/knapen_AOT/AOT_stimuli/pictures/1200_fw.png	341.3547728061676	
130	200.41934490203857	picture	0		97	128.0	/experiments/knapen_AOT/AOT_stimuli/pictures/1654_fw.png	341.39628887176514	0.8583800792694092
130	201.2194550037384	response	0	j		128.0	/experiments/knapen_AOT/AOT_stimuli/pictures/1654_fw.png	342.19639897346497	
131	201.27772498130798	picture	0		396	129.0	/experiments/knapen_AOT/AOT_stimuli/pictures/1647_fw.png	342.25466895103455	3.3333468437194824
131	204.56960487365723	response	0	j		129.0	/experiments/knapen_AOT/AOT_stimuli/pictures/1647_fw.png	345.5465488433838	
132	204.61107182502747	picture	0		104	130.0	/experiments/knapen_AOT/AOT_stimuli/pictures/0027_fw.png	345.588015794754	0.9166641235351562
132	205.462819814682	response	0	k		130.0	/experiments/knapen_AOT/AOT_stimuli/pictures/0027_fw.png	346.43976378440857	
133	205.52773594856262	picture	0		101	131.0	/experiments/knapen_AOT/AOT_stimuli/pictures/0817_fw.png	346.5046799182892	0.8749978542327881
133	206.36127185821533	response	0	k		131.0	/experiments/knapen_AOT/AOT_stimuli/pictures/0817_fw.png	347.3382158279419	
134	206.4027338027954	picture	0		173	132.0	/experiments/knapen_AOT/AOT_stimuli/pictures/0629_fw.png	347.379677772522	1.47501802444458
134	207.82951593399048	response	0	k		132.0	/experiments/knapen_AOT/AOT_stimuli/pictures/0629_fw.png	348.80645990371704	
135	207.87775182724	picture	0		159	133.0	/experiments/knapen_AOT/AOT_stimuli/pictures/1614_fw.png	348.85469579696655	1.3503811359405518
135	209.1946678161621	response	0	k		133.0	/experiments/knapen_AOT/AOT_stimuli/pictures/1614_fw.png	350.1716117858887	
136	209.22813296318054	picture	0		607	134.0	/experiments/knapen_AOT/AOT_stimuli/pictures/1874_fw.png	350.2050769329071	5.0832908153533936
136	214.27802300453186	response	0	k		134.0	/experiments/knapen_AOT/AOT_stimuli/pictures/1874_fw.png	355.2549669742584	
137	214.31142377853394	picture	0		121	135.0	/experiments/knapen_AOT/AOT_stimuli/pictures/0925_fw.png	355.2883677482605	1.0331251621246338
137	215.31166982650757	response	0	k		135.0	/experiments/knapen_AOT/AOT_stimuli/pictures/0925_fw.png	356.28861379623413	
138	215.34454894065857	picture	0		112	136.0	/experiments/knapen_AOT/AOT_stimuli/pictures/1132_fw.png	356.32149291038513	0.9601540565490723
138	216.26998686790466	response	0	j		136.0	/experiments/knapen_AOT/AOT_stimuli/pictures/1132_fw.png	357.2469308376312	
139	216.30470299720764	picture	0		102	137.0	/experiments/knapen_AOT/AOT_stimuli/pictures/1217_fw.png	357.2816469669342	0.8750128746032715
139	217.14500999450684	response	0	k		137.0	/experiments/knapen_AOT/AOT_stimuli/pictures/1217_fw.png	358.1219539642334	
140	217.1797158718109	picture	0		98	138.0	/experiments/knapen_AOT/AOT_stimuli/pictures/0743_fw.png	358.1566598415375	0.8481309413909912
140	217.98640084266663	response	0	j		138.0	/experiments/knapen_AOT/AOT_stimuli/pictures/0743_fw.png	358.9633448123932	
141	218.0278468132019	picture	0		139	139.0	/experiments/knapen_AOT/AOT_stimuli/pictures/1656_fw.png	359.00479078292847	1.186527967453003
141	219.17797994613647	response	0	j		139.0	/experiments/knapen_AOT/AOT_stimuli/pictures/1656_fw.png	360.15492391586304	
142	219.2143747806549	picture	0		550	140.0	/experiments/knapen_AOT/AOT_stimuli/pictures/1179_fw.png	360.19131875038147	4.624985218048096
142	223.78642392158508	response	0	j		140.0	/experiments/knapen_AOT/AOT_stimuli/pictures/1179_fw.png	364.76336789131165	
143	223.839359998703	picture	0		102	141.0	/experiments/knapen_AOT/AOT_stimuli/pictures/0757_fw.png	364.81630396842957	0.871992826461792
143	224.67808985710144	response	0	j		141.0	/experiments/knapen_AOT/AOT_stimuli/pictures/0757_fw.png	365.655033826828	
144	224.7113528251648	picture	0		94	142.0	/experiments/knapen_AOT/AOT_stimuli/pictures/1658_fw.png	365.68829679489136	0.816612958908081
144	225.48644590377808	response	0	j		142.0	/experiments/knapen_AOT/AOT_stimuli/pictures/1658_fw.png	366.46338987350464	
145	225.52796578407288	picture	0		79	143.0	/experiments/knapen_AOT/AOT_stimuli/pictures/0678_fw.png	366.50490975379944	0.6917362213134766
145	226.1780698299408	response	0	j		143.0	/experiments/knapen_AOT/AOT_stimuli/pictures/0678_fw.png	367.15501379966736	
146	226.21970200538635	picture	0		224	144.0	/experiments/knapen_AOT/AOT_stimuli/pictures/0292_fw.png	367.1966459751129	1.9083049297332764
146	228.0782608985901	response	0	k		144.0	/experiments/knapen_AOT/AOT_stimuli/pictures/0292_fw.png	369.05520486831665	
147	228.12800693511963	picture	0		115	145.0	/experiments/knapen_AOT/AOT_stimuli/pictures/1762_fw.png	369.1049509048462	0.9916720390319824
147	229.07818794250488	response	0	j		145.0	/experiments/knapen_AOT/AOT_stimuli/pictures/1762_fw.png	370.05513191223145	
148	229.1196789741516	picture	0		87	146.0	/experiments/knapen_AOT/AOT_stimuli/pictures/1417_fw.png	370.0966229438782	0.75453782081604
148	229.82971787452698	response	0	j		146.0	/experiments/knapen_AOT/AOT_stimuli/pictures/1417_fw.png	370.80666184425354	
149	229.87421679496765	picture	0		132	147.0	/experiments/knapen_AOT/AOT_stimuli/pictures/1869_fw.png	370.8511607646942	1.1287992000579834
149	230.96149897575378	response	0	k		147.0	/experiments/knapen_AOT/AOT_stimuli/pictures/1869_fw.png	371.93844294548035	
150	231.00301599502563	picture	0		95	148.0	/experiments/knapen_AOT/AOT_stimuli/pictures/0879_fw.png	371.9799599647522	0.8417408466339111
150	231.78649377822876	response	0	k		148.0	/experiments/knapen_AOT/AOT_stimuli/pictures/0879_fw.png	372.7634377479553	
151	231.84475684165955	picture	0		107	149.0	/experiments/knapen_AOT/AOT_stimuli/pictures/0269_fw.png	372.8217008113861	0.9182889461517334
151	232.72848677635193	response	0	k		149.0	/experiments/knapen_AOT/AOT_stimuli/pictures/0269_fw.png	373.7054307460785	
152	232.76304578781128	picture	0		98	150.0	/experiments/knapen_AOT/AOT_stimuli/pictures/0252_fw.png	373.73998975753784	0.8681302070617676
152	233.59493398666382	response	0	k		150.0	/experiments/knapen_AOT/AOT_stimuli/pictures/0252_fw.png	374.5718779563904	
153	233.63117599487305	picture	0		95	151.0	/experiments/knapen_AOT/AOT_stimuli/pictures/1613_fw.png	374.6081199645996	0.8218708038330078
153	234.4115288257599	response	0	k		151.0	/experiments/knapen_AOT/AOT_stimuli/pictures/1613_fw.png	375.38847279548645	
154	234.45304679870605	picture	0		218	152.0	/experiments/knapen_AOT/AOT_stimuli/pictures/1207_fw.png	375.4299907684326	1.8377351760864258
154	236.25484895706177	response	0	k		152.0	/experiments/knapen_AOT/AOT_stimuli/pictures/1207_fw.png	377.23179292678833	
155	236.29078197479248	picture	0		630	153.0	/experiments/knapen_AOT/AOT_stimuli/pictures/1824_fw.png	377.26772594451904	5.279065847396851
155	241.53665685653687	response	0	k		153.0	/experiments/knapen_AOT/AOT_stimuli/pictures/1824_fw.png	382.5136008262634	
156	241.56984782218933	picture	0		107	154.0	/experiments/knapen_AOT/AOT_stimuli/pictures/0348_fw.png	382.5467917919159	0.9333560466766357
156	242.446790933609	response	0	j		154.0	/experiments/knapen_AOT/AOT_stimuli/pictures/0348_fw.png	383.42373490333557	
157	242.50320386886597	picture	0		110	155.0	/experiments/knapen_AOT/AOT_stimuli/pictures/1590_fw.png	383.48014783859253	0.9416730403900146
157	243.41167998313904	response	0	k		155.0	/experiments/knapen_AOT/AOT_stimuli/pictures/1590_fw.png	384.3886239528656	
158	243.44487690925598	picture	0		392	156.0	/experiments/knapen_AOT/AOT_stimuli/pictures/0811_fw.png	384.42182087898254	3.2917380332946777
158	246.7034718990326	response	0	k		156.0	/experiments/knapen_AOT/AOT_stimuli/pictures/0811_fw.png	387.68041586875916	
159	246.73661494255066	picture	0		115	157.0	/experiments/knapen_AOT/AOT_stimuli/pictures/1267_fw.png	387.7135589122772	0.991858959197998
159	247.68691396713257	response	0	k		157.0	/experiments/knapen_AOT/AOT_stimuli/pictures/1267_fw.png	388.66385793685913	
160	247.72847390174866	picture	0		117	158.0	/experiments/knapen_AOT/AOT_stimuli/pictures/1049_fw.png	388.7054178714752	1.0209240913391113
160	248.6950387954712	response	0	k		158.0	/experiments/knapen_AOT/AOT_stimuli/pictures/1049_fw.png	389.67198276519775	
161	248.74939799308777	picture	0		104	159.0	/experiments/knapen_AOT/AOT_stimuli/pictures/0361_fw.png	389.72634196281433	0.9039819240570068
161	249.60366797447205	response	0	k		159.0	/experiments/knapen_AOT/AOT_stimuli/pictures/0361_fw.png	390.5806119441986	
162	249.65337991714478	picture	0		212	160.0	/experiments/knapen_AOT/AOT_stimuli/pictures/1702_fw.png	390.63032388687134	1.8111350536346436
162	251.4117968082428	response	0	k		160.0	/experiments/knapen_AOT/AOT_stimuli/pictures/1702_fw.png	392.38874077796936	
163	251.46451497077942	picture	0		112	161.0	/experiments/knapen_AOT/AOT_stimuli/pictures/1040_fw.png	392.441458940506	0.9653439521789551
163	252.38678288459778	response	0	j		161.0	/experiments/knapen_AOT/AOT_stimuli/pictures/1040_fw.png	393.36372685432434	
164	252.42985892295837	picture	0		88	162.0	/experiments/knapen_AOT/AOT_stimuli/pictures/0091_fw.png	393.40680289268494	0.7568628787994385
164	253.153666973114	response	0	j		162.0	/experiments/knapen_AOT/AOT_stimuli/pictures/0091_fw.png	394.1306109428406	
165	253.1867218017578	picture	0		98	163.0	/experiments/knapen_AOT/AOT_stimuli/pictures/1686_fw.png	394.1636657714844	0.841745138168335
165	253.9951159954071	response	0	j		163.0	/experiments/knapen_AOT/AOT_stimuli/pictures/1686_fw.png	394.97205996513367	
166	254.02846693992615	picture	0		141	164.0	/experiments/knapen_AOT/AOT_stimuli/pictures/0553_fw.png	395.0054109096527	1.2082879543304443
166	255.19524884223938	response	0	k		164.0	/experiments/knapen_AOT/AOT_stimuli/pictures/0553_fw.png	396.17219281196594	
167	255.2367548942566	picture	0		204	165.0	/experiments/knapen_AOT/AOT_stimuli/pictures/1967_fw.png	396.21369886398315	1.7764379978179932
167	256.92855882644653	response	0	k		165.0	/experiments/knapen_AOT/AOT_stimuli/pictures/1967_fw.png	397.9055027961731	
168	257.0131928920746	picture	0		100	166.0	/experiments/knapen_AOT/AOT_stimuli/pictures/2112_fw.png	397.99013686180115	0.8903610706329346
168	257.8301348686218	response	0	j		166.0	/experiments/knapen_AOT/AOT_stimuli/pictures/2112_fw.png	398.8070788383484	
169	257.9035539627075	picture	0		96	167.0	/experiments/knapen_AOT/AOT_stimuli/pictures/1568_fw.png	398.8804979324341	0.8665978908538818
169	258.6952748298645	response	0	j		167.0	/experiments/knapen_AOT/AOT_stimuli/pictures/1568_fw.png	399.67221879959106	
170	258.7701518535614	picture	0		103	168.0	/experiments/knapen_AOT/AOT_stimuli/pictures/0254_fw.png	399.74709582328796	0.8915579319000244
170	259.62022495269775	response	0	k		168.0	/experiments/knapen_AOT/AOT_stimuli/pictures/0254_fw.png	400.5971689224243	
171	259.6617097854614	picture	0		98	169.0	/experiments/knapen_AOT/AOT_stimuli/pictures/1303_fw.png	400.638653755188	0.8417391777038574
171	260.46337699890137	response	0	k		169.0	/experiments/knapen_AOT/AOT_stimuli/pictures/1303_fw.png	401.44032096862793	
172	260.5034489631653	picture	0		130	170.0	/experiments/knapen_AOT/AOT_stimuli/pictures/0250_fw.png	401.48039293289185	1.116654872894287
172	261.57854294776917	response	0	k		170.0	/experiments/knapen_AOT/AOT_stimuli/pictures/0250_fw.png	402.5554869174957	
173	261.62010383605957	picture	0		268	171.0	/experiments/knapen_AOT/AOT_stimuli/pictures/0070_fw.png	402.59704780578613	2.291689157485962
173	263.838515996933	response	0	k		171.0	/experiments/knapen_AOT/AOT_stimuli/pictures/0070_fw.png	404.81545996665955	
174	263.91179299354553	picture	0		114	172.0	/experiments/knapen_AOT/AOT_stimuli/pictures/0318_fw.png	404.8887369632721	0.9917287826538086
174	264.84704995155334	response	0	k		172.0	/experiments/knapen_AOT/AOT_stimuli/pictures/0318_fw.png	405.8239939212799	
175	264.90352177619934	picture	0		378	173.0	/experiments/knapen_AOT/AOT_stimuli/pictures/1754_fw.png	405.8804657459259	3.1916592121124268
175	268.03858399391174	response	0	k		173.0	/experiments/knapen_AOT/AOT_stimuli/pictures/1754_fw.png	409.0155279636383	
176	268.09518098831177	picture	0		121	174.0	/experiments/knapen_AOT/AOT_stimuli/pictures/1406_fw.png	409.07212495803833	1.050318956375122
176	269.09537291526794	response	0	j		174.0	/experiments/knapen_AOT/AOT_stimuli/pictures/1406_fw.png	410.0723168849945	
177	269.1454999446869	picture	0		126	175.0	/experiments/knapen_AOT/AOT_stimuli/pictures/0111_fw.png	410.12244391441345	1.083193063735962
177	270.18720293045044	response	0	k		175.0	/experiments/knapen_AOT/AOT_stimuli/pictures/0111_fw.png	411.164146900177	
178	270.22869300842285	picture	0		159	176.0	/experiments/knapen_AOT/AOT_stimuli/pictures/1243_fw.png	411.2056369781494	1.3916418552398682
178	271.54540491104126	response	0	k		176.0	/experiments/knapen_AOT/AOT_stimuli/pictures/1243_fw.png	412.5223488807678	
179	271.6203348636627	picture	0		106	177.0	/experiments/knapen_AOT/AOT_stimuli/pictures/1354_fw.png	412.5972788333893	0.908236026763916
179	272.4954209327698	response	0	k		177.0	/experiments/knapen_AOT/AOT_stimuli/pictures/1354_fw.png	413.47236490249634	
180	272.52857089042664	picture	0		109	178.0	/experiments/knapen_AOT/AOT_stimuli/pictures/1731_fw.png	413.5055148601532	0.9362330436706543
180	273.42875695228577	response	0	k		178.0	/experiments/knapen_AOT/AOT_stimuli/pictures/1731_fw.png	414.40570092201233	
181	273.4648039340973	picture	0		161	179.0	/experiments/knapen_AOT/AOT_stimuli/pictures/0316_fw.png	414.44174790382385	1.3749589920043945
181	274.7955639362335	response	0	j		179.0	/experiments/knapen_AOT/AOT_stimuli/pictures/0316_fw.png	415.7725079059601	
182	274.8397629261017	picture	0		288	180.0	/experiments/knapen_AOT/AOT_stimuli/pictures/0422_fw.png	415.81670689582825	2.4236268997192383
182	277.22887682914734	response	0	j		180.0	/experiments/knapen_AOT/AOT_stimuli/pictures/0422_fw.png	418.2058207988739	
183	277.2633898258209	picture	0		101	181.0	/experiments/knapen_AOT/AOT_stimuli/pictures/0232_fw.png	418.2403337955475	0.875046968460083
183	278.0954918861389	response	0	k		181.0	/experiments/knapen_AOT/AOT_stimuli/pictures/0232_fw.png	419.0724358558655	
184	278.138436794281	picture	0		139	182.0	/experiments/knapen_AOT/AOT_stimuli/pictures/0169_fw.png	419.11538076400757	1.2069640159606934
184	279.28718996047974	response	0	k		182.0	/experiments/knapen_AOT/AOT_stimuli/pictures/0169_fw.png	420.2641339302063	
185	279.3454008102417	picture	0		274	183.0	/experiments/knapen_AOT/AOT_stimuli/pictures/1606_fw.png	420.32234477996826	2.2999720573425293
185	281.6206979751587	response	0	k		183.0	/experiments/knapen_AOT/AOT_stimuli/pictures/1606_fw.png	422.59764194488525	
186	281.64537286758423	picture	0		154	184.0	/experiments/knapen_AOT/AOT_stimuli/pictures/0199_fw.png	422.6223168373108	1.333367109298706
186	282.92058396339417	response	0	k		184.0	/experiments/knapen_AOT/AOT_stimuli/pictures/0199_fw.png	423.8975279331207	
187	282.97873997688293	picture	0		136	185.0	/experiments/knapen_AOT/AOT_stimuli/pictures/1839_fw.png	423.9556839466095	1.1597979068756104
187	284.10395193099976	response	0	k		185.0	/experiments/knapen_AOT/AOT_stimuli/pictures/1839_fw.png	425.0808959007263	
188	284.13853788375854	picture	0		134	186.0	/experiments/knapen_AOT/AOT_stimuli/pictures/1516_fw.png	425.1154818534851	1.1319730281829834
188	285.2389769554138	response	0	k		186.0	/experiments/knapen_AOT/AOT_stimuli/pictures/1516_fw.png	426.2159209251404	
189	285.2705109119415	picture	0		113	187.0	/experiments/knapen_AOT/AOT_stimuli/pictures/1152_fw.png	426.2474548816681	1.0249860286712646
189	286.23052191734314	response	0	k		187.0	/experiments/knapen_AOT/AOT_stimuli/pictures/1152_fw.png	427.2074658870697	
190	286.2954969406128	picture	0		118	188.0	/experiments/knapen_AOT/AOT_stimuli/pictures/1347_fw.png	427.27244091033936	1.0097289085388184
190	287.27064180374146	response	0	k		188.0	/experiments/knapen_AOT/AOT_stimuli/pictures/1347_fw.png	428.247585773468	
191	287.3052258491516	picture	0		122	189.0	/experiments/knapen_AOT/AOT_stimuli/pictures/1004_fw.png	428.2821698188782	1.0569250583648682
191	288.31245279312134	response	0	j		189.0	/experiments/knapen_AOT/AOT_stimuli/pictures/1004_fw.png	429.2893967628479	
192	288.3621509075165	picture	0		127	190.0	/experiments/knapen_AOT/AOT_stimuli/pictures/0827_fw.png	429.33909487724304	1.1097559928894043
192	289.412250995636	response	0	k		190.0	/experiments/knapen_AOT/AOT_stimuli/pictures/0827_fw.png	430.38919496536255	
193	289.4719069004059	picture	0		114	191.0	/experiments/knapen_AOT/AOT_stimuli/pictures/0558_fw.png	430.44885087013245	0.9735770225524902
193	290.41225600242615	response	0	j		191.0	/experiments/knapen_AOT/AOT_stimuli/pictures/0558_fw.png	431.3891999721527	
194	290.4454839229584	picture	0		132	192.0	/experiments/knapen_AOT/AOT_stimuli/pictures/1978_fw.png	431.42242789268494	1.1501178741455078
194	291.53727889060974	response	0	k		192.0	/experiments/knapen_AOT/AOT_stimuli/pictures/1978_fw.png	432.5142228603363	
195	291.5956017971039	picture	0		176	193.0	/experiments/knapen_AOT/AOT_stimuli/pictures/0435_fw.png	432.57254576683044	1.4942331314086914
195	293.04738998413086	response	0	k		193.0	/experiments/knapen_AOT/AOT_stimuli/pictures/0435_fw.png	434.0243339538574	
196	293.0898349285126	picture	0		140	194.0	/experiments/knapen_AOT/AOT_stimuli/pictures/1037_fw.png	434.06677889823914	1.1974239349365234
196	294.2393398284912	response	0	k		194.0	/experiments/knapen_AOT/AOT_stimuli/pictures/1037_fw.png	435.2162837982178	
197	294.2872588634491	picture	0		208	195.0	/experiments/knapen_AOT/AOT_stimuli/pictures/0991_fw.png	435.26420283317566	1.7609429359436035
197	296.01249980926514	response	0	k		195.0	/experiments/knapen_AOT/AOT_stimuli/pictures/0991_fw.png	436.9894437789917	
198	296.0482017993927	picture	0		344	196.0	/experiments/knapen_AOT/AOT_stimuli/pictures/1474_fw.png	437.02514576911926	2.889057159423828
198	298.904091835022	response	0	j		196.0	/experiments/knapen_AOT/AOT_stimuli/pictures/1474_fw.png	439.88103580474854	
199	298.9372589588165	picture	0		119	197.0	/experiments/knapen_AOT/AOT_stimuli/pictures/0604_fw.png	439.9142029285431	1.0334408283233643
199	299.920786857605	response	0	k		197.0	/experiments/knapen_AOT/AOT_stimuli/pictures/0604_fw.png	440.89773082733154	
200	299.9706997871399	picture	0		103	198.0	/experiments/knapen_AOT/AOT_stimuli/pictures/2056_fw.png	440.94764375686646	0.8833050727844238
200	300.8208169937134	response	0	j		198.0	/experiments/knapen_AOT/AOT_stimuli/pictures/2056_fw.png	441.79776096343994	
201	300.8540048599243	picture	0		129	199.0	/experiments/knapen_AOT/AOT_stimuli/pictures/1003_fw.png	441.8309488296509	1.1083340644836426
201	301.9208228588104	response	0	k		199.0	/experiments/knapen_AOT/AOT_stimuli/pictures/1003_fw.png	442.897766828537	
202	301.96233892440796	picture	0		208	200.0	/experiments/knapen_AOT/AOT_stimuli/pictures/1678_fw.png	442.9392828941345	1.7666499614715576
202	303.6874599456787	response	0	k		200.0	/experiments/knapen_AOT/AOT_stimuli/pictures/1678_fw.png	444.6644039154053	
203	303.7289888858795	picture	0		157	201.0	/experiments/knapen_AOT/AOT_stimuli/pictures/0366_fw.png	444.7059328556061	1.3750360012054443
203	305.0292959213257	response	0	j		201.0	/experiments/knapen_AOT/AOT_stimuli/pictures/0366_fw.png	446.00623989105225	
204	305.10402488708496	picture	0		138	202.0	/experiments/knapen_AOT/AOT_stimuli/pictures/1233_fw.png	446.0809688568115	1.166666030883789
204	306.23917388916016	response	0	j		202.0	/experiments/knapen_AOT/AOT_stimuli/pictures/1233_fw.png	447.2161178588867	
205	306.27069091796875	picture	0		130	203.0	/experiments/knapen_AOT/AOT_stimuli/pictures/0038_fw.png	447.2476348876953	1.1167049407958984
205	307.3459029197693	response	0	k		203.0	/experiments/knapen_AOT/AOT_stimuli/pictures/0038_fw.png	448.32284688949585	
206	307.38739585876465	picture	0		538	204.0	/experiments/knapen_AOT/AOT_stimuli/pictures/1124_fw.png	448.3643398284912	4.529026031494141
206	311.85580682754517	response	0	k		204.0	/experiments/knapen_AOT/AOT_stimuli/pictures/1124_fw.png	452.83275079727173	
207	311.9164218902588	picture	0		112	205.0	/experiments/knapen_AOT/AOT_stimuli/pictures/1290_fw.png	452.89336585998535	0.9627659320831299
207	312.8309237957001	response	0	k		205.0	/experiments/knapen_AOT/AOT_stimuli/pictures/1290_fw.png	453.80786776542664	
208	312.8791878223419	picture	0		106	206.0	/experiments/knapen_AOT/AOT_stimuli/pictures/1222_fw.png	453.8561317920685	0.9082770347595215
208	313.75437092781067	response	0	j		206.0	/experiments/knapen_AOT/AOT_stimuli/pictures/1222_fw.png	454.73131489753723	
209	313.78746485710144	picture	0		112	207.0	/experiments/knapen_AOT/AOT_stimuli/pictures/1639_fw.png	454.764408826828	0.9667260646820068
209	314.7127568721771	response	0	k		207.0	/experiments/knapen_AOT/AOT_stimuli/pictures/1639_fw.png	455.6897008419037	
210	314.75419092178345	picture	0		117	208.0	/experiments/knapen_AOT/AOT_stimuli/pictures/1054_fw.png	455.73113489151	1.0094170570373535
210	315.720990896225	response	0	k		208.0	/experiments/knapen_AOT/AOT_stimuli/pictures/1054_fw.png	456.69793486595154	
211	315.7636079788208	picture	0		155	209.0	/experiments/knapen_AOT/AOT_stimuli/pictures/0069_fw.png	456.74055194854736	1.3155720233917236
211	317.03935384750366	response	0	k		209.0	/experiments/knapen_AOT/AOT_stimuli/pictures/0069_fw.png	458.0162978172302	
212	317.0791800022125	picture	0		129	210.0	/experiments/knapen_AOT/AOT_stimuli/pictures/2030_fw.png	458.0561239719391	1.1012439727783203
212	318.1459767818451	response	0	k		210.0	/experiments/knapen_AOT/AOT_stimuli/pictures/2030_fw.png	459.12292075157166	
213	318.18042397499084	picture	0		126	211.0	/experiments/knapen_AOT/AOT_stimuli/pictures/2150_fw.png	459.1573679447174	1.076300859451294
213	319.22106099128723	response	0	k		211.0	/experiments/knapen_AOT/AOT_stimuli/pictures/2150_fw.png	460.1980049610138	
214	319.25672483444214	picture	0		217	212.0	/experiments/knapen_AOT/AOT_stimuli/pictures/0434_fw.png	460.2336688041687	1.8194680213928223
214	321.04762983322144	response	0	j		212.0	/experiments/knapen_AOT/AOT_stimuli/pictures/0434_fw.png	462.024573802948	
215	321.07619285583496	picture	0		119	213.0	/experiments/knapen_AOT/AOT_stimuli/pictures/1525_fw.png	462.0531368255615	1.0208299160003662
215	322.0628499984741	response	0	k		213.0	/experiments/knapen_AOT/AOT_stimuli/pictures/1525_fw.png	463.0397939682007	
216	322.0970227718353	picture	0		145	214.0	/experiments/knapen_AOT/AOT_stimuli/pictures/2008_fw.png	463.0739667415619	1.2362020015716553
216	323.2960648536682	response	0	k		214.0	/experiments/knapen_AOT/AOT_stimuli/pictures/2008_fw.png	464.2730088233948	
217	323.333224773407	picture	0		98	215.0	/experiments/knapen_AOT/AOT_stimuli/pictures/0244_fw.png	464.31016874313354	0.847236156463623
217	324.1379339694977	response	0	k		215.0	/experiments/knapen_AOT/AOT_stimuli/pictures/0244_fw.png	465.11487793922424	
218	324.1804609298706	picture	0		166	216.0	/experiments/knapen_AOT/AOT_stimuli/pictures/0397_fw.png	465.15740489959717	1.4097120761871338
218	325.5546360015869	response	0	k		216.0	/experiments/knapen_AOT/AOT_stimuli/pictures/0397_fw.png	466.5315799713135	
219	325.59017300605774	picture	0		123	217.0	/experiments/knapen_AOT/AOT_stimuli/pictures/1402_fw.png	466.5671169757843	1.055778980255127
219	326.6045458316803	response	0	k		217.0	/experiments/knapen_AOT/AOT_stimuli/pictures/1402_fw.png	467.58148980140686	
220	326.64595198631287	picture	0		307	218.0	/experiments/knapen_AOT/AOT_stimuli/pictures/1044_fw.png	467.62289595603943	2.583514928817749
220	329.19617795944214	response	0	k		218.0	/experiments/knapen_AOT/AOT_stimuli/pictures/1044_fw.png	470.1731219291687	
221	329.2294669151306	picture	0		152	219.0	/experiments/knapen_AOT/AOT_stimuli/pictures/2075_fw.png	470.2064108848572	1.333204984664917
221	330.48790979385376	response	0	j		219.0	/experiments/knapen_AOT/AOT_stimuli/pictures/2075_fw.png	471.4648537635803	
222	330.56267189979553	picture	0		95	220.0	/experiments/knapen_AOT/AOT_stimuli/pictures/1220_fw.png	471.5396158695221	0.8333849906921387
222	331.3463158607483	response	0	k		220.0	/experiments/knapen_AOT/AOT_stimuli/pictures/1220_fw.png	472.32325983047485	
223	331.39605689048767	picture	0		116	221.0	/experiments/knapen_AOT/AOT_stimuli/pictures/1849_fw.png	472.37300086021423	0.9927330017089844
223	332.3545868396759	response	0	k		221.0	/experiments/knapen_AOT/AOT_stimuli/pictures/1849_fw.png	473.33153080940247	
224	332.38878989219666	picture	0		242	222.0	/experiments/knapen_AOT/AOT_stimuli/pictures/0300_fw.png	473.3657338619232	2.04168701171875
224	334.39621686935425	response	0	k		222.0	/experiments/knapen_AOT/AOT_stimuli/pictures/0300_fw.png	475.3731608390808	
225	334.4304769039154	picture	0		102	223.0	/experiments/knapen_AOT/AOT_stimuli/pictures/0126_fw.png	475.40742087364197	0.8751270771026611
225	335.271203994751	response	0	j		223.0	/experiments/knapen_AOT/AOT_stimuli/pictures/0126_fw.png	476.24814796447754	
226	335.30560398101807	picture	0		115	224.0	/experiments/knapen_AOT/AOT_stimuli/pictures/1758_fw.png	476.28254795074463	0.985994815826416
226	336.24790382385254	response	0	k		224.0	/experiments/knapen_AOT/AOT_stimuli/pictures/1758_fw.png	477.2248477935791	
227	336.2915987968445	picture	0		116	225.0	/experiments/knapen_AOT/AOT_stimuli/pictures/2012_fw.png	477.26854276657104	0.9999961853027344
227	337.23958683013916	response	0	k		225.0	/experiments/knapen_AOT/AOT_stimuli/pictures/2012_fw.png	478.2165307998657	
228	337.2915949821472	picture	0		97	226.0	/experiments/knapen_AOT/AOT_stimuli/pictures/1662_fw.png	478.2685389518738	0.8379669189453125
228	338.08800888061523	response	0	k		226.0	/experiments/knapen_AOT/AOT_stimuli/pictures/1662_fw.png	479.0649528503418	
229	338.12956190109253	picture	0		425	227.0	/experiments/knapen_AOT/AOT_stimuli/pictures/1765_fw.png	479.1065058708191	3.592679977416992
229	341.67971682548523	response	0	j		227.0	/experiments/knapen_AOT/AOT_stimuli/pictures/1765_fw.png	482.6566607952118	
230	341.7222418785095	picture	0		202	228.0	/experiments/knapen_AOT/AOT_stimuli/pictures/1828_fw.png	482.6991858482361	1.715601921081543
230	343.39640498161316	response	0	k		228.0	/experiments/knapen_AOT/AOT_stimuli/pictures/1828_fw.png	484.3733489513397	
231	343.43784379959106	picture	0		129	229.0	/experiments/knapen_AOT/AOT_stimuli/pictures/1499_fw.png	484.4147877693176	1.1334199905395508
231	344.5048439502716	response	0	j		229.0	/experiments/knapen_AOT/AOT_stimuli/pictures/1499_fw.png	485.48178791999817	
232	344.5712637901306	picture	0		121	230.0	/experiments/knapen_AOT/AOT_stimuli/pictures/1091_fw.png	485.5482077598572	1.0499610900878906
232	345.571457862854	response	0	k		230.0	/experiments/knapen_AOT/AOT_stimuli/pictures/1091_fw.png	486.54840183258057	
233	345.6212248802185	picture	0		102	231.0	/experiments/knapen_AOT/AOT_stimuli/pictures/1436_fw.png	486.59816884994507	0.9000370502471924
233	346.456414937973	response	0	k		231.0	/experiments/knapen_AOT/AOT_stimuli/pictures/1436_fw.png	487.4333589076996	
234	346.5212619304657	picture	0		98	232.0	/experiments/knapen_AOT/AOT_stimuli/pictures/1975_fw.png	487.49820590019226	0.8676400184631348
234	347.32978796958923	response	0	k		232.0	/experiments/knapen_AOT/AOT_stimuli/pictures/1975_fw.png	488.3067319393158	
235	347.38890194892883	picture	0		187	233.0	/experiments/knapen_AOT/AOT_stimuli/pictures/0100_fw.png	488.3658459186554	1.5834639072418213
235	348.93810391426086	response	0	k		233.0	/experiments/knapen_AOT/AOT_stimuli/pictures/0100_fw.png	489.9150478839874	
236	348.97236585617065	picture	0		86	234.0	/experiments/knapen_AOT/AOT_stimuli/pictures/1522_fw.png	489.9493098258972	1.1656160354614258
236	349.67987394332886	response	0	k		234.0	/experiments/knapen_AOT/AOT_stimuli/pictures/1522_fw.png	490.6568179130554	
237	350.1379818916321	picture	0		136	235.0	/experiments/knapen_AOT/AOT_stimuli/pictures/0400_fw.png	491.11492586135864	1.1749660968780518
237	351.2632749080658	response	0	k		235.0	/experiments/knapen_AOT/AOT_stimuli/pictures/0400_fw.png	492.24021887779236	
238	351.31294798851013	picture	0		96	236.0	/experiments/knapen_AOT/AOT_stimuli/pictures/2142_fw.png	492.2898919582367	0.825963020324707
238	352.10489797592163	response	0	k		236.0	/experiments/knapen_AOT/AOT_stimuli/pictures/2142_fw.png	493.0818419456482	
239	352.13891100883484	picture	0		142	237.0	/experiments/knapen_AOT/AOT_stimuli/pictures/0345_fw.png	493.1158549785614	1.2083518505096436
239	353.3132019042969	response	0	j		237.0	/experiments/knapen_AOT/AOT_stimuli/pictures/0345_fw.png	494.29014587402344	
240	353.3472628593445	picture	0		162	238.0	/experiments/knapen_AOT/AOT_stimuli/pictures/1479_fw.png	494.32420682907104	1.375072956085205
240	354.68819785118103	response	0	k		238.0	/experiments/knapen_AOT/AOT_stimuli/pictures/1479_fw.png	495.6651418209076	
241	354.7223358154297	picture	0		166	239.0	/experiments/knapen_AOT/AOT_stimuli/pictures/2035_fw.png	495.69927978515625	1.416642189025879
241	356.0965139865875	response	0	k		239.0	/experiments/knapen_AOT/AOT_stimuli/pictures/2035_fw.png	497.0734579563141	
242	356.13897800445557	picture	0		128	240.0	/experiments/knapen_AOT/AOT_stimuli/pictures/1952_fw.png	497.11592197418213	1.090770959854126
242	357.1966278553009	response	0	j		240.0	/experiments/knapen_AOT/AOT_stimuli/pictures/1952_fw.png	498.17357182502747	
243	357.2297489643097	picture	0		144	241.0	/experiments/knapen_AOT/AOT_stimuli/pictures/1880_fw.png	498.20669293403625	1.23329496383667
243	358.4216339588165	response	0	j		241.0	/experiments/knapen_AOT/AOT_stimuli/pictures/1880_fw.png	499.3985779285431	
244	358.46304392814636	picture	0		207	242.0	/experiments/knapen_AOT/AOT_stimuli/pictures/1799_fw.png	499.4399878978729	1.75838303565979
244	360.17998695373535	response	0	k		242.0	/experiments/knapen_AOT/AOT_stimuli/pictures/1799_fw.png	501.1569309234619	
245	360.22142696380615	picture	0		99	243.0	/experiments/knapen_AOT/AOT_stimuli/pictures/1372_fw.png	501.1983709335327	0.8550899028778076
245	361.0314998626709	response	0	k		243.0	/experiments/knapen_AOT/AOT_stimuli/pictures/1372_fw.png	502.00844383239746	
246	361.07651686668396	picture	0		78	244.0	/experiments/knapen_AOT/AOT_stimuli/pictures/1191_fw.png	502.0534608364105	0.6867151260375977
246	361.72165393829346	response	0	k		244.0	/experiments/knapen_AOT/AOT_stimuli/pictures/1191_fw.png	502.69859790802	
247	361.76323199272156	picture	0		206	245.0	/experiments/knapen_AOT/AOT_stimuli/pictures/0432_fw.png	502.7401759624481	1.7508418560028076
247	363.47158885002136	response	0	k		245.0	/experiments/knapen_AOT/AOT_stimuli/pictures/0432_fw.png	504.4485328197479	
248	363.51407384872437	picture	0		108	246.0	/experiments/knapen_AOT/AOT_stimuli/pictures/0154_fw.png	504.4910178184509	0.9324660301208496
248	364.40500688552856	response	0	j		246.0	/experiments/knapen_AOT/AOT_stimuli/pictures/0154_fw.png	505.3819508552551	
249	364.4465398788452	picture	0		91	247.0	/experiments/knapen_AOT/AOT_stimuli/pictures/1655_fw.png	505.4234838485718	0.7999610900878906
249	365.1966698169708	response	0	k		247.0	/experiments/knapen_AOT/AOT_stimuli/pictures/1655_fw.png	506.1736137866974	
250	365.2465009689331	picture	0		111	248.0	/experiments/knapen_AOT/AOT_stimuli/pictures/1089_fw.png	506.22344493865967	0.9758830070495605
250	366.1634328365326	response	0	k		248.0	/experiments/knapen_AOT/AOT_stimuli/pictures/1089_fw.png	507.14037680625916	
251	366.22238397598267	picture	0		231	249.0	/experiments/knapen_AOT/AOT_stimuli/pictures/1857_fw.png	507.19932794570923	1.944437026977539
251	368.13853788375854	response	0	k		249.0	/experiments/knapen_AOT/AOT_stimuli/pictures/1857_fw.png	509.1154818534851	
252	368.1668210029602	picture	0		98	250.0	/experiments/knapen_AOT/AOT_stimuli/pictures/2058_fw.png	509.14376497268677	0.8963789939880371
252	368.9717948436737	response	0	k		250.0	/experiments/knapen_AOT/AOT_stimuli/pictures/2058_fw.png	509.94873881340027	
253	369.06319999694824	picture	0		118	251.0	/experiments/knapen_AOT/AOT_stimuli/pictures/0810_fw.png	510.0401439666748	1.0084669589996338
253	370.031769990921	response	0	k		251.0	/experiments/knapen_AOT/AOT_stimuli/pictures/0810_fw.png	511.0087139606476	
254	370.0716669559479	picture	0		146	252.0	/experiments/knapen_AOT/AOT_stimuli/pictures/2065_fw.png	511.04861092567444	1.2582080364227295
254	371.280033826828	response	0	k		252.0	/experiments/knapen_AOT/AOT_stimuli/pictures/2065_fw.png	512.2569777965546	
255	371.3298749923706	picture	0		640	253.0	/experiments/knapen_AOT/AOT_stimuli/pictures/1959_fw.png	512.3068189620972	5.375093936920166
255	376.64854884147644	response	0	j		253.0	/experiments/knapen_AOT/AOT_stimuli/pictures/1959_fw.png	517.625492811203	
256	376.70496892929077	picture	0		127	254.0	/experiments/knapen_AOT/AOT_stimuli/pictures/1053_fw.png	517.6819128990173	1.0917189121246338
256	377.7551507949829	response	0	j		254.0	/experiments/knapen_AOT/AOT_stimuli/pictures/1053_fw.png	518.7320947647095	
257	377.7966878414154	picture	0		125	255.0	/experiments/knapen_AOT/AOT_stimuli/pictures/1929_fw.png	518.773631811142	1.0833139419555664
257	378.83016896247864	response	0	k		255.0	/experiments/knapen_AOT/AOT_stimuli/pictures/1929_fw.png	519.8071129322052	
258	378.880001783371	picture	0		109	256.0	/experiments/knapen_AOT/AOT_stimuli/pictures/1038_fw.png	519.8569457530975	0.9333341121673584
258	379.7801649570465	response	0	k		256.0	/experiments/knapen_AOT/AOT_stimuli/pictures/1038_fw.png	520.7571089267731	
259	379.81333589553833	picture	0		264	257.0	/experiments/knapen_AOT/AOT_stimuli/pictures/1128_fw.png	520.7902798652649	2.258423089981079
259	382.005304813385	response	0	k		257.0	/experiments/knapen_AOT/AOT_stimuli/pictures/1128_fw.png	522.9822487831116	
260	382.0717589855194	picture	0		347	258.0	/experiments/knapen_AOT/AOT_stimuli/pictures/1399_fw.png	523.048702955246	2.935544967651367
260	384.9553108215332	response	0	k		258.0	/experiments/knapen_AOT/AOT_stimuli/pictures/1399_fw.png	525.9322547912598	
261	385.0073039531708	picture	0		147	259.0	/experiments/knapen_AOT/AOT_stimuli/pictures/0947_fw.png	525.9842479228973	1.2561309337615967
261	386.22204184532166	response	0	k		259.0	/experiments/knapen_AOT/AOT_stimuli/pictures/0947_fw.png	527.1989858150482	
262	386.2634348869324	picture	0		394	260.0	/experiments/knapen_AOT/AOT_stimuli/pictures/1264_fw.png	527.2403788566589	3.320251941680908
262	389.538733959198	response	0	k		260.0	/experiments/knapen_AOT/AOT_stimuli/pictures/1264_fw.png	530.5156779289246	
263	389.5836868286133	picture	0		164	261.0	/experiments/knapen_AOT/AOT_stimuli/pictures/1090_fw.png	530.5606307983398	1.3964991569519043
263	390.93875789642334	response	0	k		261.0	/experiments/knapen_AOT/AOT_stimuli/pictures/1090_fw.png	531.9157018661499	
264	390.9801859855652	picture	0		91	262.0	/experiments/knapen_AOT/AOT_stimuli/pictures/0587_fw.png	531.9571299552917	0.8257179260253906
264	391.763787984848	response	0	k		262.0	/experiments/knapen_AOT/AOT_stimuli/pictures/0587_fw.png	532.7407319545746	
265	391.8059039115906	picture	0		118	263.0	/experiments/knapen_AOT/AOT_stimuli/pictures/1379_fw.png	532.7828478813171	0.9999749660491943
265	392.7804129123688	response	0	k		263.0	/experiments/knapen_AOT/AOT_stimuli/pictures/1379_fw.png	533.7573568820953	
266	392.80587887763977	picture	0		103	264.0	/experiments/knapen_AOT/AOT_stimuli/pictures/1889_fw.png	533.7828228473663	0.8910009860992432
266	393.6486768722534	response	0	k		264.0	/experiments/knapen_AOT/AOT_stimuli/pictures/1889_fw.png	534.62562084198	
267	393.696879863739	picture	0		96	265.0	/experiments/knapen_AOT/AOT_stimuli/pictures/0379_fw.png	534.6738238334656	0.8416891098022461
267	394.48880887031555	response	0	j		265.0	/experiments/knapen_AOT/AOT_stimuli/pictures/0379_fw.png	535.4657528400421	
268	394.53856897354126	picture	0		161	266.0	/experiments/knapen_AOT/AOT_stimuli/pictures/1131_fw.png	535.5155129432678	1.3854219913482666
268	395.8652169704437	response	0	j		266.0	/experiments/knapen_AOT/AOT_stimuli/pictures/1131_fw.png	536.8421609401703	
269	395.9239909648895	picture	0		96	267.0	/experiments/knapen_AOT/AOT_stimuli/pictures/0063_fw.png	536.9009349346161	0.8264000415802002
269	396.71382188796997	response	0	k		267.0	/experiments/knapen_AOT/AOT_stimuli/pictures/0063_fw.png	537.6907658576965	
270	396.7503910064697	picture	0		93	268.0	/experiments/knapen_AOT/AOT_stimuli/pictures/0979_fw.png	537.7273349761963	0.8132147789001465
270	397.5139169692993	response	0	k		268.0	/experiments/knapen_AOT/AOT_stimuli/pictures/0979_fw.png	538.4908609390259	
271	397.5636057853699	picture	0		108	269.0	/experiments/knapen_AOT/AOT_stimuli/pictures/1806_fw.png	538.5405497550964	0.9333281517028809
271	398.44865894317627	response	0	k		269.0	/experiments/knapen_AOT/AOT_stimuli/pictures/1806_fw.png	539.4256029129028	
272	398.49693393707275	picture	0		89	270.0	/experiments/knapen_AOT/AOT_stimuli/pictures/1838_fw.png	539.4738779067993	0.7667319774627686
272	399.2244839668274	response	0	k		270.0	/experiments/knapen_AOT/AOT_stimuli/pictures/1838_fw.png	540.201427936554	
273	399.2636659145355	picture	0		102	271.0	/experiments/knapen_AOT/AOT_stimuli/pictures/1333_fw.png	540.2406098842621	0.8832840919494629
273	400.105427980423	response	0	j		271.0	/experiments/knapen_AOT/AOT_stimuli/pictures/1333_fw.png	541.0823719501495	
274	400.146950006485	picture	0		116	272.0	/experiments/knapen_AOT/AOT_stimuli/pictures/0475_fw.png	541.1238939762115	0.9924149513244629
274	401.10548400878906	response	0	k		272.0	/experiments/knapen_AOT/AOT_stimuli/pictures/0475_fw.png	542.0824279785156	
275	401.13936495780945	picture	0		98	273.0	/experiments/knapen_AOT/AOT_stimuli/pictures/1286_fw.png	542.116308927536	0.840958833694458
275	401.9471559524536	response	0	j		273.0	/experiments/knapen_AOT/AOT_stimuli/pictures/1286_fw.png	542.9240999221802	
276	401.9803237915039	picture	0		132	274.0	/experiments/knapen_AOT/AOT_stimuli/pictures/0184_fw.png	542.9572677612305	1.1250200271606445
276	403.07213592529297	response	0	j		274.0	/experiments/knapen_AOT/AOT_stimuli/pictures/0184_fw.png	544.0490798950195	
277	403.10534381866455	picture	0		195	275.0	/experiments/knapen_AOT/AOT_stimuli/pictures/2011_fw.png	544.0822877883911	1.6500000953674316
277	404.7228708267212	response	0	k		275.0	/experiments/knapen_AOT/AOT_stimuli/pictures/2011_fw.png	545.6998147964478	
278	404.755343914032	picture	0		99	276.0	/experiments/knapen_AOT/AOT_stimuli/pictures/1181_fw.png	545.7322878837585	0.8584718704223633
278	405.5723309516907	response	0	k		276.0	/experiments/knapen_AOT/AOT_stimuli/pictures/1181_fw.png	546.5492749214172	
279	405.61381578445435	picture	0		93	277.0	/experiments/knapen_AOT/AOT_stimuli/pictures/0164_fw.png	546.5907597541809	0.8033201694488525
279	406.3805708885193	response	0	k		277.0	/experiments/knapen_AOT/AOT_stimuli/pictures/0164_fw.png	547.3575148582458	
280	406.4171359539032	picture	0		87	278.0	/experiments/knapen_AOT/AOT_stimuli/pictures/0813_fw.png	547.3940799236298	0.7500019073486328
280	407.1305618286133	response	0	j		278.0	/experiments/knapen_AOT/AOT_stimuli/pictures/0813_fw.png	548.1075057983398	
281	407.16713786125183	picture	0		251	279.0	/experiments/knapen_AOT/AOT_stimuli/pictures/1747_fw.png	548.1440818309784	2.1299500465393066
281	409.2405037879944	response	0	j		279.0	/experiments/knapen_AOT/AOT_stimuli/pictures/1747_fw.png	550.217447757721	
282	409.29708790779114	picture	0		94	280.0	/experiments/knapen_AOT/AOT_stimuli/pictures/2061_fw.png	550.2740318775177	0.8249859809875488
282	410.0654368400574	response	0	j		280.0	/experiments/knapen_AOT/AOT_stimuli/pictures/2061_fw.png	551.0423808097839	
283	410.1220738887787	picture	0		98	281.0	/experiments/knapen_AOT/AOT_stimuli/pictures/1617_fw.png	551.0990178585052	0.858361005783081
283	410.9313278198242	response	0	k		281.0	/experiments/knapen_AOT/AOT_stimuli/pictures/1617_fw.png	551.9082717895508	
284	410.98043489456177	picture	0		99	282.0	/experiments/knapen_AOT/AOT_stimuli/pictures/1151_fw.png	551.9573788642883	0.8534030914306641
284	411.7974097728729	response	0	k		282.0	/experiments/knapen_AOT/AOT_stimuli/pictures/1151_fw.png	552.7743537425995	
285	411.83383798599243	picture	0		110	283.0	/experiments/knapen_AOT/AOT_stimuli/pictures/1176_fw.png	552.810781955719	0.9382638931274414
285	412.73897099494934	response	0	j		283.0	/experiments/knapen_AOT/AOT_stimuli/pictures/1176_fw.png	553.7159149646759	
286	412.7721018791199	picture	0		96	284.0	/experiments/knapen_AOT/AOT_stimuli/pictures/2020_fw.png	553.7490458488464	0.8417119979858398
286	413.5640299320221	response	0	k		284.0	/experiments/knapen_AOT/AOT_stimuli/pictures/2020_fw.png	554.5409739017487	
287	413.6138138771057	picture	0		108	285.0	/experiments/knapen_AOT/AOT_stimuli/pictures/1578_fw.png	554.5907578468323	0.9353420734405518
287	414.50570797920227	response	0	j		285.0	/experiments/knapen_AOT/AOT_stimuli/pictures/1578_fw.png	555.4826519489288	
288	414.54915595054626	picture	0		105	286.0	/experiments/knapen_AOT/AOT_stimuli/pictures/1691_fw.png	555.5260999202728	0.9027888774871826
288	415.41399788856506	response	0	k		286.0	/experiments/knapen_AOT/AOT_stimuli/pictures/1691_fw.png	556.3909418582916	
289	415.45194482803345	picture	0		103	287.0	/experiments/knapen_AOT/AOT_stimuli/pictures/0986_fw.png	556.42888879776	0.8819420337677002
289	416.30638098716736	response	0	k		287.0	/experiments/knapen_AOT/AOT_stimuli/pictures/0986_fw.png	557.2833249568939	
290	416.33388686180115	picture	0		132	288.0	/experiments/knapen_AOT/AOT_stimuli/pictures/0966_fw.png	557.3108308315277	1.1299490928649902
290	417.42242980003357	response	0	k		288.0	/experiments/knapen_AOT/AOT_stimuli/pictures/0966_fw.png	558.3993737697601	
291	417.46383595466614	picture	0		107	289.0	/experiments/knapen_AOT/AOT_stimuli/pictures/1813_fw.png	558.4407799243927	0.9256010055541992
291	418.3479588031769	response	0	j		289.0	/experiments/knapen_AOT/AOT_stimuli/pictures/1813_fw.png	559.3249027729034	
292	418.38943696022034	picture	0		357	290.0	/experiments/knapen_AOT/AOT_stimuli/pictures/0554_fw.png	559.3663809299469	3.0000219345092773
292	421.3557159900665	response	0	j		290.0	/experiments/knapen_AOT/AOT_stimuli/pictures/0554_fw.png	562.3326599597931	
293	421.3894588947296	picture	0		85	291.0	/experiments/knapen_AOT/AOT_stimuli/pictures/2084_fw.png	562.3664028644562	0.7361280918121338
293	422.0890839099884	response	0	k		291.0	/experiments/knapen_AOT/AOT_stimuli/pictures/2084_fw.png	563.066027879715	
294	422.12558698654175	picture	0		89	292.0	/experiments/knapen_AOT/AOT_stimuli/pictures/1524_fw.png	563.1025309562683	0.7638888359069824
294	422.849515914917	response	0	k		292.0	/experiments/knapen_AOT/AOT_stimuli/pictures/1524_fw.png	563.8264598846436	
295	422.88947582244873	picture	0		98	293.0	/experiments/knapen_AOT/AOT_stimuli/pictures/0687_fw.png	563.8664197921753	0.849452018737793
295	423.6974458694458	response	0	k		293.0	/experiments/knapen_AOT/AOT_stimuli/pictures/0687_fw.png	564.6743898391724	
296	423.7389278411865	picture	0		123	294.0	/experiments/knapen_AOT/AOT_stimuli/pictures/1326_fw.png	564.7158718109131	1.0583679676055908
296	424.75583696365356	response	0	k		294.0	/experiments/knapen_AOT/AOT_stimuli/pictures/1326_fw.png	565.7327809333801	
297	424.7972958087921	picture	0		90	295.0	/experiments/knapen_AOT/AOT_stimuli/pictures/1618_fw.png	565.7742397785187	0.779803991317749
297	425.5391538143158	response	0	j		295.0	/experiments/knapen_AOT/AOT_stimuli/pictures/1618_fw.png	566.5160977840424	
298	425.57709980010986	picture	0		160	296.0	/experiments/knapen_AOT/AOT_stimuli/pictures/1308_fw.png	566.5540437698364	1.4118881225585938
298	426.93144392967224	response	0	k		296.0	/experiments/knapen_AOT/AOT_stimuli/pictures/1308_fw.png	567.9083878993988	
299	426.98898792266846	picture	0		86	297.0	/experiments/knapen_AOT/AOT_stimuli/pictures/1242_fw.png	567.965931892395	0.7583489418029785
299	427.6975018978119	response	0	j		297.0	/experiments/knapen_AOT/AOT_stimuli/pictures/1242_fw.png	568.6744458675385	
300	427.74733686447144	picture	0		103	298.0	/experiments/knapen_AOT/AOT_stimuli/pictures/0146_fw.png	568.724280834198	0.9166381359100342
300	428.5980370044708	response	0	k		298.0	/experiments/knapen_AOT/AOT_stimuli/pictures/0146_fw.png	569.5749809741974	
301	428.66397500038147	picture	0		166	299.0	/experiments/knapen_AOT/AOT_stimuli/pictures/0137_fw.png	569.640918970108	1.4167578220367432
301	430.032381772995	response	0	k		299.0	/experiments/knapen_AOT/AOT_stimuli/pictures/0137_fw.png	571.0093257427216	
302	430.0807328224182	picture	0		87	300.0	/experiments/knapen_AOT/AOT_stimuli/pictures/2178_fw.png	571.0576767921448	0.7999570369720459
302	430.7976679801941	response	0	k		300.0	/experiments/knapen_AOT/AOT_stimuli/pictures/2178_fw.png	571.7746119499207	
303	430.88068985939026	picture	0		122	301.0	/experiments/knapen_AOT/AOT_stimuli/pictures/1463_fw.png	571.8576338291168	1.0584359169006348
303	431.88979387283325	response	0	j		301.0	/experiments/knapen_AOT/AOT_stimuli/pictures/1463_fw.png	572.8667378425598	
304	431.9391257762909	picture	0		114	302.0	/experiments/knapen_AOT/AOT_stimuli/pictures/1452_fw.png	572.9160697460175	0.9851880073547363
304	432.88092279434204	response	0	k		302.0	/experiments/knapen_AOT/AOT_stimuli/pictures/1452_fw.png	573.8578667640686	
305	432.92431378364563	picture	0		104	303.0	/experiments/knapen_AOT/AOT_stimuli/pictures/1105_fw.png	573.9012577533722	0.9027590751647949
305	433.7809429168701	response	0	k		303.0	/experiments/knapen_AOT/AOT_stimuli/pictures/1105_fw.png	574.7578868865967	
306	433.8270728588104	picture	0		104	304.0	/experiments/knapen_AOT/AOT_stimuli/pictures/0526_fw.png	574.804016828537	0.8958261013031006
306	434.6815779209137	response	0	k		304.0	/experiments/knapen_AOT/AOT_stimuli/pictures/0526_fw.png	575.6585218906403	
307	434.7228989601135	picture	0		118	305.0	/experiments/knapen_AOT/AOT_stimuli/pictures/0858_fw.png	575.6998429298401	1.0245380401611328
307	435.69759798049927	response	0	k		305.0	/experiments/knapen_AOT/AOT_stimuli/pictures/0858_fw.png	576.6745419502258	
308	435.74743700027466	picture	0		118	306.0	/experiments/knapen_AOT/AOT_stimuli/pictures/1729_fw.png	576.7243809700012	1.0102198123931885
308	436.7232038974762	response	0	k		306.0	/experiments/knapen_AOT/AOT_stimuli/pictures/1729_fw.png	577.7001478672028	
309	436.75765681266785	picture	0		132	307.0	/experiments/knapen_AOT/AOT_stimuli/pictures/0306_fw.png	577.7346007823944	1.1399610042572021
309	437.8410527706146	response	0	k		307.0	/experiments/knapen_AOT/AOT_stimuli/pictures/0306_fw.png	578.8179967403412	
310	437.89761781692505	picture	0		102	308.0	/experiments/knapen_AOT/AOT_stimuli/pictures/0642_fw.png	578.8745617866516	0.8831980228424072
310	438.7393457889557	response	0	k		308.0	/experiments/knapen_AOT/AOT_stimuli/pictures/0642_fw.png	579.7162897586823	
311	438.78081583976746	picture	0		271	309.0	/experiments/knapen_AOT/AOT_stimuli/pictures/1907_fw.png	579.757759809494	2.3033721446990967
311	441.0243067741394	response	0	j		309.0	/experiments/knapen_AOT/AOT_stimuli/pictures/1907_fw.png	582.001250743866	
312	441.08418798446655	picture	0		86	310.0	/experiments/knapen_AOT/AOT_stimuli/pictures/2010_fw.png	582.0611319541931	0.7383198738098145
312	441.78941679000854	response	0	k		310.0	/experiments/knapen_AOT/AOT_stimuli/pictures/2010_fw.png	582.7663607597351	
313	441.82250785827637	picture	0		128	311.0	/experiments/knapen_AOT/AOT_stimuli/pictures/1484_fw.png	582.7994518280029	1.1018550395965576
313	442.8810348510742	response	0	k		311.0	/experiments/knapen_AOT/AOT_stimuli/pictures/1484_fw.png	583.8579788208008	
314	442.9243628978729	picture	0		108	312.0	/experiments/knapen_AOT/AOT_stimuli/pictures/0598_fw.png	583.9013068675995	0.9236509799957275
314	443.8144829273224	response	0	k		312.0	/experiments/knapen_AOT/AOT_stimuli/pictures/0598_fw.png	584.791426897049	
315	443.84801387786865	picture	0		114	313.0	/experiments/knapen_AOT/AOT_stimuli/pictures/0201_fw.png	584.8249578475952	0.9828610420227051
315	444.78953790664673	response	0	k		313.0	/experiments/knapen_AOT/AOT_stimuli/pictures/0201_fw.png	585.7664818763733	
316	444.83087491989136	picture	0		109	314.0	/experiments/knapen_AOT/AOT_stimuli/pictures/2169_fw.png	585.8078188896179	0.9249989986419678
316	445.73103499412537	response	0	j		314.0	/experiments/knapen_AOT/AOT_stimuli/pictures/2169_fw.png	586.7079789638519	
317	445.7558739185333	picture	0		85	315.0	/experiments/knapen_AOT/AOT_stimuli/pictures/0595_fw.png	586.7328178882599	0.7500190734863281
317	446.4494597911835	response	0	k		315.0	/experiments/knapen_AOT/AOT_stimuli/pictures/0595_fw.png	587.42640376091	
318	446.50589299201965	picture	0		165	316.0	/experiments/knapen_AOT/AOT_stimuli/pictures/1630_fw.png	587.4828369617462	1.3999958038330078
318	447.8728768825531	response	0	k		316.0	/experiments/knapen_AOT/AOT_stimuli/pictures/1630_fw.png	588.8498208522797	
319	447.90588879585266	picture	0		117	317.0	/experiments/knapen_AOT/AOT_stimuli/pictures/0732_fw.png	588.8828327655792	1.0046851634979248
319	448.8727698326111	response	0	j		317.0	/experiments/knapen_AOT/AOT_stimuli/pictures/0732_fw.png	589.8497138023376	
320	448.9105739593506	picture	0		137	318.0	/experiments/knapen_AOT/AOT_stimuli/pictures/1019_fw.png	589.8875179290771	1.1703708171844482
320	450.0412058830261	response	0	k		318.0	/experiments/knapen_AOT/AOT_stimuli/pictures/1019_fw.png	591.0181498527527	
321	450.08094477653503	picture	0		122	319.0	/experiments/knapen_AOT/AOT_stimuli/pictures/2013_fw.png	591.0578887462616	1.0449700355529785
321	451.0895447731018	response	0	k		319.0	/experiments/knapen_AOT/AOT_stimuli/pictures/2013_fw.png	592.0664887428284	
322	451.125914812088	picture	0		97	320.0	/experiments/knapen_AOT/AOT_stimuli/pictures/1342_fw.png	592.1028587818146	0.833259105682373
322	451.92284989356995	response	0	k		320.0	/experiments/knapen_AOT/AOT_stimuli/pictures/1342_fw.png	592.8997938632965	
323	451.9591739177704	picture	0		93	321.0	/experiments/knapen_AOT/AOT_stimuli/pictures/0898_fw.png	592.936117887497	0.8055639266967773
323	452.7231969833374	response	0	k		321.0	/experiments/knapen_AOT/AOT_stimuli/pictures/0898_fw.png	593.700140953064	
324	452.76473784446716	picture	0		156	322.0	/experiments/knapen_AOT/AOT_stimuli/pictures/1183_fw.png	593.7416818141937	1.326404094696045
324	454.04950284957886	response	0	j		322.0	/experiments/knapen_AOT/AOT_stimuli/pictures/1183_fw.png	595.0264468193054	
325	454.0911419391632	picture	0		104	323.0	/experiments/knapen_AOT/AOT_stimuli/pictures/1933_fw.png	595.0680859088898	0.889847993850708
325	454.94796085357666	response	0	k		323.0	/experiments/knapen_AOT/AOT_stimuli/pictures/1933_fw.png	595.9249048233032	
326	454.9809899330139	picture	0		112	324.0	/experiments/knapen_AOT/AOT_stimuli/pictures/1539_fw.png	595.9579339027405	0.9583859443664551
326	455.9062509536743	response	0	k		324.0	/experiments/knapen_AOT/AOT_stimuli/pictures/1539_fw.png	596.8831949234009	
327	455.93937587738037	picture	0		160	325.0	/experiments/knapen_AOT/AOT_stimuli/pictures/1304_fw.png	596.9163198471069	1.3809149265289307
327	457.25788497924805	response	0	j		325.0	/experiments/knapen_AOT/AOT_stimuli/pictures/1304_fw.png	598.2348289489746	
328	457.3202908039093	picture	0		85	326.0	/experiments/knapen_AOT/AOT_stimuli/pictures/0851_fw.png	598.2972347736359	0.7524430751800537
328	458.0164849758148	response	0	k		326.0	/experiments/knapen_AOT/AOT_stimuli/pictures/0851_fw.png	598.9934289455414	
329	458.07273387908936	picture	0		100	327.0	/experiments/knapen_AOT/AOT_stimuli/pictures/0668_fw.png	599.0496778488159	0.8519039154052734
329	458.8979330062866	response	0	k		327.0	/experiments/knapen_AOT/AOT_stimuli/pictures/0668_fw.png	599.8748769760132	
330	458.92463779449463	picture	0		126	328.0	/experiments/knapen_AOT/AOT_stimuli/pictures/0218_fw.png	599.9015817642212	1.0814330577850342
330	459.9646008014679	response	0	k		328.0	/experiments/knapen_AOT/AOT_stimuli/pictures/0218_fw.png	600.9415447711945	
331	460.00607085227966	picture	0		115	329.0	/experiments/knapen_AOT/AOT_stimuli/pictures/1073_fw.png	600.9830148220062	0.9917111396789551
331	460.9563617706299	response	0	j		329.0	/experiments/knapen_AOT/AOT_stimuli/pictures/1073_fw.png	601.9333057403564	
332	460.9977819919586	picture	0		94	330.0	/experiments/knapen_AOT/AOT_stimuli/pictures/2092_fw.png	601.9747259616852	0.8295187950134277
332	461.7730429172516	response	0	k		330.0	/experiments/knapen_AOT/AOT_stimuli/pictures/2092_fw.png	602.7499868869781	
333	461.82730078697205	picture	0		132	331.0	/experiments/knapen_AOT/AOT_stimuli/pictures/0005_fw.png	602.8042447566986	1.11214017868042
333	462.9146318435669	response	0	k		331.0	/experiments/knapen_AOT/AOT_stimuli/pictures/0005_fw.png	603.8915758132935	
334	462.93944096565247	picture	0		116	332.0	/experiments/knapen_AOT/AOT_stimuli/pictures/1067_fw.png	603.916384935379	1.0000309944152832
334	463.8980050086975	response	0	k		332.0	/experiments/knapen_AOT/AOT_stimuli/pictures/1067_fw.png	604.8749489784241	
335	463.93947196006775	picture	0		158	333.0	/experiments/knapen_AOT/AOT_stimuli/pictures/1569_fw.png	604.9164159297943	1.4166688919067383
335	465.2729558944702	response	0	j		333.0	/experiments/knapen_AOT/AOT_stimuli/pictures/1569_fw.png	606.2498998641968	
336	465.3561408519745	picture	0		76	334.0	/experiments/knapen_AOT/AOT_stimuli/pictures/0046_fw.png	606.333084821701	0.6666719913482666
336	465.9814097881317	response	0	k		334.0	/experiments/knapen_AOT/AOT_stimuli/pictures/0046_fw.png	606.9583537578583	
337	466.02281284332275	picture	0		106	335.0	/experiments/knapen_AOT/AOT_stimuli/pictures/1104_fw.png	606.9997568130493	0.9167370796203613
337	466.8979709148407	response	0	k		335.0	/experiments/knapen_AOT/AOT_stimuli/pictures/1104_fw.png	607.8749148845673	
338	466.9395499229431	picture	0		78	336.0	/experiments/knapen_AOT/AOT_stimuli/pictures/2063_fw.png	607.9164938926697	0.6864030361175537
338	467.5813949108124	response	0	k		336.0	/experiments/knapen_AOT/AOT_stimuli/pictures/2063_fw.png	608.5583388805389	
339	467.62595295906067	picture	0		76	337.0	/experiments/knapen_AOT/AOT_stimuli/pictures/1782_fw.png	608.6028969287872	0.6636040210723877
339	468.2412669658661	response	0	k		337.0	/experiments/knapen_AOT/AOT_stimuli/pictures/1782_fw.png	609.2182109355927	
340	468.28955698013306	picture	0		106	338.0	/experiments/knapen_AOT/AOT_stimuli/pictures/1645_fw.png	609.2665009498596	0.9337368011474609
340	469.1647307872772	response	0	k		338.0	/experiments/knapen_AOT/AOT_stimuli/pictures/1645_fw.png	610.1416747570038	
341	469.2232937812805	picture	0		90	339.0	/experiments/knapen_AOT/AOT_stimuli/pictures/2161_fw.png	610.2002377510071	0.7846472263336182
341	469.96474385261536	response	0	j		339.0	/experiments/knapen_AOT/AOT_stimuli/pictures/2161_fw.png	610.9416878223419	
342	470.00794100761414	picture	0		79	340.0	/experiments/knapen_AOT/AOT_stimuli/pictures/1638_fw.png	610.9848849773407	0.6982569694519043
342	470.6497299671173	response	0	k		340.0	/experiments/knapen_AOT/AOT_stimuli/pictures/1638_fw.png	611.6266739368439	
343	470.70619797706604	picture	0		92	341.0	/experiments/knapen_AOT/AOT_stimuli/pictures/1065_fw.png	611.6831419467926	0.8333539962768555
343	471.4580409526825	response	0	k		341.0	/experiments/knapen_AOT/AOT_stimuli/pictures/1065_fw.png	612.4349849224091	
344	471.5395519733429	picture	0		80	342.0	/experiments/knapen_AOT/AOT_stimuli/pictures/1160_fw.png	612.5164959430695	0.7166938781738281
344	472.19810795783997	response	0	k		342.0	/experiments/knapen_AOT/AOT_stimuli/pictures/1160_fw.png	613.1750519275665	
345	472.2562458515167	picture	0		81	343.0	/experiments/knapen_AOT/AOT_stimuli/pictures/0386_fw.png	613.2331898212433	0.7100379467010498
345	472.9231069087982	response	0	k		343.0	/experiments/knapen_AOT/AOT_stimuli/pictures/0386_fw.png	613.9000508785248	
346	472.9662837982178	picture	0		269	344.0	/experiments/knapen_AOT/AOT_stimuli/pictures/2131_fw.png	613.9432277679443	2.2816460132598877
346	475.1981439590454	response	0	k		344.0	/experiments/knapen_AOT/AOT_stimuli/pictures/2131_fw.png	616.175087928772	
347	475.24792981147766	picture	0		121	345.0	/experiments/knapen_AOT/AOT_stimuli/pictures/0608_fw.png	616.2248737812042	1.0667271614074707
347	476.24140882492065	response	0	j		345.0	/experiments/knapen_AOT/AOT_stimuli/pictures/0608_fw.png	617.2183527946472	
348	476.31465697288513	picture	0		241	346.0	/experiments/knapen_AOT/AOT_stimuli/pictures/1470_fw.png	617.2916009426117	2.0417308807373047
348	478.3148739337921	response	0	j		346.0	/experiments/knapen_AOT/AOT_stimuli/pictures/1470_fw.png	619.2918179035187	
349	478.35638785362244	picture	0		91	347.0	/experiments/knapen_AOT/AOT_stimuli/pictures/0237_fw.png	619.333331823349	0.8082871437072754
349	479.10654497146606	response	0	k		347.0	/experiments/knapen_AOT/AOT_stimuli/pictures/0237_fw.png	620.0834889411926	
350	479.1646749973297	picture	0		107	348.0	/experiments/knapen_AOT/AOT_stimuli/pictures/1930_fw.png	620.1416189670563	0.9583477973937988
350	480.0412678718567	response	0	k		348.0	/experiments/knapen_AOT/AOT_stimuli/pictures/1930_fw.png	621.0182118415833	
351	480.1230227947235	picture	0		142	349.0	/experiments/knapen_AOT/AOT_stimuli/pictures/1829_fw.png	621.0999667644501	1.2252740859985352
351	481.29824686050415	response	0	k		349.0	/experiments/knapen_AOT/AOT_stimuli/pictures/1829_fw.png	622.2751908302307	
352	481.34829688072205	picture	0		105	350.0	/experiments/knapen_AOT/AOT_stimuli/pictures/0440_fw.png	622.3252408504486	0.9097330570220947
352	482.21487379074097	response	0	k		350.0	/experiments/knapen_AOT/AOT_stimuli/pictures/0440_fw.png	623.1918177604675	
353	482.25802993774414	picture	0		86	351.0	/experiments/knapen_AOT/AOT_stimuli/pictures/0338_fw.png	623.2349739074707	0.756666898727417
353	482.9648869037628	response	0	k		351.0	/experiments/knapen_AOT/AOT_stimuli/pictures/0338_fw.png	623.9418308734894	
354	483.01469683647156	picture	0		84	352.0	/experiments/knapen_AOT/AOT_stimuli/pictures/0296_fw.png	623.9916408061981	0.7294440269470215
354	483.7066488265991	response	0	k		352.0	/experiments/knapen_AOT/AOT_stimuli/pictures/0296_fw.png	624.6835927963257	
355	483.7441408634186	picture	0		103	353.0	/experiments/knapen_AOT/AOT_stimuli/pictures/0453_fw.png	624.7210848331451	0.8789510726928711
355	484.5898838043213	response	0	k		353.0	/experiments/knapen_AOT/AOT_stimuli/pictures/0453_fw.png	625.5668277740479	
356	484.62309193611145	picture	0		101	354.0	/experiments/knapen_AOT/AOT_stimuli/pictures/1360_fw.png	625.600035905838	0.8751170635223389
356	485.45001196861267	response	0	j		354.0	/experiments/knapen_AOT/AOT_stimuli/pictures/1360_fw.png	626.4269559383392	
357	485.4982089996338	picture	0		88	355.0	/experiments/knapen_AOT/AOT_stimuli/pictures/0673_fw.png	626.4751529693604	0.766855001449585
357	486.22345495224	response	0	j		355.0	/experiments/knapen_AOT/AOT_stimuli/pictures/0673_fw.png	627.2003989219666	
358	486.2650640010834	picture	0		115	356.0	/experiments/knapen_AOT/AOT_stimuli/pictures/1657_fw.png	627.2420079708099	0.9930698871612549
358	487.2149498462677	response	0	j		356.0	/experiments/knapen_AOT/AOT_stimuli/pictures/1657_fw.png	628.1918938159943	
359	487.25813388824463	picture	0		125	357.0	/experiments/knapen_AOT/AOT_stimuli/pictures/0167_fw.png	628.2350778579712	1.0733280181884766
359	488.289972782135	response	0	k		357.0	/experiments/knapen_AOT/AOT_stimuli/pictures/0167_fw.png	629.2669167518616	
360	488.3314619064331	picture	0		107	358.0	/experiments/knapen_AOT/AOT_stimuli/pictures/0072_fw.png	629.3084058761597	0.9417970180511475
360	489.21496295928955	response	0	k		358.0	/experiments/knapen_AOT/AOT_stimuli/pictures/0072_fw.png	630.1919069290161	
361	489.27325892448425	picture	0		115	359.0	/experiments/knapen_AOT/AOT_stimuli/pictures/0704_fw.png	630.2502028942108	0.991765022277832
361	490.2234938144684	response	0	k		359.0	/experiments/knapen_AOT/AOT_stimuli/pictures/0704_fw.png	631.200437784195	
362	490.2650239467621	stim	0		148			631.2419679164886	1.2582619190216064
362	491.4899778366089	response	0	space				632.4669218063354	
