trial_nr	onset	event_type	phase	response	nr_frames	picture_index	picture_file	onset_abs	duration
0	0.17363381385803223	stim	0		782			55.43501687049866	6.5345823764801025
0	6.690898656845093	response	0	space				61.95228171348572	
2	6.708216190338135	picture	0		155	0.0	/experiments/Knapen_AOT/AOT_stimuli/pictures/1599_fw.png	61.96959924697876	1.3095166683197021
2	7.997657060623169	response	0	j		0.0	/experiments/Knapen_AOT/AOT_stimuli/pictures/1599_fw.png	63.259040117263794	
3	8.017732858657837	picture	0		117	1.0	/experiments/Knapen_AOT/AOT_stimuli/pictures/1430_fw.png	63.27911591529846	0.9822502136230469
3	8.9905526638031	response	0	k		1.0	/experiments/Knapen_AOT/AOT_stimuli/pictures/1430_fw.png	64.25193572044373	
4	8.999983072280884	picture	0		97	2.0	/experiments/Knapen_AOT/AOT_stimuli/pictures/1499_fw.png	64.26136612892151	0.8125300407409668
4	9.798932313919067	response	0	k		2.0	/experiments/Knapen_AOT/AOT_stimuli/pictures/1499_fw.png	65.06031537055969	
5	9.81251311302185	picture	0		155	3.0	/experiments/Knapen_AOT/AOT_stimuli/pictures/0659_fw.png	65.07389616966248	1.298687219619751
5	11.091272592544556	response	0	k		3.0	/experiments/Knapen_AOT/AOT_stimuli/pictures/0659_fw.png	66.35265564918518	
6	11.111200332641602	picture	0		67	4.0	/experiments/Knapen_AOT/AOT_stimuli/pictures/2163_fw.png	66.37258338928223	0.562565803527832
6	11.657293319702148	response	0	k		4.0	/experiments/Knapen_AOT/AOT_stimuli/pictures/2163_fw.png	66.91867637634277	
7	11.673766136169434	picture	0		97	5.0	/experiments/Knapen_AOT/AOT_stimuli/pictures/0751_fw.png	66.93514919281006	0.8166558742523193
7	12.47397518157959	response	0	k		5.0	/experiments/Knapen_AOT/AOT_stimuli/pictures/0751_fw.png	67.73535823822021	
8	12.490422010421753	picture	0		90	6.0	/experiments/Knapen_AOT/AOT_stimuli/pictures/0414_fw.png	67.75180506706238	0.758342981338501
8	13.232645511627197	response	0	j		6.0	/experiments/Knapen_AOT/AOT_stimuli/pictures/0414_fw.png	68.49402856826782	
9	13.248764991760254	picture	0		137	7.0	/experiments/Knapen_AOT/AOT_stimuli/pictures/0348_fw.png	68.51014804840088	1.1471128463745117
9	14.382229566574097	response	0	k		7.0	/experiments/Knapen_AOT/AOT_stimuli/pictures/0348_fw.png	69.64361262321472	
10	14.395877838134766	picture	0		139	8.0	/experiments/Knapen_AOT/AOT_stimuli/pictures/1908_fw.png	69.65726089477539	1.1666734218597412
10	15.548877239227295	response	0	j		8.0	/experiments/Knapen_AOT/AOT_stimuli/pictures/1908_fw.png	70.81026029586792	
11	15.562551259994507	picture	0		112	9.0	/experiments/Knapen_AOT/AOT_stimuli/pictures/0843_fw.png	70.82393431663513	0.9445736408233643
11	16.4831645488739	response	0	k		9.0	/experiments/Knapen_AOT/AOT_stimuli/pictures/0843_fw.png	71.74454760551453	
12	16.50712490081787	picture	0		106	10.0	/experiments/Knapen_AOT/AOT_stimuli/pictures/0602_fw.png	71.7685079574585	0.8887696266174316
12	17.38229775428772	response	0	j		10.0	/experiments/Knapen_AOT/AOT_stimuli/pictures/0602_fw.png	72.64368081092834	
13	17.395894527435303	picture	0		172	11.0	/experiments/Knapen_AOT/AOT_stimuli/pictures/1772_fw.png	72.65727758407593	1.4374110698699951
13	18.823966026306152	response	0	k		11.0	/experiments/Knapen_AOT/AOT_stimuli/pictures/1772_fw.png	74.08534908294678	
14	18.833305597305298	picture	0		105	12.0	/experiments/Knapen_AOT/AOT_stimuli/pictures/1661_fw.png	74.09468865394592	0.8750932216644287
14	19.699032306671143	response	0	k		12.0	/experiments/Knapen_AOT/AOT_stimuli/pictures/1661_fw.png	74.96041536331177	
15	19.708398818969727	picture	0		88	13.0	/experiments/Knapen_AOT/AOT_stimuli/pictures/0770_fw.png	74.96978187561035	0.7361133098602295
15	20.432313442230225	response	0	k		13.0	/experiments/Knapen_AOT/AOT_stimuli/pictures/0770_fw.png	75.69369649887085	
16	20.444512128829956	picture	0		87	14.0	/experiments/Knapen_AOT/AOT_stimuli/pictures/0359_fw.png	75.70589518547058	0.729353666305542
16	21.157307147979736	response	0	j		14.0	/experiments/Knapen_AOT/AOT_stimuli/pictures/0359_fw.png	76.41869020462036	
17	21.173865795135498	picture	0		117	15.0	/experiments/Knapen_AOT/AOT_stimuli/pictures/0681_fw.png	76.43524885177612	0.9790334701538086
17	22.140658140182495	response	0	j		15.0	/experiments/Knapen_AOT/AOT_stimuli/pictures/0681_fw.png	77.40204119682312	
18	22.152899265289307	picture	0		273	16.0	/experiments/Knapen_AOT/AOT_stimuli/pictures/1751_fw.png	77.41428232192993	2.279348611831665
18	24.4157452583313	response	0	k		16.0	/experiments/Knapen_AOT/AOT_stimuli/pictures/1751_fw.png	79.67712831497192	
19	24.43224787712097	picture	0		82	17.0	/experiments/Knapen_AOT/AOT_stimuli/pictures/0286_fw.png	79.6936309337616	0.6859405040740967
19	25.10741424560547	response	0	j		17.0	/experiments/Knapen_AOT/AOT_stimuli/pictures/0286_fw.png	80.3687973022461	
20	25.11818838119507	picture	0		138	18.0	/experiments/Knapen_AOT/AOT_stimuli/pictures/1249_fw.png	80.3795714378357	1.1557419300079346
20	26.257390022277832	response	0	j		18.0	/experiments/Knapen_AOT/AOT_stimuli/pictures/1249_fw.png	81.51877307891846	
21	26.273930311203003	picture	0		147	19.0	/experiments/Knapen_AOT/AOT_stimuli/pictures/1644_fw.png	81.53531336784363	1.23331880569458
21	27.483241081237793	response	0	k		19.0	/experiments/Knapen_AOT/AOT_stimuli/pictures/1644_fw.png	82.74462413787842	
22	27.507249116897583	picture	0		97	20.0	/experiments/Knapen_AOT/AOT_stimuli/pictures/0090_fw.png	82.76863217353821	0.8123586177825928
22	28.307451963424683	response	0	k		20.0	/experiments/Knapen_AOT/AOT_stimuli/pictures/0090_fw.png	83.56883502006531	
23	28.319607734680176	picture	0		97	21.0	/experiments/Knapen_AOT/AOT_stimuli/pictures/1810_fw.png	83.5809907913208	0.8055567741394043
23	29.115864753723145	response	0	j		21.0	/experiments/Knapen_AOT/AOT_stimuli/pictures/1810_fw.png	84.37724781036377	
24	29.12516450881958	picture	0		73	22.0	/experiments/Knapen_AOT/AOT_stimuli/pictures/1536_fw.png	84.3865475654602	0.6111042499542236
24	29.72408699989319	response	0	j		22.0	/experiments/Knapen_AOT/AOT_stimuli/pictures/1536_fw.png	84.98547005653381	
25	29.736268758773804	picture	0		149	23.0	/experiments/Knapen_AOT/AOT_stimuli/pictures/1805_fw.png	84.99765181541443	1.2430672645568848
25	30.965745449066162	response	0	k		23.0	/experiments/Knapen_AOT/AOT_stimuli/pictures/1805_fw.png	86.22712850570679	
26	30.97933602333069	picture	0		108	24.0	/experiments/Knapen_AOT/AOT_stimuli/pictures/1936_fw.png	86.24071907997131	0.902963399887085
26	31.867093563079834	response	0	k		24.0	/experiments/Knapen_AOT/AOT_stimuli/pictures/1936_fw.png	87.12847661972046	
27	31.882299423217773	picture	0		76	25.0	/experiments/Knapen_AOT/AOT_stimuli/pictures/0486_fw.png	87.1436824798584	0.6387171745300293
27	32.50747036933899	response	0	j		25.0	/experiments/Knapen_AOT/AOT_stimuli/pictures/0486_fw.png	87.76885342597961	
28	32.5210165977478	picture	0		74	26.0	/experiments/Knapen_AOT/AOT_stimuli/pictures/0219_fw.png	87.78239965438843	0.624969482421875
28	33.13244128227234	response	0	j		26.0	/experiments/Knapen_AOT/AOT_stimuli/pictures/0219_fw.png	88.39382433891296	
29	33.14598608016968	picture	0		180	27.0	/experiments/Knapen_AOT/AOT_stimuli/pictures/1952_fw.png	88.4073691368103	1.5068762302398682
29	34.64085650444031	response	0	k		27.0	/experiments/Knapen_AOT/AOT_stimuli/pictures/1952_fw.png	89.90223956108093	
30	34.652862310409546	picture	0		117	28.0	/experiments/Knapen_AOT/AOT_stimuli/pictures/0062_fw.png	89.91424536705017	0.9795000553131104
30	35.61605477333069	response	0	j		28.0	/experiments/Knapen_AOT/AOT_stimuli/pictures/0062_fw.png	90.87743782997131	
31	35.632362365722656	picture	0		198	29.0	/experiments/Knapen_AOT/AOT_stimuli/pictures/1832_fw.png	90.89374542236328	1.6524631977081299
31	37.27422738075256	response	0	k		29.0	/experiments/Knapen_AOT/AOT_stimuli/pictures/1832_fw.png	92.53561043739319	
32	37.284825563430786	picture	0		91	30.0	/experiments/Knapen_AOT/AOT_stimuli/pictures/1884_fw.png	92.54620862007141	0.757075309753418
32	38.03253507614136	response	0	j		30.0	/experiments/Knapen_AOT/AOT_stimuli/pictures/1884_fw.png	93.29391813278198	
33	38.041900873184204	picture	0		129	31.0	/experiments/Knapen_AOT/AOT_stimuli/pictures/0513_fw.png	93.30328392982483	1.082197666168213
33	39.107584714889526	response	0	k		31.0	/experiments/Knapen_AOT/AOT_stimuli/pictures/0513_fw.png	94.36896777153015	
34	39.12409853935242	picture	0		77	32.0	/experiments/Knapen_AOT/AOT_stimuli/pictures/0449_fw.png	94.38548159599304	0.6469738483428955
34	39.757561683654785	response	0	j		32.0	/experiments/Knapen_AOT/AOT_stimuli/pictures/0449_fw.png	95.01894474029541	
35	39.77107238769531	picture	0		101	33.0	/experiments/Knapen_AOT/AOT_stimuli/pictures/0728_fw.png	95.03245544433594	0.8473763465881348
35	40.60777521133423	response	0	j		33.0	/experiments/Knapen_AOT/AOT_stimuli/pictures/0728_fw.png	95.86915826797485	
36	40.61844873428345	picture	0		74	34.0	/experiments/Knapen_AOT/AOT_stimuli/pictures/1225_fw.png	95.87983179092407	0.6223375797271729
36	41.22427439689636	response	0	j		34.0	/experiments/Knapen_AOT/AOT_stimuli/pictures/1225_fw.png	96.48565745353699	
37	41.24078631401062	picture	0		98	35.0	/experiments/Knapen_AOT/AOT_stimuli/pictures/1514_fw.png	96.50216937065125	0.8219583034515381
37	42.0492582321167	response	0	k		35.0	/experiments/Knapen_AOT/AOT_stimuli/pictures/1514_fw.png	97.31064128875732	
38	42.06274461746216	picture	0		91	36.0	/experiments/Knapen_AOT/AOT_stimuli/pictures/0579_fw.png	97.32412767410278	0.7697227001190186
38	42.8159601688385	response	0	j		36.0	/experiments/Knapen_AOT/AOT_stimuli/pictures/0579_fw.png	98.07734322547913	
39	42.83246731758118	picture	0		147	37.0	/experiments/Knapen_AOT/AOT_stimuli/pictures/0099_fw.png	98.0938503742218	1.2333803176879883
39	44.04926776885986	response	0	k		37.0	/experiments/Knapen_AOT/AOT_stimuli/pictures/0099_fw.png	99.31065082550049	
40	44.065847635269165	picture	0		155	38.0	/experiments/Knapen_AOT/AOT_stimuli/pictures/0683_fw.png	99.32723069190979	1.2955620288848877
40	45.349280834198	response	0	k		38.0	/experiments/Knapen_AOT/AOT_stimuli/pictures/0683_fw.png	100.61066389083862	
41	45.36140966415405	picture	0		89	39.0	/experiments/Knapen_AOT/AOT_stimuli/pictures/0673_fw.png	100.62279272079468	0.7461209297180176
41	46.083383560180664	response	0	j		39.0	/experiments/Knapen_AOT/AOT_stimuli/pictures/0673_fw.png	101.34476661682129	
42	46.10753059387207	picture	0		87	40.0	/experiments/Knapen_AOT/AOT_stimuli/pictures/0698_fw.png	101.3689136505127	0.7261335849761963
42	46.82428979873657	response	0	j		40.0	/experiments/Knapen_AOT/AOT_stimuli/pictures/0698_fw.png	102.0856728553772	
43	46.83366417884827	picture	0		71	41.0	/experiments/Knapen_AOT/AOT_stimuli/pictures/0310_fw.png	102.09504723548889	0.5904903411865234
43	47.416054248809814	response	0	j		41.0	/experiments/Knapen_AOT/AOT_stimuli/pictures/0310_fw.png	102.67743730545044	
44	47.42415452003479	picture	0		95	42.0	/experiments/Knapen_AOT/AOT_stimuli/pictures/0500_fw.png	102.68553757667542	0.8000783920288086
44	48.207714796066284	response	0	k		42.0	/experiments/Knapen_AOT/AOT_stimuli/pictures/0500_fw.png	103.46909785270691	
45	48.2242329120636	picture	0		110	43.0	/experiments/Knapen_AOT/AOT_stimuli/pictures/1710_fw.png	103.48561596870422	0.9249742031097412
45	49.13268518447876	response	0	j		43.0	/experiments/Knapen_AOT/AOT_stimuli/pictures/1710_fw.png	104.39406824111938	
46	49.14920711517334	picture	0		110	44.0	/experiments/Knapen_AOT/AOT_stimuli/pictures/0020_fw.png	104.41059017181396	0.9205217361450195
46	50.057687282562256	response	0	k		44.0	/experiments/Knapen_AOT/AOT_stimuli/pictures/0020_fw.png	105.31907033920288	
47	50.06972885131836	picture	0		155	45.0	/experiments/Knapen_AOT/AOT_stimuli/pictures/1594_fw.png	105.33111190795898	1.2917098999023438
47	51.34935641288757	response	0	k		45.0	/experiments/Knapen_AOT/AOT_stimuli/pictures/1594_fw.png	106.6107394695282	
48	51.3614387512207	picture	0		98	46.0	/experiments/Knapen_AOT/AOT_stimuli/pictures/1471_fw.png	106.62282180786133	0.812779426574707
48	52.16605496406555	response	0	k		46.0	/experiments/Knapen_AOT/AOT_stimuli/pictures/1471_fw.png	107.42743802070618	
49	52.17421817779541	picture	0		153	47.0	/experiments/Knapen_AOT/AOT_stimuli/pictures/2088_fw.png	107.43560123443604	1.2775046825408936
49	53.44105386734009	response	0	j		47.0	/experiments/Knapen_AOT/AOT_stimuli/pictures/2088_fw.png	108.70243692398071	
50	53.451722860336304	picture	0		131	48.0	/experiments/Knapen_AOT/AOT_stimuli/pictures/1546_fw.png	108.71310591697693	1.0902695655822754
50	54.532814264297485	response	0	k		48.0	/experiments/Knapen_AOT/AOT_stimuli/pictures/1546_fw.png	109.79419732093811	
51	54.54199242591858	picture	0		154	49.0	/experiments/Knapen_AOT/AOT_stimuli/pictures/1045_fw.png	109.8033754825592	1.2847771644592285
51	55.8160719871521	response	0	k		49.0	/experiments/Knapen_AOT/AOT_stimuli/pictures/1045_fw.png	111.07745504379272	
52	55.82676959037781	picture	0		94	50.0	/experiments/Knapen_AOT/AOT_stimuli/pictures/1857_fw.png	111.08815264701843	0.7846736907958984
52	56.59941911697388	response	0	k		50.0	/experiments/Knapen_AOT/AOT_stimuli/pictures/1857_fw.png	111.8608021736145	
53	56.611443281173706	picture	0		96	51.0	/experiments/Knapen_AOT/AOT_stimuli/pictures/0413_fw.png	111.87282633781433	0.8045716285705566
53	57.39948534965515	response	0	j		51.0	/experiments/Knapen_AOT/AOT_stimuli/pictures/0413_fw.png	112.66086840629578	
54	57.41601490974426	picture	0		189	52.0	/experiments/Knapen_AOT/AOT_stimuli/pictures/0392_fw.png	112.67739796638489	1.5773024559020996
54	58.98278570175171	response	0	j		52.0	/experiments/Knapen_AOT/AOT_stimuli/pictures/0392_fw.png	114.24416875839233	
55	58.99331736564636	picture	0		105	53.0	/experiments/Knapen_AOT/AOT_stimuli/pictures/0530_fw.png	114.25470042228699	0.8751692771911621
55	59.85785889625549	response	0	k		53.0	/experiments/Knapen_AOT/AOT_stimuli/pictures/0530_fw.png	115.11924195289612	
56	59.868486642837524	picture	0		91	54.0	/experiments/Knapen_AOT/AOT_stimuli/pictures/1926_fw.png	115.12986969947815	0.764211893081665
56	60.61619257926941	response	0	k		54.0	/experiments/Knapen_AOT/AOT_stimuli/pictures/1926_fw.png	115.87757563591003	
57	60.63269853591919	picture	0		84	55.0	/experiments/Knapen_AOT/AOT_stimuli/pictures/1827_fw.png	115.89408159255981	0.7009837627410889
57	61.32455539703369	response	0	j		55.0	/experiments/Knapen_AOT/AOT_stimuli/pictures/1827_fw.png	116.58593845367432	
58	61.33368229866028	picture	0		123	56.0	/experiments/Knapen_AOT/AOT_stimuli/pictures/0607_fw.png	116.5950653553009	1.0278339385986328
58	62.349568128585815	response	0	k		56.0	/experiments/Knapen_AOT/AOT_stimuli/pictures/0607_fw.png	117.61095118522644	
59	62.36151623725891	picture	0		158	57.0	/experiments/Knapen_AOT/AOT_stimuli/pictures/0229_fw.png	117.62289929389954	1.3128490447998047
59	63.66627764701843	response	0	k		57.0	/experiments/Knapen_AOT/AOT_stimuli/pictures/0229_fw.png	118.92766070365906	
60	63.674365282058716	picture	0		106	58.0	/experiments/Knapen_AOT/AOT_stimuli/pictures/1704_fw.png	118.93574833869934	0.8885219097137451
60	64.54951238632202	response	0	k		58.0	/experiments/Knapen_AOT/AOT_stimuli/pictures/1704_fw.png	119.81089544296265	
61	64.56288719177246	picture	0		86	59.0	/experiments/Knapen_AOT/AOT_stimuli/pictures/1491_fw.png	119.82427024841309	0.7222306728363037
61	65.26715302467346	response	0	j		59.0	/experiments/Knapen_AOT/AOT_stimuli/pictures/1491_fw.png	120.52853608131409	
62	65.28511786460876	picture	0		106	60.0	/experiments/Knapen_AOT/AOT_stimuli/pictures/1402_fw.png	120.54650092124939	0.8892910480499268
62	66.15790343284607	response	0	k		60.0	/experiments/Knapen_AOT/AOT_stimuli/pictures/1402_fw.png	121.4192864894867	
63	66.17440891265869	picture	0		131	61.0	/experiments/Knapen_AOT/AOT_stimuli/pictures/1690_fw.png	121.43579196929932	1.1000347137451172
63	67.25809669494629	response	0	j		61.0	/experiments/Knapen_AOT/AOT_stimuli/pictures/1690_fw.png	122.51947975158691	
64	67.27444362640381	picture	0		108	62.0	/experiments/Knapen_AOT/AOT_stimuli/pictures/1815_fw.png	122.53582668304443	0.9083569049835205
64	68.1662769317627	response	0	k		62.0	/experiments/Knapen_AOT/AOT_stimuli/pictures/1815_fw.png	123.42765998840332	
65	68.18280053138733	picture	0		148	63.0	/experiments/Knapen_AOT/AOT_stimuli/pictures/0702_fw.png	123.44418358802795	1.2416579723358154
65	69.4079430103302	response	0	k		63.0	/experiments/Knapen_AOT/AOT_stimuli/pictures/0702_fw.png	124.66932606697083	
66	69.42445850372314	picture	0		133	64.0	/experiments/Knapen_AOT/AOT_stimuli/pictures/1299_fw.png	124.68584156036377	1.1166949272155762
66	70.52477240562439	response	0	k		64.0	/experiments/Knapen_AOT/AOT_stimuli/pictures/1299_fw.png	125.78615546226501	
67	70.54115343093872	picture	0		128	65.0	/experiments/Knapen_AOT/AOT_stimuli/pictures/1168_fw.png	125.80253648757935	1.0749919414520264
67	71.59965372085571	response	0	k		65.0	/experiments/Knapen_AOT/AOT_stimuli/pictures/1168_fw.png	126.86103677749634	
68	71.61614537239075	picture	0		167	66.0	/experiments/Knapen_AOT/AOT_stimuli/pictures/0432_fw.png	126.87752842903137	1.400036096572876
68	73.00064158439636	response	0	k		66.0	/experiments/Knapen_AOT/AOT_stimuli/pictures/0432_fw.png	128.262024641037	
69	73.01618146896362	picture	0		166	67.0	/experiments/Knapen_AOT/AOT_stimuli/pictures/0143_fw.png	128.27756452560425	1.3869915008544922
69	74.39133524894714	response	0	j		67.0	/experiments/Knapen_AOT/AOT_stimuli/pictures/0143_fw.png	129.65271830558777	
70	74.40317296981812	picture	0		132	68.0	/experiments/Knapen_AOT/AOT_stimuli/pictures/1129_fw.png	129.66455602645874	1.0973427295684814
70	75.49131560325623	response	0	k		68.0	/experiments/Knapen_AOT/AOT_stimuli/pictures/1129_fw.png	130.75269865989685	
71	75.5005156993866	picture	0		87	69.0	/experiments/Knapen_AOT/AOT_stimuli/pictures/0695_fw.png	130.76189875602722	0.7291519641876221
71	76.21633076667786	response	0	j		69.0	/experiments/Knapen_AOT/AOT_stimuli/pictures/0695_fw.png	131.47771382331848	
72	76.22966766357422	picture	0		130	70.0	/experiments/Knapen_AOT/AOT_stimuli/pictures/0255_fw.png	131.49105072021484	1.0902936458587646
72	77.30801939964294	response	0	k		70.0	/experiments/Knapen_AOT/AOT_stimuli/pictures/0255_fw.png	132.56940245628357	
73	77.31996130943298	picture	0		93	71.0	/experiments/Knapen_AOT/AOT_stimuli/pictures/1271_fw.png	132.5813443660736	0.7796444892883301
73	78.07566165924072	response	0	j		71.0	/experiments/Knapen_AOT/AOT_stimuli/pictures/1271_fw.png	133.33704471588135	
74	78.09960579872131	picture	0		293	72.0	/experiments/Knapen_AOT/AOT_stimuli/pictures/1589_fw.png	133.36098885536194	2.4424757957458496
74	80.53310060501099	response	0	k		72.0	/experiments/Knapen_AOT/AOT_stimuli/pictures/1589_fw.png	135.7944836616516	
75	80.54208159446716	picture	0		94	73.0	/experiments/Knapen_AOT/AOT_stimuli/pictures/0437_fw.png	135.8034646511078	0.7848501205444336
75	81.3164427280426	response	0	k		73.0	/experiments/Knapen_AOT/AOT_stimuli/pictures/0437_fw.png	136.57782578468323	
76	81.3269317150116	picture	0		174	74.0	/experiments/Knapen_AOT/AOT_stimuli/pictures/1362_fw.png	136.58831477165222	1.451289176940918
76	82.76644992828369	response	0	j		74.0	/experiments/Knapen_AOT/AOT_stimuli/pictures/1362_fw.png	138.02783298492432	
77	82.77822089195251	picture	0		121	75.0	/experiments/Knapen_AOT/AOT_stimuli/pictures/0248_fw.png	138.03960394859314	1.007054328918457
77	83.77482485771179	response	0	k		75.0	/experiments/Knapen_AOT/AOT_stimuli/pictures/0248_fw.png	139.03620791435242	
78	83.78527522087097	picture	0		81	76.0	/experiments/Knapen_AOT/AOT_stimuli/pictures/0910_fw.png	139.0466582775116	0.6736271381378174
78	84.4434700012207	response	0	j		76.0	/experiments/Knapen_AOT/AOT_stimuli/pictures/0910_fw.png	139.70485305786133	
79	84.45890235900879	picture	0		103	77.0	/experiments/Knapen_AOT/AOT_stimuli/pictures/1517_fw.png	139.7202854156494	0.8611171245574951
79	85.30814051628113	response	0	j		77.0	/experiments/Knapen_AOT/AOT_stimuli/pictures/1517_fw.png	140.56952357292175	
80	85.32001948356628	picture	0		419	78.0	/experiments/Knapen_AOT/AOT_stimuli/pictures/0035_fw.png	140.5814025402069	3.492981433868408
80	88.79982781410217	response	0	k		78.0	/experiments/Knapen_AOT/AOT_stimuli/pictures/0035_fw.png	144.0612108707428	
81	88.81300091743469	picture	0		103	79.0	/experiments/Knapen_AOT/AOT_stimuli/pictures/1919_fw.png	144.07438397407532	0.8616933822631836
81	89.65914630889893	response	0	j		79.0	/experiments/Knapen_AOT/AOT_stimuli/pictures/1919_fw.png	144.92052936553955	
82	89.67469429969788	picture	0		81	80.0	/experiments/Knapen_AOT/AOT_stimuli/pictures/1443_fw.png	144.9360773563385	0.68009352684021
82	90.341552734375	response	0	j		80.0	/experiments/Knapen_AOT/AOT_stimuli/pictures/1443_fw.png	145.60293579101562	
83	90.35478782653809	picture	0		187	81.0	/experiments/Knapen_AOT/AOT_stimuli/pictures/0368_fw.png	145.6161708831787	1.5699670314788818
83	91.90847134590149	response	0	j		81.0	/experiments/Knapen_AOT/AOT_stimuli/pictures/0368_fw.png	147.16985440254211	
84	91.92475485801697	picture	0		164	82.0	/experiments/Knapen_AOT/AOT_stimuli/pictures/1756_fw.png	147.1861379146576	1.3674232959747314
84	93.27581334114075	response	0	k		82.0	/experiments/Knapen_AOT/AOT_stimuli/pictures/1756_fw.png	148.53719639778137	
85	93.2921781539917	picture	0		118	83.0	/experiments/Knapen_AOT/AOT_stimuli/pictures/0592_fw.png	148.55356121063232	0.9863026142120361
85	94.26663708686829	response	0	k		83.0	/experiments/Knapen_AOT/AOT_stimuli/pictures/0592_fw.png	149.5280201435089	
86	94.27848076820374	picture	0		102	84.0	/experiments/Knapen_AOT/AOT_stimuli/pictures/0840_fw.png	149.53986382484436	0.8471662998199463
86	95.11660504341125	response	0	k		84.0	/experiments/Knapen_AOT/AOT_stimuli/pictures/0840_fw.png	150.37798810005188	
87	95.12564706802368	picture	0		105	85.0	/experiments/Knapen_AOT/AOT_stimuli/pictures/1383_fw.png	150.3870301246643	0.8750348091125488
87	95.9915840625763	response	0	j		85.0	/experiments/Knapen_AOT/AOT_stimuli/pictures/1383_fw.png	151.25296711921692	
88	96.00068187713623	picture	0		122	86.0	/experiments/Knapen_AOT/AOT_stimuli/pictures/2107_fw.png	151.26206493377686	1.020796775817871
88	97.00827026367188	response	0	k		86.0	/experiments/Knapen_AOT/AOT_stimuli/pictures/2107_fw.png	152.2696533203125	
89	97.0214786529541	picture	0		94	87.0	/experiments/Knapen_AOT/AOT_stimuli/pictures/0273_fw.png	152.28286170959473	0.7916979789733887
89	97.79997181892395	response	0	k		87.0	/experiments/Knapen_AOT/AOT_stimuli/pictures/0273_fw.png	153.06135487556458	
90	97.81317663192749	picture	0		181	88.0	/experiments/Knapen_AOT/AOT_stimuli/pictures/1557_fw.png	153.07455968856812	1.528386116027832
90	99.31668400764465	response	0	j		88.0	/experiments/Knapen_AOT/AOT_stimuli/pictures/1557_fw.png	154.57806706428528	
91	99.34156274795532	picture	0		113	89.0	/experiments/Knapen_AOT/AOT_stimuli/pictures/1313_fw.png	154.60294580459595	0.9499921798706055
91	100.26738405227661	response	0	j		89.0	/experiments/Knapen_AOT/AOT_stimuli/pictures/1313_fw.png	155.52876710891724	
92	100.29155492782593	picture	0		81	90.0	/experiments/Knapen_AOT/AOT_stimuli/pictures/1037_fw.png	155.55293798446655	0.6833035945892334
92	100.95835041999817	response	0	j		90.0	/experiments/Knapen_AOT/AOT_stimuli/pictures/1037_fw.png	156.2197334766388	
93	100.97485852241516	picture	0		87	91.0	/experiments/Knapen_AOT/AOT_stimuli/pictures/0905_fw.png	156.2362415790558	0.7272319793701172
93	101.69170546531677	response	0	j		91.0	/experiments/Knapen_AOT/AOT_stimuli/pictures/0905_fw.png	156.9530885219574	
94	101.70209050178528	picture	0		112	92.0	/experiments/Knapen_AOT/AOT_stimuli/pictures/1193_fw.png	156.9634735584259	0.9311015605926514
94	102.62505745887756	response	0	k		92.0	/experiments/Knapen_AOT/AOT_stimuli/pictures/1193_fw.png	157.8864405155182	
95	102.63319206237793	picture	0		119	93.0	/experiments/Knapen_AOT/AOT_stimuli/pictures/1864_fw.png	157.89457511901855	1.000032901763916
95	103.61693477630615	response	0	j		93.0	/experiments/Knapen_AOT/AOT_stimuli/pictures/1864_fw.png	158.87831783294678	
96	103.63322496414185	picture	0		348	94.0	/experiments/Knapen_AOT/AOT_stimuli/pictures/0412_fw.png	158.89460802078247	2.908395767211914
96	106.52507710456848	response	0	k		94.0	/experiments/Knapen_AOT/AOT_stimuli/pictures/0412_fw.png	161.7864601612091	
97	106.54162073135376	picture	0		87	95.0	/experiments/Knapen_AOT/AOT_stimuli/pictures/1161_fw.png	161.80300378799438	0.7299458980560303
97	107.2586076259613	response	0	j		95.0	/experiments/Knapen_AOT/AOT_stimuli/pictures/1161_fw.png	162.51999068260193	
98	107.27156662940979	picture	0		108	96.0	/experiments/Knapen_AOT/AOT_stimuli/pictures/0499_fw.png	162.53294968605042	0.9097270965576172
98	108.16679811477661	response	0	j		96.0	/experiments/Knapen_AOT/AOT_stimuli/pictures/0499_fw.png	163.42818117141724	
99	108.18129372596741	picture	0		309	97.0	/experiments/Knapen_AOT/AOT_stimuli/pictures/1160_fw.png	163.44267678260803	2.577000856399536
99	110.75010752677917	response	0	j		97.0	/experiments/Knapen_AOT/AOT_stimuli/pictures/1160_fw.png	166.0114905834198	
100	110.75829458236694	picture	0		145	98.0	/experiments/Knapen_AOT/AOT_stimuli/pictures/2135_fw.png	166.01967763900757	1.208345890045166
100	111.95848274230957	response	0	k		98.0	/experiments/Knapen_AOT/AOT_stimuli/pictures/2135_fw.png	167.2198657989502	
101	111.96664047241211	picture	0		99	99.0	/experiments/Knapen_AOT/AOT_stimuli/pictures/1115_fw.png	167.22802352905273	0.8258063793182373
101	112.7834587097168	response	0	j		99.0	/experiments/Knapen_AOT/AOT_stimuli/pictures/1115_fw.png	168.04484176635742	
102	112.79244685173035	picture	0		122	100.0	/experiments/Knapen_AOT/AOT_stimuli/pictures/1984_fw.png	168.05382990837097	1.0242528915405273
102	113.80013108253479	response	0	k		100.0	/experiments/Knapen_AOT/AOT_stimuli/pictures/1984_fw.png	169.06151413917542	
103	113.81669974327087	picture	0		138	101.0	/experiments/Knapen_AOT/AOT_stimuli/pictures/1544_fw.png	169.0780827999115	1.1563444137573242
103	114.9585325717926	response	0	j		101.0	/experiments/Knapen_AOT/AOT_stimuli/pictures/1544_fw.png	170.21991562843323	
104	114.9730441570282	picture	0		91	102.0	/experiments/Knapen_AOT/AOT_stimuli/pictures/1202_fw.png	170.23442721366882	0.7687149047851562
104	115.72517609596252	response	0	j		102.0	/experiments/Knapen_AOT/AOT_stimuli/pictures/1202_fw.png	170.98655915260315	
105	115.74175906181335	picture	0		98	103.0	/experiments/Knapen_AOT/AOT_stimuli/pictures/0114_fw.png	171.00314211845398	0.8215768337249756
105	116.55022501945496	response	0	k		103.0	/experiments/Knapen_AOT/AOT_stimuli/pictures/0114_fw.png	171.81160807609558	
106	116.56333589553833	picture	0		117	104.0	/experiments/Knapen_AOT/AOT_stimuli/pictures/0264_fw.png	171.82471895217896	0.9784550666809082
106	117.52528834342957	response	0	k		104.0	/experiments/Knapen_AOT/AOT_stimuli/pictures/0264_fw.png	172.7866714000702	
107	117.54179096221924	picture	0		86	105.0	/experiments/Knapen_AOT/AOT_stimuli/pictures/0553_fw.png	172.80317401885986	0.7165908813476562
107	118.25025963783264	response	0	k		105.0	/experiments/Knapen_AOT/AOT_stimuli/pictures/0553_fw.png	173.51164269447327	
108	118.2583818435669	picture	0		13	106.0	/experiments/Knapen_AOT/AOT_stimuli/pictures/1723_fw.png	173.51976490020752	0.11671686172485352
108	118.35855221748352	response	0	k		106.0	/experiments/Knapen_AOT/AOT_stimuli/pictures/1723_fw.png	173.61993527412415	
109	118.37509870529175	picture	0		247	107.0	/experiments/Knapen_AOT/AOT_stimuli/pictures/1602_fw.png	173.63648176193237	2.0666818618774414
109	120.42522549629211	response	0	k		107.0	/experiments/Knapen_AOT/AOT_stimuli/pictures/1602_fw.png	175.68660855293274	
110	120.44178056716919	picture	0		220	108.0	/experiments/Knapen_AOT/AOT_stimuli/pictures/1656_fw.png	175.70316362380981	1.8417069911956787
110	122.2602961063385	response	0	k		108.0	/experiments/Knapen_AOT/AOT_stimuli/pictures/1656_fw.png	177.52167916297913	
111	122.28348755836487	picture	0		80	109.0	/experiments/Knapen_AOT/AOT_stimuli/pictures/0959_fw.png	177.5448706150055	0.6750190258026123
111	122.94194865226746	response	0	j		109.0	/experiments/Knapen_AOT/AOT_stimuli/pictures/0959_fw.png	178.20333170890808	
112	122.95850658416748	picture	0		139	110.0	/experiments/Knapen_AOT/AOT_stimuli/pictures/1286_fw.png	178.2198896408081	1.1666474342346191
112	124.10879778862	response	0	j		110.0	/experiments/Knapen_AOT/AOT_stimuli/pictures/1286_fw.png	179.37018084526062	
113	124.1251540184021	picture	0		136	111.0	/experiments/Knapen_AOT/AOT_stimuli/pictures/0716_fw.png	179.38653707504272	1.1416783332824707
113	125.2503273487091	response	0	k		111.0	/experiments/Knapen_AOT/AOT_stimuli/pictures/0716_fw.png	180.51171040534973	
114	125.26683235168457	picture	0		119	112.0	/experiments/Knapen_AOT/AOT_stimuli/pictures/0803_fw.png	180.5282154083252	1.000032901763916
114	126.25036883354187	response	0	k		112.0	/experiments/Knapen_AOT/AOT_stimuli/pictures/0803_fw.png	181.5117518901825	
115	126.26686525344849	picture	0		117	113.0	/experiments/Knapen_AOT/AOT_stimuli/pictures/0097_fw.png	181.5282483100891	0.9833316802978516
115	127.23370361328125	response	0	k		113.0	/experiments/Knapen_AOT/AOT_stimuli/pictures/0097_fw.png	182.49508666992188	
116	127.25019693374634	picture	0		91	114.0	/experiments/Knapen_AOT/AOT_stimuli/pictures/0475_fw.png	182.51157999038696	0.7666854858398438
116	128.0003478527069	response	0	j		114.0	/experiments/Knapen_AOT/AOT_stimuli/pictures/0475_fw.png	183.26173090934753	
117	128.01688241958618	picture	0		79	115.0	/experiments/Knapen_AOT/AOT_stimuli/pictures/1699_fw.png	183.2782654762268	0.6666600704193115
117	128.65946555137634	response	0	j		115.0	/experiments/Knapen_AOT/AOT_stimuli/pictures/1699_fw.png	183.92084860801697	
118	128.6835424900055	picture	0		82	116.0	/experiments/Knapen_AOT/AOT_stimuli/pictures/0044_fw.png	183.94492554664612	0.6916923522949219
118	129.35885620117188	response	0	j		116.0	/experiments/Knapen_AOT/AOT_stimuli/pictures/0044_fw.png	184.6202392578125	
119	129.37523484230042	picture	0		112	117.0	/experiments/Knapen_AOT/AOT_stimuli/pictures/0314_fw.png	184.63661789894104	0.9381492137908936
119	130.30033540725708	response	0	k		117.0	/experiments/Knapen_AOT/AOT_stimuli/pictures/0314_fw.png	185.5617184638977	
120	130.3133840560913	picture	0		231	118.0	/experiments/Knapen_AOT/AOT_stimuli/pictures/0661_fw.png	185.57476711273193	1.9369678497314453
120	132.23372793197632	response	0	j		118.0	/experiments/Knapen_AOT/AOT_stimuli/pictures/0661_fw.png	187.49511098861694	
121	132.25035190582275	picture	0		123	119.0	/experiments/Knapen_AOT/AOT_stimuli/pictures/0331_fw.png	187.51173496246338	1.033264398574829
121	133.25941348075867	response	0	j		119.0	/experiments/Knapen_AOT/AOT_stimuli/pictures/0331_fw.png	188.5207965373993	
122	133.28361630439758	picture	0		82	120.0	/experiments/Knapen_AOT/AOT_stimuli/pictures/1593_fw.png	188.5449993610382	0.6895630359649658
122	133.95875763893127	response	0	j		120.0	/experiments/Knapen_AOT/AOT_stimuli/pictures/1593_fw.png	189.2201406955719	
123	133.97317934036255	picture	0		105	121.0	/experiments/Knapen_AOT/AOT_stimuli/pictures/1795_fw.png	189.23456239700317	0.8819477558135986
123	134.8421483039856	response	0	k		121.0	/experiments/Knapen_AOT/AOT_stimuli/pictures/1795_fw.png	190.10353136062622	
124	134.85512709617615	picture	0		111	122.0	/experiments/Knapen_AOT/AOT_stimuli/pictures/0051_fw.png	190.11651015281677	0.9236254692077637
124	135.7670922279358	response	0	k		122.0	/experiments/Knapen_AOT/AOT_stimuli/pictures/0051_fw.png	191.02847528457642	
125	135.7787525653839	picture	0		168	123.0	/experiments/Knapen_AOT/AOT_stimuli/pictures/0056_fw.png	191.04013562202454	1.4027531147003174
125	137.16735672950745	response	0	k		123.0	/experiments/Knapen_AOT/AOT_stimuli/pictures/0056_fw.png	192.42873978614807	
126	137.18150568008423	picture	0		108	124.0	/experiments/Knapen_AOT/AOT_stimuli/pictures/0251_fw.png	192.44288873672485	0.9105110168457031
126	138.07552337646484	response	0	k		124.0	/experiments/Knapen_AOT/AOT_stimuli/pictures/0251_fw.png	193.33690643310547	
127	138.09201669692993	picture	0		101	125.0	/experiments/Knapen_AOT/AOT_stimuli/pictures/0015_fw.png	193.35339975357056	0.8500161170959473
127	138.92548179626465	response	0	j		125.0	/experiments/Knapen_AOT/AOT_stimuli/pictures/0015_fw.png	194.18686485290527	
128	138.94203281402588	picture	0		140	126.0	/experiments/Knapen_AOT/AOT_stimuli/pictures/0303_fw.png	194.2034158706665	1.1700451374053955
128	140.10051465034485	response	0	k		126.0	/experiments/Knapen_AOT/AOT_stimuli/pictures/0303_fw.png	195.36189770698547	
129	140.11207795143127	picture	0		117	127.0	/experiments/Knapen_AOT/AOT_stimuli/pictures/2046_fw.png	195.3734610080719	0.9722425937652588
129	141.0755159854889	response	0	k		127.0	/experiments/Knapen_AOT/AOT_stimuli/pictures/2046_fw.png	196.33689904212952	
130	141.08432054519653	picture	0		90	128.0	/experiments/Knapen_AOT/AOT_stimuli/pictures/0978_fw.png	196.34570360183716	0.7577219009399414
130	141.8254909515381	response	0	j		128.0	/experiments/Knapen_AOT/AOT_stimuli/pictures/0978_fw.png	197.0868740081787	
131	141.84204244613647	picture	0		116	129.0	/experiments/Knapen_AOT/AOT_stimuli/pictures/1673_fw.png	197.1034255027771	0.9714884757995605
131	142.8005359172821	response	0	j		129.0	/experiments/Knapen_AOT/AOT_stimuli/pictures/1673_fw.png	198.06191897392273	
132	142.81353092193604	picture	0		109	130.0	/experiments/Knapen_AOT/AOT_stimuli/pictures/0484_fw.png	198.07491397857666	0.9096798896789551
132	143.70891523361206	response	0	j		130.0	/experiments/Knapen_AOT/AOT_stimuli/pictures/0484_fw.png	198.97029829025269	
133	143.723210811615	picture	0		114	131.0	/experiments/Knapen_AOT/AOT_stimuli/pictures/1384_fw.png	198.98459386825562	0.9583356380462646
133	144.6674165725708	response	0	k		131.0	/experiments/Knapen_AOT/AOT_stimuli/pictures/1384_fw.png	199.92879962921143	
134	144.68154644966125	picture	0		108	132.0	/experiments/Knapen_AOT/AOT_stimuli/pictures/0180_fw.png	199.94292950630188	0.9105455875396729
134	145.57561326026917	response	0	j		132.0	/experiments/Knapen_AOT/AOT_stimuli/pictures/0180_fw.png	200.8369963169098	
135	145.59209203720093	picture	0		81	133.0	/experiments/Knapen_AOT/AOT_stimuli/pictures/1206_fw.png	200.85347509384155	0.6797699928283691
135	146.25147318840027	response	0	j		133.0	/experiments/Knapen_AOT/AOT_stimuli/pictures/1206_fw.png	201.5128562450409	
136	146.2718620300293	picture	0		185	134.0	/experiments/Knapen_AOT/AOT_stimuli/pictures/1854_fw.png	201.53324508666992	1.5485119819641113
136	147.80894923210144	response	0	j		134.0	/experiments/Knapen_AOT/AOT_stimuli/pictures/1854_fw.png	203.07033228874207	
137	147.8203740119934	picture	0		227	135.0	/experiments/Knapen_AOT/AOT_stimuli/pictures/1570_fw.png	203.08175706863403	1.8888630867004395
137	149.70060181617737	response	0	k		135.0	/experiments/Knapen_AOT/AOT_stimuli/pictures/1570_fw.png	204.961984872818	
138	149.70923709869385	picture	0		76	136.0	/experiments/Knapen_AOT/AOT_stimuli/pictures/0104_fw.png	204.97062015533447	0.6412563323974609
138	150.33392977714539	response	0	j		136.0	/experiments/Knapen_AOT/AOT_stimuli/pictures/0104_fw.png	205.595312833786	
139	150.3504934310913	picture	0		110	137.0	/experiments/Knapen_AOT/AOT_stimuli/pictures/2033_fw.png	205.61187648773193	0.9250209331512451
139	151.25127816200256	response	0	k		137.0	/experiments/Knapen_AOT/AOT_stimuli/pictures/2033_fw.png	206.5126612186432	
140	151.27551436424255	picture	0		172	138.0	/experiments/Knapen_AOT/AOT_stimuli/pictures/0403_fw.png	206.53689742088318	1.4337513446807861
140	152.70066261291504	response	0	k		138.0	/experiments/Knapen_AOT/AOT_stimuli/pictures/0403_fw.png	207.96204566955566	
141	152.70926570892334	picture	0		123	139.0	/experiments/Knapen_AOT/AOT_stimuli/pictures/0087_fw.png	207.97064876556396	1.0279712677001953
141	153.72565174102783	response	0	j		139.0	/experiments/Knapen_AOT/AOT_stimuli/pictures/0087_fw.png	208.98703479766846	
142	153.73723697662354	picture	0		177	140.0	/experiments/Knapen_AOT/AOT_stimuli/pictures/1173_fw.png	208.99862003326416	1.613328456878662
142	155.33407831192017	response	0	k		140.0	/experiments/Knapen_AOT/AOT_stimuli/pictures/1173_fw.png	210.5954613685608	
143	155.3505654335022	picture	0		86	141.0	/experiments/Knapen_AOT/AOT_stimuli/pictures/0506_fw.png	210.61194849014282	0.7200279235839844
143	156.05147337913513	response	0	k		141.0	/experiments/Knapen_AOT/AOT_stimuli/pictures/0506_fw.png	211.31285643577576	
144	156.07059335708618	picture	0		117	142.0	/experiments/Knapen_AOT/AOT_stimuli/pictures/0521_fw.png	211.3319764137268	0.9799745082855225
144	157.02750444412231	response	0	j		142.0	/experiments/Knapen_AOT/AOT_stimuli/pictures/0521_fw.png	212.28888750076294	
145	157.0505678653717	picture	0		174	143.0	/experiments/Knapen_AOT/AOT_stimuli/pictures/1396_fw.png	212.31195092201233	1.4583616256713867
145	158.49245285987854	response	0	k		143.0	/experiments/Knapen_AOT/AOT_stimuli/pictures/1396_fw.png	213.75383591651917	
146	158.5089294910431	picture	0		153	144.0	/experiments/Knapen_AOT/AOT_stimuli/pictures/1234_fw.png	213.77031254768372	1.2833666801452637
146	159.77595233917236	response	0	k		144.0	/experiments/Knapen_AOT/AOT_stimuli/pictures/1234_fw.png	215.037335395813	
147	159.79229617118835	picture	0		115	145.0	/experiments/Knapen_AOT/AOT_stimuli/pictures/0864_fw.png	215.05367922782898	0.9666528701782227
147	160.74275708198547	response	0	k		145.0	/experiments/Knapen_AOT/AOT_stimuli/pictures/0864_fw.png	216.0041401386261	
148	160.75894904136658	picture	0		89	146.0	/experiments/Knapen_AOT/AOT_stimuli/pictures/0815_fw.png	216.0203320980072	0.7500224113464355
148	161.49255228042603	response	0	k		146.0	/experiments/Knapen_AOT/AOT_stimuli/pictures/0815_fw.png	216.75393533706665	
149	161.508971452713	picture	0		203	147.0	/experiments/Knapen_AOT/AOT_stimuli/pictures/0691_fw.png	216.77035450935364	1.7000856399536133
149	163.19271993637085	response	0	k		147.0	/experiments/Knapen_AOT/AOT_stimuli/pictures/0691_fw.png	218.45410299301147	
150	163.20905709266663	picture	0		78	148.0	/experiments/Knapen_AOT/AOT_stimuli/pictures/2154_fw.png	218.47044014930725	0.6582798957824707
150	163.8508858680725	response	0	j		148.0	/experiments/Knapen_AOT/AOT_stimuli/pictures/2154_fw.png	219.11226892471313	
151	163.8673369884491	picture	0		100	149.0	/experiments/Knapen_AOT/AOT_stimuli/pictures/0480_fw.png	219.12872004508972	0.841677188873291
151	164.69276881217957	response	0	j		149.0	/experiments/Knapen_AOT/AOT_stimuli/pictures/0480_fw.png	219.9541518688202	
152	164.7090141773224	picture	0		83	150.0	/experiments/Knapen_AOT/AOT_stimuli/pictures/0981_fw.png	219.970397233963	0.7000114917755127
152	165.39253282546997	response	0	j		150.0	/experiments/Knapen_AOT/AOT_stimuli/pictures/0981_fw.png	220.6539158821106	
153	165.4090256690979	picture	0		264	151.0	/experiments/Knapen_AOT/AOT_stimuli/pictures/1208_fw.png	220.67040872573853	2.208364725112915
153	167.6009078025818	response	0	k		151.0	/experiments/Knapen_AOT/AOT_stimuli/pictures/1208_fw.png	222.8622908592224	
154	167.61739039421082	picture	0		127	152.0	/experiments/Knapen_AOT/AOT_stimuli/pictures/0354_fw.png	222.87877345085144	1.0666944980621338
154	168.66760396957397	response	0	j		152.0	/experiments/Knapen_AOT/AOT_stimuli/pictures/0354_fw.png	223.9289870262146	
155	168.68408489227295	picture	0		116	153.0	/experiments/Knapen_AOT/AOT_stimuli/pictures/0350_fw.png	223.94546794891357	0.969886064529419
155	169.64264035224915	response	0	k		153.0	/experiments/Knapen_AOT/AOT_stimuli/pictures/0350_fw.png	224.90402340888977	
156	169.65397095680237	picture	0		87	154.0	/experiments/Knapen_AOT/AOT_stimuli/pictures/1466_fw.png	224.915354013443	0.73008131980896
156	170.3675799369812	response	0	k		154.0	/experiments/Knapen_AOT/AOT_stimuli/pictures/1466_fw.png	225.62896299362183	
157	170.38405227661133	picture	0		89	155.0	/experiments/Knapen_AOT/AOT_stimuli/pictures/0863_fw.png	225.64543533325195	0.7500231266021729
157	171.11761283874512	response	0	k		155.0	/experiments/Knapen_AOT/AOT_stimuli/pictures/0863_fw.png	226.37899589538574	
158	171.1340754032135	picture	0		105	156.0	/experiments/Knapen_AOT/AOT_stimuli/pictures/0358_fw.png	226.39545845985413	0.8833901882171631
158	172.00144982337952	response	0	j		156.0	/experiments/Knapen_AOT/AOT_stimuli/pictures/0358_fw.png	227.26283288002014	
159	172.01746559143066	picture	0		89	157.0	/experiments/Knapen_AOT/AOT_stimuli/pictures/0039_fw.png	227.2788486480713	0.7499890327453613
159	172.75103425979614	response	0	j		157.0	/experiments/Knapen_AOT/AOT_stimuli/pictures/0039_fw.png	228.01241731643677	
160	172.76745462417603	picture	0		90	158.0	/experiments/Knapen_AOT/AOT_stimuli/pictures/0889_fw.png	228.02883768081665	0.7583479881286621
160	173.50952887535095	response	0	k		158.0	/experiments/Knapen_AOT/AOT_stimuli/pictures/0889_fw.png	228.77091193199158	
161	173.5258026123047	picture	0		80	159.0	/experiments/Knapen_AOT/AOT_stimuli/pictures/1619_fw.png	228.7871856689453	0.6749887466430664
161	174.18439030647278	response	0	j		159.0	/experiments/Knapen_AOT/AOT_stimuli/pictures/1619_fw.png	229.4457733631134	
162	174.20079135894775	picture	0		102	160.0	/experiments/Knapen_AOT/AOT_stimuli/pictures/1967_fw.png	229.46217441558838	0.8584280014038086
162	175.03547883033752	response	0	k		160.0	/experiments/Knapen_AOT/AOT_stimuli/pictures/1967_fw.png	230.29686188697815	
163	175.05921936035156	picture	0		97	161.0	/experiments/Knapen_AOT/AOT_stimuli/pictures/0773_fw.png	230.3206024169922	0.8166046142578125
163	175.85944366455078	response	0	k		161.0	/experiments/Knapen_AOT/AOT_stimuli/pictures/0773_fw.png	231.1208267211914	
164	175.87582397460938	picture	0		87	162.0	/experiments/Knapen_AOT/AOT_stimuli/pictures/0181_fw.png	231.13720703125	0.7295923233032227
164	176.5926456451416	response	0	k		162.0	/experiments/Knapen_AOT/AOT_stimuli/pictures/0181_fw.png	231.85402870178223	
165	176.6054162979126	picture	0		101	163.0	/experiments/Knapen_AOT/AOT_stimuli/pictures/0812_fw.png	231.86679935455322	0.8454086780548096
165	177.43440413475037	response	0	j		163.0	/experiments/Knapen_AOT/AOT_stimuli/pictures/0812_fw.png	232.695787191391	
166	177.4508249759674	picture	0		202	164.0	/experiments/Knapen_AOT/AOT_stimuli/pictures/0290_fw.png	232.71220803260803	1.689225196838379
166	179.12603950500488	response	0	j		164.0	/experiments/Knapen_AOT/AOT_stimuli/pictures/0290_fw.png	234.3874225616455	
167	179.1400501728058	picture	0		82	165.0	/experiments/Knapen_AOT/AOT_stimuli/pictures/1705_fw.png	234.4014332294464	0.6941416263580322
167	179.81805324554443	response	0	j		165.0	/experiments/Knapen_AOT/AOT_stimuli/pictures/1705_fw.png	235.07943630218506	
168	179.83419179916382	picture	0		77	166.0	/experiments/Knapen_AOT/AOT_stimuli/pictures/1545_fw.png	235.09557485580444	0.650001049041748
168	180.46771788597107	response	0	j		166.0	/experiments/Knapen_AOT/AOT_stimuli/pictures/1545_fw.png	235.7291009426117	
169	180.48419284820557	picture	0		177	167.0	/experiments/Knapen_AOT/AOT_stimuli/pictures/0902_fw.png	235.7455759048462	1.4833569526672363
169	181.95109486579895	response	0	k		167.0	/experiments/Knapen_AOT/AOT_stimuli/pictures/0902_fw.png	237.21247792243958	
170	181.9675498008728	picture	0		99	168.0	/experiments/Knapen_AOT/AOT_stimuli/pictures/1213_fw.png	237.22893285751343	0.8253731727600098
170	182.78441786766052	response	0	k		168.0	/experiments/Knapen_AOT/AOT_stimuli/pictures/1213_fw.png	238.04580092430115	
171	182.7929229736328	picture	0		116	169.0	/experiments/Knapen_AOT/AOT_stimuli/pictures/0907_fw.png	238.05430603027344	0.9746758937835693
171	183.75113725662231	response	0	j		169.0	/experiments/Knapen_AOT/AOT_stimuli/pictures/0907_fw.png	239.01252031326294	
172	183.76759886741638	picture	0		107	170.0	/experiments/Knapen_AOT/AOT_stimuli/pictures/1167_fw.png	239.028981924057	0.8934261798858643
172	184.6445140838623	response	0	j		170.0	/experiments/Knapen_AOT/AOT_stimuli/pictures/1167_fw.png	239.90589714050293	
173	184.66102504730225	picture	0		257	171.0	/experiments/Knapen_AOT/AOT_stimuli/pictures/2077_fw.png	239.92240810394287	2.148277521133423
173	186.79281783103943	response	0	j		171.0	/experiments/Knapen_AOT/AOT_stimuli/pictures/2077_fw.png	242.05420088768005	
174	186.80930256843567	picture	0		82	172.0	/experiments/Knapen_AOT/AOT_stimuli/pictures/0191_fw.png	242.0706856250763	0.6850759983062744
174	187.48455381393433	response	0	j		172.0	/experiments/Knapen_AOT/AOT_stimuli/pictures/0191_fw.png	242.74593687057495	
175	187.49437856674194	picture	0		111	173.0	/experiments/Knapen_AOT/AOT_stimuli/pictures/1532_fw.png	242.75576162338257	0.9315650463104248
175	188.4094796180725	response	0	k		173.0	/experiments/Knapen_AOT/AOT_stimuli/pictures/1532_fw.png	243.67086267471313	
176	188.42594361305237	picture	0		111	174.0	/experiments/Knapen_AOT/AOT_stimuli/pictures/1687_fw.png	243.687326669693	0.9333674907684326
176	189.34306931495667	response	0	j		174.0	/experiments/Knapen_AOT/AOT_stimuli/pictures/1687_fw.png	244.6044523715973	
177	189.3593111038208	picture	0		98	175.0	/experiments/Knapen_AOT/AOT_stimuli/pictures/1164_fw.png	244.62069416046143	0.8225982189178467
177	190.16787457466125	response	0	j		175.0	/experiments/Knapen_AOT/AOT_stimuli/pictures/1164_fw.png	245.42925763130188	
178	190.18190932273865	picture	0		223	176.0	/experiments/Knapen_AOT/AOT_stimuli/pictures/1229_fw.png	245.44329237937927	1.8691034317016602
178	192.03476119041443	response	0	k		176.0	/experiments/Knapen_AOT/AOT_stimuli/pictures/1229_fw.png	247.29614424705505	
179	192.0510127544403	picture	0		92	177.0	/experiments/Knapen_AOT/AOT_stimuli/pictures/0820_fw.png	247.31239581108093	0.7697725296020508
179	192.8095362186432	response	0	j		177.0	/experiments/Knapen_AOT/AOT_stimuli/pictures/0820_fw.png	248.0709192752838	
180	192.82078528404236	picture	0		123	178.0	/experiments/Knapen_AOT/AOT_stimuli/pictures/1021_fw.png	248.08216834068298	1.0302507877349854
180	193.8347523212433	response	0	k		178.0	/experiments/Knapen_AOT/AOT_stimuli/pictures/1021_fw.png	249.0961353778839	
181	193.85103607177734	picture	0		101	179.0	/experiments/Knapen_AOT/AOT_stimuli/pictures/1611_fw.png	249.11241912841797	0.8499884605407715
181	194.68454718589783	response	0	k		179.0	/experiments/Knapen_AOT/AOT_stimuli/pictures/1611_fw.png	249.94593024253845	
182	194.70102453231812	picture	0		121	180.0	/experiments/Knapen_AOT/AOT_stimuli/pictures/2091_fw.png	249.96240758895874	1.0086157321929932
182	195.7012300491333	response	0	j		180.0	/experiments/Knapen_AOT/AOT_stimuli/pictures/2091_fw.png	250.96261310577393	
183	195.7096402645111	picture	0		88	181.0	/experiments/Knapen_AOT/AOT_stimuli/pictures/1191_fw.png	250.97102332115173	0.7414169311523438
183	196.43459010124207	response	0	j		181.0	/experiments/Knapen_AOT/AOT_stimuli/pictures/1191_fw.png	251.6959731578827	
184	196.45105719566345	picture	0		85	182.0	/experiments/Knapen_AOT/AOT_stimuli/pictures/0405_fw.png	251.71244025230408	0.7166914939880371
184	197.15129446983337	response	0	j		182.0	/experiments/Knapen_AOT/AOT_stimuli/pictures/0405_fw.png	252.412677526474	
185	197.1677486896515	picture	0		102	183.0	/experiments/Knapen_AOT/AOT_stimuli/pictures/1944_fw.png	252.42913174629211	0.8583505153656006
185	198.00960421562195	response	0	j		183.0	/experiments/Knapen_AOT/AOT_stimuli/pictures/1944_fw.png	253.27098727226257	
186	198.0260992050171	picture	0		122	184.0	/experiments/Knapen_AOT/AOT_stimuli/pictures/0256_fw.png	253.28748226165771	1.0249974727630615
186	199.03466629981995	response	0	j		184.0	/experiments/Knapen_AOT/AOT_stimuli/pictures/0256_fw.png	254.29604935646057	
187	199.05109667778015	picture	0		224	185.0	/experiments/Knapen_AOT/AOT_stimuli/pictures/1057_fw.png	254.31247973442078	1.8668415546417236
187	200.90966033935547	response	0	k		185.0	/experiments/Knapen_AOT/AOT_stimuli/pictures/1057_fw.png	256.1710433959961	
188	200.91793823242188	picture	0		88	186.0	/experiments/Knapen_AOT/AOT_stimuli/pictures/0429_fw.png	256.1793212890625	0.7415590286254883
188	201.63638401031494	response	0	j		186.0	/experiments/Knapen_AOT/AOT_stimuli/pictures/0429_fw.png	256.89776706695557	
189	201.65949726104736	picture	0		113	187.0	/experiments/Knapen_AOT/AOT_stimuli/pictures/0408_fw.png	256.920880317688	0.9461140632629395
189	202.5930073261261	response	0	k		187.0	/experiments/Knapen_AOT/AOT_stimuli/pictures/0408_fw.png	257.8543903827667	
190	202.6056113243103	picture	0		161	188.0	/experiments/Knapen_AOT/AOT_stimuli/pictures/0955_fw.png	257.8669943809509	1.34017014503479
190	203.93472456932068	response	0	k		188.0	/experiments/Knapen_AOT/AOT_stimuli/pictures/0955_fw.png	259.1961076259613	
191	203.9457814693451	picture	0		145	189.0	/experiments/Knapen_AOT/AOT_stimuli/pictures/0192_fw.png	259.2071645259857	1.2083957195281982
191	205.14301013946533	response	0	k		189.0	/experiments/Knapen_AOT/AOT_stimuli/pictures/0192_fw.png	260.40439319610596	
192	205.1541771888733	picture	0		99	190.0	/experiments/Knapen_AOT/AOT_stimuli/pictures/0527_fw.png	260.4155602455139	0.8264627456665039
192	205.96802258491516	response	0	j		190.0	/experiments/Knapen_AOT/AOT_stimuli/pictures/0527_fw.png	261.2294056415558	
193	205.9806399345398	picture	0		125	191.0	/experiments/Knapen_AOT/AOT_stimuli/pictures/0155_fw.png	261.2420229911804	1.0485851764678955
193	207.0180549621582	response	0	k		191.0	/experiments/Knapen_AOT/AOT_stimuli/pictures/0155_fw.png	262.2794380187988	
194	207.0292251110077	picture	0		81	192.0	/experiments/Knapen_AOT/AOT_stimuli/pictures/0338_fw.png	262.2906081676483	0.6806018352508545
194	207.69323587417603	response	0	j		192.0	/experiments/Knapen_AOT/AOT_stimuli/pictures/0338_fw.png	262.95461893081665	
195	207.70982694625854	picture	0		118	193.0	/experiments/Knapen_AOT/AOT_stimuli/pictures/0207_fw.png	262.97121000289917	0.9860763549804688
195	208.68480134010315	response	0	k		193.0	/experiments/Knapen_AOT/AOT_stimuli/pictures/0207_fw.png	263.9461843967438	
196	208.695903301239	picture	0		87	194.0	/experiments/Knapen_AOT/AOT_stimuli/pictures/1078_fw.png	263.95728635787964	0.7303059101104736
196	209.40976572036743	response	0	j		194.0	/experiments/Knapen_AOT/AOT_stimuli/pictures/1078_fw.png	264.67114877700806	
197	209.4262092113495	picture	0		98	195.0	/experiments/Knapen_AOT/AOT_stimuli/pictures/1969_fw.png	264.6875922679901	0.818307638168335
197	210.22837018966675	response	0	j		195.0	/experiments/Knapen_AOT/AOT_stimuli/pictures/1969_fw.png	265.4897532463074	
198	210.24451684951782	picture	0		86	196.0	/experiments/Knapen_AOT/AOT_stimuli/pictures/2082_fw.png	265.50589990615845	0.7233684062957764
198	210.95139956474304	response	0	j		196.0	/experiments/Knapen_AOT/AOT_stimuli/pictures/2082_fw.png	266.21278262138367	
199	210.9678852558136	picture	0		131	197.0	/experiments/Knapen_AOT/AOT_stimuli/pictures/1241_fw.png	266.2292683124542	1.1000511646270752
199	212.04436349868774	response	0	k		197.0	/experiments/Knapen_AOT/AOT_stimuli/pictures/1241_fw.png	267.30574655532837	
200	212.06793642044067	picture	0		201	198.0	/experiments/Knapen_AOT/AOT_stimuli/pictures/0082_fw.png	267.3293194770813	1.6765122413635254
200	213.73478651046753	response	0	k		198.0	/experiments/Knapen_AOT/AOT_stimuli/pictures/0082_fw.png	268.99616956710815	
201	213.7444486618042	picture	0		112	199.0	/experiments/Knapen_AOT/AOT_stimuli/pictures/0533_fw.png	269.0058317184448	0.94016432762146
201	214.6681604385376	response	0	j		199.0	/experiments/Knapen_AOT/AOT_stimuli/pictures/0533_fw.png	269.9295434951782	
202	214.68461298942566	picture	0		84	200.0	/experiments/Knapen_AOT/AOT_stimuli/pictures/2159_fw.png	269.9459960460663	0.708359956741333
202	215.37654399871826	response	0	j		200.0	/experiments/Knapen_AOT/AOT_stimuli/pictures/2159_fw.png	270.6379270553589	
203	215.392972946167	picture	0		98	201.0	/experiments/Knapen_AOT/AOT_stimuli/pictures/0237_fw.png	270.6543560028076	0.8250136375427246
203	216.20146083831787	response	0	j		201.0	/experiments/Knapen_AOT/AOT_stimuli/pictures/0237_fw.png	271.4628438949585	
204	216.21798658370972	picture	0		101	202.0	/experiments/Knapen_AOT/AOT_stimuli/pictures/1510_fw.png	271.47936964035034	0.8500423431396484
204	217.05154633522034	response	0	k		202.0	/experiments/Knapen_AOT/AOT_stimuli/pictures/1510_fw.png	272.31292939186096	
205	217.06802892684937	picture	0		93	203.0	/experiments/Knapen_AOT/AOT_stimuli/pictures/0349_fw.png	272.32941198349	0.7806899547576904
205	217.83483624458313	response	0	j		203.0	/experiments/Knapen_AOT/AOT_stimuli/pictures/0349_fw.png	273.09621930122375	
206	217.84871888160706	picture	0		125	204.0	/experiments/Knapen_AOT/AOT_stimuli/pictures/1372_fw.png	273.1101019382477	1.048621654510498
206	218.88484168052673	response	0	k		204.0	/experiments/Knapen_AOT/AOT_stimuli/pictures/1372_fw.png	274.14622473716736	
207	218.89734053611755	picture	0		94	205.0	/experiments/Knapen_AOT/AOT_stimuli/pictures/0719_fw.png	274.1587235927582	0.7873508930206299
207	219.66819787025452	response	0	k		205.0	/experiments/Knapen_AOT/AOT_stimuli/pictures/0719_fw.png	274.92958092689514	
208	219.68469142913818	picture	0		76	206.0	/experiments/Knapen_AOT/AOT_stimuli/pictures/1393_fw.png	274.9460744857788	0.6363248825073242
208	220.30988550186157	response	0	j		206.0	/experiments/Knapen_AOT/AOT_stimuli/pictures/1393_fw.png	275.5712685585022	
209	220.3210163116455	picture	0		104	207.0	/experiments/Knapen_AOT/AOT_stimuli/pictures/0459_fw.png	275.58239936828613	0.8720710277557373
209	221.17654728889465	response	0	k		207.0	/experiments/Knapen_AOT/AOT_stimuli/pictures/0459_fw.png	276.4379303455353	
210	221.19308733940125	picture	0		81	208.0	/experiments/Knapen_AOT/AOT_stimuli/pictures/1746_fw.png	276.45447039604187	0.683283805847168
210	221.85992050170898	response	0	k		208.0	/experiments/Knapen_AOT/AOT_stimuli/pictures/1746_fw.png	277.1213035583496	
211	221.8763711452484	picture	0		186	209.0	/experiments/Knapen_AOT/AOT_stimuli/pictures/1742_fw.png	277.13775420188904	1.5583727359771729
211	223.4182906150818	response	0	k		209.0	/experiments/Knapen_AOT/AOT_stimuli/pictures/1742_fw.png	278.6796736717224	
212	223.4347438812256	picture	0		94	210.0	/experiments/Knapen_AOT/AOT_stimuli/pictures/1860_fw.png	278.6961269378662	0.7916553020477295
212	224.20999264717102	response	0	j		210.0	/experiments/Knapen_AOT/AOT_stimuli/pictures/1860_fw.png	279.47137570381165	
213	224.22639918327332	picture	0		100	211.0	/experiments/Knapen_AOT/AOT_stimuli/pictures/1866_fw.png	279.48778223991394	0.8416910171508789
213	225.05159783363342	response	0	k		211.0	/experiments/Knapen_AOT/AOT_stimuli/pictures/1866_fw.png	280.31298089027405	
214	225.0680902004242	picture	0		171	212.0	/experiments/Knapen_AOT/AOT_stimuli/pictures/1781_fw.png	280.3294732570648	1.4333903789520264
214	226.48499059677124	response	0	j		212.0	/experiments/Knapen_AOT/AOT_stimuli/pictures/1781_fw.png	281.74637365341187	
215	226.50148057937622	picture	0		92	213.0	/experiments/Knapen_AOT/AOT_stimuli/pictures/0232_fw.png	281.76286363601685	0.7750434875488281
215	227.25993180274963	response	0	j		213.0	/experiments/Knapen_AOT/AOT_stimuli/pictures/0232_fw.png	282.52131485939026	
216	227.27652406692505	picture	0		106	214.0	/experiments/Knapen_AOT/AOT_stimuli/pictures/2155_fw.png	282.5379071235657	0.8916049003601074
216	228.15166926383972	response	0	j		214.0	/experiments/Knapen_AOT/AOT_stimuli/pictures/2155_fw.png	283.41305232048035	
217	228.16812896728516	picture	0		131	215.0	/experiments/Knapen_AOT/AOT_stimuli/pictures/1029_fw.png	283.4295120239258	1.0973491668701172
217	229.25165629386902	response	0	j		215.0	/experiments/Knapen_AOT/AOT_stimuli/pictures/1029_fw.png	284.51303935050964	
218	229.26547813415527	picture	0		82	216.0	/experiments/Knapen_AOT/AOT_stimuli/pictures/1574_fw.png	284.5268611907959	0.6945517063140869
218	229.9433934688568	response	0	k		216.0	/experiments/Knapen_AOT/AOT_stimuli/pictures/1574_fw.png	285.20477652549744	
219	229.96002984046936	picture	0		78	217.0	/experiments/Knapen_AOT/AOT_stimuli/pictures/0024_fw.png	285.22141289711	0.6581554412841797
219	230.60172390937805	response	0	k		217.0	/experiments/Knapen_AOT/AOT_stimuli/pictures/0024_fw.png	285.8631069660187	
220	230.61818528175354	picture	0		191	218.0	/experiments/Knapen_AOT/AOT_stimuli/pictures/1242_fw.png	285.87956833839417	1.5999882221221924
220	232.20179867744446	response	0	j		218.0	/experiments/Knapen_AOT/AOT_stimuli/pictures/1242_fw.png	287.4631817340851	
221	232.21817350387573	picture	0		93	219.0	/experiments/Knapen_AOT/AOT_stimuli/pictures/0165_fw.png	287.47955656051636	0.7833971977233887
221	232.985125541687	response	0	j		219.0	/experiments/Knapen_AOT/AOT_stimuli/pictures/0165_fw.png	288.24650859832764	
222	233.00157070159912	picture	0		133	220.0	/experiments/Knapen_AOT/AOT_stimuli/pictures/0537_fw.png	288.26295375823975	1.116617202758789
222	234.1019937992096	response	0	k		220.0	/experiments/Knapen_AOT/AOT_stimuli/pictures/0537_fw.png	289.3633768558502	
223	234.1181879043579	picture	0		136	221.0	/experiments/Knapen_AOT/AOT_stimuli/pictures/1841_fw.png	289.37957096099854	1.1417169570922852
223	235.23594784736633	response	0	k		221.0	/experiments/Knapen_AOT/AOT_stimuli/pictures/1841_fw.png	290.49733090400696	
224	235.2599048614502	picture	0		168	222.0	/experiments/Knapen_AOT/AOT_stimuli/pictures/1796_fw.png	290.5212879180908	1.408353567123413
224	236.65173959732056	response	0	k		222.0	/experiments/Knapen_AOT/AOT_stimuli/pictures/1796_fw.png	291.9131226539612	
225	236.6682584285736	picture	0		118	223.0	/experiments/Knapen_AOT/AOT_stimuli/pictures/1336_fw.png	291.92964148521423	0.9862673282623291
225	237.6357865333557	response	0	k		223.0	/experiments/Knapen_AOT/AOT_stimuli/pictures/1336_fw.png	292.89716958999634	
226	237.65452575683594	picture	0		81	224.0	/experiments/Knapen_AOT/AOT_stimuli/pictures/1981_fw.png	292.91590881347656	0.6804895401000977
226	238.31857991218567	response	0	j		224.0	/experiments/Knapen_AOT/AOT_stimuli/pictures/1981_fw.png	293.5799629688263	
227	238.33501529693604	picture	0		105	225.0	/experiments/Knapen_AOT/AOT_stimuli/pictures/1715_fw.png	293.59639835357666	0.8750424385070801
227	239.20177578926086	response	0	k		225.0	/experiments/Knapen_AOT/AOT_stimuli/pictures/1715_fw.png	294.4631588459015	
228	239.21005773544312	picture	0		97	226.0	/experiments/Knapen_AOT/AOT_stimuli/pictures/0951_fw.png	294.47144079208374	0.8165616989135742
228	240.0038821697235	response	0	j		226.0	/experiments/Knapen_AOT/AOT_stimuli/pictures/0951_fw.png	295.26526522636414	
229	240.0266194343567	picture	0		124	227.0	/experiments/Knapen_AOT/AOT_stimuli/pictures/0903_fw.png	295.2880024909973	1.0375895500183105
229	241.05180311203003	response	0	k		227.0	/experiments/Knapen_AOT/AOT_stimuli/pictures/0903_fw.png	296.31318616867065	
230	241.064208984375	picture	0		99	228.0	/experiments/Knapen_AOT/AOT_stimuli/pictures/0117_fw.png	296.3255920410156	0.8290896415710449
230	241.87696266174316	response	0	k		228.0	/experiments/Knapen_AOT/AOT_stimuli/pictures/0117_fw.png	297.1383457183838	
231	241.89329862594604	picture	0		95	229.0	/experiments/Knapen_AOT/AOT_stimuli/pictures/2157_fw.png	297.15468168258667	0.8000609874725342
231	242.676833152771	response	0	j		229.0	/experiments/Knapen_AOT/AOT_stimuli/pictures/2157_fw.png	297.9382162094116	
232	242.69335961341858	picture	0		90	230.0	/experiments/Knapen_AOT/AOT_stimuli/pictures/1768_fw.png	297.9547426700592	0.758307695388794
232	243.43516635894775	response	0	j		230.0	/experiments/Knapen_AOT/AOT_stimuli/pictures/1768_fw.png	298.6965494155884	
233	243.45166730880737	picture	0		183	231.0	/experiments/Knapen_AOT/AOT_stimuli/pictures/1442_fw.png	298.713050365448	1.5333256721496582
233	244.96852564811707	response	0	k		231.0	/experiments/Knapen_AOT/AOT_stimuli/pictures/1442_fw.png	300.2299087047577	
234	244.98499298095703	picture	0		257	232.0	/experiments/Knapen_AOT/AOT_stimuli/pictures/1179_fw.png	300.24637603759766	2.1500589847564697
234	247.11857318878174	response	0	k		232.0	/experiments/Knapen_AOT/AOT_stimuli/pictures/1179_fw.png	302.37995624542236	
235	247.1350519657135	picture	0		159	233.0	/experiments/Knapen_AOT/AOT_stimuli/pictures/0067_fw.png	302.3964350223541	1.3333206176757812
235	248.45194149017334	response	0	j		233.0	/experiments/Knapen_AOT/AOT_stimuli/pictures/0067_fw.png	303.71332454681396	
236	248.46837258338928	picture	0		100	234.0	/experiments/Knapen_AOT/AOT_stimuli/pictures/0699_fw.png	303.7297556400299	0.8416881561279297
236	249.29366850852966	response	0	j		234.0	/experiments/Knapen_AOT/AOT_stimuli/pictures/0699_fw.png	304.5550515651703	
237	249.3100607395172	picture	0		271	235.0	/experiments/Knapen_AOT/AOT_stimuli/pictures/1010_fw.png	304.57144379615784	2.2667040824890137
237	251.56026315689087	response	0	k		235.0	/experiments/Knapen_AOT/AOT_stimuli/pictures/1010_fw.png	306.8216462135315	
238	251.57676482200623	picture	0		177	236.0	/experiments/Knapen_AOT/AOT_stimuli/pictures/1606_fw.png	306.83814787864685	1.483356237411499
238	253.0363142490387	response	0	k		236.0	/experiments/Knapen_AOT/AOT_stimuli/pictures/1606_fw.png	308.2976973056793	
239	253.06012105941772	picture	0		144	237.0	/experiments/Knapen_AOT/AOT_stimuli/pictures/1867_fw.png	308.32150411605835	1.2083382606506348
239	254.25202536582947	response	0	k		237.0	/experiments/Knapen_AOT/AOT_stimuli/pictures/1867_fw.png	309.5134084224701	
240	254.26845932006836	picture	0		82	238.0	/experiments/Knapen_AOT/AOT_stimuli/pictures/2054_fw.png	309.529842376709	0.6917188167572021
240	254.94363737106323	response	0	j		238.0	/experiments/Knapen_AOT/AOT_stimuli/pictures/2054_fw.png	310.20502042770386	
241	254.96017813682556	picture	0		124	239.0	/experiments/Knapen_AOT/AOT_stimuli/pictures/1950_fw.png	310.2215611934662	1.0416553020477295
241	255.98533821105957	response	0	k		239.0	/experiments/Knapen_AOT/AOT_stimuli/pictures/1950_fw.png	311.2467212677002	
242	256.0018334388733	picture	0		95	240.0	/experiments/Knapen_AOT/AOT_stimuli/pictures/0627_fw.png	311.2632164955139	0.7916674613952637
242	256.78536200523376	response	0	j		240.0	/experiments/Knapen_AOT/AOT_stimuli/pictures/0627_fw.png	312.0467450618744	
243	256.79350090026855	picture	0		118	241.0	/experiments/Knapen_AOT/AOT_stimuli/pictures/1568_fw.png	312.0548839569092	0.9930400848388672
243	257.7689106464386	response	0	k		241.0	/experiments/Knapen_AOT/AOT_stimuli/pictures/1568_fw.png	313.0302937030792	
244	257.7865409851074	picture	0		126	242.0	/experiments/Knapen_AOT/AOT_stimuli/pictures/1476_fw.png	313.04792404174805	1.0486607551574707
244	258.81966495513916	response	0	k		242.0	/experiments/Knapen_AOT/AOT_stimuli/pictures/1476_fw.png	314.0810480117798	
245	258.8352017402649	picture	0		121	243.0	/experiments/Knapen_AOT/AOT_stimuli/pictures/1893_fw.png	314.0965847969055	1.016638994216919
245	259.8357424736023	response	0	k		243.0	/experiments/Knapen_AOT/AOT_stimuli/pictures/1893_fw.png	315.0971255302429	
246	259.8518407344818	picture	0		102	244.0	/experiments/Knapen_AOT/AOT_stimuli/pictures/0401_fw.png	315.11322379112244	0.8513808250427246
246	260.69373536109924	response	0	j		244.0	/experiments/Knapen_AOT/AOT_stimuli/pictures/0401_fw.png	315.95511841773987	
247	260.70322155952454	picture	0		108	245.0	/experiments/Knapen_AOT/AOT_stimuli/pictures/1105_fw.png	315.96460461616516	0.9070212841033936
247	261.59375977516174	response	0	j		245.0	/experiments/Knapen_AOT/AOT_stimuli/pictures/1105_fw.png	316.85514283180237	
248	261.61024284362793	picture	0		121	246.0	/experiments/Knapen_AOT/AOT_stimuli/pictures/1869_fw.png	316.87162590026855	1.0166232585906982
248	262.610417842865	response	0	j		246.0	/experiments/Knapen_AOT/AOT_stimuli/pictures/1869_fw.png	317.8718008995056	
249	262.6268661022186	picture	0		96	247.0	/experiments/Knapen_AOT/AOT_stimuli/pictures/1246_fw.png	317.88824915885925	0.8084123134613037
249	263.4190227985382	response	0	j		247.0	/experiments/Knapen_AOT/AOT_stimuli/pictures/1246_fw.png	318.68040585517883	
250	263.43527841567993	picture	0		136	248.0	/experiments/Knapen_AOT/AOT_stimuli/pictures/1326_fw.png	318.69666147232056	1.1416120529174805
250	264.56041145324707	response	0	k		248.0	/experiments/Knapen_AOT/AOT_stimuli/pictures/1326_fw.png	319.8217945098877	
251	264.5768904685974	picture	0		116	249.0	/experiments/Knapen_AOT/AOT_stimuli/pictures/1434_fw.png	319.83827352523804	0.9750471115112305
251	265.5354232788086	response	0	k		249.0	/experiments/Knapen_AOT/AOT_stimuli/pictures/1434_fw.png	320.7968063354492	
252	265.55193758010864	picture	0		111	250.0	/experiments/Knapen_AOT/AOT_stimuli/pictures/0693_fw.png	320.81332063674927	0.933312177658081
252	266.4688367843628	response	0	k		250.0	/experiments/Knapen_AOT/AOT_stimuli/pictures/0693_fw.png	321.7302198410034	
253	266.4852497577667	picture	0		88	251.0	/experiments/Knapen_AOT/AOT_stimuli/pictures/1248_fw.png	321.74663281440735	0.741682767868042
253	267.21050906181335	response	0	j		251.0	/experiments/Knapen_AOT/AOT_stimuli/pictures/1248_fw.png	322.471892118454	
254	267.22693252563477	picture	0		252	252.0	/experiments/Knapen_AOT/AOT_stimuli/pictures/1365_fw.png	322.4883155822754	2.101227045059204
254	269.3188464641571	response	0	k		252.0	/experiments/Knapen_AOT/AOT_stimuli/pictures/1365_fw.png	324.58022952079773	
255	269.32815957069397	picture	0		135	253.0	/experiments/Knapen_AOT/AOT_stimuli/pictures/1004_fw.png	324.5895426273346	1.132143259048462
255	270.443959236145	response	0	k		253.0	/experiments/Knapen_AOT/AOT_stimuli/pictures/1004_fw.png	325.70534229278564	
256	270.46030282974243	picture	0		142	254.0	/experiments/Knapen_AOT/AOT_stimuli/pictures/1451_fw.png	325.72168588638306	1.1874089241027832
256	271.6278872489929	response	0	k		254.0	/experiments/Knapen_AOT/AOT_stimuli/pictures/1451_fw.png	326.88927030563354	
257	271.6477117538452	picture	0		88	255.0	/experiments/Knapen_AOT/AOT_stimuli/pictures/0697_fw.png	326.90909481048584	0.7376289367675781
257	272.3688807487488	response	0	j		255.0	/experiments/Knapen_AOT/AOT_stimuli/pictures/0697_fw.png	327.6302638053894	
258	272.3853406906128	picture	0		88	256.0	/experiments/Knapen_AOT/AOT_stimuli/pictures/1604_fw.png	327.6467237472534	0.7416689395904541
258	273.11062359809875	response	0	j		256.0	/experiments/Knapen_AOT/AOT_stimuli/pictures/1604_fw.png	328.3720066547394	
259	273.12700963020325	picture	0		108	257.0	/experiments/Knapen_AOT/AOT_stimuli/pictures/1905_fw.png	328.3883926868439	0.9083256721496582
259	274.0188627243042	response	0	k		257.0	/experiments/Knapen_AOT/AOT_stimuli/pictures/1905_fw.png	329.2802457809448	
260	274.0353353023529	picture	0		88	258.0	/experiments/Knapen_AOT/AOT_stimuli/pictures/1553_fw.png	329.29671835899353	0.7417058944702148
260	274.7605791091919	response	0	j		258.0	/experiments/Knapen_AOT/AOT_stimuli/pictures/1553_fw.png	330.0219621658325	
261	274.7770411968231	picture	0		107	259.0	/experiments/Knapen_AOT/AOT_stimuli/pictures/0375_fw.png	330.03842425346375	0.9000458717346191
261	275.66064453125	response	0	j		259.0	/experiments/Knapen_AOT/AOT_stimuli/pictures/0375_fw.png	330.9220275878906	
262	275.67708706855774	picture	0		122	260.0	/experiments/Knapen_AOT/AOT_stimuli/pictures/1146_fw.png	330.93847012519836	1.0249691009521484
262	276.6855957508087	response	0	j		260.0	/experiments/Knapen_AOT/AOT_stimuli/pictures/1146_fw.png	331.94697880744934	
263	276.7020561695099	picture	0		264	261.0	/experiments/Knapen_AOT/AOT_stimuli/pictures/0069_fw.png	331.9634392261505	2.2025606632232666
263	278.89392495155334	response	0	k		261.0	/experiments/Knapen_AOT/AOT_stimuli/pictures/0069_fw.png	334.15530800819397	
264	278.90461683273315	picture	0		155	262.0	/experiments/Knapen_AOT/AOT_stimuli/pictures/1392_fw.png	334.1659998893738	1.2974824905395508
264	280.18561029434204	response	0	k		262.0	/experiments/Knapen_AOT/AOT_stimuli/pictures/1392_fw.png	335.44699335098267	
265	280.2020993232727	picture	0		101	263.0	/experiments/Knapen_AOT/AOT_stimuli/pictures/0068_fw.png	335.46348237991333	0.8500125408172607
265	281.02806973457336	response	0	k		263.0	/experiments/Knapen_AOT/AOT_stimuli/pictures/0068_fw.png	336.289452791214	
266	281.05211186408997	picture	0		144	264.0	/experiments/Knapen_AOT/AOT_stimuli/pictures/0262_fw.png	336.3134949207306	1.1999783515930176
266	282.2440176010132	response	0	k		264.0	/experiments/Knapen_AOT/AOT_stimuli/pictures/0262_fw.png	337.5054006576538	
267	282.252090215683	picture	0		85	265.0	/experiments/Knapen_AOT/AOT_stimuli/pictures/0440_fw.png	337.5134732723236	0.7167458534240723
267	282.9524383544922	response	0	j		265.0	/experiments/Knapen_AOT/AOT_stimuli/pictures/0440_fw.png	338.2138214111328	
268	282.96883606910706	picture	0		120	266.0	/experiments/Knapen_AOT/AOT_stimuli/pictures/1683_fw.png	338.2302191257477	1.0082979202270508
268	283.9606430530548	response	0	k		266.0	/experiments/Knapen_AOT/AOT_stimuli/pictures/1683_fw.png	339.22202610969543	
269	283.9771339893341	picture	0		97	267.0	/experiments/Knapen_AOT/AOT_stimuli/pictures/0969_fw.png	339.23851704597473	0.8167335987091064
269	284.77733278274536	response	0	j		267.0	/experiments/Knapen_AOT/AOT_stimuli/pictures/0969_fw.png	340.038715839386	
270	284.7938675880432	picture	0		96	268.0	/experiments/Knapen_AOT/AOT_stimuli/pictures/1316_fw.png	340.05525064468384	0.8083071708679199
270	285.5857090950012	response	0	j		268.0	/experiments/Knapen_AOT/AOT_stimuli/pictures/1316_fw.png	340.84709215164185	
271	285.60217475891113	picture	0		112	269.0	/experiments/Knapen_AOT/AOT_stimuli/pictures/0394_fw.png	340.86355781555176	0.9416735172271729
271	286.5274555683136	response	0	j		269.0	/experiments/Knapen_AOT/AOT_stimuli/pictures/0394_fw.png	341.7888386249542	
272	286.5438482761383	picture	0		106	270.0	/experiments/Knapen_AOT/AOT_stimuli/pictures/0132_fw.png	341.80523133277893	0.8887276649475098
272	287.41177129745483	response	0	k		270.0	/experiments/Knapen_AOT/AOT_stimuli/pictures/0132_fw.png	342.67315435409546	
273	287.4325759410858	picture	0		105	271.0	/experiments/Knapen_AOT/AOT_stimuli/pictures/0166_fw.png	342.69395899772644	0.8862905502319336
273	288.3023884296417	response	0	j		271.0	/experiments/Knapen_AOT/AOT_stimuli/pictures/0166_fw.png	343.56377148628235	
274	288.31886649131775	picture	0		183	272.0	/experiments/Knapen_AOT/AOT_stimuli/pictures/0391_fw.png	343.5802495479584	1.533360242843628
274	289.835875749588	response	0	k		272.0	/experiments/Knapen_AOT/AOT_stimuli/pictures/0391_fw.png	345.09725880622864	
275	289.8522267341614	picture	0		80	273.0	/experiments/Knapen_AOT/AOT_stimuli/pictures/1727_fw.png	345.113609790802	0.6750047206878662
275	290.5108063220978	response	0	j		273.0	/experiments/Knapen_AOT/AOT_stimuli/pictures/1727_fw.png	345.7721893787384	
276	290.52723145484924	picture	0		77	274.0	/experiments/Knapen_AOT/AOT_stimuli/pictures/0642_fw.png	345.78861451148987	0.6500065326690674
276	291.16081643104553	response	0	j		274.0	/experiments/Knapen_AOT/AOT_stimuli/pictures/0642_fw.png	346.42219948768616	
277	291.1772379875183	picture	0		107	275.0	/experiments/Knapen_AOT/AOT_stimuli/pictures/1197_fw.png	346.43862104415894	0.8999948501586914
277	292.0610406398773	response	0	j		275.0	/experiments/Knapen_AOT/AOT_stimuli/pictures/1197_fw.png	347.32242369651794	
278	292.077232837677	picture	0		92	276.0	/experiments/Knapen_AOT/AOT_stimuli/pictures/1531_fw.png	347.3386158943176	0.7750415802001953
278	292.8360848426819	response	0	j		276.0	/experiments/Knapen_AOT/AOT_stimuli/pictures/1531_fw.png	348.0974678993225	
279	292.8522744178772	picture	0		175	277.0	/experiments/Knapen_AOT/AOT_stimuli/pictures/0783_fw.png	348.1136574745178	1.4666578769683838
279	294.30245661735535	response	0	j		277.0	/experiments/Knapen_AOT/AOT_stimuli/pictures/0783_fw.png	349.563839673996	
280	294.3189322948456	picture	0		278	278.0	/experiments/Knapen_AOT/AOT_stimuli/pictures/1565_fw.png	349.5803153514862	2.325038433074951
280	296.6278877258301	response	0	k		278.0	/experiments/Knapen_AOT/AOT_stimuli/pictures/1565_fw.png	351.8892707824707	
281	296.64397072792053	picture	0		119	279.0	/experiments/Knapen_AOT/AOT_stimuli/pictures/1171_fw.png	351.90535378456116	0.999988317489624
281	297.6280493736267	response	0	k		279.0	/experiments/Knapen_AOT/AOT_stimuli/pictures/1171_fw.png	352.88943243026733	
282	297.64395904541016	picture	0		85	280.0	/experiments/Knapen_AOT/AOT_stimuli/pictures/2106_fw.png	352.9053421020508	0.7166824340820312
282	298.34415459632874	response	0	k		280.0	/experiments/Knapen_AOT/AOT_stimuli/pictures/2106_fw.png	353.60553765296936	
283	298.3606414794922	picture	0		105	281.0	/experiments/Knapen_AOT/AOT_stimuli/pictures/0541_fw.png	353.6220245361328	0.8833472728729248
283	299.22024416923523	response	0	j		281.0	/experiments/Knapen_AOT/AOT_stimuli/pictures/0541_fw.png	354.48162722587585	
284	299.2439887523651	picture	0		99	282.0	/experiments/Knapen_AOT/AOT_stimuli/pictures/0341_fw.png	354.50537180900574	0.833362340927124
284	300.0608992576599	response	0	k		282.0	/experiments/Knapen_AOT/AOT_stimuli/pictures/0341_fw.png	355.32228231430054	
285	300.07735109329224	picture	0		148	283.0	/experiments/Knapen_AOT/AOT_stimuli/pictures/2024_fw.png	355.33873414993286	1.2372393608093262
285	301.30252957344055	response	0	j		283.0	/experiments/Knapen_AOT/AOT_stimuli/pictures/2024_fw.png	356.5639126300812	
286	301.31459045410156	picture	0		111	284.0	/experiments/Knapen_AOT/AOT_stimuli/pictures/0453_fw.png	356.5759735107422	0.9294521808624268
286	302.21991515159607	response	0	k		284.0	/experiments/Knapen_AOT/AOT_stimuli/pictures/0453_fw.png	357.4812982082367	
287	302.244042634964	picture	0		103	285.0	/experiments/Knapen_AOT/AOT_stimuli/pictures/0072_fw.png	357.5054256916046	0.8667118549346924
287	303.0942471027374	response	0	j		285.0	/experiments/Knapen_AOT/AOT_stimuli/pictures/0072_fw.png	358.35563015937805	
288	303.1107544898987	picture	0		139	286.0	/experiments/Knapen_AOT/AOT_stimuli/pictures/1938_fw.png	358.3721375465393	1.1666460037231445
288	304.2609179019928	response	0	k		286.0	/experiments/Knapen_AOT/AOT_stimuli/pictures/1938_fw.png	359.5223009586334	
289	304.2774004936218	picture	0		102	287.0	/experiments/Knapen_AOT/AOT_stimuli/pictures/0930_fw.png	359.53878355026245	0.8583433628082275
289	305.11925745010376	response	0	k		287.0	/experiments/Knapen_AOT/AOT_stimuli/pictures/0930_fw.png	360.3806405067444	
290	305.13574385643005	picture	0		117	288.0	/experiments/Knapen_AOT/AOT_stimuli/pictures/0135_fw.png	360.3971269130707	0.9833343029022217
290	306.10263109207153	response	0	k		288.0	/experiments/Knapen_AOT/AOT_stimuli/pictures/0135_fw.png	361.36401414871216	
291	306.1190781593323	picture	0		103	289.0	/experiments/Knapen_AOT/AOT_stimuli/pictures/1212_fw.png	361.3804612159729	0.8666865825653076
291	306.96926975250244	response	0	k		289.0	/experiments/Knapen_AOT/AOT_stimuli/pictures/1212_fw.png	362.23065280914307	
292	306.9857647418976	picture	0		224	290.0	/experiments/Knapen_AOT/AOT_stimuli/pictures/1114_fw.png	362.2471477985382	1.8750355243682861
292	308.8443102836609	response	0	k		290.0	/experiments/Knapen_AOT/AOT_stimuli/pictures/1114_fw.png	364.1056933403015	
293	308.86080026626587	picture	0		85	291.0	/experiments/Knapen_AOT/AOT_stimuli/pictures/1610_fw.png	364.1221833229065	0.7166957855224609
293	309.56123208999634	response	0	j		291.0	/experiments/Knapen_AOT/AOT_stimuli/pictures/1610_fw.png	364.82261514663696	
294	309.57749605178833	picture	0		106	292.0	/experiments/Knapen_AOT/AOT_stimuli/pictures/1968_fw.png	364.83887910842896	0.8916492462158203
294	310.452650308609	response	0	k		292.0	/experiments/Knapen_AOT/AOT_stimuli/pictures/1968_fw.png	365.71403336524963	
295	310.46914529800415	picture	0		91	293.0	/experiments/Knapen_AOT/AOT_stimuli/pictures/0038_fw.png	365.7305283546448	0.7666535377502441
295	311.2118983268738	response	0	j		293.0	/experiments/Knapen_AOT/AOT_stimuli/pictures/0038_fw.png	366.4732813835144	
296	311.2357988357544	picture	0		162	294.0	/experiments/Knapen_AOT/AOT_stimuli/pictures/2104_fw.png	366.497181892395	1.3583614826202393
296	312.57865858078003	response	0	k		294.0	/experiments/Knapen_AOT/AOT_stimuli/pictures/2104_fw.png	367.84004163742065	
297	312.59416031837463	picture	0		97	295.0	/experiments/Knapen_AOT/AOT_stimuli/pictures/1156_fw.png	367.85554337501526	0.8166790008544922
297	313.3943438529968	response	0	k		295.0	/experiments/Knapen_AOT/AOT_stimuli/pictures/1156_fw.png	368.65572690963745	
298	313.4108393192291	picture	0		87	296.0	/experiments/Knapen_AOT/AOT_stimuli/pictures/1721_fw.png	368.67222237586975	0.7333323955535889
298	314.12769865989685	response	0	k		296.0	/experiments/Knapen_AOT/AOT_stimuli/pictures/1721_fw.png	369.3890817165375	
299	314.1441717147827	picture	0		112	297.0	/experiments/Knapen_AOT/AOT_stimuli/pictures/1071_fw.png	369.40555477142334	0.9416904449462891
299	315.0695219039917	response	0	k		297.0	/experiments/Knapen_AOT/AOT_stimuli/pictures/1071_fw.png	370.3309049606323	
300	315.085862159729	picture	0		135	298.0	/experiments/Knapen_AOT/AOT_stimuli/pictures/1453_fw.png	370.34724521636963	1.1333351135253906
300	316.20298886299133	response	0	k		298.0	/experiments/Knapen_AOT/AOT_stimuli/pictures/1453_fw.png	371.46437191963196	
301	316.2191972732544	picture	0		86	299.0	/experiments/Knapen_AOT/AOT_stimuli/pictures/0535_fw.png	371.480580329895	0.7249946594238281
301	316.92802119255066	response	0	j		299.0	/experiments/Knapen_AOT/AOT_stimuli/pictures/0535_fw.png	372.1894042491913	
302	316.9441919326782	picture	0		275	300.0	/experiments/Knapen_AOT/AOT_stimuli/pictures/0007_fw.png	372.20557498931885	2.3000857830047607
302	319.227840423584	response	0	j		300.0	/experiments/Knapen_AOT/AOT_stimuli/pictures/0007_fw.png	374.4892234802246	
303	319.244277715683	picture	0		89	301.0	/experiments/Knapen_AOT/AOT_stimuli/pictures/1204_fw.png	374.5056607723236	0.7499983310699463
303	319.97793793678284	response	0	k		301.0	/experiments/Knapen_AOT/AOT_stimuli/pictures/1204_fw.png	375.23932099342346	
304	319.99427604675293	picture	0		89	302.0	/experiments/Knapen_AOT/AOT_stimuli/pictures/0142_fw.png	375.25565910339355	0.7500102519989014
304	320.7278187274933	response	0	k		302.0	/experiments/Knapen_AOT/AOT_stimuli/pictures/0142_fw.png	375.9892017841339	
305	320.74428629875183	picture	0		84	303.0	/experiments/Knapen_AOT/AOT_stimuli/pictures/1641_fw.png	376.00566935539246	0.7083165645599365
305	321.43616008758545	response	0	j		303.0	/experiments/Knapen_AOT/AOT_stimuli/pictures/1641_fw.png	376.6975431442261	
306	321.45260286331177	picture	0		154	304.0	/experiments/Knapen_AOT/AOT_stimuli/pictures/0406_fw.png	376.7139859199524	1.2916851043701172
306	322.7278482913971	response	0	k		304.0	/experiments/Knapen_AOT/AOT_stimuli/pictures/0406_fw.png	377.9892313480377	
307	322.7442879676819	picture	0		85	305.0	/experiments/Knapen_AOT/AOT_stimuli/pictures/1366_fw.png	378.0056710243225	0.7167246341705322
307	323.44448256492615	response	0	k		305.0	/experiments/Knapen_AOT/AOT_stimuli/pictures/1366_fw.png	378.7058656215668	
308	323.4610126018524	picture	0		122	306.0	/experiments/Knapen_AOT/AOT_stimuli/pictures/1002_fw.png	378.72239565849304	1.024949312210083
308	324.46965980529785	response	0	j		306.0	/experiments/Knapen_AOT/AOT_stimuli/pictures/1002_fw.png	379.7310428619385	
309	324.4859619140625	picture	0		95	307.0	/experiments/Knapen_AOT/AOT_stimuli/pictures/0800_fw.png	379.7473449707031	0.8000261783599854
309	325.2695004940033	response	0	k		307.0	/experiments/Knapen_AOT/AOT_stimuli/pictures/0800_fw.png	380.5308835506439	
310	325.2859880924225	picture	0		156	308.0	/experiments/Knapen_AOT/AOT_stimuli/pictures/2120_fw.png	380.5473711490631	1.3083925247192383
310	326.5779929161072	response	0	k		308.0	/experiments/Knapen_AOT/AOT_stimuli/pictures/2120_fw.png	381.8393759727478	
311	326.5943806171417	picture	0		88	309.0	/experiments/Knapen_AOT/AOT_stimuli/pictures/1793_fw.png	381.85576367378235	0.7416036128997803
311	327.3195185661316	response	0	j		309.0	/experiments/Knapen_AOT/AOT_stimuli/pictures/1793_fw.png	382.5809016227722	
312	327.3359842300415	picture	0		89	310.0	/experiments/Knapen_AOT/AOT_stimuli/pictures/1356_fw.png	382.59736728668213	0.7500641345977783
312	328.0695323944092	response	0	k		310.0	/experiments/Knapen_AOT/AOT_stimuli/pictures/1356_fw.png	383.3309154510498	
313	328.0860483646393	picture	0		94	311.0	/experiments/Knapen_AOT/AOT_stimuli/pictures/0426_fw.png	383.3474314212799	0.7916505336761475
313	328.86115765571594	response	0	j		311.0	/experiments/Knapen_AOT/AOT_stimuli/pictures/0426_fw.png	384.12254071235657	
314	328.87769889831543	picture	0		103	312.0	/experiments/Knapen_AOT/AOT_stimuli/pictures/1244_fw.png	384.13908195495605	0.8666896820068359
314	329.72784972190857	response	0	k		312.0	/experiments/Knapen_AOT/AOT_stimuli/pictures/1244_fw.png	384.9892327785492	
315	329.74438858032227	picture	0		105	313.0	/experiments/Knapen_AOT/AOT_stimuli/pictures/2059_fw.png	385.0057716369629	0.8833317756652832
315	330.61117672920227	response	0	j		313.0	/experiments/Knapen_AOT/AOT_stimuli/pictures/2059_fw.png	385.8725597858429	
316	330.62772035598755	picture	0		107	314.0	/experiments/Knapen_AOT/AOT_stimuli/pictures/0923_fw.png	385.8891034126282	0.9000387191772461
316	331.5112965106964	response	0	k		314.0	/experiments/Knapen_AOT/AOT_stimuli/pictures/0923_fw.png	386.77267956733704	
317	331.5277590751648	picture	0		117	315.0	/experiments/Knapen_AOT/AOT_stimuli/pictures/0655_fw.png	386.7891421318054	0.9833145141601562
317	332.4946548938751	response	0	j		315.0	/experiments/Knapen_AOT/AOT_stimuli/pictures/0655_fw.png	387.75603795051575	
318	332.51107358932495	picture	0		110	316.0	/experiments/Knapen_AOT/AOT_stimuli/pictures/1298_fw.png	387.7724566459656	0.9250614643096924
318	333.41976857185364	response	0	j		316.0	/experiments/Knapen_AOT/AOT_stimuli/pictures/1298_fw.png	388.68115162849426	
319	333.43613505363464	picture	0		144	317.0	/experiments/Knapen_AOT/AOT_stimuli/pictures/0162_fw.png	388.69751811027527	1.208296298980713
319	334.6282889842987	response	0	j		317.0	/experiments/Knapen_AOT/AOT_stimuli/pictures/0162_fw.png	389.88967204093933	
320	334.64443135261536	picture	0		95	318.0	/experiments/Knapen_AOT/AOT_stimuli/pictures/1541_fw.png	389.905814409256	0.800046443939209
320	335.42800855636597	response	0	k		318.0	/experiments/Knapen_AOT/AOT_stimuli/pictures/1541_fw.png	390.6893916130066	
321	335.44447779655457	picture	0		117	319.0	/experiments/Knapen_AOT/AOT_stimuli/pictures/0505_fw.png	390.7058608531952	0.9833252429962158
321	336.40398263931274	response	0	j		319.0	/experiments/Knapen_AOT/AOT_stimuli/pictures/0505_fw.png	391.66536569595337	
322	336.4278030395508	picture	0		131	320.0	/experiments/Knapen_AOT/AOT_stimuli/pictures/1729_fw.png	391.6891860961914	1.1000118255615234
322	337.51137375831604	response	0	j		320.0	/experiments/Knapen_AOT/AOT_stimuli/pictures/1729_fw.png	392.77275681495667	
323	337.5278148651123	picture	0		130	321.0	/experiments/Knapen_AOT/AOT_stimuli/pictures/1771_fw.png	392.78919792175293	1.0916922092437744
323	338.60304594039917	response	0	j		321.0	/experiments/Knapen_AOT/AOT_stimuli/pictures/1771_fw.png	393.8644289970398	
324	338.6195070743561	picture	0		131	322.0	/experiments/Knapen_AOT/AOT_stimuli/pictures/0226_fw.png	393.8808901309967	1.099984884262085
324	339.7030699253082	response	0	k		322.0	/experiments/Knapen_AOT/AOT_stimuli/pictures/0226_fw.png	394.96445298194885	
325	339.71949195861816	picture	0		108	323.0	/experiments/Knapen_AOT/AOT_stimuli/pictures/1605_fw.png	394.9808750152588	0.9083256721496582
325	340.6039204597473	response	0	j		323.0	/experiments/Knapen_AOT/AOT_stimuli/pictures/1605_fw.png	395.86530351638794	
326	340.6278176307678	picture	0		80	324.0	/experiments/Knapen_AOT/AOT_stimuli/pictures/1416_fw.png	395.88920068740845	0.6750414371490479
326	341.2864155769348	response	0	j		324.0	/experiments/Knapen_AOT/AOT_stimuli/pictures/1416_fw.png	396.54779863357544	
327	341.30285906791687	picture	0		115	325.0	/experiments/Knapen_AOT/AOT_stimuli/pictures/1327_fw.png	396.5642421245575	0.9666748046875
327	342.25300908088684	response	0	j		325.0	/experiments/Knapen_AOT/AOT_stimuli/pictures/1327_fw.png	397.51439213752747	
328	342.26953387260437	picture	0		87	326.0	/experiments/Knapen_AOT/AOT_stimuli/pictures/0012_fw.png	397.530916929245	0.7333309650421143
328	342.9864344596863	response	0	j		326.0	/experiments/Knapen_AOT/AOT_stimuli/pictures/0012_fw.png	398.2478175163269	
329	343.0028648376465	picture	0		113	327.0	/experiments/Knapen_AOT/AOT_stimuli/pictures/1962_fw.png	398.2642478942871	0.9500250816345215
329	343.93647837638855	response	0	j		327.0	/experiments/Knapen_AOT/AOT_stimuli/pictures/1962_fw.png	399.1978614330292	
330	343.952889919281	picture	0		114	328.0	/experiments/Knapen_AOT/AOT_stimuli/pictures/0008_fw.png	399.21427297592163	0.9583384990692139
330	344.8947467803955	response	0	k		328.0	/experiments/Knapen_AOT/AOT_stimuli/pictures/0008_fw.png	400.15612983703613	
331	344.9112284183502	picture	0		87	329.0	/experiments/Knapen_AOT/AOT_stimuli/pictures/1539_fw.png	400.17261147499084	0.7333352565765381
331	345.6281063556671	response	0	j		329.0	/experiments/Knapen_AOT/AOT_stimuli/pictures/1539_fw.png	400.88948941230774	
332	345.64456367492676	picture	0		161	330.0	/experiments/Knapen_AOT/AOT_stimuli/pictures/0740_fw.png	400.9059467315674	1.3500442504882812
332	346.97812962532043	response	0	k		330.0	/experiments/Knapen_AOT/AOT_stimuli/pictures/0740_fw.png	402.23951268196106	
333	346.99460792541504	picture	0		135	331.0	/experiments/Knapen_AOT/AOT_stimuli/pictures/1752_fw.png	402.25599098205566	1.1333191394805908
333	348.1114385128021	response	0	j		331.0	/experiments/Knapen_AOT/AOT_stimuli/pictures/1752_fw.png	403.37282156944275	
334	348.12792706489563	picture	0		86	332.0	/experiments/Knapen_AOT/AOT_stimuli/pictures/0937_fw.png	403.38931012153625	0.7250335216522217
334	348.83646178245544	response	0	j		332.0	/experiments/Knapen_AOT/AOT_stimuli/pictures/0937_fw.png	404.09784483909607	
335	348.85296058654785	picture	0		87	333.0	/experiments/Knapen_AOT/AOT_stimuli/pictures/1498_fw.png	404.1143436431885	0.7258374691009521
335	349.5698182582855	response	0	j		333.0	/experiments/Knapen_AOT/AOT_stimuli/pictures/1498_fw.png	404.83120131492615	
336	349.5787980556488	picture	0		76	334.0	/experiments/Knapen_AOT/AOT_stimuli/pictures/1150_fw.png	404.84018111228943	0.6408228874206543
336	350.19600558280945	response	0	j		334.0	/experiments/Knapen_AOT/AOT_stimuli/pictures/1150_fw.png	405.4573886394501	
337	350.21962094306946	picture	0		142	335.0	/experiments/Knapen_AOT/AOT_stimuli/pictures/2090_fw.png	405.4810039997101	1.1916825771331787
337	351.3950934410095	response	0	j		335.0	/experiments/Knapen_AOT/AOT_stimuli/pictures/2090_fw.png	406.65647649765015	
338	351.41130352020264	picture	0		193	336.0	/experiments/Knapen_AOT/AOT_stimuli/pictures/0769_fw.png	406.67268657684326	1.616715908050537
338	353.0051636695862	response	0	k		336.0	/experiments/Knapen_AOT/AOT_stimuli/pictures/0769_fw.png	408.2665467262268	
339	353.0280194282532	picture	0		130	337.0	/experiments/Knapen_AOT/AOT_stimuli/pictures/1058_fw.png	408.2894024848938	1.091681957244873
339	354.1031732559204	response	0	k		337.0	/experiments/Knapen_AOT/AOT_stimuli/pictures/1058_fw.png	409.36455631256104	
340	354.11970138549805	picture	0		79	338.0	/experiments/Knapen_AOT/AOT_stimuli/pictures/2092_fw.png	409.3810844421387	0.6666419506072998
340	354.7698426246643	response	0	j		338.0	/experiments/Knapen_AOT/AOT_stimuli/pictures/2092_fw.png	410.03122568130493	
341	354.78634333610535	picture	0		139	339.0	/experiments/Knapen_AOT/AOT_stimuli/pictures/1760_fw.png	410.047726392746	1.1666889190673828
341	355.9366319179535	response	0	j		339.0	/experiments/Knapen_AOT/AOT_stimuli/pictures/1760_fw.png	411.1980149745941	
342	355.95303225517273	picture	0		170	340.0	/experiments/Knapen_AOT/AOT_stimuli/pictures/1223_fw.png	411.21441531181335	1.4250335693359375
342	357.361695766449	response	0	k		340.0	/experiments/Knapen_AOT/AOT_stimuli/pictures/1223_fw.png	412.6230788230896	
343	357.37806582450867	picture	0		92	341.0	/experiments/Knapen_AOT/AOT_stimuli/pictures/0540_fw.png	412.6394488811493	0.7749795913696289
343	358.13688254356384	response	0	k		341.0	/experiments/Knapen_AOT/AOT_stimuli/pictures/0540_fw.png	413.39826560020447	
344	358.1530454158783	picture	0		81	342.0	/experiments/Knapen_AOT/AOT_stimuli/pictures/0376_fw.png	413.4144284725189	0.6833581924438477
344	358.8199882507324	response	0	k		342.0	/experiments/Knapen_AOT/AOT_stimuli/pictures/0376_fw.png	414.08137130737305	
345	358.83640360832214	picture	0		92	343.0	/experiments/Knapen_AOT/AOT_stimuli/pictures/1998_fw.png	414.09778666496277	0.7750282287597656
345	359.59499955177307	response	0	j		343.0	/experiments/Knapen_AOT/AOT_stimuli/pictures/1998_fw.png	414.8563826084137	
346	359.6114318370819	picture	0		113	344.0	/experiments/Knapen_AOT/AOT_stimuli/pictures/1153_fw.png	414.87281489372253	0.9500067234039307
346	360.54492926597595	response	0	k		344.0	/experiments/Knapen_AOT/AOT_stimuli/pictures/1153_fw.png	415.8063123226166	
347	360.56143856048584	picture	0		136	345.0	/experiments/Knapen_AOT/AOT_stimuli/pictures/0379_fw.png	415.82282161712646	1.1416738033294678
347	361.686692237854	response	0	k		345.0	/experiments/Knapen_AOT/AOT_stimuli/pictures/0379_fw.png	416.94807529449463	
348	361.7031123638153	picture	0		80	346.0	/experiments/Knapen_AOT/AOT_stimuli/pictures/0173_fw.png	416.96449542045593	0.674980878829956
348	362.36163687705994	response	0	k		346.0	/experiments/Knapen_AOT/AOT_stimuli/pictures/0173_fw.png	417.62301993370056	
349	362.37809324264526	picture	0		157	347.0	/experiments/Knapen_AOT/AOT_stimuli/pictures/0894_fw.png	417.6394762992859	1.3167214393615723
349	363.6783332824707	response	0	k		347.0	/experiments/Knapen_AOT/AOT_stimuli/pictures/0894_fw.png	418.9397163391113	
350	363.69481468200684	picture	0		95	348.0	/experiments/Knapen_AOT/AOT_stimuli/pictures/1964_fw.png	418.95619773864746	0.8000485897064209
350	364.4785304069519	response	0	k		348.0	/experiments/Knapen_AOT/AOT_stimuli/pictures/1964_fw.png	419.73991346359253	
351	364.49486327171326	picture	0		103	349.0	/experiments/Knapen_AOT/AOT_stimuli/pictures/1475_fw.png	419.7562463283539	0.8666534423828125
351	365.3452537059784	response	0	j		349.0	/experiments/Knapen_AOT/AOT_stimuli/pictures/1475_fw.png	420.606636762619	
352	365.36151671409607	picture	0		99	350.0	/experiments/Knapen_AOT/AOT_stimuli/pictures/0005_fw.png	420.6228997707367	0.8333475589752197
352	366.1783275604248	response	0	k		350.0	/experiments/Knapen_AOT/AOT_stimuli/pictures/0005_fw.png	421.43971061706543	
353	366.1948642730713	picture	0		93	351.0	/experiments/Knapen_AOT/AOT_stimuli/pictures/2009_fw.png	421.4562473297119	0.7833170890808105
353	366.9617075920105	response	0	j		351.0	/experiments/Knapen_AOT/AOT_stimuli/pictures/2009_fw.png	422.2230906486511	
354	366.9781813621521	picture	0		122	352.0	/experiments/Knapen_AOT/AOT_stimuli/pictures/0746_fw.png	422.2395644187927	1.0249738693237305
354	367.9869337081909	response	0	j		352.0	/experiments/Knapen_AOT/AOT_stimuli/pictures/0746_fw.png	423.24831676483154	
355	368.00315523147583	picture	0		98	353.0	/experiments/Knapen_AOT/AOT_stimuli/pictures/1725_fw.png	423.26453828811646	0.8250417709350586
355	368.80418729782104	response	0	j		353.0	/experiments/Knapen_AOT/AOT_stimuli/pictures/1725_fw.png	424.06557035446167	
356	368.8281970024109	picture	0		159	354.0	/experiments/Knapen_AOT/AOT_stimuli/pictures/0137_fw.png	424.0895800590515	1.3333642482757568
356	370.1450674533844	response	0	k		354.0	/experiments/Knapen_AOT/AOT_stimuli/pictures/0137_fw.png	425.406450510025	
357	370.16156125068665	picture	0		102	355.0	/experiments/Knapen_AOT/AOT_stimuli/pictures/0957_fw.png	425.42294430732727	0.8583564758300781
357	371.00338196754456	response	0	j		355.0	/experiments/Knapen_AOT/AOT_stimuli/pictures/0957_fw.png	426.2647650241852	
358	371.0199177265167	picture	0		115	356.0	/experiments/Knapen_AOT/AOT_stimuli/pictures/1329_fw.png	426.28130078315735	0.9666476249694824
358	371.97015929222107	response	0	k		356.0	/experiments/Knapen_AOT/AOT_stimuli/pictures/1329_fw.png	427.2315423488617	
359	371.9865653514862	picture	0		96	357.0	/experiments/Knapen_AOT/AOT_stimuli/pictures/0966_fw.png	427.24794840812683	0.8083200454711914
359	372.7789969444275	response	0	j		357.0	/experiments/Knapen_AOT/AOT_stimuli/pictures/0966_fw.png	428.0403800010681	
360	372.7948853969574	picture	0		97	358.0	/experiments/Knapen_AOT/AOT_stimuli/pictures/2047_fw.png	428.056268453598	0.816718578338623
360	373.59510564804077	response	0	j		358.0	/experiments/Knapen_AOT/AOT_stimuli/pictures/2047_fw.png	428.8564887046814	
361	373.611603975296	picture	0		95	359.0	/experiments/Knapen_AOT/AOT_stimuli/pictures/1268_fw.png	428.87298703193665	0.7999763488769531
361	374.395423412323	response	0	j		359.0	/experiments/Knapen_AOT/AOT_stimuli/pictures/1268_fw.png	429.6568064689636	
362	374.411580324173	stim	0		468			429.6729633808136	3.918837785720825
362	378.31078481674194	response	0	space				433.57216787338257	
