trial_nr	onset	event_type	phase	response	nr_frames	picture_index	picture_file	onset_abs	duration
0	0.16641879081726074	stim	0		330			79.05346393585205	2.7684779167175293
0	2.9167888164520264	response	0	space				81.80383396148682	
2	2.93489670753479	picture	0		1032	0.0	/experiments/Knapen_AOT/AOT_stimuli/pictures/1681_fw.png	81.82194185256958	8.624712705612183
2	11.534985065460205	response	0	j		0.0	/experiments/Knapen_AOT/AOT_stimuli/pictures/1681_fw.png	90.422030210495	
3	11.559609413146973	picture	0		88	1.0	/experiments/Knapen_AOT/AOT_stimuli/pictures/1004_fw.png	90.44665455818176	0.7485871315002441
3	12.284157514572144	response	0	j		1.0	/experiments/Knapen_AOT/AOT_stimuli/pictures/1004_fw.png	91.17120265960693	
4	12.308196544647217	picture	0		249	2.0	/experiments/Knapen_AOT/AOT_stimuli/pictures/0498_fw.png	91.195241689682	2.0833823680877686
4	14.375080823898315	response	0	k		2.0	/experiments/Knapen_AOT/AOT_stimuli/pictures/0498_fw.png	93.2621259689331	
5	14.391578912734985	picture	0		96	3.0	/experiments/Knapen_AOT/AOT_stimuli/pictures/0850_fw.png	93.27862405776978	0.800412654876709
5	15.183441877365112	response	0	k		3.0	/experiments/Knapen_AOT/AOT_stimuli/pictures/0850_fw.png	94.0704870223999	
6	15.191991567611694	picture	0		166	4.0	/experiments/Knapen_AOT/AOT_stimuli/pictures/2070_fw.png	94.07903671264648	1.391310691833496
6	16.56716275215149	response	0	k		4.0	/experiments/Knapen_AOT/AOT_stimuli/pictures/2070_fw.png	95.45420789718628	
7	16.58330225944519	picture	0		185	5.0	/experiments/Knapen_AOT/AOT_stimuli/pictures/0772_fw.png	95.47034740447998	1.5461163520812988
7	18.1167950630188	response	0	j		5.0	/experiments/Knapen_AOT/AOT_stimuli/pictures/0772_fw.png	97.00384020805359	
8	18.12941861152649	picture	0		102	6.0	/experiments/Knapen_AOT/AOT_stimuli/pictures/1355_fw.png	97.01646375656128	0.8542532920837402
8	18.975169897079468	response	0	k		6.0	/experiments/Knapen_AOT/AOT_stimuli/pictures/1355_fw.png	97.86221504211426	
9	18.98367190361023	picture	0		87	7.0	/experiments/Knapen_AOT/AOT_stimuli/pictures/0834_fw.png	97.87071704864502	0.7292120456695557
9	19.700140476226807	response	0	j		7.0	/experiments/Knapen_AOT/AOT_stimuli/pictures/0834_fw.png	98.5871856212616	
10	19.712883949279785	picture	0		139	8.0	/experiments/Knapen_AOT/AOT_stimuli/pictures/0263_fw.png	98.59992909431458	1.1666405200958252
10	20.866735458374023	response	0	j		8.0	/experiments/Knapen_AOT/AOT_stimuli/pictures/0263_fw.png	99.75378060340881	
11	20.87952446937561	picture	0		115	9.0	/experiments/Knapen_AOT/AOT_stimuli/pictures/1248_fw.png	99.7665696144104	0.958381175994873
11	21.82515525817871	response	0	k		9.0	/experiments/Knapen_AOT/AOT_stimuli/pictures/1248_fw.png	100.7122004032135	
12	21.837905645370483	picture	0		151	10.0	/experiments/Knapen_AOT/AOT_stimuli/pictures/1112_fw.png	100.72495079040527	1.2620785236358643
12	23.076086282730103	response	0	j		10.0	/experiments/Knapen_AOT/AOT_stimuli/pictures/1112_fw.png	101.96313142776489	
13	23.099984169006348	picture	0		619	11.0	/experiments/Knapen_AOT/AOT_stimuli/pictures/0039_fw.png	101.98702931404114	5.1614460945129395
13	28.25024127960205	response	0	k		11.0	/experiments/Knapen_AOT/AOT_stimuli/pictures/0039_fw.png	107.13728642463684	
14	28.261430263519287	picture	0		104	12.0	/experiments/Knapen_AOT/AOT_stimuli/pictures/0917_fw.png	107.14847540855408	0.8682146072387695
14	29.11695909500122	response	0	k		12.0	/experiments/Knapen_AOT/AOT_stimuli/pictures/0917_fw.png	108.00400424003601	
15	29.129644870758057	picture	0		91	13.0	/experiments/Knapen_AOT/AOT_stimuli/pictures/1395_fw.png	108.01669001579285	0.7704346179962158
15	29.876428365707397	response	0	j		13.0	/experiments/Knapen_AOT/AOT_stimuli/pictures/1395_fw.png	108.76347351074219	
16	29.900079488754272	picture	0		148	14.0	/experiments/Knapen_AOT/AOT_stimuli/pictures/1458_fw.png	108.78712463378906	1.2416722774505615
16	31.125317573547363	response	0	k		14.0	/experiments/Knapen_AOT/AOT_stimuli/pictures/1458_fw.png	110.01236271858215	
17	31.141751766204834	picture	0		125	15.0	/experiments/Knapen_AOT/AOT_stimuli/pictures/0464_fw.png	110.02879691123962	1.0500218868255615
17	32.17541146278381	response	0	k		15.0	/experiments/Knapen_AOT/AOT_stimuli/pictures/0464_fw.png	111.0624566078186	
18	32.191773653030396	picture	0		78	16.0	/experiments/Knapen_AOT/AOT_stimuli/pictures/0084_fw.png	111.07881879806519	0.6583571434020996
18	32.83389902114868	response	0	j		16.0	/experiments/Knapen_AOT/AOT_stimuli/pictures/0084_fw.png	111.72094416618347	
19	32.850130796432495	picture	0		141	17.0	/experiments/Knapen_AOT/AOT_stimuli/pictures/0822_fw.png	111.73717594146729	1.17535400390625
19	34.01695513725281	response	0	k		17.0	/experiments/Knapen_AOT/AOT_stimuli/pictures/0822_fw.png	112.9040002822876	
20	34.025484800338745	picture	0		111	18.0	/experiments/Knapen_AOT/AOT_stimuli/pictures/0413_fw.png	112.91252994537354	0.9329776763916016
20	34.942017555236816	response	0	j		18.0	/experiments/Knapen_AOT/AOT_stimuli/pictures/0413_fw.png	113.8290627002716	
21	34.95846247673035	picture	0		166	19.0	/experiments/Knapen_AOT/AOT_stimuli/pictures/1289_fw.png	113.84550762176514	1.3863520622253418
21	36.333659172058105	response	0	k		19.0	/experiments/Knapen_AOT/AOT_stimuli/pictures/1289_fw.png	115.2207043170929	
22	36.34481453895569	picture	0		75	20.0	/experiments/Knapen_AOT/AOT_stimuli/pictures/0636_fw.png	115.23185968399048	0.6251609325408936
22	36.958688735961914	response	0	j		20.0	/experiments/Knapen_AOT/AOT_stimuli/pictures/0636_fw.png	115.8457338809967	
23	36.96997547149658	picture	0		74	21.0	/experiments/Knapen_AOT/AOT_stimuli/pictures/0319_fw.png	115.85702061653137	0.6180224418640137
23	37.57544922828674	response	0	j		21.0	/experiments/Knapen_AOT/AOT_stimuli/pictures/0319_fw.png	116.46249437332153	
24	37.587997913360596	picture	0		82	22.0	/experiments/Knapen_AOT/AOT_stimuli/pictures/1549_fw.png	116.47504305839539	0.6871728897094727
24	38.25903391838074	response	0	j		22.0	/experiments/Knapen_AOT/AOT_stimuli/pictures/1549_fw.png	117.14607906341553	
25	38.27517080307007	picture	0		121	23.0	/experiments/Knapen_AOT/AOT_stimuli/pictures/1710_fw.png	117.16221594810486	1.0141940116882324
25	39.27537727355957	response	0	j		23.0	/experiments/Knapen_AOT/AOT_stimuli/pictures/1710_fw.png	118.16242241859436	
26	39.2893648147583	picture	0		128	24.0	/experiments/Knapen_AOT/AOT_stimuli/pictures/0337_fw.png	118.17640995979309	1.0694608688354492
26	40.35038089752197	response	0	k		24.0	/experiments/Knapen_AOT/AOT_stimuli/pictures/0337_fw.png	119.23742604255676	
27	40.35882568359375	picture	0		110	25.0	/experiments/Knapen_AOT/AOT_stimuli/pictures/0109_fw.png	119.24587082862854	0.9247028827667236
27	41.26706027984619	response	0	k		25.0	/experiments/Knapen_AOT/AOT_stimuli/pictures/0109_fw.png	120.15410542488098	
28	41.283528566360474	picture	0		486	26.0	/experiments/Knapen_AOT/AOT_stimuli/pictures/1298_fw.png	120.17057371139526	4.058481216430664
28	45.32545065879822	response	0	j		26.0	/experiments/Knapen_AOT/AOT_stimuli/pictures/1298_fw.png	124.21249580383301	
29	45.34200978279114	picture	0		84	27.0	/experiments/Knapen_AOT/AOT_stimuli/pictures/0734_fw.png	124.22905492782593	0.7082953453063965
29	46.033902406692505	response	0	j		27.0	/experiments/Knapen_AOT/AOT_stimuli/pictures/0734_fw.png	124.9209475517273	
30	46.050305128097534	picture	0		296	28.0	/experiments/Knapen_AOT/AOT_stimuli/pictures/1131_fw.png	124.93735027313232	2.475006580352783
30	48.50882411003113	response	0	k		28.0	/experiments/Knapen_AOT/AOT_stimuli/pictures/1131_fw.png	127.39586925506592	
31	48.52531170845032	picture	0		111	29.0	/experiments/Knapen_AOT/AOT_stimuli/pictures/0165_fw.png	127.41235685348511	0.930797815322876
31	49.442185401916504	response	0	j		29.0	/experiments/Knapen_AOT/AOT_stimuli/pictures/0165_fw.png	128.3292305469513	
32	49.45610952377319	picture	0		116	30.0	/experiments/Knapen_AOT/AOT_stimuli/pictures/0959_fw.png	128.34315466880798	0.9722042083740234
32	50.417173624038696	response	0	k		30.0	/experiments/Knapen_AOT/AOT_stimuli/pictures/0959_fw.png	129.3042187690735	
33	50.42831373214722	picture	0		198	31.0	/experiments/Knapen_AOT/AOT_stimuli/pictures/1313_fw.png	129.315358877182	1.6527423858642578
33	52.06008219718933	response	0	k		31.0	/experiments/Knapen_AOT/AOT_stimuli/pictures/1313_fw.png	130.94712734222412	
34	52.081056118011475	picture	0		80	32.0	/experiments/Knapen_AOT/AOT_stimuli/pictures/0880_fw.png	130.96810126304626	0.6736586093902588
34	52.742180824279785	response	0	j		32.0	/experiments/Knapen_AOT/AOT_stimuli/pictures/0880_fw.png	131.62922596931458	
35	52.75471472740173	picture	0		326	33.0	/experiments/Knapen_AOT/AOT_stimuli/pictures/1757_fw.png	131.64175987243652	2.7207019329071045
35	55.4589056968689	response	0	j		33.0	/experiments/Knapen_AOT/AOT_stimuli/pictures/1757_fw.png	134.3459508419037	
36	55.47541666030884	picture	0		82	34.0	/experiments/Knapen_AOT/AOT_stimuli/pictures/0300_fw.png	134.36246180534363	0.6916422843933105
36	56.150845527648926	response	0	k		34.0	/experiments/Knapen_AOT/AOT_stimuli/pictures/0300_fw.png	135.03789067268372	
37	56.16705894470215	picture	0		156	35.0	/experiments/Knapen_AOT/AOT_stimuli/pictures/1454_fw.png	135.05410408973694	1.3083782196044922
37	57.45921468734741	response	0	k		35.0	/experiments/Knapen_AOT/AOT_stimuli/pictures/1454_fw.png	136.3462598323822	
38	57.47543716430664	picture	0		97	36.0	/experiments/Knapen_AOT/AOT_stimuli/pictures/1568_fw.png	136.36248230934143	0.8166439533233643
38	58.275851011276245	response	0	j		36.0	/experiments/Knapen_AOT/AOT_stimuli/pictures/1568_fw.png	137.16289615631104	
39	58.292081117630005	picture	0		130	37.0	/experiments/Knapen_AOT/AOT_stimuli/pictures/0111_fw.png	137.1791262626648	1.0917351245880127
39	59.36726427078247	response	0	k		37.0	/experiments/Knapen_AOT/AOT_stimuli/pictures/0111_fw.png	138.25430941581726	
40	59.38381624221802	picture	0		278	38.0	/experiments/Knapen_AOT/AOT_stimuli/pictures/2111_fw.png	138.2708613872528	2.322288751602173
40	61.69231200218201	response	0	k		38.0	/experiments/Knapen_AOT/AOT_stimuli/pictures/2111_fw.png	140.5793571472168	
41	61.70610499382019	picture	0		89	39.0	/experiments/Knapen_AOT/AOT_stimuli/pictures/0823_fw.png	140.59315013885498	0.7500863075256348
41	62.44255518913269	response	0	j		39.0	/experiments/Knapen_AOT/AOT_stimuli/pictures/0823_fw.png	141.32960033416748	
42	62.456191301345825	picture	0		82	40.0	/experiments/Knapen_AOT/AOT_stimuli/pictures/1138_fw.png	141.34323644638062	0.6942844390869141
42	63.1339910030365	response	0	j		40.0	/experiments/Knapen_AOT/AOT_stimuli/pictures/1138_fw.png	142.0210361480713	
43	63.15047574043274	picture	0		75	41.0	/experiments/Knapen_AOT/AOT_stimuli/pictures/0756_fw.png	142.03752088546753	0.6333203315734863
43	63.767324686050415	response	0	j		41.0	/experiments/Knapen_AOT/AOT_stimuli/pictures/0756_fw.png	142.6543698310852	
44	63.783796072006226	picture	0		116	42.0	/experiments/Knapen_AOT/AOT_stimuli/pictures/0641_fw.png	142.67084121704102	0.9710314273834229
44	64.74231672286987	response	0	j		42.0	/experiments/Knapen_AOT/AOT_stimuli/pictures/0641_fw.png	143.62936186790466	
45	64.75482749938965	picture	0		77	43.0	/experiments/Knapen_AOT/AOT_stimuli/pictures/1121_fw.png	143.64187264442444	0.6456902027130127
45	65.38398957252502	response	0	j		43.0	/experiments/Knapen_AOT/AOT_stimuli/pictures/1121_fw.png	144.27103471755981	
46	65.40051770210266	picture	0		114	44.0	/experiments/Knapen_AOT/AOT_stimuli/pictures/0046_fw.png	144.28756284713745	0.951521635055542
46	66.34247899055481	response	0	j		44.0	/experiments/Knapen_AOT/AOT_stimuli/pictures/0046_fw.png	145.2295241355896	
47	66.3520393371582	picture	0		93	45.0	/experiments/Knapen_AOT/AOT_stimuli/pictures/2033_fw.png	145.239084482193	0.7778148651123047
47	67.11733865737915	response	0	j		45.0	/experiments/Knapen_AOT/AOT_stimuli/pictures/2033_fw.png	146.00438380241394	
48	67.12985420227051	picture	0		122	46.0	/experiments/Knapen_AOT/AOT_stimuli/pictures/0121_fw.png	146.0168993473053	1.0206899642944336
48	68.13409543037415	response	0	j		46.0	/experiments/Knapen_AOT/AOT_stimuli/pictures/0121_fw.png	147.02114057540894	
49	68.15054416656494	picture	0		281	47.0	/experiments/Knapen_AOT/AOT_stimuli/pictures/0471_fw.png	147.03758931159973	2.3472909927368164
49	70.48430037498474	response	0	k		47.0	/experiments/Knapen_AOT/AOT_stimuli/pictures/0471_fw.png	149.37134552001953	
50	70.49783515930176	picture	0		88	48.0	/experiments/Knapen_AOT/AOT_stimuli/pictures/1604_fw.png	149.38488030433655	0.7363135814666748
50	71.22569441795349	response	0	k		48.0	/experiments/Knapen_AOT/AOT_stimuli/pictures/1604_fw.png	150.11273956298828	
51	71.23414874076843	picture	0		86	49.0	/experiments/Knapen_AOT/AOT_stimuli/pictures/1622_fw.png	150.12119388580322	0.724780797958374
51	71.94237852096558	response	0	j		49.0	/experiments/Knapen_AOT/AOT_stimuli/pictures/1622_fw.png	150.82942366600037	
52	71.9589295387268	picture	0		80	50.0	/experiments/Knapen_AOT/AOT_stimuli/pictures/1171_fw.png	150.8459746837616	0.6709499359130859
52	72.61737704277039	response	0	j		50.0	/experiments/Knapen_AOT/AOT_stimuli/pictures/1171_fw.png	151.50442218780518	
53	72.62987947463989	picture	0		159	51.0	/experiments/Knapen_AOT/AOT_stimuli/pictures/2035_fw.png	151.51692461967468	1.3264238834381104
53	73.94240593910217	response	0	k		51.0	/experiments/Knapen_AOT/AOT_stimuli/pictures/2035_fw.png	152.82945108413696	
54	73.956303358078	picture	0		128	52.0	/experiments/Knapen_AOT/AOT_stimuli/pictures/0177_fw.png	152.8433485031128	1.069474697113037
54	75.01746678352356	response	0	k		52.0	/experiments/Knapen_AOT/AOT_stimuli/pictures/0177_fw.png	153.90451192855835	
55	75.02577805519104	picture	0		94	53.0	/experiments/Knapen_AOT/AOT_stimuli/pictures/1208_fw.png	153.91282320022583	0.7846415042877197
55	75.80079412460327	response	0	j		53.0	/experiments/Knapen_AOT/AOT_stimuli/pictures/1208_fw.png	154.68783926963806	
56	75.81041955947876	picture	0		114	54.0	/experiments/Knapen_AOT/AOT_stimuli/pictures/1500_fw.png	154.69746470451355	0.9514267444610596
56	76.75085115432739	response	0	k		54.0	/experiments/Knapen_AOT/AOT_stimuli/pictures/1500_fw.png	155.63789629936218	
57	76.76184630393982	picture	0		252	55.0	/experiments/Knapen_AOT/AOT_stimuli/pictures/0648_fw.png	155.6488914489746	2.1054930686950684
57	78.8512065410614	response	0	j		55.0	/experiments/Knapen_AOT/AOT_stimuli/pictures/0648_fw.png	157.7382516860962	
58	78.86733937263489	picture	0		175	56.0	/experiments/Knapen_AOT/AOT_stimuli/pictures/0949_fw.png	157.75438451766968	1.4666643142700195
58	80.31758642196655	response	0	j		56.0	/experiments/Knapen_AOT/AOT_stimuli/pictures/0949_fw.png	159.20463156700134	
59	80.33400368690491	picture	0		80	57.0	/experiments/Knapen_AOT/AOT_stimuli/pictures/1788_fw.png	159.2210488319397	0.6709203720092773
59	80.99251413345337	response	0	j		57.0	/experiments/Knapen_AOT/AOT_stimuli/pictures/1788_fw.png	159.87955927848816	
60	81.00492405891418	picture	0		165	58.0	/experiments/Knapen_AOT/AOT_stimuli/pictures/1229_fw.png	159.89196920394897	1.379150629043579
60	82.36760711669922	response	0	j		58.0	/experiments/Knapen_AOT/AOT_stimuli/pictures/1229_fw.png	161.254652261734	
61	82.38407468795776	picture	0		108	59.0	/experiments/Knapen_AOT/AOT_stimuli/pictures/1227_fw.png	161.27111983299255	0.9055657386779785
61	83.26865339279175	response	0	j		59.0	/experiments/Knapen_AOT/AOT_stimuli/pictures/1227_fw.png	162.15569853782654	
62	83.28964042663574	picture	0		71	60.0	/experiments/Knapen_AOT/AOT_stimuli/pictures/0548_fw.png	162.17668557167053	0.6027083396911621
62	83.87600445747375	response	0	j		60.0	/experiments/Knapen_AOT/AOT_stimuli/pictures/0548_fw.png	162.76304960250854	
63	83.8923487663269	picture	0		106	61.0	/experiments/Knapen_AOT/AOT_stimuli/pictures/0573_fw.png	162.7793939113617	0.8917009830474854
63	84.7677252292633	response	0	k		61.0	/experiments/Knapen_AOT/AOT_stimuli/pictures/0573_fw.png	163.6547703742981	
64	84.78404974937439	picture	0		135	62.0	/experiments/Knapen_AOT/AOT_stimuli/pictures/1545_fw.png	163.67109489440918	1.1333544254302979
64	85.90125584602356	response	0	k		62.0	/experiments/Knapen_AOT/AOT_stimuli/pictures/1545_fw.png	164.78830099105835	
65	85.91740417480469	picture	0		111	63.0	/experiments/Knapen_AOT/AOT_stimuli/pictures/1328_fw.png	164.80444931983948	0.9278779029846191
65	86.83430790901184	response	0	j		63.0	/experiments/Knapen_AOT/AOT_stimuli/pictures/1328_fw.png	165.72135305404663	
66	86.8452820777893	picture	0		247	64.0	/experiments/Knapen_AOT/AOT_stimuli/pictures/1946_fw.png	165.7323272228241	2.055459976196289
66	88.89264512062073	response	0	k		64.0	/experiments/Knapen_AOT/AOT_stimuli/pictures/1946_fw.png	167.77969026565552	
67	88.9007420539856	picture	0		97	65.0	/experiments/Knapen_AOT/AOT_stimuli/pictures/1677_fw.png	167.78778719902039	0.8167197704315186
67	89.70097708702087	response	0	k		65.0	/experiments/Knapen_AOT/AOT_stimuli/pictures/1677_fw.png	168.58802223205566	
68	89.71746182441711	picture	0		128	66.0	/experiments/Knapen_AOT/AOT_stimuli/pictures/2042_fw.png	168.6045069694519	1.0749931335449219
68	90.77608442306519	response	0	k		66.0	/experiments/Knapen_AOT/AOT_stimuli/pictures/2042_fw.png	169.66312956809998	
69	90.79245495796204	picture	0		283	67.0	/experiments/Knapen_AOT/AOT_stimuli/pictures/1612_fw.png	169.67950010299683	2.375033140182495
69	93.14269065856934	response	0	j		67.0	/experiments/Knapen_AOT/AOT_stimuli/pictures/1612_fw.png	172.02973580360413	
70	93.16748809814453	picture	0		85	68.0	/experiments/Knapen_AOT/AOT_stimuli/pictures/2030_fw.png	172.05453324317932	0.7166633605957031
70	93.86016631126404	response	0	j		68.0	/experiments/Knapen_AOT/AOT_stimuli/pictures/2030_fw.png	172.74721145629883	
71	93.88415145874023	picture	0		142	69.0	/experiments/Knapen_AOT/AOT_stimuli/pictures/1342_fw.png	172.77119660377502	1.1834211349487305
71	95.05197787284851	response	0	k		69.0	/experiments/Knapen_AOT/AOT_stimuli/pictures/1342_fw.png	173.9390230178833	
72	95.06757259368896	picture	0		93	70.0	/experiments/Knapen_AOT/AOT_stimuli/pictures/1547_fw.png	173.95461773872375	0.7778029441833496
72	95.83436369895935	response	0	j		70.0	/experiments/Knapen_AOT/AOT_stimuli/pictures/1547_fw.png	174.72140884399414	
73	95.84537553787231	picture	0		136	71.0	/experiments/Knapen_AOT/AOT_stimuli/pictures/1770_fw.png	174.7324206829071	1.1318919658660889
73	96.9677004814148	response	0	k		71.0	/experiments/Knapen_AOT/AOT_stimuli/pictures/1770_fw.png	175.85474562644958	
74	96.9772675037384	picture	0		84	72.0	/experiments/Knapen_AOT/AOT_stimuli/pictures/0083_fw.png	175.8643126487732	0.7069370746612549
74	97.66808676719666	response	0	j		72.0	/experiments/Knapen_AOT/AOT_stimuli/pictures/0083_fw.png	176.55513191223145	
75	97.68420457839966	picture	0		382	73.0	/experiments/Knapen_AOT/AOT_stimuli/pictures/1439_fw.png	176.57124972343445	3.188824415206909
75	100.85941767692566	response	0	k		73.0	/experiments/Knapen_AOT/AOT_stimuli/pictures/1439_fw.png	179.74646282196045	
76	100.87302899360657	picture	0		113	74.0	/experiments/Knapen_AOT/AOT_stimuli/pictures/1691_fw.png	179.76007413864136	0.9446172714233398
76	101.80944275856018	response	0	k		74.0	/experiments/Knapen_AOT/AOT_stimuli/pictures/1691_fw.png	180.69648790359497	
77	101.81764626502991	picture	0		85	75.0	/experiments/Knapen_AOT/AOT_stimuli/pictures/1528_fw.png	180.7046914100647	0.7083225250244141
77	102.51777219772339	response	0	j		75.0	/experiments/Knapen_AOT/AOT_stimuli/pictures/1528_fw.png	181.40481734275818	
78	102.52596879005432	picture	0		450	76.0	/experiments/Knapen_AOT/AOT_stimuli/pictures/0525_fw.png	181.4130139350891	3.7499783039093018
78	106.26036095619202	response	0	k		76.0	/experiments/Knapen_AOT/AOT_stimuli/pictures/0525_fw.png	185.1474061012268	
79	106.27594709396362	picture	0		101	77.0	/experiments/Knapen_AOT/AOT_stimuli/pictures/0485_fw.png	185.1629922389984	0.8471870422363281
79	107.1095757484436	response	0	k		77.0	/experiments/Knapen_AOT/AOT_stimuli/pictures/0485_fw.png	185.9966208934784	
80	107.12313413619995	picture	0		79	78.0	/experiments/Knapen_AOT/AOT_stimuli/pictures/0900_fw.png	186.01017928123474	0.6695291996002197
80	107.77621674537659	response	0	j		78.0	/experiments/Knapen_AOT/AOT_stimuli/pictures/0900_fw.png	186.66326189041138	
81	107.79266333580017	picture	0		82	79.0	/experiments/Knapen_AOT/AOT_stimuli/pictures/2145_fw.png	186.67970848083496	0.6846523284912109
81	108.46026182174683	response	0	j		79.0	/experiments/Knapen_AOT/AOT_stimuli/pictures/2145_fw.png	187.34730696678162	
82	108.47731566429138	picture	0		154	80.0	/experiments/Knapen_AOT/AOT_stimuli/pictures/0871_fw.png	187.36436080932617	1.2847471237182617
82	109.75130295753479	response	0	k		80.0	/experiments/Knapen_AOT/AOT_stimuli/pictures/0871_fw.png	188.63834810256958	
83	109.76206278800964	picture	0		78	81.0	/experiments/Knapen_AOT/AOT_stimuli/pictures/1513_fw.png	188.64910793304443	0.6556391716003418
83	110.40123772621155	response	0	j		81.0	/experiments/Knapen_AOT/AOT_stimuli/pictures/1513_fw.png	189.28828287124634	
84	110.41770195960999	picture	0		290	82.0	/experiments/Knapen_AOT/AOT_stimuli/pictures/2008_fw.png	189.30474710464478	2.4206602573394775
84	112.82625317573547	response	0	j		82.0	/experiments/Knapen_AOT/AOT_stimuli/pictures/2008_fw.png	191.71329832077026	
85	112.83836221694946	picture	0		100	83.0	/experiments/Knapen_AOT/AOT_stimuli/pictures/1428_fw.png	191.72540736198425	0.8377203941345215
85	113.65316247940063	response	0	k		83.0	/experiments/Knapen_AOT/AOT_stimuli/pictures/1428_fw.png	192.54020762443542	
86	113.67608261108398	picture	0		226	84.0	/experiments/Knapen_AOT/AOT_stimuli/pictures/1140_fw.png	192.56312775611877	1.891674280166626
86	115.55131649971008	response	0	k		84.0	/experiments/Knapen_AOT/AOT_stimuli/pictures/1140_fw.png	194.43836164474487	
87	115.56775689125061	picture	0		93	85.0	/experiments/Knapen_AOT/AOT_stimuli/pictures/0501_fw.png	194.4548020362854	0.7833499908447266
87	116.3347954750061	response	0	j		85.0	/experiments/Knapen_AOT/AOT_stimuli/pictures/0501_fw.png	195.2218406200409	
88	116.35110688209534	picture	0		163	86.0	/experiments/Knapen_AOT/AOT_stimuli/pictures/1829_fw.png	195.23815202713013	1.3666939735412598
88	117.70128965377808	response	0	k		86.0	/experiments/Knapen_AOT/AOT_stimuli/pictures/1829_fw.png	196.58833479881287	
89	117.7178008556366	picture	0		143	87.0	/experiments/Knapen_AOT/AOT_stimuli/pictures/1783_fw.png	196.6048460006714	1.200005292892456
89	118.90130567550659	response	0	k		87.0	/experiments/Knapen_AOT/AOT_stimuli/pictures/1783_fw.png	197.78835082054138	
90	118.91780614852905	picture	0		96	88.0	/experiments/Knapen_AOT/AOT_stimuli/pictures/0515_fw.png	197.80485129356384	0.8096377849578857
90	119.70964121818542	response	0	j		88.0	/experiments/Knapen_AOT/AOT_stimuli/pictures/0515_fw.png	198.59668636322021	
91	119.72744393348694	picture	0		159	89.0	/experiments/Knapen_AOT/AOT_stimuli/pictures/1762_fw.png	198.61448907852173	1.332040786743164
91	121.04303550720215	response	0	k		89.0	/experiments/Knapen_AOT/AOT_stimuli/pictures/1762_fw.png	199.93008065223694	
92	121.0594847202301	picture	0		185	90.0	/experiments/Knapen_AOT/AOT_stimuli/pictures/0553_fw.png	199.9465298652649	1.5428893566131592
92	122.59315419197083	response	0	k		90.0	/experiments/Knapen_AOT/AOT_stimuli/pictures/0553_fw.png	201.48019933700562	
93	122.60237407684326	picture	0		196	91.0	/experiments/Knapen_AOT/AOT_stimuli/pictures/0361_fw.png	201.48941922187805	1.6404738426208496
93	124.22638511657715	response	0	k		91.0	/experiments/Knapen_AOT/AOT_stimuli/pictures/0361_fw.png	203.11343026161194	
94	124.24284791946411	picture	0		89	92.0	/experiments/Knapen_AOT/AOT_stimuli/pictures/0096_fw.png	203.1298930644989	0.741652250289917
94	124.97635436058044	response	0	j		92.0	/experiments/Knapen_AOT/AOT_stimuli/pictures/0096_fw.png	203.86339950561523	
95	124.98450016975403	picture	0		99	93.0	/experiments/Knapen_AOT/AOT_stimuli/pictures/1476_fw.png	203.87154531478882	0.8334980010986328
95	125.8014144897461	response	0	k		93.0	/experiments/Knapen_AOT/AOT_stimuli/pictures/1476_fw.png	204.68845963478088	
96	125.81799817085266	picture	0		133	94.0	/experiments/Knapen_AOT/AOT_stimuli/pictures/1936_fw.png	204.70504331588745	1.1165494918823242
96	126.91807460784912	response	0	j		94.0	/experiments/Knapen_AOT/AOT_stimuli/pictures/1936_fw.png	205.8051197528839	
97	126.93454766273499	picture	0		137	95.0	/experiments/Knapen_AOT/AOT_stimuli/pictures/1280_fw.png	205.82159280776978	1.1500084400177002
97	128.06830096244812	response	0	k		95.0	/experiments/Knapen_AOT/AOT_stimuli/pictures/1280_fw.png	206.9553461074829	
98	128.08455610275269	picture	0		148	96.0	/experiments/Knapen_AOT/AOT_stimuli/pictures/2089_fw.png	206.97160124778748	1.2333247661590576
98	129.309796333313	response	0	k		96.0	/experiments/Knapen_AOT/AOT_stimuli/pictures/2089_fw.png	208.19684147834778	
99	129.31788086891174	picture	0		93	97.0	/experiments/Knapen_AOT/AOT_stimuli/pictures/0530_fw.png	208.20492601394653	0.7833456993103027
99	130.08477067947388	response	0	j		97.0	/experiments/Knapen_AOT/AOT_stimuli/pictures/0530_fw.png	208.97181582450867	
100	130.10122656822205	picture	0		88	98.0	/experiments/Knapen_AOT/AOT_stimuli/pictures/1179_fw.png	208.98827171325684	0.7417421340942383
100	130.82647919654846	response	0	j		98.0	/experiments/Knapen_AOT/AOT_stimuli/pictures/1179_fw.png	209.71352434158325	
101	130.84296870231628	picture	0		165	99.0	/experiments/Knapen_AOT/AOT_stimuli/pictures/0766_fw.png	209.73001384735107	1.3774585723876953
101	132.20980262756348	response	0	j		99.0	/experiments/Knapen_AOT/AOT_stimuli/pictures/0766_fw.png	211.09684777259827	
102	132.22042727470398	picture	0		135	100.0	/experiments/Knapen_AOT/AOT_stimuli/pictures/0527_fw.png	211.10747241973877	1.1308581829071045
102	133.33497953414917	response	0	j		100.0	/experiments/Knapen_AOT/AOT_stimuli/pictures/0527_fw.png	212.22202467918396	
103	133.35128545761108	picture	0		278	101.0	/experiments/Knapen_AOT/AOT_stimuli/pictures/2174_fw.png	212.23833060264587	2.320605993270874
103	135.65218806266785	response	0	k		101.0	/experiments/Knapen_AOT/AOT_stimuli/pictures/2174_fw.png	214.53923320770264	
104	135.67189145088196	picture	0		119	102.0	/experiments/Knapen_AOT/AOT_stimuli/pictures/1764_fw.png	214.55893659591675	1.0045018196105957
104	136.66026043891907	response	0	k		102.0	/experiments/Knapen_AOT/AOT_stimuli/pictures/1764_fw.png	215.54730558395386	
105	136.67639327049255	picture	0		115	103.0	/experiments/Knapen_AOT/AOT_stimuli/pictures/0670_fw.png	215.56343841552734	0.9666202068328857
105	137.62659859657288	response	0	k		103.0	/experiments/Knapen_AOT/AOT_stimuli/pictures/0670_fw.png	216.51364374160767	
106	137.64301347732544	picture	0		164	104.0	/experiments/Knapen_AOT/AOT_stimuli/pictures/1914_fw.png	216.53005862236023	1.3750238418579102
106	139.00152373313904	response	0	k		104.0	/experiments/Knapen_AOT/AOT_stimuli/pictures/1914_fw.png	217.88856887817383	
107	139.01803731918335	picture	0		92	105.0	/experiments/Knapen_AOT/AOT_stimuli/pictures/0229_fw.png	217.90508246421814	0.7750146389007568
107	139.77653455734253	response	0	j		105.0	/experiments/Knapen_AOT/AOT_stimuli/pictures/0229_fw.png	218.66357970237732	
108	139.7930519580841	picture	0		178	106.0	/experiments/Knapen_AOT/AOT_stimuli/pictures/0461_fw.png	218.6800971031189	1.483304500579834
108	141.26828742027283	response	0	k		106.0	/experiments/Knapen_AOT/AOT_stimuli/pictures/0461_fw.png	220.15533256530762	
109	141.27635645866394	picture	0		239	107.0	/experiments/Knapen_AOT/AOT_stimuli/pictures/0957_fw.png	220.16340160369873	2.0000479221343994
109	143.25227236747742	response	0	k		107.0	/experiments/Knapen_AOT/AOT_stimuli/pictures/0957_fw.png	222.1393175125122	
110	143.27640438079834	picture	0		86	108.0	/experiments/Knapen_AOT/AOT_stimuli/pictures/1145_fw.png	222.16344952583313	0.7220032215118408
110	143.9849190711975	response	0	j		108.0	/experiments/Knapen_AOT/AOT_stimuli/pictures/1145_fw.png	222.8719642162323	
111	143.99840760231018	picture	0		167	109.0	/experiments/Knapen_AOT/AOT_stimuli/pictures/1526_fw.png	222.88545274734497	1.403057336807251
111	145.38499760627747	response	0	j		109.0	/experiments/Knapen_AOT/AOT_stimuli/pictures/1526_fw.png	224.27204275131226	
112	145.40146493911743	picture	0		154	110.0	/experiments/Knapen_AOT/AOT_stimuli/pictures/0639_fw.png	224.28851008415222	1.2916393280029297
112	146.67668056488037	response	0	k		110.0	/experiments/Knapen_AOT/AOT_stimuli/pictures/0639_fw.png	225.56372570991516	
113	146.69310426712036	picture	0		131	111.0	/experiments/Knapen_AOT/AOT_stimuli/pictures/0091_fw.png	225.58014941215515	1.1000611782073975
113	147.77661418914795	response	0	k		111.0	/experiments/Knapen_AOT/AOT_stimuli/pictures/0091_fw.png	226.66365933418274	
114	147.79316544532776	picture	0		165	112.0	/experiments/Knapen_AOT/AOT_stimuli/pictures/0030_fw.png	226.68021059036255	1.3787648677825928
114	149.16000151634216	response	0	k		112.0	/experiments/Knapen_AOT/AOT_stimuli/pictures/0030_fw.png	228.04704666137695	
115	149.17193031311035	picture	0		89	113.0	/experiments/Knapen_AOT/AOT_stimuli/pictures/0616_fw.png	228.05897545814514	0.7431595325469971
115	149.90164804458618	response	0	j		113.0	/experiments/Knapen_AOT/AOT_stimuli/pictures/0616_fw.png	228.78869318962097	
116	149.91508984565735	picture	0		421	114.0	/experiments/Knapen_AOT/AOT_stimuli/pictures/1126_fw.png	228.80213499069214	3.638819694519043
116	153.54336380958557	response	0	j		114.0	/experiments/Knapen_AOT/AOT_stimuli/pictures/1126_fw.png	232.43040895462036	
117	153.5539095401764	picture	0		242	115.0	/experiments/Knapen_AOT/AOT_stimuli/pictures/0941_fw.png	232.44095468521118	2.0226776599884033
117	155.56027340888977	response	0	k		115.0	/experiments/Knapen_AOT/AOT_stimuli/pictures/0941_fw.png	234.44731855392456	
118	155.5765872001648	picture	0		86	116.0	/experiments/Knapen_AOT/AOT_stimuli/pictures/1839_fw.png	234.46363234519958	0.7250328063964844
118	156.28533387184143	response	0	j		116.0	/experiments/Knapen_AOT/AOT_stimuli/pictures/1839_fw.png	235.17237901687622	
119	156.30162000656128	picture	0		170	117.0	/experiments/Knapen_AOT/AOT_stimuli/pictures/0846_fw.png	235.18866515159607	1.4189748764038086
119	157.7101023197174	response	0	k		117.0	/experiments/Knapen_AOT/AOT_stimuli/pictures/0846_fw.png	236.5971474647522	
120	157.7205948829651	picture	0		136	118.0	/experiments/Knapen_AOT/AOT_stimuli/pictures/1483_fw.png	236.60764002799988	1.139328956604004
120	158.8370864391327	response	0	k		118.0	/experiments/Knapen_AOT/AOT_stimuli/pictures/1483_fw.png	237.72413158416748	
121	158.8599238395691	picture	0		462	119.0	/experiments/Knapen_AOT/AOT_stimuli/pictures/0722_fw.png	237.74696898460388	3.8584165573120117
121	162.70197463035583	response	0	k		119.0	/experiments/Knapen_AOT/AOT_stimuli/pictures/0722_fw.png	241.58901977539062	
122	162.7183403968811	picture	0		102	120.0	/experiments/Knapen_AOT/AOT_stimuli/pictures/0110_fw.png	241.6053855419159	0.8582959175109863
122	163.5612223148346	response	0	j		120.0	/experiments/Knapen_AOT/AOT_stimuli/pictures/0110_fw.png	242.44826745986938	
123	163.5766363143921	picture	0		115	121.0	/experiments/Knapen_AOT/AOT_stimuli/pictures/1154_fw.png	242.46368145942688	0.966677188873291
123	164.52682852745056	response	0	k		121.0	/experiments/Knapen_AOT/AOT_stimuli/pictures/1154_fw.png	243.41387367248535	
124	164.54331350326538	picture	0		87	122.0	/experiments/Knapen_AOT/AOT_stimuli/pictures/1664_fw.png	243.43035864830017	0.7260267734527588
124	165.26021146774292	response	0	j		122.0	/experiments/Knapen_AOT/AOT_stimuli/pictures/1664_fw.png	244.1472566127777	
125	165.26934027671814	picture	0		234	123.0	/experiments/Knapen_AOT/AOT_stimuli/pictures/0369_fw.png	244.15638542175293	1.9513065814971924
125	167.21019291877747	response	0	j		123.0	/experiments/Knapen_AOT/AOT_stimuli/pictures/0369_fw.png	246.09723806381226	
126	167.22064685821533	picture	0		156	124.0	/experiments/Knapen_AOT/AOT_stimuli/pictures/1765_fw.png	246.10769200325012	1.2987008094787598
126	168.51023483276367	response	0	j		124.0	/experiments/Knapen_AOT/AOT_stimuli/pictures/1765_fw.png	247.39727997779846	
127	168.5193476676941	picture	0		197	125.0	/experiments/Knapen_AOT/AOT_stimuli/pictures/0655_fw.png	247.40639281272888	1.6490380764007568
127	170.15192031860352	response	0	k		125.0	/experiments/Knapen_AOT/AOT_stimuli/pictures/0655_fw.png	249.0389654636383	
128	170.16838574409485	picture	0		213	126.0	/experiments/Knapen_AOT/AOT_stimuli/pictures/1700_fw.png	249.05543088912964	1.781527042388916
128	171.93526339530945	response	0	k		126.0	/experiments/Knapen_AOT/AOT_stimuli/pictures/1700_fw.png	250.82230854034424	
129	171.94991278648376	picture	0		225	127.0	/experiments/Knapen_AOT/AOT_stimuli/pictures/0102_fw.png	250.83695793151855	1.8819129467010498
129	173.8186056613922	response	0	k		127.0	/experiments/Knapen_AOT/AOT_stimuli/pictures/0102_fw.png	252.705650806427	
130	173.83182573318481	picture	0		147	128.0	/experiments/Knapen_AOT/AOT_stimuli/pictures/0666_fw.png	252.7188708782196	1.2365987300872803
130	175.0443708896637	response	0	k		128.0	/experiments/Knapen_AOT/AOT_stimuli/pictures/0666_fw.png	253.9314160346985	
131	175.0684244632721	picture	0		113	129.0	/experiments/Knapen_AOT/AOT_stimuli/pictures/1854_fw.png	253.95546960830688	0.9440350532531738
131	176.001971244812	response	0	j		129.0	/experiments/Knapen_AOT/AOT_stimuli/pictures/1854_fw.png	254.8890163898468	
132	176.01245951652527	picture	0		100	130.0	/experiments/Knapen_AOT/AOT_stimuli/pictures/1356_fw.png	254.89950466156006	0.8333971500396729
132	176.83540773391724	response	0	j		130.0	/experiments/Knapen_AOT/AOT_stimuli/pictures/1356_fw.png	255.72245287895203	
133	176.84585666656494	picture	0		83	131.0	/experiments/Knapen_AOT/AOT_stimuli/pictures/0698_fw.png	255.73290181159973	0.6976542472839355
133	177.52697157859802	response	0	j		131.0	/experiments/Knapen_AOT/AOT_stimuli/pictures/0698_fw.png	256.4140167236328	
134	177.54351091384888	picture	0		336	132.0	/experiments/Knapen_AOT/AOT_stimuli/pictures/0965_fw.png	256.43055605888367	2.808401584625244
134	180.33534145355225	response	0	k		132.0	/experiments/Knapen_AOT/AOT_stimuli/pictures/0965_fw.png	259.22238659858704	
135	180.35191249847412	picture	0		169	133.0	/experiments/Knapen_AOT/AOT_stimuli/pictures/1164_fw.png	259.2389576435089	1.4166247844696045
135	181.75209498405457	response	0	k		133.0	/experiments/Knapen_AOT/AOT_stimuli/pictures/1164_fw.png	260.63914012908936	
136	181.76853728294373	picture	0		210	134.0	/experiments/Knapen_AOT/AOT_stimuli/pictures/2034_fw.png	260.6555824279785	1.7508156299591064
136	183.51033544540405	response	0	k		134.0	/experiments/Knapen_AOT/AOT_stimuli/pictures/2034_fw.png	262.39738059043884	
137	183.51935291290283	picture	0		89	135.0	/experiments/Knapen_AOT/AOT_stimuli/pictures/0584_fw.png	262.4063980579376	0.7492401599884033
137	184.24429488182068	response	0	j		135.0	/experiments/Knapen_AOT/AOT_stimuli/pictures/0584_fw.png	263.13134002685547	
138	184.26859307289124	picture	0		84	136.0	/experiments/Knapen_AOT/AOT_stimuli/pictures/0034_fw.png	263.155638217926	0.7083277702331543
138	184.9604308605194	response	0	j		136.0	/experiments/Knapen_AOT/AOT_stimuli/pictures/0034_fw.png	263.8474760055542	
139	184.9769208431244	picture	0		601	137.0	/experiments/Knapen_AOT/AOT_stimuli/pictures/1077_fw.png	263.8639659881592	5.016721963882446
139	189.97714352607727	response	0	k		137.0	/experiments/Knapen_AOT/AOT_stimuli/pictures/1077_fw.png	268.86418867111206	
140	189.99364280700684	picture	0		110	138.0	/experiments/Knapen_AOT/AOT_stimuli/pictures/0172_fw.png	268.8806879520416	0.9216940402984619
140	190.9021236896515	response	0	j		138.0	/experiments/Knapen_AOT/AOT_stimuli/pictures/0172_fw.png	269.7891688346863	
141	190.9153368473053	picture	0		202	139.0	/experiments/Knapen_AOT/AOT_stimuli/pictures/1803_fw.png	269.8023819923401	1.6949920654296875
141	192.59388780593872	response	0	j		139.0	/experiments/Knapen_AOT/AOT_stimuli/pictures/1803_fw.png	271.4809329509735	
142	192.61032891273499	picture	0		112	140.0	/experiments/Knapen_AOT/AOT_stimuli/pictures/1902_fw.png	271.4973740577698	0.9369831085205078
142	193.53552651405334	response	0	k		140.0	/experiments/Knapen_AOT/AOT_stimuli/pictures/1902_fw.png	272.42257165908813	
143	193.5473120212555	picture	0		77	141.0	/experiments/Knapen_AOT/AOT_stimuli/pictures/0927_fw.png	272.4343571662903	0.6463615894317627
143	194.1774182319641	response	0	j		141.0	/experiments/Knapen_AOT/AOT_stimuli/pictures/0927_fw.png	273.0644633769989	
144	194.19367361068726	picture	0		142	142.0	/experiments/Knapen_AOT/AOT_stimuli/pictures/1745_fw.png	273.08071875572205	1.187014102935791
144	195.36888480186462	response	0	j		142.0	/experiments/Knapen_AOT/AOT_stimuli/pictures/1745_fw.png	274.2559299468994	
145	195.38068771362305	picture	0		303	143.0	/experiments/Knapen_AOT/AOT_stimuli/pictures/0932_fw.png	274.26773285865784	2.527662992477417
145	197.89391326904297	response	0	k		143.0	/experiments/Knapen_AOT/AOT_stimuli/pictures/0932_fw.png	276.78095841407776	
146	197.90835070610046	picture	0		108	144.0	/experiments/Knapen_AOT/AOT_stimuli/pictures/0271_fw.png	276.79539585113525	0.9103503227233887
146	198.80221486091614	response	0	k		144.0	/experiments/Knapen_AOT/AOT_stimuli/pictures/0271_fw.png	277.6892600059509	
147	198.81870102882385	picture	0		217	145.0	/experiments/Knapen_AOT/AOT_stimuli/pictures/1880_fw.png	277.70574617385864	1.8118867874145508
147	200.61907768249512	response	0	j		145.0	/experiments/Knapen_AOT/AOT_stimuli/pictures/1880_fw.png	279.5061228275299	
148	200.6305878162384	picture	0		151	146.0	/experiments/Knapen_AOT/AOT_stimuli/pictures/1865_fw.png	279.5176329612732	1.2631824016571045
148	201.8773488998413	response	0	k		146.0	/experiments/Knapen_AOT/AOT_stimuli/pictures/1865_fw.png	280.7643940448761	
149	201.8937702178955	picture	0		73	147.0	/experiments/Knapen_AOT/AOT_stimuli/pictures/1242_fw.png	280.7808153629303	0.6166598796844482
149	202.49401831626892	response	0	j		147.0	/experiments/Knapen_AOT/AOT_stimuli/pictures/1242_fw.png	281.3810634613037	
150	202.51043009757996	picture	0		85	148.0	/experiments/Knapen_AOT/AOT_stimuli/pictures/0322_fw.png	281.39747524261475	0.7166695594787598
150	203.2109637260437	response	0	j		148.0	/experiments/Knapen_AOT/AOT_stimuli/pictures/0322_fw.png	282.0980088710785	
151	203.22709965705872	picture	0		513	149.0	/experiments/Knapen_AOT/AOT_stimuli/pictures/0546_fw.png	282.1141448020935	4.278533220291138
151	207.49404430389404	response	0	j		149.0	/experiments/Knapen_AOT/AOT_stimuli/pictures/0546_fw.png	286.38108944892883	
152	207.50563287734985	picture	0		348	150.0	/experiments/Knapen_AOT/AOT_stimuli/pictures/1443_fw.png	286.39267802238464	2.9048852920532227
152	210.39405870437622	response	0	k		150.0	/experiments/Knapen_AOT/AOT_stimuli/pictures/1443_fw.png	289.281103849411	
153	210.41051816940308	picture	0		77	151.0	/experiments/Knapen_AOT/AOT_stimuli/pictures/1937_fw.png	289.29756331443787	0.6500060558319092
153	211.03641271591187	response	0	j		151.0	/experiments/Knapen_AOT/AOT_stimuli/pictures/1937_fw.png	289.92345786094666	
154	211.06052422523499	picture	0		138	152.0	/experiments/Knapen_AOT/AOT_stimuli/pictures/2138_fw.png	289.9475693702698	1.1583640575408936
154	212.2024359703064	response	0	j		152.0	/experiments/Knapen_AOT/AOT_stimuli/pictures/2138_fw.png	291.0894811153412	
155	212.21888828277588	picture	0		332	153.0	/experiments/Knapen_AOT/AOT_stimuli/pictures/0781_fw.png	291.10593342781067	2.77292537689209
155	214.97742772102356	response	0	k		153.0	/experiments/Knapen_AOT/AOT_stimuli/pictures/0781_fw.png	293.86447286605835	
156	214.99181365966797	picture	0		71	154.0	/experiments/Knapen_AOT/AOT_stimuli/pictures/0943_fw.png	293.87885880470276	0.6021182537078857
156	215.57745265960693	response	0	j		154.0	/experiments/Knapen_AOT/AOT_stimuli/pictures/0943_fw.png	294.4644978046417	
157	215.59393191337585	picture	0		96	155.0	/experiments/Knapen_AOT/AOT_stimuli/pictures/2165_fw.png	294.48097705841064	0.8007440567016602
157	216.38575744628906	response	0	j		155.0	/experiments/Knapen_AOT/AOT_stimuli/pictures/2165_fw.png	295.27280259132385	
158	216.39467597007751	picture	0		175	156.0	/experiments/Knapen_AOT/AOT_stimuli/pictures/1447_fw.png	295.2817211151123	1.4659671783447266
158	217.83778524398804	response	0	k		156.0	/experiments/Knapen_AOT/AOT_stimuli/pictures/1447_fw.png	296.7248303890228	
159	217.86064314842224	picture	0		166	157.0	/experiments/Knapen_AOT/AOT_stimuli/pictures/0484_fw.png	296.74768829345703	1.3881416320800781
159	219.22852993011475	response	0	k		157.0	/experiments/Knapen_AOT/AOT_stimuli/pictures/0484_fw.png	298.11557507514954	
160	219.24878478050232	picture	0		172	158.0	/experiments/Knapen_AOT/AOT_stimuli/pictures/0206_fw.png	298.1358299255371	1.453528642654419
160	220.67750597000122	response	0	k		158.0	/experiments/Knapen_AOT/AOT_stimuli/pictures/0206_fw.png	299.564551115036	
161	220.70231342315674	picture	0		104	159.0	/experiments/Knapen_AOT/AOT_stimuli/pictures/0594_fw.png	299.5893585681915	0.875096321105957
161	221.56112360954285	response	0	k		159.0	/experiments/Knapen_AOT/AOT_stimuli/pictures/0594_fw.png	300.44816875457764	
162	221.5774097442627	picture	0		119	160.0	/experiments/Knapen_AOT/AOT_stimuli/pictures/2135_fw.png	300.4644548892975	0.9999573230743408
162	222.5609200000763	response	0	j		160.0	/experiments/Knapen_AOT/AOT_stimuli/pictures/2135_fw.png	301.4479651451111	
163	222.57736706733704	picture	0		89	161.0	/experiments/Knapen_AOT/AOT_stimuli/pictures/1006_fw.png	301.4644122123718	0.7499978542327881
163	223.31100368499756	response	0	j		161.0	/experiments/Knapen_AOT/AOT_stimuli/pictures/1006_fw.png	302.19804883003235	
164	223.32736492156982	picture	0		154	162.0	/experiments/Knapen_AOT/AOT_stimuli/pictures/0065_fw.png	302.2144100666046	1.2896332740783691
164	224.6025664806366	response	0	k		162.0	/experiments/Knapen_AOT/AOT_stimuli/pictures/0065_fw.png	303.4896116256714	
165	224.6169981956482	picture	0		158	163.0	/experiments/Knapen_AOT/AOT_stimuli/pictures/0764_fw.png	303.504043340683	1.3270158767700195
165	225.92758536338806	response	0	k		163.0	/experiments/Knapen_AOT/AOT_stimuli/pictures/0764_fw.png	304.81463050842285	
166	225.9440140724182	picture	0		103	164.0	/experiments/Knapen_AOT/AOT_stimuli/pictures/1777_fw.png	304.831059217453	0.8667271137237549
166	226.79436588287354	response	0	j		164.0	/experiments/Knapen_AOT/AOT_stimuli/pictures/1777_fw.png	305.6814110279083	
167	226.81074118614197	picture	0		163	165.0	/experiments/Knapen_AOT/AOT_stimuli/pictures/1168_fw.png	305.69778633117676	1.3667545318603516
167	228.16094207763672	response	0	k		165.0	/experiments/Knapen_AOT/AOT_stimuli/pictures/1168_fw.png	307.0479872226715	
168	228.17749571800232	picture	0		84	166.0	/experiments/Knapen_AOT/AOT_stimuli/pictures/1951_fw.png	307.0645408630371	0.7033798694610596
168	228.86927390098572	response	0	j		166.0	/experiments/Knapen_AOT/AOT_stimuli/pictures/1951_fw.png	307.7563190460205	
169	228.88087558746338	picture	0		86	167.0	/experiments/Knapen_AOT/AOT_stimuli/pictures/0480_fw.png	307.76792073249817	0.7215375900268555
169	229.5859179496765	response	0	j		167.0	/experiments/Knapen_AOT/AOT_stimuli/pictures/0480_fw.png	308.4729630947113	
170	229.60241317749023	picture	0		268	168.0	/experiments/Knapen_AOT/AOT_stimuli/pictures/0510_fw.png	308.489458322525	2.2417044639587402
170	231.8211386203766	response	0	j		168.0	/experiments/Knapen_AOT/AOT_stimuli/pictures/0510_fw.png	310.7081837654114	
171	231.84411764144897	picture	0		159	169.0	/experiments/Knapen_AOT/AOT_stimuli/pictures/0681_fw.png	310.73116278648376	1.3333487510681152
171	233.16101670265198	response	0	j		169.0	/experiments/Knapen_AOT/AOT_stimuli/pictures/0681_fw.png	312.04806184768677	
172	233.1774663925171	picture	0		115	170.0	/experiments/Knapen_AOT/AOT_stimuli/pictures/1657_fw.png	312.0645115375519	0.9666881561279297
172	234.12778615951538	response	0	j		170.0	/experiments/Knapen_AOT/AOT_stimuli/pictures/1657_fw.png	313.01483130455017	
173	234.14415454864502	picture	0		238	171.0	/experiments/Knapen_AOT/AOT_stimuli/pictures/1253_fw.png	313.0311996936798	1.991666555404663
173	236.1193974018097	response	0	k		171.0	/experiments/Knapen_AOT/AOT_stimuli/pictures/1253_fw.png	315.0064425468445	
174	236.13582110404968	picture	0		85	172.0	/experiments/Knapen_AOT/AOT_stimuli/pictures/2096_fw.png	315.0228662490845	0.7166755199432373
174	236.82844161987305	response	0	j		172.0	/experiments/Knapen_AOT/AOT_stimuli/pictures/2096_fw.png	315.71548676490784	
175	236.85249662399292	picture	0		73	173.0	/experiments/Knapen_AOT/AOT_stimuli/pictures/0813_fw.png	315.7395417690277	0.6117398738861084
175	237.4526972770691	response	0	j		173.0	/experiments/Knapen_AOT/AOT_stimuli/pictures/0813_fw.png	316.3397424221039	
176	237.46423649787903	picture	0		84	174.0	/experiments/Knapen_AOT/AOT_stimuli/pictures/1152_fw.png	316.3512816429138	0.7049639225006104
176	238.1527760028839	response	0	j		174.0	/experiments/Knapen_AOT/AOT_stimuli/pictures/1152_fw.png	317.0398211479187	
177	238.16920042037964	picture	0		152	175.0	/experiments/Knapen_AOT/AOT_stimuli/pictures/0344_fw.png	317.05624556541443	1.2672734260559082
177	239.42077445983887	response	0	k		175.0	/experiments/Knapen_AOT/AOT_stimuli/pictures/0344_fw.png	318.30781960487366	
178	239.43647384643555	picture	0		178	176.0	/experiments/Knapen_AOT/AOT_stimuli/pictures/1787_fw.png	318.32351899147034	1.4910914897918701
178	240.91110229492188	response	0	k		176.0	/experiments/Knapen_AOT/AOT_stimuli/pictures/1787_fw.png	319.79814743995667	
179	240.92756533622742	picture	0		89	177.0	/experiments/Knapen_AOT/AOT_stimuli/pictures/0358_fw.png	319.8146104812622	0.7500860691070557
179	241.66110825538635	response	0	j		177.0	/experiments/Knapen_AOT/AOT_stimuli/pictures/0358_fw.png	320.54815340042114	
180	241.67765140533447	picture	0		164	178.0	/experiments/Knapen_AOT/AOT_stimuli/pictures/0707_fw.png	320.56469655036926	1.374920129776001
180	243.0295386314392	response	0	k		178.0	/experiments/Knapen_AOT/AOT_stimuli/pictures/0707_fw.png	321.916583776474	
181	243.05257153511047	picture	0		101	179.0	/experiments/Knapen_AOT/AOT_stimuli/pictures/2103_fw.png	321.93961668014526	0.8499925136566162
181	243.8861277103424	response	0	k		179.0	/experiments/Knapen_AOT/AOT_stimuli/pictures/2103_fw.png	322.7731728553772	
182	243.9025640487671	picture	0		102	180.0	/experiments/Knapen_AOT/AOT_stimuli/pictures/0869_fw.png	322.7896091938019	0.8583660125732422
182	244.74446034431458	response	0	j		180.0	/experiments/Knapen_AOT/AOT_stimuli/pictures/0869_fw.png	323.63150548934937	
183	244.76093006134033	picture	0		151	181.0	/experiments/Knapen_AOT/AOT_stimuli/pictures/0531_fw.png	323.6479752063751	1.2666847705841064
183	246.0111243724823	response	0	j		181.0	/experiments/Knapen_AOT/AOT_stimuli/pictures/0531_fw.png	324.8981695175171	
184	246.02761483192444	picture	0		115	182.0	/experiments/Knapen_AOT/AOT_stimuli/pictures/0446_fw.png	324.91465997695923	0.9644691944122314
184	246.9777810573578	response	0	k		182.0	/experiments/Knapen_AOT/AOT_stimuli/pictures/0446_fw.png	325.8648262023926	
185	246.99208402633667	picture	0		80	183.0	/experiments/Knapen_AOT/AOT_stimuli/pictures/1871_fw.png	325.87912917137146	0.6736197471618652
185	247.65283703804016	response	0	k		183.0	/experiments/Knapen_AOT/AOT_stimuli/pictures/1871_fw.png	326.53988218307495	
186	247.66570377349854	picture	0		141	184.0	/experiments/Knapen_AOT/AOT_stimuli/pictures/0163_fw.png	326.5527489185333	1.1785852909088135
186	248.82808876037598	response	0	k		184.0	/experiments/Knapen_AOT/AOT_stimuli/pictures/0163_fw.png	327.71513390541077	
187	248.84428906440735	picture	0		119	185.0	/experiments/Knapen_AOT/AOT_stimuli/pictures/0826_fw.png	327.73133420944214	0.9950883388519287
187	249.8278307914734	response	0	j		185.0	/experiments/Knapen_AOT/AOT_stimuli/pictures/0826_fw.png	328.7148759365082	
188	249.83937740325928	picture	0		87	186.0	/experiments/Knapen_AOT/AOT_stimuli/pictures/0865_fw.png	328.72642254829407	0.7299308776855469
188	250.55286502838135	response	0	j		186.0	/experiments/Knapen_AOT/AOT_stimuli/pictures/0865_fw.png	329.43991017341614	
189	250.56930828094482	picture	0		124	187.0	/experiments/Knapen_AOT/AOT_stimuli/pictures/0199_fw.png	329.4563534259796	1.0339372158050537
189	251.5945427417755	response	0	k		187.0	/experiments/Knapen_AOT/AOT_stimuli/pictures/0199_fw.png	330.4815878868103	
190	251.60324549674988	picture	0		133	188.0	/experiments/Knapen_AOT/AOT_stimuli/pictures/2130_fw.png	330.49029064178467	1.1161022186279297
190	252.70306205749512	response	0	j		188.0	/experiments/Knapen_AOT/AOT_stimuli/pictures/2130_fw.png	331.5901072025299	
191	252.7193477153778	picture	0		122	189.0	/experiments/Knapen_AOT/AOT_stimuli/pictures/2136_fw.png	331.6063928604126	1.0250239372253418
191	253.72794032096863	response	0	j		189.0	/experiments/Knapen_AOT/AOT_stimuli/pictures/2136_fw.png	332.6149854660034	
192	253.74437165260315	picture	0		116	190.0	/experiments/Knapen_AOT/AOT_stimuli/pictures/1251_fw.png	332.63141679763794	0.9699878692626953
192	254.70293354988098	response	0	k		190.0	/experiments/Knapen_AOT/AOT_stimuli/pictures/1251_fw.png	333.58997869491577	
193	254.71435952186584	picture	0		475	191.0	/experiments/Knapen_AOT/AOT_stimuli/pictures/2101_fw.png	333.60140466690063	3.9634206295013428
193	258.6613199710846	response	0	k		191.0	/experiments/Knapen_AOT/AOT_stimuli/pictures/2101_fw.png	337.5483651161194	
194	258.6777801513672	picture	0		379	192.0	/experiments/Knapen_AOT/AOT_stimuli/pictures/0339_fw.png	337.564825296402	3.1615307331085205
194	261.8203992843628	response	0	k		192.0	/experiments/Knapen_AOT/AOT_stimuli/pictures/0339_fw.png	340.7074444293976	
195	261.8393108844757	picture	0		984	193.0	/experiments/Knapen_AOT/AOT_stimuli/pictures/1203_fw.png	340.7263560295105	8.205245018005371
195	270.02839040756226	response	0	k		193.0	/experiments/Knapen_AOT/AOT_stimuli/pictures/1203_fw.png	348.91543555259705	
196	270.0445559024811	picture	0		77	194.0	/experiments/Knapen_AOT/AOT_stimuli/pictures/1908_fw.png	348.93160104751587	0.6499955654144287
196	270.67807960510254	response	0	j		194.0	/experiments/Knapen_AOT/AOT_stimuli/pictures/1908_fw.png	349.56512475013733	
197	270.6945514678955	picture	0		124	195.0	/experiments/Knapen_AOT/AOT_stimuli/pictures/1732_fw.png	349.5815966129303	1.0416762828826904
197	271.7197895050049	response	0	j		195.0	/experiments/Knapen_AOT/AOT_stimuli/pictures/1732_fw.png	350.6068346500397	
198	271.7362277507782	picture	0		124	196.0	/experiments/Knapen_AOT/AOT_stimuli/pictures/0746_fw.png	350.623272895813	1.0416808128356934
198	272.76144003868103	response	0	k		196.0	/experiments/Knapen_AOT/AOT_stimuli/pictures/0746_fw.png	351.6484851837158	
199	272.7779085636139	picture	0		107	197.0	/experiments/Knapen_AOT/AOT_stimuli/pictures/1057_fw.png	351.6649537086487	0.9000532627105713
199	273.66149520874023	response	0	j		197.0	/experiments/Knapen_AOT/AOT_stimuli/pictures/1057_fw.png	352.548540353775	
200	273.67796182632446	picture	0		85	198.0	/experiments/Knapen_AOT/AOT_stimuli/pictures/1382_fw.png	352.56500697135925	0.7166917324066162
200	274.3782043457031	response	0	j		198.0	/experiments/Knapen_AOT/AOT_stimuli/pictures/1382_fw.png	353.2652494907379	
201	274.3946535587311	picture	0		112	199.0	/experiments/Knapen_AOT/AOT_stimuli/pictures/2090_fw.png	353.28169870376587	0.9416577816009521
201	275.31976556777954	response	0	k		199.0	/experiments/Knapen_AOT/AOT_stimuli/pictures/2090_fw.png	354.20681071281433	
202	275.33631134033203	picture	0		120	200.0	/experiments/Knapen_AOT/AOT_stimuli/pictures/1059_fw.png	354.2233564853668	1.0083017349243164
202	276.3281328678131	response	0	j		200.0	/experiments/Knapen_AOT/AOT_stimuli/pictures/1059_fw.png	355.2151780128479	
203	276.34461307525635	picture	0		73	201.0	/experiments/Knapen_AOT/AOT_stimuli/pictures/1661_fw.png	355.23165822029114	0.6167359352111816
203	276.94485878944397	response	0	j		201.0	/experiments/Knapen_AOT/AOT_stimuli/pictures/1661_fw.png	355.83190393447876	
204	276.96134901046753	picture	0		168	202.0	/experiments/Knapen_AOT/AOT_stimuli/pictures/1211_fw.png	355.8483941555023	1.4084079265594482
204	278.3531892299652	response	0	j		202.0	/experiments/Knapen_AOT/AOT_stimuli/pictures/1211_fw.png	357.240234375	
205	278.369756937027	picture	0		147	203.0	/experiments/Knapen_AOT/AOT_stimuli/pictures/0692_fw.png	357.25680208206177	1.2332417964935303
205	279.5865318775177	response	0	j		203.0	/experiments/Knapen_AOT/AOT_stimuli/pictures/0692_fw.png	358.4735770225525	
206	279.6029987335205	picture	0		91	204.0	/experiments/Knapen_AOT/AOT_stimuli/pictures/1682_fw.png	358.4900438785553	0.76434326171875
206	280.3532431125641	response	0	j		204.0	/experiments/Knapen_AOT/AOT_stimuli/pictures/1682_fw.png	359.2402882575989	
207	280.36734199523926	picture	0		320	205.0	/experiments/Knapen_AOT/AOT_stimuli/pictures/1864_fw.png	359.25438714027405	2.673541784286499
207	283.02830028533936	response	0	j		205.0	/experiments/Knapen_AOT/AOT_stimuli/pictures/1864_fw.png	361.91534543037415	
208	283.04088377952576	picture	0		83	206.0	/experiments/Knapen_AOT/AOT_stimuli/pictures/1322_fw.png	361.92792892456055	0.7038321495056152
208	283.728280544281	response	0	k		206.0	/experiments/Knapen_AOT/AOT_stimuli/pictures/1322_fw.png	362.6153256893158	
209	283.7447159290314	picture	0		101	207.0	/experiments/Knapen_AOT/AOT_stimuli/pictures/0316_fw.png	362.63176107406616	0.8499858379364014
209	284.5783486366272	response	0	j		207.0	/experiments/Knapen_AOT/AOT_stimuli/pictures/0316_fw.png	363.465393781662	
210	284.5947017669678	picture	0		155	208.0	/experiments/Knapen_AOT/AOT_stimuli/pictures/0454_fw.png	363.48174691200256	1.2934749126434326
210	285.87832617759705	response	0	k		208.0	/experiments/Knapen_AOT/AOT_stimuli/pictures/0454_fw.png	364.76537132263184	
211	285.8881766796112	picture	0		82	209.0	/experiments/Knapen_AOT/AOT_stimuli/pictures/0680_fw.png	364.775221824646	0.6899001598358154
211	286.56158924102783	response	0	j		209.0	/experiments/Knapen_AOT/AOT_stimuli/pictures/0680_fw.png	365.4486343860626	
212	286.578076839447	picture	0		118	210.0	/experiments/Knapen_AOT/AOT_stimuli/pictures/1475_fw.png	365.4651219844818	0.9916715621948242
212	287.55326437950134	response	0	j		210.0	/experiments/Knapen_AOT/AOT_stimuli/pictures/1475_fw.png	366.44030952453613	
213	287.56974840164185	picture	0		128	211.0	/experiments/Knapen_AOT/AOT_stimuli/pictures/1709_fw.png	366.45679354667664	1.0750548839569092
213	288.62833285331726	response	0	k		211.0	/experiments/Knapen_AOT/AOT_stimuli/pictures/1709_fw.png	367.51537799835205	
214	288.64480328559875	picture	0		126	212.0	/experiments/Knapen_AOT/AOT_stimuli/pictures/0647_fw.png	367.53184843063354	1.0583162307739258
214	289.686687707901	response	0	k		212.0	/experiments/Knapen_AOT/AOT_stimuli/pictures/0647_fw.png	368.5737328529358	
215	289.7031195163727	picture	0		84	213.0	/experiments/Knapen_AOT/AOT_stimuli/pictures/0892_fw.png	368.59016466140747	0.7083733081817627
215	290.3949818611145	response	0	j		213.0	/experiments/Knapen_AOT/AOT_stimuli/pictures/0892_fw.png	369.2820270061493	
216	290.41149282455444	picture	0		295	214.0	/experiments/Knapen_AOT/AOT_stimuli/pictures/0070_fw.png	369.29853796958923	2.4627556800842285
216	292.86167097091675	response	0	j		214.0	/experiments/Knapen_AOT/AOT_stimuli/pictures/0070_fw.png	371.74871611595154	
217	292.8742485046387	picture	0		115	215.0	/experiments/Knapen_AOT/AOT_stimuli/pictures/0179_fw.png	371.76129364967346	0.9584174156188965
217	293.81243419647217	response	0	j		215.0	/experiments/Knapen_AOT/AOT_stimuli/pictures/0179_fw.png	372.69947934150696	
218	293.83266592025757	picture	0		161	216.0	/experiments/Knapen_AOT/AOT_stimuli/pictures/0793_fw.png	372.71971106529236	1.3541007041931152
218	295.17031955718994	response	0	k		216.0	/experiments/Knapen_AOT/AOT_stimuli/pictures/0793_fw.png	374.05736470222473	
219	295.1867666244507	picture	0		90	217.0	/experiments/Knapen_AOT/AOT_stimuli/pictures/1399_fw.png	374.0738117694855	0.7502200603485107
219	295.92836689949036	response	0	j		217.0	/experiments/Knapen_AOT/AOT_stimuli/pictures/1399_fw.png	374.81541204452515	
220	295.9369866847992	picture	0		129	218.0	/experiments/Knapen_AOT/AOT_stimuli/pictures/0635_fw.png	374.824031829834	1.0828938484191895
220	297.00344157218933	response	0	k		218.0	/experiments/Knapen_AOT/AOT_stimuli/pictures/0635_fw.png	375.8904867172241	
221	297.0198805332184	picture	0		84	219.0	/experiments/Knapen_AOT/AOT_stimuli/pictures/0189_fw.png	375.9069256782532	0.7083439826965332
221	297.71173548698425	response	0	j		219.0	/experiments/Knapen_AOT/AOT_stimuli/pictures/0189_fw.png	376.59878063201904	
222	297.7282245159149	picture	0		97	220.0	/experiments/Knapen_AOT/AOT_stimuli/pictures/2038_fw.png	376.6152696609497	0.8128273487091064
222	298.5283844470978	response	0	j		220.0	/experiments/Knapen_AOT/AOT_stimuli/pictures/2038_fw.png	377.41542959213257	
223	298.541051864624	picture	0		113	221.0	/experiments/Knapen_AOT/AOT_stimuli/pictures/1695_fw.png	377.4280970096588	0.9538624286651611
223	299.4784297943115	response	0	j		221.0	/experiments/Knapen_AOT/AOT_stimuli/pictures/1695_fw.png	378.3654749393463	
224	299.4949142932892	picture	0		98	222.0	/experiments/Knapen_AOT/AOT_stimuli/pictures/1542_fw.png	378.381959438324	0.8169658184051514
224	300.3034987449646	response	0	k		222.0	/experiments/Knapen_AOT/AOT_stimuli/pictures/1542_fw.png	379.1905438899994	
225	300.31188011169434	picture	0		90	223.0	/experiments/Knapen_AOT/AOT_stimuli/pictures/0522_fw.png	379.1989252567291	0.7499918937683105
225	301.0534255504608	response	0	k		223.0	/experiments/Knapen_AOT/AOT_stimuli/pictures/0522_fw.png	379.9404706954956	
226	301.06187200546265	picture	0		107	224.0	/experiments/Knapen_AOT/AOT_stimuli/pictures/1383_fw.png	379.94891715049744	0.8997085094451904
226	301.9453589916229	response	0	j		224.0	/experiments/Knapen_AOT/AOT_stimuli/pictures/1383_fw.png	380.8324041366577	
227	301.96158051490784	picture	0		128	225.0	/experiments/Knapen_AOT/AOT_stimuli/pictures/1737_fw.png	380.8486256599426	1.0750255584716797
227	303.0204727649689	response	0	k		225.0	/experiments/Knapen_AOT/AOT_stimuli/pictures/1737_fw.png	381.90751791000366	
228	303.0366060733795	picture	0		92	226.0	/experiments/Knapen_AOT/AOT_stimuli/pictures/2044_fw.png	381.9236512184143	0.7750113010406494
228	303.79537081718445	response	0	j		226.0	/experiments/Knapen_AOT/AOT_stimuli/pictures/2044_fw.png	382.68241596221924	
229	303.81161737442017	picture	0		164	227.0	/experiments/Knapen_AOT/AOT_stimuli/pictures/0302_fw.png	382.69866251945496	1.3750419616699219
229	305.1701400279999	response	0	k		227.0	/experiments/Knapen_AOT/AOT_stimuli/pictures/0302_fw.png	384.05718517303467	
230	305.1866593360901	picture	0		141	228.0	/experiments/Knapen_AOT/AOT_stimuli/pictures/0953_fw.png	384.0737044811249	1.183347463607788
230	306.3535141944885	response	0	j		228.0	/experiments/Knapen_AOT/AOT_stimuli/pictures/0953_fw.png	385.2405593395233	
231	306.3700067996979	picture	0		1667	229.0	/experiments/Knapen_AOT/AOT_stimuli/pictures/0511_fw.png	385.25705194473267	11.072388172149658
231	317.4258785247803	response	0	j		229.0	/experiments/Knapen_AOT/AOT_stimuli/pictures/0511_fw.png	396.31292366981506	
232	317.44239497184753	picture	0		130	230.0	/experiments/Knapen_AOT/AOT_stimuli/pictures/1113_fw.png	396.3294401168823	1.0916364192962646
232	318.51752734184265	response	0	k		230.0	/experiments/Knapen_AOT/AOT_stimuli/pictures/1113_fw.png	397.40457248687744	
233	318.5340313911438	picture	0		88	231.0	/experiments/Knapen_AOT/AOT_stimuli/pictures/0712_fw.png	397.4210765361786	0.7417247295379639
233	319.2592225074768	response	0	j		231.0	/experiments/Knapen_AOT/AOT_stimuli/pictures/0712_fw.png	398.1462676525116	
234	319.27575612068176	picture	0		82	232.0	/experiments/Knapen_AOT/AOT_stimuli/pictures/0674_fw.png	398.16280126571655	0.6916687488555908
234	319.95088362693787	response	0	j		232.0	/experiments/Knapen_AOT/AOT_stimuli/pictures/0674_fw.png	398.83792877197266	
235	319.96742486953735	picture	0		109	233.0	/experiments/Knapen_AOT/AOT_stimuli/pictures/1370_fw.png	398.85447001457214	0.9126613140106201
235	320.8675196170807	response	0	j		233.0	/experiments/Knapen_AOT/AOT_stimuli/pictures/1370_fw.png	399.7545647621155	
236	320.880086183548	picture	0		87	234.0	/experiments/Knapen_AOT/AOT_stimuli/pictures/0905_fw.png	399.76713132858276	0.7290301322937012
236	321.5929009914398	response	0	j		234.0	/experiments/Knapen_AOT/AOT_stimuli/pictures/0905_fw.png	400.4799461364746	
237	321.6091163158417	picture	0		96	235.0	/experiments/Knapen_AOT/AOT_stimuli/pictures/2114_fw.png	400.49616146087646	0.8083133697509766
237	322.4009597301483	response	0	j		235.0	/experiments/Knapen_AOT/AOT_stimuli/pictures/2114_fw.png	401.2880048751831	
238	322.41742968559265	picture	0		833	236.0	/experiments/Knapen_AOT/AOT_stimuli/pictures/1069_fw.png	401.30447483062744	6.950145244598389
238	329.3510491847992	response	0	k		236.0	/experiments/Knapen_AOT/AOT_stimuli/pictures/1069_fw.png	408.238094329834	
239	329.36757493019104	picture	0		101	237.0	/experiments/Knapen_AOT/AOT_stimuli/pictures/0591_fw.png	408.25462007522583	0.8458840847015381
239	330.2010486125946	response	0	k		237.0	/experiments/Knapen_AOT/AOT_stimuli/pictures/0591_fw.png	409.0880937576294	
240	330.2134590148926	picture	0		85	238.0	/experiments/Knapen_AOT/AOT_stimuli/pictures/0352_fw.png	409.10050415992737	0.7083795070648193
240	330.90936255455017	response	0	j		238.0	/experiments/Knapen_AOT/AOT_stimuli/pictures/0352_fw.png	409.79640769958496	
241	330.9218385219574	picture	0		76	239.0	/experiments/Knapen_AOT/AOT_stimuli/pictures/1191_fw.png	409.8088836669922	0.6373729705810547
241	331.5427839756012	response	0	j		239.0	/experiments/Knapen_AOT/AOT_stimuli/pictures/1191_fw.png	410.429829120636	
242	331.55921149253845	picture	0		179	240.0	/experiments/Knapen_AOT/AOT_stimuli/pictures/1985_fw.png	410.44625663757324	1.5000433921813965
242	333.0427339076996	response	0	j		240.0	/experiments/Knapen_AOT/AOT_stimuli/pictures/1985_fw.png	411.9297790527344	
243	333.05925488471985	picture	0		85	241.0	/experiments/Knapen_AOT/AOT_stimuli/pictures/2004_fw.png	411.94630002975464	0.7167205810546875
243	333.7594974040985	response	0	k		241.0	/experiments/Knapen_AOT/AOT_stimuli/pictures/2004_fw.png	412.6465425491333	
244	333.77597546577454	picture	0		103	242.0	/experiments/Knapen_AOT/AOT_stimuli/pictures/0119_fw.png	412.6630206108093	0.8665952682495117
244	334.62617111206055	response	0	k		242.0	/experiments/Knapen_AOT/AOT_stimuli/pictures/0119_fw.png	413.51321625709534	
245	334.64257073402405	picture	0		80	243.0	/experiments/Knapen_AOT/AOT_stimuli/pictures/1437_fw.png	413.52961587905884	0.6750168800354004
245	335.30108857154846	response	0	j		243.0	/experiments/Knapen_AOT/AOT_stimuli/pictures/1437_fw.png	414.18813371658325	
246	335.31758761405945	picture	0		523	244.0	/experiments/Knapen_AOT/AOT_stimuli/pictures/2029_fw.png	414.20463275909424	4.366715431213379
246	339.6678247451782	response	0	k		244.0	/experiments/Knapen_AOT/AOT_stimuli/pictures/2029_fw.png	418.554869890213	
247	339.6843030452728	picture	0		114	245.0	/experiments/Knapen_AOT/AOT_stimuli/pictures/0765_fw.png	418.5713481903076	0.9583311080932617
247	340.6262090206146	response	0	j		245.0	/experiments/Knapen_AOT/AOT_stimuli/pictures/0765_fw.png	419.5132541656494	
248	340.6426341533661	picture	0		101	246.0	/experiments/Knapen_AOT/AOT_stimuli/pictures/1780_fw.png	419.5296792984009	0.8500268459320068
248	341.4762427806854	response	0	k		246.0	/experiments/Knapen_AOT/AOT_stimuli/pictures/1780_fw.png	420.3632879257202	
249	341.4926609992981	picture	0		91	247.0	/experiments/Knapen_AOT/AOT_stimuli/pictures/1532_fw.png	420.3797061443329	0.7666904926300049
249	342.2428560256958	response	0	j		247.0	/experiments/Knapen_AOT/AOT_stimuli/pictures/1532_fw.png	421.1299011707306	
250	342.2593514919281	picture	0		95	248.0	/experiments/Knapen_AOT/AOT_stimuli/pictures/0598_fw.png	421.1463966369629	0.7999904155731201
250	343.0428581237793	response	0	j		248.0	/experiments/Knapen_AOT/AOT_stimuli/pictures/0598_fw.png	421.9299032688141	
251	343.0593419075012	picture	0		271	249.0	/experiments/Knapen_AOT/AOT_stimuli/pictures/0843_fw.png	421.946387052536	2.266704559326172
251	345.3096122741699	response	0	j		249.0	/experiments/Knapen_AOT/AOT_stimuli/pictures/0843_fw.png	424.1966574192047	
252	345.3260464668274	picture	0		106	250.0	/experiments/Knapen_AOT/AOT_stimuli/pictures/0382_fw.png	424.2130916118622	0.8916866779327393
252	346.20123744010925	response	0	k		250.0	/experiments/Knapen_AOT/AOT_stimuli/pictures/0382_fw.png	425.08828258514404	
253	346.21773314476013	picture	0		114	251.0	/experiments/Knapen_AOT/AOT_stimuli/pictures/0308_fw.png	425.1047782897949	0.9541947841644287
253	347.1533856391907	response	0	k		251.0	/experiments/Knapen_AOT/AOT_stimuli/pictures/0308_fw.png	426.04043078422546	
254	347.17192792892456	picture	0		207	252.0	/experiments/Knapen_AOT/AOT_stimuli/pictures/1845_fw.png	426.05897307395935	1.7374753952026367
254	348.89291548728943	response	0	j		252.0	/experiments/Knapen_AOT/AOT_stimuli/pictures/1845_fw.png	427.7799606323242	
255	348.9094033241272	picture	0		340	253.0	/experiments/Knapen_AOT/AOT_stimuli/pictures/0556_fw.png	427.796448469162	2.8417093753814697
255	351.7346205711365	response	0	k		253.0	/experiments/Knapen_AOT/AOT_stimuli/pictures/0556_fw.png	430.62166571617126	
256	351.75111269950867	picture	0		77	254.0	/experiments/Knapen_AOT/AOT_stimuli/pictures/0599_fw.png	430.63815784454346	0.6500933170318604
256	352.37811517715454	response	0	j		254.0	/experiments/Knapen_AOT/AOT_stimuli/pictures/0599_fw.png	431.26516032218933	
257	352.4012060165405	picture	0		291	255.0	/experiments/Knapen_AOT/AOT_stimuli/pictures/1336_fw.png	431.2882511615753	2.4332773685455322
257	354.8180294036865	response	0	k		255.0	/experiments/Knapen_AOT/AOT_stimuli/pictures/1336_fw.png	433.7050745487213	
258	354.83448338508606	picture	0		97	256.0	/experiments/Knapen_AOT/AOT_stimuli/pictures/0816_fw.png	433.72152853012085	0.8167593479156494
258	355.63491129875183	response	0	k		256.0	/experiments/Knapen_AOT/AOT_stimuli/pictures/0816_fw.png	434.5219564437866	
259	355.6512427330017	picture	0		95	257.0	/experiments/Knapen_AOT/AOT_stimuli/pictures/1623_fw.png	434.5382878780365	0.7999422550201416
259	356.43468165397644	response	0	j		257.0	/experiments/Knapen_AOT/AOT_stimuli/pictures/1623_fw.png	435.32172679901123	
260	356.45118498802185	picture	0		91	258.0	/experiments/Knapen_AOT/AOT_stimuli/pictures/2152_fw.png	435.33823013305664	0.7667026519775391
260	357.2014434337616	response	0	j		258.0	/experiments/Knapen_AOT/AOT_stimuli/pictures/2152_fw.png	436.0884885787964	
261	357.2178876399994	picture	0		85	259.0	/experiments/Knapen_AOT/AOT_stimuli/pictures/1945_fw.png	436.1049327850342	0.7166390419006348
261	357.9183931350708	response	0	j		259.0	/experiments/Knapen_AOT/AOT_stimuli/pictures/1945_fw.png	436.8054382801056	
262	357.9345266819	picture	0		108	260.0	/experiments/Knapen_AOT/AOT_stimuli/pictures/1381_fw.png	436.8215718269348	0.9083676338195801
262	358.82652020454407	response	0	j		260.0	/experiments/Knapen_AOT/AOT_stimuli/pictures/1381_fw.png	437.71356534957886	
263	358.8428943157196	picture	0		97	261.0	/experiments/Knapen_AOT/AOT_stimuli/pictures/0062_fw.png	437.7299394607544	0.8083701133728027
263	359.6430335044861	response	0	k		261.0	/experiments/Knapen_AOT/AOT_stimuli/pictures/0062_fw.png	438.5300786495209	
264	359.6512644290924	picture	0		123	262.0	/experiments/Knapen_AOT/AOT_stimuli/pictures/1907_fw.png	438.5383095741272	1.0332601070404053
264	360.66811203956604	response	0	k		262.0	/experiments/Knapen_AOT/AOT_stimuli/pictures/1907_fw.png	439.55515718460083	
265	360.6845245361328	picture	0		101	263.0	/experiments/Knapen_AOT/AOT_stimuli/pictures/1635_fw.png	439.5715696811676	0.8500471115112305
265	361.51816487312317	response	0	j		263.0	/experiments/Knapen_AOT/AOT_stimuli/pictures/1635_fw.png	440.40521001815796	
266	361.53457164764404	picture	0		96	264.0	/experiments/Knapen_AOT/AOT_stimuli/pictures/2109_fw.png	440.42161679267883	0.8083362579345703
266	362.327020406723	response	0	k		264.0	/experiments/Knapen_AOT/AOT_stimuli/pictures/2109_fw.png	441.2140655517578	
267	362.3429079055786	picture	0		116	265.0	/experiments/Knapen_AOT/AOT_stimuli/pictures/2120_fw.png	441.2299530506134	0.9680147171020508
267	363.30148553848267	response	0	j		265.0	/experiments/Knapen_AOT/AOT_stimuli/pictures/2120_fw.png	442.18853068351746	
268	363.31092262268066	picture	0		103	266.0	/experiments/Knapen_AOT/AOT_stimuli/pictures/1043_fw.png	442.19796776771545	0.8654112815856934
268	364.1532506942749	response	0	j		266.0	/experiments/Knapen_AOT/AOT_stimuli/pictures/1043_fw.png	443.0402958393097	
269	364.17633390426636	picture	0		116	267.0	/experiments/Knapen_AOT/AOT_stimuli/pictures/1590_fw.png	443.06337904930115	0.9749979972839355
269	365.1347942352295	response	0	k		267.0	/experiments/Knapen_AOT/AOT_stimuli/pictures/1590_fw.png	444.0218393802643	
270	365.1513319015503	picture	0		95	268.0	/experiments/Knapen_AOT/AOT_stimuli/pictures/1599_fw.png	444.0383770465851	0.7999317646026611
270	365.93477964401245	response	0	k		268.0	/experiments/Knapen_AOT/AOT_stimuli/pictures/1599_fw.png	444.82182478904724	
271	365.95126366615295	picture	0		119	269.0	/experiments/Knapen_AOT/AOT_stimuli/pictures/1388_fw.png	444.83830881118774	1.000016689300537
271	366.934876203537	response	0	k		269.0	/experiments/Knapen_AOT/AOT_stimuli/pictures/1388_fw.png	445.8219213485718	
272	366.9512803554535	picture	0		103	270.0	/experiments/Knapen_AOT/AOT_stimuli/pictures/1535_fw.png	445.8383255004883	0.8596513271331787
272	367.8014895915985	response	0	j		270.0	/experiments/Knapen_AOT/AOT_stimuli/pictures/1535_fw.png	446.6885347366333	
273	367.81093168258667	picture	0		132	271.0	/experiments/Knapen_AOT/AOT_stimuli/pictures/0908_fw.png	446.69797682762146	1.1070563793182373
273	368.901554107666	response	0	k		271.0	/experiments/Knapen_AOT/AOT_stimuli/pictures/0908_fw.png	447.7885992527008	
274	368.9179880619049	picture	0		116	272.0	/experiments/Knapen_AOT/AOT_stimuli/pictures/2003_fw.png	447.8050332069397	0.9750096797943115
274	369.8764955997467	response	0	k		272.0	/experiments/Knapen_AOT/AOT_stimuli/pictures/2003_fw.png	448.7635407447815	
275	369.8929977416992	picture	0		350	273.0	/experiments/Knapen_AOT/AOT_stimuli/pictures/2112_fw.png	448.780042886734	2.925023317337036
275	372.8015356063843	response	0	k		273.0	/experiments/Knapen_AOT/AOT_stimuli/pictures/2112_fw.png	451.68858075141907	
276	372.81802105903625	picture	0		123	274.0	/experiments/Knapen_AOT/AOT_stimuli/pictures/0124_fw.png	451.70506620407104	1.0333571434020996
276	373.8349344730377	response	0	k		274.0	/experiments/Knapen_AOT/AOT_stimuli/pictures/0124_fw.png	452.7219796180725	
277	373.85137820243835	picture	0		123	275.0	/experiments/Knapen_AOT/AOT_stimuli/pictures/1645_fw.png	452.73842334747314	1.033381462097168
277	374.8683090209961	response	0	k		275.0	/experiments/Knapen_AOT/AOT_stimuli/pictures/1645_fw.png	453.7553541660309	
278	374.8847596645355	picture	0		106	276.0	/experiments/Knapen_AOT/AOT_stimuli/pictures/1257_fw.png	453.7718048095703	0.8916211128234863
278	375.76001358032227	response	0	j		276.0	/experiments/Knapen_AOT/AOT_stimuli/pictures/1257_fw.png	454.64705872535706	
279	375.776380777359	picture	0		159	277.0	/experiments/Knapen_AOT/AOT_stimuli/pictures/0844_fw.png	454.6634259223938	1.333362102508545
279	377.0932984352112	response	0	k		277.0	/experiments/Knapen_AOT/AOT_stimuli/pictures/0844_fw.png	455.980343580246	
280	377.10974287986755	picture	0		132	278.0	/experiments/Knapen_AOT/AOT_stimuli/pictures/1627_fw.png	455.99678802490234	1.1083502769470215
280	378.2016010284424	response	0	k		278.0	/experiments/Knapen_AOT/AOT_stimuli/pictures/1627_fw.png	457.0886461734772	
281	378.2180931568146	picture	0		154	279.0	/experiments/Knapen_AOT/AOT_stimuli/pictures/1873_fw.png	457.10513830184937	1.2916605472564697
281	379.4933478832245	response	0	k		279.0	/experiments/Knapen_AOT/AOT_stimuli/pictures/1873_fw.png	458.3803930282593	
282	379.50975370407104	picture	0		82	280.0	/experiments/Knapen_AOT/AOT_stimuli/pictures/1646_fw.png	458.39679884910583	0.6917047500610352
282	380.1850209236145	response	0	k		280.0	/experiments/Knapen_AOT/AOT_stimuli/pictures/1646_fw.png	459.0720660686493	
283	380.2014584541321	picture	0		105	281.0	/experiments/Knapen_AOT/AOT_stimuli/pictures/1149_fw.png	459.08850359916687	0.8833141326904297
283	381.06834506988525	response	0	k		281.0	/experiments/Knapen_AOT/AOT_stimuli/pictures/1149_fw.png	459.95539021492004	
284	381.0847725868225	picture	0		96	282.0	/experiments/Knapen_AOT/AOT_stimuli/pictures/0633_fw.png	459.9718177318573	0.808375358581543
284	381.87662982940674	response	0	j		282.0	/experiments/Knapen_AOT/AOT_stimuli/pictures/0633_fw.png	460.7636749744415	
285	381.89314794540405	picture	0		258	283.0	/experiments/Knapen_AOT/AOT_stimuli/pictures/1744_fw.png	460.78019309043884	2.1583352088928223
285	384.0352668762207	response	0	k		283.0	/experiments/Knapen_AOT/AOT_stimuli/pictures/1744_fw.png	462.9223120212555	
286	384.0514831542969	picture	0		128	284.0	/experiments/Knapen_AOT/AOT_stimuli/pictures/1586_fw.png	462.93852829933167	1.0750107765197754
286	385.1099941730499	response	0	k		284.0	/experiments/Knapen_AOT/AOT_stimuli/pictures/1586_fw.png	463.9970393180847	
287	385.12649393081665	picture	0		95	285.0	/experiments/Knapen_AOT/AOT_stimuli/pictures/0854_fw.png	464.01353907585144	0.7956898212432861
287	385.91001081466675	response	0	j		285.0	/experiments/Knapen_AOT/AOT_stimuli/pictures/0854_fw.png	464.79705595970154	
288	385.92218375205994	picture	0		158	286.0	/experiments/Knapen_AOT/AOT_stimuli/pictures/0749_fw.png	464.8092288970947	1.3210012912750244
288	387.2266631126404	response	0	j		286.0	/experiments/Knapen_AOT/AOT_stimuli/pictures/0749_fw.png	466.11370825767517	
289	387.24318504333496	picture	0		113	287.0	/experiments/Knapen_AOT/AOT_stimuli/pictures/0139_fw.png	466.13023018836975	0.9500219821929932
289	388.17678594589233	response	0	k		287.0	/experiments/Knapen_AOT/AOT_stimuli/pictures/0139_fw.png	467.0638310909271	
290	388.19320702552795	picture	0		130	288.0	/experiments/Knapen_AOT/AOT_stimuli/pictures/1193_fw.png	467.08025217056274	1.0917353630065918
290	389.2683455944061	response	0	k		288.0	/experiments/Knapen_AOT/AOT_stimuli/pictures/1193_fw.png	468.1553907394409	
291	389.28494238853455	picture	0		345	289.0	/experiments/Knapen_AOT/AOT_stimuli/pictures/1359_fw.png	468.17198753356934	2.883301019668579
291	392.15175437927246	response	0	k		289.0	/experiments/Knapen_AOT/AOT_stimuli/pictures/1359_fw.png	471.03879952430725	
292	392.1682434082031	picture	0		163	290.0	/experiments/Knapen_AOT/AOT_stimuli/pictures/1073_fw.png	471.0552885532379	1.3667221069335938
292	393.5184862613678	response	0	k		290.0	/experiments/Knapen_AOT/AOT_stimuli/pictures/1073_fw.png	472.4055314064026	
293	393.5349655151367	picture	0		117	291.0	/experiments/Knapen_AOT/AOT_stimuli/pictures/1448_fw.png	472.4220106601715	0.9832978248596191
293	394.50182914733887	response	0	j		291.0	/experiments/Knapen_AOT/AOT_stimuli/pictures/1448_fw.png	473.38887429237366	
294	394.51826333999634	picture	0		268	292.0	/experiments/Knapen_AOT/AOT_stimuli/pictures/1986_fw.png	473.4053084850311	2.241720676422119
294	396.73681831359863	response	0	k		292.0	/experiments/Knapen_AOT/AOT_stimuli/pictures/1986_fw.png	475.6238634586334	
295	396.75998401641846	picture	0		99	293.0	/experiments/Knapen_AOT/AOT_stimuli/pictures/0407_fw.png	475.64702916145325	0.8333027362823486
295	397.576810836792	response	0	k		293.0	/experiments/Knapen_AOT/AOT_stimuli/pictures/0407_fw.png	476.4638559818268	
296	397.5932867527008	picture	0		82	294.0	/experiments/Knapen_AOT/AOT_stimuli/pictures/1812_fw.png	476.4803318977356	0.6916871070861816
296	398.268501996994	response	0	k		294.0	/experiments/Knapen_AOT/AOT_stimuli/pictures/1812_fw.png	477.1555471420288	
297	398.284973859787	picture	0		108	295.0	/experiments/Knapen_AOT/AOT_stimuli/pictures/0341_fw.png	477.1720190048218	0.908355712890625
297	399.1771378517151	response	0	k		295.0	/experiments/Knapen_AOT/AOT_stimuli/pictures/0341_fw.png	478.0641829967499	
298	399.1933295726776	picture	0		103	296.0	/experiments/Knapen_AOT/AOT_stimuli/pictures/1702_fw.png	478.0803747177124	0.867913007736206
298	400.0437333583832	response	0	k		296.0	/experiments/Knapen_AOT/AOT_stimuli/pictures/1702_fw.png	478.93077850341797	
299	400.0612425804138	picture	0		106	297.0	/experiments/Knapen_AOT/AOT_stimuli/pictures/0777_fw.png	478.9482877254486	0.8904333114624023
299	400.93520045280457	response	0	k		297.0	/experiments/Knapen_AOT/AOT_stimuli/pictures/0777_fw.png	479.82224559783936	
300	400.9516758918762	picture	0		117	298.0	/experiments/Knapen_AOT/AOT_stimuli/pictures/1269_fw.png	479.838721036911	0.9844844341278076
300	401.9185311794281	response	0	j		298.0	/experiments/Knapen_AOT/AOT_stimuli/pictures/1269_fw.png	480.8055763244629	
301	401.936160326004	picture	0		89	299.0	/experiments/Knapen_AOT/AOT_stimuli/pictures/0760_fw.png	480.8232054710388	0.7488818168640137
301	402.6685962677002	response	0	j		299.0	/experiments/Knapen_AOT/AOT_stimuli/pictures/0760_fw.png	481.555641412735	
302	402.68504214286804	picture	0		81	300.0	/experiments/Knapen_AOT/AOT_stimuli/pictures/0654_fw.png	481.57208728790283	0.6833364963531494
302	403.3518922328949	response	0	j		300.0	/experiments/Knapen_AOT/AOT_stimuli/pictures/0654_fw.png	482.2389373779297	
303	403.3683786392212	picture	0		97	301.0	/experiments/Knapen_AOT/AOT_stimuli/pictures/1232_fw.png	482.255423784256	0.816694974899292
303	404.16094064712524	response	0	j		301.0	/experiments/Knapen_AOT/AOT_stimuli/pictures/1232_fw.png	483.04798579216003	
304	404.1850736141205	picture	0		127	302.0	/experiments/Knapen_AOT/AOT_stimuli/pictures/0981_fw.png	483.0721187591553	1.0666937828063965
304	405.23523116111755	response	0	k		302.0	/experiments/Knapen_AOT/AOT_stimuli/pictures/0981_fw.png	484.12227630615234	
305	405.2517673969269	picture	0		124	303.0	/experiments/Knapen_AOT/AOT_stimuli/pictures/1615_fw.png	484.13881254196167	1.041639804840088
305	406.2769134044647	response	0	j		303.0	/experiments/Knapen_AOT/AOT_stimuli/pictures/1615_fw.png	485.1639585494995	
306	406.29340720176697	picture	0		113	304.0	/experiments/Knapen_AOT/AOT_stimuli/pictures/1642_fw.png	485.18045234680176	0.9500162601470947
306	407.2269752025604	response	0	j		304.0	/experiments/Knapen_AOT/AOT_stimuli/pictures/1642_fw.png	486.1140203475952	
307	407.24342346191406	picture	0		130	305.0	/experiments/Knapen_AOT/AOT_stimuli/pictures/0281_fw.png	486.13046860694885	1.091670036315918
307	408.31858563423157	response	0	k		305.0	/experiments/Knapen_AOT/AOT_stimuli/pictures/0281_fw.png	487.20563077926636	
308	408.33509349823	picture	0		91	306.0	/experiments/Knapen_AOT/AOT_stimuli/pictures/0866_fw.png	487.22213864326477	0.766716480255127
308	409.0853476524353	response	0	j		306.0	/experiments/Knapen_AOT/AOT_stimuli/pictures/0866_fw.png	487.9723927974701	
309	409.1018099784851	picture	0		79	307.0	/experiments/Knapen_AOT/AOT_stimuli/pictures/1026_fw.png	487.9888551235199	0.6666460037231445
309	409.75203227996826	response	0	j		307.0	/experiments/Knapen_AOT/AOT_stimuli/pictures/1026_fw.png	488.63907742500305	
310	409.76845598220825	picture	0		86	308.0	/experiments/Knapen_AOT/AOT_stimuli/pictures/0245_fw.png	488.65550112724304	0.7249999046325684
310	410.4770140647888	response	0	j		308.0	/experiments/Knapen_AOT/AOT_stimuli/pictures/0245_fw.png	489.3640592098236	
311	410.4934558868408	picture	0		101	309.0	/experiments/Knapen_AOT/AOT_stimuli/pictures/0961_fw.png	489.3805010318756	0.8500087261199951
311	411.32701420783997	response	0	k		309.0	/experiments/Knapen_AOT/AOT_stimuli/pictures/0961_fw.png	490.21405935287476	
312	411.3434646129608	picture	0		241	310.0	/experiments/Knapen_AOT/AOT_stimuli/pictures/0181_fw.png	490.2305097579956	2.0167009830474854
312	413.34364008903503	response	0	k		310.0	/experiments/Knapen_AOT/AOT_stimuli/pictures/0181_fw.png	492.2306852340698	
313	413.3601655960083	picture	0		81	311.0	/experiments/Knapen_AOT/AOT_stimuli/pictures/1214_fw.png	492.2472107410431	0.6833271980285645
313	414.0269923210144	response	0	j		311.0	/experiments/Knapen_AOT/AOT_stimuli/pictures/1214_fw.png	492.9140374660492	
314	414.04349279403687	picture	0		244	312.0	/experiments/Knapen_AOT/AOT_stimuli/pictures/0797_fw.png	492.93053793907166	2.0416951179504395
314	416.0686957836151	response	0	k		312.0	/experiments/Knapen_AOT/AOT_stimuli/pictures/0797_fw.png	494.9557409286499	
315	416.0851879119873	picture	0		114	313.0	/experiments/Knapen_AOT/AOT_stimuli/pictures/1035_fw.png	494.9722330570221	0.9583718776702881
315	417.02705907821655	response	0	j		313.0	/experiments/Knapen_AOT/AOT_stimuli/pictures/1035_fw.png	495.91410422325134	
316	417.0435597896576	picture	0		119	314.0	/experiments/Knapen_AOT/AOT_stimuli/pictures/1962_fw.png	495.9306049346924	1.00002121925354
316	418.0270884037018	response	0	k		314.0	/experiments/Knapen_AOT/AOT_stimuli/pictures/1962_fw.png	496.9141335487366	
317	418.04358100891113	picture	0		137	315.0	/experiments/Knapen_AOT/AOT_stimuli/pictures/0154_fw.png	496.9306261539459	1.1499569416046143
317	419.17706274986267	response	0	k		315.0	/experiments/Knapen_AOT/AOT_stimuli/pictures/0154_fw.png	498.06410789489746	
318	419.19353795051575	picture	0		115	316.0	/experiments/Knapen_AOT/AOT_stimuli/pictures/0885_fw.png	498.08058309555054	0.9667026996612549
318	420.14378571510315	response	0	k		316.0	/experiments/Knapen_AOT/AOT_stimuli/pictures/0885_fw.png	499.03083086013794	
319	420.160240650177	picture	0		96	317.0	/experiments/Knapen_AOT/AOT_stimuli/pictures/1463_fw.png	499.0472857952118	0.8083846569061279
319	420.9521358013153	response	0	j		317.0	/experiments/Knapen_AOT/AOT_stimuli/pictures/1463_fw.png	499.8391809463501	
320	420.96862530708313	picture	0		100	318.0	/experiments/Knapen_AOT/AOT_stimuli/pictures/2102_fw.png	499.8556704521179	0.8416297435760498
320	421.79381823539734	response	0	j		318.0	/experiments/Knapen_AOT/AOT_stimuli/pictures/2102_fw.png	500.68086338043213	
321	421.8102550506592	picture	0		89	319.0	/experiments/Knapen_AOT/AOT_stimuli/pictures/1798_fw.png	500.69730019569397	0.7510371208190918
321	422.5440011024475	response	0	j		319.0	/experiments/Knapen_AOT/AOT_stimuli/pictures/1798_fw.png	501.4310462474823	
322	422.56129217147827	picture	0		99	320.0	/experiments/Knapen_AOT/AOT_stimuli/pictures/0330_fw.png	501.44833731651306	0.8323605060577393
322	423.3773283958435	response	0	j		320.0	/experiments/Knapen_AOT/AOT_stimuli/pictures/0330_fw.png	502.2643735408783	
323	423.393652677536	picture	0		130	321.0	/experiments/Knapen_AOT/AOT_stimuli/pictures/1160_fw.png	502.2806978225708	1.0916128158569336
323	424.46904611587524	response	0	j		321.0	/experiments/Knapen_AOT/AOT_stimuli/pictures/1160_fw.png	503.35609126091003	
324	424.48526549339294	picture	0		91	322.0	/experiments/Knapen_AOT/AOT_stimuli/pictures/0423_fw.png	503.37231063842773	0.766697883605957
324	425.2358920574188	response	0	j		322.0	/experiments/Knapen_AOT/AOT_stimuli/pictures/0423_fw.png	504.1229372024536	
325	425.2519633769989	picture	0		88	323.0	/experiments/Knapen_AOT/AOT_stimuli/pictures/1309_fw.png	504.1390085220337	0.7416782379150391
325	425.9772126674652	response	0	j		323.0	/experiments/Knapen_AOT/AOT_stimuli/pictures/1309_fw.png	504.8642578125	
326	425.99364161491394	picture	0		112	324.0	/experiments/Knapen_AOT/AOT_stimuli/pictures/0192_fw.png	504.88068675994873	0.9416754245758057
326	426.91890144348145	response	0	k		324.0	/experiments/Knapen_AOT/AOT_stimuli/pictures/0192_fw.png	505.80594658851624	
327	426.93531703948975	picture	0		127	325.0	/experiments/Knapen_AOT/AOT_stimuli/pictures/1655_fw.png	505.82236218452454	1.066697120666504
327	427.9855077266693	response	0	j		325.0	/experiments/Knapen_AOT/AOT_stimuli/pictures/1655_fw.png	506.8725528717041	
328	428.00201416015625	picture	0		91	326.0	/experiments/Knapen_AOT/AOT_stimuli/pictures/1281_fw.png	506.88905930519104	0.766655683517456
328	428.7521479129791	response	0	j		326.0	/experiments/Knapen_AOT/AOT_stimuli/pictures/1281_fw.png	507.6391930580139	
329	428.7686698436737	picture	0		105	327.0	/experiments/Knapen_AOT/AOT_stimuli/pictures/1918_fw.png	507.6557149887085	0.8833308219909668
329	429.63544273376465	response	0	k		327.0	/experiments/Knapen_AOT/AOT_stimuli/pictures/1918_fw.png	508.52248787879944	
330	429.6520006656647	picture	0		101	328.0	/experiments/Knapen_AOT/AOT_stimuli/pictures/1602_fw.png	508.53904581069946	0.8500223159790039
330	430.4854645729065	response	0	k		328.0	/experiments/Knapen_AOT/AOT_stimuli/pictures/1602_fw.png	509.3725097179413	
331	430.5020229816437	picture	0		113	329.0	/experiments/Knapen_AOT/AOT_stimuli/pictures/1558_fw.png	509.38906812667847	0.9500961303710938
331	431.43551874160767	response	0	k		329.0	/experiments/Knapen_AOT/AOT_stimuli/pictures/1558_fw.png	510.32256388664246	
332	431.45211911201477	picture	0		195	330.0	/experiments/Knapen_AOT/AOT_stimuli/pictures/0113_fw.png	510.33916425704956	1.630002498626709
332	433.06883215904236	response	0	k		330.0	/experiments/Knapen_AOT/AOT_stimuli/pictures/0113_fw.png	511.95587730407715	
333	433.0821216106415	picture	0		106	331.0	/experiments/Knapen_AOT/AOT_stimuli/pictures/0618_fw.png	511.96916675567627	0.8949463367462158
333	433.9531133174896	response	0	j		331.0	/experiments/Knapen_AOT/AOT_stimuli/pictures/0618_fw.png	512.8401584625244	
334	433.9770679473877	picture	0		113	332.0	/experiments/Knapen_AOT/AOT_stimuli/pictures/1629_fw.png	512.8641130924225	0.9500010013580322
334	434.91079235076904	response	0	j		332.0	/experiments/Knapen_AOT/AOT_stimuli/pictures/1629_fw.png	513.7978374958038	
335	434.9270689487457	picture	0		93	333.0	/experiments/Knapen_AOT/AOT_stimuli/pictures/0253_fw.png	513.8141140937805	0.783348798751831
335	435.6938564777374	response	0	j		333.0	/experiments/Knapen_AOT/AOT_stimuli/pictures/0253_fw.png	514.5809016227722	
336	435.71041774749756	picture	0		292	334.0	/experiments/Knapen_AOT/AOT_stimuli/pictures/1374_fw.png	514.5974628925323	2.441706418991089
336	438.1355583667755	response	0	k		334.0	/experiments/Knapen_AOT/AOT_stimuli/pictures/1374_fw.png	517.0226035118103	
337	438.15212416648865	picture	0		74	335.0	/experiments/Knapen_AOT/AOT_stimuli/pictures/0118_fw.png	517.0391693115234	0.6249892711639404
337	438.7607090473175	response	0	j		335.0	/experiments/Knapen_AOT/AOT_stimuli/pictures/0118_fw.png	517.6477541923523	
338	438.7771134376526	picture	0		151	336.0	/experiments/Knapen_AOT/AOT_stimuli/pictures/1292_fw.png	517.6641585826874	1.2667129039764404
338	440.02725625038147	response	0	k		336.0	/experiments/Knapen_AOT/AOT_stimuli/pictures/1292_fw.png	518.9143013954163	
339	440.043826341629	picture	0		125	337.0	/experiments/Knapen_AOT/AOT_stimuli/pictures/1512_fw.png	518.9308714866638	1.0499849319458008
339	441.077303647995	response	0	k		337.0	/experiments/Knapen_AOT/AOT_stimuli/pictures/1512_fw.png	519.9643487930298	
340	441.09381127357483	picture	0		145	338.0	/experiments/Knapen_AOT/AOT_stimuli/pictures/2026_fw.png	519.9808564186096	1.2166874408721924
340	442.29395389556885	response	0	k		338.0	/experiments/Knapen_AOT/AOT_stimuli/pictures/2026_fw.png	521.1809990406036	
341	442.310498714447	picture	0		95	339.0	/experiments/Knapen_AOT/AOT_stimuli/pictures/1259_fw.png	521.1975438594818	0.8000144958496094
341	443.09400963783264	response	0	j		339.0	/experiments/Knapen_AOT/AOT_stimuli/pictures/1259_fw.png	521.9810547828674	
342	443.11051321029663	picture	0		239	340.0	/experiments/Knapen_AOT/AOT_stimuli/pictures/1218_fw.png	521.9975583553314	2.00004243850708
342	445.09399461746216	response	0	j		340.0	/experiments/Knapen_AOT/AOT_stimuli/pictures/1218_fw.png	523.981039762497	
343	445.1105556488037	picture	0		102	341.0	/experiments/Knapen_AOT/AOT_stimuli/pictures/0776_fw.png	523.9976007938385	0.8583018779754639
343	445.9446897506714	response	0	k		341.0	/experiments/Knapen_AOT/AOT_stimuli/pictures/0776_fw.png	524.8317348957062	
344	445.9688575267792	picture	0		168	342.0	/experiments/Knapen_AOT/AOT_stimuli/pictures/0699_fw.png	524.855902671814	1.4083943367004395
344	447.3608195781708	response	0	k		342.0	/experiments/Knapen_AOT/AOT_stimuli/pictures/0699_fw.png	526.2478647232056	
345	447.3772518634796	picture	0		104	343.0	/experiments/Knapen_AOT/AOT_stimuli/pictures/1133_fw.png	526.2642970085144	0.8750026226043701
345	448.23566603660583	response	0	k		343.0	/experiments/Knapen_AOT/AOT_stimuli/pictures/1133_fw.png	527.1227111816406	
346	448.252254486084	picture	0		138	344.0	/experiments/Knapen_AOT/AOT_stimuli/pictures/2086_fw.png	527.1392996311188	1.1583247184753418
346	449.39403223991394	response	0	k		344.0	/experiments/Knapen_AOT/AOT_stimuli/pictures/2086_fw.png	528.2810773849487	
347	449.4105792045593	picture	0		107	345.0	/experiments/Knapen_AOT/AOT_stimuli/pictures/1521_fw.png	528.2976243495941	0.9000332355499268
347	450.2940287590027	response	0	k		345.0	/experiments/Knapen_AOT/AOT_stimuli/pictures/1521_fw.png	529.1810739040375	
348	450.31061244010925	picture	0		109	346.0	/experiments/Knapen_AOT/AOT_stimuli/pictures/1766_fw.png	529.197657585144	0.9166655540466309
348	451.2107951641083	response	0	k		346.0	/experiments/Knapen_AOT/AOT_stimuli/pictures/1766_fw.png	530.0978403091431	
349	451.2272779941559	picture	0		114	347.0	/experiments/Knapen_AOT/AOT_stimuli/pictures/1713_fw.png	530.1143231391907	0.9583339691162109
349	452.1691896915436	response	0	j		347.0	/experiments/Knapen_AOT/AOT_stimuli/pictures/1713_fw.png	531.0562348365784	
350	452.1856119632721	picture	0		160	348.0	/experiments/Knapen_AOT/AOT_stimuli/pictures/0291_fw.png	531.0726571083069	1.3416862487792969
350	453.5107705593109	response	0	k		348.0	/experiments/Knapen_AOT/AOT_stimuli/pictures/0291_fw.png	532.3978157043457	
351	453.5272982120514	picture	0		238	349.0	/experiments/Knapen_AOT/AOT_stimuli/pictures/1973_fw.png	532.4143433570862	1.9917092323303223
351	455.50243616104126	response	0	k		349.0	/experiments/Knapen_AOT/AOT_stimuli/pictures/1973_fw.png	534.389481306076	
352	455.5190074443817	picture	0		533	350.0	/experiments/Knapen_AOT/AOT_stimuli/pictures/0019_fw.png	534.4060525894165	4.450037717819214
352	459.94523668289185	response	0	j		350.0	/experiments/Knapen_AOT/AOT_stimuli/pictures/0019_fw.png	538.8322818279266	
353	459.9690451622009	picture	0		149	351.0	/experiments/Knapen_AOT/AOT_stimuli/pictures/1085_fw.png	538.8560903072357	1.2499947547912598
353	461.2025148868561	response	0	k		351.0	/experiments/Knapen_AOT/AOT_stimuli/pictures/1085_fw.png	540.0895600318909	
354	461.2190399169922	picture	0		92	352.0	/experiments/Knapen_AOT/AOT_stimuli/pictures/1848_fw.png	540.106085062027	0.7750263214111328
354	461.9775335788727	response	0	k		352.0	/experiments/Knapen_AOT/AOT_stimuli/pictures/1848_fw.png	540.8645787239075	
355	461.9940662384033	picture	0		91	353.0	/experiments/Knapen_AOT/AOT_stimuli/pictures/0132_fw.png	540.8811113834381	0.7666687965393066
355	462.7443492412567	response	0	j		353.0	/experiments/Knapen_AOT/AOT_stimuli/pictures/0132_fw.png	541.6313943862915	
356	462.7607350349426	picture	0		374	354.0	/experiments/Knapen_AOT/AOT_stimuli/pictures/0436_fw.png	541.6477801799774	3.125030040740967
356	465.86923599243164	response	0	k		354.0	/experiments/Knapen_AOT/AOT_stimuli/pictures/0436_fw.png	544.7562811374664	
357	465.8857650756836	picture	0		131	355.0	/experiments/Knapen_AOT/AOT_stimuli/pictures/1146_fw.png	544.7728102207184	1.1000733375549316
357	466.9692311286926	response	0	k		355.0	/experiments/Knapen_AOT/AOT_stimuli/pictures/1146_fw.png	545.8562762737274	
358	466.9858384132385	picture	0		86	356.0	/experiments/Knapen_AOT/AOT_stimuli/pictures/0408_fw.png	545.8728835582733	0.7249598503112793
358	467.69428277015686	response	0	k		356.0	/experiments/Knapen_AOT/AOT_stimuli/pictures/0408_fw.png	546.5813279151917	
359	467.7107982635498	picture	0		161	357.0	/experiments/Knapen_AOT/AOT_stimuli/pictures/0054_fw.png	546.5978434085846	1.3500282764434814
359	469.0442702770233	response	0	k		357.0	/experiments/Knapen_AOT/AOT_stimuli/pictures/0054_fw.png	547.9313154220581	
360	469.0608265399933	picture	0		112	358.0	/experiments/Knapen_AOT/AOT_stimuli/pictures/1435_fw.png	547.9478716850281	0.9416975975036621
360	469.9860062599182	response	0	k		358.0	/experiments/Knapen_AOT/AOT_stimuli/pictures/1435_fw.png	548.873051404953	
361	470.00252413749695	picture	0		112	359.0	/experiments/Knapen_AOT/AOT_stimuli/pictures/0993_fw.png	548.8895692825317	0.9416303634643555
361	470.9276397228241	response	0	k		359.0	/experiments/Knapen_AOT/AOT_stimuli/pictures/0993_fw.png	549.8146848678589	
362	470.9441545009613	stim	0		340			549.8311996459961	2.8508706092834473
362	473.77514457702637	response	0	space				552.6621897220612	
