trial_nr	onset	event_type	phase	response	nr_frames	picture_index	picture_file	onset_abs	duration
0	0.17139816284179688	stim	0		739			63.88600182533264	6.178275108337402
0	6.3309900760650635	response	0	space				70.04559373855591	
2	6.349673271179199	picture	0		124	0.0	/experiments/knapen_AOT/AOT_stimuli/pictures/0633_fw.png	70.06427693367004	1.0528430938720703
2	7.380336761474609	response	0	j		0.0	/experiments/knapen_AOT/AOT_stimuli/pictures/0633_fw.png	71.09494042396545	
3	7.4025163650512695	picture	0		107	1.0	/experiments/knapen_AOT/AOT_stimuli/pictures/0125_fw.png	71.11712002754211	0.9138410091400146
3	8.300307989120483	response	0	k		1.0	/experiments/knapen_AOT/AOT_stimuli/pictures/0125_fw.png	72.01491165161133	
4	8.316357374191284	picture	0		144	2.0	/experiments/knapen_AOT/AOT_stimuli/pictures/1682_fw.png	72.03096103668213	1.2024033069610596
4	9.508271932601929	response	0	k		2.0	/experiments/knapen_AOT/AOT_stimuli/pictures/1682_fw.png	73.22287559509277	
5	9.518760681152344	picture	0		335	3.0	/experiments/knapen_AOT/AOT_stimuli/pictures/0380_fw.png	73.23336434364319	2.7915823459625244
5	12.300015687942505	response	0	k		3.0	/experiments/knapen_AOT/AOT_stimuli/pictures/0380_fw.png	76.01461935043335	
6	12.310343027114868	picture	0		122	4.0	/experiments/knapen_AOT/AOT_stimuli/pictures/1549_fw.png	76.02494668960571	1.0209081172943115
6	13.316594123840332	response	0	j		4.0	/experiments/knapen_AOT/AOT_stimuli/pictures/1549_fw.png	77.03119778633118	
7	13.33125114440918	picture	0		229	5.0	/experiments/knapen_AOT/AOT_stimuli/pictures/1648_fw.png	77.04585480690002	1.9185364246368408
7	15.233590841293335	response	0	j		5.0	/experiments/knapen_AOT/AOT_stimuli/pictures/1648_fw.png	78.94819450378418	
8	15.24978756904602	picture	0		89	6.0	/experiments/knapen_AOT/AOT_stimuli/pictures/2015_fw.png	78.96439123153687	0.7416341304779053
8	15.983326435089111	response	0	k		6.0	/experiments/knapen_AOT/AOT_stimuli/pictures/2015_fw.png	79.69793009757996	
9	15.991421699523926	picture	0		125	7.0	/experiments/knapen_AOT/AOT_stimuli/pictures/1428_fw.png	79.70602536201477	1.0500481128692627
9	17.024980068206787	response	0	k		7.0	/experiments/knapen_AOT/AOT_stimuli/pictures/1428_fw.png	80.73958373069763	
10	17.04146981239319	picture	0		230	8.0	/experiments/knapen_AOT/AOT_stimuli/pictures/0230_fw.png	80.75607347488403	1.9217255115509033
10	18.950003147125244	response	0	j		8.0	/experiments/knapen_AOT/AOT_stimuli/pictures/0230_fw.png	82.66460680961609	
11	18.963195323944092	picture	0		168	9.0	/experiments/knapen_AOT/AOT_stimuli/pictures/1929_fw.png	82.67779898643494	1.4117116928100586
11	20.35960292816162	response	0	k		9.0	/experiments/knapen_AOT/AOT_stimuli/pictures/1929_fw.png	84.07420659065247	
12	20.37490701675415	picture	0		118	10.0	/experiments/knapen_AOT/AOT_stimuli/pictures/1322_fw.png	84.089510679245	0.991600513458252
12	21.350029945373535	response	0	j		10.0	/experiments/knapen_AOT/AOT_stimuli/pictures/1322_fw.png	85.06463360786438	
13	21.366507530212402	picture	0		135	11.0	/experiments/knapen_AOT/AOT_stimuli/pictures/0064_fw.png	85.08111119270325	1.1315088272094727
13	22.48338532447815	response	0	j		11.0	/experiments/knapen_AOT/AOT_stimuli/pictures/0064_fw.png	86.197988986969	
14	22.498016357421875	picture	0		103	12.0	/experiments/knapen_AOT/AOT_stimuli/pictures/0195_fw.png	86.21262001991272	0.8685345649719238
14	23.350148916244507	response	0	k		12.0	/experiments/knapen_AOT/AOT_stimuli/pictures/0195_fw.png	87.06475257873535	
15	23.3665509223938	picture	0		111	13.0	/experiments/knapen_AOT/AOT_stimuli/pictures/1944_fw.png	87.08115458488464	0.930100679397583
15	24.283597469329834	response	0	k		13.0	/experiments/knapen_AOT/AOT_stimuli/pictures/1944_fw.png	87.99820113182068	
16	24.296651601791382	picture	0		117	14.0	/experiments/knapen_AOT/AOT_stimuli/pictures/1975_fw.png	88.01125526428223	0.9865801334381104
16	25.26680588722229	response	0	k		14.0	/experiments/knapen_AOT/AOT_stimuli/pictures/1975_fw.png	88.98140954971313	
17	25.283231735229492	picture	0		80	15.0	/experiments/knapen_AOT/AOT_stimuli/pictures/0858_fw.png	88.99783539772034	0.6666531562805176
17	25.93416976928711	response	0	j		15.0	/experiments/knapen_AOT/AOT_stimuli/pictures/0858_fw.png	89.64877343177795	
18	25.94988489151001	picture	0		95	16.0	/experiments/knapen_AOT/AOT_stimuli/pictures/1573_fw.png	89.66448855400085	0.7916731834411621
18	26.72586941719055	response	0	k		16.0	/experiments/knapen_AOT/AOT_stimuli/pictures/1573_fw.png	90.4404730796814	
19	26.741558074951172	picture	0		104	17.0	/experiments/knapen_AOT/AOT_stimuli/pictures/1230_fw.png	90.45616173744202	0.8750345706939697
19	27.60014772415161	response	0	j		17.0	/experiments/knapen_AOT/AOT_stimuli/pictures/1230_fw.png	91.31475138664246	
20	27.61659264564514	picture	0		101	18.0	/experiments/knapen_AOT/AOT_stimuli/pictures/0715_fw.png	91.33119630813599	0.8500306606292725
20	28.450377702713013	response	0	j		18.0	/experiments/knapen_AOT/AOT_stimuli/pictures/0715_fw.png	92.16498136520386	
21	28.466623306274414	picture	0		84	19.0	/experiments/knapen_AOT/AOT_stimuli/pictures/1105_fw.png	92.18122696876526	0.7083680629730225
21	29.158469676971436	response	0	j		19.0	/experiments/knapen_AOT/AOT_stimuli/pictures/1105_fw.png	92.87307333946228	
22	29.174991369247437	picture	0		112	20.0	/experiments/knapen_AOT/AOT_stimuli/pictures/0003_fw.png	92.88959503173828	0.9416215419769287
22	30.100127935409546	response	0	k		20.0	/experiments/knapen_AOT/AOT_stimuli/pictures/0003_fw.png	93.81473159790039	
23	30.116612911224365	picture	0		111	21.0	/experiments/knapen_AOT/AOT_stimuli/pictures/0169_fw.png	93.83121657371521	0.9300901889801025
23	31.03358793258667	response	0	k		21.0	/experiments/knapen_AOT/AOT_stimuli/pictures/0169_fw.png	94.74819159507751	
24	31.046703100204468	picture	0		132	22.0	/experiments/knapen_AOT/AOT_stimuli/pictures/0918_fw.png	94.76130676269531	1.1116139888763428
24	32.14207172393799	response	0	k		22.0	/experiments/knapen_AOT/AOT_stimuli/pictures/0918_fw.png	95.85667538642883	
25	32.15831708908081	picture	0		115	23.0	/experiments/knapen_AOT/AOT_stimuli/pictures/0623_fw.png	95.87292075157166	0.9666876792907715
25	33.10871458053589	response	0	k		23.0	/experiments/knapen_AOT/AOT_stimuli/pictures/0623_fw.png	96.82331824302673	
26	33.12500476837158	picture	0		155	24.0	/experiments/knapen_AOT/AOT_stimuli/pictures/1995_fw.png	96.83960843086243	1.3000643253326416
26	34.40855693817139	response	0	j		24.0	/experiments/knapen_AOT/AOT_stimuli/pictures/1995_fw.png	98.12316060066223	
27	34.425069093704224	picture	0		98	25.0	/experiments/knapen_AOT/AOT_stimuli/pictures/1094_fw.png	98.13967275619507	0.8165981769561768
27	35.23358154296875	response	0	k		25.0	/experiments/knapen_AOT/AOT_stimuli/pictures/1094_fw.png	98.9481852054596	
28	35.2416672706604	picture	0		95	26.0	/experiments/knapen_AOT/AOT_stimuli/pictures/0486_fw.png	98.95627093315125	0.8000502586364746
28	36.02523851394653	response	0	j		26.0	/experiments/knapen_AOT/AOT_stimuli/pictures/0486_fw.png	99.73984217643738	
29	36.041717529296875	picture	0		89	27.0	/experiments/knapen_AOT/AOT_stimuli/pictures/0210_fw.png	99.75632119178772	0.7416317462921143
29	36.77524161338806	response	0	j		27.0	/experiments/knapen_AOT/AOT_stimuli/pictures/0210_fw.png	100.4898452758789	
30	36.78334927558899	picture	0		79	28.0	/experiments/knapen_AOT/AOT_stimuli/pictures/1340_fw.png	100.49795293807983	0.6592037677764893
30	37.433671712875366	response	0	j		28.0	/experiments/knapen_AOT/AOT_stimuli/pictures/1340_fw.png	101.14827537536621	
31	37.44255304336548	picture	0		69	29.0	/experiments/knapen_AOT/AOT_stimuli/pictures/0807_fw.png	101.15715670585632	0.5764114856719971
31	38.00865435600281	response	0	j		29.0	/experiments/knapen_AOT/AOT_stimuli/pictures/0807_fw.png	101.72325801849365	
32	38.018964529037476	picture	0		112	30.0	/experiments/knapen_AOT/AOT_stimuli/pictures/1761_fw.png	101.73356819152832	0.939443826675415
32	38.941975593566895	response	0	j		30.0	/experiments/knapen_AOT/AOT_stimuli/pictures/1761_fw.png	102.65657925605774	
33	38.95840835571289	picture	0		86	31.0	/experiments/knapen_AOT/AOT_stimuli/pictures/2018_fw.png	102.67301201820374	0.7202982902526855
33	39.666956424713135	response	0	k		31.0	/experiments/knapen_AOT/AOT_stimuli/pictures/2018_fw.png	103.38156008720398	
34	39.678706645965576	picture	0		116	32.0	/experiments/knapen_AOT/AOT_stimuli/pictures/1708_fw.png	103.39331030845642	0.9721980094909668
34	40.64196467399597	response	0	k		32.0	/experiments/knapen_AOT/AOT_stimuli/pictures/1708_fw.png	104.35656833648682	
35	40.65090465545654	picture	0		78	33.0	/experiments/knapen_AOT/AOT_stimuli/pictures/1583_fw.png	104.36550831794739	0.6575522422790527
35	41.291993856430054	response	0	j		33.0	/experiments/knapen_AOT/AOT_stimuli/pictures/1583_fw.png	105.0065975189209	
36	41.308456897735596	picture	0		146	34.0	/experiments/knapen_AOT/AOT_stimuli/pictures/0822_fw.png	105.02306056022644	1.2249903678894043
36	42.51695203781128	response	0	k		34.0	/experiments/knapen_AOT/AOT_stimuli/pictures/0822_fw.png	106.23155570030212	
37	42.533447265625	picture	0		185	35.0	/experiments/knapen_AOT/AOT_stimuli/pictures/0442_fw.png	106.24805092811584	1.55003023147583
37	44.068037271499634	response	0	j		35.0	/experiments/knapen_AOT/AOT_stimuli/pictures/0442_fw.png	107.78264093399048	
38	44.08347749710083	picture	0		107	36.0	/experiments/knapen_AOT/AOT_stimuli/pictures/1712_fw.png	107.79808115959167	0.9008071422576904
38	44.96721029281616	response	0	j		36.0	/experiments/knapen_AOT/AOT_stimuli/pictures/1712_fw.png	108.681813955307	
39	44.98428463935852	picture	0		87	37.0	/experiments/knapen_AOT/AOT_stimuli/pictures/2048_fw.png	108.69888830184937	0.7291791439056396
39	45.7004075050354	response	0	k		37.0	/experiments/knapen_AOT/AOT_stimuli/pictures/2048_fw.png	109.41501116752625	
40	45.71346378326416	picture	0		132	38.0	/experiments/knapen_AOT/AOT_stimuli/pictures/0328_fw.png	109.428067445755	1.0972561836242676
40	46.80036115646362	response	0	k		38.0	/experiments/knapen_AOT/AOT_stimuli/pictures/0328_fw.png	110.51496481895447	
41	46.81071996688843	picture	0		100	39.0	/experiments/knapen_AOT/AOT_stimuli/pictures/1566_fw.png	110.52532362937927	0.8394670486450195
41	47.63393807411194	response	0	k		39.0	/experiments/knapen_AOT/AOT_stimuli/pictures/1566_fw.png	111.34854173660278	
42	47.65018701553345	picture	0		100	40.0	/experiments/knapen_AOT/AOT_stimuli/pictures/1614_fw.png	111.36479067802429	0.841693639755249
42	48.47536659240723	response	0	k		40.0	/experiments/knapen_AOT/AOT_stimuli/pictures/1614_fw.png	112.18997025489807	
43	48.491880655288696	picture	0		86	41.0	/experiments/knapen_AOT/AOT_stimuli/pictures/1329_fw.png	112.20648431777954	0.7216007709503174
43	49.200608253479004	response	0	j		41.0	/experiments/knapen_AOT/AOT_stimuli/pictures/1329_fw.png	112.91521191596985	
44	49.213481426239014	picture	0		85	42.0	/experiments/knapen_AOT/AOT_stimuli/pictures/0292_fw.png	112.92808508872986	0.7200801372528076
44	49.91710948944092	response	0	j		42.0	/experiments/knapen_AOT/AOT_stimuli/pictures/0292_fw.png	113.63171315193176	
45	49.93356156349182	picture	0		68	43.0	/experiments/knapen_AOT/AOT_stimuli/pictures/1707_fw.png	113.64816522598267	0.5716228485107422
45	50.49202489852905	response	0	j		43.0	/experiments/knapen_AOT/AOT_stimuli/pictures/1707_fw.png	114.2066285610199	
46	50.50518441200256	picture	0		119	44.0	/experiments/knapen_AOT/AOT_stimuli/pictures/1216_fw.png	114.21978807449341	0.995063304901123
46	51.48368692398071	response	0	k		44.0	/experiments/knapen_AOT/AOT_stimuli/pictures/1216_fw.png	115.19829058647156	
47	51.50024771690369	picture	0		79	45.0	/experiments/knapen_AOT/AOT_stimuli/pictures/1572_fw.png	115.21485137939453	0.6647708415985107
47	52.15046739578247	response	0	j		45.0	/experiments/knapen_AOT/AOT_stimuli/pictures/1572_fw.png	115.86507105827332	
48	52.1650185585022	picture	0		90	46.0	/experiments/knapen_AOT/AOT_stimuli/pictures/0612_fw.png	115.87962222099304	0.7602643966674805
48	52.90878391265869	response	0	j		46.0	/experiments/knapen_AOT/AOT_stimuli/pictures/0612_fw.png	116.62338757514954	
49	52.92528295516968	picture	0		82	47.0	/experiments/knapen_AOT/AOT_stimuli/pictures/0421_fw.png	116.63988661766052	0.684065580368042
49	53.600451707839966	response	0	j		47.0	/experiments/knapen_AOT/AOT_stimuli/pictures/0421_fw.png	117.31505537033081	
50	53.60934853553772	picture	0		137	48.0	/experiments/knapen_AOT/AOT_stimuli/pictures/0387_fw.png	117.32395219802856	1.1459383964538574
50	54.74212431907654	response	0	j		48.0	/experiments/knapen_AOT/AOT_stimuli/pictures/0387_fw.png	118.45672798156738	
51	54.75528693199158	picture	0		101	49.0	/experiments/knapen_AOT/AOT_stimuli/pictures/1218_fw.png	118.46989059448242	0.840181827545166
51	55.58382773399353	response	0	k		49.0	/experiments/knapen_AOT/AOT_stimuli/pictures/1218_fw.png	119.29843139648438	
52	55.59546875953674	picture	0		91	50.0	/experiments/knapen_AOT/AOT_stimuli/pictures/0648_fw.png	119.31007242202759	0.7631490230560303
52	56.343015909194946	response	0	k		50.0	/experiments/knapen_AOT/AOT_stimuli/pictures/0648_fw.png	120.05761957168579	
53	56.35861778259277	picture	0		94	51.0	/experiments/knapen_AOT/AOT_stimuli/pictures/0379_fw.png	120.07322144508362	0.7854907512664795
53	57.12641763687134	response	0	j		51.0	/experiments/knapen_AOT/AOT_stimuli/pictures/0379_fw.png	120.84102129936218	
54	57.14410853385925	picture	0		98	52.0	/experiments/knapen_AOT/AOT_stimuli/pictures/0932_fw.png	120.8587121963501	0.8194959163665771
54	57.95048952102661	response	0	j		52.0	/experiments/knapen_AOT/AOT_stimuli/pictures/0932_fw.png	121.66509318351746	
55	57.96360445022583	picture	0		81	53.0	/experiments/knapen_AOT/AOT_stimuli/pictures/1831_fw.png	121.67820811271667	0.6805205345153809
55	58.63393807411194	response	0	j		53.0	/experiments/knapen_AOT/AOT_stimuli/pictures/1831_fw.png	122.34854173660278	
56	58.64412498474121	picture	0		108	54.0	/experiments/knapen_AOT/AOT_stimuli/pictures/2122_fw.png	122.35872864723206	0.9027602672576904
56	59.53420925140381	response	0	k		54.0	/experiments/knapen_AOT/AOT_stimuli/pictures/2122_fw.png	123.24881291389465	
57	59.5468852519989	picture	0		80	55.0	/experiments/knapen_AOT/AOT_stimuli/pictures/0216_fw.png	123.26148891448975	0.6736252307891846
57	60.20890474319458	response	0	k		55.0	/experiments/knapen_AOT/AOT_stimuli/pictures/0216_fw.png	123.92350840568542	
58	60.220510482788086	picture	0		100	56.0	/experiments/knapen_AOT/AOT_stimuli/pictures/1087_fw.png	123.93511414527893	0.8382358551025391
58	61.04221320152283	response	0	j		56.0	/experiments/knapen_AOT/AOT_stimuli/pictures/1087_fw.png	124.75681686401367	
59	61.058746337890625	picture	0		85	57.0	/experiments/knapen_AOT/AOT_stimuli/pictures/1849_fw.png	124.77335000038147	0.7103798389434814
59	61.75890135765076	response	0	j		57.0	/experiments/knapen_AOT/AOT_stimuli/pictures/1849_fw.png	125.4735050201416	
60	61.769126176834106	picture	0		94	58.0	/experiments/knapen_AOT/AOT_stimuli/pictures/0349_fw.png	125.48372983932495	0.7847504615783691
60	62.54216265678406	response	0	j		58.0	/experiments/knapen_AOT/AOT_stimuli/pictures/0349_fw.png	126.2567663192749	
61	62.553876638412476	picture	0		99	59.0	/experiments/knapen_AOT/AOT_stimuli/pictures/0344_fw.png	126.26848030090332	0.8263692855834961
61	63.36717391014099	response	0	j		59.0	/experiments/knapen_AOT/AOT_stimuli/pictures/0344_fw.png	127.08177757263184	
62	63.38024592399597	picture	0		73	60.0	/experiments/knapen_AOT/AOT_stimuli/pictures/0228_fw.png	127.09484958648682	0.6201539039611816
62	63.983861207962036	response	0	j		60.0	/experiments/knapen_AOT/AOT_stimuli/pictures/0228_fw.png	127.69846487045288	
63	64.00039982795715	picture	0		115	61.0	/experiments/knapen_AOT/AOT_stimuli/pictures/1821_fw.png	127.715003490448	0.9666733741760254
63	64.95055031776428	response	0	k		61.0	/experiments/knapen_AOT/AOT_stimuli/pictures/1821_fw.png	128.66515398025513	
64	64.96707320213318	picture	0		68	62.0	/experiments/knapen_AOT/AOT_stimuli/pictures/0385_fw.png	128.68167686462402	0.5666425228118896
64	65.51807618141174	response	0	j		62.0	/experiments/knapen_AOT/AOT_stimuli/pictures/0385_fw.png	129.2326798439026	
65	65.53371572494507	picture	0		107	63.0	/experiments/knapen_AOT/AOT_stimuli/pictures/1016_fw.png	129.2483193874359	0.8951504230499268
65	66.41723537445068	response	0	k		63.0	/experiments/knapen_AOT/AOT_stimuli/pictures/1016_fw.png	130.13183903694153	
66	66.428866147995	picture	0		87	64.0	/experiments/knapen_AOT/AOT_stimuli/pictures/1372_fw.png	130.14346981048584	0.7298886775970459
66	67.14223909378052	response	0	j		64.0	/experiments/knapen_AOT/AOT_stimuli/pictures/1372_fw.png	130.85684275627136	
67	67.15875482559204	picture	0		94	65.0	/experiments/knapen_AOT/AOT_stimuli/pictures/1081_fw.png	130.87335848808289	0.791679859161377
67	67.93397998809814	response	0	j		65.0	/experiments/knapen_AOT/AOT_stimuli/pictures/1081_fw.png	131.648583650589	
68	67.95043468475342	picture	0		81	66.0	/experiments/knapen_AOT/AOT_stimuli/pictures/1873_fw.png	131.66503834724426	0.6798973083496094
68	68.6172616481781	response	0	k		66.0	/experiments/knapen_AOT/AOT_stimuli/pictures/1873_fw.png	132.33186531066895	
69	68.63033199310303	picture	0		112	67.0	/experiments/knapen_AOT/AOT_stimuli/pictures/0680_fw.png	132.34493565559387	0.9375307559967041
69	69.55892443656921	response	0	k		67.0	/experiments/knapen_AOT/AOT_stimuli/pictures/0680_fw.png	133.27352809906006	
70	69.56786274909973	picture	0		115	68.0	/experiments/knapen_AOT/AOT_stimuli/pictures/0917_fw.png	133.28246641159058	0.9582791328430176
70	70.51084971427917	response	0	j		68.0	/experiments/knapen_AOT/AOT_stimuli/pictures/0917_fw.png	134.22545337677002	
71	70.52614188194275	picture	0		122	69.0	/experiments/knapen_AOT/AOT_stimuli/pictures/0517_fw.png	134.2407455444336	1.0209035873413086
71	71.53402137756348	response	0	k		69.0	/experiments/knapen_AOT/AOT_stimuli/pictures/0517_fw.png	135.24862504005432	
72	71.54704546928406	picture	0		101	70.0	/experiments/knapen_AOT/AOT_stimuli/pictures/0874_fw.png	135.2616491317749	0.8403034210205078
72	72.37567114830017	response	0	k		70.0	/experiments/knapen_AOT/AOT_stimuli/pictures/0874_fw.png	136.09027481079102	
73	72.38734889030457	picture	0		69	71.0	/experiments/knapen_AOT/AOT_stimuli/pictures/0554_fw.png	136.1019525527954	0.576397180557251
73	72.95062375068665	response	0	j		71.0	/experiments/knapen_AOT/AOT_stimuli/pictures/0554_fw.png	136.6652274131775	
74	72.96374607086182	picture	0		72	72.0	/experiments/knapen_AOT/AOT_stimuli/pictures/1897_fw.png	136.67834973335266	0.597137451171875
74	73.55087971687317	response	0	k		72.0	/experiments/knapen_AOT/AOT_stimuli/pictures/1897_fw.png	137.265483379364	
75	73.56088352203369	picture	0		92	73.0	/experiments/knapen_AOT/AOT_stimuli/pictures/0021_fw.png	137.27548718452454	0.7729778289794922
75	74.31142973899841	response	0	k		73.0	/experiments/knapen_AOT/AOT_stimuli/pictures/0021_fw.png	138.02603340148926	
76	74.33386135101318	picture	0		110	74.0	/experiments/knapen_AOT/AOT_stimuli/pictures/0289_fw.png	138.04846501350403	0.9251542091369629
76	75.24250411987305	response	0	j		74.0	/experiments/knapen_AOT/AOT_stimuli/pictures/0289_fw.png	138.9571077823639	
77	75.25901556015015	picture	0		76	75.0	/experiments/knapen_AOT/AOT_stimuli/pictures/1265_fw.png	138.973619222641	0.6415326595306396
77	75.88407945632935	response	0	j		75.0	/experiments/knapen_AOT/AOT_stimuli/pictures/1265_fw.png	139.5986831188202	
78	75.90054821968079	picture	0		74	76.0	/experiments/knapen_AOT/AOT_stimuli/pictures/0495_fw.png	139.61515188217163	0.6250419616699219
78	76.50916409492493	response	0	k		76.0	/experiments/knapen_AOT/AOT_stimuli/pictures/0495_fw.png	140.22376775741577	
79	76.52559018135071	picture	0		83	77.0	/experiments/knapen_AOT/AOT_stimuli/pictures/1696_fw.png	140.24019384384155	0.6950352191925049
79	77.20902442932129	response	0	k		77.0	/experiments/knapen_AOT/AOT_stimuli/pictures/1696_fw.png	140.92362809181213	
80	77.22062540054321	picture	0		102	78.0	/experiments/knapen_AOT/AOT_stimuli/pictures/0516_fw.png	140.93522906303406	0.8472244739532471
80	78.05905604362488	response	0	k		78.0	/experiments/knapen_AOT/AOT_stimuli/pictures/0516_fw.png	141.77365970611572	
81	78.06784987449646	picture	0		81	79.0	/experiments/knapen_AOT/AOT_stimuli/pictures/1957_fw.png	141.7824535369873	0.6743762493133545
81	78.73416328430176	response	0	j		79.0	/experiments/knapen_AOT/AOT_stimuli/pictures/1957_fw.png	142.4487669467926	
82	78.74222612380981	picture	0		83	80.0	/experiments/knapen_AOT/AOT_stimuli/pictures/0642_fw.png	142.45682978630066	0.7000432014465332
82	79.42571258544922	response	0	k		80.0	/experiments/knapen_AOT/AOT_stimuli/pictures/0642_fw.png	143.14031624794006	
83	79.44226932525635	picture	0		81	81.0	/experiments/knapen_AOT/AOT_stimuli/pictures/1527_fw.png	143.1568729877472	0.6749694347381592
83	80.1091034412384	response	0	j		81.0	/experiments/knapen_AOT/AOT_stimuli/pictures/1527_fw.png	143.82370710372925	
84	80.1172387599945	picture	0		77	82.0	/experiments/knapen_AOT/AOT_stimuli/pictures/0814_fw.png	143.83184242248535	0.645071268081665
84	80.75074076652527	response	0	j		82.0	/experiments/knapen_AOT/AOT_stimuli/pictures/0814_fw.png	144.4653444290161	
85	80.76231002807617	picture	0		80	83.0	/experiments/knapen_AOT/AOT_stimuli/pictures/0797_fw.png	144.47691369056702	0.6716244220733643
85	81.41740798950195	response	0	k		83.0	/experiments/knapen_AOT/AOT_stimuli/pictures/0797_fw.png	145.1320116519928	
86	81.43393445014954	picture	0		74	84.0	/experiments/knapen_AOT/AOT_stimuli/pictures/1901_fw.png	145.14853811264038	0.6250126361846924
86	82.04245162010193	response	0	j		84.0	/experiments/knapen_AOT/AOT_stimuli/pictures/1901_fw.png	145.75705528259277	
87	82.05894708633423	picture	0		170	85.0	/experiments/knapen_AOT/AOT_stimuli/pictures/1578_fw.png	145.77355074882507	1.4185857772827148
87	83.4674425125122	response	0	j		85.0	/experiments/knapen_AOT/AOT_stimuli/pictures/1578_fw.png	147.18204617500305	
88	83.47753286361694	picture	0		83	86.0	/experiments/knapen_AOT/AOT_stimuli/pictures/1716_fw.png	147.1921365261078	0.6981945037841797
88	84.15931153297424	response	0	k		86.0	/experiments/knapen_AOT/AOT_stimuli/pictures/1716_fw.png	147.8739151954651	
89	84.17572736740112	picture	0		91	87.0	/experiments/knapen_AOT/AOT_stimuli/pictures/0878_fw.png	147.89033102989197	0.7666153907775879
89	84.91825413703918	response	0	k		87.0	/experiments/knapen_AOT/AOT_stimuli/pictures/0878_fw.png	148.63285779953003	
90	84.94234275817871	picture	0		78	88.0	/experiments/knapen_AOT/AOT_stimuli/pictures/1938_fw.png	148.65694642066956	0.6533889770507812
90	85.58417439460754	response	0	j		88.0	/experiments/knapen_AOT/AOT_stimuli/pictures/1938_fw.png	149.2987780570984	
91	85.59573173522949	picture	0		92	89.0	/experiments/knapen_AOT/AOT_stimuli/pictures/1439_fw.png	149.31033539772034	0.7638423442840576
91	86.3508358001709	response	0	j		89.0	/experiments/knapen_AOT/AOT_stimuli/pictures/1439_fw.png	150.06543946266174	
92	86.35957407951355	picture	0		98	90.0	/experiments/knapen_AOT/AOT_stimuli/pictures/0474_fw.png	150.0741777420044	0.8245046138763428
92	87.16748237609863	response	0	k		90.0	/experiments/knapen_AOT/AOT_stimuli/pictures/0474_fw.png	150.88208603858948	
93	87.18407869338989	picture	0		94	91.0	/experiments/knapen_AOT/AOT_stimuli/pictures/0374_fw.png	150.89868235588074	0.7916018962860107
93	87.95914506912231	response	0	k		91.0	/experiments/knapen_AOT/AOT_stimuli/pictures/0374_fw.png	151.67374873161316	
94	87.9756805896759	picture	0		83	92.0	/experiments/knapen_AOT/AOT_stimuli/pictures/1110_fw.png	151.69028425216675	0.6965219974517822
94	88.65917015075684	response	0	j		92.0	/experiments/knapen_AOT/AOT_stimuli/pictures/1110_fw.png	152.37377381324768	
95	88.67220258712769	picture	0		83	93.0	/experiments/knapen_AOT/AOT_stimuli/pictures/1204_fw.png	152.38680624961853	0.6874051094055176
95	89.35082411766052	response	0	k		93.0	/experiments/knapen_AOT/AOT_stimuli/pictures/1204_fw.png	153.06542778015137	
96	89.3596076965332	picture	0		103	94.0	/experiments/knapen_AOT/AOT_stimuli/pictures/2086_fw.png	153.07421135902405	0.861109733581543
96	90.20921993255615	response	0	k		94.0	/experiments/knapen_AOT/AOT_stimuli/pictures/2086_fw.png	153.923823595047	
97	90.22071743011475	picture	0		112	95.0	/experiments/knapen_AOT/AOT_stimuli/pictures/1183_fw.png	153.9353210926056	0.9383399486541748
97	91.14257216453552	response	0	j		95.0	/experiments/knapen_AOT/AOT_stimuli/pictures/1183_fw.png	154.85717582702637	
98	91.15905737876892	picture	0		87	96.0	/experiments/knapen_AOT/AOT_stimuli/pictures/2112_fw.png	154.87366104125977	0.7283730506896973
98	91.87586808204651	response	0	j		96.0	/experiments/knapen_AOT/AOT_stimuli/pictures/2112_fw.png	155.59047174453735	
99	91.88743042945862	picture	0		102	97.0	/experiments/knapen_AOT/AOT_stimuli/pictures/1310_fw.png	155.60203409194946	0.8471581935882568
99	92.72614049911499	response	0	k		97.0	/experiments/knapen_AOT/AOT_stimuli/pictures/1310_fw.png	156.44074416160583	
100	92.73458862304688	picture	0		157	98.0	/experiments/knapen_AOT/AOT_stimuli/pictures/0255_fw.png	156.44919228553772	1.3125150203704834
100	94.03430223464966	response	0	j		98.0	/experiments/knapen_AOT/AOT_stimuli/pictures/0255_fw.png	157.7489058971405	
101	94.04710364341736	picture	0		125	99.0	/experiments/knapen_AOT/AOT_stimuli/pictures/1325_fw.png	157.7617073059082	1.0486907958984375
101	95.08432292938232	response	0	j		99.0	/experiments/knapen_AOT/AOT_stimuli/pictures/1325_fw.png	158.79892659187317	
102	95.0957944393158	picture	0		102	100.0	/experiments/knapen_AOT/AOT_stimuli/pictures/0301_fw.png	158.81039810180664	0.8549942970275879
102	95.93431901931763	response	0	k		100.0	/experiments/knapen_AOT/AOT_stimuli/pictures/0301_fw.png	159.64892268180847	
103	95.95078873634338	picture	0		93	101.0	/experiments/knapen_AOT/AOT_stimuli/pictures/1040_fw.png	159.66539239883423	0.7833714485168457
103	96.71024870872498	response	0	k		101.0	/experiments/knapen_AOT/AOT_stimuli/pictures/1040_fw.png	160.42485237121582	
104	96.73416018486023	picture	0		148	102.0	/experiments/knapen_AOT/AOT_stimuli/pictures/1150_fw.png	160.44876384735107	1.241694450378418
104	97.95959281921387	response	0	j		102.0	/experiments/knapen_AOT/AOT_stimuli/pictures/1150_fw.png	161.6741964817047	
105	97.97585463523865	picture	0		106	103.0	/experiments/knapen_AOT/AOT_stimuli/pictures/0478_fw.png	161.6904582977295	0.8838257789611816
105	98.8509635925293	response	0	k		103.0	/experiments/knapen_AOT/AOT_stimuli/pictures/0478_fw.png	162.56556725502014	
106	98.85968041419983	picture	0		121	104.0	/experiments/knapen_AOT/AOT_stimuli/pictures/0322_fw.png	162.57428407669067	1.0078039169311523
106	99.85939025878906	response	0	k		104.0	/experiments/knapen_AOT/AOT_stimuli/pictures/0322_fw.png	163.5739939212799	
107	99.86748433113098	picture	0		88	105.0	/experiments/knapen_AOT/AOT_stimuli/pictures/0407_fw.png	163.58208799362183	0.7417154312133789
107	100.59270763397217	response	0	k		105.0	/experiments/knapen_AOT/AOT_stimuli/pictures/0407_fw.png	164.307311296463	
108	100.60919976234436	picture	0		78	106.0	/experiments/knapen_AOT/AOT_stimuli/pictures/0751_fw.png	164.3238034248352	0.6583597660064697
108	101.25106167793274	response	0	k		106.0	/experiments/knapen_AOT/AOT_stimuli/pictures/0751_fw.png	164.96566534042358	
109	101.26755952835083	picture	0		162	107.0	/experiments/knapen_AOT/AOT_stimuli/pictures/0320_fw.png	164.98216319084167	1.356053113937378
109	102.60937190055847	response	0	j		107.0	/experiments/knapen_AOT/AOT_stimuli/pictures/0320_fw.png	166.32397556304932	
110	102.62361264228821	picture	0		67	108.0	/experiments/knapen_AOT/AOT_stimuli/pictures/1838_fw.png	166.33821630477905	0.562509298324585
110	103.17609572410583	response	0	j		108.0	/experiments/knapen_AOT/AOT_stimuli/pictures/1838_fw.png	166.89069938659668	
111	103.1861219406128	picture	0		84	109.0	/experiments/knapen_AOT/AOT_stimuli/pictures/0481_fw.png	166.90072560310364	0.7064509391784668
111	103.87621784210205	response	0	k		109.0	/experiments/knapen_AOT/AOT_stimuli/pictures/0481_fw.png	167.5908215045929	
112	103.89257287979126	picture	0		75	110.0	/experiments/knapen_AOT/AOT_stimuli/pictures/1190_fw.png	167.6071765422821	0.6333277225494385
112	104.50935101509094	response	0	j		110.0	/experiments/knapen_AOT/AOT_stimuli/pictures/1190_fw.png	168.2239546775818	
113	104.5259006023407	picture	0		117	111.0	/experiments/knapen_AOT/AOT_stimuli/pictures/2136_fw.png	168.24050426483154	0.979701042175293
113	105.49276208877563	response	0	j		111.0	/experiments/knapen_AOT/AOT_stimuli/pictures/2136_fw.png	169.20736575126648	
114	105.50560164451599	picture	0		78	112.0	/experiments/knapen_AOT/AOT_stimuli/pictures/2042_fw.png	169.22020530700684	0.6458184719085693
114	106.14275217056274	response	0	j		112.0	/experiments/knapen_AOT/AOT_stimuli/pictures/2042_fw.png	169.8573558330536	
115	106.15142011642456	picture	0		87	113.0	/experiments/knapen_AOT/AOT_stimuli/pictures/0744_fw.png	169.8660237789154	0.7328729629516602
115	106.86775922775269	response	0	j		113.0	/experiments/knapen_AOT/AOT_stimuli/pictures/0744_fw.png	170.58236289024353	
116	106.88429307937622	picture	0		89	114.0	/experiments/knapen_AOT/AOT_stimuli/pictures/1672_fw.png	170.59889674186707	0.7463006973266602
116	107.61777687072754	response	0	k		114.0	/experiments/knapen_AOT/AOT_stimuli/pictures/1672_fw.png	171.33238053321838	
117	107.63059377670288	picture	0		92	115.0	/experiments/knapen_AOT/AOT_stimuli/pictures/0268_fw.png	171.34519743919373	0.7640275955200195
117	108.38450241088867	response	0	k		115.0	/experiments/knapen_AOT/AOT_stimuli/pictures/0268_fw.png	172.09910607337952	
118	108.3946213722229	picture	0		76	116.0	/experiments/knapen_AOT/AOT_stimuli/pictures/1891_fw.png	172.10922503471375	0.6396992206573486
118	109.01796531677246	response	0	j		116.0	/experiments/knapen_AOT/AOT_stimuli/pictures/1891_fw.png	172.7325689792633	
119	109.03432059288025	picture	0		73	117.0	/experiments/knapen_AOT/AOT_stimuli/pictures/0099_fw.png	172.7489242553711	0.6101858615875244
119	109.63447213172913	response	0	j		117.0	/experiments/knapen_AOT/AOT_stimuli/pictures/0099_fw.png	173.34907579421997	
120	109.64450645446777	picture	0		97	118.0	/experiments/knapen_AOT/AOT_stimuli/pictures/0438_fw.png	173.35911011695862	0.8148102760314941
120	110.44278573989868	response	0	j		118.0	/experiments/knapen_AOT/AOT_stimuli/pictures/0438_fw.png	174.15738940238953	
121	110.45931673049927	picture	0		87	119.0	/experiments/knapen_AOT/AOT_stimuli/pictures/0151_fw.png	174.1739203929901	0.726874589920044
121	111.17614817619324	response	0	k		119.0	/experiments/knapen_AOT/AOT_stimuli/pictures/0151_fw.png	174.89075183868408	
122	111.18619132041931	picture	0		90	120.0	/experiments/knapen_AOT/AOT_stimuli/pictures/1879_fw.png	174.90079498291016	0.7565281391143799
122	111.91852021217346	response	0	k		120.0	/experiments/knapen_AOT/AOT_stimuli/pictures/1879_fw.png	175.6331238746643	
123	111.94271945953369	picture	0		109	121.0	/experiments/knapen_AOT/AOT_stimuli/pictures/0794_fw.png	175.65732312202454	0.9102022647857666
123	112.84284567832947	response	0	k		121.0	/experiments/knapen_AOT/AOT_stimuli/pictures/0794_fw.png	176.5574493408203	
124	112.85292172431946	picture	0		81	122.0	/experiments/knapen_AOT/AOT_stimuli/pictures/2135_fw.png	176.5675253868103	0.6735692024230957
124	113.51100540161133	response	0	j		122.0	/experiments/knapen_AOT/AOT_stimuli/pictures/2135_fw.png	177.22560906410217	
125	113.52649092674255	picture	0		76	123.0	/experiments/knapen_AOT/AOT_stimuli/pictures/1154_fw.png	177.2410945892334	0.6328527927398682
125	114.15117049217224	response	0	j		123.0	/experiments/knapen_AOT/AOT_stimuli/pictures/1154_fw.png	177.8657741546631	
126	114.15934371948242	picture	0		95	124.0	/experiments/knapen_AOT/AOT_stimuli/pictures/0724_fw.png	177.87394738197327	0.7978212833404541
126	114.9428596496582	response	0	j		124.0	/experiments/knapen_AOT/AOT_stimuli/pictures/0724_fw.png	178.65746331214905	
127	114.95716500282288	picture	0		71	125.0	/experiments/knapen_AOT/AOT_stimuli/pictures/0175_fw.png	178.67176866531372	0.6022045612335205
127	115.54305505752563	response	0	j		125.0	/experiments/knapen_AOT/AOT_stimuli/pictures/0175_fw.png	179.25765872001648	
128	115.5593695640564	picture	0		154	126.0	/experiments/knapen_AOT/AOT_stimuli/pictures/0211_fw.png	179.27397322654724	1.2866151332855225
128	116.83450722694397	response	0	j		126.0	/experiments/knapen_AOT/AOT_stimuli/pictures/0211_fw.png	180.54911088943481	
129	116.84598469734192	picture	0		73	127.0	/experiments/knapen_AOT/AOT_stimuli/pictures/0316_fw.png	180.56058835983276	0.613544225692749
129	117.442862033844	response	0	j		127.0	/experiments/knapen_AOT/AOT_stimuli/pictures/0316_fw.png	181.15746569633484	
130	117.45952892303467	picture	0		145	128.0	/experiments/knapen_AOT/AOT_stimuli/pictures/1027_fw.png	181.1741325855255	1.2128214836120605
130	118.65953969955444	response	0	k		128.0	/experiments/knapen_AOT/AOT_stimuli/pictures/1027_fw.png	182.3741433620453	
131	118.67235040664673	picture	0		113	129.0	/experiments/knapen_AOT/AOT_stimuli/pictures/1590_fw.png	182.38695406913757	0.9537732601165771
131	119.61003994941711	response	0	j		129.0	/experiments/knapen_AOT/AOT_stimuli/pictures/1590_fw.png	183.32464361190796	
132	119.6261236667633	picture	0		78	130.0	/experiments/knapen_AOT/AOT_stimuli/pictures/0916_fw.png	183.34072732925415	0.6584193706512451
132	120.26794672012329	response	0	k		130.0	/experiments/knapen_AOT/AOT_stimuli/pictures/0916_fw.png	183.98255038261414	
133	120.28454303741455	picture	0		81	131.0	/experiments/knapen_AOT/AOT_stimuli/pictures/1301_fw.png	183.9991466999054	0.6832523345947266
133	120.95146036148071	response	0	k		131.0	/experiments/knapen_AOT/AOT_stimuli/pictures/1301_fw.png	184.66606402397156	
134	120.96779537200928	picture	0		81	132.0	/experiments/knapen_AOT/AOT_stimuli/pictures/1464_fw.png	184.68239903450012	0.6833586692810059
134	121.63465976715088	response	0	k		132.0	/experiments/knapen_AOT/AOT_stimuli/pictures/1464_fw.png	185.34926342964172	
135	121.65115404129028	picture	0		75	133.0	/experiments/knapen_AOT/AOT_stimuli/pictures/1750_fw.png	185.36575770378113	0.6254372596740723
135	122.2679922580719	response	0	k		133.0	/experiments/knapen_AOT/AOT_stimuli/pictures/1750_fw.png	185.98259592056274	
136	122.27659130096436	picture	0		93	134.0	/experiments/knapen_AOT/AOT_stimuli/pictures/1061_fw.png	185.9911949634552	0.7830040454864502
136	123.04321646690369	response	0	k		134.0	/experiments/knapen_AOT/AOT_stimuli/pictures/1061_fw.png	186.75782012939453	
137	123.0595953464508	picture	0		104	135.0	/experiments/knapen_AOT/AOT_stimuli/pictures/1245_fw.png	186.77419900894165	0.8749721050262451
137	123.91033482551575	response	0	j		135.0	/experiments/knapen_AOT/AOT_stimuli/pictures/1245_fw.png	187.6249384880066	
138	123.93456745147705	picture	0		81	136.0	/experiments/knapen_AOT/AOT_stimuli/pictures/0790_fw.png	187.6491711139679	0.6752886772155762
138	124.60130977630615	response	0	k		136.0	/experiments/knapen_AOT/AOT_stimuli/pictures/0790_fw.png	188.315913438797	
139	124.60985612869263	picture	0		106	137.0	/experiments/knapen_AOT/AOT_stimuli/pictures/1294_fw.png	188.32445979118347	0.8889214992523193
139	125.48464965820312	response	0	k		137.0	/experiments/knapen_AOT/AOT_stimuli/pictures/1294_fw.png	189.19925332069397	
140	125.49877762794495	picture	0		114	138.0	/experiments/knapen_AOT/AOT_stimuli/pictures/1949_fw.png	189.2133812904358	0.9607672691345215
140	126.44298934936523	response	0	j		138.0	/experiments/knapen_AOT/AOT_stimuli/pictures/1949_fw.png	190.15759301185608	
141	126.45954489707947	picture	0		73	139.0	/experiments/knapen_AOT/AOT_stimuli/pictures/2155_fw.png	190.1741485595703	0.6166560649871826
141	127.059734582901	response	0	j		139.0	/experiments/knapen_AOT/AOT_stimuli/pictures/2155_fw.png	190.77433824539185	
142	127.07620096206665	picture	0		78	140.0	/experiments/knapen_AOT/AOT_stimuli/pictures/1941_fw.png	190.7908046245575	0.651761531829834
142	127.7104640007019	response	0	k		140.0	/experiments/knapen_AOT/AOT_stimuli/pictures/1941_fw.png	191.42506766319275	
143	127.72796249389648	picture	0		90	141.0	/experiments/knapen_AOT/AOT_stimuli/pictures/0707_fw.png	191.44256615638733	0.7499878406524658
143	128.46843910217285	response	0	k		141.0	/experiments/knapen_AOT/AOT_stimuli/pictures/0707_fw.png	192.1830427646637	
144	128.47795033454895	picture	0		88	142.0	/experiments/knapen_AOT/AOT_stimuli/pictures/0146_fw.png	192.1925539970398	0.7399578094482422
144	129.2013292312622	response	0	k		142.0	/experiments/knapen_AOT/AOT_stimuli/pictures/0146_fw.png	192.91593289375305	
145	129.2179081439972	picture	0		81	143.0	/experiments/knapen_AOT/AOT_stimuli/pictures/2010_fw.png	192.93251180648804	0.6833739280700684
145	129.88491082191467	response	0	j		143.0	/experiments/knapen_AOT/AOT_stimuli/pictures/2010_fw.png	193.59951448440552	
146	129.90128207206726	picture	0		78	144.0	/experiments/knapen_AOT/AOT_stimuli/pictures/2076_fw.png	193.6158857345581	0.6530783176422119
146	130.54307079315186	response	0	j		144.0	/experiments/knapen_AOT/AOT_stimuli/pictures/2076_fw.png	194.2576744556427	
147	130.55436038970947	picture	0		73	145.0	/experiments/knapen_AOT/AOT_stimuli/pictures/2080_fw.png	194.26896405220032	0.611098051071167
147	131.15152716636658	response	0	j		145.0	/experiments/knapen_AOT/AOT_stimuli/pictures/2080_fw.png	194.86613082885742	
148	131.16545844078064	picture	0		73	146.0	/experiments/knapen_AOT/AOT_stimuli/pictures/1987_fw.png	194.88006210327148	0.6111655235290527
148	131.76803994178772	response	0	j		146.0	/experiments/knapen_AOT/AOT_stimuli/pictures/1987_fw.png	195.48264360427856	
149	131.7766239643097	picture	0		82	147.0	/experiments/knapen_AOT/AOT_stimuli/pictures/0863_fw.png	195.49122762680054	0.6913530826568604
149	132.45136642456055	response	0	j		147.0	/experiments/knapen_AOT/AOT_stimuli/pictures/0863_fw.png	196.1659700870514	
150	132.46797704696655	picture	0		104	148.0	/experiments/knapen_AOT/AOT_stimuli/pictures/0362_fw.png	196.1825807094574	0.8711388111114502
150	133.32663083076477	response	0	j		148.0	/experiments/knapen_AOT/AOT_stimuli/pictures/0362_fw.png	197.04123449325562	
151	133.339115858078	picture	0		80	149.0	/experiments/knapen_AOT/AOT_stimuli/pictures/0435_fw.png	197.05371952056885	0.6788187026977539
151	134.0014865398407	response	0	j		149.0	/experiments/knapen_AOT/AOT_stimuli/pictures/0435_fw.png	197.71609020233154	
152	134.01793456077576	picture	0		140	150.0	/experiments/knapen_AOT/AOT_stimuli/pictures/1049_fw.png	197.7325382232666	1.1683886051177979
152	135.17642307281494	response	0	j		150.0	/experiments/knapen_AOT/AOT_stimuli/pictures/1049_fw.png	198.8910267353058	
153	135.18632316589355	picture	0		87	151.0	/experiments/knapen_AOT/AOT_stimuli/pictures/0684_fw.png	198.9009268283844	0.7316710948944092
153	135.89415216445923	response	0	k		151.0	/experiments/knapen_AOT/AOT_stimuli/pictures/0684_fw.png	199.60875582695007	
154	135.91799426078796	picture	0		135	152.0	/experiments/knapen_AOT/AOT_stimuli/pictures/1545_fw.png	199.6325979232788	1.1295051574707031
154	137.03476405143738	response	0	j		152.0	/experiments/knapen_AOT/AOT_stimuli/pictures/1545_fw.png	200.74936771392822	
155	137.04749941825867	picture	0		127	153.0	/experiments/knapen_AOT/AOT_stimuli/pictures/1002_fw.png	200.7621030807495	1.070507287979126
155	138.09530520439148	response	0	k		153.0	/experiments/knapen_AOT/AOT_stimuli/pictures/1002_fw.png	201.80990886688232	
156	138.1180067062378	picture	0		137	154.0	/experiments/knapen_AOT/AOT_stimuli/pictures/1824_fw.png	201.83261036872864	1.149998664855957
156	139.25150299072266	response	0	k		154.0	/experiments/knapen_AOT/AOT_stimuli/pictures/1824_fw.png	202.9661066532135	
157	139.26800537109375	picture	0		107	155.0	/experiments/knapen_AOT/AOT_stimuli/pictures/1196_fw.png	202.9826090335846	0.9183709621429443
157	140.15153431892395	response	0	k		155.0	/experiments/knapen_AOT/AOT_stimuli/pictures/1196_fw.png	203.8661379814148	
158	140.1863763332367	picture	0		85	156.0	/experiments/knapen_AOT/AOT_stimuli/pictures/0899_fw.png	203.90097999572754	0.7083539962768555
158	140.88501477241516	response	0	k		156.0	/experiments/knapen_AOT/AOT_stimuli/pictures/0899_fw.png	204.599618434906	
159	140.89473032951355	picture	0		83	157.0	/experiments/knapen_AOT/AOT_stimuli/pictures/1008_fw.png	204.6093339920044	0.6945075988769531
159	141.57652020454407	response	0	k		157.0	/experiments/knapen_AOT/AOT_stimuli/pictures/1008_fw.png	205.2911238670349	
160	141.5892379283905	picture	0		78	158.0	/experiments/knapen_AOT/AOT_stimuli/pictures/1278_fw.png	205.30384159088135	0.6538240909576416
160	142.22652435302734	response	0	j		158.0	/experiments/knapen_AOT/AOT_stimuli/pictures/1278_fw.png	205.9411280155182	
161	142.24306201934814	picture	0		109	159.0	/experiments/knapen_AOT/AOT_stimuli/pictures/1845_fw.png	205.957665681839	0.9167079925537109
161	143.14324760437012	response	0	k		159.0	/experiments/knapen_AOT/AOT_stimuli/pictures/1845_fw.png	206.85785126686096	
162	143.15977001190186	picture	0		77	160.0	/experiments/knapen_AOT/AOT_stimuli/pictures/1526_fw.png	206.8743736743927	0.6516664028167725
162	143.79353284835815	response	0	k		160.0	/experiments/knapen_AOT/AOT_stimuli/pictures/1526_fw.png	207.508136510849	
163	143.81143641471863	picture	0		124	161.0	/experiments/knapen_AOT/AOT_stimuli/pictures/0038_fw.png	207.52604007720947	1.039978265762329
163	144.83488845825195	response	0	k		161.0	/experiments/knapen_AOT/AOT_stimuli/pictures/0038_fw.png	208.5494921207428	
164	144.85141468048096	picture	0		85	162.0	/experiments/knapen_AOT/AOT_stimuli/pictures/1952_fw.png	208.5660183429718	0.7100050449371338
164	145.5515899658203	response	0	j		162.0	/experiments/knapen_AOT/AOT_stimuli/pictures/1952_fw.png	209.26619362831116	
165	145.5614197254181	picture	0		82	163.0	/experiments/knapen_AOT/AOT_stimuli/pictures/0451_fw.png	209.27602338790894	0.6900317668914795
165	146.234965801239	response	0	j		163.0	/experiments/knapen_AOT/AOT_stimuli/pictures/0451_fw.png	209.94956946372986	
166	146.25145149230957	picture	0		117	164.0	/experiments/knapen_AOT/AOT_stimuli/pictures/2001_fw.png	209.96605515480042	0.983443021774292
166	147.2182674407959	response	0	k		164.0	/experiments/knapen_AOT/AOT_stimuli/pictures/2001_fw.png	210.93287110328674	
167	147.23489451408386	picture	0		165	165.0	/experiments/knapen_AOT/AOT_stimuli/pictures/0865_fw.png	210.9494981765747	1.3750474452972412
167	148.60159826278687	response	0	k		165.0	/experiments/knapen_AOT/AOT_stimuli/pictures/0865_fw.png	212.3162019252777	
168	148.6099419593811	picture	0		89	166.0	/experiments/knapen_AOT/AOT_stimuli/pictures/1126_fw.png	212.32454562187195	0.7498764991760254
168	149.34338212013245	response	0	k		166.0	/experiments/knapen_AOT/AOT_stimuli/pictures/1126_fw.png	213.0579857826233	
169	149.35981845855713	picture	0		87	167.0	/experiments/knapen_AOT/AOT_stimuli/pictures/0766_fw.png	213.07442212104797	0.7294232845306396
169	150.0766327381134	response	0	j		167.0	/experiments/knapen_AOT/AOT_stimuli/pictures/0766_fw.png	213.79123640060425	
170	150.08924174308777	picture	0		95	168.0	/experiments/knapen_AOT/AOT_stimuli/pictures/0377_fw.png	213.8038454055786	0.7916717529296875
170	150.86827683448792	response	0	j		168.0	/experiments/knapen_AOT/AOT_stimuli/pictures/0377_fw.png	214.58288049697876	
171	150.88091349601746	picture	0		88	169.0	/experiments/knapen_AOT/AOT_stimuli/pictures/2118_fw.png	214.5955171585083	0.7430768013000488
171	151.6099956035614	response	0	k		169.0	/experiments/knapen_AOT/AOT_stimuli/pictures/2118_fw.png	215.32459926605225	
172	151.6239902973175	picture	0		104	170.0	/experiments/knapen_AOT/AOT_stimuli/pictures/1131_fw.png	215.33859395980835	0.8775618076324463
172	152.4852273464203	response	0	k		170.0	/experiments/knapen_AOT/AOT_stimuli/pictures/1131_fw.png	216.19983100891113	
173	152.50155210494995	picture	0		80	171.0	/experiments/knapen_AOT/AOT_stimuli/pictures/2095_fw.png	216.2161557674408	0.6750259399414062
173	153.15999555587769	response	0	j		171.0	/experiments/knapen_AOT/AOT_stimuli/pictures/2095_fw.png	216.87459921836853	
174	153.17657804489136	picture	0		75	172.0	/experiments/knapen_AOT/AOT_stimuli/pictures/0264_fw.png	216.8911817073822	0.7598845958709717
174	153.9267556667328	response	0	k		172.0	/experiments/knapen_AOT/AOT_stimuli/pictures/0264_fw.png	217.64135932922363	
175	153.93646264076233	picture	0		85	173.0	/experiments/knapen_AOT/AOT_stimuli/pictures/1728_fw.png	217.65106630325317	0.7083759307861328
175	154.63505697250366	response	0	k		173.0	/experiments/knapen_AOT/AOT_stimuli/pictures/1728_fw.png	218.3496606349945	
176	154.64483857154846	picture	0		94	174.0	/experiments/knapen_AOT/AOT_stimuli/pictures/1972_fw.png	218.3594422340393	0.7847299575805664
176	155.41845870018005	response	0	k		174.0	/experiments/knapen_AOT/AOT_stimuli/pictures/1972_fw.png	219.1330623626709	
177	155.42956852912903	picture	0		77	175.0	/experiments/knapen_AOT/AOT_stimuli/pictures/1662_fw.png	219.14417219161987	0.6470024585723877
177	156.06013202667236	response	0	k		175.0	/experiments/knapen_AOT/AOT_stimuli/pictures/1662_fw.png	219.7747356891632	
178	156.07657098770142	picture	0		118	176.0	/experiments/knapen_AOT/AOT_stimuli/pictures/1234_fw.png	219.79117465019226	0.9849472045898438
178	157.05182766914368	response	0	j		176.0	/experiments/knapen_AOT/AOT_stimuli/pictures/1234_fw.png	220.76643133163452	
179	157.06151819229126	picture	0		131	177.0	/experiments/knapen_AOT/AOT_stimuli/pictures/0621_fw.png	220.7761218547821	1.0984277725219727
179	158.1437544822693	response	0	j		177.0	/experiments/knapen_AOT/AOT_stimuli/pictures/0621_fw.png	221.85835814476013	
180	158.15994596481323	picture	0		82	178.0	/experiments/knapen_AOT/AOT_stimuli/pictures/1883_fw.png	221.87454962730408	0.6862964630126953
180	158.8351330757141	response	0	j		178.0	/experiments/knapen_AOT/AOT_stimuli/pictures/1883_fw.png	222.54973673820496	
181	158.84624242782593	picture	0		123	179.0	/experiments/knapen_AOT/AOT_stimuli/pictures/1326_fw.png	222.56084609031677	1.0303704738616943
181	159.86014699935913	response	0	k		179.0	/experiments/knapen_AOT/AOT_stimuli/pictures/1326_fw.png	223.57475066184998	
182	159.87661290168762	picture	0		86	180.0	/experiments/knapen_AOT/AOT_stimuli/pictures/1882_fw.png	223.59121656417847	0.7250392436981201
182	160.58517456054688	response	0	j		180.0	/experiments/knapen_AOT/AOT_stimuli/pictures/1882_fw.png	224.29977822303772	
183	160.60165214538574	picture	0		81	181.0	/experiments/knapen_AOT/AOT_stimuli/pictures/0049_fw.png	224.3162558078766	0.6833124160766602
183	161.26850152015686	response	0	j		181.0	/experiments/knapen_AOT/AOT_stimuli/pictures/0049_fw.png	224.9831051826477	
184	161.2849645614624	picture	0		101	182.0	/experiments/knapen_AOT/AOT_stimuli/pictures/1702_fw.png	224.99956822395325	0.8460426330566406
184	162.1185097694397	response	0	j		182.0	/experiments/knapen_AOT/AOT_stimuli/pictures/1702_fw.png	225.83311343193054	
185	162.13100719451904	picture	0		88	183.0	/experiments/knapen_AOT/AOT_stimuli/pictures/2030_fw.png	225.8456108570099	0.7291600704193115
185	162.85189366340637	response	0	j		183.0	/experiments/knapen_AOT/AOT_stimuli/pictures/2030_fw.png	226.56649732589722	
186	162.86016726493835	picture	0		90	184.0	/experiments/knapen_AOT/AOT_stimuli/pictures/2102_fw.png	226.5747709274292	0.7500221729278564
186	163.60187005996704	response	0	k		184.0	/experiments/knapen_AOT/AOT_stimuli/pictures/2102_fw.png	227.31647372245789	
187	163.6101894378662	picture	0		71	185.0	/experiments/knapen_AOT/AOT_stimuli/pictures/1693_fw.png	227.32479310035706	0.5998554229736328
187	164.19357085227966	response	0	j		185.0	/experiments/knapen_AOT/AOT_stimuli/pictures/1693_fw.png	227.9081745147705	
188	164.21004486083984	picture	0		76	186.0	/experiments/knapen_AOT/AOT_stimuli/pictures/1792_fw.png	227.9246485233307	0.6362190246582031
188	164.8352394104004	response	0	j		186.0	/experiments/knapen_AOT/AOT_stimuli/pictures/1792_fw.png	228.54984307289124	
189	164.84626388549805	picture	0		91	187.0	/experiments/knapen_AOT/AOT_stimuli/pictures/0118_fw.png	228.5608675479889	0.7569758892059326
189	165.59358859062195	response	0	j		187.0	/experiments/knapen_AOT/AOT_stimuli/pictures/0118_fw.png	229.3081922531128	
190	165.60323977470398	picture	0		67	188.0	/experiments/knapen_AOT/AOT_stimuli/pictures/1074_fw.png	229.31784343719482	0.5624892711639404
190	166.15187621116638	response	0	j		188.0	/experiments/knapen_AOT/AOT_stimuli/pictures/1074_fw.png	229.86647987365723	
191	166.16572904586792	picture	0		119	189.0	/experiments/knapen_AOT/AOT_stimuli/pictures/0883_fw.png	229.88033270835876	1.000016689300537
191	167.1518998146057	response	0	j		189.0	/experiments/knapen_AOT/AOT_stimuli/pictures/0883_fw.png	230.86650347709656	
192	167.16574573516846	picture	0		123	190.0	/experiments/knapen_AOT/AOT_stimuli/pictures/1997_fw.png	230.8803493976593	1.0277698040008545
192	168.1852376461029	response	0	k		190.0	/experiments/knapen_AOT/AOT_stimuli/pictures/1997_fw.png	231.89984130859375	
193	168.1935155391693	picture	0		98	191.0	/experiments/knapen_AOT/AOT_stimuli/pictures/0783_fw.png	231.90811920166016	0.819554328918457
193	169.00193285942078	response	0	k		191.0	/experiments/knapen_AOT/AOT_stimuli/pictures/0783_fw.png	232.71653652191162	
194	169.01306986808777	picture	0		81	192.0	/experiments/knapen_AOT/AOT_stimuli/pictures/1515_fw.png	232.7276735305786	0.6735312938690186
194	169.67696166038513	response	0	j		192.0	/experiments/knapen_AOT/AOT_stimuli/pictures/1515_fw.png	233.39156532287598	
195	169.6866011619568	picture	0		84	193.0	/experiments/knapen_AOT/AOT_stimuli/pictures/1580_fw.png	233.40120482444763	0.7068288326263428
195	170.37697339057922	response	0	j		193.0	/experiments/knapen_AOT/AOT_stimuli/pictures/1580_fw.png	234.09157705307007	
196	170.39342999458313	picture	0		74	194.0	/experiments/knapen_AOT/AOT_stimuli/pictures/0547_fw.png	234.10803365707397	0.6250090599060059
196	171.0022532939911	response	0	j		194.0	/experiments/knapen_AOT/AOT_stimuli/pictures/0547_fw.png	234.71685695648193	
197	171.01843905448914	picture	0		88	195.0	/experiments/knapen_AOT/AOT_stimuli/pictures/0250_fw.png	234.73304271697998	0.7416796684265137
197	171.74366450309753	response	0	k		195.0	/experiments/knapen_AOT/AOT_stimuli/pictures/0250_fw.png	235.45826816558838	
198	171.76011872291565	picture	0		80	196.0	/experiments/knapen_AOT/AOT_stimuli/pictures/0949_fw.png	235.4747223854065	0.6696650981903076
198	172.4186670780182	response	0	k		196.0	/experiments/knapen_AOT/AOT_stimuli/pictures/0949_fw.png	236.13327074050903	
199	172.42978382110596	picture	0		88	197.0	/experiments/knapen_AOT/AOT_stimuli/pictures/0991_fw.png	236.1443874835968	0.7360246181488037
199	173.1519627571106	response	0	j		197.0	/experiments/knapen_AOT/AOT_stimuli/pictures/0991_fw.png	236.86656641960144	
200	173.16580843925476	picture	0		77	198.0	/experiments/knapen_AOT/AOT_stimuli/pictures/1297_fw.png	236.8804121017456	0.6458308696746826
200	173.8019950389862	response	0	k		198.0	/experiments/knapen_AOT/AOT_stimuli/pictures/1297_fw.png	237.51659870147705	
201	173.81163930892944	picture	0		74	199.0	/experiments/knapen_AOT/AOT_stimuli/pictures/0983_fw.png	237.5262429714203	0.6235926151275635
201	174.41868591308594	response	0	j		199.0	/experiments/knapen_AOT/AOT_stimuli/pictures/0983_fw.png	238.13328957557678	
202	174.435231924057	picture	0		67	200.0	/experiments/knapen_AOT/AOT_stimuli/pictures/2169_fw.png	238.14983558654785	0.5666279792785645
202	174.9854907989502	response	0	j		200.0	/experiments/knapen_AOT/AOT_stimuli/pictures/2169_fw.png	238.70009446144104	
203	175.00185990333557	picture	0		107	201.0	/experiments/knapen_AOT/AOT_stimuli/pictures/0464_fw.png	238.71646356582642	0.8999791145324707
203	175.88533687591553	response	0	j		201.0	/experiments/knapen_AOT/AOT_stimuli/pictures/0464_fw.png	239.59994053840637	
204	175.90183901786804	picture	0		87	202.0	/experiments/knapen_AOT/AOT_stimuli/pictures/0994_fw.png	239.6164426803589	0.7292604446411133
204	176.61868166923523	response	0	k		202.0	/experiments/knapen_AOT/AOT_stimuli/pictures/0994_fw.png	240.33328533172607	
205	176.63109946250916	picture	0		105	203.0	/experiments/knapen_AOT/AOT_stimuli/pictures/1235_fw.png	240.345703125	0.8750650882720947
205	177.48669409751892	response	0	j		203.0	/experiments/knapen_AOT/AOT_stimuli/pictures/1235_fw.png	241.20129776000977	
206	177.50616455078125	picture	0		110	204.0	/experiments/knapen_AOT/AOT_stimuli/pictures/0001_fw.png	241.2207682132721	0.9166390895843506
206	178.41038489341736	response	0	j		204.0	/experiments/knapen_AOT/AOT_stimuli/pictures/0001_fw.png	242.1249885559082	
207	178.4228036403656	picture	0		84	205.0	/experiments/knapen_AOT/AOT_stimuli/pictures/1916_fw.png	242.13740730285645	0.704258918762207
207	179.10288071632385	response	0	j		205.0	/experiments/knapen_AOT/AOT_stimuli/pictures/1916_fw.png	242.8174843788147	
208	179.1270625591278	picture	0		156	206.0	/experiments/knapen_AOT/AOT_stimuli/pictures/0480_fw.png	242.84166622161865	1.3082191944122314
208	180.4187150001526	response	0	j		206.0	/experiments/knapen_AOT/AOT_stimuli/pictures/0480_fw.png	244.13331866264343	
209	180.43528175354004	picture	0		188	207.0	/experiments/knapen_AOT/AOT_stimuli/pictures/2070_fw.png	244.14988541603088	1.5707719326019287
209	181.99385619163513	response	0	k		207.0	/experiments/knapen_AOT/AOT_stimuli/pictures/2070_fw.png	245.70845985412598	
210	182.00605368614197	picture	0		88	208.0	/experiments/knapen_AOT/AOT_stimuli/pictures/1409_fw.png	245.7206573486328	0.7375247478485107
210	182.72734785079956	response	0	k		208.0	/experiments/knapen_AOT/AOT_stimuli/pictures/1409_fw.png	246.4419515132904	
211	182.74357843399048	picture	0		81	209.0	/experiments/knapen_AOT/AOT_stimuli/pictures/1859_fw.png	246.45818209648132	0.6833271980285645
211	183.4104597568512	response	0	j		209.0	/experiments/knapen_AOT/AOT_stimuli/pictures/1859_fw.png	247.12506341934204	
212	183.42690563201904	picture	0		71	210.0	/experiments/knapen_AOT/AOT_stimuli/pictures/2039_fw.png	247.1415092945099	0.6002054214477539
212	184.01053977012634	response	0	j		210.0	/experiments/knapen_AOT/AOT_stimuli/pictures/2039_fw.png	247.7251434326172	
213	184.0271110534668	picture	0		90	211.0	/experiments/knapen_AOT/AOT_stimuli/pictures/1520_fw.png	247.74171471595764	0.7499210834503174
213	184.76878333091736	response	0	j		211.0	/experiments/knapen_AOT/AOT_stimuli/pictures/1520_fw.png	248.4833869934082	
214	184.77703213691711	picture	0		94	212.0	/experiments/knapen_AOT/AOT_stimuli/pictures/1742_fw.png	248.49163579940796	0.7847089767456055
214	185.55226349830627	response	0	j		212.0	/experiments/knapen_AOT/AOT_stimuli/pictures/1742_fw.png	249.26686716079712	
215	185.56174111366272	picture	0		78	213.0	/experiments/knapen_AOT/AOT_stimuli/pictures/0631_fw.png	249.27634477615356	0.6528005599975586
215	186.20220112800598	response	0	j		213.0	/experiments/knapen_AOT/AOT_stimuli/pictures/0631_fw.png	249.91680479049683	
216	186.21454167366028	picture	0		79	214.0	/experiments/knapen_AOT/AOT_stimuli/pictures/0162_fw.png	249.92914533615112	0.6707990169525146
216	186.86893844604492	response	0	k		214.0	/experiments/knapen_AOT/AOT_stimuli/pictures/0162_fw.png	250.58354210853577	
217	186.8853406906128	picture	0		82	215.0	/experiments/knapen_AOT/AOT_stimuli/pictures/0423_fw.png	250.59994435310364	0.6916253566741943
217	187.56049418449402	response	0	j		215.0	/experiments/knapen_AOT/AOT_stimuli/pictures/0423_fw.png	251.27509784698486	
218	187.576966047287	picture	0		79	216.0	/experiments/knapen_AOT/AOT_stimuli/pictures/1272_fw.png	251.29156970977783	0.6666858196258545
218	188.22731375694275	response	0	k		216.0	/experiments/knapen_AOT/AOT_stimuli/pictures/1272_fw.png	251.9419174194336	
219	188.24365186691284	picture	0		86	217.0	/experiments/knapen_AOT/AOT_stimuli/pictures/0570_fw.png	251.9582555294037	0.7250490188598633
219	188.9521918296814	response	0	k		217.0	/experiments/knapen_AOT/AOT_stimuli/pictures/0570_fw.png	252.66679549217224	
220	188.9687008857727	picture	0		70	218.0	/experiments/knapen_AOT/AOT_stimuli/pictures/0608_fw.png	252.68330454826355	0.5916275978088379
220	189.54386472702026	response	0	j		218.0	/experiments/knapen_AOT/AOT_stimuli/pictures/0608_fw.png	253.2584683895111	
221	189.56032848358154	picture	0		86	219.0	/experiments/knapen_AOT/AOT_stimuli/pictures/1562_fw.png	253.2749321460724	0.7250239849090576
221	190.2688980102539	response	0	j		219.0	/experiments/knapen_AOT/AOT_stimuli/pictures/1562_fw.png	253.98350167274475	
222	190.2853524684906	picture	0		104	220.0	/experiments/knapen_AOT/AOT_stimuli/pictures/0903_fw.png	253.99995613098145	0.8750252723693848
222	191.14387321472168	response	0	k		220.0	/experiments/knapen_AOT/AOT_stimuli/pictures/0903_fw.png	254.85847687721252	
223	191.16037774085999	picture	0		88	221.0	/experiments/knapen_AOT/AOT_stimuli/pictures/1198_fw.png	254.87498140335083	0.7347171306610107
223	191.8855516910553	response	0	j		221.0	/experiments/knapen_AOT/AOT_stimuli/pictures/1198_fw.png	255.60015535354614	
224	191.895094871521	picture	0		180	222.0	/experiments/knapen_AOT/AOT_stimuli/pictures/1835_fw.png	255.60969853401184	1.5069739818572998
224	193.38582396507263	response	0	k		222.0	/experiments/knapen_AOT/AOT_stimuli/pictures/1835_fw.png	257.1004276275635	
225	193.4020688533783	picture	0		182	223.0	/experiments/knapen_AOT/AOT_stimuli/pictures/0812_fw.png	257.11667251586914	1.5250451564788818
225	194.9107744693756	response	0	j		223.0	/experiments/knapen_AOT/AOT_stimuli/pictures/0812_fw.png	258.62537813186646	
226	194.92711400985718	picture	0		72	224.0	/experiments/knapen_AOT/AOT_stimuli/pictures/2071_fw.png	258.641717672348	0.608292818069458
226	195.5189287662506	response	0	j		224.0	/experiments/knapen_AOT/AOT_stimuli/pictures/2071_fw.png	259.23353242874146	
227	195.53540682792664	picture	0		79	225.0	/experiments/knapen_AOT/AOT_stimuli/pictures/1930_fw.png	259.2500104904175	0.6584315299987793
227	196.18563151359558	response	0	k		225.0	/experiments/knapen_AOT/AOT_stimuli/pictures/1930_fw.png	259.9002351760864	
228	196.19383835792542	picture	0		109	226.0	/experiments/knapen_AOT/AOT_stimuli/pictures/2143_fw.png	259.90844202041626	0.916661262512207
228	197.094074010849	response	0	k		226.0	/experiments/knapen_AOT/AOT_stimuli/pictures/2143_fw.png	260.80867767333984	
229	197.11049962043762	picture	0		188	227.0	/experiments/knapen_AOT/AOT_stimuli/pictures/0188_fw.png	260.82510328292847	1.5749726295471191
229	198.668954372406	response	0	j		227.0	/experiments/knapen_AOT/AOT_stimuli/pictures/0188_fw.png	262.38355803489685	
230	198.68547224998474	picture	0		83	228.0	/experiments/knapen_AOT/AOT_stimuli/pictures/1551_fw.png	262.4000759124756	0.700096607208252
230	199.3692102432251	response	0	k		228.0	/experiments/knapen_AOT/AOT_stimuli/pictures/1551_fw.png	263.08381390571594	
231	199.385568857193	picture	0		106	229.0	/experiments/knapen_AOT/AOT_stimuli/pictures/1323_fw.png	263.10017251968384	0.891603946685791
231	200.26085233688354	response	0	j		229.0	/experiments/knapen_AOT/AOT_stimuli/pictures/1323_fw.png	263.9754559993744	
232	200.27717280387878	picture	0		77	230.0	/experiments/knapen_AOT/AOT_stimuli/pictures/0581_fw.png	263.99177646636963	0.6499767303466797
232	200.9106957912445	response	0	k		230.0	/experiments/knapen_AOT/AOT_stimuli/pictures/0581_fw.png	264.62529945373535	
233	200.92714953422546	picture	0		223	231.0	/experiments/knapen_AOT/AOT_stimuli/pictures/1292_fw.png	264.6417531967163	1.8637959957122803
233	202.77734112739563	response	0	j		231.0	/experiments/knapen_AOT/AOT_stimuli/pictures/1292_fw.png	266.4919447898865	
234	202.79094552993774	picture	0		115	232.0	/experiments/knapen_AOT/AOT_stimuli/pictures/0274_fw.png	266.5055491924286	0.9653878211975098
234	203.74404501914978	response	0	j		232.0	/experiments/knapen_AOT/AOT_stimuli/pictures/0274_fw.png	267.4586486816406	
235	203.75633335113525	picture	0		98	233.0	/experiments/knapen_AOT/AOT_stimuli/pictures/1123_fw.png	267.4709370136261	0.8125486373901367
235	204.56068348884583	response	0	k		233.0	/experiments/knapen_AOT/AOT_stimuli/pictures/1123_fw.png	268.27528715133667	
236	204.5688819885254	picture	0		93	234.0	/experiments/knapen_AOT/AOT_stimuli/pictures/1927_fw.png	268.28348565101624	0.783297061920166
236	205.33646893501282	response	0	j		234.0	/experiments/knapen_AOT/AOT_stimuli/pictures/1927_fw.png	269.05107259750366	
237	205.35217905044556	picture	0		113	235.0	/experiments/knapen_AOT/AOT_stimuli/pictures/0649_fw.png	269.0667827129364	0.9500236511230469
237	206.28585147857666	response	0	k		235.0	/experiments/knapen_AOT/AOT_stimuli/pictures/0649_fw.png	270.0004551410675	
238	206.3022027015686	picture	0		85	236.0	/experiments/knapen_AOT/AOT_stimuli/pictures/2123_fw.png	270.01680636405945	0.7111320495605469
238	207.00239729881287	response	0	k		236.0	/experiments/knapen_AOT/AOT_stimuli/pictures/2123_fw.png	270.7170009613037	
239	207.01333475112915	picture	0		79	237.0	/experiments/knapen_AOT/AOT_stimuli/pictures/1149_fw.png	270.72793841362	0.6639161109924316
239	207.66100573539734	response	0	j		237.0	/experiments/knapen_AOT/AOT_stimuli/pictures/1149_fw.png	271.3756093978882	
240	207.67725086212158	picture	0		75	238.0	/experiments/knapen_AOT/AOT_stimuli/pictures/2113_fw.png	271.3918545246124	0.6276607513427734
240	208.28709864616394	response	0	k		238.0	/experiments/knapen_AOT/AOT_stimuli/pictures/2113_fw.png	272.0017023086548	
241	208.30491161346436	picture	0		102	239.0	/experiments/knapen_AOT/AOT_stimuli/pictures/0791_fw.png	272.0195152759552	0.8556907176971436
241	209.14410758018494	response	0	k		239.0	/experiments/knapen_AOT/AOT_stimuli/pictures/0791_fw.png	272.8587112426758	
242	209.1606023311615	picture	0		85	240.0	/experiments/knapen_AOT/AOT_stimuli/pictures/1843_fw.png	272.87520599365234	0.7138381004333496
242	209.86079668998718	response	0	k		240.0	/experiments/knapen_AOT/AOT_stimuli/pictures/1843_fw.png	273.575400352478	
243	209.87444043159485	picture	0		86	241.0	/experiments/knapen_AOT/AOT_stimuli/pictures/0077_fw.png	273.5890440940857	0.7221753597259521
243	210.5857765674591	response	0	j		241.0	/experiments/knapen_AOT/AOT_stimuli/pictures/0077_fw.png	274.30038022994995	
244	210.5966157913208	picture	0		86	242.0	/experiments/knapen_AOT/AOT_stimuli/pictures/1348_fw.png	274.31121945381165	0.7223505973815918
244	211.30285811424255	response	0	k		242.0	/experiments/knapen_AOT/AOT_stimuli/pictures/1348_fw.png	275.0174617767334	
245	211.3189663887024	picture	0		181	243.0	/experiments/knapen_AOT/AOT_stimuli/pictures/0166_fw.png	275.03357005119324	1.5166609287261963
245	212.81953287124634	response	0	k		243.0	/experiments/knapen_AOT/AOT_stimuli/pictures/0166_fw.png	276.5341365337372	
246	212.8356273174286	picture	0		104	244.0	/experiments/knapen_AOT/AOT_stimuli/pictures/1224_fw.png	276.55023097991943	0.8721277713775635
246	213.68649792671204	response	0	j		244.0	/experiments/knapen_AOT/AOT_stimuli/pictures/1224_fw.png	277.4011015892029	
247	213.70775508880615	picture	0		80	245.0	/experiments/knapen_AOT/AOT_stimuli/pictures/0545_fw.png	277.422358751297	0.6736218929290771
247	214.3691565990448	response	0	k		245.0	/experiments/knapen_AOT/AOT_stimuli/pictures/0545_fw.png	278.08376026153564	
248	214.38137698173523	picture	0		104	246.0	/experiments/knapen_AOT/AOT_stimuli/pictures/1484_fw.png	278.0959806442261	0.8709394931793213
248	215.23601484298706	response	0	j		246.0	/experiments/knapen_AOT/AOT_stimuli/pictures/1484_fw.png	278.9506185054779	
249	215.25231647491455	picture	0		86	247.0	/experiments/knapen_AOT/AOT_stimuli/pictures/0142_fw.png	278.9669201374054	0.7250339984893799
249	215.9608702659607	response	0	k		247.0	/experiments/knapen_AOT/AOT_stimuli/pictures/0142_fw.png	279.67547392845154	
250	215.97735047340393	picture	0		71	248.0	/experiments/knapen_AOT/AOT_stimuli/pictures/0413_fw.png	279.6919541358948	0.5999865531921387
250	216.56095361709595	response	0	j		248.0	/experiments/knapen_AOT/AOT_stimuli/pictures/0413_fw.png	280.2755572795868	
251	216.57733702659607	picture	0		146	249.0	/experiments/knapen_AOT/AOT_stimuli/pictures/0538_fw.png	280.2919406890869	1.2250561714172363
251	217.78589344024658	response	0	j		249.0	/experiments/knapen_AOT/AOT_stimuli/pictures/0538_fw.png	281.5004971027374	
252	217.8023931980133	picture	0		78	250.0	/experiments/knapen_AOT/AOT_stimuli/pictures/0716_fw.png	281.51699686050415	0.6553997993469238
252	218.44422340393066	response	0	k		250.0	/experiments/knapen_AOT/AOT_stimuli/pictures/0716_fw.png	282.1588270664215	
253	218.45779299736023	picture	0		87	251.0	/experiments/knapen_AOT/AOT_stimuli/pictures/0470_fw.png	282.1723966598511	0.7362334728240967
253	219.17758774757385	response	0	j		251.0	/experiments/knapen_AOT/AOT_stimuli/pictures/0470_fw.png	282.8921914100647	
254	219.19402647018433	picture	0		93	252.0	/experiments/knapen_AOT/AOT_stimuli/pictures/2170_fw.png	282.90863013267517	0.7833633422851562
254	219.96091771125793	response	0	k		252.0	/experiments/knapen_AOT/AOT_stimuli/pictures/2170_fw.png	283.6755213737488	
255	219.97738981246948	picture	0		92	253.0	/experiments/knapen_AOT/AOT_stimuli/pictures/0526_fw.png	283.6919934749603	0.7750885486602783
255	220.73589372634888	response	0	k		253.0	/experiments/knapen_AOT/AOT_stimuli/pictures/0526_fw.png	284.4504973888397	
256	220.75247836112976	picture	0		86	254.0	/experiments/knapen_AOT/AOT_stimuli/pictures/1607_fw.png	284.4670820236206	0.7249181270599365
256	221.46118783950806	response	0	j		254.0	/experiments/knapen_AOT/AOT_stimuli/pictures/1607_fw.png	285.1757915019989	
257	221.4773964881897	picture	0		87	255.0	/experiments/knapen_AOT/AOT_stimuli/pictures/0913_fw.png	285.19200015068054	0.7333965301513672
257	222.19444823265076	response	0	k		255.0	/experiments/knapen_AOT/AOT_stimuli/pictures/0913_fw.png	285.9090518951416	
258	222.21079301834106	picture	0		86	256.0	/experiments/knapen_AOT/AOT_stimuli/pictures/0760_fw.png	285.9253966808319	0.7249710559844971
258	222.9192943572998	response	0	k		256.0	/experiments/knapen_AOT/AOT_stimuli/pictures/0760_fw.png	286.63389801979065	
259	222.93576407432556	picture	0		85	257.0	/experiments/knapen_AOT/AOT_stimuli/pictures/1825_fw.png	286.6503677368164	0.716667652130127
259	223.63614201545715	response	0	j		257.0	/experiments/knapen_AOT/AOT_stimuli/pictures/1825_fw.png	287.350745677948	
260	223.6524317264557	picture	0		100	258.0	/experiments/knapen_AOT/AOT_stimuli/pictures/0134_fw.png	287.36703538894653	0.841688871383667
260	224.47766518592834	response	0	k		258.0	/experiments/knapen_AOT/AOT_stimuli/pictures/0134_fw.png	288.1922688484192	
261	224.49412059783936	picture	0		87	259.0	/experiments/knapen_AOT/AOT_stimuli/pictures/2013_fw.png	288.2087242603302	0.727642297744751
261	225.21098041534424	response	0	k		259.0	/experiments/knapen_AOT/AOT_stimuli/pictures/2013_fw.png	288.9255840778351	
262	225.2217628955841	picture	0		81	260.0	/experiments/knapen_AOT/AOT_stimuli/pictures/0369_fw.png	288.93636655807495	0.6806912422180176
262	225.87939882278442	response	0	k		260.0	/experiments/knapen_AOT/AOT_stimuli/pictures/0369_fw.png	289.59400248527527	
263	225.90245413780212	picture	0		77	261.0	/experiments/knapen_AOT/AOT_stimuli/pictures/0468_fw.png	289.61705780029297	0.6500329971313477
263	226.53597569465637	response	0	k		261.0	/experiments/knapen_AOT/AOT_stimuli/pictures/0468_fw.png	290.2505793571472	
264	226.55248713493347	picture	0		141	262.0	/experiments/knapen_AOT/AOT_stimuli/pictures/0031_fw.png	290.2670907974243	1.1833209991455078
264	227.71934962272644	response	0	k		262.0	/experiments/knapen_AOT/AOT_stimuli/pictures/0031_fw.png	291.4339532852173	
265	227.73580813407898	picture	0		103	263.0	/experiments/knapen_AOT/AOT_stimuli/pictures/1752_fw.png	291.4504117965698	0.8679072856903076
265	228.58618235588074	response	0	j		263.0	/experiments/knapen_AOT/AOT_stimuli/pictures/1752_fw.png	292.3007860183716	
266	228.6037154197693	picture	0		71	264.0	/experiments/knapen_AOT/AOT_stimuli/pictures/1978_fw.png	292.31831908226013	0.5987987518310547
266	229.18600463867188	response	0	k		264.0	/experiments/knapen_AOT/AOT_stimuli/pictures/1978_fw.png	292.9006083011627	
267	229.20251417160034	picture	0		88	265.0	/experiments/knapen_AOT/AOT_stimuli/pictures/1194_fw.png	292.9171178340912	0.7416520118713379
267	229.9276819229126	response	0	j		265.0	/experiments/knapen_AOT/AOT_stimuli/pictures/1194_fw.png	293.64228558540344	
268	229.94416618347168	picture	0		85	266.0	/experiments/knapen_AOT/AOT_stimuli/pictures/0004_fw.png	293.6587698459625	0.7166957855224609
268	230.6444447040558	response	0	j		266.0	/experiments/knapen_AOT/AOT_stimuli/pictures/0004_fw.png	294.35904836654663	
269	230.66086196899414	picture	0		82	267.0	/experiments/knapen_AOT/AOT_stimuli/pictures/0063_fw.png	294.375465631485	0.6916892528533936
269	231.33609437942505	response	0	j		267.0	/experiments/knapen_AOT/AOT_stimuli/pictures/0063_fw.png	295.0506980419159	
270	231.35255122184753	picture	0		130	268.0	/experiments/knapen_AOT/AOT_stimuli/pictures/0515_fw.png	295.0671548843384	1.0916619300842285
270	232.42786931991577	response	0	k		268.0	/experiments/knapen_AOT/AOT_stimuli/pictures/0515_fw.png	296.1424729824066	
271	232.44421315193176	picture	0		77	269.0	/experiments/knapen_AOT/AOT_stimuli/pictures/1374_fw.png	296.1588168144226	0.6500108242034912
271	233.07772207260132	response	0	k		269.0	/experiments/knapen_AOT/AOT_stimuli/pictures/1374_fw.png	296.79232573509216	
272	233.09422397613525	picture	0		89	270.0	/experiments/knapen_AOT/AOT_stimuli/pictures/1637_fw.png	296.8088276386261	0.7456374168395996
272	233.8277461528778	response	0	j		270.0	/experiments/knapen_AOT/AOT_stimuli/pictures/1637_fw.png	297.54234981536865	
273	233.83986139297485	picture	0		96	271.0	/experiments/knapen_AOT/AOT_stimuli/pictures/0585_fw.png	297.5544650554657	0.8045003414154053
273	234.62803530693054	response	0	j		271.0	/experiments/knapen_AOT/AOT_stimuli/pictures/0585_fw.png	298.3426389694214	
274	234.64436173439026	picture	0		81	272.0	/experiments/knapen_AOT/AOT_stimuli/pictures/1721_fw.png	298.3589653968811	0.6832387447357178
274	235.31111240386963	response	0	j		272.0	/experiments/knapen_AOT/AOT_stimuli/pictures/1721_fw.png	299.0257160663605	
275	235.32760047912598	picture	0		81	273.0	/experiments/knapen_AOT/AOT_stimuli/pictures/1151_fw.png	299.0422041416168	0.6789393424987793
275	235.99439144134521	response	0	k		273.0	/experiments/knapen_AOT/AOT_stimuli/pictures/1151_fw.png	299.70899510383606	
276	236.00653982162476	picture	0		71	274.0	/experiments/knapen_AOT/AOT_stimuli/pictures/0494_fw.png	299.7211434841156	0.5960752964019775
276	236.58611369132996	response	0	j		274.0	/experiments/knapen_AOT/AOT_stimuli/pictures/0494_fw.png	300.3007173538208	
277	236.60261511802673	picture	0		78	275.0	/experiments/knapen_AOT/AOT_stimuli/pictures/1848_fw.png	300.3172187805176	0.6583504676818848
277	237.24455904960632	response	0	k		275.0	/experiments/knapen_AOT/AOT_stimuli/pictures/1848_fw.png	300.95916271209717	
278	237.26096558570862	picture	0		121	276.0	/experiments/knapen_AOT/AOT_stimuli/pictures/1058_fw.png	300.97556924819946	1.0166263580322266
278	238.26122999191284	response	0	k		276.0	/experiments/knapen_AOT/AOT_stimuli/pictures/1058_fw.png	301.9758336544037	
279	238.27759194374084	picture	0		160	277.0	/experiments/knapen_AOT/AOT_stimuli/pictures/0826_fw.png	301.9921956062317	1.3333444595336914
279	239.60288381576538	response	0	j		277.0	/experiments/knapen_AOT/AOT_stimuli/pictures/0826_fw.png	303.3174874782562	
280	239.61093640327454	picture	0		83	278.0	/experiments/knapen_AOT/AOT_stimuli/pictures/0079_fw.png	303.3255400657654	0.7000439167022705
280	240.2868950366974	response	0	j		278.0	/experiments/knapen_AOT/AOT_stimuli/pictures/0079_fw.png	304.00149869918823	
281	240.3109803199768	picture	0		88	279.0	/experiments/knapen_AOT/AOT_stimuli/pictures/0902_fw.png	304.02558398246765	0.7417230606079102
281	241.03632140159607	response	0	j		279.0	/experiments/knapen_AOT/AOT_stimuli/pictures/0902_fw.png	304.7509250640869	
282	241.05270338058472	picture	0		91	280.0	/experiments/knapen_AOT/AOT_stimuli/pictures/1905_fw.png	304.76730704307556	0.7666068077087402
282	241.8030388355255	response	0	k		280.0	/experiments/knapen_AOT/AOT_stimuli/pictures/1905_fw.png	305.51764249801636	
283	241.81931018829346	picture	0		97	281.0	/experiments/knapen_AOT/AOT_stimuli/pictures/0152_fw.png	305.5339138507843	0.8122820854187012
283	242.61954879760742	response	0	j		281.0	/experiments/knapen_AOT/AOT_stimuli/pictures/0152_fw.png	306.33415246009827	
284	242.63159227371216	picture	0		101	282.0	/experiments/knapen_AOT/AOT_stimuli/pictures/0544_fw.png	306.346195936203	0.8461856842041016
284	243.46121406555176	response	0	j		282.0	/experiments/knapen_AOT/AOT_stimuli/pictures/0544_fw.png	307.1758177280426	
285	243.47777795791626	picture	0		88	283.0	/experiments/knapen_AOT/AOT_stimuli/pictures/0303_fw.png	307.1923816204071	0.7440989017486572
285	244.20287442207336	response	0	j		283.0	/experiments/knapen_AOT/AOT_stimuli/pictures/0303_fw.png	307.9174780845642	
286	244.22187685966492	picture	0		82	284.0	/experiments/knapen_AOT/AOT_stimuli/pictures/0925_fw.png	307.93648052215576	0.6875193119049072
286	244.89469051361084	response	0	k		284.0	/experiments/knapen_AOT/AOT_stimuli/pictures/0925_fw.png	308.6092941761017	
287	244.90939617156982	picture	0		83	285.0	/experiments/knapen_AOT/AOT_stimuli/pictures/0510_fw.png	308.62399983406067	0.7016308307647705
287	245.59457874298096	response	0	j		285.0	/experiments/knapen_AOT/AOT_stimuli/pictures/0510_fw.png	309.3091824054718	
288	245.6110270023346	picture	0		69	286.0	/experiments/knapen_AOT/AOT_stimuli/pictures/0406_fw.png	309.32563066482544	0.5835328102111816
288	246.17790508270264	response	0	j		286.0	/experiments/knapen_AOT/AOT_stimuli/pictures/0406_fw.png	309.8925087451935	
289	246.19455981254578	picture	0		78	287.0	/experiments/knapen_AOT/AOT_stimuli/pictures/0968_fw.png	309.9091634750366	0.6523284912109375
289	246.83627915382385	response	0	j		287.0	/experiments/knapen_AOT/AOT_stimuli/pictures/0968_fw.png	310.5508828163147	
290	246.8468883037567	picture	0		82	288.0	/experiments/knapen_AOT/AOT_stimuli/pictures/1367_fw.png	310.56149196624756	0.6891956329345703
290	247.51997566223145	response	0	k		288.0	/experiments/knapen_AOT/AOT_stimuli/pictures/1367_fw.png	311.2345793247223	
291	247.53608393669128	picture	0		90	289.0	/experiments/knapen_AOT/AOT_stimuli/pictures/1262_fw.png	311.25068759918213	0.7583217620849609
291	248.2779438495636	response	0	k		289.0	/experiments/knapen_AOT/AOT_stimuli/pictures/1262_fw.png	311.99254751205444	
292	248.29440569877625	picture	0		88	290.0	/experiments/knapen_AOT/AOT_stimuli/pictures/1164_fw.png	312.0090093612671	0.7416737079620361
292	249.01960563659668	response	0	k		290.0	/experiments/knapen_AOT/AOT_stimuli/pictures/1164_fw.png	312.7342092990875	
293	249.03607940673828	picture	0		82	291.0	/experiments/knapen_AOT/AOT_stimuli/pictures/0338_fw.png	312.7506830692291	0.6916964054107666
293	249.7113311290741	response	0	j		291.0	/experiments/knapen_AOT/AOT_stimuli/pictures/0338_fw.png	313.42593479156494	
294	249.72777581214905	picture	0		89	292.0	/experiments/knapen_AOT/AOT_stimuli/pictures/1779_fw.png	313.4423794746399	0.7500181198120117
294	250.4613859653473	response	0	j		292.0	/experiments/knapen_AOT/AOT_stimuli/pictures/1779_fw.png	314.17598962783813	
295	250.47779393196106	picture	0		96	293.0	/experiments/knapen_AOT/AOT_stimuli/pictures/0043_fw.png	314.1923975944519	0.808363676071167
295	251.26262402534485	response	0	j		293.0	/experiments/knapen_AOT/AOT_stimuli/pictures/0043_fw.png	314.9772276878357	
296	251.28615760803223	picture	0		107	294.0	/experiments/knapen_AOT/AOT_stimuli/pictures/1178_fw.png	315.00076127052307	0.8999671936035156
296	252.16962671279907	response	0	j		294.0	/experiments/knapen_AOT/AOT_stimuli/pictures/1178_fw.png	315.8842303752899	
297	252.18612480163574	picture	0		71	295.0	/experiments/knapen_AOT/AOT_stimuli/pictures/0979_fw.png	315.9007284641266	0.6000878810882568
297	252.7696464061737	response	0	j		295.0	/experiments/knapen_AOT/AOT_stimuli/pictures/0979_fw.png	316.48425006866455	
298	252.786212682724	picture	0		85	296.0	/experiments/knapen_AOT/AOT_stimuli/pictures/0626_fw.png	316.50081634521484	0.7166464328765869
298	253.48664331436157	response	0	k		296.0	/experiments/knapen_AOT/AOT_stimuli/pictures/0626_fw.png	317.2012469768524	
299	253.5028591156006	picture	0		107	297.0	/experiments/knapen_AOT/AOT_stimuli/pictures/0772_fw.png	317.21746277809143	0.8999509811401367
299	254.38642811775208	response	0	k		297.0	/experiments/knapen_AOT/AOT_stimuli/pictures/0772_fw.png	318.1010317802429	
300	254.40281009674072	picture	0		82	298.0	/experiments/knapen_AOT/AOT_stimuli/pictures/1967_fw.png	318.11741375923157	0.6916677951812744
300	255.07044410705566	response	0	j		298.0	/experiments/knapen_AOT/AOT_stimuli/pictures/1967_fw.png	318.7850477695465	
301	255.094477891922	picture	0		91	299.0	/experiments/knapen_AOT/AOT_stimuli/pictures/1807_fw.png	318.80908155441284	0.7594029903411865
301	255.84471225738525	response	0	k		299.0	/experiments/knapen_AOT/AOT_stimuli/pictures/1807_fw.png	319.5593159198761	
302	255.85388088226318	picture	0		106	300.0	/experiments/knapen_AOT/AOT_stimuli/pictures/1130_fw.png	319.568484544754	0.8906431198120117
302	256.72808289527893	response	0	j		300.0	/experiments/knapen_AOT/AOT_stimuli/pictures/1130_fw.png	320.4426865577698	
303	256.7445240020752	picture	0		97	301.0	/experiments/knapen_AOT/AOT_stimuli/pictures/2094_fw.png	320.45912766456604	0.8166751861572266
303	257.5449540615082	response	0	k		301.0	/experiments/knapen_AOT/AOT_stimuli/pictures/2094_fw.png	321.259557723999	
304	257.5611991882324	picture	0		82	302.0	/experiments/knapen_AOT/AOT_stimuli/pictures/0952_fw.png	321.27580285072327	0.6916754245758057
304	258.23640751838684	response	0	j		302.0	/experiments/knapen_AOT/AOT_stimuli/pictures/0952_fw.png	321.9510111808777	
305	258.2528746128082	picture	0		99	303.0	/experiments/knapen_AOT/AOT_stimuli/pictures/0805_fw.png	321.9674782752991	0.8333756923675537
305	259.0697617530823	response	0	k		303.0	/experiments/knapen_AOT/AOT_stimuli/pictures/0805_fw.png	322.7843654155731	
306	259.0862503051758	picture	0		86	304.0	/experiments/knapen_AOT/AOT_stimuli/pictures/1120_fw.png	322.8008539676666	0.7249701023101807
306	259.7947380542755	response	0	j		304.0	/experiments/knapen_AOT/AOT_stimuli/pictures/1120_fw.png	323.50934171676636	
307	259.81122040748596	picture	0		87	305.0	/experiments/knapen_AOT/AOT_stimuli/pictures/0761_fw.png	323.5258240699768	0.7302694320678711
307	260.528112411499	response	0	j		305.0	/experiments/knapen_AOT/AOT_stimuli/pictures/0761_fw.png	324.24271607398987	
308	260.54148983955383	picture	0		103	306.0	/experiments/knapen_AOT/AOT_stimuli/pictures/0367_fw.png	324.2560935020447	0.8697450160980225
308	261.39474296569824	response	0	k		306.0	/experiments/knapen_AOT/AOT_stimuli/pictures/0367_fw.png	325.1093466281891	
309	261.41123485565186	picture	0		93	307.0	/experiments/knapen_AOT/AOT_stimuli/pictures/0026_fw.png	325.1258385181427	0.7833335399627686
309	262.17829847335815	response	0	k		307.0	/experiments/knapen_AOT/AOT_stimuli/pictures/0026_fw.png	325.892902135849	
310	262.1945683956146	picture	0		73	308.0	/experiments/knapen_AOT/AOT_stimuli/pictures/2051_fw.png	325.90917205810547	0.6166789531707764
310	262.79485726356506	response	0	k		308.0	/experiments/knapen_AOT/AOT_stimuli/pictures/2051_fw.png	326.5094609260559	
311	262.8112473487854	picture	0		86	309.0	/experiments/knapen_AOT/AOT_stimuli/pictures/0095_fw.png	326.52585101127625	0.72503662109375
311	263.51983284950256	response	0	j		309.0	/experiments/knapen_AOT/AOT_stimuli/pictures/0095_fw.png	327.2344365119934	
312	263.53628396987915	picture	0		89	310.0	/experiments/knapen_AOT/AOT_stimuli/pictures/1890_fw.png	327.25088763237	0.7499852180480957
312	264.2635042667389	response	0	j		310.0	/experiments/knapen_AOT/AOT_stimuli/pictures/1890_fw.png	327.97810792922974	
313	264.28626918792725	picture	0		76	311.0	/experiments/knapen_AOT/AOT_stimuli/pictures/0655_fw.png	328.0008728504181	0.6417016983032227
313	264.91147685050964	response	0	k		311.0	/experiments/knapen_AOT/AOT_stimuli/pictures/0655_fw.png	328.6260805130005	
314	264.92797088623047	picture	0		246	312.0	/experiments/knapen_AOT/AOT_stimuli/pictures/0945_fw.png	328.6425745487213	2.058452844619751
314	266.9701988697052	response	0	k		312.0	/experiments/knapen_AOT/AOT_stimuli/pictures/0945_fw.png	330.68480253219604	
315	266.9864237308502	picture	0		105	313.0	/experiments/knapen_AOT/AOT_stimuli/pictures/2105_fw.png	330.70102739334106	0.8815724849700928
315	267.85322403907776	response	0	k		313.0	/experiments/knapen_AOT/AOT_stimuli/pictures/2105_fw.png	331.5678277015686	
316	267.8679962158203	picture	0		81	314.0	/experiments/knapen_AOT/AOT_stimuli/pictures/1727_fw.png	331.58259987831116	0.6850087642669678
316	268.5365674495697	response	0	j		314.0	/experiments/knapen_AOT/AOT_stimuli/pictures/1727_fw.png	332.25117111206055	
317	268.5530049800873	picture	0		113	315.0	/experiments/knapen_AOT/AOT_stimuli/pictures/0351_fw.png	332.2676086425781	0.950026273727417
317	269.4866671562195	response	0	j		315.0	/experiments/knapen_AOT/AOT_stimuli/pictures/0351_fw.png	333.2012708187103	
318	269.5030312538147	picture	0		96	316.0	/experiments/knapen_AOT/AOT_stimuli/pictures/0907_fw.png	333.21763491630554	0.8083255290985107
318	270.29492831230164	response	0	k		316.0	/experiments/knapen_AOT/AOT_stimuli/pictures/0907_fw.png	334.0095319747925	
319	270.3113567829132	picture	0		115	317.0	/experiments/knapen_AOT/AOT_stimuli/pictures/1968_fw.png	334.02596044540405	0.9666757583618164
319	271.2618341445923	response	0	k		317.0	/experiments/knapen_AOT/AOT_stimuli/pictures/1968_fw.png	334.97643780708313	
320	271.278032541275	picture	0		74	318.0	/experiments/knapen_AOT/AOT_stimuli/pictures/0882_fw.png	334.99263620376587	0.6250269412994385
320	271.8792543411255	response	0	k		318.0	/experiments/knapen_AOT/AOT_stimuli/pictures/0882_fw.png	335.59385800361633	
321	271.90305948257446	picture	0		69	319.0	/experiments/knapen_AOT/AOT_stimuli/pictures/0027_fw.png	335.6176631450653	0.5833096504211426
321	272.46297669410706	response	0	j		319.0	/experiments/knapen_AOT/AOT_stimuli/pictures/0027_fw.png	336.1775803565979	
322	272.4863691329956	picture	0		82	320.0	/experiments/knapen_AOT/AOT_stimuli/pictures/1223_fw.png	336.20097279548645	0.691673755645752
322	273.1619408130646	response	0	k		320.0	/experiments/knapen_AOT/AOT_stimuli/pictures/1223_fw.png	336.8765444755554	
323	273.17804288864136	picture	0		85	321.0	/experiments/knapen_AOT/AOT_stimuli/pictures/0368_fw.png	336.8926465511322	0.7176556587219238
323	273.8709695339203	response	0	k		321.0	/experiments/knapen_AOT/AOT_stimuli/pictures/0368_fw.png	337.58557319641113	
324	273.8956985473633	picture	0		96	322.0	/experiments/knapen_AOT/AOT_stimuli/pictures/1160_fw.png	337.6103022098541	0.8073961734771729
324	274.6866018772125	response	0	k		322.0	/experiments/knapen_AOT/AOT_stimuli/pictures/1160_fw.png	338.40120553970337	
325	274.70309472084045	picture	0		75	323.0	/experiments/knapen_AOT/AOT_stimuli/pictures/0010_fw.png	338.4176983833313	0.633328914642334
325	275.3199167251587	response	0	j		323.0	/experiments/knapen_AOT/AOT_stimuli/pictures/0010_fw.png	339.03452038764954	
326	275.3364236354828	picture	0		130	324.0	/experiments/knapen_AOT/AOT_stimuli/pictures/1889_fw.png	339.05102729797363	1.091698169708252
326	276.4116222858429	response	0	j		324.0	/experiments/knapen_AOT/AOT_stimuli/pictures/1889_fw.png	340.12622594833374	
327	276.42812180519104	picture	0		90	325.0	/experiments/knapen_AOT/AOT_stimuli/pictures/0845_fw.png	340.1427254676819	0.758324146270752
327	277.16997241973877	response	0	k		325.0	/experiments/knapen_AOT/AOT_stimuli/pictures/0845_fw.png	340.8845760822296	
328	277.1864459514618	picture	0		102	326.0	/experiments/knapen_AOT/AOT_stimuli/pictures/0628_fw.png	340.90104961395264	0.8583695888519287
328	278.02830505371094	response	0	j		326.0	/experiments/knapen_AOT/AOT_stimuli/pictures/0628_fw.png	341.7429087162018	
329	278.0448155403137	picture	0		104	327.0	/experiments/knapen_AOT/AOT_stimuli/pictures/1273_fw.png	341.75941920280457	0.8750159740447998
329	278.90336060523987	response	0	k		327.0	/experiments/knapen_AOT/AOT_stimuli/pictures/1273_fw.png	342.6179642677307	
330	278.9198315143585	picture	0		72	328.0	/experiments/knapen_AOT/AOT_stimuli/pictures/0115_fw.png	342.63443517684937	0.6083297729492188
330	279.51187658309937	response	0	k		328.0	/experiments/knapen_AOT/AOT_stimuli/pictures/0115_fw.png	343.2264802455902	
331	279.52816128730774	picture	0		73	329.0	/experiments/knapen_AOT/AOT_stimuli/pictures/0428_fw.png	343.2427649497986	0.6176061630249023
331	280.1283781528473	response	0	k		329.0	/experiments/knapen_AOT/AOT_stimuli/pictures/0428_fw.png	343.84298181533813	
332	280.14576745033264	picture	0		85	330.0	/experiments/knapen_AOT/AOT_stimuli/pictures/0743_fw.png	343.8603711128235	0.7157070636749268
332	280.84499883651733	response	0	k		330.0	/experiments/knapen_AOT/AOT_stimuli/pictures/0743_fw.png	344.5596024990082	
333	280.86147451400757	picture	0		124	331.0	/experiments/knapen_AOT/AOT_stimuli/pictures/1415_fw.png	344.5760781764984	1.0417084693908691
333	281.87947726249695	response	0	k		331.0	/experiments/knapen_AOT/AOT_stimuli/pictures/1415_fw.png	345.5940809249878	
334	281.90318298339844	picture	0		84	332.0	/experiments/knapen_AOT/AOT_stimuli/pictures/0039_fw.png	345.6177866458893	0.7083299160003662
334	282.59510254859924	response	0	k		332.0	/experiments/knapen_AOT/AOT_stimuli/pictures/0039_fw.png	346.3097062110901	
335	282.6115128993988	picture	0		127	333.0	/experiments/knapen_AOT/AOT_stimuli/pictures/2166_fw.png	346.32611656188965	1.0667226314544678
335	283.6617920398712	response	0	k		333.0	/experiments/knapen_AOT/AOT_stimuli/pictures/2166_fw.png	347.37639570236206	
336	283.67823553085327	picture	0		101	334.0	/experiments/knapen_AOT/AOT_stimuli/pictures/0132_fw.png	347.3928391933441	0.8426241874694824
336	284.5116994380951	response	0	k		334.0	/experiments/knapen_AOT/AOT_stimuli/pictures/0132_fw.png	348.22630310058594	
337	284.52085971832275	picture	0		97	335.0	/experiments/knapen_AOT/AOT_stimuli/pictures/1955_fw.png	348.2354633808136	0.8156991004943848
337	285.32004618644714	response	0	j		335.0	/experiments/knapen_AOT/AOT_stimuli/pictures/1955_fw.png	349.034649848938	
338	285.33655881881714	picture	0		97	336.0	/experiments/knapen_AOT/AOT_stimuli/pictures/1012_fw.png	349.051162481308	0.8166604042053223
338	286.1367406845093	response	0	k		336.0	/experiments/knapen_AOT/AOT_stimuli/pictures/1012_fw.png	349.8513443470001	
339	286.15321922302246	picture	0		85	337.0	/experiments/knapen_AOT/AOT_stimuli/pictures/1784_fw.png	349.8678228855133	0.7167747020721436
339	286.84727025032043	response	0	j		337.0	/experiments/knapen_AOT/AOT_stimuli/pictures/1784_fw.png	350.5618739128113	
340	286.8699939250946	picture	0		125	338.0	/experiments/knapen_AOT/AOT_stimuli/pictures/1390_fw.png	350.58459758758545	1.0499353408813477
340	287.90369486808777	response	0	j		338.0	/experiments/knapen_AOT/AOT_stimuli/pictures/1390_fw.png	351.6182985305786	
341	287.91992926597595	picture	0		75	339.0	/experiments/knapen_AOT/AOT_stimuli/pictures/1903_fw.png	351.6345329284668	0.633345365524292
341	288.5367953777313	response	0	k		339.0	/experiments/knapen_AOT/AOT_stimuli/pictures/1903_fw.png	352.25139904022217	
342	288.55327463150024	picture	0		130	340.0	/experiments/knapen_AOT/AOT_stimuli/pictures/0456_fw.png	352.2678782939911	1.0916762351989746
342	289.6285147666931	response	0	k		340.0	/experiments/knapen_AOT/AOT_stimuli/pictures/0456_fw.png	353.34311842918396	
343	289.6449508666992	picture	0		101	341.0	/experiments/knapen_AOT/AOT_stimuli/pictures/0412_fw.png	353.35955452919006	0.8499960899353027
343	290.47865176200867	response	0	k		341.0	/experiments/knapen_AOT/AOT_stimuli/pictures/0412_fw.png	354.1932554244995	
344	290.4949469566345	picture	0		76	342.0	/experiments/knapen_AOT/AOT_stimuli/pictures/0589_fw.png	354.20955061912537	0.6370043754577637
344	291.1201913356781	response	0	j		342.0	/experiments/knapen_AOT/AOT_stimuli/pictures/0589_fw.png	354.83479499816895	
345	291.1319513320923	picture	0		90	343.0	/experiments/knapen_AOT/AOT_stimuli/pictures/1932_fw.png	354.84655499458313	0.7546930313110352
345	291.87018752098083	response	0	k		343.0	/experiments/knapen_AOT/AOT_stimuli/pictures/1932_fw.png	355.5847911834717	
346	291.8866443634033	picture	0		78	344.0	/experiments/knapen_AOT/AOT_stimuli/pictures/0342_fw.png	355.60124802589417	0.6583542823791504
346	292.52851366996765	response	0	k		344.0	/experiments/knapen_AOT/AOT_stimuli/pictures/0342_fw.png	356.2431173324585	
347	292.54499864578247	picture	0		87	345.0	/experiments/knapen_AOT/AOT_stimuli/pictures/2141_fw.png	356.2596023082733	0.7333049774169922
347	293.2619469165802	response	0	k		345.0	/experiments/knapen_AOT/AOT_stimuli/pictures/2141_fw.png	356.97655057907104	
348	293.27830362319946	picture	0		70	346.0	/experiments/knapen_AOT/AOT_stimuli/pictures/1584_fw.png	356.9929072856903	0.5916905403137207
348	293.8535318374634	response	0	j		346.0	/experiments/knapen_AOT/AOT_stimuli/pictures/1584_fw.png	357.5681354999542	
349	293.8699941635132	picture	0		77	347.0	/experiments/knapen_AOT/AOT_stimuli/pictures/2036_fw.png	357.584597826004	0.6500015258789062
349	294.50353503227234	response	0	k		347.0	/experiments/knapen_AOT/AOT_stimuli/pictures/2036_fw.png	358.2181386947632	
350	294.5199956893921	picture	0		72	348.0	/experiments/knapen_AOT/AOT_stimuli/pictures/0399_fw.png	358.23459935188293	0.6084244251251221
350	295.1119430065155	response	0	k		348.0	/experiments/knapen_AOT/AOT_stimuli/pictures/0399_fw.png	358.82654666900635	
351	295.1284201145172	picture	0		74	349.0	/experiments/knapen_AOT/AOT_stimuli/pictures/1437_fw.png	358.84302377700806	0.6250429153442383
351	295.7368848323822	response	0	k		349.0	/experiments/knapen_AOT/AOT_stimuli/pictures/1437_fw.png	359.45148849487305	
352	295.75346302986145	picture	0		73	350.0	/experiments/knapen_AOT/AOT_stimuli/pictures/1381_fw.png	359.4680666923523	0.6166105270385742
352	296.3535375595093	response	0	k		350.0	/experiments/knapen_AOT/AOT_stimuli/pictures/1381_fw.png	360.0681412220001	
353	296.3700735569	picture	0		73	351.0	/experiments/knapen_AOT/AOT_stimuli/pictures/1680_fw.png	360.08467721939087	0.6166133880615234
353	296.97042870521545	response	0	k		351.0	/experiments/knapen_AOT/AOT_stimuli/pictures/1680_fw.png	360.6850323677063	
354	296.98668694496155	picture	0		83	352.0	/experiments/knapen_AOT/AOT_stimuli/pictures/0764_fw.png	360.7012906074524	0.7000768184661865
354	297.66285133361816	response	0	k		352.0	/experiments/knapen_AOT/AOT_stimuli/pictures/0764_fw.png	361.377454996109	
355	297.68676376342773	picture	0		96	353.0	/experiments/knapen_AOT/AOT_stimuli/pictures/0844_fw.png	361.4013674259186	0.8083460330963135
355	298.4714107513428	response	0	j		353.0	/experiments/knapen_AOT/AOT_stimuli/pictures/0844_fw.png	362.1860144138336	
356	298.49510979652405	picture	0		81	354.0	/experiments/knapen_AOT/AOT_stimuli/pictures/1489_fw.png	362.2097134590149	0.6832690238952637
356	299.1619129180908	response	0	k		354.0	/experiments/knapen_AOT/AOT_stimuli/pictures/1489_fw.png	362.87651658058167	
357	299.1783788204193	picture	0		81	355.0	/experiments/knapen_AOT/AOT_stimuli/pictures/0286_fw.png	362.89298248291016	0.6833376884460449
357	299.83882570266724	response	0	k		355.0	/experiments/knapen_AOT/AOT_stimuli/pictures/0286_fw.png	363.5534293651581	
358	299.86171650886536	picture	0		81	356.0	/experiments/knapen_AOT/AOT_stimuli/pictures/1199_fw.png	363.5763201713562	0.6833469867706299
358	300.5287458896637	response	0	j		356.0	/experiments/knapen_AOT/AOT_stimuli/pictures/1199_fw.png	364.24334955215454	
359	300.545063495636	picture	0		81	357.0	/experiments/knapen_AOT/AOT_stimuli/pictures/0359_fw.png	364.25966715812683	0.6842029094696045
359	301.21193766593933	response	0	j		357.0	/experiments/knapen_AOT/AOT_stimuli/pictures/0359_fw.png	364.9265413284302	
360	301.2292664051056	picture	0		64	358.0	/experiments/knapen_AOT/AOT_stimuli/pictures/0058_fw.png	364.94387006759644	0.5408463478088379
360	301.75364208221436	response	0	k		358.0	/experiments/knapen_AOT/AOT_stimuli/pictures/0058_fw.png	365.4682457447052	
361	301.77011275291443	picture	0		83	359.0	/experiments/knapen_AOT/AOT_stimuli/pictures/0284_fw.png	365.4847164154053	0.7000546455383301
361	302.4536597728729	response	0	k		359.0	/experiments/knapen_AOT/AOT_stimuli/pictures/0284_fw.png	366.16826343536377	
362	302.47016739845276	stim	0		381			366.1847710609436	3.1960997581481934
362	305.6465344429016	response	0	space				369.36113810539246	
