trial_nr	onset	event_type	phase	response	nr_frames	picture_index	picture_file	onset_abs	duration
0	0.17119288444519043	stim	0		619			55.326305627822876	5.173625707626343
0	5.325268030166626	response	0	space				60.48038077354431	
2	5.344818592071533	picture	0		255	0.0	/experiments/Knapen_AOT/AOT_stimuli/pictures/0917_fw.png	60.49993133544922	2.142486333847046
2	7.467561960220337	response	0	k		0.0	/experiments/Knapen_AOT/AOT_stimuli/pictures/0917_fw.png	62.62267470359802	
3	7.487304925918579	picture	0		116	1.0	/experiments/Knapen_AOT/AOT_stimuli/pictures/1746_fw.png	62.642417669296265	0.9756696224212646
3	8.450140476226807	response	0	j		1.0	/experiments/Knapen_AOT/AOT_stimuli/pictures/1746_fw.png	63.60525321960449	
4	8.462974548339844	picture	0		120	2.0	/experiments/Knapen_AOT/AOT_stimuli/pictures/2038_fw.png	63.61808729171753	1.000077247619629
4	9.450143575668335	response	0	k		2.0	/experiments/Knapen_AOT/AOT_stimuli/pictures/2038_fw.png	64.60525631904602	
5	9.463051795959473	picture	0		148	3.0	/experiments/Knapen_AOT/AOT_stimuli/pictures/0593_fw.png	64.61816453933716	1.2369892597198486
5	10.683785915374756	response	0	k		3.0	/experiments/Knapen_AOT/AOT_stimuli/pictures/0593_fw.png	65.83889865875244	
6	10.700041055679321	picture	0		185	4.0	/experiments/Knapen_AOT/AOT_stimuli/pictures/0515_fw.png	65.855153799057	1.5476396083831787
6	12.233601093292236	response	0	k		4.0	/experiments/Knapen_AOT/AOT_stimuli/pictures/0515_fw.png	67.38871383666992	
7	12.2476806640625	picture	0		112	5.0	/experiments/Knapen_AOT/AOT_stimuli/pictures/2107_fw.png	67.40279340744019	0.9440257549285889
7	13.175219774246216	response	0	k		5.0	/experiments/Knapen_AOT/AOT_stimuli/pictures/2107_fw.png	68.3303325176239	
8	13.191706418991089	picture	0		172	6.0	/experiments/Knapen_AOT/AOT_stimuli/pictures/0272_fw.png	68.34681916236877	1.4379193782806396
8	14.616925954818726	response	0	k		6.0	/experiments/Knapen_AOT/AOT_stimuli/pictures/0272_fw.png	69.77203869819641	
9	14.629625797271729	picture	0		110	7.0	/experiments/Knapen_AOT/AOT_stimuli/pictures/0643_fw.png	69.78473854064941	0.9237852096557617
9	15.541921615600586	response	0	k		7.0	/experiments/Knapen_AOT/AOT_stimuli/pictures/0643_fw.png	70.69703435897827	
10	15.55341100692749	picture	0		88	8.0	/experiments/Knapen_AOT/AOT_stimuli/pictures/0466_fw.png	70.70852375030518	0.7383501529693604
10	16.275281190872192	response	0	k		8.0	/experiments/Knapen_AOT/AOT_stimuli/pictures/0466_fw.png	71.43039393424988	
11	16.29176115989685	picture	0		144	9.0	/experiments/Knapen_AOT/AOT_stimuli/pictures/1567_fw.png	71.44687390327454	1.206045389175415
11	17.483642101287842	response	0	k		9.0	/experiments/Knapen_AOT/AOT_stimuli/pictures/1567_fw.png	72.63875484466553	
12	17.497806549072266	picture	0		94	10.0	/experiments/Knapen_AOT/AOT_stimuli/pictures/1261_fw.png	72.65291929244995	0.7916531562805176
12	18.275788068771362	response	0	j		10.0	/experiments/Knapen_AOT/AOT_stimuli/pictures/1261_fw.png	73.43090081214905	
13	18.289459705352783	picture	0		92	11.0	/experiments/Knapen_AOT/AOT_stimuli/pictures/0821_fw.png	73.44457244873047	0.7773396968841553
13	19.050394296646118	response	0	j		11.0	/experiments/Knapen_AOT/AOT_stimuli/pictures/0821_fw.png	74.2055070400238	
14	19.06679940223694	picture	0		123	12.0	/experiments/Knapen_AOT/AOT_stimuli/pictures/2102_fw.png	74.22191214561462	1.0333175659179688
14	20.08374333381653	response	0	k		12.0	/experiments/Knapen_AOT/AOT_stimuli/pictures/2102_fw.png	75.23885607719421	
15	20.100116968154907	picture	0		121	13.0	/experiments/Knapen_AOT/AOT_stimuli/pictures/0889_fw.png	75.25522971153259	1.016674280166626
15	21.100319147109985	response	0	k		13.0	/experiments/Knapen_AOT/AOT_stimuli/pictures/0889_fw.png	76.25543189048767	
16	21.116791248321533	picture	0		98	14.0	/experiments/Knapen_AOT/AOT_stimuli/pictures/1367_fw.png	76.27190399169922	0.8185098171234131
16	21.92541193962097	response	0	k		14.0	/experiments/Knapen_AOT/AOT_stimuli/pictures/1367_fw.png	77.08052468299866	
17	21.935301065444946	picture	0		118	15.0	/experiments/Knapen_AOT/AOT_stimuli/pictures/1627_fw.png	77.09041380882263	0.9861290454864502
17	22.90869426727295	response	0	k		15.0	/experiments/Knapen_AOT/AOT_stimuli/pictures/1627_fw.png	78.06380701065063	
18	22.921430110931396	picture	0		90	16.0	/experiments/Knapen_AOT/AOT_stimuli/pictures/0107_fw.png	78.07654285430908	0.7569468021392822
18	23.667059659957886	response	0	k		16.0	/experiments/Knapen_AOT/AOT_stimuli/pictures/0107_fw.png	78.82217240333557	
19	23.67837691307068	picture	0		119	17.0	/experiments/Knapen_AOT/AOT_stimuli/pictures/1467_fw.png	78.83348965644836	0.9931154251098633
19	24.658703327178955	response	0	j		17.0	/experiments/Knapen_AOT/AOT_stimuli/pictures/1467_fw.png	79.81381607055664	
20	24.671492338180542	picture	0		154	18.0	/experiments/Knapen_AOT/AOT_stimuli/pictures/0048_fw.png	79.82660508155823	1.2847156524658203
20	25.942033052444458	response	0	j		18.0	/experiments/Knapen_AOT/AOT_stimuli/pictures/0048_fw.png	81.09714579582214	
21	25.956207990646362	picture	0		151	19.0	/experiments/Knapen_AOT/AOT_stimuli/pictures/1626_fw.png	81.11132073402405	1.2639074325561523
21	27.2087140083313	response	0	k		19.0	/experiments/Knapen_AOT/AOT_stimuli/pictures/1626_fw.png	82.36382675170898	
22	27.220115423202515	picture	0		113	20.0	/experiments/Knapen_AOT/AOT_stimuli/pictures/0424_fw.png	82.3752281665802	0.9513294696807861
22	28.158735752105713	response	0	k		20.0	/experiments/Knapen_AOT/AOT_stimuli/pictures/0424_fw.png	83.3138484954834	
23	28.1714448928833	picture	0		101	21.0	/experiments/Knapen_AOT/AOT_stimuli/pictures/0770_fw.png	83.32655763626099	0.853773832321167
23	29.008901119232178	response	0	k		21.0	/experiments/Knapen_AOT/AOT_stimuli/pictures/0770_fw.png	84.16401386260986	
24	29.025218725204468	picture	0		109	22.0	/experiments/Knapen_AOT/AOT_stimuli/pictures/1608_fw.png	84.18033146858215	0.9101223945617676
24	29.925431489944458	response	0	j		22.0	/experiments/Knapen_AOT/AOT_stimuli/pictures/1608_fw.png	85.08054423332214	
25	29.935341119766235	picture	0		106	23.0	/experiments/Knapen_AOT/AOT_stimuli/pictures/0604_fw.png	85.09045386314392	0.889866828918457
25	30.80874228477478	response	0	k		23.0	/experiments/Knapen_AOT/AOT_stimuli/pictures/0604_fw.png	85.96385502815247	
26	30.825207948684692	picture	0		104	24.0	/experiments/Knapen_AOT/AOT_stimuli/pictures/1180_fw.png	85.98032069206238	0.8670756816864014
26	31.683777570724487	response	0	j		24.0	/experiments/Knapen_AOT/AOT_stimuli/pictures/1180_fw.png	86.83889031410217	
27	31.692283630371094	picture	0		80	25.0	/experiments/Knapen_AOT/AOT_stimuli/pictures/0353_fw.png	86.84739637374878	0.6746084690093994
27	32.35047960281372	response	0	j		25.0	/experiments/Knapen_AOT/AOT_stimuli/pictures/0353_fw.png	87.5055923461914	
28	32.36689209938049	picture	0		94	26.0	/experiments/Knapen_AOT/AOT_stimuli/pictures/0787_fw.png	87.52200484275818	0.7916758060455322
28	33.14211654663086	response	0	j		26.0	/experiments/Knapen_AOT/AOT_stimuli/pictures/0787_fw.png	88.29722929000854	
29	33.158567905426025	picture	0		154	27.0	/experiments/Knapen_AOT/AOT_stimuli/pictures/0097_fw.png	88.31368064880371	1.2916581630706787
29	34.43398952484131	response	0	k		27.0	/experiments/Knapen_AOT/AOT_stimuli/pictures/0097_fw.png	89.589102268219	
30	34.450226068496704	picture	0		88	28.0	/experiments/Knapen_AOT/AOT_stimuli/pictures/2143_fw.png	89.60533881187439	0.7351114749908447
30	35.175541400909424	response	0	k		28.0	/experiments/Knapen_AOT/AOT_stimuli/pictures/2143_fw.png	90.33065414428711	
31	35.18533754348755	picture	0		180	29.0	/experiments/Knapen_AOT/AOT_stimuli/pictures/0014_fw.png	90.34045028686523	1.5066616535186768
31	36.67543649673462	response	0	j		29.0	/experiments/Knapen_AOT/AOT_stimuli/pictures/0014_fw.png	91.8305492401123	
32	36.691999197006226	picture	0		96	30.0	/experiments/Knapen_AOT/AOT_stimuli/pictures/0225_fw.png	91.84711194038391	0.8058774471282959
32	37.48385262489319	response	0	k		30.0	/experiments/Knapen_AOT/AOT_stimuli/pictures/0225_fw.png	92.63896536827087	
33	37.49787664413452	picture	0		127	31.0	/experiments/Knapen_AOT/AOT_stimuli/pictures/0099_fw.png	92.6529893875122	1.0690884590148926
33	38.55051636695862	response	0	j		31.0	/experiments/Knapen_AOT/AOT_stimuli/pictures/0099_fw.png	93.7056291103363	
34	38.566965103149414	picture	0		102	32.0	/experiments/Knapen_AOT/AOT_stimuli/pictures/0138_fw.png	93.7220778465271	0.8583667278289795
34	39.408804178237915	response	0	j		32.0	/experiments/Knapen_AOT/AOT_stimuli/pictures/0138_fw.png	94.5639169216156	
35	39.425331830978394	picture	0		163	33.0	/experiments/Knapen_AOT/AOT_stimuli/pictures/2119_fw.png	94.58044457435608	1.3666307926177979
35	40.768765687942505	response	0	k		33.0	/experiments/Knapen_AOT/AOT_stimuli/pictures/2119_fw.png	95.92387843132019	
36	40.79196262359619	picture	0		308	34.0	/experiments/Knapen_AOT/AOT_stimuli/pictures/0102_fw.png	95.94707536697388	2.566876173019409
36	43.3504843711853	response	0	j		34.0	/experiments/Knapen_AOT/AOT_stimuli/pictures/0102_fw.png	98.50559711456299	
37	43.3588387966156	picture	0		81	35.0	/experiments/Knapen_AOT/AOT_stimuli/pictures/1282_fw.png	98.51395153999329	0.6806735992431641
37	44.02547836303711	response	0	k		35.0	/experiments/Knapen_AOT/AOT_stimuli/pictures/1282_fw.png	99.1805911064148	
38	44.039512395858765	picture	0		108	36.0	/experiments/Knapen_AOT/AOT_stimuli/pictures/0638_fw.png	99.19462513923645	0.9027760028839111
38	44.93383264541626	response	0	j		36.0	/experiments/Knapen_AOT/AOT_stimuli/pictures/0638_fw.png	100.08894538879395	
39	44.942288398742676	picture	0		99	37.0	/experiments/Knapen_AOT/AOT_stimuli/pictures/1883_fw.png	100.09740114212036	0.8263978958129883
39	45.75885224342346	response	0	j		37.0	/experiments/Knapen_AOT/AOT_stimuli/pictures/1883_fw.png	100.91396498680115	
40	45.768686294555664	picture	0		86	38.0	/experiments/Knapen_AOT/AOT_stimuli/pictures/1947_fw.png	100.92379903793335	0.723290205001831
40	46.47555112838745	response	0	j		38.0	/experiments/Knapen_AOT/AOT_stimuli/pictures/1947_fw.png	101.63066387176514	
41	46.491976499557495	picture	0		120	39.0	/experiments/Knapen_AOT/AOT_stimuli/pictures/0567_fw.png	101.64708924293518	1.008345365524292
41	47.48389983177185	response	0	k		39.0	/experiments/Knapen_AOT/AOT_stimuli/pictures/0567_fw.png	102.63901257514954	
42	47.50032186508179	picture	0		112	40.0	/experiments/Knapen_AOT/AOT_stimuli/pictures/0490_fw.png	102.65543460845947	0.9416759014129639
42	48.4259135723114	response	0	k		40.0	/experiments/Knapen_AOT/AOT_stimuli/pictures/0490_fw.png	103.58102631568909	
43	48.44199776649475	picture	0		90	41.0	/experiments/Knapen_AOT/AOT_stimuli/pictures/1898_fw.png	103.59711050987244	0.7583174705505371
43	49.176761865615845	response	0	j		41.0	/experiments/Knapen_AOT/AOT_stimuli/pictures/1898_fw.png	104.33187460899353	
44	49.20031523704529	picture	0		117	42.0	/experiments/Knapen_AOT/AOT_stimuli/pictures/0840_fw.png	104.35542798042297	0.9833436012268066
44	50.16716742515564	response	0	k		42.0	/experiments/Knapen_AOT/AOT_stimuli/pictures/0840_fw.png	105.32228016853333	
45	50.183658838272095	picture	0		130	43.0	/experiments/Knapen_AOT/AOT_stimuli/pictures/0001_fw.png	105.33877158164978	1.0850346088409424
45	51.258869886398315	response	0	k		43.0	/experiments/Knapen_AOT/AOT_stimuli/pictures/0001_fw.png	106.413982629776	
46	51.26869344711304	picture	0		128	44.0	/experiments/Knapen_AOT/AOT_stimuli/pictures/0412_fw.png	106.42380619049072	1.0694677829742432
46	52.32552456855774	response	0	k		44.0	/experiments/Knapen_AOT/AOT_stimuli/pictures/0412_fw.png	107.48063731193542	
47	52.33816123008728	picture	0		115	45.0	/experiments/Knapen_AOT/AOT_stimuli/pictures/1780_fw.png	107.49327397346497	0.9705429077148438
47	53.29241061210632	response	0	k		45.0	/experiments/Knapen_AOT/AOT_stimuli/pictures/1780_fw.png	108.44752335548401	
48	53.308704137802124	picture	0		96	46.0	/experiments/Knapen_AOT/AOT_stimuli/pictures/1504_fw.png	108.46381688117981	0.8002228736877441
48	54.100539445877075	response	0	k		46.0	/experiments/Knapen_AOT/AOT_stimuli/pictures/1504_fw.png	109.25565218925476	
49	54.10892701148987	picture	0		99	47.0	/experiments/Knapen_AOT/AOT_stimuli/pictures/1915_fw.png	109.26403975486755	0.8331379890441895
49	54.92582964897156	response	0	j		47.0	/experiments/Knapen_AOT/AOT_stimuli/pictures/1915_fw.png	110.08094239234924	
50	54.94206500053406	picture	0		99	48.0	/experiments/Knapen_AOT/AOT_stimuli/pictures/0378_fw.png	110.09717774391174	0.8333604335784912
50	55.75897455215454	response	0	k		48.0	/experiments/Knapen_AOT/AOT_stimuli/pictures/0378_fw.png	110.91408729553223	
51	55.77542543411255	picture	0		132	49.0	/experiments/Knapen_AOT/AOT_stimuli/pictures/2055_fw.png	110.93053817749023	1.104358196258545
51	56.86719822883606	response	0	k		49.0	/experiments/Knapen_AOT/AOT_stimuli/pictures/2055_fw.png	112.02231097221375	
52	56.879783630371094	picture	0		180	50.0	/experiments/Knapen_AOT/AOT_stimuli/pictures/0499_fw.png	112.03489637374878	1.506861686706543
52	58.369131088256836	response	0	k		50.0	/experiments/Knapen_AOT/AOT_stimuli/pictures/0499_fw.png	113.52424383163452	
53	58.38664531707764	picture	0		86	51.0	/experiments/Knapen_AOT/AOT_stimuli/pictures/1973_fw.png	113.54175806045532	0.7153763771057129
53	59.09234094619751	response	0	k		51.0	/experiments/Knapen_AOT/AOT_stimuli/pictures/1973_fw.png	114.2474536895752	
54	59.10202169418335	picture	0		103	52.0	/experiments/Knapen_AOT/AOT_stimuli/pictures/0425_fw.png	114.25713443756104	0.8611633777618408
54	59.950610637664795	response	0	j		52.0	/experiments/Knapen_AOT/AOT_stimuli/pictures/0425_fw.png	115.10572338104248	
55	59.96318507194519	picture	0		119	53.0	/experiments/Knapen_AOT/AOT_stimuli/pictures/0870_fw.png	115.11829781532288	0.995551347732544
55	60.94228649139404	response	0	k		53.0	/experiments/Knapen_AOT/AOT_stimuli/pictures/0870_fw.png	116.09739923477173	
56	60.958736419677734	picture	0		189	54.0	/experiments/Knapen_AOT/AOT_stimuli/pictures/1759_fw.png	116.11384916305542	1.580711841583252
56	62.52562165260315	response	0	k		54.0	/experiments/Knapen_AOT/AOT_stimuli/pictures/1759_fw.png	117.68073439598083	
57	62.539448261260986	picture	0		191	55.0	/experiments/Knapen_AOT/AOT_stimuli/pictures/1875_fw.png	117.69456100463867	1.6026699542999268
57	64.12566685676575	response	0	k		55.0	/experiments/Knapen_AOT/AOT_stimuli/pictures/1875_fw.png	119.28077960014343	
58	64.14211821556091	picture	0		108	56.0	/experiments/Knapen_AOT/AOT_stimuli/pictures/1806_fw.png	119.2972309589386	0.9083635807037354
58	65.03394222259521	response	0	k		56.0	/experiments/Knapen_AOT/AOT_stimuli/pictures/1806_fw.png	120.1890549659729	
59	65.05048179626465	picture	0		162	57.0	/experiments/Knapen_AOT/AOT_stimuli/pictures/1879_fw.png	120.20559453964233	1.350041389465332
59	66.39230012893677	response	0	k		57.0	/experiments/Knapen_AOT/AOT_stimuli/pictures/1879_fw.png	121.54741287231445	
60	66.40052318572998	picture	0		120	58.0	/experiments/Knapen_AOT/AOT_stimuli/pictures/1419_fw.png	121.55563592910767	1.0082833766937256
60	67.39230632781982	response	0	k		58.0	/experiments/Knapen_AOT/AOT_stimuli/pictures/1419_fw.png	122.54741907119751	
61	67.4088065624237	picture	0		109	59.0	/experiments/Knapen_AOT/AOT_stimuli/pictures/0426_fw.png	122.56391930580139	0.9085123538970947
61	68.30902409553528	response	0	k		59.0	/experiments/Knapen_AOT/AOT_stimuli/pictures/0426_fw.png	123.46413683891296	
62	68.3173189163208	picture	0		100	60.0	/experiments/Knapen_AOT/AOT_stimuli/pictures/1639_fw.png	123.47243165969849	0.8415064811706543
62	69.13622283935547	response	0	j		60.0	/experiments/Knapen_AOT/AOT_stimuli/pictures/1639_fw.png	124.29133558273315	
63	69.15882539749146	picture	0		90	61.0	/experiments/Knapen_AOT/AOT_stimuli/pictures/0850_fw.png	124.31393814086914	0.7557322978973389
63	69.90067291259766	response	0	j		61.0	/experiments/Knapen_AOT/AOT_stimuli/pictures/0850_fw.png	125.05578565597534	
64	69.9145576953888	picture	0		138	62.0	/experiments/Knapen_AOT/AOT_stimuli/pictures/1552_fw.png	125.06967043876648	1.152824878692627
64	71.05900073051453	response	0	k		62.0	/experiments/Knapen_AOT/AOT_stimuli/pictures/1552_fw.png	126.21411347389221	
65	71.06738257408142	picture	0		140	63.0	/experiments/Knapen_AOT/AOT_stimuli/pictures/2057_fw.png	126.2224953174591	1.1747632026672363
65	72.22567057609558	response	0	k		63.0	/experiments/Knapen_AOT/AOT_stimuli/pictures/2057_fw.png	127.38078331947327	
66	72.24214577674866	picture	0		182	64.0	/experiments/Knapen_AOT/AOT_stimuli/pictures/1378_fw.png	127.39725852012634	1.5250740051269531
66	73.75070238113403	response	0	j		64.0	/experiments/Knapen_AOT/AOT_stimuli/pictures/1378_fw.png	128.90581512451172	
67	73.76721978187561	picture	0		88	65.0	/experiments/Knapen_AOT/AOT_stimuli/pictures/0568_fw.png	128.9223325252533	0.7416694164276123
67	74.49242687225342	response	0	k		65.0	/experiments/Knapen_AOT/AOT_stimuli/pictures/0568_fw.png	129.6475396156311	
68	74.50888919830322	picture	0		98	66.0	/experiments/Knapen_AOT/AOT_stimuli/pictures/0772_fw.png	129.6640019416809	0.8249936103820801
68	75.31743431091309	response	0	k		66.0	/experiments/Knapen_AOT/AOT_stimuli/pictures/0772_fw.png	130.47254705429077	
69	75.3338828086853	picture	0		223	67.0	/experiments/Knapen_AOT/AOT_stimuli/pictures/2090_fw.png	130.488995552063	1.8666846752166748
69	77.18439841270447	response	0	k		67.0	/experiments/Knapen_AOT/AOT_stimuli/pictures/2090_fw.png	132.33951115608215	
70	77.20056748390198	picture	0		123	68.0	/experiments/Knapen_AOT/AOT_stimuli/pictures/1914_fw.png	132.35568022727966	1.0265130996704102
70	78.21745300292969	response	0	k		68.0	/experiments/Knapen_AOT/AOT_stimuli/pictures/1914_fw.png	133.37256574630737	
71	78.22708058357239	picture	0		122	69.0	/experiments/Knapen_AOT/AOT_stimuli/pictures/0067_fw.png	133.38219332695007	1.0209228992462158
71	79.23438906669617	response	0	k		69.0	/experiments/Knapen_AOT/AOT_stimuli/pictures/0067_fw.png	134.38950181007385	
72	79.2480034828186	picture	0		102	70.0	/experiments/Knapen_AOT/AOT_stimuli/pictures/1622_fw.png	134.4031162261963	0.8609306812286377
72	80.09263014793396	response	0	j		70.0	/experiments/Knapen_AOT/AOT_stimuli/pictures/1622_fw.png	135.24774289131165	
73	80.10893416404724	picture	0		119	71.0	/experiments/Knapen_AOT/AOT_stimuli/pictures/0264_fw.png	135.26404690742493	0.99320387840271
73	81.09251999855042	response	0	k		71.0	/experiments/Knapen_AOT/AOT_stimuli/pictures/0264_fw.png	136.2476327419281	
74	81.10213804244995	picture	0		175	72.0	/experiments/Knapen_AOT/AOT_stimuli/pictures/1773_fw.png	136.25725078582764	1.4651732444763184
74	82.55080556869507	response	0	k		72.0	/experiments/Knapen_AOT/AOT_stimuli/pictures/1773_fw.png	137.70591831207275	
75	82.56731128692627	picture	0		137	73.0	/experiments/Knapen_AOT/AOT_stimuli/pictures/1014_fw.png	137.72242403030396	1.1500649452209473
75	83.70102214813232	response	0	k		73.0	/experiments/Knapen_AOT/AOT_stimuli/pictures/1014_fw.png	138.85613489151	
76	83.71737623214722	picture	0		125	74.0	/experiments/Knapen_AOT/AOT_stimuli/pictures/0177_fw.png	138.8724889755249	1.0499169826507568
76	84.75109148025513	response	0	k		74.0	/experiments/Knapen_AOT/AOT_stimuli/pictures/0177_fw.png	139.9062042236328	
77	84.76729321479797	picture	0		186	75.0	/experiments/Knapen_AOT/AOT_stimuli/pictures/0907_fw.png	139.92240595817566	1.5584099292755127
77	86.30939960479736	response	0	k		75.0	/experiments/Knapen_AOT/AOT_stimuli/pictures/0907_fw.png	141.46451234817505	
78	86.32570314407349	picture	0		168	76.0	/experiments/Knapen_AOT/AOT_stimuli/pictures/2073_fw.png	141.48081588745117	1.408334493637085
78	87.7175714969635	response	0	j		76.0	/experiments/Knapen_AOT/AOT_stimuli/pictures/2073_fw.png	142.8726842403412	
79	87.73403763771057	picture	0		99	77.0	/experiments/Knapen_AOT/AOT_stimuli/pictures/1859_fw.png	142.88915038108826	0.8334627151489258
79	88.55112409591675	response	0	j		77.0	/experiments/Knapen_AOT/AOT_stimuli/pictures/1859_fw.png	143.70623683929443	
80	88.5675003528595	picture	0		92	78.0	/experiments/Knapen_AOT/AOT_stimuli/pictures/2125_fw.png	143.72261309623718	0.7749102115631104
80	89.32618975639343	response	0	j		78.0	/experiments/Knapen_AOT/AOT_stimuli/pictures/2125_fw.png	144.48130249977112	
81	89.34241056442261	picture	0		194	79.0	/experiments/Knapen_AOT/AOT_stimuli/pictures/1469_fw.png	144.4975233078003	1.620783805847168
81	90.94503855705261	response	0	j		79.0	/experiments/Knapen_AOT/AOT_stimuli/pictures/1469_fw.png	146.1001513004303	
82	90.96319437026978	picture	0		98	80.0	/experiments/Knapen_AOT/AOT_stimuli/pictures/0760_fw.png	146.11830711364746	0.8126800060272217
82	91.76104879379272	response	0	j		80.0	/experiments/Knapen_AOT/AOT_stimuli/pictures/0760_fw.png	146.9161615371704	
83	91.775874376297	picture	0		96	81.0	/experiments/Knapen_AOT/AOT_stimuli/pictures/0047_fw.png	146.93098711967468	0.80550217628479
83	92.56018733978271	response	0	k		81.0	/experiments/Knapen_AOT/AOT_stimuli/pictures/0047_fw.png	147.7153000831604	
84	92.58137655258179	picture	0		137	82.0	/experiments/Knapen_AOT/AOT_stimuli/pictures/1606_fw.png	147.73648929595947	1.1528332233428955
84	93.71762132644653	response	0	j		82.0	/experiments/Knapen_AOT/AOT_stimuli/pictures/1606_fw.png	148.87273406982422	
85	93.73420977592468	picture	0		102	83.0	/experiments/Knapen_AOT/AOT_stimuli/pictures/0241_fw.png	148.88932251930237	0.8582465648651123
85	94.57612347602844	response	0	j		83.0	/experiments/Knapen_AOT/AOT_stimuli/pictures/0241_fw.png	149.73123621940613	
86	94.5924563407898	picture	0		145	84.0	/experiments/Knapen_AOT/AOT_stimuli/pictures/2166_fw.png	149.74756908416748	1.2111525535583496
86	95.79269337654114	response	0	k		84.0	/experiments/Knapen_AOT/AOT_stimuli/pictures/2166_fw.png	150.94780611991882	
87	95.80360889434814	picture	0		141	85.0	/experiments/Knapen_AOT/AOT_stimuli/pictures/1263_fw.png	150.95872163772583	1.1736149787902832
87	96.96030020713806	response	0	j		85.0	/experiments/Knapen_AOT/AOT_stimuli/pictures/1263_fw.png	152.11541295051575	
88	96.97722387313843	picture	0		106	86.0	/experiments/Knapen_AOT/AOT_stimuli/pictures/1678_fw.png	152.1323366165161	0.8902535438537598
88	97.85107755661011	response	0	j		86.0	/experiments/Knapen_AOT/AOT_stimuli/pictures/1678_fw.png	153.0061902999878	
89	97.86747741699219	picture	0		192	87.0	/experiments/Knapen_AOT/AOT_stimuli/pictures/0570_fw.png	153.02259016036987	1.6083531379699707
89	99.45933818817139	response	0	k		87.0	/experiments/Knapen_AOT/AOT_stimuli/pictures/0570_fw.png	154.61445093154907	
90	99.47583055496216	picture	0		116	88.0	/experiments/Knapen_AOT/AOT_stimuli/pictures/1634_fw.png	154.63094329833984	0.9749846458435059
90	100.43457865715027	response	0	k		88.0	/experiments/Knapen_AOT/AOT_stimuli/pictures/1634_fw.png	155.58969140052795	
91	100.45081520080566	picture	0		123	89.0	/experiments/Knapen_AOT/AOT_stimuli/pictures/0898_fw.png	155.60592794418335	1.033449649810791
91	101.4677038192749	response	0	k		89.0	/experiments/Knapen_AOT/AOT_stimuli/pictures/0898_fw.png	156.6228165626526	
92	101.48426485061646	picture	0		109	90.0	/experiments/Knapen_AOT/AOT_stimuli/pictures/0343_fw.png	156.63937759399414	0.9167430400848389
92	102.38442492485046	response	0	k		90.0	/experiments/Knapen_AOT/AOT_stimuli/pictures/0343_fw.png	157.53953766822815	
93	102.4010078907013	picture	0		142	91.0	/experiments/Knapen_AOT/AOT_stimuli/pictures/0463_fw.png	157.55612063407898	1.1873447895050049
93	103.57612085342407	response	0	j		91.0	/experiments/Knapen_AOT/AOT_stimuli/pictures/0463_fw.png	158.73123359680176	
94	103.5883526802063	picture	0		96	92.0	/experiments/Knapen_AOT/AOT_stimuli/pictures/1699_fw.png	158.74346542358398	0.7986245155334473
94	104.37612771987915	response	0	k		92.0	/experiments/Knapen_AOT/AOT_stimuli/pictures/1699_fw.png	159.53124046325684	
95	104.38697719573975	picture	0		88	93.0	/experiments/Knapen_AOT/AOT_stimuli/pictures/1851_fw.png	159.54208993911743	0.7389121055603027
95	105.10969662666321	response	0	j		93.0	/experiments/Knapen_AOT/AOT_stimuli/pictures/1851_fw.png	160.2648093700409	
96	105.12588930130005	picture	0		122	94.0	/experiments/Knapen_AOT/AOT_stimuli/pictures/1720_fw.png	160.28100204467773	1.025099754333496
96	106.13456201553345	response	0	j		94.0	/experiments/Knapen_AOT/AOT_stimuli/pictures/1720_fw.png	161.28967475891113	
97	106.15098905563354	picture	0		137	95.0	/experiments/Knapen_AOT/AOT_stimuli/pictures/0943_fw.png	161.30610179901123	1.1458780765533447
97	107.28440403938293	response	0	k		95.0	/experiments/Knapen_AOT/AOT_stimuli/pictures/0943_fw.png	162.43951678276062	
98	107.29686713218689	picture	0		98	96.0	/experiments/Knapen_AOT/AOT_stimuli/pictures/1436_fw.png	162.45197987556458	0.8124427795410156
98	108.10112261772156	response	0	j		96.0	/experiments/Knapen_AOT/AOT_stimuli/pictures/1436_fw.png	163.25623536109924	
99	108.1093099117279	picture	0		154	97.0	/experiments/Knapen_AOT/AOT_stimuli/pictures/0136_fw.png	163.2644226551056	1.2917864322662354
99	109.38466501235962	response	0	k		97.0	/experiments/Knapen_AOT/AOT_stimuli/pictures/0136_fw.png	164.5397777557373	
100	109.40109634399414	picture	0		124	98.0	/experiments/Knapen_AOT/AOT_stimuli/pictures/1505_fw.png	164.55620908737183	1.0415587425231934
100	110.42632484436035	response	0	j		98.0	/experiments/Knapen_AOT/AOT_stimuli/pictures/1505_fw.png	165.58143758773804	
101	110.44265508651733	picture	0		101	99.0	/experiments/Knapen_AOT/AOT_stimuli/pictures/0553_fw.png	165.59776782989502	0.8499679565429688
101	111.27614188194275	response	0	k		99.0	/experiments/Knapen_AOT/AOT_stimuli/pictures/0553_fw.png	166.43125462532043	
102	111.2926230430603	picture	0		117	100.0	/experiments/Knapen_AOT/AOT_stimuli/pictures/1402_fw.png	166.447735786438	0.9763698577880859
102	112.25940299034119	response	0	k		100.0	/experiments/Knapen_AOT/AOT_stimuli/pictures/1402_fw.png	167.41451573371887	
103	112.26899290084839	picture	0		268	101.0	/experiments/Knapen_AOT/AOT_stimuli/pictures/0997_fw.png	167.42410564422607	2.2360265254974365
103	114.4928412437439	response	0	j		101.0	/experiments/Knapen_AOT/AOT_stimuli/pictures/0997_fw.png	169.64795398712158	
104	114.50501942634583	picture	0		107	102.0	/experiments/Knapen_AOT/AOT_stimuli/pictures/0122_fw.png	169.6601321697235	0.8959929943084717
104	115.38444113731384	response	0	k		102.0	/experiments/Knapen_AOT/AOT_stimuli/pictures/0122_fw.png	170.53955388069153	
105	115.4010124206543	picture	0		92	103.0	/experiments/Knapen_AOT/AOT_stimuli/pictures/0270_fw.png	170.55612516403198	0.7707662582397461
105	116.15271377563477	response	0	k		103.0	/experiments/Knapen_AOT/AOT_stimuli/pictures/0270_fw.png	171.30782651901245	
106	116.17177867889404	picture	0		105	104.0	/experiments/Knapen_AOT/AOT_stimuli/pictures/1587_fw.png	171.32689142227173	0.8793694972991943
106	117.03454232215881	response	0	j		104.0	/experiments/Knapen_AOT/AOT_stimuli/pictures/1587_fw.png	172.1896550655365	
107	117.05114817619324	picture	0		115	105.0	/experiments/Knapen_AOT/AOT_stimuli/pictures/0860_fw.png	172.20626091957092	0.9665741920471191
107	118.00115180015564	response	0	k		105.0	/experiments/Knapen_AOT/AOT_stimuli/pictures/0860_fw.png	173.15626454353333	
108	118.01772236824036	picture	0		113	106.0	/experiments/Knapen_AOT/AOT_stimuli/pictures/0937_fw.png	173.17283511161804	0.9457104206085205
108	118.95120620727539	response	0	k		106.0	/experiments/Knapen_AOT/AOT_stimuli/pictures/0937_fw.png	174.10631895065308	
109	118.96343278884888	picture	0		91	107.0	/experiments/Knapen_AOT/AOT_stimuli/pictures/0271_fw.png	174.11854553222656	0.76261305809021
109	119.70963716506958	response	0	j		107.0	/experiments/Knapen_AOT/AOT_stimuli/pictures/0271_fw.png	174.86474990844727	
110	119.72604584693909	picture	0		109	108.0	/experiments/Knapen_AOT/AOT_stimuli/pictures/1975_fw.png	174.88115859031677	0.9110519886016846
110	120.6262629032135	response	0	k		108.0	/experiments/Knapen_AOT/AOT_stimuli/pictures/1975_fw.png	175.7813756465912	
111	120.63709783554077	picture	0		109	109.0	/experiments/Knapen_AOT/AOT_stimuli/pictures/0168_fw.png	175.79221057891846	0.9097170829772949
111	121.53462600708008	response	0	k		109.0	/experiments/Knapen_AOT/AOT_stimuli/pictures/0168_fw.png	176.68973875045776	
112	121.54681491851807	picture	0		114	110.0	/experiments/Knapen_AOT/AOT_stimuli/pictures/2013_fw.png	176.70192766189575	0.9542887210845947
112	122.48456811904907	response	0	j		110.0	/experiments/Knapen_AOT/AOT_stimuli/pictures/2013_fw.png	177.63968086242676	
113	122.50110363960266	picture	0		148	111.0	/experiments/Knapen_AOT/AOT_stimuli/pictures/1090_fw.png	177.65621638298035	1.2416701316833496
113	123.72627663612366	response	0	k		111.0	/experiments/Knapen_AOT/AOT_stimuli/pictures/1090_fw.png	178.88138937950134	
114	123.74277377128601	picture	0		239	112.0	/experiments/Knapen_AOT/AOT_stimuli/pictures/0474_fw.png	178.8978865146637	2.0000312328338623
114	125.72648215293884	response	0	j		112.0	/experiments/Knapen_AOT/AOT_stimuli/pictures/0474_fw.png	180.88159489631653	
115	125.74280500411987	picture	0		85	113.0	/experiments/Knapen_AOT/AOT_stimuli/pictures/0109_fw.png	180.89791774749756	0.713719367980957
115	126.44296479225159	response	0	j		113.0	/experiments/Knapen_AOT/AOT_stimuli/pictures/0109_fw.png	181.59807753562927	
116	126.45652437210083	picture	0		98	114.0	/experiments/Knapen_AOT/AOT_stimuli/pictures/0315_fw.png	181.61163711547852	0.8279554843902588
116	127.26809930801392	response	0	k		114.0	/experiments/Knapen_AOT/AOT_stimuli/pictures/0315_fw.png	182.4232120513916	
117	127.28447985649109	picture	0		88	115.0	/experiments/Knapen_AOT/AOT_stimuli/pictures/1906_fw.png	182.43959259986877	0.7345755100250244
117	128.0097131729126	response	0	j		115.0	/experiments/Knapen_AOT/AOT_stimuli/pictures/1906_fw.png	183.16482591629028	
118	128.0190553665161	picture	0		86	116.0	/experiments/Knapen_AOT/AOT_stimuli/pictures/1576_fw.png	183.1741681098938	0.7153997421264648
118	128.7263560295105	response	0	j		116.0	/experiments/Knapen_AOT/AOT_stimuli/pictures/1576_fw.png	183.88146877288818	
119	128.73445510864258	picture	0		127	117.0	/experiments/Knapen_AOT/AOT_stimuli/pictures/0621_fw.png	183.88956785202026	1.0624189376831055
119	129.78470969200134	response	0	k		117.0	/experiments/Knapen_AOT/AOT_stimuli/pictures/0621_fw.png	184.93982243537903	
120	129.79687404632568	picture	0		123	118.0	/experiments/Knapen_AOT/AOT_stimuli/pictures/0140_fw.png	184.95198678970337	1.0209357738494873
120	130.80972623825073	response	0	k		118.0	/experiments/Knapen_AOT/AOT_stimuli/pictures/0140_fw.png	185.96483898162842	
121	130.81780982017517	picture	0		103	119.0	/experiments/Knapen_AOT/AOT_stimuli/pictures/0278_fw.png	185.97292256355286	0.8667140007019043
121	131.668292760849	response	0	k		119.0	/experiments/Knapen_AOT/AOT_stimuli/pictures/0278_fw.png	186.82340550422668	
122	131.68452382087708	picture	0		107	120.0	/experiments/Knapen_AOT/AOT_stimuli/pictures/0009_fw.png	186.83963656425476	0.9000093936920166
122	132.56060886383057	response	0	k		120.0	/experiments/Knapen_AOT/AOT_stimuli/pictures/0009_fw.png	187.71572160720825	
123	132.5845332145691	picture	0		101	121.0	/experiments/Knapen_AOT/AOT_stimuli/pictures/0949_fw.png	187.73964595794678	0.8442850112915039
123	133.4181010723114	response	0	k		121.0	/experiments/Knapen_AOT/AOT_stimuli/pictures/0949_fw.png	188.5732138156891	
124	133.4288182258606	picture	0		166	122.0	/experiments/Knapen_AOT/AOT_stimuli/pictures/0629_fw.png	188.58393096923828	1.3890717029571533
124	134.80170559883118	response	0	j		122.0	/experiments/Knapen_AOT/AOT_stimuli/pictures/0629_fw.png	189.95681834220886	
125	134.81788992881775	picture	0		93	123.0	/experiments/Knapen_AOT/AOT_stimuli/pictures/1253_fw.png	189.97300267219543	0.7833364009857178
125	135.58505415916443	response	0	j		123.0	/experiments/Knapen_AOT/AOT_stimuli/pictures/1253_fw.png	190.74016690254211	
126	135.60122632980347	picture	0		96	124.0	/experiments/Knapen_AOT/AOT_stimuli/pictures/1452_fw.png	190.75633907318115	0.800037145614624
126	136.3933277130127	response	0	j		124.0	/experiments/Knapen_AOT/AOT_stimuli/pictures/1452_fw.png	191.54844045639038	
127	136.4012634754181	picture	0		146	125.0	/experiments/Knapen_AOT/AOT_stimuli/pictures/1168_fw.png	191.55637621879578	1.222027063369751
127	137.60990071296692	response	0	j		125.0	/experiments/Knapen_AOT/AOT_stimuli/pictures/1168_fw.png	192.7650134563446	
128	137.62329053878784	picture	0		177	126.0	/experiments/Knapen_AOT/AOT_stimuli/pictures/0659_fw.png	192.77840328216553	1.4790928363800049
128	139.0931441783905	response	0	k		126.0	/experiments/Knapen_AOT/AOT_stimuli/pictures/0659_fw.png	194.2482569217682	
129	139.10238337516785	picture	0		135	127.0	/experiments/Knapen_AOT/AOT_stimuli/pictures/0909_fw.png	194.25749611854553	1.1322457790374756
129	140.21817326545715	response	0	k		127.0	/experiments/Knapen_AOT/AOT_stimuli/pictures/0909_fw.png	195.37328600883484	
130	140.23462915420532	picture	0		92	128.0	/experiments/Knapen_AOT/AOT_stimuli/pictures/1945_fw.png	195.389741897583	0.7750935554504395
130	140.99315404891968	response	0	k		128.0	/experiments/Knapen_AOT/AOT_stimuli/pictures/1945_fw.png	196.14826679229736	
131	141.00972270965576	picture	0		123	129.0	/experiments/Knapen_AOT/AOT_stimuli/pictures/1860_fw.png	196.16483545303345	1.0332543849945068
131	142.0266993045807	response	0	k		129.0	/experiments/Knapen_AOT/AOT_stimuli/pictures/1860_fw.png	197.18181204795837	
132	142.04297709465027	picture	0		117	130.0	/experiments/Knapen_AOT/AOT_stimuli/pictures/1825_fw.png	197.19808983802795	0.9833359718322754
132	143.00981545448303	response	0	k		130.0	/experiments/Knapen_AOT/AOT_stimuli/pictures/1825_fw.png	198.16492819786072	
133	143.02631306648254	picture	0		168	131.0	/experiments/Knapen_AOT/AOT_stimuli/pictures/0853_fw.png	198.18142580986023	1.4024834632873535
133	144.41818475723267	response	0	j		131.0	/experiments/Knapen_AOT/AOT_stimuli/pictures/0853_fw.png	199.57329750061035	
134	144.4287965297699	picture	0		95	132.0	/experiments/Knapen_AOT/AOT_stimuli/pictures/1358_fw.png	199.58390927314758	0.7975695133209229
134	145.20989108085632	response	0	k		132.0	/experiments/Knapen_AOT/AOT_stimuli/pictures/1358_fw.png	200.365003824234	
135	145.22636604309082	picture	0		113	133.0	/experiments/Knapen_AOT/AOT_stimuli/pictures/0053_fw.png	200.3814787864685	0.9455897808074951
135	146.1525821685791	response	0	k		133.0	/experiments/Knapen_AOT/AOT_stimuli/pictures/0053_fw.png	201.3076949119568	
136	146.17195582389832	picture	0		148	134.0	/experiments/Knapen_AOT/AOT_stimuli/pictures/1881_fw.png	201.327068567276	1.237821340560913
136	147.393474817276	response	0	k		134.0	/experiments/Knapen_AOT/AOT_stimuli/pictures/1881_fw.png	202.5485875606537	
137	147.40977716445923	picture	0		136	135.0	/experiments/Knapen_AOT/AOT_stimuli/pictures/1061_fw.png	202.5648899078369	1.137253999710083
137	148.5348846912384	response	0	k		135.0	/experiments/Knapen_AOT/AOT_stimuli/pictures/1061_fw.png	203.6899974346161	
138	148.5470311641693	picture	0		112	136.0	/experiments/Knapen_AOT/AOT_stimuli/pictures/1993_fw.png	203.702143907547	0.9305620193481445
138	149.4682114124298	response	0	k		136.0	/experiments/Knapen_AOT/AOT_stimuli/pictures/1993_fw.png	204.6233241558075	
139	149.47759318351746	picture	0		98	137.0	/experiments/Knapen_AOT/AOT_stimuli/pictures/1517_fw.png	204.63270592689514	0.8193817138671875
139	150.28490591049194	response	0	k		137.0	/experiments/Knapen_AOT/AOT_stimuli/pictures/1517_fw.png	205.44001865386963	
140	150.29697489738464	picture	0		106	138.0	/experiments/Knapen_AOT/AOT_stimuli/pictures/1274_fw.png	205.45208764076233	0.8877766132354736
140	151.16830468177795	response	0	j		138.0	/experiments/Knapen_AOT/AOT_stimuli/pictures/1274_fw.png	206.32341742515564	
141	151.18475151062012	picture	0		97	139.0	/experiments/Knapen_AOT/AOT_stimuli/pictures/0958_fw.png	206.3398642539978	0.8166670799255371
141	151.98485231399536	response	0	j		139.0	/experiments/Knapen_AOT/AOT_stimuli/pictures/0958_fw.png	207.13996505737305	
142	152.00141859054565	picture	0		89	140.0	/experiments/Knapen_AOT/AOT_stimuli/pictures/1692_fw.png	207.15653133392334	0.8916776180267334
142	152.8766541481018	response	0	j		140.0	/experiments/Knapen_AOT/AOT_stimuli/pictures/1692_fw.png	208.0317668914795	
143	152.8930962085724	picture	0		105	141.0	/experiments/Knapen_AOT/AOT_stimuli/pictures/1713_fw.png	208.04820895195007	0.8761506080627441
143	153.76011896133423	response	0	k		141.0	/experiments/Knapen_AOT/AOT_stimuli/pictures/1713_fw.png	208.9152317047119	
144	153.76924681663513	picture	0		105	142.0	/experiments/Knapen_AOT/AOT_stimuli/pictures/0175_fw.png	208.92435956001282	0.874995231628418
144	154.63501286506653	response	0	k		142.0	/experiments/Knapen_AOT/AOT_stimuli/pictures/0175_fw.png	209.7901256084442	
145	154.64424204826355	picture	0		207	143.0	/experiments/Knapen_AOT/AOT_stimuli/pictures/0511_fw.png	209.79935479164124	1.732250690460205
145	156.35239171981812	response	0	k		143.0	/experiments/Knapen_AOT/AOT_stimuli/pictures/0511_fw.png	211.5075044631958	
146	156.37649273872375	picture	0		87	144.0	/experiments/Knapen_AOT/AOT_stimuli/pictures/2087_fw.png	211.53160548210144	0.7260830402374268
146	157.09333515167236	response	0	j		144.0	/experiments/Knapen_AOT/AOT_stimuli/pictures/2087_fw.png	212.24844789505005	
147	157.10257577896118	picture	0		103	145.0	/experiments/Knapen_AOT/AOT_stimuli/pictures/0797_fw.png	212.25768852233887	0.8655986785888672
147	157.95172095298767	response	0	j		145.0	/experiments/Knapen_AOT/AOT_stimuli/pictures/0797_fw.png	213.10683369636536	
148	157.96817445755005	picture	0		91	146.0	/experiments/Knapen_AOT/AOT_stimuli/pictures/1590_fw.png	213.12328720092773	0.7594180107116699
148	158.71846461296082	response	0	j		146.0	/experiments/Knapen_AOT/AOT_stimuli/pictures/1590_fw.png	213.8735773563385	
149	158.72759246826172	picture	0		109	147.0	/experiments/Knapen_AOT/AOT_stimuli/pictures/2068_fw.png	213.8827052116394	0.9097635746002197
149	159.62670588493347	response	0	k		147.0	/experiments/Knapen_AOT/AOT_stimuli/pictures/2068_fw.png	214.78181862831116	
150	159.63735604286194	picture	0		145	148.0	/experiments/Knapen_AOT/AOT_stimuli/pictures/0998_fw.png	214.79246878623962	1.2083303928375244
150	160.83503532409668	response	0	k		148.0	/experiments/Knapen_AOT/AOT_stimuli/pictures/0998_fw.png	215.99014806747437	
151	160.84568643569946	picture	0		80	149.0	/experiments/Knapen_AOT/AOT_stimuli/pictures/0164_fw.png	216.00079917907715	0.6725175380706787
151	161.5017876625061	response	0	j		149.0	/experiments/Knapen_AOT/AOT_stimuli/pictures/0164_fw.png	216.6569004058838	
152	161.51820397377014	picture	0		125	150.0	/experiments/Knapen_AOT/AOT_stimuli/pictures/0196_fw.png	216.67331671714783	1.049992322921753
152	162.5453565120697	response	0	j		150.0	/experiments/Knapen_AOT/AOT_stimuli/pictures/0196_fw.png	217.7004692554474	
153	162.5681962966919	picture	0		107	151.0	/experiments/Knapen_AOT/AOT_stimuli/pictures/1980_fw.png	217.72330904006958	0.9000113010406494
153	163.45176076889038	response	0	j		151.0	/experiments/Knapen_AOT/AOT_stimuli/pictures/1980_fw.png	218.60687351226807	
154	163.46820759773254	picture	0		136	152.0	/experiments/Knapen_AOT/AOT_stimuli/pictures/1650_fw.png	218.62332034111023	1.1416821479797363
154	164.59341764450073	response	0	j		152.0	/experiments/Knapen_AOT/AOT_stimuli/pictures/1650_fw.png	219.74853038787842	
155	164.60988974571228	picture	0		153	153.0	/experiments/Knapen_AOT/AOT_stimuli/pictures/0647_fw.png	219.76500248908997	1.2774829864501953
155	165.8767774105072	response	0	j		153.0	/experiments/Knapen_AOT/AOT_stimuli/pictures/0647_fw.png	221.0318901538849	
156	165.88737273216248	picture	0		106	154.0	/experiments/Knapen_AOT/AOT_stimuli/pictures/1003_fw.png	221.04248547554016	0.8892252445220947
156	166.7536277770996	response	0	k		154.0	/experiments/Knapen_AOT/AOT_stimuli/pictures/1003_fw.png	221.9087405204773	
157	166.77659797668457	picture	0		107	155.0	/experiments/Knapen_AOT/AOT_stimuli/pictures/0487_fw.png	221.93171072006226	0.8955082893371582
157	167.66012358665466	response	0	k		155.0	/experiments/Knapen_AOT/AOT_stimuli/pictures/0487_fw.png	222.81523633003235	
158	167.67210626602173	picture	0		122	156.0	/experiments/Knapen_AOT/AOT_stimuli/pictures/0322_fw.png	222.8272190093994	1.0211710929870605
158	168.67680406570435	response	0	k		156.0	/experiments/Knapen_AOT/AOT_stimuli/pictures/0322_fw.png	223.83191680908203	
159	168.6932773590088	picture	0		114	157.0	/experiments/Knapen_AOT/AOT_stimuli/pictures/0355_fw.png	223.84839010238647	0.9583408832550049
159	169.635178565979	response	0	k		157.0	/experiments/Knapen_AOT/AOT_stimuli/pictures/0355_fw.png	224.7902913093567	
160	169.6516182422638	picture	0		97	158.0	/experiments/Knapen_AOT/AOT_stimuli/pictures/1837_fw.png	224.80673098564148	0.8122034072875977
160	170.45186686515808	response	0	j		158.0	/experiments/Knapen_AOT/AOT_stimuli/pictures/1837_fw.png	225.60697960853577	
161	170.4638216495514	picture	0		102	159.0	/experiments/Knapen_AOT/AOT_stimuli/pictures/1111_fw.png	225.61893439292908	0.847217321395874
161	171.30190134048462	response	0	j		159.0	/experiments/Knapen_AOT/AOT_stimuli/pictures/1111_fw.png	226.4570140838623	
162	171.31103897094727	picture	0		99	160.0	/experiments/Knapen_AOT/AOT_stimuli/pictures/0071_fw.png	226.46615171432495	0.8263967037200928
162	172.12690091133118	response	0	j		160.0	/experiments/Knapen_AOT/AOT_stimuli/pictures/0071_fw.png	227.28201365470886	
163	172.13743567466736	picture	0		103	161.0	/experiments/Knapen_AOT/AOT_stimuli/pictures/0775_fw.png	227.29254841804504	0.8642783164978027
163	172.98519945144653	response	0	k		161.0	/experiments/Knapen_AOT/AOT_stimuli/pictures/0775_fw.png	228.14031219482422	
164	173.00171399116516	picture	0		166	162.0	/experiments/Knapen_AOT/AOT_stimuli/pictures/1775_fw.png	228.15682673454285	1.3916864395141602
164	174.37686443328857	response	0	k		162.0	/experiments/Knapen_AOT/AOT_stimuli/pictures/1775_fw.png	229.53197717666626	
165	174.39340043067932	picture	0		79	163.0	/experiments/Knapen_AOT/AOT_stimuli/pictures/0547_fw.png	229.548513174057	0.6606850624084473
165	175.04363560676575	response	0	j		163.0	/experiments/Knapen_AOT/AOT_stimuli/pictures/0547_fw.png	230.19874835014343	
166	175.05408549308777	picture	0		115	164.0	/experiments/Knapen_AOT/AOT_stimuli/pictures/0698_fw.png	230.20919823646545	0.9583632946014404
166	176.00190806388855	response	0	k		164.0	/experiments/Knapen_AOT/AOT_stimuli/pictures/0698_fw.png	231.15702080726624	
167	176.0124487876892	picture	0		175	165.0	/experiments/Knapen_AOT/AOT_stimuli/pictures/0477_fw.png	231.1675615310669	1.464287281036377
167	177.4602301120758	response	0	k		165.0	/experiments/Knapen_AOT/AOT_stimuli/pictures/0477_fw.png	232.6153428554535	
168	177.4767360687256	picture	0		218	166.0	/experiments/Knapen_AOT/AOT_stimuli/pictures/2030_fw.png	232.63184881210327	1.8250186443328857
168	179.2852430343628	response	0	k		166.0	/experiments/Knapen_AOT/AOT_stimuli/pictures/2030_fw.png	234.44035577774048	
169	179.30175471305847	picture	0		129	167.0	/experiments/Knapen_AOT/AOT_stimuli/pictures/0235_fw.png	234.45686745643616	1.0787861347198486
169	180.3686327934265	response	0	j		167.0	/experiments/Knapen_AOT/AOT_stimuli/pictures/0235_fw.png	235.5237455368042	
170	180.38054084777832	picture	0		106	168.0	/experiments/Knapen_AOT/AOT_stimuli/pictures/0865_fw.png	235.535653591156	0.8878822326660156
170	181.25216507911682	response	0	k		168.0	/experiments/Knapen_AOT/AOT_stimuli/pictures/0865_fw.png	236.4072778224945	
171	181.26842308044434	picture	0		131	169.0	/experiments/Knapen_AOT/AOT_stimuli/pictures/1143_fw.png	236.42353582382202	1.1000056266784668
171	182.35217118263245	response	0	k		169.0	/experiments/Knapen_AOT/AOT_stimuli/pictures/1143_fw.png	237.50728392601013	
172	182.3684287071228	picture	0		119	170.0	/experiments/Knapen_AOT/AOT_stimuli/pictures/0862_fw.png	237.5235414505005	1.0000183582305908
172	183.35232090950012	response	0	k		170.0	/experiments/Knapen_AOT/AOT_stimuli/pictures/0862_fw.png	238.5074336528778	
173	183.3684470653534	picture	0		98	171.0	/experiments/Knapen_AOT/AOT_stimuli/pictures/0989_fw.png	238.52355980873108	0.8176674842834473
173	184.1770224571228	response	0	k		171.0	/experiments/Knapen_AOT/AOT_stimuli/pictures/0989_fw.png	239.3321352005005	
174	184.18611454963684	picture	0		99	172.0	/experiments/Knapen_AOT/AOT_stimuli/pictures/1343_fw.png	239.34122729301453	0.8263888359069824
174	185.00198674201965	response	0	k		172.0	/experiments/Knapen_AOT/AOT_stimuli/pictures/1343_fw.png	240.15709948539734	
175	185.01250338554382	picture	0		95	173.0	/experiments/Knapen_AOT/AOT_stimuli/pictures/1248_fw.png	240.1676161289215	0.7986321449279785
175	185.79370522499084	response	0	k		173.0	/experiments/Knapen_AOT/AOT_stimuli/pictures/1248_fw.png	240.94881796836853	
176	185.8111355304718	picture	0		180	174.0	/experiments/Knapen_AOT/AOT_stimuli/pictures/1877_fw.png	240.9662482738495	1.5073676109313965
176	187.30226731300354	response	0	k		174.0	/experiments/Knapen_AOT/AOT_stimuli/pictures/1877_fw.png	242.45738005638123	
177	187.3185031414032	picture	0		99	175.0	/experiments/Knapen_AOT/AOT_stimuli/pictures/0231_fw.png	242.47361588478088	0.8333380222320557
177	188.1354625225067	response	0	j		175.0	/experiments/Knapen_AOT/AOT_stimuli/pictures/0231_fw.png	243.2905752658844	
178	188.15184116363525	picture	0		91	176.0	/experiments/Knapen_AOT/AOT_stimuli/pictures/0993_fw.png	243.30695390701294	0.7666923999786377
178	188.9020459651947	response	0	k		176.0	/experiments/Knapen_AOT/AOT_stimuli/pictures/0993_fw.png	244.0571587085724	
179	188.9185335636139	picture	0		125	177.0	/experiments/Knapen_AOT/AOT_stimuli/pictures/1657_fw.png	244.07364630699158	1.0500166416168213
179	189.95234489440918	response	0	j		177.0	/experiments/Knapen_AOT/AOT_stimuli/pictures/1657_fw.png	245.10745763778687	
180	189.9685502052307	picture	0		112	178.0	/experiments/Knapen_AOT/AOT_stimuli/pictures/0969_fw.png	245.1236629486084	0.9416718482971191
180	190.89373016357422	response	0	k		178.0	/experiments/Knapen_AOT/AOT_stimuli/pictures/0969_fw.png	246.0488429069519	
181	190.91022205352783	picture	0		97	179.0	/experiments/Knapen_AOT/AOT_stimuli/pictures/1787_fw.png	246.06533479690552	0.8166732788085938
181	191.7104754447937	response	0	k		179.0	/experiments/Knapen_AOT/AOT_stimuli/pictures/1787_fw.png	246.8655881881714	
182	191.72689533233643	picture	0		106	180.0	/experiments/Knapen_AOT/AOT_stimuli/pictures/1122_fw.png	246.8820080757141	0.891664981842041
182	192.60208201408386	response	0	j		180.0	/experiments/Knapen_AOT/AOT_stimuli/pictures/1122_fw.png	247.75719475746155	
183	192.61856031417847	picture	0		305	181.0	/experiments/Knapen_AOT/AOT_stimuli/pictures/0948_fw.png	247.77367305755615	2.5500447750091553
183	195.14455008506775	response	0	k		181.0	/experiments/Knapen_AOT/AOT_stimuli/pictures/0948_fw.png	250.29966282844543	
184	195.16860508918762	picture	0		96	182.0	/experiments/Knapen_AOT/AOT_stimuli/pictures/1960_fw.png	250.3237178325653	0.8083298206329346
184	195.9605197906494	response	0	k		182.0	/experiments/Knapen_AOT/AOT_stimuli/pictures/1960_fw.png	251.1156325340271	
185	195.97693490982056	picture	0		109	183.0	/experiments/Knapen_AOT/AOT_stimuli/pictures/1659_fw.png	251.13204765319824	0.916719913482666
185	196.87722754478455	response	0	k		183.0	/experiments/Knapen_AOT/AOT_stimuli/pictures/1659_fw.png	252.03234028816223	
186	196.89365482330322	picture	0		109	184.0	/experiments/Knapen_AOT/AOT_stimuli/pictures/2016_fw.png	252.0487675666809	0.9166383743286133
186	197.79384016990662	response	0	k		184.0	/experiments/Knapen_AOT/AOT_stimuli/pictures/2016_fw.png	252.9489529132843	
187	197.81029319763184	picture	0		93	185.0	/experiments/Knapen_AOT/AOT_stimuli/pictures/1054_fw.png	252.96540594100952	0.7787103652954102
187	198.57717776298523	response	0	j		185.0	/experiments/Knapen_AOT/AOT_stimuli/pictures/1054_fw.png	253.73229050636292	
188	198.58900356292725	picture	0		264	186.0	/experiments/Knapen_AOT/AOT_stimuli/pictures/0139_fw.png	253.74411630630493	2.2047178745269775
188	200.77716040611267	response	0	k		186.0	/experiments/Knapen_AOT/AOT_stimuli/pictures/0139_fw.png	255.93227314949036	
189	200.79372143745422	picture	0		89	187.0	/experiments/Knapen_AOT/AOT_stimuli/pictures/0382_fw.png	255.9488341808319	0.7499973773956299
189	201.52755689620972	response	0	k		187.0	/experiments/Knapen_AOT/AOT_stimuli/pictures/0382_fw.png	256.6826696395874	
190	201.54371881484985	picture	0		93	188.0	/experiments/Knapen_AOT/AOT_stimuli/pictures/1668_fw.png	256.69883155822754	0.7832992076873779
190	202.31055855751038	response	0	k		188.0	/experiments/Knapen_AOT/AOT_stimuli/pictures/1668_fw.png	257.46567130088806	
191	202.32701802253723	picture	0		143	189.0	/experiments/Knapen_AOT/AOT_stimuli/pictures/0805_fw.png	257.4821307659149	1.1925411224365234
191	203.51054573059082	response	0	k		189.0	/experiments/Knapen_AOT/AOT_stimuli/pictures/0805_fw.png	258.6656584739685	
192	203.51955914497375	picture	0		124	190.0	/experiments/Knapen_AOT/AOT_stimuli/pictures/1779_fw.png	258.67467188835144	1.0347483158111572
192	204.53639245033264	response	0	k		190.0	/experiments/Knapen_AOT/AOT_stimuli/pictures/1779_fw.png	259.6915051937103	
193	204.5543074607849	picture	0		98	191.0	/experiments/Knapen_AOT/AOT_stimuli/pictures/0519_fw.png	259.7094202041626	0.822746992111206
193	205.36055088043213	response	0	k		191.0	/experiments/Knapen_AOT/AOT_stimuli/pictures/0519_fw.png	260.5156636238098	
194	205.37705445289612	picture	0		233	192.0	/experiments/Knapen_AOT/AOT_stimuli/pictures/0368_fw.png	260.5321671962738	1.9500210285186768
194	207.31151366233826	response	0	k		192.0	/experiments/Knapen_AOT/AOT_stimuli/pictures/0368_fw.png	262.46662640571594	
195	207.3270754814148	picture	0		107	193.0	/experiments/Knapen_AOT/AOT_stimuli/pictures/1548_fw.png	262.4821882247925	0.9000124931335449
195	208.21056485176086	response	0	k		193.0	/experiments/Knapen_AOT/AOT_stimuli/pictures/1548_fw.png	263.36567759513855	
196	208.22708797454834	picture	0		145	194.0	/experiments/Knapen_AOT/AOT_stimuli/pictures/1474_fw.png	263.382200717926	1.209153652191162
196	209.42725229263306	response	0	k		194.0	/experiments/Knapen_AOT/AOT_stimuli/pictures/1474_fw.png	264.58236503601074	
197	209.4362416267395	picture	0		94	195.0	/experiments/Knapen_AOT/AOT_stimuli/pictures/0576_fw.png	264.5913543701172	0.7847287654876709
197	210.21063780784607	response	0	j		195.0	/experiments/Knapen_AOT/AOT_stimuli/pictures/0576_fw.png	265.36575055122375	
198	210.22097039222717	picture	0		113	196.0	/experiments/Knapen_AOT/AOT_stimuli/pictures/1957_fw.png	265.37608313560486	0.9444711208343506
198	211.15233492851257	response	0	k		196.0	/experiments/Knapen_AOT/AOT_stimuli/pictures/1957_fw.png	266.30744767189026	
199	211.16544151306152	picture	0		104	197.0	/experiments/Knapen_AOT/AOT_stimuli/pictures/0586_fw.png	266.3205542564392	0.870006799697876
199	212.01923418045044	response	0	j		197.0	/experiments/Knapen_AOT/AOT_stimuli/pictures/0586_fw.png	267.1743469238281	
200	212.0354483127594	picture	0		94	198.0	/experiments/Knapen_AOT/AOT_stimuli/pictures/1645_fw.png	267.1905610561371	0.7897229194641113
200	212.81066489219666	response	0	k		198.0	/experiments/Knapen_AOT/AOT_stimuli/pictures/1645_fw.png	267.96577763557434	
201	212.8251712322235	picture	0		101	199.0	/experiments/Knapen_AOT/AOT_stimuli/pictures/2052_fw.png	267.9802839756012	0.8519644737243652
201	213.66074895858765	response	0	j		199.0	/experiments/Knapen_AOT/AOT_stimuli/pictures/2052_fw.png	268.81586170196533	
202	213.67713570594788	picture	0		152	200.0	/experiments/Knapen_AOT/AOT_stimuli/pictures/1153_fw.png	268.83224844932556	1.2750153541564941
202	214.92810893058777	response	0	k		200.0	/experiments/Knapen_AOT/AOT_stimuli/pictures/1153_fw.png	270.08322167396545	
203	214.95215106010437	picture	0		250	201.0	/experiments/Knapen_AOT/AOT_stimuli/pictures/2108_fw.png	270.10726380348206	2.091721296310425
203	217.0273518562317	response	0	k		201.0	/experiments/Knapen_AOT/AOT_stimuli/pictures/2108_fw.png	272.1824645996094	
204	217.0438723564148	picture	0		82	202.0	/experiments/Knapen_AOT/AOT_stimuli/pictures/0242_fw.png	272.1989850997925	0.6840755939483643
204	217.71243143081665	response	0	j		202.0	/experiments/Knapen_AOT/AOT_stimuli/pictures/0242_fw.png	272.86754417419434	
205	217.72794795036316	picture	0		147	203.0	/experiments/Knapen_AOT/AOT_stimuli/pictures/1194_fw.png	272.88306069374084	1.229194164276123
205	218.93649554252625	response	0	k		203.0	/experiments/Knapen_AOT/AOT_stimuli/pictures/1194_fw.png	274.09160828590393	
206	218.95714211463928	picture	0		143	204.0	/experiments/Knapen_AOT/AOT_stimuli/pictures/1264_fw.png	274.11225485801697	1.2034251689910889
206	220.1442220211029	response	0	k		204.0	/experiments/Knapen_AOT/AOT_stimuli/pictures/1264_fw.png	275.2993347644806	
207	220.16056728363037	picture	0		93	205.0	/experiments/Knapen_AOT/AOT_stimuli/pictures/1820_fw.png	275.31568002700806	0.7758426666259766
207	220.92773056030273	response	0	k		205.0	/experiments/Knapen_AOT/AOT_stimuli/pictures/1820_fw.png	276.0828433036804	
208	220.93640995025635	picture	0		94	206.0	/experiments/Knapen_AOT/AOT_stimuli/pictures/1191_fw.png	276.09152269363403	0.7908282279968262
208	221.71082639694214	response	0	k		206.0	/experiments/Knapen_AOT/AOT_stimuli/pictures/1191_fw.png	276.8659391403198	
209	221.72723817825317	picture	0		101	207.0	/experiments/Knapen_AOT/AOT_stimuli/pictures/0620_fw.png	276.88235092163086	0.850013017654419
209	222.56084632873535	response	0	j		207.0	/experiments/Knapen_AOT/AOT_stimuli/pictures/0620_fw.png	277.71595907211304	
210	222.5772511959076	picture	0		118	208.0	/experiments/Knapen_AOT/AOT_stimuli/pictures/0514_fw.png	277.7323639392853	0.9840540885925293
210	223.55243802070618	response	0	j		208.0	/experiments/Knapen_AOT/AOT_stimuli/pictures/0514_fw.png	278.70755076408386	
211	223.56130528450012	picture	0		115	209.0	/experiments/Knapen_AOT/AOT_stimuli/pictures/0978_fw.png	278.7164180278778	0.958376407623291
211	224.51086449623108	response	0	k		209.0	/experiments/Knapen_AOT/AOT_stimuli/pictures/0978_fw.png	279.66597723960876	
212	224.5196816921234	picture	0		106	210.0	/experiments/Knapen_AOT/AOT_stimuli/pictures/1642_fw.png	279.6747944355011	0.8910143375396729
212	225.39414262771606	response	0	j		210.0	/experiments/Knapen_AOT/AOT_stimuli/pictures/1642_fw.png	280.54925537109375	
213	225.4106960296631	picture	0		98	211.0	/experiments/Knapen_AOT/AOT_stimuli/pictures/1892_fw.png	280.56580877304077	0.8173160552978516
213	226.21912050247192	response	0	k		211.0	/experiments/Knapen_AOT/AOT_stimuli/pictures/1892_fw.png	281.3742332458496	
214	226.22801208496094	picture	0		85	212.0	/experiments/Knapen_AOT/AOT_stimuli/pictures/1835_fw.png	281.3831248283386	0.7083735466003418
214	226.92053079605103	response	0	j		212.0	/experiments/Knapen_AOT/AOT_stimuli/pictures/1835_fw.png	282.0756435394287	
215	226.93638563156128	picture	0		125	213.0	/experiments/Knapen_AOT/AOT_stimuli/pictures/0305_fw.png	282.09149837493896	1.0492899417877197
215	227.96913170814514	response	0	k		213.0	/experiments/Knapen_AOT/AOT_stimuli/pictures/0305_fw.png	283.1242444515228	
216	227.985675573349	picture	0		112	214.0	/experiments/Knapen_AOT/AOT_stimuli/pictures/0397_fw.png	283.1407883167267	0.9416203498840332
216	228.91108298301697	response	0	j		214.0	/experiments/Knapen_AOT/AOT_stimuli/pictures/0397_fw.png	284.06619572639465	
217	228.92729592323303	picture	0		106	215.0	/experiments/Knapen_AOT/AOT_stimuli/pictures/0901_fw.png	284.0824086666107	0.8917455673217773
217	229.8025450706482	response	0	k		215.0	/experiments/Knapen_AOT/AOT_stimuli/pictures/0901_fw.png	284.9576578140259	
218	229.8190414905548	picture	0		88	216.0	/experiments/Knapen_AOT/AOT_stimuli/pictures/0755_fw.png	284.9741542339325	0.7416386604309082
218	230.53675508499146	response	0	j		216.0	/experiments/Knapen_AOT/AOT_stimuli/pictures/0755_fw.png	285.69186782836914	
219	230.56068015098572	picture	0		102	217.0	/experiments/Knapen_AOT/AOT_stimuli/pictures/0531_fw.png	285.7157928943634	0.8549222946166992
219	231.40253233909607	response	0	j		217.0	/experiments/Knapen_AOT/AOT_stimuli/pictures/0531_fw.png	286.55764508247375	
220	231.41560244560242	picture	0		94	218.0	/experiments/Knapen_AOT/AOT_stimuli/pictures/1126_fw.png	286.5707151889801	0.7950959205627441
220	232.19422507286072	response	0	k		218.0	/experiments/Knapen_AOT/AOT_stimuli/pictures/1126_fw.png	287.3493378162384	
221	232.21069836616516	picture	0		163	219.0	/experiments/Knapen_AOT/AOT_stimuli/pictures/0801_fw.png	287.36581110954285	1.3666818141937256
221	233.56092381477356	response	0	k		219.0	/experiments/Knapen_AOT/AOT_stimuli/pictures/0801_fw.png	288.71603655815125	
222	233.5773801803589	picture	0		142	220.0	/experiments/Knapen_AOT/AOT_stimuli/pictures/0632_fw.png	288.7324929237366	1.191673755645752
222	234.75283527374268	response	0	k		220.0	/experiments/Knapen_AOT/AOT_stimuli/pictures/0632_fw.png	289.90794801712036	
223	234.76905393600464	picture	0		126	221.0	/experiments/Knapen_AOT/AOT_stimuli/pictures/1568_fw.png	289.9241666793823	1.0583572387695312
223	235.81090354919434	response	0	k		221.0	/experiments/Knapen_AOT/AOT_stimuli/pictures/1568_fw.png	290.966016292572	
224	235.82741117477417	picture	0		126	222.0	/experiments/Knapen_AOT/AOT_stimuli/pictures/0611_fw.png	290.98252391815186	1.0534698963165283
224	236.8692660331726	response	0	k		222.0	/experiments/Knapen_AOT/AOT_stimuli/pictures/0611_fw.png	292.0243787765503	
225	236.8808810710907	picture	0		129	223.0	/experiments/Knapen_AOT/AOT_stimuli/pictures/1075_fw.png	292.0359938144684	1.0798990726470947
225	237.94430255889893	response	0	k		223.0	/experiments/Knapen_AOT/AOT_stimuli/pictures/1075_fw.png	293.0994153022766	
226	237.9607801437378	picture	0		97	224.0	/experiments/Knapen_AOT/AOT_stimuli/pictures/0991_fw.png	293.1158928871155	0.8089773654937744
226	238.761004447937	response	0	k		224.0	/experiments/Knapen_AOT/AOT_stimuli/pictures/0991_fw.png	293.9161171913147	
227	238.76975750923157	picture	0		109	225.0	/experiments/Knapen_AOT/AOT_stimuli/pictures/0680_fw.png	293.92487025260925	0.9166860580444336
227	239.66954565048218	response	0	j		225.0	/experiments/Knapen_AOT/AOT_stimuli/pictures/0680_fw.png	294.82465839385986	
228	239.686443567276	picture	0		103	226.0	/experiments/Knapen_AOT/AOT_stimuli/pictures/1295_fw.png	294.8415563106537	0.8660197257995605
228	240.53634023666382	response	0	j		226.0	/experiments/Knapen_AOT/AOT_stimuli/pictures/1295_fw.png	295.6914529800415	
229	240.55246329307556	picture	0		286	227.0	/experiments/Knapen_AOT/AOT_stimuli/pictures/1011_fw.png	295.70757603645325	2.39172625541687
229	242.92086505889893	response	0	j		227.0	/experiments/Knapen_AOT/AOT_stimuli/pictures/1011_fw.png	298.0759778022766	
230	242.94418954849243	picture	0		125	228.0	/experiments/Knapen_AOT/AOT_stimuli/pictures/1447_fw.png	298.0993022918701	1.047908067703247
230	243.97771453857422	response	0	j		228.0	/experiments/Knapen_AOT/AOT_stimuli/pictures/1447_fw.png	299.1328272819519	
231	243.99209761619568	picture	0		88	229.0	/experiments/Knapen_AOT/AOT_stimuli/pictures/1549_fw.png	299.14721035957336	0.7437467575073242
231	244.71940803527832	response	0	j		229.0	/experiments/Knapen_AOT/AOT_stimuli/pictures/1549_fw.png	299.874520778656	
232	244.735844373703	picture	0		84	230.0	/experiments/Knapen_AOT/AOT_stimuli/pictures/1114_fw.png	299.8909571170807	0.7006349563598633
232	245.4276795387268	response	0	j		230.0	/experiments/Knapen_AOT/AOT_stimuli/pictures/1114_fw.png	300.5827922821045	
233	245.43647933006287	picture	0		103	231.0	/experiments/Knapen_AOT/AOT_stimuli/pictures/0391_fw.png	300.59159207344055	0.8660495281219482
233	246.28607296943665	response	0	k		231.0	/experiments/Knapen_AOT/AOT_stimuli/pictures/0391_fw.png	301.44118571281433	
234	246.30252885818481	picture	0		120	232.0	/experiments/Knapen_AOT/AOT_stimuli/pictures/1079_fw.png	301.4576416015625	1.0020196437835693
234	247.29444456100464	response	0	k		232.0	/experiments/Knapen_AOT/AOT_stimuli/pictures/1079_fw.png	302.4495573043823	
235	247.30454850196838	picture	0		118	233.0	/experiments/Knapen_AOT/AOT_stimuli/pictures/0817_fw.png	302.45966124534607	0.9897449016571045
235	248.27777361869812	response	0	j		233.0	/experiments/Knapen_AOT/AOT_stimuli/pictures/0817_fw.png	303.4328863620758	
236	248.2942934036255	picture	0		104	234.0	/experiments/Knapen_AOT/AOT_stimuli/pictures/0990_fw.png	303.4494061470032	0.8749921321868896
236	249.15279579162598	response	0	k		234.0	/experiments/Knapen_AOT/AOT_stimuli/pictures/0990_fw.png	304.30790853500366	
237	249.16928553581238	picture	0		102	235.0	/experiments/Knapen_AOT/AOT_stimuli/pictures/2008_fw.png	304.32439827919006	0.8505706787109375
237	250.01108574867249	response	0	k		235.0	/experiments/Knapen_AOT/AOT_stimuli/pictures/2008_fw.png	305.16619849205017	
238	250.01985621452332	picture	0		99	236.0	/experiments/Knapen_AOT/AOT_stimuli/pictures/0750_fw.png	305.174968957901	0.8327353000640869
238	250.8361051082611	response	0	j		236.0	/experiments/Knapen_AOT/AOT_stimuli/pictures/0750_fw.png	305.9912178516388	
239	250.8525915145874	picture	0		112	237.0	/experiments/Knapen_AOT/AOT_stimuli/pictures/1333_fw.png	306.0077042579651	0.941666841506958
239	251.7777817249298	response	0	k		237.0	/experiments/Knapen_AOT/AOT_stimuli/pictures/1333_fw.png	306.9328944683075	
240	251.79425835609436	picture	0		123	238.0	/experiments/Knapen_AOT/AOT_stimuli/pictures/0190_fw.png	306.94937109947205	1.0333855152130127
240	252.81117868423462	response	0	j		238.0	/experiments/Knapen_AOT/AOT_stimuli/pictures/0190_fw.png	307.9662914276123	
241	252.82764387130737	picture	0		116	239.0	/experiments/Knapen_AOT/AOT_stimuli/pictures/1614_fw.png	307.98275661468506	0.9749805927276611
241	253.78619003295898	response	0	j		239.0	/experiments/Knapen_AOT/AOT_stimuli/pictures/1614_fw.png	308.94130277633667	
242	253.80262446403503	picture	0		98	240.0	/experiments/Knapen_AOT/AOT_stimuli/pictures/1234_fw.png	308.9577372074127	0.8250322341918945
242	254.61115884780884	response	0	k		240.0	/experiments/Knapen_AOT/AOT_stimuli/pictures/1234_fw.png	309.7662715911865	
243	254.62765669822693	picture	0		112	241.0	/experiments/Knapen_AOT/AOT_stimuli/pictures/1555_fw.png	309.7827694416046	0.9416368007659912
243	255.5528597831726	response	0	k		241.0	/experiments/Knapen_AOT/AOT_stimuli/pictures/1555_fw.png	310.7079725265503	
244	255.56929349899292	picture	0		183	242.0	/experiments/Knapen_AOT/AOT_stimuli/pictures/1268_fw.png	310.7244062423706	1.533393144607544
244	257.08615827560425	response	0	k		242.0	/experiments/Knapen_AOT/AOT_stimuli/pictures/1268_fw.png	312.24127101898193	
245	257.10268664360046	picture	0		86	243.0	/experiments/Knapen_AOT/AOT_stimuli/pictures/0656_fw.png	312.25779938697815	0.7249846458435059
245	257.811172246933	response	0	k		243.0	/experiments/Knapen_AOT/AOT_stimuli/pictures/0656_fw.png	312.96628499031067	
246	257.82767128944397	picture	0		104	244.0	/experiments/Knapen_AOT/AOT_stimuli/pictures/1142_fw.png	312.98278403282166	0.8728039264678955
246	258.6862359046936	response	0	j		244.0	/experiments/Knapen_AOT/AOT_stimuli/pictures/1142_fw.png	313.8413486480713	
247	258.70047521591187	picture	0		95	245.0	/experiments/Knapen_AOT/AOT_stimuli/pictures/1222_fw.png	313.85558795928955	0.7986059188842773
247	259.4861624240875	response	0	k		245.0	/experiments/Knapen_AOT/AOT_stimuli/pictures/1222_fw.png	314.6412751674652	
248	259.49908113479614	picture	0		260	246.0	/experiments/Knapen_AOT/AOT_stimuli/pictures/1734_fw.png	314.6541938781738	2.1786515712738037
248	261.6612243652344	response	0	k		246.0	/experiments/Knapen_AOT/AOT_stimuli/pictures/1734_fw.png	316.81633710861206	
249	261.67773270606995	picture	0		114	247.0	/experiments/Knapen_AOT/AOT_stimuli/pictures/1408_fw.png	316.83284544944763	0.9583530426025391
249	262.61956906318665	response	0	k		247.0	/experiments/Knapen_AOT/AOT_stimuli/pictures/1408_fw.png	317.77468180656433	
250	262.6360857486725	picture	0		87	248.0	/experiments/Knapen_AOT/AOT_stimuli/pictures/0522_fw.png	317.79119849205017	0.733344316482544
250	263.3529131412506	response	0	k		248.0	/experiments/Knapen_AOT/AOT_stimuli/pictures/0522_fw.png	318.5080258846283	
251	263.36943006515503	picture	0		114	249.0	/experiments/Knapen_AOT/AOT_stimuli/pictures/0154_fw.png	318.5245428085327	0.9583203792572021
251	264.311487197876	response	0	k		249.0	/experiments/Knapen_AOT/AOT_stimuli/pictures/0154_fw.png	319.46659994125366	
252	264.32775044441223	picture	0		179	250.0	/experiments/Knapen_AOT/AOT_stimuli/pictures/1382_fw.png	319.4828631877899	1.5000855922698975
252	265.81129264831543	response	0	j		250.0	/experiments/Knapen_AOT/AOT_stimuli/pictures/1382_fw.png	320.9664053916931	
253	265.82783603668213	picture	0		84	251.0	/experiments/Knapen_AOT/AOT_stimuli/pictures/0954_fw.png	320.9829487800598	0.708259105682373
253	266.51966094970703	response	0	k		251.0	/experiments/Knapen_AOT/AOT_stimuli/pictures/0954_fw.png	321.6747736930847	
254	266.5360951423645	picture	0		94	252.0	/experiments/Knapen_AOT/AOT_stimuli/pictures/1429_fw.png	321.6912078857422	0.7916760444641113
254	267.31132316589355	response	0	k		252.0	/experiments/Knapen_AOT/AOT_stimuli/pictures/1429_fw.png	322.46643590927124	
255	267.3277711868286	picture	0		108	253.0	/experiments/Knapen_AOT/AOT_stimuli/pictures/0314_fw.png	322.4828839302063	0.9083588123321533
255	268.2196590900421	response	0	k		253.0	/experiments/Knapen_AOT/AOT_stimuli/pictures/0314_fw.png	323.3747718334198	
256	268.23612999916077	picture	0		86	254.0	/experiments/Knapen_AOT/AOT_stimuli/pictures/2160_fw.png	323.39124274253845	0.7250158786773682
256	268.94466495513916	response	0	j		254.0	/experiments/Knapen_AOT/AOT_stimuli/pictures/2160_fw.png	324.09977769851685	
257	268.96114587783813	picture	0		94	255.0	/experiments/Knapen_AOT/AOT_stimuli/pictures/1527_fw.png	324.1162586212158	0.791677713394165
257	269.73636531829834	response	0	j		255.0	/experiments/Knapen_AOT/AOT_stimuli/pictures/1527_fw.png	324.891478061676	
258	269.7528235912323	picture	0		307	256.0	/experiments/Knapen_AOT/AOT_stimuli/pictures/0825_fw.png	324.90793633461	2.566676378250122
258	272.3030297756195	response	0	k		256.0	/experiments/Knapen_AOT/AOT_stimuli/pictures/0825_fw.png	327.4581425189972	
259	272.3194999694824	picture	0		257	257.0	/experiments/Knapen_AOT/AOT_stimuli/pictures/1299_fw.png	327.4746127128601	2.15006947517395
259	274.4530351161957	response	0	k		257.0	/experiments/Knapen_AOT/AOT_stimuli/pictures/1299_fw.png	329.60814785957336	
260	274.4695694446564	picture	0		94	258.0	/experiments/Knapen_AOT/AOT_stimuli/pictures/0040_fw.png	329.62468218803406	0.7916338443756104
260	275.2447621822357	response	0	k		258.0	/experiments/Knapen_AOT/AOT_stimuli/pictures/0040_fw.png	330.3998749256134	
261	275.261203289032	picture	0		97	259.0	/experiments/Knapen_AOT/AOT_stimuli/pictures/1891_fw.png	330.41631603240967	0.816673994064331
261	276.06156301498413	response	0	j		259.0	/experiments/Knapen_AOT/AOT_stimuli/pictures/1891_fw.png	331.2166757583618	
262	276.0778772830963	picture	0		133	260.0	/experiments/Knapen_AOT/AOT_stimuli/pictures/0374_fw.png	331.232990026474	1.1167871952056885
262	277.178297996521	response	0	j		260.0	/experiments/Knapen_AOT/AOT_stimuli/pictures/0374_fw.png	332.3334107398987	
263	277.194664478302	picture	0		124	261.0	/experiments/Knapen_AOT/AOT_stimuli/pictures/1499_fw.png	332.3497772216797	1.0415654182434082
263	278.21980333328247	response	0	j		261.0	/experiments/Knapen_AOT/AOT_stimuli/pictures/1499_fw.png	333.37491607666016	
264	278.2362298965454	picture	0		104	262.0	/experiments/Knapen_AOT/AOT_stimuli/pictures/2002_fw.png	333.3913426399231	0.8750827312469482
264	279.0884819030762	response	0	k		262.0	/experiments/Knapen_AOT/AOT_stimuli/pictures/2002_fw.png	334.24359464645386	
265	279.11131262779236	picture	0		82	263.0	/experiments/Knapen_AOT/AOT_stimuli/pictures/1761_fw.png	334.26642537117004	0.6915922164916992
265	279.78644347190857	response	0	j		263.0	/experiments/Knapen_AOT/AOT_stimuli/pictures/1761_fw.png	334.94155621528625	
266	279.80290484428406	picture	0		95	264.0	/experiments/Knapen_AOT/AOT_stimuli/pictures/0031_fw.png	334.95801758766174	0.8000380992889404
266	280.58677411079407	response	0	k		264.0	/experiments/Knapen_AOT/AOT_stimuli/pictures/0031_fw.png	335.74188685417175	
267	280.602942943573	picture	0		199	265.0	/experiments/Knapen_AOT/AOT_stimuli/pictures/0953_fw.png	335.7580556869507	1.6670324802398682
267	282.25312423706055	response	0	k		265.0	/experiments/Knapen_AOT/AOT_stimuli/pictures/0953_fw.png	337.40823698043823	
268	282.26997542381287	picture	0		193	266.0	/experiments/Knapen_AOT/AOT_stimuli/pictures/0876_fw.png	337.42508816719055	1.6111135482788086
268	283.86987924575806	response	0	j		266.0	/experiments/Knapen_AOT/AOT_stimuli/pictures/0876_fw.png	339.02499198913574	
269	283.8810889720917	picture	0		106	267.0	/experiments/Knapen_AOT/AOT_stimuli/pictures/0403_fw.png	339.03620171546936	0.8820586204528809
269	284.7532012462616	response	0	k		267.0	/experiments/Knapen_AOT/AOT_stimuli/pictures/0403_fw.png	339.9083139896393	
270	284.76314759254456	picture	0		104	268.0	/experiments/Knapen_AOT/AOT_stimuli/pictures/0236_fw.png	339.91826033592224	0.8732104301452637
270	285.61986351013184	response	0	k		268.0	/experiments/Knapen_AOT/AOT_stimuli/pictures/0236_fw.png	340.7749762535095	
271	285.6363580226898	picture	0		123	269.0	/experiments/Knapen_AOT/AOT_stimuli/pictures/1150_fw.png	340.7914707660675	1.0295617580413818
271	286.6532070636749	response	0	k		269.0	/experiments/Knapen_AOT/AOT_stimuli/pictures/1150_fw.png	341.8083198070526	
272	286.6659197807312	picture	0		108	270.0	/experiments/Knapen_AOT/AOT_stimuli/pictures/1595_fw.png	341.8210325241089	0.9037654399871826
272	287.55320620536804	response	0	k		270.0	/experiments/Knapen_AOT/AOT_stimuli/pictures/1595_fw.png	342.7083189487457	
273	287.5696852207184	picture	0		115	271.0	/experiments/Knapen_AOT/AOT_stimuli/pictures/1493_fw.png	342.72479796409607	0.964362382888794
273	288.5124490261078	response	0	j		271.0	/experiments/Knapen_AOT/AOT_stimuli/pictures/1493_fw.png	343.6675617694855	
274	288.5340476036072	picture	0		103	272.0	/experiments/Knapen_AOT/AOT_stimuli/pictures/0913_fw.png	343.68916034698486	0.8689966201782227
274	289.38654613494873	response	0	k		272.0	/experiments/Knapen_AOT/AOT_stimuli/pictures/0913_fw.png	344.5416588783264	
275	289.4030442237854	picture	0		95	273.0	/experiments/Knapen_AOT/AOT_stimuli/pictures/1275_fw.png	344.5581569671631	0.8000164031982422
275	290.18672037124634	response	0	j		273.0	/experiments/Knapen_AOT/AOT_stimuli/pictures/1275_fw.png	345.341833114624	
276	290.20306062698364	picture	0		102	274.0	/experiments/Knapen_AOT/AOT_stimuli/pictures/1986_fw.png	345.3581733703613	0.8583354949951172
276	291.0449345111847	response	0	j		274.0	/experiments/Knapen_AOT/AOT_stimuli/pictures/1986_fw.png	346.2000472545624	
277	291.06139612197876	picture	0		85	275.0	/experiments/Knapen_AOT/AOT_stimuli/pictures/0181_fw.png	346.21650886535645	0.7087085247039795
277	291.7615511417389	response	0	j		275.0	/experiments/Knapen_AOT/AOT_stimuli/pictures/0181_fw.png	346.9166638851166	
278	291.77010464668274	picture	0		131	276.0	/experiments/Knapen_AOT/AOT_stimuli/pictures/0893_fw.png	346.9252173900604	1.0996408462524414
278	292.8532621860504	response	0	j		276.0	/experiments/Knapen_AOT/AOT_stimuli/pictures/0893_fw.png	348.0083749294281	
279	292.8697454929352	picture	0		108	277.0	/experiments/Knapen_AOT/AOT_stimuli/pictures/0244_fw.png	348.02485823631287	0.9083271026611328
279	293.76166009902954	response	0	j		277.0	/experiments/Knapen_AOT/AOT_stimuli/pictures/0244_fw.png	348.9167728424072	
280	293.7780725955963	picture	0		102	278.0	/experiments/Knapen_AOT/AOT_stimuli/pictures/0756_fw.png	348.933185338974	0.8583765029907227
280	294.6200006008148	response	0	k		278.0	/experiments/Knapen_AOT/AOT_stimuli/pictures/0756_fw.png	349.7751133441925	
281	294.63644909858704	picture	0		153	279.0	/experiments/Knapen_AOT/AOT_stimuli/pictures/0818_fw.png	349.7915618419647	1.2833495140075684
281	295.90346670150757	response	0	j		279.0	/experiments/Knapen_AOT/AOT_stimuli/pictures/0818_fw.png	351.05857944488525	
282	295.9197986125946	picture	0		146	280.0	/experiments/Knapen_AOT/AOT_stimuli/pictures/1753_fw.png	351.0749113559723	1.2184340953826904
282	297.12107253074646	response	0	k		280.0	/experiments/Knapen_AOT/AOT_stimuli/pictures/1753_fw.png	352.27618527412415	
283	297.1382327079773	picture	0		84	281.0	/experiments/Knapen_AOT/AOT_stimuli/pictures/0579_fw.png	352.293345451355	0.7065792083740234
283	297.82834672927856	response	0	k		281.0	/experiments/Knapen_AOT/AOT_stimuli/pictures/0579_fw.png	352.98345947265625	
284	297.8448119163513	picture	0		209	282.0	/experiments/Knapen_AOT/AOT_stimuli/pictures/0223_fw.png	352.999924659729	1.7447149753570557
284	299.578351020813	response	0	k		282.0	/experiments/Knapen_AOT/AOT_stimuli/pictures/0223_fw.png	354.7334637641907	
285	299.5895268917084	picture	0		120	283.0	/experiments/Knapen_AOT/AOT_stimuli/pictures/1673_fw.png	354.74463963508606	1.0052967071533203
285	300.5783541202545	response	0	k		283.0	/experiments/Knapen_AOT/AOT_stimuli/pictures/1673_fw.png	355.7334668636322	
286	300.5948235988617	picture	0		146	284.0	/experiments/Knapen_AOT/AOT_stimuli/pictures/0422_fw.png	355.7499363422394	1.2250101566314697
286	301.80335450172424	response	0	j		284.0	/experiments/Knapen_AOT/AOT_stimuli/pictures/0422_fw.png	356.95846724510193	
287	301.81983375549316	picture	0		115	285.0	/experiments/Knapen_AOT/AOT_stimuli/pictures/1651_fw.png	356.97494649887085	0.96427321434021
287	302.77005195617676	response	0	k		285.0	/experiments/Knapen_AOT/AOT_stimuli/pictures/1651_fw.png	357.92516469955444	
288	302.7841069698334	picture	0		77	286.0	/experiments/Knapen_AOT/AOT_stimuli/pictures/1468_fw.png	357.93921971321106	0.6458134651184082
288	303.4200496673584	response	0	k		286.0	/experiments/Knapen_AOT/AOT_stimuli/pictures/1468_fw.png	358.5751624107361	
289	303.4299204349518	picture	0		102	287.0	/experiments/Knapen_AOT/AOT_stimuli/pictures/2060_fw.png	358.58503317832947	0.8566324710845947
289	304.27006554603577	response	0	j		287.0	/experiments/Knapen_AOT/AOT_stimuli/pictures/2060_fw.png	359.42517828941345	
290	304.2865529060364	picture	0		124	288.0	/experiments/Knapen_AOT/AOT_stimuli/pictures/1312_fw.png	359.44166564941406	1.0416936874389648
290	305.311767578125	response	0	k		288.0	/experiments/Knapen_AOT/AOT_stimuli/pictures/1312_fw.png	360.4668803215027	
291	305.32824659347534	picture	0		118	289.0	/experiments/Knapen_AOT/AOT_stimuli/pictures/0803_fw.png	360.483359336853	0.9916441440582275
291	306.30341506004333	response	0	k		289.0	/experiments/Knapen_AOT/AOT_stimuli/pictures/0803_fw.png	361.458527803421	
292	306.31989073753357	picture	0		82	290.0	/experiments/Knapen_AOT/AOT_stimuli/pictures/2117_fw.png	361.47500348091125	0.6864242553710938
292	306.99508333206177	response	0	j		290.0	/experiments/Knapen_AOT/AOT_stimuli/pictures/2117_fw.png	362.15019607543945	
293	307.00631499290466	picture	0		127	291.0	/experiments/Knapen_AOT/AOT_stimuli/pictures/1178_fw.png	362.16142773628235	1.0636069774627686
293	308.0534496307373	response	0	k		291.0	/experiments/Knapen_AOT/AOT_stimuli/pictures/1178_fw.png	363.208562374115	
294	308.06992197036743	picture	0		122	292.0	/experiments/Knapen_AOT/AOT_stimuli/pictures/2146_fw.png	363.2250347137451	1.019817590713501
294	309.07847356796265	response	0	k		292.0	/experiments/Knapen_AOT/AOT_stimuli/pictures/2146_fw.png	364.23358631134033	
295	309.08973956108093	picture	0		87	293.0	/experiments/Knapen_AOT/AOT_stimuli/pictures/0446_fw.png	364.2448523044586	0.7221660614013672
295	309.8034632205963	response	0	k		293.0	/experiments/Knapen_AOT/AOT_stimuli/pictures/0446_fw.png	364.958575963974	
296	309.8119056224823	picture	0		176	294.0	/experiments/Knapen_AOT/AOT_stimuli/pictures/0816_fw.png	364.96701836586	1.474743366241455
296	311.2703402042389	response	0	k		294.0	/experiments/Knapen_AOT/AOT_stimuli/pictures/0816_fw.png	366.4254529476166	
297	311.28664898872375	picture	0		119	295.0	/experiments/Knapen_AOT/AOT_stimuli/pictures/2158_fw.png	366.44176173210144	1.0000295639038086
297	312.27016711235046	response	0	k		295.0	/experiments/Knapen_AOT/AOT_stimuli/pictures/2158_fw.png	367.42527985572815	
298	312.28667855262756	picture	0		89	296.0	/experiments/Knapen_AOT/AOT_stimuli/pictures/2140_fw.png	367.44179129600525	0.7499914169311523
298	313.020231962204	response	0	k		296.0	/experiments/Knapen_AOT/AOT_stimuli/pictures/2140_fw.png	368.17534470558167	
299	313.0366699695587	picture	0		101	297.0	/experiments/Knapen_AOT/AOT_stimuli/pictures/1316_fw.png	368.1917827129364	0.8447957038879395
299	313.8701992034912	response	0	k		297.0	/experiments/Knapen_AOT/AOT_stimuli/pictures/1316_fw.png	369.0253119468689	
300	313.88146567344666	picture	0		135	298.0	/experiments/Knapen_AOT/AOT_stimuli/pictures/0461_fw.png	369.03657841682434	1.1302032470703125
300	314.9951899051666	response	0	k		298.0	/experiments/Knapen_AOT/AOT_stimuli/pictures/0461_fw.png	370.1503026485443	
301	315.01166892051697	picture	0		277	299.0	/experiments/Knapen_AOT/AOT_stimuli/pictures/1489_fw.png	370.16678166389465	2.3167219161987305
301	317.3050866127014	response	0	k		299.0	/experiments/Knapen_AOT/AOT_stimuli/pictures/1489_fw.png	372.4601993560791	
302	317.3283908367157	picture	0		85	300.0	/experiments/Knapen_AOT/AOT_stimuli/pictures/1252_fw.png	372.4835035800934	0.7166633605957031
302	318.02856516838074	response	0	k		300.0	/experiments/Knapen_AOT/AOT_stimuli/pictures/1252_fw.png	373.1836779117584	
303	318.0450541973114	picture	0		96	301.0	/experiments/Knapen_AOT/AOT_stimuli/pictures/1415_fw.png	373.2001669406891	0.8083524703979492
303	318.8369109630585	response	0	k		301.0	/experiments/Knapen_AOT/AOT_stimuli/pictures/1415_fw.png	373.99202370643616	
304	318.85340666770935	picture	0		91	302.0	/experiments/Knapen_AOT/AOT_stimuli/pictures/1677_fw.png	374.00851941108704	0.7666642665863037
304	319.6036128997803	response	0	k		302.0	/experiments/Knapen_AOT/AOT_stimuli/pictures/1677_fw.png	374.75872564315796	
305	319.62007093429565	picture	0		117	303.0	/experiments/Knapen_AOT/AOT_stimuli/pictures/1794_fw.png	374.77518367767334	0.9833462238311768
305	320.58704590797424	response	0	k		303.0	/experiments/Knapen_AOT/AOT_stimuli/pictures/1794_fw.png	375.74215865135193	
306	320.60341715812683	picture	0		88	304.0	/experiments/Knapen_AOT/AOT_stimuli/pictures/1613_fw.png	375.7585299015045	0.741675853729248
306	321.32866048812866	response	0	k		304.0	/experiments/Knapen_AOT/AOT_stimuli/pictures/1613_fw.png	376.48377323150635	
307	321.3450930118561	picture	0		139	305.0	/experiments/Knapen_AOT/AOT_stimuli/pictures/0022_fw.png	376.50020575523376	1.1666433811187744
307	322.4954364299774	response	0	k		305.0	/experiments/Knapen_AOT/AOT_stimuli/pictures/0022_fw.png	377.6505491733551	
308	322.51173639297485	picture	0		109	306.0	/experiments/Knapen_AOT/AOT_stimuli/pictures/0746_fw.png	377.66684913635254	0.916748046875
308	323.4119544029236	response	0	k		306.0	/experiments/Knapen_AOT/AOT_stimuli/pictures/0746_fw.png	378.56706714630127	
309	323.42848443984985	picture	0		94	307.0	/experiments/Knapen_AOT/AOT_stimuli/pictures/1349_fw.png	378.58359718322754	0.7916402816772461
309	324.2036852836609	response	0	k		307.0	/experiments/Knapen_AOT/AOT_stimuli/pictures/1349_fw.png	379.3587980270386	
310	324.2201247215271	picture	0		137	308.0	/experiments/Knapen_AOT/AOT_stimuli/pictures/0554_fw.png	379.3752374649048	1.1500205993652344
310	325.35371017456055	response	0	j		308.0	/experiments/Knapen_AOT/AOT_stimuli/pictures/0554_fw.png	380.50882291793823	
311	325.37014532089233	picture	0		82	309.0	/experiments/Knapen_AOT/AOT_stimuli/pictures/0330_fw.png	380.52525806427	0.6916656494140625
311	326.04531741142273	response	0	k		309.0	/experiments/Knapen_AOT/AOT_stimuli/pictures/0330_fw.png	381.2004301548004	
312	326.0618109703064	picture	0		120	310.0	/experiments/Knapen_AOT/AOT_stimuli/pictures/1199_fw.png	381.2169237136841	1.008389949798584
312	327.053670167923	response	0	k		310.0	/experiments/Knapen_AOT/AOT_stimuli/pictures/1199_fw.png	382.20878291130066	
313	327.070200920105	picture	0		103	311.0	/experiments/Knapen_AOT/AOT_stimuli/pictures/1073_fw.png	382.22531366348267	0.8666386604309082
313	327.9204797744751	response	0	j		311.0	/experiments/Knapen_AOT/AOT_stimuli/pictures/1073_fw.png	383.0755925178528	
314	327.9368395805359	picture	0		90	312.0	/experiments/Knapen_AOT/AOT_stimuli/pictures/2095_fw.png	383.0919523239136	0.7583310604095459
314	328.67869901657104	response	0	k		312.0	/experiments/Knapen_AOT/AOT_stimuli/pictures/2095_fw.png	383.83381175994873	
315	328.69517064094543	picture	0		150	313.0	/experiments/Knapen_AOT/AOT_stimuli/pictures/1900_fw.png	383.8502833843231	1.2583491802215576
315	329.93704891204834	response	0	k		313.0	/experiments/Knapen_AOT/AOT_stimuli/pictures/1900_fw.png	385.092161655426	
316	329.953519821167	picture	0		74	314.0	/experiments/Knapen_AOT/AOT_stimuli/pictures/2056_fw.png	385.1086325645447	0.6250355243682861
316	330.5620827674866	response	0	k		314.0	/experiments/Knapen_AOT/AOT_stimuli/pictures/2056_fw.png	385.71719551086426	
317	330.5785553455353	picture	0		103	315.0	/experiments/Knapen_AOT/AOT_stimuli/pictures/1135_fw.png	385.73366808891296	0.8666634559631348
317	331.42877554893494	response	0	j		315.0	/experiments/Knapen_AOT/AOT_stimuli/pictures/1135_fw.png	386.5838882923126	
318	331.4452188014984	picture	0		99	316.0	/experiments/Knapen_AOT/AOT_stimuli/pictures/0275_fw.png	386.6003315448761	0.8333179950714111
318	332.2621829509735	response	0	k		316.0	/experiments/Knapen_AOT/AOT_stimuli/pictures/0275_fw.png	387.4172956943512	
319	332.2785367965698	picture	0		99	317.0	/experiments/Knapen_AOT/AOT_stimuli/pictures/0878_fw.png	387.4336495399475	0.8333721160888672
319	333.08882212638855	response	0	k		317.0	/experiments/Knapen_AOT/AOT_stimuli/pictures/0878_fw.png	388.24393486976624	
320	333.1119089126587	picture	0		311	318.0	/experiments/Knapen_AOT/AOT_stimuli/pictures/1368_fw.png	388.2670216560364	2.60005521774292
320	335.69543266296387	response	0	k		318.0	/experiments/Knapen_AOT/AOT_stimuli/pictures/1368_fw.png	390.85054540634155	
321	335.7119641304016	picture	0		91	319.0	/experiments/Knapen_AOT/AOT_stimuli/pictures/0603_fw.png	390.8670768737793	0.7666592597961426
321	336.4622278213501	response	0	j		319.0	/experiments/Knapen_AOT/AOT_stimuli/pictures/0603_fw.png	391.6173405647278	
322	336.47862339019775	picture	0		104	320.0	/experiments/Knapen_AOT/AOT_stimuli/pictures/0251_fw.png	391.63373613357544	0.8750338554382324
322	337.3372211456299	response	0	j		320.0	/experiments/Knapen_AOT/AOT_stimuli/pictures/0251_fw.png	392.49233388900757	
323	337.353657245636	picture	0		88	321.0	/experiments/Knapen_AOT/AOT_stimuli/pictures/0221_fw.png	392.5087699890137	0.7416331768035889
323	338.0787808895111	response	0	j		321.0	/experiments/Knapen_AOT/AOT_stimuli/pictures/0221_fw.png	393.2338936328888	
324	338.0952904224396	picture	0		107	322.0	/experiments/Knapen_AOT/AOT_stimuli/pictures/2179_fw.png	393.25040316581726	0.9000682830810547
324	338.9788067340851	response	0	k		322.0	/experiments/Knapen_AOT/AOT_stimuli/pictures/2179_fw.png	394.13391947746277	
325	338.99535870552063	picture	0		93	323.0	/experiments/Knapen_AOT/AOT_stimuli/pictures/1479_fw.png	394.1504714488983	0.783287763595581
325	339.7621717453003	response	0	k		323.0	/experiments/Knapen_AOT/AOT_stimuli/pictures/1479_fw.png	394.917284488678	
326	339.7786464691162	picture	0		180	324.0	/experiments/Knapen_AOT/AOT_stimuli/pictures/0911_fw.png	394.9337592124939	1.508401870727539
326	341.2705295085907	response	0	k		324.0	/experiments/Knapen_AOT/AOT_stimuli/pictures/0911_fw.png	396.4256422519684	
327	341.28704833984375	picture	0		120	325.0	/experiments/Knapen_AOT/AOT_stimuli/pictures/0640_fw.png	396.44216108322144	1.0082921981811523
327	342.2791187763214	response	0	k		325.0	/experiments/Knapen_AOT/AOT_stimuli/pictures/0640_fw.png	397.4342315196991	
328	342.2953405380249	picture	0		92	326.0	/experiments/Knapen_AOT/AOT_stimuli/pictures/0933_fw.png	397.4504532814026	0.7750160694122314
328	343.05386662483215	response	0	j		326.0	/experiments/Knapen_AOT/AOT_stimuli/pictures/0933_fw.png	398.20897936820984	
329	343.07035660743713	picture	0		121	327.0	/experiments/Knapen_AOT/AOT_stimuli/pictures/1148_fw.png	398.2254693508148	1.0167112350463867
329	344.07052636146545	response	0	j		327.0	/experiments/Knapen_AOT/AOT_stimuli/pictures/1148_fw.png	399.22563910484314	
330	344.0870678424835	picture	0		130	328.0	/experiments/Knapen_AOT/AOT_stimuli/pictures/0226_fw.png	399.2421805858612	1.091637134552002
330	345.16227102279663	response	0	k		328.0	/experiments/Knapen_AOT/AOT_stimuli/pictures/0226_fw.png	400.3173837661743	
331	345.1787049770355	picture	0		149	329.0	/experiments/Knapen_AOT/AOT_stimuli/pictures/0203_fw.png	400.3338177204132	1.25003981590271
331	346.41229128837585	response	0	j		329.0	/experiments/Knapen_AOT/AOT_stimuli/pictures/0203_fw.png	401.56740403175354	
332	346.42874479293823	picture	0		114	330.0	/experiments/Knapen_AOT/AOT_stimuli/pictures/0565_fw.png	401.5838575363159	0.9528634548187256
332	347.37058186531067	response	0	k		330.0	/experiments/Knapen_AOT/AOT_stimuli/pictures/0565_fw.png	402.52569460868835	
333	347.38160824775696	picture	0		117	331.0	/experiments/Knapen_AOT/AOT_stimuli/pictures/0229_fw.png	402.53672099113464	0.9804737567901611
333	348.3455185890198	response	0	k		331.0	/experiments/Knapen_AOT/AOT_stimuli/pictures/0229_fw.png	403.50063133239746	
334	348.3620820045471	picture	0		112	332.0	/experiments/Knapen_AOT/AOT_stimuli/pictures/0462_fw.png	403.5171947479248	0.941669225692749
334	349.28726720809937	response	0	k		332.0	/experiments/Knapen_AOT/AOT_stimuli/pictures/0462_fw.png	404.44237995147705	
335	349.30375123023987	picture	0		114	333.0	/experiments/Knapen_AOT/AOT_stimuli/pictures/1380_fw.png	404.45886397361755	0.958338737487793
335	350.2457070350647	response	0	k		333.0	/experiments/Knapen_AOT/AOT_stimuli/pictures/1380_fw.png	405.4008197784424	
336	350.26208996772766	picture	0		102	334.0	/experiments/Knapen_AOT/AOT_stimuli/pictures/0066_fw.png	405.41720271110535	0.8583724498748779
336	351.0964524745941	response	0	j		334.0	/experiments/Knapen_AOT/AOT_stimuli/pictures/0066_fw.png	406.2515652179718	
337	351.12046241760254	picture	0		103	335.0	/experiments/Knapen_AOT/AOT_stimuli/pictures/0442_fw.png	406.2755751609802	0.8666660785675049
337	351.9706428050995	response	0	k		335.0	/experiments/Knapen_AOT/AOT_stimuli/pictures/0442_fw.png	407.1257555484772	
338	351.98712849617004	picture	0		122	336.0	/experiments/Knapen_AOT/AOT_stimuli/pictures/1236_fw.png	407.14224123954773	1.0250051021575928
338	352.9956991672516	response	0	k		336.0	/experiments/Knapen_AOT/AOT_stimuli/pictures/1236_fw.png	408.1508119106293	
339	353.01213359832764	picture	0		73	337.0	/experiments/Knapen_AOT/AOT_stimuli/pictures/1500_fw.png	408.1672463417053	0.6166894435882568
339	353.6123411655426	response	0	k		337.0	/experiments/Knapen_AOT/AOT_stimuli/pictures/1500_fw.png	408.7674539089203	
340	353.6288230419159	picture	0		183	338.0	/experiments/Knapen_AOT/AOT_stimuli/pictures/1663_fw.png	408.7839357852936	1.5333890914916992
340	355.14594292640686	response	0	k		338.0	/experiments/Knapen_AOT/AOT_stimuli/pictures/1663_fw.png	410.30105566978455	
341	355.1622121334076	picture	0		151	339.0	/experiments/Knapen_AOT/AOT_stimuli/pictures/1515_fw.png	410.3173248767853	1.266632318496704
341	356.41238832473755	response	0	j		339.0	/experiments/Knapen_AOT/AOT_stimuli/pictures/1515_fw.png	411.56750106811523	
342	356.4288444519043	picture	0		86	340.0	/experiments/Knapen_AOT/AOT_stimuli/pictures/0074_fw.png	411.583957195282	0.7250106334686279
342	357.1373927593231	response	0	j		340.0	/experiments/Knapen_AOT/AOT_stimuli/pictures/0074_fw.png	412.2925055027008	
343	357.1538550853729	picture	0		113	341.0	/experiments/Knapen_AOT/AOT_stimuli/pictures/0581_fw.png	412.3089678287506	0.9501097202301025
343	358.08742237091064	response	0	j		341.0	/experiments/Knapen_AOT/AOT_stimuli/pictures/0581_fw.png	413.24253511428833	
344	358.103964805603	picture	0		89	342.0	/experiments/Knapen_AOT/AOT_stimuli/pictures/2144_fw.png	413.2590775489807	0.7500228881835938
344	358.8373849391937	response	0	k		342.0	/experiments/Knapen_AOT/AOT_stimuli/pictures/2144_fw.png	413.9924976825714	
345	358.8539876937866	picture	0		105	343.0	/experiments/Knapen_AOT/AOT_stimuli/pictures/0333_fw.png	414.0091004371643	0.8832323551177979
345	359.7207579612732	response	0	k		343.0	/experiments/Knapen_AOT/AOT_stimuli/pictures/0333_fw.png	414.8758707046509	
346	359.7372200489044	picture	0		105	344.0	/experiments/Knapen_AOT/AOT_stimuli/pictures/1802_fw.png	414.8923327922821	0.883350133895874
346	360.60418367385864	response	0	j		344.0	/experiments/Knapen_AOT/AOT_stimuli/pictures/1802_fw.png	415.7592964172363	
347	360.6205701828003	picture	0		87	345.0	/experiments/Knapen_AOT/AOT_stimuli/pictures/1882_fw.png	415.775682926178	0.7333729267120361
347	361.33744072914124	response	0	j		345.0	/experiments/Knapen_AOT/AOT_stimuli/pictures/1882_fw.png	416.4925534725189	
348	361.35394310951233	picture	0		161	346.0	/experiments/Knapen_AOT/AOT_stimuli/pictures/0346_fw.png	416.50905585289	1.3499808311462402
348	362.6812655925751	response	0	k		346.0	/experiments/Knapen_AOT/AOT_stimuli/pictures/0346_fw.png	417.83637833595276	
349	362.70392394065857	picture	0		87	347.0	/experiments/Knapen_AOT/AOT_stimuli/pictures/0428_fw.png	417.85903668403625	0.7333931922912598
349	363.4208047389984	response	0	k		347.0	/experiments/Knapen_AOT/AOT_stimuli/pictures/0428_fw.png	418.5759174823761	
350	363.43731713294983	picture	0		138	348.0	/experiments/Knapen_AOT/AOT_stimuli/pictures/1998_fw.png	418.5924298763275	1.1582744121551514
350	364.57915139198303	response	0	k		348.0	/experiments/Knapen_AOT/AOT_stimuli/pictures/1998_fw.png	419.7342641353607	
351	364.595591545105	picture	0		107	349.0	/experiments/Knapen_AOT/AOT_stimuli/pictures/1085_fw.png	419.75070428848267	0.9000346660614014
351	365.4725570678711	response	0	k		349.0	/experiments/Knapen_AOT/AOT_stimuli/pictures/1085_fw.png	420.6276698112488	
352	365.4956262111664	picture	0		85	350.0	/experiments/Knapen_AOT/AOT_stimuli/pictures/1159_fw.png	420.65073895454407	0.7166719436645508
352	366.1958017349243	response	0	j		350.0	/experiments/Knapen_AOT/AOT_stimuli/pictures/1159_fw.png	421.350914478302	
353	366.21229815483093	picture	0		140	351.0	/experiments/Knapen_AOT/AOT_stimuli/pictures/1244_fw.png	421.3674108982086	1.1750233173370361
353	367.37085032463074	response	0	j		351.0	/experiments/Knapen_AOT/AOT_stimuli/pictures/1244_fw.png	422.5259630680084	
354	367.38732147216797	picture	0		85	352.0	/experiments/Knapen_AOT/AOT_stimuli/pictures/1724_fw.png	422.54243421554565	0.7167413234710693
354	368.0875244140625	response	0	j		352.0	/experiments/Knapen_AOT/AOT_stimuli/pictures/1724_fw.png	423.2426371574402	
355	368.10406279563904	picture	0		100	353.0	/experiments/Knapen_AOT/AOT_stimuli/pictures/0672_fw.png	423.2591755390167	0.8416149616241455
355	368.92917108535767	response	0	k		353.0	/experiments/Knapen_AOT/AOT_stimuli/pictures/0672_fw.png	424.08428382873535	
356	368.9456777572632	picture	0		100	354.0	/experiments/Knapen_AOT/AOT_stimuli/pictures/0696_fw.png	424.10079050064087	0.8416595458984375
356	369.7709586620331	response	0	j		354.0	/experiments/Knapen_AOT/AOT_stimuli/pictures/0696_fw.png	424.92607140541077	
357	369.7873373031616	picture	0		137	355.0	/experiments/Knapen_AOT/AOT_stimuli/pictures/2172_fw.png	424.9424500465393	1.1500351428985596
357	370.92091631889343	response	0	j		355.0	/experiments/Knapen_AOT/AOT_stimuli/pictures/2172_fw.png	426.0760290622711	
358	370.9373724460602	picture	0		102	356.0	/experiments/Knapen_AOT/AOT_stimuli/pictures/1212_fw.png	426.09248518943787	0.858330249786377
358	371.77923011779785	response	0	k		356.0	/experiments/Knapen_AOT/AOT_stimuli/pictures/1212_fw.png	426.93434286117554	
359	371.79570269584656	picture	0		139	357.0	/experiments/Knapen_AOT/AOT_stimuli/pictures/1709_fw.png	426.95081543922424	1.1667118072509766
359	372.9458909034729	response	0	k		357.0	/experiments/Knapen_AOT/AOT_stimuli/pictures/1709_fw.png	428.1010036468506	
360	372.96241450309753	picture	0		179	358.0	/experiments/Knapen_AOT/AOT_stimuli/pictures/0437_fw.png	428.1175272464752	1.4999732971191406
360	374.4459476470947	response	0	k		358.0	/experiments/Knapen_AOT/AOT_stimuli/pictures/0437_fw.png	429.6010603904724	
361	374.4623878002167	picture	0		94	359.0	/experiments/Knapen_AOT/AOT_stimuli/pictures/1631_fw.png	429.61750054359436	0.791668176651001
361	375.2376067638397	response	0	j		359.0	/experiments/Knapen_AOT/AOT_stimuli/pictures/1631_fw.png	430.3927195072174	
362	375.2540559768677	stim	0		787			430.40916872024536	6.577104806900024
362	381.81115341186523	response	0	space				436.9662661552429	
