trial_nr	onset	event_type	phase	response	nr_frames	picture_index	picture_file	onset_abs	duration
0	0.14175057411193848	stim	0		1169			134.29751014709473	9.758320808410645
0	9.883594036102295	response	0	space				144.03935360908508	
2	9.900071382522583	picture	0		185	0.0	/experiments/Knapen_AOT/AOT_stimuli/pictures/0468_fw.png	144.05583095550537	1.5500013828277588
2	11.433619499206543	response	0	j		0.0	/experiments/Knapen_AOT/AOT_stimuli/pictures/0468_fw.png	145.58937907218933	
3	11.450072765350342	picture	0		116	1.0	/experiments/Knapen_AOT/AOT_stimuli/pictures/1096_fw.png	145.60583233833313	0.9695231914520264
3	12.40861701965332	response	0	k		1.0	/experiments/Knapen_AOT/AOT_stimuli/pictures/1096_fw.png	146.5643765926361	
4	12.419595956802368	picture	0		156	2.0	/experiments/Knapen_AOT/AOT_stimuli/pictures/1950_fw.png	146.57535552978516	1.3056340217590332
4	13.708694696426392	response	0	j		2.0	/experiments/Knapen_AOT/AOT_stimuli/pictures/1950_fw.png	147.86445426940918	
5	13.725229978561401	picture	0		113	3.0	/experiments/Knapen_AOT/AOT_stimuli/pictures/0425_fw.png	147.8809895515442	0.9499099254608154
5	14.658717632293701	response	0	k		3.0	/experiments/Knapen_AOT/AOT_stimuli/pictures/0425_fw.png	148.8144772052765	
6	14.675139904022217	picture	0		94	4.0	/experiments/Knapen_AOT/AOT_stimuli/pictures/0747_fw.png	148.830899477005	0.7862000465393066
6	15.450404405593872	response	0	j		4.0	/experiments/Knapen_AOT/AOT_stimuli/pictures/0747_fw.png	149.60616397857666	
7	15.461339950561523	picture	0		107	5.0	/experiments/Knapen_AOT/AOT_stimuli/pictures/1221_fw.png	149.6170995235443	0.8889634609222412
7	16.342013597488403	response	0	j		5.0	/experiments/Knapen_AOT/AOT_stimuli/pictures/1221_fw.png	150.4977731704712	
8	16.350303411483765	picture	0		197	6.0	/experiments/Knapen_AOT/AOT_stimuli/pictures/0860_fw.png	150.50606298446655	1.6456446647644043
8	17.983738660812378	response	0	j		6.0	/experiments/Knapen_AOT/AOT_stimuli/pictures/0860_fw.png	152.13949823379517	
9	17.99594807624817	picture	0		175	7.0	/experiments/Knapen_AOT/AOT_stimuli/pictures/2063_fw.png	152.15170764923096	1.4625918865203857
9	19.4351806640625	response	0	j		7.0	/experiments/Knapen_AOT/AOT_stimuli/pictures/2063_fw.png	153.5909402370453	
10	19.458539962768555	picture	0		89	8.0	/experiments/Knapen_AOT/AOT_stimuli/pictures/0077_fw.png	153.61429953575134	0.7458570003509521
10	20.1920747756958	response	0	j		8.0	/experiments/Knapen_AOT/AOT_stimuli/pictures/0077_fw.png	154.3478343486786	
11	20.204396963119507	picture	0		87	9.0	/experiments/Knapen_AOT/AOT_stimuli/pictures/0179_fw.png	154.3601565361023	0.7292532920837402
11	20.925665855407715	response	0	j		9.0	/experiments/Knapen_AOT/AOT_stimuli/pictures/0179_fw.png	155.0814254283905	
12	20.933650255203247	picture	0		98	10.0	/experiments/Knapen_AOT/AOT_stimuli/pictures/1261_fw.png	155.08940982818604	0.8248987197875977
12	21.742125511169434	response	0	k		10.0	/experiments/Knapen_AOT/AOT_stimuli/pictures/1261_fw.png	155.89788508415222	
13	21.758548974990845	picture	0		178	11.0	/experiments/Knapen_AOT/AOT_stimuli/pictures/0833_fw.png	155.91430854797363	1.4917101860046387
13	23.23385453224182	response	0	k		11.0	/experiments/Knapen_AOT/AOT_stimuli/pictures/0833_fw.png	157.3896141052246	
14	23.250259160995483	picture	0		172	12.0	/experiments/Knapen_AOT/AOT_stimuli/pictures/0622_fw.png	157.40601873397827	1.433337688446045
14	24.67545747756958	response	0	j		12.0	/experiments/Knapen_AOT/AOT_stimuli/pictures/0622_fw.png	158.83121705055237	
15	24.68359684944153	picture	0		170	13.0	/experiments/Knapen_AOT/AOT_stimuli/pictures/0126_fw.png	158.83935642242432	1.4166715145111084
15	26.092164278030396	response	0	k		13.0	/experiments/Knapen_AOT/AOT_stimuli/pictures/0126_fw.png	160.24792385101318	
16	26.100268363952637	picture	0		112	14.0	/experiments/Knapen_AOT/AOT_stimuli/pictures/0819_fw.png	160.25602793693542	0.9417252540588379
16	27.025533199310303	response	0	k		14.0	/experiments/Knapen_AOT/AOT_stimuli/pictures/0819_fw.png	161.1812927722931	
17	27.041993618011475	picture	0		133	15.0	/experiments/Knapen_AOT/AOT_stimuli/pictures/1328_fw.png	161.19775319099426	1.1166622638702393
17	28.142404317855835	response	0	j		15.0	/experiments/Knapen_AOT/AOT_stimuli/pictures/1328_fw.png	162.29816389083862	
18	28.158655881881714	picture	0		135	16.0	/experiments/Knapen_AOT/AOT_stimuli/pictures/0903_fw.png	162.3144154548645	1.1291818618774414
18	29.27552366256714	response	0	j		16.0	/experiments/Knapen_AOT/AOT_stimuli/pictures/0903_fw.png	163.43128323554993	
19	29.287837743759155	picture	0		143	17.0	/experiments/Knapen_AOT/AOT_stimuli/pictures/0871_fw.png	163.44359731674194	1.1875734329223633
19	30.467207431793213	response	0	j		17.0	/experiments/Knapen_AOT/AOT_stimuli/pictures/0871_fw.png	164.622967004776	
20	30.47541117668152	picture	0		90	18.0	/experiments/Knapen_AOT/AOT_stimuli/pictures/1433_fw.png	164.6311707496643	0.7499947547912598
20	31.217310905456543	response	0	j		18.0	/experiments/Knapen_AOT/AOT_stimuli/pictures/1433_fw.png	165.37307047843933	
21	31.22540593147278	picture	0		99	19.0	/experiments/Knapen_AOT/AOT_stimuli/pictures/1350_fw.png	165.38116550445557	0.8263444900512695
21	32.035226583480835	response	0	k		19.0	/experiments/Knapen_AOT/AOT_stimuli/pictures/1350_fw.png	166.19098615646362	
22	32.05175042152405	picture	0		123	20.0	/experiments/Knapen_AOT/AOT_stimuli/pictures/1534_fw.png	166.20750999450684	1.0277574062347412
22	33.067238569259644	response	0	k		20.0	/experiments/Knapen_AOT/AOT_stimuli/pictures/1534_fw.png	167.22299814224243	
23	33.07950782775879	picture	0		102	21.0	/experiments/Knapen_AOT/AOT_stimuli/pictures/1117_fw.png	167.23526740074158	0.8542337417602539
23	33.917381048202515	response	0	k		21.0	/experiments/Knapen_AOT/AOT_stimuli/pictures/1117_fw.png	168.0731406211853	
24	33.93374156951904	picture	0		143	22.0	/experiments/Knapen_AOT/AOT_stimuli/pictures/0984_fw.png	168.08950114250183	1.194411277770996
24	35.117303133010864	response	0	k		22.0	/experiments/Knapen_AOT/AOT_stimuli/pictures/0984_fw.png	169.27306270599365	
25	35.12815284729004	picture	0		141	23.0	/experiments/Knapen_AOT/AOT_stimuli/pictures/2031_fw.png	169.28391242027283	1.1735897064208984
25	36.29232954978943	response	0	k		23.0	/experiments/Knapen_AOT/AOT_stimuli/pictures/2031_fw.png	170.44808912277222	
26	36.30174255371094	picture	0		160	24.0	/experiments/Knapen_AOT/AOT_stimuli/pictures/1656_fw.png	170.45750212669373	1.3332774639129639
26	37.62567448616028	response	0	j		24.0	/experiments/Knapen_AOT/AOT_stimuli/pictures/1656_fw.png	171.78143405914307	
27	37.6350200176239	picture	0		237	25.0	/experiments/Knapen_AOT/AOT_stimuli/pictures/2102_fw.png	171.7907795906067	1.982189416885376
27	39.60090661048889	response	0	j		25.0	/experiments/Knapen_AOT/AOT_stimuli/pictures/2102_fw.png	173.75666618347168	
28	39.61720943450928	picture	0		374	26.0	/experiments/Knapen_AOT/AOT_stimuli/pictures/2046_fw.png	173.77296900749207	3.124997854232788
28	42.72570514678955	response	0	j		26.0	/experiments/Knapen_AOT/AOT_stimuli/pictures/2046_fw.png	176.88146471977234	
29	42.742207288742065	picture	0		89	27.0	/experiments/Knapen_AOT/AOT_stimuli/pictures/0234_fw.png	176.89796686172485	0.7471516132354736
29	43.47572922706604	response	0	j		27.0	/experiments/Knapen_AOT/AOT_stimuli/pictures/0234_fw.png	177.63148880004883	
30	43.48935890197754	picture	0		81	28.0	/experiments/Knapen_AOT/AOT_stimuli/pictures/0913_fw.png	177.64511847496033	0.68052077293396
30	44.15910530090332	response	0	j		28.0	/experiments/Knapen_AOT/AOT_stimuli/pictures/0913_fw.png	178.3148648738861	
31	44.1698796749115	picture	0		88	29.0	/experiments/Knapen_AOT/AOT_stimuli/pictures/2060_fw.png	178.3256392478943	0.7361562252044678
31	44.89249777793884	response	0	j		29.0	/experiments/Knapen_AOT/AOT_stimuli/pictures/2060_fw.png	179.04825735092163	
32	44.90603590011597	picture	0		113	30.0	/experiments/Knapen_AOT/AOT_stimuli/pictures/0779_fw.png	179.06179547309875	0.9528744220733643
32	45.8426296710968	response	0	j		30.0	/experiments/Knapen_AOT/AOT_stimuli/pictures/0779_fw.png	179.9983892440796	
33	45.85891032218933	picture	0		118	31.0	/experiments/Knapen_AOT/AOT_stimuli/pictures/2008_fw.png	180.01466989517212	0.9846014976501465
33	46.82673764228821	response	0	k		31.0	/experiments/Knapen_AOT/AOT_stimuli/pictures/2008_fw.png	180.982497215271	
34	46.84351181983948	picture	0		144	32.0	/experiments/Knapen_AOT/AOT_stimuli/pictures/1240_fw.png	180.99927139282227	1.2014384269714355
34	48.026559352874756	response	0	k		32.0	/experiments/Knapen_AOT/AOT_stimuli/pictures/1240_fw.png	182.18231892585754	
35	48.04495024681091	picture	0		107	33.0	/experiments/Knapen_AOT/AOT_stimuli/pictures/2022_fw.png	182.2007098197937	0.8973548412322998
35	48.925812005996704	response	0	k		33.0	/experiments/Knapen_AOT/AOT_stimuli/pictures/2022_fw.png	183.0815715789795	
36	48.94230508804321	picture	0		140	34.0	/experiments/Knapen_AOT/AOT_stimuli/pictures/0225_fw.png	183.098064661026	1.1721105575561523
36	50.100820779800415	response	0	k		34.0	/experiments/Knapen_AOT/AOT_stimuli/pictures/0225_fw.png	184.2565803527832	
37	50.114415645599365	picture	0		89	35.0	/experiments/Knapen_AOT/AOT_stimuli/pictures/1592_fw.png	184.27017521858215	0.7529454231262207
37	50.85088539123535	response	0	j		35.0	/experiments/Knapen_AOT/AOT_stimuli/pictures/1592_fw.png	185.00664496421814	
38	50.867361068725586	picture	0		83	36.0	/experiments/Knapen_AOT/AOT_stimuli/pictures/0080_fw.png	185.02312064170837	0.6916038990020752
38	51.550889015197754	response	0	k		36.0	/experiments/Knapen_AOT/AOT_stimuli/pictures/0080_fw.png	185.70664858818054	
39	51.55896496772766	picture	0		105	37.0	/experiments/Knapen_AOT/AOT_stimuli/pictures/2030_fw.png	185.71472454071045	0.8833839893341064
39	52.418641328811646	response	0	k		37.0	/experiments/Knapen_AOT/AOT_stimuli/pictures/2030_fw.png	186.57440090179443	
40	52.44234895706177	picture	0		186	38.0	/experiments/Knapen_AOT/AOT_stimuli/pictures/0494_fw.png	186.59810853004456	1.553938627243042
40	53.98417949676514	response	0	k		38.0	/experiments/Knapen_AOT/AOT_stimuli/pictures/0494_fw.png	188.13993906974792	
41	53.99628758430481	picture	0		150	39.0	/experiments/Knapen_AOT/AOT_stimuli/pictures/0129_fw.png	188.1520471572876	1.2544054985046387
41	55.226531982421875	response	0	k		39.0	/experiments/Knapen_AOT/AOT_stimuli/pictures/0129_fw.png	189.38229155540466	
42	55.25069308280945	picture	0		93	40.0	/experiments/Knapen_AOT/AOT_stimuli/pictures/0157_fw.png	189.40645265579224	0.7833824157714844
42	56.01768612861633	response	0	j		40.0	/experiments/Knapen_AOT/AOT_stimuli/pictures/0157_fw.png	190.17344570159912	
43	56.03407549858093	picture	0		97	41.0	/experiments/Knapen_AOT/AOT_stimuli/pictures/0983_fw.png	190.18983507156372	0.8095273971557617
43	56.827075242996216	response	0	j		41.0	/experiments/Knapen_AOT/AOT_stimuli/pictures/0983_fw.png	190.982834815979	
44	56.843602895736694	picture	0		138	42.0	/experiments/Knapen_AOT/AOT_stimuli/pictures/0060_fw.png	190.99936246871948	1.1527836322784424
44	57.98430562019348	response	0	k		42.0	/experiments/Knapen_AOT/AOT_stimuli/pictures/0060_fw.png	192.14006519317627	
45	57.99638652801514	picture	0		185	43.0	/experiments/Knapen_AOT/AOT_stimuli/pictures/0400_fw.png	192.15214610099792	1.5460913181304932
45	59.52596306800842	response	0	k		43.0	/experiments/Knapen_AOT/AOT_stimuli/pictures/0400_fw.png	193.6817226409912	
46	59.54247784614563	picture	0		97	44.0	/experiments/Knapen_AOT/AOT_stimuli/pictures/1720_fw.png	193.69823741912842	0.8082859516143799
46	60.342650413513184	response	0	k		44.0	/experiments/Knapen_AOT/AOT_stimuli/pictures/1720_fw.png	194.49840998649597	
47	60.35076379776001	picture	0		104	45.0	/experiments/Knapen_AOT/AOT_stimuli/pictures/0952_fw.png	194.5065233707428	0.8678860664367676
47	61.20930218696594	response	0	k		45.0	/experiments/Knapen_AOT/AOT_stimuli/pictures/0952_fw.png	195.36506175994873	
48	61.21864986419678	picture	0		179	46.0	/experiments/Knapen_AOT/AOT_stimuli/pictures/0683_fw.png	195.37440943717957	1.492978811264038
48	62.70101022720337	response	0	k		46.0	/experiments/Knapen_AOT/AOT_stimuli/pictures/0683_fw.png	196.85676980018616	
49	62.711628675460815	picture	0		165	47.0	/experiments/Knapen_AOT/AOT_stimuli/pictures/0729_fw.png	196.8673882484436	1.3809263706207275
49	64.07601737976074	response	0	k		47.0	/experiments/Knapen_AOT/AOT_stimuli/pictures/0729_fw.png	198.23177695274353	
50	64.09255504608154	picture	0		122	48.0	/experiments/Knapen_AOT/AOT_stimuli/pictures/1718_fw.png	198.24831461906433	1.024972915649414
50	65.10137915611267	response	0	k		48.0	/experiments/Knapen_AOT/AOT_stimuli/pictures/1718_fw.png	199.25713872909546	
51	65.11752796173096	picture	0		173	49.0	/experiments/Knapen_AOT/AOT_stimuli/pictures/0575_fw.png	199.27328753471375	1.4500868320465088
51	66.55119013786316	response	0	j		49.0	/experiments/Knapen_AOT/AOT_stimuli/pictures/0575_fw.png	200.70694971084595	
52	66.56761479377747	picture	0		225	50.0	/experiments/Knapen_AOT/AOT_stimuli/pictures/1927_fw.png	200.72337436676025	1.8832876682281494
52	68.43491816520691	response	0	k		50.0	/experiments/Knapen_AOT/AOT_stimuli/pictures/1927_fw.png	202.5906777381897	
53	68.45090246200562	picture	0		411	51.0	/experiments/Knapen_AOT/AOT_stimuli/pictures/2144_fw.png	202.6066620349884	3.43338942527771
53	71.86779689788818	response	0	k		51.0	/experiments/Knapen_AOT/AOT_stimuli/pictures/2144_fw.png	206.02355647087097	
54	71.88429188728333	picture	0		158	52.0	/experiments/Knapen_AOT/AOT_stimuli/pictures/0534_fw.png	206.0400514602661	1.3204753398895264
54	73.19275259971619	response	0	j		52.0	/experiments/Knapen_AOT/AOT_stimuli/pictures/0534_fw.png	207.34851217269897	
55	73.20476722717285	picture	0		107	53.0	/experiments/Knapen_AOT/AOT_stimuli/pictures/2114_fw.png	207.36052680015564	0.8962142467498779
55	74.08454990386963	response	0	k		53.0	/experiments/Knapen_AOT/AOT_stimuli/pictures/2114_fw.png	208.24030947685242	
56	74.10098147392273	picture	0		119	54.0	/experiments/Knapen_AOT/AOT_stimuli/pictures/0890_fw.png	208.25674104690552	0.9927854537963867
56	75.08445930480957	response	0	k		54.0	/experiments/Knapen_AOT/AOT_stimuli/pictures/0890_fw.png	209.24021887779236	
57	75.09376692771912	picture	0		104	55.0	/experiments/Knapen_AOT/AOT_stimuli/pictures/0079_fw.png	209.2495265007019	0.8680603504180908
57	75.95121765136719	response	0	k		55.0	/experiments/Knapen_AOT/AOT_stimuli/pictures/0079_fw.png	210.10697722434998	
58	75.9618272781372	picture	0		152	56.0	/experiments/Knapen_AOT/AOT_stimuli/pictures/1622_fw.png	210.11758685112	1.264159917831421
58	77.21787142753601	response	0	k		56.0	/experiments/Knapen_AOT/AOT_stimuli/pictures/1622_fw.png	211.3736310005188	
59	77.22598719596863	picture	0		140	57.0	/experiments/Knapen_AOT/AOT_stimuli/pictures/0221_fw.png	211.38174676895142	1.1750550270080566
59	78.38462042808533	response	0	j		57.0	/experiments/Knapen_AOT/AOT_stimuli/pictures/0221_fw.png	212.54038000106812	
60	78.40104222297668	picture	0		124	58.0	/experiments/Knapen_AOT/AOT_stimuli/pictures/1116_fw.png	212.55680179595947	1.0400445461273193
60	79.42649435997009	response	0	j		58.0	/experiments/Knapen_AOT/AOT_stimuli/pictures/1116_fw.png	213.58225393295288	
61	79.441086769104	picture	0		125	59.0	/experiments/Knapen_AOT/AOT_stimuli/pictures/1009_fw.png	213.5968463420868	1.0485825538635254
61	80.47623634338379	response	0	k		59.0	/experiments/Knapen_AOT/AOT_stimuli/pictures/1009_fw.png	214.63199591636658	
62	80.48966932296753	picture	0		237	60.0	/experiments/Knapen_AOT/AOT_stimuli/pictures/0006_fw.png	214.64542889595032	1.986424207687378
62	82.45959496498108	response	0	j		60.0	/experiments/Knapen_AOT/AOT_stimuli/pictures/0006_fw.png	216.61535453796387	
63	82.47609353065491	picture	0		239	61.0	/experiments/Knapen_AOT/AOT_stimuli/pictures/0635_fw.png	216.6318531036377	2.0000252723693848
63	84.45967245101929	response	0	k		61.0	/experiments/Knapen_AOT/AOT_stimuli/pictures/0635_fw.png	218.61543202400208	
64	84.47611880302429	picture	0		149	62.0	/experiments/Knapen_AOT/AOT_stimuli/pictures/0261_fw.png	218.63187837600708	1.2500026226043701
64	85.7096574306488	response	0	k		62.0	/experiments/Knapen_AOT/AOT_stimuli/pictures/0261_fw.png	219.8654170036316	
65	85.72612142562866	picture	0		136	63.0	/experiments/Knapen_AOT/AOT_stimuli/pictures/1409_fw.png	219.88188099861145	1.1386303901672363
65	86.85134172439575	response	0	k		63.0	/experiments/Knapen_AOT/AOT_stimuli/pictures/1409_fw.png	221.00710129737854	
66	86.8647518157959	picture	0		124	64.0	/experiments/Knapen_AOT/AOT_stimuli/pictures/1966_fw.png	221.0205113887787	1.0447475910186768
66	87.89299416542053	response	0	k		64.0	/experiments/Knapen_AOT/AOT_stimuli/pictures/1966_fw.png	222.04875373840332	
67	87.90949940681458	picture	0		156	65.0	/experiments/Knapen_AOT/AOT_stimuli/pictures/0472_fw.png	222.06525897979736	1.3083624839782715
67	89.20137882232666	response	0	k		65.0	/experiments/Knapen_AOT/AOT_stimuli/pictures/0472_fw.png	223.35713839530945	
68	89.21786189079285	picture	0		170	66.0	/experiments/Knapen_AOT/AOT_stimuli/pictures/0467_fw.png	223.37362146377563	1.425093650817871
68	90.62659859657288	response	0	k		66.0	/experiments/Knapen_AOT/AOT_stimuli/pictures/0467_fw.png	224.78235816955566	
69	90.64295554161072	picture	0		104	67.0	/experiments/Knapen_AOT/AOT_stimuli/pictures/1062_fw.png	224.7987151145935	0.8749563694000244
69	91.50143718719482	response	0	j		67.0	/experiments/Knapen_AOT/AOT_stimuli/pictures/1062_fw.png	225.6571967601776	
70	91.51791191101074	picture	0		139	68.0	/experiments/Knapen_AOT/AOT_stimuli/pictures/0876_fw.png	225.67367148399353	1.1666302680969238
70	92.6680965423584	response	0	k		68.0	/experiments/Knapen_AOT/AOT_stimuli/pictures/0876_fw.png	226.8238561153412	
71	92.68454217910767	picture	0		148	69.0	/experiments/Knapen_AOT/AOT_stimuli/pictures/2108_fw.png	226.84030175209045	1.2357802391052246
71	93.90977644920349	response	0	k		69.0	/experiments/Knapen_AOT/AOT_stimuli/pictures/2108_fw.png	228.06553602218628	
72	93.92032241821289	picture	0		134	70.0	/experiments/Knapen_AOT/AOT_stimuli/pictures/1900_fw.png	228.07608199119568	1.1180882453918457
72	95.02663922309875	response	0	j		70.0	/experiments/Knapen_AOT/AOT_stimuli/pictures/1900_fw.png	229.18239879608154	
73	95.03841066360474	picture	0		123	71.0	/experiments/Knapen_AOT/AOT_stimuli/pictures/1839_fw.png	229.19417023658752	1.0295193195343018
73	96.05155110359192	response	0	k		71.0	/experiments/Knapen_AOT/AOT_stimuli/pictures/1839_fw.png	230.2073106765747	
74	96.06792998313904	picture	0		117	72.0	/experiments/Knapen_AOT/AOT_stimuli/pictures/0826_fw.png	230.22368955612183	0.9833455085754395
74	97.03484916687012	response	0	j		72.0	/experiments/Knapen_AOT/AOT_stimuli/pictures/0826_fw.png	231.1906087398529	
75	97.05127549171448	picture	0		93	73.0	/experiments/Knapen_AOT/AOT_stimuli/pictures/0957_fw.png	231.20703506469727	0.7788105010986328
75	97.81164479255676	response	0	j		73.0	/experiments/Knapen_AOT/AOT_stimuli/pictures/0957_fw.png	231.96740436553955	
76	97.83008599281311	picture	0		91	74.0	/experiments/Knapen_AOT/AOT_stimuli/pictures/1106_fw.png	231.9858455657959	0.7569372653961182
76	98.57646584510803	response	0	j		74.0	/experiments/Knapen_AOT/AOT_stimuli/pictures/1106_fw.png	232.73222541809082	
77	98.58702325820923	picture	0		178	75.0	/experiments/Knapen_AOT/AOT_stimuli/pictures/1945_fw.png	232.74278283119202	1.4860830307006836
77	100.05984210968018	response	0	j		75.0	/experiments/Knapen_AOT/AOT_stimuli/pictures/1945_fw.png	234.21560168266296	
78	100.07310628890991	picture	0		87	76.0	/experiments/Knapen_AOT/AOT_stimuli/pictures/0771_fw.png	234.2288658618927	0.7292752265930176
78	100.79320478439331	response	0	j		76.0	/experiments/Knapen_AOT/AOT_stimuli/pictures/0771_fw.png	234.9489643573761	
79	100.80238151550293	picture	0		155	77.0	/experiments/Knapen_AOT/AOT_stimuli/pictures/2072_fw.png	234.95814108848572	1.291628122329712
79	102.0849301815033	response	0	k		77.0	/experiments/Knapen_AOT/AOT_stimuli/pictures/2072_fw.png	236.24068975448608	
80	102.09400963783264	picture	0		88	78.0	/experiments/Knapen_AOT/AOT_stimuli/pictures/1532_fw.png	236.24976921081543	0.7407653331756592
80	102.81056499481201	response	0	j		78.0	/experiments/Knapen_AOT/AOT_stimuli/pictures/1532_fw.png	236.9663245677948	
81	102.8347749710083	picture	0		121	79.0	/experiments/Knapen_AOT/AOT_stimuli/pictures/1258_fw.png	236.9905345439911	1.0166101455688477
81	103.83493518829346	response	0	j		79.0	/experiments/Knapen_AOT/AOT_stimuli/pictures/1258_fw.png	237.99069476127625	
82	103.85138511657715	picture	0		110	80.0	/experiments/Knapen_AOT/AOT_stimuli/pictures/0504_fw.png	238.00714468955994	0.9166378974914551
82	104.75988698005676	response	0	j		80.0	/experiments/Knapen_AOT/AOT_stimuli/pictures/0504_fw.png	238.91564655303955	
83	104.7680230140686	picture	0		112	81.0	/experiments/Knapen_AOT/AOT_stimuli/pictures/1800_fw.png	238.9237825870514	0.937171459197998
83	105.69327926635742	response	0	k		81.0	/experiments/Knapen_AOT/AOT_stimuli/pictures/1800_fw.png	239.8490388393402	
84	105.7051944732666	picture	0		123	82.0	/experiments/Knapen_AOT/AOT_stimuli/pictures/1916_fw.png	239.8609540462494	1.0211880207061768
84	106.71824979782104	response	0	k		82.0	/experiments/Knapen_AOT/AOT_stimuli/pictures/1916_fw.png	240.87400937080383	
85	106.72638249397278	picture	0		139	83.0	/experiments/Knapen_AOT/AOT_stimuli/pictures/0128_fw.png	240.88214206695557	1.1667211055755615
85	107.8767945766449	response	0	j		83.0	/experiments/Knapen_AOT/AOT_stimuli/pictures/0128_fw.png	242.03255414962769	
86	107.89310359954834	picture	0		115	84.0	/experiments/Knapen_AOT/AOT_stimuli/pictures/1908_fw.png	242.04886317253113	0.9666748046875
86	108.84342622756958	response	0	k		84.0	/experiments/Knapen_AOT/AOT_stimuli/pictures/1908_fw.png	242.99918580055237	
87	108.85977840423584	picture	0		101	85.0	/experiments/Knapen_AOT/AOT_stimuli/pictures/1753_fw.png	243.01553797721863	0.8454194068908691
87	109.69332361221313	response	0	j		85.0	/experiments/Knapen_AOT/AOT_stimuli/pictures/1753_fw.png	243.84908318519592	
88	109.70519781112671	picture	0		131	86.0	/experiments/Knapen_AOT/AOT_stimuli/pictures/1776_fw.png	243.8609573841095	1.090275526046753
88	110.78502655029297	response	0	j		86.0	/experiments/Knapen_AOT/AOT_stimuli/pictures/1776_fw.png	244.94078612327576	
89	110.79547333717346	picture	0		103	87.0	/experiments/Knapen_AOT/AOT_stimuli/pictures/0466_fw.png	244.95123291015625	0.8643925189971924
89	111.64335799217224	response	0	j		87.0	/experiments/Knapen_AOT/AOT_stimuli/pictures/0466_fw.png	245.79911756515503	
90	111.65986585617065	picture	0		88	88.0	/experiments/Knapen_AOT/AOT_stimuli/pictures/2109_fw.png	245.81562542915344	0.733283519744873
90	112.38498520851135	response	0	j		88.0	/experiments/Knapen_AOT/AOT_stimuli/pictures/2109_fw.png	246.54074478149414	
91	112.39314937591553	picture	0		88	89.0	/experiments/Knapen_AOT/AOT_stimuli/pictures/0949_fw.png	246.54890894889832	0.7356925010681152
91	113.11834406852722	response	0	j		89.0	/experiments/Knapen_AOT/AOT_stimuli/pictures/0949_fw.png	247.27410364151	
92	113.12884187698364	picture	0		93	90.0	/experiments/Knapen_AOT/AOT_stimuli/pictures/2134_fw.png	247.28460144996643	0.7810428142547607
92	113.89333653450012	response	0	j		90.0	/experiments/Knapen_AOT/AOT_stimuli/pictures/2134_fw.png	248.0490961074829	
93	113.9098846912384	picture	0		102	91.0	/experiments/Knapen_AOT/AOT_stimuli/pictures/0102_fw.png	248.0656442642212	0.850898027420044
93	114.7517192363739	response	0	j		91.0	/experiments/Knapen_AOT/AOT_stimuli/pictures/0102_fw.png	248.9074788093567	
94	114.76078271865845	picture	0		132	92.0	/experiments/Knapen_AOT/AOT_stimuli/pictures/0144_fw.png	248.91654229164124	1.1041624546051025
94	115.85171723365784	response	0	k		92.0	/experiments/Knapen_AOT/AOT_stimuli/pictures/0144_fw.png	250.00747680664062	
95	115.86494517326355	picture	0		107	93.0	/experiments/Knapen_AOT/AOT_stimuli/pictures/2069_fw.png	250.02070474624634	0.8958113193511963
95	116.75179767608643	response	0	k		93.0	/experiments/Knapen_AOT/AOT_stimuli/pictures/2069_fw.png	250.9075572490692	
96	116.76075649261475	picture	0		176	94.0	/experiments/Knapen_AOT/AOT_stimuli/pictures/2116_fw.png	250.91651606559753	1.4741570949554443
96	118.21243524551392	response	0	j		94.0	/experiments/Knapen_AOT/AOT_stimuli/pictures/2116_fw.png	252.3681948184967	
97	118.23491358757019	picture	0		113	95.0	/experiments/Knapen_AOT/AOT_stimuli/pictures/2075_fw.png	252.39067316055298	0.9499948024749756
97	119.16866755485535	response	0	j		95.0	/experiments/Knapen_AOT/AOT_stimuli/pictures/2075_fw.png	253.32442712783813	
98	119.18490839004517	picture	0		118	96.0	/experiments/Knapen_AOT/AOT_stimuli/pictures/1806_fw.png	253.34066796302795	0.985619068145752
98	120.16024851799011	response	0	j		96.0	/experiments/Knapen_AOT/AOT_stimuli/pictures/1806_fw.png	254.3160080909729	
99	120.17052745819092	picture	0		106	97.0	/experiments/Knapen_AOT/AOT_stimuli/pictures/1767_fw.png	254.3262870311737	0.881965160369873
99	121.04345369338989	response	0	j		97.0	/experiments/Knapen_AOT/AOT_stimuli/pictures/1767_fw.png	255.19921326637268	
100	121.05249261856079	picture	0		91	98.0	/experiments/Knapen_AOT/AOT_stimuli/pictures/0043_fw.png	255.20825219154358	0.7657887935638428
100	121.8017954826355	response	0	j		98.0	/experiments/Knapen_AOT/AOT_stimuli/pictures/0043_fw.png	255.9575550556183	
101	121.81828141212463	picture	0		123	99.0	/experiments/Knapen_AOT/AOT_stimuli/pictures/0858_fw.png	255.97404098510742	1.0259068012237549
101	122.83523535728455	response	0	k		99.0	/experiments/Knapen_AOT/AOT_stimuli/pictures/0858_fw.png	256.99099493026733	
102	122.84418821334839	picture	0		140	100.0	/experiments/Knapen_AOT/AOT_stimuli/pictures/1201_fw.png	256.9999477863312	1.1741118431091309
102	123.99462056159973	response	0	k		100.0	/experiments/Knapen_AOT/AOT_stimuli/pictures/1201_fw.png	258.1503801345825	
103	124.01830005645752	picture	0		96	101.0	/experiments/Knapen_AOT/AOT_stimuli/pictures/0777_fw.png	258.1740596294403	0.8050458431243896
103	124.80251216888428	response	0	k		101.0	/experiments/Knapen_AOT/AOT_stimuli/pictures/0777_fw.png	258.95827174186707	
104	124.82334589958191	picture	0		96	102.0	/experiments/Knapen_AOT/AOT_stimuli/pictures/2024_fw.png	258.9791054725647	0.811680793762207
104	125.6188690662384	response	0	k		102.0	/experiments/Knapen_AOT/AOT_stimuli/pictures/2024_fw.png	259.7746286392212	
105	125.63502669334412	picture	0		252	103.0	/experiments/Knapen_AOT/AOT_stimuli/pictures/2077_fw.png	259.7907862663269	2.105026960372925
105	127.72688007354736	response	0	k		103.0	/experiments/Knapen_AOT/AOT_stimuli/pictures/2077_fw.png	261.88263964653015	
106	127.74005365371704	picture	0		185	104.0	/experiments/Knapen_AOT/AOT_stimuli/pictures/0778_fw.png	261.89581322669983	1.5533246994018555
106	129.27696561813354	response	0	j		104.0	/experiments/Knapen_AOT/AOT_stimuli/pictures/0778_fw.png	263.43272519111633	
107	129.2933783531189	picture	0		109	105.0	/experiments/Knapen_AOT/AOT_stimuli/pictures/1338_fw.png	263.4491379261017	0.9166724681854248
107	130.19356775283813	response	0	k		105.0	/experiments/Knapen_AOT/AOT_stimuli/pictures/1338_fw.png	264.3493273258209	
108	130.21005082130432	picture	0		121	106.0	/experiments/Knapen_AOT/AOT_stimuli/pictures/1670_fw.png	264.3658103942871	1.009190320968628
108	131.20366168022156	response	0	k		106.0	/experiments/Knapen_AOT/AOT_stimuli/pictures/1670_fw.png	265.35942125320435	
109	131.21924114227295	picture	0		97	107.0	/experiments/Knapen_AOT/AOT_stimuli/pictures/0700_fw.png	265.37500071525574	0.8159193992614746
109	132.01099109649658	response	0	k		107.0	/experiments/Knapen_AOT/AOT_stimuli/pictures/0700_fw.png	266.16675066947937	
110	132.03516054153442	picture	0		171	108.0	/experiments/Knapen_AOT/AOT_stimuli/pictures/0640_fw.png	266.1909201145172	1.5749802589416504
110	133.4519546031952	response	0	k		108.0	/experiments/Knapen_AOT/AOT_stimuli/pictures/0640_fw.png	267.607714176178	
111	133.61014080047607	picture	0		1005	109.0	/experiments/Knapen_AOT/AOT_stimuli/pictures/0075_fw.png	267.76590037345886	8.379918098449707
111	141.97704219818115	response	0	k		109.0	/experiments/Knapen_AOT/AOT_stimuli/pictures/0075_fw.png	276.13280177116394	
112	141.99005889892578	picture	0		84	110.0	/experiments/Knapen_AOT/AOT_stimuli/pictures/1533_fw.png	276.14581847190857	0.7084033489227295
112	142.68538236618042	response	0	j		110.0	/experiments/Knapen_AOT/AOT_stimuli/pictures/1533_fw.png	276.8411419391632	
113	142.6984622478485	picture	0		116	111.0	/experiments/Knapen_AOT/AOT_stimuli/pictures/1004_fw.png	276.8542218208313	0.9722330570220947
113	143.66052508354187	response	0	k		111.0	/experiments/Knapen_AOT/AOT_stimuli/pictures/1004_fw.png	277.81628465652466	
114	143.6706953048706	picture	0		90	112.0	/experiments/Knapen_AOT/AOT_stimuli/pictures/0020_fw.png	277.8264548778534	0.7562336921691895
114	144.41084623336792	response	0	j		112.0	/experiments/Knapen_AOT/AOT_stimuli/pictures/0020_fw.png	278.5666058063507	
115	144.4269289970398	picture	0		159	113.0	/experiments/Knapen_AOT/AOT_stimuli/pictures/1306_fw.png	278.5826885700226	1.333369493484497
115	145.74382781982422	response	0	j		113.0	/experiments/Knapen_AOT/AOT_stimuli/pictures/1306_fw.png	279.899587392807	
116	145.7602984905243	picture	0		97	114.0	/experiments/Knapen_AOT/AOT_stimuli/pictures/1039_fw.png	279.9160580635071	0.8132584095001221
116	146.5604636669159	response	0	k		114.0	/experiments/Knapen_AOT/AOT_stimuli/pictures/1039_fw.png	280.7162232398987	
117	146.5735569000244	picture	0		99	115.0	/experiments/Knapen_AOT/AOT_stimuli/pictures/1985_fw.png	280.7293164730072	0.8367397785186768
117	147.39382886886597	response	0	k		115.0	/experiments/Knapen_AOT/AOT_stimuli/pictures/1985_fw.png	281.54958844184875	
118	147.4102966785431	picture	0		169	116.0	/experiments/Knapen_AOT/AOT_stimuli/pictures/0722_fw.png	281.5660562515259	1.4166862964630127
118	148.8107545375824	response	0	k		116.0	/experiments/Knapen_AOT/AOT_stimuli/pictures/0722_fw.png	282.9665141105652	
119	148.8269829750061	picture	0		204	117.0	/experiments/Knapen_AOT/AOT_stimuli/pictures/0644_fw.png	282.9827425479889	1.7083325386047363
119	150.51887369155884	response	0	k		117.0	/experiments/Knapen_AOT/AOT_stimuli/pictures/0644_fw.png	284.6746332645416	
120	150.53531551361084	picture	0		139	118.0	/experiments/Knapen_AOT/AOT_stimuli/pictures/1691_fw.png	284.6910750865936	1.16670823097229
120	151.68550443649292	response	0	k		118.0	/experiments/Knapen_AOT/AOT_stimuli/pictures/1691_fw.png	285.8412640094757	
121	151.70202374458313	picture	0		141	119.0	/experiments/Knapen_AOT/AOT_stimuli/pictures/0455_fw.png	285.8577833175659	1.1833300590515137
121	152.86888360977173	response	0	k		119.0	/experiments/Knapen_AOT/AOT_stimuli/pictures/0455_fw.png	287.0246431827545	
122	152.88535380363464	picture	0		184	120.0	/experiments/Knapen_AOT/AOT_stimuli/pictures/1334_fw.png	287.04111337661743	1.5417094230651855
122	154.4029939174652	response	0	k		120.0	/experiments/Knapen_AOT/AOT_stimuli/pictures/1334_fw.png	288.558753490448	
123	154.42706322669983	picture	0		90	121.0	/experiments/Knapen_AOT/AOT_stimuli/pictures/1065_fw.png	288.5828227996826	0.758305549621582
123	155.1689429283142	response	0	j		121.0	/experiments/Knapen_AOT/AOT_stimuli/pictures/1065_fw.png	289.324702501297	
124	155.1853687763214	picture	0		147	122.0	/experiments/Knapen_AOT/AOT_stimuli/pictures/0429_fw.png	289.3411283493042	1.2333717346191406
124	156.39472270011902	response	0	j		122.0	/experiments/Knapen_AOT/AOT_stimuli/pictures/0429_fw.png	290.5504822731018	
125	156.41874051094055	picture	0		83	123.0	/experiments/Knapen_AOT/AOT_stimuli/pictures/1061_fw.png	290.57450008392334	0.7000076770782471
125	157.102281332016	response	0	j		123.0	/experiments/Knapen_AOT/AOT_stimuli/pictures/1061_fw.png	291.2580409049988	
126	157.1187481880188	picture	0		108	124.0	/experiments/Knapen_AOT/AOT_stimuli/pictures/1816_fw.png	291.2745077610016	0.9063658714294434
126	158.00317668914795	response	0	k		124.0	/experiments/Knapen_AOT/AOT_stimuli/pictures/1816_fw.png	292.15893626213074	
127	158.02511405944824	picture	0		148	125.0	/experiments/Knapen_AOT/AOT_stimuli/pictures/1867_fw.png	292.18087363243103	1.2359533309936523
127	159.25227403640747	response	0	k		125.0	/experiments/Knapen_AOT/AOT_stimuli/pictures/1867_fw.png	293.40803360939026	
128	159.2610673904419	picture	0		92	126.0	/experiments/Knapen_AOT/AOT_stimuli/pictures/1942_fw.png	293.4168269634247	0.7708652019500732
128	160.01895141601562	response	0	k		126.0	/experiments/Knapen_AOT/AOT_stimuli/pictures/1942_fw.png	294.1747109889984	
129	160.03193259239197	picture	0		148	127.0	/experiments/Knapen_AOT/AOT_stimuli/pictures/1120_fw.png	294.18769216537476	1.2291431427001953
129	161.25233674049377	response	0	k		127.0	/experiments/Knapen_AOT/AOT_stimuli/pictures/1120_fw.png	295.40809631347656	
130	161.26107573509216	picture	0		104	128.0	/experiments/Knapen_AOT/AOT_stimuli/pictures/1291_fw.png	295.41683530807495	0.874406099319458
130	162.11899995803833	response	0	k		128.0	/experiments/Knapen_AOT/AOT_stimuli/pictures/1291_fw.png	296.2747595310211	
131	162.13548183441162	picture	0		159	129.0	/experiments/Knapen_AOT/AOT_stimuli/pictures/1375_fw.png	296.2912414073944	1.3269431591033936
131	163.45239067077637	response	0	j		129.0	/experiments/Knapen_AOT/AOT_stimuli/pictures/1375_fw.png	297.60815024375916	
132	163.46242499351501	picture	0		86	130.0	/experiments/Knapen_AOT/AOT_stimuli/pictures/0094_fw.png	297.6181845664978	0.7230660915374756
132	164.16900610923767	response	0	j		130.0	/experiments/Knapen_AOT/AOT_stimuli/pictures/0094_fw.png	298.32476568222046	
133	164.1854910850525	picture	0		203	131.0	/experiments/Knapen_AOT/AOT_stimuli/pictures/1391_fw.png	298.3412506580353	1.7000682353973389
133	165.86910581588745	response	0	k		131.0	/experiments/Knapen_AOT/AOT_stimuli/pictures/1391_fw.png	300.02486538887024	
134	165.88555932044983	picture	0		91	132.0	/experiments/Knapen_AOT/AOT_stimuli/pictures/1611_fw.png	300.0413188934326	0.7666435241699219
134	166.63574075698853	response	0	k		132.0	/experiments/Knapen_AOT/AOT_stimuli/pictures/1611_fw.png	300.7915003299713	
135	166.65220284461975	picture	0		115	133.0	/experiments/Knapen_AOT/AOT_stimuli/pictures/0200_fw.png	300.80796241760254	0.9667115211486816
135	167.5948851108551	response	0	k		133.0	/experiments/Knapen_AOT/AOT_stimuli/pictures/0200_fw.png	301.7506446838379	
136	167.61891436576843	picture	0		125	134.0	/experiments/Knapen_AOT/AOT_stimuli/pictures/0364_fw.png	301.7746739387512	1.0499818325042725
136	168.6524817943573	response	0	k		134.0	/experiments/Knapen_AOT/AOT_stimuli/pictures/0364_fw.png	302.8082413673401	
137	168.6688961982727	picture	0		127	135.0	/experiments/Knapen_AOT/AOT_stimuli/pictures/0882_fw.png	302.8246557712555	1.0666906833648682
137	169.71972751617432	response	0	k		135.0	/experiments/Knapen_AOT/AOT_stimuli/pictures/0882_fw.png	303.8754870891571	
138	169.73558688163757	picture	0		106	136.0	/experiments/Knapen_AOT/AOT_stimuli/pictures/1283_fw.png	303.89134645462036	0.8916587829589844
138	170.61081504821777	response	0	k		136.0	/experiments/Knapen_AOT/AOT_stimuli/pictures/1283_fw.png	304.76657462120056	
139	170.62724566459656	picture	0		161	137.0	/experiments/Knapen_AOT/AOT_stimuli/pictures/0550_fw.png	304.78300523757935	1.3500192165374756
139	171.9607982635498	response	0	j		137.0	/experiments/Knapen_AOT/AOT_stimuli/pictures/0550_fw.png	306.1165578365326	
140	171.97726488113403	picture	0		109	138.0	/experiments/Knapen_AOT/AOT_stimuli/pictures/0452_fw.png	306.1330244541168	0.9166624546051025
140	172.8776149749756	response	0	k		138.0	/experiments/Knapen_AOT/AOT_stimuli/pictures/0452_fw.png	307.0333745479584	
141	172.89392733573914	picture	0		286	139.0	/experiments/Knapen_AOT/AOT_stimuli/pictures/1070_fw.png	307.0496869087219	2.3880536556243896
141	175.2691535949707	response	0	j		139.0	/experiments/Knapen_AOT/AOT_stimuli/pictures/1070_fw.png	309.4249131679535	
142	175.28198099136353	picture	0		105	140.0	/experiments/Knapen_AOT/AOT_stimuli/pictures/1575_fw.png	309.4377405643463	0.8870306015014648
142	176.15275621414185	response	0	j		140.0	/experiments/Knapen_AOT/AOT_stimuli/pictures/1575_fw.png	310.30851578712463	
143	176.169011592865	picture	0		157	141.0	/experiments/Knapen_AOT/AOT_stimuli/pictures/0648_fw.png	310.3247711658478	1.3167133331298828
143	177.46939611434937	response	0	j		141.0	/experiments/Knapen_AOT/AOT_stimuli/pictures/0648_fw.png	311.62515568733215	
144	177.48572492599487	picture	0		104	142.0	/experiments/Knapen_AOT/AOT_stimuli/pictures/1171_fw.png	311.64148449897766	0.8727397918701172
144	178.3441939353943	response	0	j		142.0	/experiments/Knapen_AOT/AOT_stimuli/pictures/1171_fw.png	312.4999535083771	
145	178.358464717865	picture	0		106	143.0	/experiments/Knapen_AOT/AOT_stimuli/pictures/0478_fw.png	312.5142242908478	0.8888940811157227
145	179.23592519760132	response	0	j		143.0	/experiments/Knapen_AOT/AOT_stimuli/pictures/0478_fw.png	313.3916847705841	
146	179.2473587989807	picture	0		130	144.0	/experiments/Knapen_AOT/AOT_stimuli/pictures/0658_fw.png	313.4031183719635	1.0883550643920898
146	180.31948471069336	response	0	k		144.0	/experiments/Knapen_AOT/AOT_stimuli/pictures/0658_fw.png	314.47524428367615	
147	180.3357138633728	picture	0		98	145.0	/experiments/Knapen_AOT/AOT_stimuli/pictures/1946_fw.png	314.4914734363556	0.8250508308410645
147	181.14420557022095	response	0	j		145.0	/experiments/Knapen_AOT/AOT_stimuli/pictures/1946_fw.png	315.29996514320374	
148	181.16076469421387	picture	0		93	146.0	/experiments/Knapen_AOT/AOT_stimuli/pictures/0500_fw.png	315.31652426719666	0.7832987308502197
148	181.92756605148315	response	0	j		146.0	/experiments/Knapen_AOT/AOT_stimuli/pictures/0500_fw.png	316.08332562446594	
149	181.9440634250641	picture	0		99	147.0	/experiments/Knapen_AOT/AOT_stimuli/pictures/0705_fw.png	316.0998229980469	0.8313002586364746
149	182.7609384059906	response	0	j		147.0	/experiments/Knapen_AOT/AOT_stimuli/pictures/0705_fw.png	316.9166979789734	
150	182.77536368370056	picture	0		115	148.0	/experiments/Knapen_AOT/AOT_stimuli/pictures/0545_fw.png	316.93112325668335	0.9687273502349854
150	183.72758769989014	response	0	j		148.0	/experiments/Knapen_AOT/AOT_stimuli/pictures/0545_fw.png	317.8833472728729	
151	183.74409103393555	picture	0		146	149.0	/experiments/Knapen_AOT/AOT_stimuli/pictures/1723_fw.png	317.89985060691833	1.2185988426208496
151	184.95266199111938	response	0	k		149.0	/experiments/Knapen_AOT/AOT_stimuli/pictures/1723_fw.png	319.1084215641022	
152	184.9626898765564	picture	0		180	150.0	/experiments/Knapen_AOT/AOT_stimuli/pictures/0831_fw.png	319.1184494495392	1.5064551830291748
152	186.45278930664062	response	0	k		150.0	/experiments/Knapen_AOT/AOT_stimuli/pictures/0831_fw.png	320.6085488796234	
153	186.46914505958557	picture	0		205	151.0	/experiments/Knapen_AOT/AOT_stimuli/pictures/1784_fw.png	320.62490463256836	1.7087271213531494
153	188.16934180259705	response	0	k		151.0	/experiments/Knapen_AOT/AOT_stimuli/pictures/1784_fw.png	322.32510137557983	
154	188.17787218093872	picture	0		138	152.0	/experiments/Knapen_AOT/AOT_stimuli/pictures/0368_fw.png	322.3336317539215	1.1529462337493896
154	189.3193597793579	response	0	k		152.0	/experiments/Knapen_AOT/AOT_stimuli/pictures/0368_fw.png	323.4751193523407	
155	189.3308184146881	picture	0		129	153.0	/experiments/Knapen_AOT/AOT_stimuli/pictures/0090_fw.png	323.4865779876709	1.076436996459961
155	190.39432168006897	response	0	k		153.0	/experiments/Knapen_AOT/AOT_stimuli/pictures/0090_fw.png	324.55008125305176	
156	190.40725541114807	picture	0		111	154.0	/experiments/Knapen_AOT/AOT_stimuli/pictures/0030_fw.png	324.56301498413086	0.9369449615478516
156	191.32768869400024	response	0	k		154.0	/experiments/Knapen_AOT/AOT_stimuli/pictures/0030_fw.png	325.48344826698303	
157	191.34420037269592	picture	0		91	155.0	/experiments/Knapen_AOT/AOT_stimuli/pictures/0970_fw.png	325.4999599456787	0.7666563987731934
157	192.09437727928162	response	0	j		155.0	/experiments/Knapen_AOT/AOT_stimuli/pictures/0970_fw.png	326.2501368522644	
158	192.11085677146912	picture	0		129	156.0	/experiments/Knapen_AOT/AOT_stimuli/pictures/1166_fw.png	326.2666163444519	1.083376169204712
158	193.17775869369507	response	0	j		156.0	/experiments/Knapen_AOT/AOT_stimuli/pictures/1166_fw.png	327.33351826667786	
159	193.19423294067383	picture	0		114	157.0	/experiments/Knapen_AOT/AOT_stimuli/pictures/1960_fw.png	327.3499925136566	0.958303689956665
159	194.13612985610962	response	0	k		157.0	/experiments/Knapen_AOT/AOT_stimuli/pictures/1960_fw.png	328.2918894290924	
160	194.1525366306305	picture	0		109	158.0	/experiments/Knapen_AOT/AOT_stimuli/pictures/0593_fw.png	328.3082962036133	0.9143924713134766
160	195.05282330513	response	0	j		158.0	/experiments/Knapen_AOT/AOT_stimuli/pictures/0593_fw.png	329.2085828781128	
161	195.06692910194397	picture	0		127	159.0	/experiments/Knapen_AOT/AOT_stimuli/pictures/0992_fw.png	329.22268867492676	1.0689849853515625
161	196.11948251724243	response	0	k		159.0	/experiments/Knapen_AOT/AOT_stimuli/pictures/0992_fw.png	330.2752420902252	
162	196.13591408729553	picture	0		129	160.0	/experiments/Knapen_AOT/AOT_stimuli/pictures/0295_fw.png	330.2916736602783	1.0839576721191406
162	197.2032904624939	response	0	k		160.0	/experiments/Knapen_AOT/AOT_stimuli/pictures/0295_fw.png	331.3590500354767	
163	197.21987175941467	picture	0		92	161.0	/experiments/Knapen_AOT/AOT_stimuli/pictures/1368_fw.png	331.37563133239746	0.7707462310791016
163	197.97777581214905	response	0	k		161.0	/experiments/Knapen_AOT/AOT_stimuli/pictures/1368_fw.png	332.13353538513184	
164	197.99061799049377	picture	0		126	162.0	/experiments/Knapen_AOT/AOT_stimuli/pictures/1374_fw.png	332.14637756347656	1.0536794662475586
164	199.02783870697021	response	0	j		162.0	/experiments/Knapen_AOT/AOT_stimuli/pictures/1374_fw.png	333.183598279953	
165	199.04429745674133	picture	0		79	163.0	/experiments/Knapen_AOT/AOT_stimuli/pictures/1838_fw.png	333.2000570297241	0.6666324138641357
165	199.69448900222778	response	0	j		163.0	/experiments/Knapen_AOT/AOT_stimuli/pictures/1838_fw.png	333.85024857521057	
166	199.71092987060547	picture	0		97	164.0	/experiments/Knapen_AOT/AOT_stimuli/pictures/0572_fw.png	333.86668944358826	0.8166992664337158
166	200.51116943359375	response	0	j		164.0	/experiments/Knapen_AOT/AOT_stimuli/pictures/0572_fw.png	334.66692900657654	
167	200.52762913703918	picture	0		108	165.0	/experiments/Knapen_AOT/AOT_stimuli/pictures/0206_fw.png	334.683388710022	0.900460958480835
167	201.41952443122864	response	0	k		165.0	/experiments/Knapen_AOT/AOT_stimuli/pictures/0206_fw.png	335.5752840042114	
168	201.42809009552002	picture	0		132	166.0	/experiments/Knapen_AOT/AOT_stimuli/pictures/1974_fw.png	335.5838496685028	1.104264497756958
168	202.5194821357727	response	0	j		166.0	/experiments/Knapen_AOT/AOT_stimuli/pictures/1974_fw.png	336.6752417087555	
169	202.53235459327698	picture	0		171	167.0	/experiments/Knapen_AOT/AOT_stimuli/pictures/1143_fw.png	336.68811416625977	1.4370145797729492
169	203.95285367965698	response	0	j		167.0	/experiments/Knapen_AOT/AOT_stimuli/pictures/1143_fw.png	338.10861325263977	
170	203.96936917304993	picture	0		91	168.0	/experiments/Knapen_AOT/AOT_stimuli/pictures/0806_fw.png	338.1251287460327	0.7666516304016113
170	204.71952486038208	response	0	j		168.0	/experiments/Knapen_AOT/AOT_stimuli/pictures/0806_fw.png	338.87528443336487	
171	204.73602080345154	picture	0		92	169.0	/experiments/Knapen_AOT/AOT_stimuli/pictures/0245_fw.png	338.8917803764343	0.7750146389007568
171	205.49473476409912	response	0	j		169.0	/experiments/Knapen_AOT/AOT_stimuli/pictures/0245_fw.png	339.6504943370819	
172	205.5110354423523	picture	0		112	170.0	/experiments/Knapen_AOT/AOT_stimuli/pictures/1897_fw.png	339.6667950153351	0.9416663646697998
172	206.43622827529907	response	0	j		170.0	/experiments/Knapen_AOT/AOT_stimuli/pictures/1897_fw.png	340.59198784828186	
173	206.4527018070221	picture	0		126	171.0	/experiments/Knapen_AOT/AOT_stimuli/pictures/0445_fw.png	340.6084613800049	1.051842212677002
173	207.4945411682129	response	0	j		171.0	/experiments/Knapen_AOT/AOT_stimuli/pictures/0445_fw.png	341.6503007411957	
174	207.5045440196991	picture	0		277	172.0	/experiments/Knapen_AOT/AOT_stimuli/pictures/1329_fw.png	341.6603035926819	2.312483072280884
174	209.79535055160522	response	0	k		172.0	/experiments/Knapen_AOT/AOT_stimuli/pictures/1329_fw.png	343.951110124588	
175	209.81702709197998	picture	0		119	173.0	/experiments/Knapen_AOT/AOT_stimuli/pictures/1337_fw.png	343.97278666496277	1.0024304389953613
175	210.80292749404907	response	0	k		173.0	/experiments/Knapen_AOT/AOT_stimuli/pictures/1337_fw.png	344.95868706703186	
176	210.81945753097534	picture	0		122	174.0	/experiments/Knapen_AOT/AOT_stimuli/pictures/0346_fw.png	344.97521710395813	1.0249764919281006
176	211.82796049118042	response	0	k		174.0	/experiments/Knapen_AOT/AOT_stimuli/pictures/0346_fw.png	345.9837200641632	
177	211.84443402290344	picture	0		91	175.0	/experiments/Knapen_AOT/AOT_stimuli/pictures/1840_fw.png	346.00019359588623	0.766704797744751
177	212.58705234527588	response	0	j		175.0	/experiments/Knapen_AOT/AOT_stimuli/pictures/1840_fw.png	346.74281191825867	
178	212.6111388206482	picture	0		110	176.0	/experiments/Knapen_AOT/AOT_stimuli/pictures/0906_fw.png	346.766898393631	0.9214065074920654
178	213.51963829994202	response	0	k		176.0	/experiments/Knapen_AOT/AOT_stimuli/pictures/0906_fw.png	347.6753978729248	
179	213.53254532814026	picture	0		163	177.0	/experiments/Knapen_AOT/AOT_stimuli/pictures/2170_fw.png	347.68830490112305	1.3619325160980225
179	214.8780710697174	response	0	k		177.0	/experiments/Knapen_AOT/AOT_stimuli/pictures/2170_fw.png	349.0338306427002	
180	214.89447784423828	picture	0		141	178.0	/experiments/Knapen_AOT/AOT_stimuli/pictures/0994_fw.png	349.05023741722107	1.17960524559021
180	216.06133484840393	response	0	k		178.0	/experiments/Knapen_AOT/AOT_stimuli/pictures/0994_fw.png	350.2170944213867	
181	216.0740830898285	picture	0		113	179.0	/experiments/Knapen_AOT/AOT_stimuli/pictures/1466_fw.png	350.2298426628113	0.9513654708862305
181	217.01136660575867	response	0	j		179.0	/experiments/Knapen_AOT/AOT_stimuli/pictures/1466_fw.png	351.16712617874146	
182	217.02544856071472	picture	0		102	180.0	/experiments/Knapen_AOT/AOT_stimuli/pictures/1202_fw.png	351.1812081336975	0.8607397079467773
182	217.86971402168274	response	0	k		180.0	/experiments/Knapen_AOT/AOT_stimuli/pictures/1202_fw.png	352.0254735946655	
183	217.8861882686615	picture	0		93	181.0	/experiments/Knapen_AOT/AOT_stimuli/pictures/1137_fw.png	352.0419478416443	0.7781612873077393
183	218.65303134918213	response	0	k		181.0	/experiments/Knapen_AOT/AOT_stimuli/pictures/1137_fw.png	352.8087909221649	
184	218.66434955596924	picture	0		139	182.0	/experiments/Knapen_AOT/AOT_stimuli/pictures/0554_fw.png	352.820109128952	1.1635916233062744
184	219.8114356994629	response	0	k		182.0	/experiments/Knapen_AOT/AOT_stimuli/pictures/0554_fw.png	353.9671952724457	
185	219.8279411792755	picture	0		190	183.0	/experiments/Knapen_AOT/AOT_stimuli/pictures/1859_fw.png	353.9837007522583	1.5916261672973633
185	221.40309691429138	response	0	k		183.0	/experiments/Knapen_AOT/AOT_stimuli/pictures/1859_fw.png	355.55885648727417	
186	221.41956734657288	picture	0		95	184.0	/experiments/Knapen_AOT/AOT_stimuli/pictures/0991_fw.png	355.57532691955566	0.8000481128692627
186	222.20313835144043	response	0	k		184.0	/experiments/Knapen_AOT/AOT_stimuli/pictures/0991_fw.png	356.3588979244232	
187	222.21961545944214	picture	0		511	185.0	/experiments/Knapen_AOT/AOT_stimuli/pictures/1834_fw.png	356.3753750324249	4.2666916847229
187	226.46983861923218	response	0	k		185.0	/experiments/Knapen_AOT/AOT_stimuli/pictures/1834_fw.png	360.62559819221497	
188	226.48630714416504	picture	0		92	186.0	/experiments/Knapen_AOT/AOT_stimuli/pictures/1453_fw.png	360.6420667171478	0.7753434181213379
188	227.24499607086182	response	0	k		186.0	/experiments/Knapen_AOT/AOT_stimuli/pictures/1453_fw.png	361.4007556438446	
189	227.26165056228638	picture	0		96	187.0	/experiments/Knapen_AOT/AOT_stimuli/pictures/2090_fw.png	361.41741013526917	0.8055543899536133
189	228.05317759513855	response	0	j		187.0	/experiments/Knapen_AOT/AOT_stimuli/pictures/2090_fw.png	362.20893716812134	
190	228.06720495224	picture	0		102	188.0	/experiments/Knapen_AOT/AOT_stimuli/pictures/0907_fw.png	362.2229645252228	0.8541579246520996
190	228.91155314445496	response	0	k		188.0	/experiments/Knapen_AOT/AOT_stimuli/pictures/0907_fw.png	363.06731271743774	
191	228.9213628768921	picture	0		106	189.0	/experiments/Knapen_AOT/AOT_stimuli/pictures/1786_fw.png	363.0771224498749	0.8899683952331543
191	229.788578748703	response	0	k		189.0	/experiments/Knapen_AOT/AOT_stimuli/pictures/1786_fw.png	363.9443383216858	
192	229.81133127212524	picture	0		99	190.0	/experiments/Knapen_AOT/AOT_stimuli/pictures/1465_fw.png	363.96709084510803	0.8333344459533691
192	230.62819957733154	response	0	j		190.0	/experiments/Knapen_AOT/AOT_stimuli/pictures/1465_fw.png	364.78395915031433	
193	230.6446657180786	picture	0		108	191.0	/experiments/Knapen_AOT/AOT_stimuli/pictures/2083_fw.png	364.8004252910614	0.9083924293518066
193	231.53672075271606	response	0	k		191.0	/experiments/Knapen_AOT/AOT_stimuli/pictures/2083_fw.png	365.69248032569885	
194	231.55305814743042	picture	0		875	192.0	/experiments/Knapen_AOT/AOT_stimuli/pictures/1873_fw.png	365.7088177204132	7.300079584121704
194	238.83671307563782	response	0	k		192.0	/experiments/Knapen_AOT/AOT_stimuli/pictures/1873_fw.png	372.9924726486206	
195	238.85313773155212	picture	0		112	193.0	/experiments/Knapen_AOT/AOT_stimuli/pictures/0048_fw.png	373.0088973045349	0.9363532066345215
195	239.77094101905823	response	0	j		193.0	/experiments/Knapen_AOT/AOT_stimuli/pictures/0048_fw.png	373.926700592041	
196	239.78949093818665	picture	0		100	194.0	/experiments/Knapen_AOT/AOT_stimuli/pictures/1735_fw.png	373.94525051116943	0.8386557102203369
196	240.61170196533203	response	0	k		194.0	/experiments/Knapen_AOT/AOT_stimuli/pictures/1735_fw.png	374.7674615383148	
197	240.62814664840698	picture	0		90	195.0	/experiments/Knapen_AOT/AOT_stimuli/pictures/1666_fw.png	374.78390622138977	0.7583577632904053
197	241.3702609539032	response	0	j		195.0	/experiments/Knapen_AOT/AOT_stimuli/pictures/1666_fw.png	375.526020526886	
198	241.3865044116974	picture	0		96	196.0	/experiments/Knapen_AOT/AOT_stimuli/pictures/1028_fw.png	375.5422639846802	0.8083310127258301
198	242.1713900566101	response	0	j		196.0	/experiments/Knapen_AOT/AOT_stimuli/pictures/1028_fw.png	376.3271496295929	
199	242.19483542442322	picture	0		91	197.0	/experiments/Knapen_AOT/AOT_stimuli/pictures/0861_fw.png	376.350594997406	0.7666523456573486
199	242.94518899917603	response	0	k		197.0	/experiments/Knapen_AOT/AOT_stimuli/pictures/0861_fw.png	377.1009485721588	
200	242.96148777008057	picture	0		89	198.0	/experiments/Knapen_AOT/AOT_stimuli/pictures/1121_fw.png	377.11724734306335	0.7500405311584473
200	243.6951162815094	response	0	k		198.0	/experiments/Knapen_AOT/AOT_stimuli/pictures/1121_fw.png	377.8508758544922	
201	243.711528301239	picture	0		104	199.0	/experiments/Knapen_AOT/AOT_stimuli/pictures/2034_fw.png	377.8672878742218	0.8749833106994629
201	244.57025814056396	response	0	k		199.0	/experiments/Knapen_AOT/AOT_stimuli/pictures/2034_fw.png	378.72601771354675	
202	244.58651161193848	picture	0		137	200.0	/experiments/Knapen_AOT/AOT_stimuli/pictures/0205_fw.png	378.74227118492126	1.1500277519226074
202	245.72010135650635	response	0	k		200.0	/experiments/Knapen_AOT/AOT_stimuli/pictures/0205_fw.png	379.87586092948914	
203	245.73653936386108	picture	0		771	201.0	/experiments/Knapen_AOT/AOT_stimuli/pictures/0800_fw.png	379.8922989368439	6.433435916900635
203	252.1534869670868	response	0	k		201.0	/experiments/Knapen_AOT/AOT_stimuli/pictures/0800_fw.png	386.3092465400696	
204	252.16997528076172	picture	0		123	202.0	/experiments/Knapen_AOT/AOT_stimuli/pictures/0322_fw.png	386.3257348537445	1.0293223857879639
204	253.1791286468506	response	0	j		202.0	/experiments/Knapen_AOT/AOT_stimuli/pictures/0322_fw.png	387.3348882198334	
205	253.19929766654968	picture	0		90	203.0	/experiments/Knapen_AOT/AOT_stimuli/pictures/1689_fw.png	387.35505723953247	0.7500371932983398
205	253.93683981895447	response	0	j		203.0	/experiments/Knapen_AOT/AOT_stimuli/pictures/1689_fw.png	388.09259939193726	
206	253.94933485984802	picture	0		96	204.0	/experiments/Knapen_AOT/AOT_stimuli/pictures/1599_fw.png	388.1050944328308	0.8039886951446533
206	254.7369101047516	response	0	j		204.0	/experiments/Knapen_AOT/AOT_stimuli/pictures/1599_fw.png	388.8926696777344	
207	254.75332355499268	picture	0		126	205.0	/experiments/Knapen_AOT/AOT_stimuli/pictures/1975_fw.png	388.90908312797546	1.0501186847686768
207	255.79526925086975	response	0	j		205.0	/experiments/Knapen_AOT/AOT_stimuli/pictures/1975_fw.png	389.95102882385254	
208	255.80344223976135	picture	0		98	206.0	/experiments/Knapen_AOT/AOT_stimuli/pictures/0399_fw.png	389.95920181274414	0.8249492645263672
208	256.61194133758545	response	0	k		206.0	/experiments/Knapen_AOT/AOT_stimuli/pictures/0399_fw.png	390.76770091056824	
209	256.6283915042877	picture	0		1056	207.0	/experiments/Knapen_AOT/AOT_stimuli/pictures/0657_fw.png	390.7841510772705	8.808410882949829
209	265.42032766342163	response	0	k		207.0	/experiments/Knapen_AOT/AOT_stimuli/pictures/0657_fw.png	399.5760872364044	
210	265.43680238723755	picture	0		95	208.0	/experiments/Knapen_AOT/AOT_stimuli/pictures/0217_fw.png	399.59256196022034	0.7973411083221436
210	266.2203257083893	response	0	j		208.0	/experiments/Knapen_AOT/AOT_stimuli/pictures/0217_fw.png	400.37608528137207	
211	266.2341434955597	picture	0		103	209.0	/experiments/Knapen_AOT/AOT_stimuli/pictures/1943_fw.png	400.3899030685425	0.8611087799072266
211	267.0872621536255	response	0	k		209.0	/experiments/Knapen_AOT/AOT_stimuli/pictures/1943_fw.png	401.2430217266083	
212	267.0952522754669	picture	0		96	210.0	/experiments/Knapen_AOT/AOT_stimuli/pictures/2101_fw.png	401.2510118484497	0.8055601119995117
212	267.88700318336487	response	0	j		210.0	/experiments/Knapen_AOT/AOT_stimuli/pictures/2101_fw.png	402.04276275634766	
213	267.90081238746643	picture	0		358	211.0	/experiments/Knapen_AOT/AOT_stimuli/pictures/2033_fw.png	402.0565719604492	2.986041784286499
213	270.8787078857422	response	0	j		211.0	/experiments/Knapen_AOT/AOT_stimuli/pictures/2033_fw.png	405.034467458725	
214	270.88685417175293	picture	0		100	212.0	/experiments/Knapen_AOT/AOT_stimuli/pictures/0846_fw.png	405.0426137447357	0.833482027053833
214	271.71208095550537	response	0	k		212.0	/experiments/Knapen_AOT/AOT_stimuli/pictures/0846_fw.png	405.86784052848816	
215	271.72033619880676	picture	0		97	213.0	/experiments/Knapen_AOT/AOT_stimuli/pictures/0774_fw.png	405.87609577178955	0.8165619373321533
215	272.52033853530884	response	0	k		213.0	/experiments/Knapen_AOT/AOT_stimuli/pictures/0774_fw.png	406.6760981082916	
216	272.5368981361389	picture	0		117	214.0	/experiments/Knapen_AOT/AOT_stimuli/pictures/1227_fw.png	406.6926577091217	0.9833328723907471
216	273.5037395954132	response	0	j		214.0	/experiments/Knapen_AOT/AOT_stimuli/pictures/1227_fw.png	407.659499168396	
217	273.52023100852966	picture	0		134	215.0	/experiments/Knapen_AOT/AOT_stimuli/pictures/1406_fw.png	407.67599058151245	1.125006914138794
217	274.6287636756897	response	0	k		215.0	/experiments/Knapen_AOT/AOT_stimuli/pictures/1406_fw.png	408.7845232486725	
218	274.64523792266846	picture	0		117	216.0	/experiments/Knapen_AOT/AOT_stimuli/pictures/1022_fw.png	408.80099749565125	0.983360767364502
218	275.6121997833252	response	0	k		216.0	/experiments/Knapen_AOT/AOT_stimuli/pictures/1022_fw.png	409.767959356308	
219	275.62859869003296	picture	0		124	217.0	/experiments/Knapen_AOT/AOT_stimuli/pictures/0289_fw.png	409.78435826301575	1.0416789054870605
219	276.6537764072418	response	0	j		217.0	/experiments/Knapen_AOT/AOT_stimuli/pictures/0289_fw.png	410.8095359802246	
220	276.67027759552	picture	0		119	218.0	/experiments/Knapen_AOT/AOT_stimuli/pictures/1309_fw.png	410.8260371685028	0.9945864677429199
220	277.65381932258606	response	0	k		218.0	/experiments/Knapen_AOT/AOT_stimuli/pictures/1309_fw.png	411.80957889556885	
221	277.66486406326294	picture	0		127	219.0	/experiments/Knapen_AOT/AOT_stimuli/pictures/1932_fw.png	411.8206236362457	1.0555636882781982
221	278.7121765613556	response	0	k		219.0	/experiments/Knapen_AOT/AOT_stimuli/pictures/1932_fw.png	412.8679361343384	
222	278.72042775154114	picture	0		121	220.0	/experiments/Knapen_AOT/AOT_stimuli/pictures/0835_fw.png	412.8761873245239	1.0165579319000244
222	279.72067737579346	response	0	k		220.0	/experiments/Knapen_AOT/AOT_stimuli/pictures/0835_fw.png	413.87643694877625	
223	279.73698568344116	picture	0		104	221.0	/experiments/Knapen_AOT/AOT_stimuli/pictures/0040_fw.png	413.89274525642395	0.874992847442627
223	280.59563851356506	response	0	k		221.0	/experiments/Knapen_AOT/AOT_stimuli/pictures/0040_fw.png	414.75139808654785	
224	280.6119785308838	picture	0		144	222.0	/experiments/Knapen_AOT/AOT_stimuli/pictures/1320_fw.png	414.7677381038666	1.2083625793457031
224	281.80388832092285	response	0	k		222.0	/experiments/Knapen_AOT/AOT_stimuli/pictures/1320_fw.png	415.95964789390564	
225	281.8203411102295	picture	0		118	223.0	/experiments/Knapen_AOT/AOT_stimuli/pictures/1681_fw.png	415.9761006832123	0.9834499359130859
225	282.7955484390259	response	0	j		223.0	/experiments/Knapen_AOT/AOT_stimuli/pictures/1681_fw.png	416.95130801200867	
226	282.8037910461426	picture	0		100	224.0	/experiments/Knapen_AOT/AOT_stimuli/pictures/1481_fw.png	416.95955061912537	0.8415553569793701
226	283.62888073921204	response	0	k		224.0	/experiments/Knapen_AOT/AOT_stimuli/pictures/1481_fw.png	417.7846403121948	
227	283.64534640312195	picture	0		113	225.0	/experiments/Knapen_AOT/AOT_stimuli/pictures/0258_fw.png	417.80110597610474	0.9500794410705566
227	284.57925271987915	response	0	j		225.0	/experiments/Knapen_AOT/AOT_stimuli/pictures/0258_fw.png	418.73501229286194	
228	284.5954258441925	picture	0		119	226.0	/experiments/Knapen_AOT/AOT_stimuli/pictures/1545_fw.png	418.7511854171753	0.9999921321868896
228	285.57916164398193	response	0	k		226.0	/experiments/Knapen_AOT/AOT_stimuli/pictures/1545_fw.png	419.7349212169647	
229	285.5954179763794	picture	0		137	227.0	/experiments/Knapen_AOT/AOT_stimuli/pictures/2150_fw.png	419.7511775493622	1.145803689956665
229	286.72893834114075	response	0	k		227.0	/experiments/Knapen_AOT/AOT_stimuli/pictures/2150_fw.png	420.88469791412354	
230	286.74122166633606	picture	0		99	228.0	/experiments/Knapen_AOT/AOT_stimuli/pictures/1837_fw.png	420.89698123931885	0.829226016998291
230	287.55396580696106	response	0	j		228.0	/experiments/Knapen_AOT/AOT_stimuli/pictures/1837_fw.png	421.70972537994385	
231	287.57044768333435	picture	0		104	229.0	/experiments/Knapen_AOT/AOT_stimuli/pictures/0427_fw.png	421.72620725631714	0.8749792575836182
231	288.42898535728455	response	0	j		229.0	/experiments/Knapen_AOT/AOT_stimuli/pictures/0427_fw.png	422.58474493026733	
232	288.44542694091797	picture	0		111	230.0	/experiments/Knapen_AOT/AOT_stimuli/pictures/2148_fw.png	422.60118651390076	0.9333274364471436
232	289.3623049259186	response	0	k		230.0	/experiments/Knapen_AOT/AOT_stimuli/pictures/2148_fw.png	423.51806449890137	
233	289.3787543773651	picture	0		100	231.0	/experiments/Knapen_AOT/AOT_stimuli/pictures/1383_fw.png	423.5345139503479	0.8417689800262451
233	290.20403575897217	response	0	j		231.0	/experiments/Knapen_AOT/AOT_stimuli/pictures/1383_fw.png	424.35979533195496	
234	290.22052335739136	picture	0		96	232.0	/experiments/Knapen_AOT/AOT_stimuli/pictures/2121_fw.png	424.37628293037415	0.8054530620574951
234	291.0124568939209	response	0	j		232.0	/experiments/Knapen_AOT/AOT_stimuli/pictures/2121_fw.png	425.1682164669037	
235	291.02597641944885	picture	0		104	233.0	/experiments/Knapen_AOT/AOT_stimuli/pictures/1060_fw.png	425.18173599243164	0.8750109672546387
235	291.88748145103455	response	0	j		233.0	/experiments/Knapen_AOT/AOT_stimuli/pictures/1060_fw.png	426.04324102401733	
236	291.9009873867035	picture	0		119	234.0	/experiments/Knapen_AOT/AOT_stimuli/pictures/0374_fw.png	426.0567469596863	1.0028023719787598
236	292.8873836994171	response	0	j		234.0	/experiments/Knapen_AOT/AOT_stimuli/pictures/0374_fw.png	427.0431432723999	
237	292.90378975868225	picture	0		100	235.0	/experiments/Knapen_AOT/AOT_stimuli/pictures/1170_fw.png	427.05954933166504	0.8374710083007812
237	293.72900795936584	response	0	j		235.0	/experiments/Knapen_AOT/AOT_stimuli/pictures/1170_fw.png	427.88476753234863	
238	293.74126076698303	picture	0		111	236.0	/experiments/Knapen_AOT/AOT_stimuli/pictures/1113_fw.png	427.8970203399658	0.9292440414428711
238	294.65399074554443	response	0	k		236.0	/experiments/Knapen_AOT/AOT_stimuli/pictures/1113_fw.png	428.8097503185272	
239	294.6705048084259	picture	0		98	237.0	/experiments/Knapen_AOT/AOT_stimuli/pictures/0327_fw.png	428.8262643814087	0.8249759674072266
239	295.4790132045746	response	0	j		237.0	/experiments/Knapen_AOT/AOT_stimuli/pictures/0327_fw.png	429.6347727775574	
240	295.49548077583313	picture	0		98	238.0	/experiments/Knapen_AOT/AOT_stimuli/pictures/1915_fw.png	429.6512403488159	0.8250157833099365
240	296.30399322509766	response	0	k		238.0	/experiments/Knapen_AOT/AOT_stimuli/pictures/1915_fw.png	430.45975279808044	
241	296.32049655914307	picture	0		90	239.0	/experiments/Knapen_AOT/AOT_stimuli/pictures/1206_fw.png	430.47625613212585	0.7584328651428223
241	297.06246519088745	response	0	j		239.0	/experiments/Knapen_AOT/AOT_stimuli/pictures/1206_fw.png	431.21822476387024	
242	297.0789294242859	picture	0		119	240.0	/experiments/Knapen_AOT/AOT_stimuli/pictures/1248_fw.png	431.2346889972687	0.9957146644592285
242	298.0624017715454	response	0	j		240.0	/experiments/Knapen_AOT/AOT_stimuli/pictures/1248_fw.png	432.2181613445282	
243	298.0746440887451	picture	0		118	241.0	/experiments/Knapen_AOT/AOT_stimuli/pictures/0669_fw.png	432.2304036617279	0.9792144298553467
243	299.045729637146	response	0	j		241.0	/experiments/Knapen_AOT/AOT_stimuli/pictures/0669_fw.png	433.2014892101288	
244	299.05385851860046	picture	0		95	242.0	/experiments/Knapen_AOT/AOT_stimuli/pictures/1340_fw.png	433.20961809158325	0.800041675567627
244	299.83746218681335	response	0	k		242.0	/experiments/Knapen_AOT/AOT_stimuli/pictures/1340_fw.png	433.99322175979614	
245	299.8539001941681	picture	0		126	243.0	/experiments/Knapen_AOT/AOT_stimuli/pictures/0626_fw.png	434.0096597671509	1.05830717086792
245	300.89582681655884	response	0	k		243.0	/experiments/Knapen_AOT/AOT_stimuli/pictures/0626_fw.png	435.0515863895416	
246	300.912207365036	picture	0		112	244.0	/experiments/Knapen_AOT/AOT_stimuli/pictures/0969_fw.png	435.0679669380188	0.9417252540588379
246	301.8374755382538	response	0	k		244.0	/experiments/Knapen_AOT/AOT_stimuli/pictures/0969_fw.png	435.9932351112366	
247	301.85393261909485	picture	0		91	245.0	/experiments/Knapen_AOT/AOT_stimuli/pictures/0173_fw.png	436.00969219207764	0.7624073028564453
247	302.604106426239	response	0	k		245.0	/experiments/Knapen_AOT/AOT_stimuli/pictures/0173_fw.png	436.7598659992218	
248	302.6163399219513	picture	0		142	246.0	/experiments/Knapen_AOT/AOT_stimuli/pictures/1679_fw.png	436.7720994949341	1.1876006126403809
248	303.78744983673096	response	0	k		246.0	/experiments/Knapen_AOT/AOT_stimuli/pictures/1679_fw.png	437.94320940971375	
249	303.8039405345917	picture	0		109	247.0	/experiments/Knapen_AOT/AOT_stimuli/pictures/1006_fw.png	437.95970010757446	0.9166643619537354
249	304.7041323184967	response	0	k		247.0	/experiments/Knapen_AOT/AOT_stimuli/pictures/1006_fw.png	438.8598918914795	
250	304.7206048965454	picture	0		102	248.0	/experiments/Knapen_AOT/AOT_stimuli/pictures/0665_fw.png	438.8763644695282	0.858365535736084
250	305.5624830722809	response	0	k		248.0	/experiments/Knapen_AOT/AOT_stimuli/pictures/0665_fw.png	439.7182426452637	
251	305.5789704322815	picture	0		113	249.0	/experiments/Knapen_AOT/AOT_stimuli/pictures/1290_fw.png	439.7347300052643	0.9500977993011475
251	306.51273012161255	response	0	j		249.0	/experiments/Knapen_AOT/AOT_stimuli/pictures/1290_fw.png	440.66848969459534	
252	306.52906823158264	picture	0		114	250.0	/experiments/Knapen_AOT/AOT_stimuli/pictures/0415_fw.png	440.68482780456543	0.9554703235626221
252	307.4708650112152	response	0	j		250.0	/experiments/Knapen_AOT/AOT_stimuli/pictures/0415_fw.png	441.626624584198	
253	307.48453855514526	picture	0		100	251.0	/experiments/Knapen_AOT/AOT_stimuli/pictures/0035_fw.png	441.64029812812805	0.8444967269897461
253	308.31256222724915	response	0	j		251.0	/experiments/Knapen_AOT/AOT_stimuli/pictures/0035_fw.png	442.46832180023193	
254	308.329035282135	picture	0		176	252.0	/experiments/Knapen_AOT/AOT_stimuli/pictures/0292_fw.png	442.4847948551178	1.4749746322631836
254	309.7875578403473	response	0	j		252.0	/experiments/Knapen_AOT/AOT_stimuli/pictures/0292_fw.png	443.9433174133301	
255	309.8040099143982	picture	0		95	253.0	/experiments/Knapen_AOT/AOT_stimuli/pictures/0510_fw.png	443.959769487381	0.8000071048736572
255	310.5875141620636	response	0	k		253.0	/experiments/Knapen_AOT/AOT_stimuli/pictures/0510_fw.png	444.7432737350464	
256	310.60401701927185	picture	0		115	254.0	/experiments/Knapen_AOT/AOT_stimuli/pictures/0634_fw.png	444.75977659225464	0.9637806415557861
256	311.5542175769806	response	0	j		254.0	/experiments/Knapen_AOT/AOT_stimuli/pictures/0634_fw.png	445.7099771499634	
257	311.56779766082764	picture	0		392	255.0	/experiments/Knapen_AOT/AOT_stimuli/pictures/0585_fw.png	445.7235572338104	3.277958631515503
257	314.8294312953949	response	0	j		255.0	/experiments/Knapen_AOT/AOT_stimuli/pictures/0585_fw.png	448.9851908683777	
258	314.84575629234314	picture	0		239	256.0	/experiments/Knapen_AOT/AOT_stimuli/pictures/0603_fw.png	449.0015158653259	2.0000152587890625
258	316.82929015159607	response	0	k		256.0	/experiments/Knapen_AOT/AOT_stimuli/pictures/0603_fw.png	450.98504972457886	
259	316.8457715511322	picture	0		159	257.0	/experiments/Knapen_AOT/AOT_stimuli/pictures/0367_fw.png	451.001531124115	1.3333535194396973
259	318.1552481651306	response	0	j		257.0	/experiments/Knapen_AOT/AOT_stimuli/pictures/0367_fw.png	452.3110077381134	
260	318.1791250705719	picture	0		98	258.0	/experiments/Knapen_AOT/AOT_stimuli/pictures/1651_fw.png	452.3348846435547	0.8250036239624023
260	318.98773217201233	response	0	k		258.0	/experiments/Knapen_AOT/AOT_stimuli/pictures/1651_fw.png	453.1434917449951	
261	319.0041286945343	picture	0		91	259.0	/experiments/Knapen_AOT/AOT_stimuli/pictures/1588_fw.png	453.1598882675171	0.7666652202606201
261	319.75436544418335	response	0	k		259.0	/experiments/Knapen_AOT/AOT_stimuli/pictures/1588_fw.png	453.91012501716614	
262	319.7707939147949	picture	0		118	260.0	/experiments/Knapen_AOT/AOT_stimuli/pictures/1108_fw.png	453.9265534877777	0.9916684627532959
262	320.7459752559662	response	0	k		260.0	/experiments/Knapen_AOT/AOT_stimuli/pictures/1108_fw.png	454.901734828949	
263	320.7624623775482	picture	0		91	261.0	/experiments/Knapen_AOT/AOT_stimuli/pictures/0708_fw.png	454.918221950531	0.766695499420166
263	321.5126597881317	response	0	k		261.0	/experiments/Knapen_AOT/AOT_stimuli/pictures/0708_fw.png	455.6684193611145	
264	321.5291578769684	picture	0		101	262.0	/experiments/Knapen_AOT/AOT_stimuli/pictures/0165_fw.png	455.6849174499512	0.850059986114502
264	322.3550806045532	response	0	k		262.0	/experiments/Knapen_AOT/AOT_stimuli/pictures/0165_fw.png	456.510840177536	
265	322.3792178630829	picture	0		100	263.0	/experiments/Knapen_AOT/AOT_stimuli/pictures/0558_fw.png	456.5349774360657	0.8416247367858887
265	323.2043821811676	response	0	k		263.0	/experiments/Knapen_AOT/AOT_stimuli/pictures/0558_fw.png	457.3601417541504	
266	323.2208425998688	picture	0		115	264.0	/experiments/Knapen_AOT/AOT_stimuli/pictures/0688_fw.png	457.37660217285156	0.966705322265625
266	324.16472816467285	response	0	k		264.0	/experiments/Knapen_AOT/AOT_stimuli/pictures/0688_fw.png	458.32048773765564	
267	324.1875479221344	picture	0		117	265.0	/experiments/Knapen_AOT/AOT_stimuli/pictures/0863_fw.png	458.3433074951172	0.9833002090454102
267	325.1543662548065	response	0	k		265.0	/experiments/Knapen_AOT/AOT_stimuli/pictures/0863_fw.png	459.3101258277893	
268	325.1708481311798	picture	0		118	266.0	/experiments/Knapen_AOT/AOT_stimuli/pictures/1877_fw.png	459.3266077041626	0.9916810989379883
268	326.1460762023926	response	0	j		266.0	/experiments/Knapen_AOT/AOT_stimuli/pictures/1877_fw.png	460.30183577537537	
269	326.1625292301178	picture	0		90	267.0	/experiments/Knapen_AOT/AOT_stimuli/pictures/0620_fw.png	460.3182888031006	0.7583556175231934
269	326.9045076370239	response	0	k		267.0	/experiments/Knapen_AOT/AOT_stimuli/pictures/0620_fw.png	461.0602672100067	
270	326.920884847641	picture	0		105	268.0	/experiments/Knapen_AOT/AOT_stimuli/pictures/1914_fw.png	461.0766444206238	0.8833422660827637
270	327.78785395622253	response	0	k		268.0	/experiments/Knapen_AOT/AOT_stimuli/pictures/1914_fw.png	461.9436135292053	
271	327.80422711372375	picture	0		106	269.0	/experiments/Knapen_AOT/AOT_stimuli/pictures/1815_fw.png	461.95998668670654	0.8917050361633301
271	328.67944526672363	response	0	j		269.0	/experiments/Knapen_AOT/AOT_stimuli/pictures/1815_fw.png	462.8352048397064	
272	328.6959321498871	picture	0		105	270.0	/experiments/Knapen_AOT/AOT_stimuli/pictures/1313_fw.png	462.8516917228699	0.8789565563201904
272	329.5557086467743	response	0	k		270.0	/experiments/Knapen_AOT/AOT_stimuli/pictures/1313_fw.png	463.7114682197571	
273	329.5748887062073	picture	0		142	271.0	/experiments/Knapen_AOT/AOT_stimuli/pictures/1801_fw.png	463.73064827919006	1.1877474784851074
273	330.7462215423584	response	0	k		271.0	/experiments/Knapen_AOT/AOT_stimuli/pictures/1801_fw.png	464.9019811153412	
274	330.7626361846924	picture	0		217	272.0	/experiments/Knapen_AOT/AOT_stimuli/pictures/0118_fw.png	464.91839575767517	1.8166539669036865
274	332.55659556388855	response	0	k		272.0	/experiments/Knapen_AOT/AOT_stimuli/pictures/0118_fw.png	466.71235513687134	
275	332.57929015159607	picture	0		106	273.0	/experiments/Knapen_AOT/AOT_stimuli/pictures/0538_fw.png	466.73504972457886	0.8916611671447754
275	333.4546322822571	response	0	k		273.0	/experiments/Knapen_AOT/AOT_stimuli/pictures/0538_fw.png	467.61039185523987	
276	333.47095131874084	picture	0		251	274.0	/experiments/Knapen_AOT/AOT_stimuli/pictures/1078_fw.png	467.62671089172363	2.1000559329986572
276	335.55464720726013	response	0	k		274.0	/experiments/Knapen_AOT/AOT_stimuli/pictures/1078_fw.png	469.7104067802429	
277	335.5710072517395	picture	0		97	275.0	/experiments/Knapen_AOT/AOT_stimuli/pictures/1266_fw.png	469.7267668247223	0.8094463348388672
277	336.3639838695526	response	0	j		275.0	/experiments/Knapen_AOT/AOT_stimuli/pictures/1266_fw.png	470.5197434425354	
278	336.38045358657837	picture	0		131	276.0	/experiments/Knapen_AOT/AOT_stimuli/pictures/1196_fw.png	470.53621315956116	1.0989172458648682
278	337.46288537979126	response	0	k		276.0	/experiments/Knapen_AOT/AOT_stimuli/pictures/1196_fw.png	471.61864495277405	
279	337.47937083244324	picture	0		84	277.0	/experiments/Knapen_AOT/AOT_stimuli/pictures/1064_fw.png	471.635130405426	0.7083535194396973
279	338.17150020599365	response	0	k		277.0	/experiments/Knapen_AOT/AOT_stimuli/pictures/1064_fw.png	472.32725977897644	
280	338.18772435188293	picture	0		111	278.0	/experiments/Knapen_AOT/AOT_stimuli/pictures/0063_fw.png	472.3434839248657	0.9334056377410889
280	339.1045708656311	response	0	j		278.0	/experiments/Knapen_AOT/AOT_stimuli/pictures/0063_fw.png	473.2603304386139	
281	339.121129989624	picture	0		87	279.0	/experiments/Knapen_AOT/AOT_stimuli/pictures/0486_fw.png	473.2768895626068	0.7332558631896973
281	339.8379771709442	response	0	k		279.0	/experiments/Knapen_AOT/AOT_stimuli/pictures/0486_fw.png	473.993736743927	
282	339.8543858528137	picture	0		130	280.0	/experiments/Knapen_AOT/AOT_stimuli/pictures/1249_fw.png	474.0101454257965	1.091698408126831
282	340.92955899238586	response	0	j		280.0	/experiments/Knapen_AOT/AOT_stimuli/pictures/1249_fw.png	475.08531856536865	
283	340.94608426094055	picture	0		125	281.0	/experiments/Knapen_AOT/AOT_stimuli/pictures/0901_fw.png	475.10184383392334	1.050018310546875
283	341.97962284088135	response	0	j		281.0	/experiments/Knapen_AOT/AOT_stimuli/pictures/0901_fw.png	476.13538241386414	
284	341.9961025714874	picture	0		94	282.0	/experiments/Knapen_AOT/AOT_stimuli/pictures/1755_fw.png	476.1518621444702	0.791658878326416
284	342.76365303993225	response	0	k		282.0	/experiments/Knapen_AOT/AOT_stimuli/pictures/1755_fw.png	476.91941261291504	
285	342.78776144981384	picture	0		104	283.0	/experiments/Knapen_AOT/AOT_stimuli/pictures/1501_fw.png	476.94352102279663	0.8749814033508301
285	343.6462755203247	response	0	j		283.0	/experiments/Knapen_AOT/AOT_stimuli/pictures/1501_fw.png	477.8020350933075	
286	343.6627428531647	picture	0		101	284.0	/experiments/Knapen_AOT/AOT_stimuli/pictures/0439_fw.png	477.81850242614746	0.8500206470489502
286	344.4963376522064	response	0	k		284.0	/experiments/Knapen_AOT/AOT_stimuli/pictures/0439_fw.png	478.6520972251892	
287	344.5127635002136	picture	0		163	285.0	/experiments/Knapen_AOT/AOT_stimuli/pictures/0433_fw.png	478.6685230731964	1.366731882095337
287	345.86296224594116	response	0	k		285.0	/experiments/Knapen_AOT/AOT_stimuli/pictures/0433_fw.png	480.01872181892395	
288	345.87949538230896	picture	0		134	286.0	/experiments/Knapen_AOT/AOT_stimuli/pictures/1287_fw.png	480.03525495529175	1.1249816417694092
288	346.98801469802856	response	0	k		286.0	/experiments/Knapen_AOT/AOT_stimuli/pictures/1287_fw.png	481.14377427101135	
289	347.00447702407837	picture	0		222	287.0	/experiments/Knapen_AOT/AOT_stimuli/pictures/1870_fw.png	481.16023659706116	1.8583600521087646
289	348.8463251590729	response	0	k		287.0	/experiments/Knapen_AOT/AOT_stimuli/pictures/1870_fw.png	483.00208473205566	
290	348.86283707618713	picture	0		104	288.0	/experiments/Knapen_AOT/AOT_stimuli/pictures/1464_fw.png	483.0185966491699	0.8750052452087402
290	349.7213807106018	response	0	j		288.0	/experiments/Knapen_AOT/AOT_stimuli/pictures/1464_fw.png	483.8771402835846	
291	349.7378423213959	picture	0		128	289.0	/experiments/Knapen_AOT/AOT_stimuli/pictures/1400_fw.png	483.89360189437866	1.0750460624694824
291	350.7963614463806	response	0	j		289.0	/experiments/Knapen_AOT/AOT_stimuli/pictures/1400_fw.png	484.9521210193634	
292	350.81288838386536	picture	0		118	290.0	/experiments/Knapen_AOT/AOT_stimuli/pictures/1265_fw.png	484.96864795684814	0.991624116897583
292	351.7881097793579	response	0	j		290.0	/experiments/Knapen_AOT/AOT_stimuli/pictures/1265_fw.png	485.9438693523407	
293	351.80451250076294	picture	0		115	291.0	/experiments/Knapen_AOT/AOT_stimuli/pictures/1573_fw.png	485.9602720737457	0.9667227268218994
293	352.7484896183014	response	0	k		291.0	/experiments/Knapen_AOT/AOT_stimuli/pictures/1573_fw.png	486.9042491912842	
294	352.77123522758484	picture	0		130	292.0	/experiments/Knapen_AOT/AOT_stimuli/pictures/0838_fw.png	486.9269948005676	1.0916786193847656
294	353.84638023376465	response	0	j		292.0	/experiments/Knapen_AOT/AOT_stimuli/pictures/0838_fw.png	488.00213980674744	
295	353.8629138469696	picture	0		101	293.0	/experiments/Knapen_AOT/AOT_stimuli/pictures/1037_fw.png	488.0186734199524	0.8500280380249023
295	354.6964466571808	response	0	j		293.0	/experiments/Knapen_AOT/AOT_stimuli/pictures/1037_fw.png	488.8522062301636	
296	354.7129418849945	picture	0		102	294.0	/experiments/Knapen_AOT/AOT_stimuli/pictures/1356_fw.png	488.8687014579773	0.8583261966705322
296	355.5547935962677	response	0	k		294.0	/experiments/Knapen_AOT/AOT_stimuli/pictures/1356_fw.png	489.7105531692505	
297	355.57126808166504	picture	0		106	295.0	/experiments/Knapen_AOT/AOT_stimuli/pictures/1530_fw.png	489.7270276546478	0.8916797637939453
297	356.44653606414795	response	0	k		295.0	/experiments/Knapen_AOT/AOT_stimuli/pictures/1530_fw.png	490.60229563713074	
298	356.462947845459	picture	0		172	296.0	/experiments/Knapen_AOT/AOT_stimuli/pictures/1448_fw.png	490.6187074184418	1.4416656494140625
298	357.8881483078003	response	0	k		296.0	/experiments/Knapen_AOT/AOT_stimuli/pictures/1448_fw.png	492.0439078807831	
299	357.90461349487305	picture	0		775	297.0	/experiments/Knapen_AOT/AOT_stimuli/pictures/0843_fw.png	492.06037306785583	6.466840028762817
299	364.35591983795166	response	0	k		297.0	/experiments/Knapen_AOT/AOT_stimuli/pictures/0843_fw.png	498.51167941093445	
300	364.37145352363586	picture	0		96	298.0	/experiments/Knapen_AOT/AOT_stimuli/pictures/2011_fw.png	498.52721309661865	0.8082201480865479
300	365.16356348991394	response	0	k		298.0	/experiments/Knapen_AOT/AOT_stimuli/pictures/2011_fw.png	499.31932306289673	
301	365.1796736717224	picture	0		95	299.0	/experiments/Knapen_AOT/AOT_stimuli/pictures/1476_fw.png	499.3354332447052	0.8000233173370361
301	365.95625591278076	response	0	j		299.0	/experiments/Knapen_AOT/AOT_stimuli/pictures/1476_fw.png	500.11201548576355	
302	365.97969698905945	picture	0		104	300.0	/experiments/Knapen_AOT/AOT_stimuli/pictures/1263_fw.png	500.13545656204224	0.8750646114349365
302	366.8382341861725	response	0	k		300.0	/experiments/Knapen_AOT/AOT_stimuli/pictures/1263_fw.png	500.9939937591553	
303	366.8547616004944	picture	0		103	301.0	/experiments/Knapen_AOT/AOT_stimuli/pictures/1360_fw.png	501.0105211734772	0.8666074275970459
303	367.70509696006775	response	0	k		301.0	/experiments/Knapen_AOT/AOT_stimuli/pictures/1360_fw.png	501.86085653305054	
304	367.72136902809143	picture	0		98	302.0	/experiments/Knapen_AOT/AOT_stimuli/pictures/0330_fw.png	501.8771286010742	0.8250267505645752
304	368.5299928188324	response	0	k		302.0	/experiments/Knapen_AOT/AOT_stimuli/pictures/0330_fw.png	502.6857523918152	
305	368.546395778656	picture	0		104	303.0	/experiments/Knapen_AOT/AOT_stimuli/pictures/1110_fw.png	502.7021553516388	0.8750436305999756
305	369.4052264690399	response	0	j		303.0	/experiments/Knapen_AOT/AOT_stimuli/pictures/1110_fw.png	503.5609860420227	
306	369.421439409256	picture	0		87	304.0	/experiments/Knapen_AOT/AOT_stimuli/pictures/1189_fw.png	503.57719898223877	0.7333283424377441
306	370.1382632255554	response	0	k		304.0	/experiments/Knapen_AOT/AOT_stimuli/pictures/1189_fw.png	504.2940227985382	
307	370.1547677516937	picture	0		116	305.0	/experiments/Knapen_AOT/AOT_stimuli/pictures/0840_fw.png	504.3105273246765	0.9750010967254639
307	371.1133348941803	response	0	k		305.0	/experiments/Knapen_AOT/AOT_stimuli/pictures/0840_fw.png	505.2690944671631	
308	371.1297688484192	picture	0		227	306.0	/experiments/Knapen_AOT/AOT_stimuli/pictures/0993_fw.png	505.285528421402	1.900038242340088
308	373.01330494880676	response	0	j		306.0	/experiments/Knapen_AOT/AOT_stimuli/pictures/0993_fw.png	507.16906452178955	
309	373.0298070907593	picture	0		89	307.0	/experiments/Knapen_AOT/AOT_stimuli/pictures/0315_fw.png	507.18556666374207	0.7500312328338623
309	373.7556903362274	response	0	k		307.0	/experiments/Knapen_AOT/AOT_stimuli/pictures/0315_fw.png	507.9114499092102	
310	373.77983832359314	picture	0		76	308.0	/experiments/Knapen_AOT/AOT_stimuli/pictures/1577_fw.png	507.9355978965759	0.6416468620300293
310	374.405300617218	response	0	k		308.0	/experiments/Knapen_AOT/AOT_stimuli/pictures/1577_fw.png	508.5610601902008	
311	374.42148518562317	picture	0		92	309.0	/experiments/Knapen_AOT/AOT_stimuli/pictures/0428_fw.png	508.57724475860596	0.7750029563903809
311	375.18001556396484	response	0	k		309.0	/experiments/Knapen_AOT/AOT_stimuli/pictures/0428_fw.png	509.33577513694763	
312	375.19648814201355	picture	0		109	310.0	/experiments/Knapen_AOT/AOT_stimuli/pictures/1378_fw.png	509.35224771499634	0.9166815280914307
312	376.09664821624756	response	0	k		310.0	/experiments/Knapen_AOT/AOT_stimuli/pictures/1378_fw.png	510.25240778923035	
313	376.113169670105	picture	0		92	311.0	/experiments/Knapen_AOT/AOT_stimuli/pictures/0938_fw.png	510.26892924308777	0.7749812602996826
313	376.8716769218445	response	0	j		311.0	/experiments/Knapen_AOT/AOT_stimuli/pictures/0938_fw.png	511.02743649482727	
314	376.88815093040466	picture	0		107	312.0	/experiments/Knapen_AOT/AOT_stimuli/pictures/0958_fw.png	511.04391050338745	0.9000656604766846
314	377.7717092037201	response	0	j		312.0	/experiments/Knapen_AOT/AOT_stimuli/pictures/0958_fw.png	511.9274687767029	
315	377.78821659088135	picture	0		104	313.0	/experiments/Knapen_AOT/AOT_stimuli/pictures/0621_fw.png	511.94397616386414	0.8749675750732422
315	378.64671778678894	response	0	j		313.0	/experiments/Knapen_AOT/AOT_stimuli/pictures/0621_fw.png	512.8024773597717	
316	378.6631841659546	picture	0		109	314.0	/experiments/Knapen_AOT/AOT_stimuli/pictures/0959_fw.png	512.8189437389374	0.9167094230651855
316	379.55593967437744	response	0	k		314.0	/experiments/Knapen_AOT/AOT_stimuli/pictures/0959_fw.png	513.7116992473602	
317	379.5798935890198	picture	0		95	315.0	/experiments/Knapen_AOT/AOT_stimuli/pictures/1669_fw.png	513.7356531620026	0.800889253616333
317	380.36360335350037	response	0	k		315.0	/experiments/Knapen_AOT/AOT_stimuli/pictures/1669_fw.png	514.5193629264832	
318	380.3807828426361	picture	0		118	316.0	/experiments/Knapen_AOT/AOT_stimuli/pictures/1411_fw.png	514.5365424156189	0.9930615425109863
318	381.355416059494	response	0	j		316.0	/experiments/Knapen_AOT/AOT_stimuli/pictures/1411_fw.png	515.5111756324768	
319	381.3738443851471	picture	0		106	317.0	/experiments/Knapen_AOT/AOT_stimuli/pictures/1772_fw.png	515.5296039581299	0.889387845993042
319	382.24674344062805	response	0	k		317.0	/experiments/Knapen_AOT/AOT_stimuli/pictures/1772_fw.png	516.4025030136108	
320	382.26323223114014	picture	0		108	318.0	/experiments/Knapen_AOT/AOT_stimuli/pictures/0318_fw.png	516.4189918041229	0.9083640575408936
320	383.1479244232178	response	0	k		318.0	/experiments/Knapen_AOT/AOT_stimuli/pictures/0318_fw.png	517.3036839962006	
321	383.17159628868103	picture	0		100	319.0	/experiments/Knapen_AOT/AOT_stimuli/pictures/1344_fw.png	517.3273558616638	0.8416781425476074
321	383.99678325653076	response	0	j		319.0	/experiments/Knapen_AOT/AOT_stimuli/pictures/1344_fw.png	518.1525428295135	
322	384.01327443122864	picture	0		80	320.0	/experiments/Knapen_AOT/AOT_stimuli/pictures/1791_fw.png	518.1690340042114	0.6750166416168213
322	384.67178559303284	response	0	k		320.0	/experiments/Knapen_AOT/AOT_stimuli/pictures/1791_fw.png	518.8275451660156	
323	384.68829107284546	picture	0		111	321.0	/experiments/Knapen_AOT/AOT_stimuli/pictures/0704_fw.png	518.8440506458282	0.9333281517028809
323	385.6051506996155	response	0	j		321.0	/experiments/Knapen_AOT/AOT_stimuli/pictures/0704_fw.png	519.7609102725983	
324	385.62161922454834	picture	0		95	322.0	/experiments/Knapen_AOT/AOT_stimuli/pictures/0002_fw.png	519.7773787975311	0.8000264167785645
324	386.4052119255066	response	0	k		322.0	/experiments/Knapen_AOT/AOT_stimuli/pictures/0002_fw.png	520.5609714984894	
325	386.4216456413269	picture	0		119	323.0	/experiments/Knapen_AOT/AOT_stimuli/pictures/1866_fw.png	520.5774052143097	1.0000269412994385
325	387.4051992893219	response	0	j		323.0	/experiments/Knapen_AOT/AOT_stimuli/pictures/1866_fw.png	521.5609588623047	
326	387.42167258262634	picture	0		90	324.0	/experiments/Knapen_AOT/AOT_stimuli/pictures/0498_fw.png	521.5774321556091	0.7582786083221436
326	388.16353392601013	response	0	k		324.0	/experiments/Knapen_AOT/AOT_stimuli/pictures/0498_fw.png	522.3192934989929	
327	388.1799511909485	picture	0		145	325.0	/experiments/Knapen_AOT/AOT_stimuli/pictures/1032_fw.png	522.3357107639313	1.216709852218628
327	389.38019728660583	response	0	k		325.0	/experiments/Knapen_AOT/AOT_stimuli/pictures/1032_fw.png	523.5359568595886	
328	389.3966610431671	picture	0		132	326.0	/experiments/Knapen_AOT/AOT_stimuli/pictures/2138_fw.png	523.5524206161499	1.1083943843841553
328	390.4885470867157	response	0	k		326.0	/experiments/Knapen_AOT/AOT_stimuli/pictures/2138_fw.png	524.6443066596985	
329	390.50505542755127	picture	0		94	327.0	/experiments/Knapen_AOT/AOT_stimuli/pictures/0378_fw.png	524.6608150005341	0.7916343212127686
329	391.28023743629456	response	0	k		327.0	/experiments/Knapen_AOT/AOT_stimuli/pictures/0378_fw.png	525.4359970092773	
330	391.29668974876404	picture	0		271	328.0	/experiments/Knapen_AOT/AOT_stimuli/pictures/1135_fw.png	525.4524493217468	2.2667081356048584
330	393.5476698875427	response	0	k		328.0	/experiments/Knapen_AOT/AOT_stimuli/pictures/1135_fw.png	527.7034294605255	
331	393.5633978843689	picture	0		120	329.0	/experiments/Knapen_AOT/AOT_stimuli/pictures/1789_fw.png	527.7191574573517	1.0083684921264648
331	394.5554323196411	response	0	k		329.0	/experiments/Knapen_AOT/AOT_stimuli/pictures/1789_fw.png	528.7111918926239	
332	394.57176637649536	picture	0		127	330.0	/experiments/Knapen_AOT/AOT_stimuli/pictures/1393_fw.png	528.7275259494781	1.0666115283966064
332	395.6219108104706	response	0	j		330.0	/experiments/Knapen_AOT/AOT_stimuli/pictures/1393_fw.png	529.7776703834534	
333	395.63837790489197	picture	0		126	331.0	/experiments/Knapen_AOT/AOT_stimuli/pictures/0007_fw.png	529.7941374778748	1.0583674907684326
333	396.6805191040039	response	0	j		331.0	/experiments/Knapen_AOT/AOT_stimuli/pictures/0007_fw.png	530.8362786769867	
334	396.6967453956604	picture	0		98	332.0	/experiments/Knapen_AOT/AOT_stimuli/pictures/0925_fw.png	530.8525049686432	0.8250343799591064
334	397.5053377151489	response	0	j		332.0	/experiments/Knapen_AOT/AOT_stimuli/pictures/0925_fw.png	531.6610972881317	
335	397.5217797756195	picture	0		90	333.0	/experiments/Knapen_AOT/AOT_stimuli/pictures/1904_fw.png	531.6775393486023	0.7583639621734619
335	398.2636384963989	response	0	k		333.0	/experiments/Knapen_AOT/AOT_stimuli/pictures/1904_fw.png	532.4193980693817	
336	398.28014373779297	picture	0		106	334.0	/experiments/Knapen_AOT/AOT_stimuli/pictures/2050_fw.png	532.4359033107758	0.8916471004486084
336	399.14789748191833	response	0	j		334.0	/experiments/Knapen_AOT/AOT_stimuli/pictures/2050_fw.png	533.3036570549011	
337	399.1717908382416	picture	0		118	335.0	/experiments/Knapen_AOT/AOT_stimuli/pictures/1630_fw.png	533.3275504112244	0.9917352199554443
337	400.14025473594666	response	0	k		335.0	/experiments/Knapen_AOT/AOT_stimuli/pictures/1630_fw.png	534.2960143089294	
338	400.163526058197	picture	0		151	336.0	/experiments/Knapen_AOT/AOT_stimuli/pictures/0552_fw.png	534.3192856311798	1.2666196823120117
338	401.41357588768005	response	0	k		336.0	/experiments/Knapen_AOT/AOT_stimuli/pictures/0552_fw.png	535.5693354606628	
339	401.43014574050903	picture	0		130	337.0	/experiments/Knapen_AOT/AOT_stimuli/pictures/0204_fw.png	535.5859053134918	1.0916988849639893
339	402.5053312778473	response	0	j		337.0	/experiments/Knapen_AOT/AOT_stimuli/pictures/0204_fw.png	536.6610908508301	
340	402.521844625473	picture	0		90	338.0	/experiments/Knapen_AOT/AOT_stimuli/pictures/1609_fw.png	536.6776041984558	0.7583866119384766
340	403.2636749744415	response	0	k		338.0	/experiments/Knapen_AOT/AOT_stimuli/pictures/1609_fw.png	537.4194345474243	
341	403.2802312374115	picture	0		101	339.0	/experiments/Knapen_AOT/AOT_stimuli/pictures/0660_fw.png	537.4359908103943	0.8499493598937988
341	404.1138336658478	response	0	j		339.0	/experiments/Knapen_AOT/AOT_stimuli/pictures/0660_fw.png	538.2695932388306	
342	404.1301805973053	picture	0		121	340.0	/experiments/Knapen_AOT/AOT_stimuli/pictures/0112_fw.png	538.2859401702881	1.0166854858398438
342	405.1304519176483	response	0	j		340.0	/experiments/Knapen_AOT/AOT_stimuli/pictures/0112_fw.png	539.2862114906311	
343	405.14686608314514	picture	0		102	341.0	/experiments/Knapen_AOT/AOT_stimuli/pictures/1146_fw.png	539.3026256561279	0.8583576679229736
343	405.9888563156128	response	0	k		341.0	/experiments/Knapen_AOT/AOT_stimuli/pictures/1146_fw.png	540.1446158885956	
344	406.0052237510681	picture	0		217	342.0	/experiments/Knapen_AOT/AOT_stimuli/pictures/1585_fw.png	540.1609833240509	1.8339917659759521
344	407.80541348457336	response	0	j		342.0	/experiments/Knapen_AOT/AOT_stimuli/pictures/1585_fw.png	541.9611730575562	
345	407.83921551704407	picture	0		84	343.0	/experiments/Knapen_AOT/AOT_stimuli/pictures/1317_fw.png	541.9949750900269	0.70770263671875
345	408.53110241889954	response	0	j		343.0	/experiments/Knapen_AOT/AOT_stimuli/pictures/1317_fw.png	542.6868619918823	
346	408.5469181537628	picture	0		139	344.0	/experiments/Knapen_AOT/AOT_stimuli/pictures/1869_fw.png	542.7026777267456	1.1666715145111084
346	409.6971604824066	response	0	k		344.0	/experiments/Knapen_AOT/AOT_stimuli/pictures/1869_fw.png	543.8529200553894	
347	409.7135896682739	picture	0		85	345.0	/experiments/Knapen_AOT/AOT_stimuli/pictures/1210_fw.png	543.8693492412567	0.7166504859924316
347	410.41387605667114	response	0	j		345.0	/experiments/Knapen_AOT/AOT_stimuli/pictures/1210_fw.png	544.5696356296539	
348	410.43024015426636	picture	0		1597	346.0	/experiments/Knapen_AOT/AOT_stimuli/pictures/0628_fw.png	544.5859997272491	13.316859006881714
348	423.73060846328735	response	0	k		346.0	/experiments/Knapen_AOT/AOT_stimuli/pictures/0628_fw.png	557.8863680362701	
349	423.74709916114807	picture	0		872	347.0	/experiments/Knapen_AOT/AOT_stimuli/pictures/0981_fw.png	557.9028587341309	7.275093078613281
349	431.0057201385498	response	0	k		347.0	/experiments/Knapen_AOT/AOT_stimuli/pictures/0981_fw.png	565.1614797115326	
350	431.02219223976135	picture	0		98	348.0	/experiments/Knapen_AOT/AOT_stimuli/pictures/1112_fw.png	565.1779518127441	0.8249862194061279
350	431.8309590816498	response	0	j		348.0	/experiments/Knapen_AOT/AOT_stimuli/pictures/1112_fw.png	565.9867186546326	
351	431.8471784591675	picture	0		100	349.0	/experiments/Knapen_AOT/AOT_stimuli/pictures/0396_fw.png	566.0029380321503	0.8417098522186279
351	432.67241501808167	response	0	j		349.0	/experiments/Knapen_AOT/AOT_stimuli/pictures/0396_fw.png	566.8281745910645	
352	432.6888883113861	picture	0		348	350.0	/experiments/Knapen_AOT/AOT_stimuli/pictures/0667_fw.png	566.8446478843689	2.9083423614501953
352	435.58078241348267	response	0	j		350.0	/experiments/Knapen_AOT/AOT_stimuli/pictures/0667_fw.png	569.7365419864655	
353	435.5972306728363	picture	0		78	351.0	/experiments/Knapen_AOT/AOT_stimuli/pictures/0824_fw.png	569.7529902458191	0.6583404541015625
353	436.23914432525635	response	0	k		351.0	/experiments/Knapen_AOT/AOT_stimuli/pictures/0824_fw.png	570.3949038982391	
354	436.25557112693787	picture	0		85	352.0	/experiments/Knapen_AOT/AOT_stimuli/pictures/0037_fw.png	570.4113306999207	0.7166697978973389
354	436.95578813552856	response	0	j		352.0	/experiments/Knapen_AOT/AOT_stimuli/pictures/0037_fw.png	571.1115477085114	
355	436.9722409248352	picture	0		103	353.0	/experiments/Knapen_AOT/AOT_stimuli/pictures/0193_fw.png	571.128000497818	0.866692066192627
355	437.8225302696228	response	0	k		353.0	/experiments/Knapen_AOT/AOT_stimuli/pictures/0193_fw.png	571.9782898426056	
356	437.83893299102783	picture	0		96	354.0	/experiments/Knapen_AOT/AOT_stimuli/pictures/0303_fw.png	571.9946925640106	0.8083417415618896
356	438.63081192970276	response	0	k		354.0	/experiments/Knapen_AOT/AOT_stimuli/pictures/0303_fw.png	572.7865715026855	
357	438.6472747325897	picture	0		108	355.0	/experiments/Knapen_AOT/AOT_stimuli/pictures/1868_fw.png	572.8030343055725	0.9083561897277832
357	439.53298473358154	response	0	k		355.0	/experiments/Knapen_AOT/AOT_stimuli/pictures/1868_fw.png	573.6887443065643	
358	439.5556309223175	picture	0		106	356.0	/experiments/Knapen_AOT/AOT_stimuli/pictures/0325_fw.png	573.7113904953003	0.8880846500396729
358	440.43082571029663	response	0	j		356.0	/experiments/Knapen_AOT/AOT_stimuli/pictures/0325_fw.png	574.5865852832794	
359	440.4437155723572	picture	0		144	357.0	/experiments/Knapen_AOT/AOT_stimuli/pictures/1766_fw.png	574.59947514534	1.2119557857513428
359	441.63915514945984	response	0	j		357.0	/experiments/Knapen_AOT/AOT_stimuli/pictures/1766_fw.png	575.7949147224426	
360	441.6556713581085	picture	0		912	358.0	/experiments/Knapen_AOT/AOT_stimuli/pictures/1236_fw.png	575.8114309310913	7.608432054519653
360	449.247816324234	response	0	k		358.0	/experiments/Knapen_AOT/AOT_stimuli/pictures/1236_fw.png	583.4035758972168	
361	449.2641034126282	picture	0		88	359.0	/experiments/Knapen_AOT/AOT_stimuli/pictures/0138_fw.png	583.419862985611	0.7416524887084961
361	449.9892621040344	response	0	j		359.0	/experiments/Knapen_AOT/AOT_stimuli/pictures/0138_fw.png	584.1450216770172	
362	450.00575590133667	stim	0		152			584.1615154743195	1.2713611125946045
362	451.26429867744446	response	0	space				585.4200582504272	
