trial_nr	onset	event_type	phase	response	nr_frames	picture_index	picture_file	onset_abs	duration
0	0.2119920253753662	stim	0		854			135.88609385490417	7.166691064834595
0	7.333559989929199	response	0	space				143.007661819458	
2	7.378683090209961	picture	0		340	0.0	/experiments/knapen_AOT/AOT_stimuli/pictures/1349_fw.png	143.05278491973877	2.854841947555542
2	10.200210094451904	response	0	j		0.0	/experiments/knapen_AOT/AOT_stimuli/pictures/1349_fw.png	145.8743119239807	
3	10.233525037765503	picture	0		86	1.0	/experiments/knapen_AOT/AOT_stimuli/pictures/0360_fw.png	145.9076268672943	0.7424111366271973
3	10.941825151443481	response	0	j		1.0	/experiments/knapen_AOT/AOT_stimuli/pictures/0360_fw.png	146.6159269809723	
4	10.9759361743927	picture	0		261	2.0	/experiments/knapen_AOT/AOT_stimuli/pictures/0386_fw.png	146.6500380039215	2.2074549198150635
4	13.141945123672485	response	0	j		2.0	/experiments/knapen_AOT/AOT_stimuli/pictures/0386_fw.png	148.8160469532013	
5	13.183391094207764	picture	0		102	3.0	/experiments/knapen_AOT/AOT_stimuli/pictures/0970_fw.png	148.85749292373657	0.9500930309295654
5	14.041815996170044	response	0	k		3.0	/experiments/knapen_AOT/AOT_stimuli/pictures/0970_fw.png	149.71591782569885	
6	14.133484125137329	picture	0		270	4.0	/experiments/knapen_AOT/AOT_stimuli/pictures/0267_fw.png	149.80758595466614	2.2800490856170654
6	16.375244140625	response	0	k		4.0	/experiments/knapen_AOT/AOT_stimuli/pictures/0267_fw.png	152.0493459701538	
7	16.413533210754395	picture	0		429	5.0	/experiments/knapen_AOT/AOT_stimuli/pictures/0372_fw.png	152.0876350402832	3.611578941345215
7	19.983686208724976	response	0	k		5.0	/experiments/knapen_AOT/AOT_stimuli/pictures/0372_fw.png	155.65778803825378	
8	20.02511215209961	picture	0		780	6.0	/experiments/knapen_AOT/AOT_stimuli/pictures/0725_fw.png	155.69921398162842	6.533419847488403
8	26.517051219940186	response	0	k		6.0	/experiments/knapen_AOT/AOT_stimuli/pictures/0725_fw.png	162.191153049469	
9	26.558531999588013	picture	0		102	7.0	/experiments/knapen_AOT/AOT_stimuli/pictures/0807_fw.png	162.23263382911682	0.8758561611175537
9	27.400386095046997	response	0	k		7.0	/experiments/knapen_AOT/AOT_stimuli/pictures/0807_fw.png	163.0744879245758	
10	27.434388160705566	picture	0		98	8.0	/experiments/knapen_AOT/AOT_stimuli/pictures/0605_fw.png	163.10848999023438	0.8408689498901367
10	28.24198603630066	response	0	j		8.0	/experiments/knapen_AOT/AOT_stimuli/pictures/0605_fw.png	163.91608786582947	
11	28.275257110595703	picture	0		171	9.0	/experiments/knapen_AOT/AOT_stimuli/pictures/2169_fw.png	163.9493589401245	1.450774908065796
11	29.692065000534058	response	0	j		9.0	/experiments/knapen_AOT/AOT_stimuli/pictures/2169_fw.png	165.36616683006287	
12	29.7260320186615	picture	0		217	10.0	/experiments/knapen_AOT/AOT_stimuli/pictures/0986_fw.png	165.4001338481903	1.8335301876068115
12	31.525482177734375	response	0	k		10.0	/experiments/knapen_AOT/AOT_stimuli/pictures/0986_fw.png	167.19958400726318	
13	31.55956220626831	picture	0		130	11.0	/experiments/knapen_AOT/AOT_stimuli/pictures/1306_fw.png	167.23366403579712	1.1073379516601562
13	32.62706398963928	response	0	k		11.0	/experiments/knapen_AOT/AOT_stimuli/pictures/1306_fw.png	168.3011658191681	
14	32.66690015792847	picture	0		139	12.0	/experiments/knapen_AOT/AOT_stimuli/pictures/0014_fw.png	168.34100198745728	1.200005054473877
14	33.81035304069519	response	0	j		12.0	/experiments/knapen_AOT/AOT_stimuli/pictures/0014_fw.png	169.484454870224	
15	33.866905212402344	picture	0		195	13.0	/experiments/knapen_AOT/AOT_stimuli/pictures/2158_fw.png	169.54100704193115	1.6583728790283203
15	35.48385810852051	response	0	k		13.0	/experiments/knapen_AOT/AOT_stimuli/pictures/2158_fw.png	171.15795993804932	
16	35.525278091430664	picture	0		161	14.0	/experiments/knapen_AOT/AOT_stimuli/pictures/0707_fw.png	171.19937992095947	1.3835361003875732
16	36.85892200469971	response	0	k		14.0	/experiments/knapen_AOT/AOT_stimuli/pictures/0707_fw.png	172.53302383422852	
17	36.90881419181824	picture	0		166	15.0	/experiments/knapen_AOT/AOT_stimuli/pictures/0125_fw.png	172.58291602134705	1.4284319877624512
17	38.28393220901489	response	0	k		15.0	/experiments/knapen_AOT/AOT_stimuli/pictures/0125_fw.png	173.9580340385437	
18	38.33724617958069	picture	0		96	16.0	/experiments/knapen_AOT/AOT_stimuli/pictures/1600_fw.png	174.0113480091095	0.8297350406646729
18	39.12561321258545	response	0	j		16.0	/experiments/knapen_AOT/AOT_stimuli/pictures/1600_fw.png	174.79971504211426	
19	39.16698122024536	picture	0		185	17.0	/experiments/knapen_AOT/AOT_stimuli/pictures/0660_fw.png	174.84108304977417	1.6084778308868408
19	40.70060110092163	response	0	k		17.0	/experiments/knapen_AOT/AOT_stimuli/pictures/0660_fw.png	176.37470293045044	
20	40.7754590511322	picture	0		116	18.0	/experiments/knapen_AOT/AOT_stimuli/pictures/1412_fw.png	176.449560880661	1.0834169387817383
20	41.73395109176636	response	0	k		18.0	/experiments/knapen_AOT/AOT_stimuli/pictures/1412_fw.png	177.40805292129517	
21	41.85887598991394	picture	0		134	19.0	/experiments/knapen_AOT/AOT_stimuli/pictures/0833_fw.png	177.53297781944275	1.1450722217559814
21	42.96713709831238	response	0	k		19.0	/experiments/knapen_AOT/AOT_stimuli/pictures/0833_fw.png	178.6412389278412	
22	43.00394821166992	picture	0		144	20.0	/experiments/knapen_AOT/AOT_stimuli/pictures/0335_fw.png	178.67805004119873	1.2298460006713867
22	44.1921751499176	response	0	k		20.0	/experiments/knapen_AOT/AOT_stimuli/pictures/0335_fw.png	179.8662769794464	
23	44.23379421234131	picture	0		207	21.0	/experiments/knapen_AOT/AOT_stimuli/pictures/1124_fw.png	179.90789604187012	1.7500548362731934
23	45.95057916641235	response	0	k		21.0	/experiments/knapen_AOT/AOT_stimuli/pictures/1124_fw.png	181.62468099594116	
24	45.9838490486145	picture	0		157	22.0	/experiments/knapen_AOT/AOT_stimuli/pictures/0112_fw.png	181.6579508781433	1.3332581520080566
24	47.28403401374817	response	0	k		22.0	/experiments/knapen_AOT/AOT_stimuli/pictures/0112_fw.png	182.95813584327698	
25	47.31710720062256	picture	0		153	23.0	/experiments/knapen_AOT/AOT_stimuli/pictures/0003_fw.png	182.99120903015137	1.3048808574676514
25	48.58388710021973	response	0	k		23.0	/experiments/knapen_AOT/AOT_stimuli/pictures/0003_fw.png	184.25798892974854	
26	48.62198805809021	picture	0		94	24.0	/experiments/knapen_AOT/AOT_stimuli/pictures/0285_fw.png	184.29608988761902	0.8618769645690918
26	49.40072417259216	response	0	j		24.0	/experiments/knapen_AOT/AOT_stimuli/pictures/0285_fw.png	185.07482600212097	
27	49.4838650226593	picture	0		158	25.0	/experiments/knapen_AOT/AOT_stimuli/pictures/1516_fw.png	185.1579668521881	1.3673532009124756
27	50.79234218597412	response	0	k		25.0	/experiments/knapen_AOT/AOT_stimuli/pictures/1516_fw.png	186.46644401550293	
28	50.85121822357178	picture	0		242	26.0	/experiments/knapen_AOT/AOT_stimuli/pictures/0190_fw.png	186.5253200531006	2.0625109672546387
28	52.85900902748108	response	0	k		26.0	/experiments/knapen_AOT/AOT_stimuli/pictures/0190_fw.png	188.5331108570099	
29	52.913729190826416	picture	0		117	27.0	/experiments/knapen_AOT/AOT_stimuli/pictures/1718_fw.png	188.58783102035522	1.0139579772949219
29	53.883939027786255	response	0	k		27.0	/experiments/knapen_AOT/AOT_stimuli/pictures/1718_fw.png	189.55804085731506	
30	53.92768716812134	picture	0		119	28.0	/experiments/knapen_AOT/AOT_stimuli/pictures/0492_fw.png	189.60178899765015	1.0145490169525146
30	54.909165143966675	response	0	j		28.0	/experiments/knapen_AOT/AOT_stimuli/pictures/0492_fw.png	190.58326697349548	
31	54.94223618507385	picture	0		252	29.0	/experiments/knapen_AOT/AOT_stimuli/pictures/1296_fw.png	190.61633801460266	2.125093936920166
31	57.02739906311035	response	0	k		29.0	/experiments/knapen_AOT/AOT_stimuli/pictures/1296_fw.png	192.70150089263916	
32	57.06733012199402	picture	0		176	30.0	/experiments/knapen_AOT/AOT_stimuli/pictures/0165_fw.png	192.74143195152283	1.4922459125518799
32	58.52569603919983	response	0	k		30.0	/experiments/knapen_AOT/AOT_stimuli/pictures/0165_fw.png	194.19979786872864	
33	58.5595760345459	picture	0		134	31.0	/experiments/knapen_AOT/AOT_stimuli/pictures/0865_fw.png	194.2336778640747	1.1493630409240723
33	59.66750121116638	response	0	k		31.0	/experiments/knapen_AOT/AOT_stimuli/pictures/0865_fw.png	195.3416030406952	
34	59.70893907546997	picture	0		139	32.0	/experiments/knapen_AOT/AOT_stimuli/pictures/0601_fw.png	195.38304090499878	1.1839540004730225
34	60.85904121398926	response	0	j		32.0	/experiments/knapen_AOT/AOT_stimuli/pictures/0601_fw.png	196.53314304351807	
35	60.89289307594299	picture	0		340	33.0	/experiments/knapen_AOT/AOT_stimuli/pictures/1058_fw.png	196.5669949054718	2.875028133392334
35	63.71754717826843	response	0	k		33.0	/experiments/knapen_AOT/AOT_stimuli/pictures/1058_fw.png	199.39164900779724	
36	63.76792120933533	picture	0		114	34.0	/experiments/knapen_AOT/AOT_stimuli/pictures/0325_fw.png	199.44202303886414	0.9791879653930664
36	64.70904207229614	response	0	k		34.0	/experiments/knapen_AOT/AOT_stimuli/pictures/0325_fw.png	200.38314390182495	
37	64.7471091747284	picture	0		161	35.0	/experiments/knapen_AOT/AOT_stimuli/pictures/0651_fw.png	200.4212110042572	1.3749728202819824
37	66.08411622047424	response	0	j		35.0	/experiments/knapen_AOT/AOT_stimuli/pictures/0651_fw.png	201.75821805000305	
38	66.12208199501038	picture	0		305	36.0	/experiments/knapen_AOT/AOT_stimuli/pictures/0411_fw.png	201.79618382453918	2.611903190612793
38	68.65912199020386	response	0	j		36.0	/experiments/knapen_AOT/AOT_stimuli/pictures/0411_fw.png	204.33322381973267	
39	68.73398518562317	picture	0		124	37.0	/experiments/knapen_AOT/AOT_stimuli/pictures/1444_fw.png	204.40808701515198	1.061797857284546
39	69.75911617279053	response	0	j		37.0	/experiments/knapen_AOT/AOT_stimuli/pictures/1444_fw.png	205.43321800231934	
40	69.79578304290771	picture	0		220	38.0	/experiments/knapen_AOT/AOT_stimuli/pictures/0656_fw.png	205.46988487243652	1.8610961437225342
40	71.61080002784729	response	0	k		38.0	/experiments/knapen_AOT/AOT_stimuli/pictures/0656_fw.png	207.2849018573761	
41	71.65687918663025	picture	0		87	39.0	/experiments/knapen_AOT/AOT_stimuli/pictures/1421_fw.png	207.33098101615906	0.7569329738616943
41	72.37581419944763	response	0	j		39.0	/experiments/knapen_AOT/AOT_stimuli/pictures/1421_fw.png	208.04991602897644	
42	72.41381216049194	picture	0		116	40.0	/experiments/knapen_AOT/AOT_stimuli/pictures/0884_fw.png	208.08791399002075	1.0624818801879883
42	73.37587904930115	response	0	k		40.0	/experiments/knapen_AOT/AOT_stimuli/pictures/0884_fw.png	209.04998087882996	
43	73.47629404067993	picture	0		140	41.0	/experiments/knapen_AOT/AOT_stimuli/pictures/1307_fw.png	209.15039587020874	1.1944470405578613
43	74.62739706039429	response	0	j		41.0	/experiments/knapen_AOT/AOT_stimuli/pictures/1307_fw.png	210.3014988899231	
44	74.6707410812378	picture	0		214	42.0	/experiments/knapen_AOT/AOT_stimuli/pictures/0392_fw.png	210.3448429107666	1.8056859970092773
44	76.44261407852173	response	0	j		42.0	/experiments/knapen_AOT/AOT_stimuli/pictures/0392_fw.png	212.11671590805054	
45	76.47642707824707	picture	0		88	43.0	/experiments/knapen_AOT/AOT_stimuli/pictures/1228_fw.png	212.15052890777588	0.7576191425323486
45	77.20089316368103	response	0	j		43.0	/experiments/knapen_AOT/AOT_stimuli/pictures/1228_fw.png	212.87499499320984	
46	77.23404622077942	picture	0		139	44.0	/experiments/knapen_AOT/AOT_stimuli/pictures/1494_fw.png	212.90814805030823	1.1867249011993408
46	78.38418221473694	response	0	k		44.0	/experiments/knapen_AOT/AOT_stimuli/pictures/1494_fw.png	214.05828404426575	
47	78.42077112197876	picture	0		101	45.0	/experiments/knapen_AOT/AOT_stimuli/pictures/0068_fw.png	214.09487295150757	0.8549990653991699
47	79.25092005729675	response	0	j		45.0	/experiments/knapen_AOT/AOT_stimuli/pictures/0068_fw.png	214.92502188682556	
48	79.27577018737793	picture	0		649	46.0	/experiments/knapen_AOT/AOT_stimuli/pictures/2036_fw.png	214.94987201690674	5.436691999435425
48	84.67596316337585	response	0	k		46.0	/experiments/knapen_AOT/AOT_stimuli/pictures/2036_fw.png	220.35006499290466	
49	84.71246218681335	picture	0		79	47.0	/experiments/knapen_AOT/AOT_stimuli/pictures/0978_fw.png	220.38656401634216	0.7133738994598389
49	85.35932421684265	response	0	j		47.0	/experiments/knapen_AOT/AOT_stimuli/pictures/0978_fw.png	221.03342604637146	
50	85.4258360862732	picture	0		109	48.0	/experiments/knapen_AOT/AOT_stimuli/pictures/0181_fw.png	221.099937915802	0.9333629608154297
50	86.326003074646	response	0	k		48.0	/experiments/knapen_AOT/AOT_stimuli/pictures/0181_fw.png	222.0001049041748	
51	86.35919904708862	picture	0		345	49.0	/experiments/knapen_AOT/AOT_stimuli/pictures/1287_fw.png	222.03330087661743	2.966642141342163
51	89.21934199333191	response	0	k		49.0	/experiments/knapen_AOT/AOT_stimuli/pictures/1287_fw.png	224.89344382286072	
52	89.32584118843079	picture	0		117	50.0	/experiments/knapen_AOT/AOT_stimuli/pictures/1314_fw.png	224.9999430179596	1.0116589069366455
52	90.29283714294434	response	0	k		50.0	/experiments/knapen_AOT/AOT_stimuli/pictures/1314_fw.png	225.96693897247314	
53	90.33750009536743	picture	0		175	51.0	/experiments/knapen_AOT/AOT_stimuli/pictures/1723_fw.png	226.01160192489624	1.4861130714416504
53	91.78445601463318	response	0	k		51.0	/experiments/knapen_AOT/AOT_stimuli/pictures/1723_fw.png	227.458557844162	
54	91.82361316680908	picture	0		153	52.0	/experiments/knapen_AOT/AOT_stimuli/pictures/1138_fw.png	227.4977149963379	1.444437026977539
54	93.09268021583557	response	0	k		52.0	/experiments/knapen_AOT/AOT_stimuli/pictures/1138_fw.png	228.76678204536438	
55	93.26805019378662	picture	0		124	53.0	/experiments/knapen_AOT/AOT_stimuli/pictures/0982_fw.png	228.94215202331543	1.0995328426361084
55	94.29277014732361	response	0	k		53.0	/experiments/knapen_AOT/AOT_stimuli/pictures/0982_fw.png	229.96687197685242	
56	94.36758303642273	picture	0		404	54.0	/experiments/knapen_AOT/AOT_stimuli/pictures/0225_fw.png	230.04168486595154	3.5463221073150635
56	97.72665810585022	response	0	k		54.0	/experiments/knapen_AOT/AOT_stimuli/pictures/0225_fw.png	233.40075993537903	
57	97.9139051437378	picture	0		224	55.0	/experiments/knapen_AOT/AOT_stimuli/pictures/0060_fw.png	233.5880069732666	1.8959300518035889
57	99.77614212036133	response	0	j		55.0	/experiments/knapen_AOT/AOT_stimuli/pictures/0060_fw.png	235.45024394989014	
58	99.80983519554138	picture	0		85	56.0	/experiments/knapen_AOT/AOT_stimuli/pictures/0520_fw.png	235.4839370250702	0.7495288848876953
58	100.50942516326904	response	0	k		56.0	/experiments/knapen_AOT/AOT_stimuli/pictures/0520_fw.png	236.18352699279785	
59	100.55936408042908	picture	0		130	57.0	/experiments/knapen_AOT/AOT_stimuli/pictures/0035_fw.png	236.23346590995789	1.1166040897369385
59	101.63445019721985	response	0	k		57.0	/experiments/knapen_AOT/AOT_stimuli/pictures/0035_fw.png	237.30855202674866	
60	101.67596817016602	picture	0		214	58.0	/experiments/knapen_AOT/AOT_stimuli/pictures/0419_fw.png	237.35006999969482	1.8143830299377441
60	103.45111608505249	response	0	k		58.0	/experiments/knapen_AOT/AOT_stimuli/pictures/0419_fw.png	239.1252179145813	
61	103.49035120010376	picture	0		127	59.0	/experiments/knapen_AOT/AOT_stimuli/pictures/2152_fw.png	239.16445302963257	1.2023119926452637
61	104.54283809661865	response	0	j		59.0	/experiments/knapen_AOT/AOT_stimuli/pictures/2152_fw.png	240.21693992614746	
62	104.69266319274902	picture	0		97	60.0	/experiments/knapen_AOT/AOT_stimuli/pictures/0690_fw.png	240.36676502227783	0.8949289321899414
62	105.49292707443237	response	0	j		60.0	/experiments/knapen_AOT/AOT_stimuli/pictures/0690_fw.png	241.16702890396118	
63	105.58759212493896	picture	0		346	61.0	/experiments/knapen_AOT/AOT_stimuli/pictures/0103_fw.png	241.26169395446777	2.9884469509124756
63	108.45964503288269	response	0	j		61.0	/experiments/knapen_AOT/AOT_stimuli/pictures/0103_fw.png	244.1337468624115	
64	108.57603907585144	picture	0		106	62.0	/experiments/knapen_AOT/AOT_stimuli/pictures/0059_fw.png	244.25014090538025	1.1667330265045166
64	109.47673010826111	response	0	j		62.0	/experiments/knapen_AOT/AOT_stimuli/pictures/0059_fw.png	245.15083193778992	
65	109.74277210235596	picture	0		113	63.0	/experiments/knapen_AOT/AOT_stimuli/pictures/0615_fw.png	245.41687393188477	1.0253620147705078
65	110.67615818977356	response	0	j		63.0	/experiments/knapen_AOT/AOT_stimuli/pictures/0615_fw.png	246.35026001930237	
66	110.76813411712646	picture	0		88	64.0	/experiments/knapen_AOT/AOT_stimuli/pictures/0569_fw.png	246.44223594665527	0.7662930488586426
66	111.49291920661926	response	0	j		64.0	/experiments/knapen_AOT/AOT_stimuli/pictures/0569_fw.png	247.16702103614807	
67	111.53442716598511	picture	0		103	65.0	/experiments/knapen_AOT/AOT_stimuli/pictures/1608_fw.png	247.20852899551392	1.1087219715118408
67	112.38453412055969	response	0	k		65.0	/experiments/knapen_AOT/AOT_stimuli/pictures/1608_fw.png	248.0586359500885	
68	112.64314913749695	picture	0		382	66.0	/experiments/knapen_AOT/AOT_stimuli/pictures/0199_fw.png	248.31725096702576	3.257948875427246
68	115.81150412559509	response	0	j		66.0	/experiments/knapen_AOT/AOT_stimuli/pictures/0199_fw.png	251.4856059551239	
69	115.9010980129242	picture	0		95	67.0	/experiments/knapen_AOT/AOT_stimuli/pictures/1027_fw.png	251.575199842453	0.8417789936065674
69	116.68496608734131	response	0	j		67.0	/experiments/knapen_AOT/AOT_stimuli/pictures/1027_fw.png	252.35906791687012	
70	116.74287700653076	picture	0		260	68.0	/experiments/knapen_AOT/AOT_stimuli/pictures/1639_fw.png	252.41697883605957	2.366626024246216
70	118.90127801895142	response	0	j		68.0	/experiments/knapen_AOT/AOT_stimuli/pictures/1639_fw.png	254.57537984848022	
71	119.10950303077698	picture	0		293	69.0	/experiments/knapen_AOT/AOT_stimuli/pictures/1747_fw.png	254.7836048603058	2.4642200469970703
71	121.54316806793213	response	0	k		69.0	/experiments/knapen_AOT/AOT_stimuli/pictures/1747_fw.png	257.21726989746094	
72	121.57372307777405	picture	0		186	70.0	/experiments/knapen_AOT/AOT_stimuli/pictures/1720_fw.png	257.24782490730286	1.6111280918121338
72	123.11810898780823	response	0	k		70.0	/experiments/knapen_AOT/AOT_stimuli/pictures/1720_fw.png	258.79221081733704	
73	123.18485116958618	picture	0		120	71.0	/experiments/knapen_AOT/AOT_stimuli/pictures/1682_fw.png	258.858952999115	1.2246639728546143
73	124.17635321617126	response	0	j		71.0	/experiments/knapen_AOT/AOT_stimuli/pictures/1682_fw.png	259.8504550457001	
74	124.4095151424408	picture	0		90	72.0	/experiments/knapen_AOT/AOT_stimuli/pictures/1546_fw.png	260.0836169719696	0.7834088802337646
74	125.15140414237976	response	0	j		72.0	/experiments/knapen_AOT/AOT_stimuli/pictures/1546_fw.png	260.82550597190857	
75	125.19292402267456	picture	0		110	73.0	/experiments/knapen_AOT/AOT_stimuli/pictures/0266_fw.png	260.86702585220337	0.9583311080932617
75	126.1016731262207	response	0	j		73.0	/experiments/knapen_AOT/AOT_stimuli/pictures/0266_fw.png	261.7757749557495	
76	126.15125513076782	picture	0		90	74.0	/experiments/knapen_AOT/AOT_stimuli/pictures/1146_fw.png	261.82535696029663	0.7749888896942139
76	126.89340209960938	response	0	k		74.0	/experiments/knapen_AOT/AOT_stimuli/pictures/1146_fw.png	262.5675039291382	
77	126.92624402046204	picture	0		173	75.0	/experiments/knapen_AOT/AOT_stimuli/pictures/0462_fw.png	262.60034584999084	1.5000200271606445
77	128.35982012748718	response	0	k		75.0	/experiments/knapen_AOT/AOT_stimuli/pictures/0462_fw.png	264.033921957016	
78	128.42626404762268	picture	0		814	76.0	/experiments/knapen_AOT/AOT_stimuli/pictures/1151_fw.png	264.1003658771515	6.833376169204712
78	135.19481110572815	response	0	k		76.0	/experiments/knapen_AOT/AOT_stimuli/pictures/1151_fw.png	270.86891293525696	
79	135.2596402168274	picture	0		122	77.0	/experiments/knapen_AOT/AOT_stimuli/pictures/1660_fw.png	270.9337420463562	1.0583548545837402
79	136.26840806007385	response	0	k		77.0	/experiments/knapen_AOT/AOT_stimuli/pictures/1660_fw.png	271.94250988960266	
80	136.31799507141113	picture	0		188	78.0	/experiments/knapen_AOT/AOT_stimuli/pictures/1650_fw.png	271.99209690093994	1.6030499935150146
80	137.87660908699036	response	0	k		78.0	/experiments/knapen_AOT/AOT_stimuli/pictures/1650_fw.png	273.55071091651917	
81	137.92104506492615	picture	0		158	79.0	/experiments/knapen_AOT/AOT_stimuli/pictures/0738_fw.png	273.59514689445496	1.3804049491882324
81	139.22676920890808	response	0	j		79.0	/experiments/knapen_AOT/AOT_stimuli/pictures/0738_fw.png	274.9008710384369	
82	139.30145001411438	picture	0		103	80.0	/experiments/knapen_AOT/AOT_stimuli/pictures/0922_fw.png	274.9755518436432	0.8999001979827881
82	140.15163016319275	response	0	k		80.0	/experiments/knapen_AOT/AOT_stimuli/pictures/0922_fw.png	275.82573199272156	
83	140.20135021209717	picture	0		118	81.0	/experiments/knapen_AOT/AOT_stimuli/pictures/0671_fw.png	275.875452041626	1.0167009830474854
83	141.17652320861816	response	0	j		81.0	/experiments/knapen_AOT/AOT_stimuli/pictures/0671_fw.png	276.850625038147	
84	141.21805119514465	picture	0		107	82.0	/experiments/knapen_AOT/AOT_stimuli/pictures/0916_fw.png	276.89215302467346	0.9333930015563965
84	142.10179805755615	response	0	j		82.0	/experiments/knapen_AOT/AOT_stimuli/pictures/0916_fw.png	277.77589988708496	
85	142.15144419670105	picture	0		200	83.0	/experiments/knapen_AOT/AOT_stimuli/pictures/0693_fw.png	277.82554602622986	1.7166459560394287
85	143.80329513549805	response	0	j		83.0	/experiments/knapen_AOT/AOT_stimuli/pictures/0693_fw.png	279.47739696502686	
86	143.86809015274048	picture	0		93	84.0	/experiments/knapen_AOT/AOT_stimuli/pictures/0231_fw.png	279.5421919822693	0.7961530685424805
86	144.62815499305725	response	0	j		84.0	/experiments/knapen_AOT/AOT_stimuli/pictures/0231_fw.png	280.30225682258606	
87	144.66424322128296	picture	0		97	85.0	/experiments/knapen_AOT/AOT_stimuli/pictures/1934_fw.png	280.33834505081177	0.8288347721099854
87	145.45992016792297	response	0	j		85.0	/experiments/knapen_AOT/AOT_stimuli/pictures/1934_fw.png	281.1340219974518	
88	145.49307799339294	picture	0		224	86.0	/experiments/knapen_AOT/AOT_stimuli/pictures/0100_fw.png	281.16717982292175	1.8933351039886475
88	147.3517770767212	response	0	j		86.0	/experiments/knapen_AOT/AOT_stimuli/pictures/0100_fw.png	283.02587890625	
89	147.3864130973816	picture	0		217	87.0	/experiments/knapen_AOT/AOT_stimuli/pictures/0331_fw.png	283.0605149269104	1.8333189487457275
89	149.1851282119751	response	0	k		87.0	/experiments/knapen_AOT/AOT_stimuli/pictures/0331_fw.png	284.8592300415039	
90	149.21973204612732	picture	0		190	88.0	/experiments/knapen_AOT/AOT_stimuli/pictures/0509_fw.png	284.8938338756561	1.6041920185089111
90	150.79341006278992	response	0	j		88.0	/experiments/knapen_AOT/AOT_stimuli/pictures/0509_fw.png	286.4675118923187	
91	150.82392406463623	picture	0		90	89.0	/experiments/knapen_AOT/AOT_stimuli/pictures/0965_fw.png	286.49802589416504	0.844264030456543
91	151.56838202476501	response	0	j		89.0	/experiments/knapen_AOT/AOT_stimuli/pictures/0965_fw.png	287.2424838542938	
92	151.66818809509277	picture	0		99	90.0	/experiments/knapen_AOT/AOT_stimuli/pictures/1084_fw.png	287.3422899246216	0.8501729965209961
92	152.48498821258545	response	0	j		90.0	/experiments/knapen_AOT/AOT_stimuli/pictures/1084_fw.png	288.15909004211426	
93	152.51836109161377	picture	0		118	91.0	/experiments/knapen_AOT/AOT_stimuli/pictures/0140_fw.png	288.1924629211426	1.008281946182251
93	153.493390083313	response	0	j		91.0	/experiments/knapen_AOT/AOT_stimuli/pictures/0140_fw.png	289.1674919128418	
94	153.52664303779602	picture	0		140	92.0	/experiments/knapen_AOT/AOT_stimuli/pictures/1504_fw.png	289.20074486732483	1.1999540328979492
94	154.6851830482483	response	0	j		92.0	/experiments/knapen_AOT/AOT_stimuli/pictures/1504_fw.png	290.3592848777771	
95	154.72659707069397	picture	0		97	93.0	/experiments/knapen_AOT/AOT_stimuli/pictures/0398_fw.png	290.4006989002228	0.8666970729827881
95	155.52673602104187	response	0	j		93.0	/experiments/knapen_AOT/AOT_stimuli/pictures/0398_fw.png	291.2008378505707	
96	155.59329414367676	picture	0		342	94.0	/experiments/knapen_AOT/AOT_stimuli/pictures/0421_fw.png	291.26739597320557	2.876523971557617
96	158.4352240562439	response	0	k		94.0	/experiments/knapen_AOT/AOT_stimuli/pictures/0421_fw.png	294.1093258857727	
97	158.46981811523438	picture	0		843	95.0	/experiments/knapen_AOT/AOT_stimuli/pictures/1231_fw.png	294.1439199447632	7.048603057861328
97	165.4851851463318	response	0	k		95.0	/experiments/knapen_AOT/AOT_stimuli/pictures/1231_fw.png	301.1592869758606	
98	165.5184211730957	picture	0		101	96.0	/experiments/knapen_AOT/AOT_stimuli/pictures/1275_fw.png	301.1925230026245	0.9166419506072998
98	166.35195112228394	response	0	j		96.0	/experiments/knapen_AOT/AOT_stimuli/pictures/1275_fw.png	302.02605295181274	
99	166.435063123703	picture	0		1428	97.0	/experiments/knapen_AOT/AOT_stimuli/pictures/2131_fw.png	302.1091649532318	11.930784940719604
99	178.3271369934082	response	0	k		97.0	/experiments/knapen_AOT/AOT_stimuli/pictures/2131_fw.png	314.001238822937	
100	178.3658480644226	picture	0		447	98.0	/experiments/knapen_AOT/AOT_stimuli/pictures/2039_fw.png	314.0399498939514	3.7569470405578613
100	182.0854229927063	response	0	k		98.0	/experiments/knapen_AOT/AOT_stimuli/pictures/2039_fw.png	317.7595248222351	
101	182.12279510498047	picture	0		118	99.0	/experiments/knapen_AOT/AOT_stimuli/pictures/1016_fw.png	317.7968969345093	1.0069530010223389
101	183.09370803833008	response	0	k		99.0	/experiments/knapen_AOT/AOT_stimuli/pictures/1016_fw.png	318.7678098678589	
102	183.1297481060028	picture	0		104	100.0	/experiments/knapen_AOT/AOT_stimuli/pictures/2178_fw.png	318.8038499355316	0.9222159385681152
102	183.98544812202454	response	0	k		100.0	/experiments/knapen_AOT/AOT_stimuli/pictures/2178_fw.png	319.65954995155334	
103	184.05196404457092	picture	0		139	101.0	/experiments/knapen_AOT/AOT_stimuli/pictures/0332_fw.png	319.72606587409973	1.188965082168579
103	185.19559717178345	response	0	k		101.0	/experiments/knapen_AOT/AOT_stimuli/pictures/0332_fw.png	320.86969900131226	
104	185.2409291267395	picture	0		177	102.0	/experiments/knapen_AOT/AOT_stimuli/pictures/1088_fw.png	320.9150309562683	1.5069689750671387
104	186.71051216125488	response	0	k		102.0	/experiments/knapen_AOT/AOT_stimuli/pictures/1088_fw.png	322.3846139907837	
105	186.74789810180664	picture	0		334	103.0	/experiments/knapen_AOT/AOT_stimuli/pictures/0032_fw.png	322.42199993133545	3.045783042907715
105	189.5189871788025	response	0	k		103.0	/experiments/knapen_AOT/AOT_stimuli/pictures/0032_fw.png	325.1930890083313	
106	189.79368114471436	picture	0		234	104.0	/experiments/knapen_AOT/AOT_stimuli/pictures/1212_fw.png	325.46778297424316	1.9750590324401855
106	191.73567914962769	response	0	k		104.0	/experiments/knapen_AOT/AOT_stimuli/pictures/1212_fw.png	327.4097809791565	
107	191.76874017715454	picture	0		174	105.0	/experiments/knapen_AOT/AOT_stimuli/pictures/0481_fw.png	327.44284200668335	1.4833190441131592
107	193.20381712913513	response	0	k		105.0	/experiments/knapen_AOT/AOT_stimuli/pictures/0481_fw.png	328.87791895866394	
108	193.2520592212677	picture	0		227	106.0	/experiments/knapen_AOT/AOT_stimuli/pictures/1584_fw.png	328.9261610507965	1.9333689212799072
108	195.13567519187927	response	0	k		106.0	/experiments/knapen_AOT/AOT_stimuli/pictures/1584_fw.png	330.8097770214081	
109	195.1854281425476	picture	0		132	107.0	/experiments/knapen_AOT/AOT_stimuli/pictures/0689_fw.png	330.8595299720764	1.159679889678955
109	196.2772672176361	response	0	j		107.0	/experiments/knapen_AOT/AOT_stimuli/pictures/0689_fw.png	331.9513690471649	
110	196.34510803222656	picture	0		176	108.0	/experiments/knapen_AOT/AOT_stimuli/pictures/0810_fw.png	332.01920986175537	1.4932920932769775
110	197.79564213752747	response	0	k		108.0	/experiments/knapen_AOT/AOT_stimuli/pictures/0810_fw.png	333.4697439670563	
111	197.83840012550354	picture	0		99	109.0	/experiments/knapen_AOT/AOT_stimuli/pictures/1890_fw.png	333.51250195503235	0.8471100330352783
111	198.65243411064148	response	0	k		109.0	/experiments/knapen_AOT/AOT_stimuli/pictures/1890_fw.png	334.3265359401703	
112	198.68551015853882	picture	0		283	110.0	/experiments/knapen_AOT/AOT_stimuli/pictures/1467_fw.png	334.3596119880676	2.395781993865967
112	201.03567719459534	response	0	k		110.0	/experiments/knapen_AOT/AOT_stimuli/pictures/1467_fw.png	336.70977902412415	
113	201.08129215240479	picture	0		212	111.0	/experiments/knapen_AOT/AOT_stimuli/pictures/1290_fw.png	336.7553939819336	1.79597806930542
113	202.83570003509521	response	0	k		111.0	/experiments/knapen_AOT/AOT_stimuli/pictures/1290_fw.png	338.509801864624	
114	202.8772702217102	picture	0		134	112.0	/experiments/knapen_AOT/AOT_stimuli/pictures/1695_fw.png	338.551372051239	1.1415908336639404
114	203.98576307296753	response	0	k		112.0	/experiments/knapen_AOT/AOT_stimuli/pictures/1695_fw.png	339.65986490249634	
115	204.01886105537415	picture	0		102	113.0	/experiments/knapen_AOT/AOT_stimuli/pictures/1141_fw.png	339.69296288490295	0.8834719657897949
115	204.86079502105713	response	0	j		113.0	/experiments/knapen_AOT/AOT_stimuli/pictures/1141_fw.png	340.53489685058594	
116	204.90233302116394	picture	0		89	114.0	/experiments/knapen_AOT/AOT_stimuli/pictures/1012_fw.png	340.57643485069275	0.7832260131835938
116	205.63568210601807	response	0	j		114.0	/experiments/knapen_AOT/AOT_stimuli/pictures/1012_fw.png	341.3097839355469	
117	205.68555903434753	picture	0		149	115.0	/experiments/knapen_AOT/AOT_stimuli/pictures/0638_fw.png	341.35966086387634	1.2667369842529297
117	206.91901421546936	response	0	k		115.0	/experiments/knapen_AOT/AOT_stimuli/pictures/0638_fw.png	342.59311604499817	
118	206.95229601860046	picture	0		112	116.0	/experiments/knapen_AOT/AOT_stimuli/pictures/2151_fw.png	342.6263978481293	0.9666440486907959
118	207.87743401527405	response	0	j		116.0	/experiments/knapen_AOT/AOT_stimuli/pictures/2151_fw.png	343.55153584480286	
119	207.91894006729126	picture	0		151	117.0	/experiments/knapen_AOT/AOT_stimuli/pictures/1861_fw.png	343.59304189682007	1.2874250411987305
119	209.1690800189972	response	0	k		117.0	/experiments/knapen_AOT/AOT_stimuli/pictures/1861_fw.png	344.843181848526	
120	209.20636510849	picture	0		91	118.0	/experiments/knapen_AOT/AOT_stimuli/pictures/0092_fw.png	344.8804669380188	0.7847049236297607
120	209.95245909690857	response	0	j		118.0	/experiments/knapen_AOT/AOT_stimuli/pictures/0092_fw.png	345.6265609264374	
121	209.99107003211975	picture	0		103	119.0	/experiments/knapen_AOT/AOT_stimuli/pictures/1385_fw.png	345.66517186164856	0.9112870693206787
121	210.84408402442932	response	0	k		119.0	/experiments/knapen_AOT/AOT_stimuli/pictures/1385_fw.png	346.51818585395813	
122	210.90235710144043	picture	0		132	120.0	/experiments/knapen_AOT/AOT_stimuli/pictures/0879_fw.png	346.57645893096924	1.1303789615631104
122	211.99408221244812	response	0	j		120.0	/experiments/knapen_AOT/AOT_stimuli/pictures/0879_fw.png	347.66818404197693	
123	212.03273606300354	picture	0		134	121.0	/experiments/knapen_AOT/AOT_stimuli/pictures/0682_fw.png	347.70683789253235	1.1529171466827393
123	213.14411306381226	response	0	j		121.0	/experiments/knapen_AOT/AOT_stimuli/pictures/0682_fw.png	348.81821489334106	
124	213.18565320968628	picture	0		99	122.0	/experiments/knapen_AOT/AOT_stimuli/pictures/0089_fw.png	348.8597550392151	0.8583459854125977
124	213.99570512771606	response	0	j		122.0	/experiments/knapen_AOT/AOT_stimuli/pictures/0089_fw.png	349.6698069572449	
125	214.04399919509888	picture	0		108	123.0	/experiments/knapen_AOT/AOT_stimuli/pictures/0412_fw.png	349.7181010246277	0.9333679676055908
125	214.93583703041077	response	0	k		123.0	/experiments/knapen_AOT/AOT_stimuli/pictures/0412_fw.png	350.6099388599396	
126	214.97736716270447	picture	0		125	124.0	/experiments/knapen_AOT/AOT_stimuli/pictures/1547_fw.png	350.6514689922333	1.0916650295257568
126	216.0207040309906	response	0	k		124.0	/experiments/knapen_AOT/AOT_stimuli/pictures/1547_fw.png	351.6948058605194	
127	216.06903219223022	picture	0		146	125.0	/experiments/knapen_AOT/AOT_stimuli/pictures/2040_fw.png	351.74313402175903	1.2500247955322266
127	217.27767300605774	response	0	j		125.0	/experiments/knapen_AOT/AOT_stimuli/pictures/2040_fw.png	352.95177483558655	
128	217.31905698776245	picture	0		105	126.0	/experiments/knapen_AOT/AOT_stimuli/pictures/0044_fw.png	352.99315881729126	0.9013221263885498
128	218.18585920333862	response	0	k		126.0	/experiments/knapen_AOT/AOT_stimuli/pictures/0044_fw.png	353.85996103286743	
129	218.220379114151	picture	0		94	127.0	/experiments/knapen_AOT/AOT_stimuli/pictures/1549_fw.png	353.8944809436798	0.8125081062316895
129	218.99421501159668	response	0	j		127.0	/experiments/knapen_AOT/AOT_stimuli/pictures/1549_fw.png	354.6683168411255	
130	219.0328872203827	picture	0		97	128.0	/experiments/knapen_AOT/AOT_stimuli/pictures/1786_fw.png	354.7069890499115	0.8540668487548828
130	219.82931399345398	response	0	j		128.0	/experiments/knapen_AOT/AOT_stimuli/pictures/1786_fw.png	355.5034158229828	
131	219.88695406913757	picture	0		111	129.0	/experiments/knapen_AOT/AOT_stimuli/pictures/1184_fw.png	355.5610558986664	0.951444149017334
131	220.79576921463013	response	0	k		129.0	/experiments/knapen_AOT/AOT_stimuli/pictures/1184_fw.png	356.46987104415894	
132	220.8383982181549	picture	0		496	130.0	/experiments/knapen_AOT/AOT_stimuli/pictures/0926_fw.png	356.5125000476837	4.155852794647217
132	224.9610412120819	response	0	k		130.0	/experiments/knapen_AOT/AOT_stimuli/pictures/0926_fw.png	360.6351430416107	
133	224.99425101280212	picture	0		103	131.0	/experiments/knapen_AOT/AOT_stimuli/pictures/2130_fw.png	360.66835284233093	0.9083750247955322
133	225.84437203407288	response	0	k		131.0	/experiments/knapen_AOT/AOT_stimuli/pictures/2130_fw.png	361.5184738636017	
134	225.90262603759766	picture	0		120	132.0	/experiments/knapen_AOT/AOT_stimuli/pictures/0950_fw.png	361.57672786712646	1.0248689651489258
134	226.89428901672363	response	0	j		132.0	/experiments/knapen_AOT/AOT_stimuli/pictures/0950_fw.png	362.56839084625244	
135	226.92749500274658	picture	0		109	133.0	/experiments/knapen_AOT/AOT_stimuli/pictures/1946_fw.png	362.6015968322754	0.9526200294494629
135	227.82110905647278	response	0	k		133.0	/experiments/knapen_AOT/AOT_stimuli/pictures/1946_fw.png	363.4952108860016	
136	227.88011503219604	picture	0		112	134.0	/experiments/knapen_AOT/AOT_stimuli/pictures/1573_fw.png	363.55421686172485	0.9557681083679199
136	228.80272603034973	response	0	j		134.0	/experiments/knapen_AOT/AOT_stimuli/pictures/1573_fw.png	364.47682785987854	
137	228.83588314056396	picture	0		93	135.0	/experiments/knapen_AOT/AOT_stimuli/pictures/1853_fw.png	364.5099849700928	0.8011429309844971
137	229.59586310386658	response	0	k		135.0	/experiments/knapen_AOT/AOT_stimuli/pictures/1853_fw.png	365.2699649333954	
138	229.63702607154846	picture	0		110	136.0	/experiments/knapen_AOT/AOT_stimuli/pictures/2104_fw.png	365.31112790107727	0.9405560493469238
138	230.5443811416626	response	0	k		136.0	/experiments/knapen_AOT/AOT_stimuli/pictures/2104_fw.png	366.2184829711914	
139	230.57758212089539	picture	0		116	137.0	/experiments/knapen_AOT/AOT_stimuli/pictures/1341_fw.png	366.2516839504242	0.9833199977874756
139	231.5360381603241	response	0	k		137.0	/experiments/knapen_AOT/AOT_stimuli/pictures/1341_fw.png	367.2101399898529	
140	231.56090211868286	picture	0		104	138.0	/experiments/knapen_AOT/AOT_stimuli/pictures/0514_fw.png	367.23500394821167	0.9166810512542725
140	232.41253399848938	response	0	j		138.0	/experiments/knapen_AOT/AOT_stimuli/pictures/0514_fw.png	368.0866358280182	
141	232.47758316993713	picture	0		212	139.0	/experiments/knapen_AOT/AOT_stimuli/pictures/1408_fw.png	368.15168499946594	1.8000340461730957
141	234.23609519004822	response	0	j		139.0	/experiments/knapen_AOT/AOT_stimuli/pictures/1408_fw.png	369.910197019577	
142	234.27761721611023	picture	0		141	140.0	/experiments/knapen_AOT/AOT_stimuli/pictures/1824_fw.png	369.95171904563904	1.2083408832550049
142	235.44441413879395	response	0	j		140.0	/experiments/knapen_AOT/AOT_stimuli/pictures/1824_fw.png	371.11851596832275	
143	235.48595809936523	picture	0		114	141.0	/experiments/knapen_AOT/AOT_stimuli/pictures/1564_fw.png	371.16005992889404	0.9775240421295166
143	236.42109608650208	response	0	k		141.0	/experiments/knapen_AOT/AOT_stimuli/pictures/1564_fw.png	372.0951979160309	
144	236.46348214149475	picture	0		90	142.0	/experiments/knapen_AOT/AOT_stimuli/pictures/1508_fw.png	372.13758397102356	0.789283037185669
144	237.19621205329895	response	0	j		142.0	/experiments/knapen_AOT/AOT_stimuli/pictures/1508_fw.png	372.87031388282776	
145	237.25276517868042	picture	0		117	143.0	/experiments/knapen_AOT/AOT_stimuli/pictures/1754_fw.png	372.92686700820923	1.0024700164794922
145	238.21266412734985	response	0	k		143.0	/experiments/knapen_AOT/AOT_stimuli/pictures/1754_fw.png	373.88676595687866	
146	238.2552351951599	picture	0		103	144.0	/experiments/knapen_AOT/AOT_stimuli/pictures/0995_fw.png	373.9293370246887	0.8818719387054443
146	239.10281014442444	response	0	j		144.0	/experiments/knapen_AOT/AOT_stimuli/pictures/0995_fw.png	374.77691197395325	
147	239.13710713386536	picture	0		102	145.0	/experiments/knapen_AOT/AOT_stimuli/pictures/1164_fw.png	374.81120896339417	0.875006914138794
147	239.97780108451843	response	0	k		145.0	/experiments/knapen_AOT/AOT_stimuli/pictures/1164_fw.png	375.65190291404724	
148	240.01211404800415	picture	0		312	146.0	/experiments/knapen_AOT/AOT_stimuli/pictures/1365_fw.png	375.68621587753296	2.6239731311798096
148	242.59624099731445	response	0	j		146.0	/experiments/knapen_AOT/AOT_stimuli/pictures/1365_fw.png	378.27034282684326	
149	242.63608717918396	picture	0		244	147.0	/experiments/knapen_AOT/AOT_stimuli/pictures/0061_fw.png	378.31018900871277	2.058372974395752
149	244.6612401008606	response	0	j		147.0	/experiments/knapen_AOT/AOT_stimuli/pictures/0061_fw.png	380.3353419303894	
150	244.6944601535797	picture	0		92	148.0	/experiments/knapen_AOT/AOT_stimuli/pictures/2160_fw.png	380.3685619831085	0.7916240692138672
150	245.4529891014099	response	0	j		148.0	/experiments/knapen_AOT/AOT_stimuli/pictures/2160_fw.png	381.1270909309387	
151	245.48608422279358	picture	0		112	149.0	/experiments/knapen_AOT/AOT_stimuli/pictures/1645_fw.png	381.1601860523224	0.9667649269104004
151	246.40451407432556	response	0	k		149.0	/experiments/knapen_AOT/AOT_stimuli/pictures/1645_fw.png	382.07861590385437	
152	246.45284914970398	picture	0		95	150.0	/experiments/knapen_AOT/AOT_stimuli/pictures/0120_fw.png	382.1269509792328	0.8166239261627197
152	247.23623299598694	response	0	k		150.0	/experiments/knapen_AOT/AOT_stimuli/pictures/0120_fw.png	382.91033482551575	
153	247.2694730758667	picture	0		95	151.0	/experiments/knapen_AOT/AOT_stimuli/pictures/1887_fw.png	382.9435749053955	0.8191139698028564
153	248.05294609069824	response	0	j		151.0	/experiments/knapen_AOT/AOT_stimuli/pictures/1887_fw.png	383.72704792022705	
154	248.08858704566956	picture	0		90	152.0	/experiments/knapen_AOT/AOT_stimuli/pictures/1011_fw.png	383.76268887519836	0.7726349830627441
154	248.82150506973267	response	0	j		152.0	/experiments/knapen_AOT/AOT_stimuli/pictures/1011_fw.png	384.4956068992615	
155	248.8612220287323	picture	0		252	153.0	/experiments/knapen_AOT/AOT_stimuli/pictures/0716_fw.png	384.5353238582611	2.125014066696167
155	250.95307612419128	response	0	k		153.0	/experiments/knapen_AOT/AOT_stimuli/pictures/0716_fw.png	386.6271779537201	
156	250.98623609542847	picture	0		182	154.0	/experiments/knapen_AOT/AOT_stimuli/pictures/1299_fw.png	386.6603379249573	1.5499489307403564
156	252.49466013908386	response	0	k		154.0	/experiments/knapen_AOT/AOT_stimuli/pictures/1299_fw.png	388.16876196861267	
157	252.53618502616882	picture	0		244	155.0	/experiments/knapen_AOT/AOT_stimuli/pictures/1251_fw.png	388.21028685569763	2.066676139831543
157	254.56134915351868	response	0	j		155.0	/experiments/knapen_AOT/AOT_stimuli/pictures/1251_fw.png	390.2354509830475	
158	254.60286116600037	picture	0		317	156.0	/experiments/knapen_AOT/AOT_stimuli/pictures/0210_fw.png	390.2769629955292	2.675045967102051
158	257.2364180088043	response	0	j		156.0	/experiments/knapen_AOT/AOT_stimuli/pictures/0210_fw.png	392.91051983833313	
159	257.2779071331024	picture	0		103	157.0	/experiments/knapen_AOT/AOT_stimuli/pictures/1752_fw.png	392.9520089626312	0.8801720142364502
159	258.1281771659851	response	0	k		157.0	/experiments/knapen_AOT/AOT_stimuli/pictures/1752_fw.png	393.8022789955139	
160	258.15807914733887	picture	0		94	158.0	/experiments/knapen_AOT/AOT_stimuli/pictures/1303_fw.png	393.8321809768677	0.8125958442687988
160	258.93651509284973	response	0	k		158.0	/experiments/knapen_AOT/AOT_stimuli/pictures/1303_fw.png	394.61061692237854	
161	258.97067499160767	picture	0		133	159.0	/experiments/knapen_AOT/AOT_stimuli/pictures/0887_fw.png	394.6447768211365	1.1322510242462158
161	260.0697681903839	response	0	k		159.0	/experiments/knapen_AOT/AOT_stimuli/pictures/0887_fw.png	395.7438700199127	
162	260.1029260158539	picture	0		107	160.0	/experiments/knapen_AOT/AOT_stimuli/pictures/0298_fw.png	395.7770278453827	0.916680097579956
162	260.9866201877594	response	0	k		160.0	/experiments/knapen_AOT/AOT_stimuli/pictures/0298_fw.png	396.6607220172882	
163	261.01960611343384	picture	0		192	161.0	/experiments/knapen_AOT/AOT_stimuli/pictures/1087_fw.png	396.69370794296265	1.6833698749542236
163	262.60483717918396	response	0	k		161.0	/experiments/knapen_AOT/AOT_stimuli/pictures/1087_fw.png	398.27893900871277	
164	262.70297598838806	picture	0		162	162.0	/experiments/knapen_AOT/AOT_stimuli/pictures/0441_fw.png	398.37707781791687	1.3927311897277832
164	264.0448410511017	response	0	j		162.0	/experiments/knapen_AOT/AOT_stimuli/pictures/0441_fw.png	399.7189428806305	
165	264.09570717811584	picture	0		171	163.0	/experiments/knapen_AOT/AOT_stimuli/pictures/0465_fw.png	399.76980900764465	1.4489898681640625
165	265.51164507865906	response	0	j		163.0	/experiments/knapen_AOT/AOT_stimuli/pictures/0465_fw.png	401.18574690818787	
166	265.5446970462799	picture	0		92	164.0	/experiments/knapen_AOT/AOT_stimuli/pictures/0665_fw.png	401.2187988758087	0.8499951362609863
166	266.30316615104675	response	0	j		164.0	/experiments/knapen_AOT/AOT_stimuli/pictures/0665_fw.png	401.97726798057556	
167	266.3946921825409	picture	0		103	165.0	/experiments/knapen_AOT/AOT_stimuli/pictures/1661_fw.png	402.0687940120697	0.8833370208740234
167	267.24486017227173	response	0	k		165.0	/experiments/knapen_AOT/AOT_stimuli/pictures/1661_fw.png	402.91896200180054	
168	267.2780292034149	picture	0		109	166.0	/experiments/knapen_AOT/AOT_stimuli/pictures/1568_fw.png	402.9521310329437	0.9417338371276855
168	268.17816519737244	response	0	k		166.0	/experiments/knapen_AOT/AOT_stimuli/pictures/1568_fw.png	403.85226702690125	
169	268.2197630405426	picture	0		109	167.0	/experiments/knapen_AOT/AOT_stimuli/pictures/1074_fw.png	403.8938648700714	0.9384191036224365
169	269.1199150085449	response	0	j		167.0	/experiments/knapen_AOT/AOT_stimuli/pictures/1074_fw.png	404.79401683807373	
170	269.15818214416504	picture	0		99	168.0	/experiments/knapen_AOT/AOT_stimuli/pictures/1333_fw.png	404.83228397369385	0.8615758419036865
170	269.978187084198	response	0	k		168.0	/experiments/knapen_AOT/AOT_stimuli/pictures/1333_fw.png	405.6522889137268	
171	270.0197579860687	picture	0		146	169.0	/experiments/knapen_AOT/AOT_stimuli/pictures/0387_fw.png	405.69385981559753	1.2426440715789795
171	271.2213761806488	response	0	j		169.0	/experiments/knapen_AOT/AOT_stimuli/pictures/0387_fw.png	406.8954780101776	
172	271.2624020576477	picture	0		175	170.0	/experiments/knapen_AOT/AOT_stimuli/pictures/1342_fw.png	406.9365038871765	1.4861149787902832
172	272.71168303489685	response	0	k		170.0	/experiments/knapen_AOT/AOT_stimuli/pictures/1342_fw.png	408.38578486442566	
173	272.748517036438	picture	0		120	171.0	/experiments/knapen_AOT/AOT_stimuli/pictures/0450_fw.png	408.4226188659668	1.0212571620941162
173	273.7367401123047	response	0	j		171.0	/experiments/knapen_AOT/AOT_stimuli/pictures/0450_fw.png	409.4108419418335	
174	273.7697741985321	picture	0		103	172.0	/experiments/knapen_AOT/AOT_stimuli/pictures/0703_fw.png	409.4438760280609	0.9500529766082764
174	274.6136112213135	response	0	j		172.0	/experiments/knapen_AOT/AOT_stimuli/pictures/0703_fw.png	410.2877130508423	
175	274.7198271751404	picture	0		100	173.0	/experiments/knapen_AOT/AOT_stimuli/pictures/0610_fw.png	410.3939290046692	0.8749940395355225
175	275.54492807388306	response	0	j		173.0	/experiments/knapen_AOT/AOT_stimuli/pictures/0610_fw.png	411.21902990341187	
176	275.5948212146759	picture	0		167	174.0	/experiments/knapen_AOT/AOT_stimuli/pictures/1877_fw.png	411.2689230442047	1.425008773803711
176	276.97831416130066	response	0	j		174.0	/experiments/knapen_AOT/AOT_stimuli/pictures/1877_fw.png	412.65241599082947	
177	277.0198299884796	picture	0		136	175.0	/experiments/knapen_AOT/AOT_stimuli/pictures/0776_fw.png	412.6939318180084	1.1667470932006836
177	278.14497900009155	response	0	k		175.0	/experiments/knapen_AOT/AOT_stimuli/pictures/0776_fw.png	413.81908082962036	
178	278.1865770816803	picture	0		115	176.0	/experiments/knapen_AOT/AOT_stimuli/pictures/0518_fw.png	413.8606789112091	1.0001060962677002
178	279.1367061138153	response	0	k		176.0	/experiments/knapen_AOT/AOT_stimuli/pictures/0518_fw.png	414.8108079433441	
179	279.186683177948	picture	0		107	177.0	/experiments/knapen_AOT/AOT_stimuli/pictures/0375_fw.png	414.8607850074768	0.9369549751281738
179	280.06999707221985	response	0	k		177.0	/experiments/knapen_AOT/AOT_stimuli/pictures/0375_fw.png	415.74409890174866	
180	280.1236381530762	picture	0		155	178.0	/experiments/knapen_AOT/AOT_stimuli/pictures/0439_fw.png	415.797739982605	1.3212759494781494
180	281.39666199684143	response	0	k		178.0	/experiments/knapen_AOT/AOT_stimuli/pictures/0439_fw.png	417.07076382637024	
181	281.4449141025543	picture	0		146	179.0	/experiments/knapen_AOT/AOT_stimuli/pictures/1284_fw.png	417.11901593208313	1.250025987625122
181	282.65351700782776	response	0	k		179.0	/experiments/knapen_AOT/AOT_stimuli/pictures/1284_fw.png	418.32761883735657	
182	282.69494009017944	picture	0		493	180.0	/experiments/knapen_AOT/AOT_stimuli/pictures/1413_fw.png	418.36904191970825	4.141694068908691
182	286.7951271533966	response	0	k		180.0	/experiments/knapen_AOT/AOT_stimuli/pictures/1413_fw.png	422.4692289829254	
183	286.83663415908813	picture	0		153	181.0	/experiments/knapen_AOT/AOT_stimuli/pictures/1380_fw.png	422.51073598861694	1.308349847793579
183	288.1034450531006	response	0	j		181.0	/experiments/knapen_AOT/AOT_stimuli/pictures/1380_fw.png	423.7775468826294	
184	288.1449840068817	picture	0		91	182.0	/experiments/knapen_AOT/AOT_stimuli/pictures/0500_fw.png	423.8190858364105	0.8333392143249512
184	288.89512610435486	response	0	k		182.0	/experiments/knapen_AOT/AOT_stimuli/pictures/0500_fw.png	424.56922793388367	
185	288.97832322120667	picture	0		173	183.0	/experiments/knapen_AOT/AOT_stimuli/pictures/0646_fw.png	424.6524250507355	1.471679925918579
185	290.40531611442566	response	0	j		183.0	/experiments/knapen_AOT/AOT_stimuli/pictures/0646_fw.png	426.07941794395447	
186	290.45000314712524	picture	0		90	184.0	/experiments/knapen_AOT/AOT_stimuli/pictures/1544_fw.png	426.12410497665405	0.8116638660430908
186	291.2132592201233	response	0	k		184.0	/experiments/knapen_AOT/AOT_stimuli/pictures/1544_fw.png	426.8873610496521	
187	291.26166701316833	picture	0		103	185.0	/experiments/knapen_AOT/AOT_stimuli/pictures/1551_fw.png	426.93576884269714	0.8833141326904297
187	292.1119821071625	response	0	j		185.0	/experiments/knapen_AOT/AOT_stimuli/pictures/1551_fw.png	427.7860839366913	
188	292.14498114585876	picture	0		88	186.0	/experiments/knapen_AOT/AOT_stimuli/pictures/1634_fw.png	427.8190829753876	0.7634289264678955
188	292.87013721466064	response	0	k		186.0	/experiments/knapen_AOT/AOT_stimuli/pictures/1634_fw.png	428.54423904418945	
189	292.90841007232666	picture	0		133	187.0	/experiments/knapen_AOT/AOT_stimuli/pictures/0018_fw.png	428.58251190185547	1.14503812789917
189	294.0051021575928	response	0	j		187.0	/experiments/knapen_AOT/AOT_stimuli/pictures/0018_fw.png	429.6792039871216	
190	294.05344820022583	picture	0		438	188.0	/experiments/knapen_AOT/AOT_stimuli/pictures/1282_fw.png	429.72755002975464	3.675100803375244
190	297.6952910423279	response	0	j		188.0	/experiments/knapen_AOT/AOT_stimuli/pictures/1282_fw.png	433.3693928718567	
191	297.7285490036011	picture	0		117	189.0	/experiments/knapen_AOT/AOT_stimuli/pictures/1019_fw.png	433.4026508331299	1.0000121593475342
191	298.69522619247437	response	0	k		189.0	/experiments/knapen_AOT/AOT_stimuli/pictures/1019_fw.png	434.3693280220032	
192	298.7285611629486	picture	0		109	190.0	/experiments/knapen_AOT/AOT_stimuli/pictures/1100_fw.png	434.4026629924774	0.9368948936462402
192	299.62872314453125	response	0	j		190.0	/experiments/knapen_AOT/AOT_stimuli/pictures/1100_fw.png	435.30282497406006	
193	299.66545605659485	picture	0		129	191.0	/experiments/knapen_AOT/AOT_stimuli/pictures/0975_fw.png	435.33955788612366	1.096384048461914
193	300.7287971973419	response	0	j		191.0	/experiments/knapen_AOT/AOT_stimuli/pictures/0975_fw.png	436.4028990268707	
194	300.76184010505676	picture	0		125	192.0	/experiments/knapen_AOT/AOT_stimuli/pictures/0755_fw.png	436.43594193458557	1.0771310329437256
194	301.7952561378479	response	0	k		192.0	/experiments/knapen_AOT/AOT_stimuli/pictures/0755_fw.png	437.4693579673767	
195	301.8389711380005	picture	0		189	193.0	/experiments/knapen_AOT/AOT_stimuli/pictures/1106_fw.png	437.5130729675293	1.6228599548339844
195	303.39694118499756	response	0	k		193.0	/experiments/knapen_AOT/AOT_stimuli/pictures/1106_fw.png	439.07104301452637	
196	303.4618310928345	picture	0		186	194.0	/experiments/knapen_AOT/AOT_stimuli/pictures/1226_fw.png	439.1359329223633	1.5785439014434814
196	304.9968750476837	response	0	j		194.0	/experiments/knapen_AOT/AOT_stimuli/pictures/1226_fw.png	440.6709768772125	
197	305.04037499427795	picture	0		100	195.0	/experiments/knapen_AOT/AOT_stimuli/pictures/0276_fw.png	440.71447682380676	0.8548932075500488
197	305.8620011806488	response	0	k		195.0	/experiments/knapen_AOT/AOT_stimuli/pictures/0276_fw.png	441.5361030101776	
198	305.895268201828	picture	0		152	196.0	/experiments/knapen_AOT/AOT_stimuli/pictures/0723_fw.png	441.5693700313568	1.2980749607086182
198	307.1538190841675	response	0	j		196.0	/experiments/knapen_AOT/AOT_stimuli/pictures/0723_fw.png	442.8279209136963	
199	307.1933431625366	picture	0		232	197.0	/experiments/knapen_AOT/AOT_stimuli/pictures/1378_fw.png	442.86744499206543	1.9685540199279785
199	309.12044620513916	response	0	j		197.0	/experiments/knapen_AOT/AOT_stimuli/pictures/1378_fw.png	444.79454803466797	
200	309.1618971824646	picture	0		272	198.0	/experiments/knapen_AOT/AOT_stimuli/pictures/1047_fw.png	444.8359990119934	2.3167269229888916
200	311.4136211872101	response	0	k		198.0	/experiments/knapen_AOT/AOT_stimuli/pictures/1047_fw.png	447.0877230167389	
201	311.4786241054535	picture	0		93	199.0	/experiments/knapen_AOT/AOT_stimuli/pictures/1968_fw.png	447.1527259349823	0.8049390316009521
201	312.2454171180725	response	0	j		199.0	/experiments/knapen_AOT/AOT_stimuli/pictures/1968_fw.png	447.9195189476013	
202	312.28356313705444	picture	0		104	200.0	/experiments/knapen_AOT/AOT_stimuli/pictures/0129_fw.png	447.95766496658325	0.8958349227905273
202	313.14554715156555	response	0	k		200.0	/experiments/knapen_AOT/AOT_stimuli/pictures/0129_fw.png	448.81964898109436	
203	313.17939805984497	picture	0		333	201.0	/experiments/knapen_AOT/AOT_stimuli/pictures/1858_fw.png	448.8534998893738	2.8077239990234375
203	315.94553112983704	response	0	j		201.0	/experiments/knapen_AOT/AOT_stimuli/pictures/1858_fw.png	451.61963295936584	
204	315.9871220588684	picture	0		142	202.0	/experiments/knapen_AOT/AOT_stimuli/pictures/0585_fw.png	451.6612238883972	1.2131519317626953
204	317.16220116615295	response	0	k		202.0	/experiments/knapen_AOT/AOT_stimuli/pictures/0585_fw.png	452.83630299568176	
205	317.2002739906311	picture	0		97	203.0	/experiments/knapen_AOT/AOT_stimuli/pictures/1204_fw.png	452.8743758201599	0.8450970649719238
205	317.99709701538086	response	0	j		203.0	/experiments/knapen_AOT/AOT_stimuli/pictures/1204_fw.png	453.67119884490967	
206	318.045371055603	picture	0		112	204.0	/experiments/knapen_AOT/AOT_stimuli/pictures/0749_fw.png	453.71947288513184	0.9583230018615723
206	318.97060918807983	response	0	k		204.0	/experiments/knapen_AOT/AOT_stimuli/pictures/0749_fw.png	454.64471101760864	
207	319.0036940574646	picture	0		105	205.0	/experiments/knapen_AOT/AOT_stimuli/pictures/1526_fw.png	454.6777958869934	0.9083261489868164
207	319.8706090450287	response	0	k		205.0	/experiments/knapen_AOT/AOT_stimuli/pictures/1526_fw.png	455.5447108745575	
208	319.9120202064514	picture	0		99	206.0	/experiments/knapen_AOT/AOT_stimuli/pictures/1293_fw.png	455.5861220359802	0.850775957107544
208	320.7289230823517	response	0	j		206.0	/experiments/knapen_AOT/AOT_stimuli/pictures/1293_fw.png	456.4030249118805	
209	320.76279616355896	picture	0		319	207.0	/experiments/knapen_AOT/AOT_stimuli/pictures/1536_fw.png	456.43689799308777	2.69096302986145
209	323.4054570198059	response	0	j		207.0	/experiments/knapen_AOT/AOT_stimuli/pictures/1536_fw.png	459.0795588493347	
210	323.4537591934204	picture	0		123	208.0	/experiments/knapen_AOT/AOT_stimuli/pictures/1599_fw.png	459.1278610229492	1.0666699409484863
210	324.4713342189789	response	0	k		208.0	/experiments/knapen_AOT/AOT_stimuli/pictures/1599_fw.png	460.1454360485077	
211	324.5204291343689	picture	0		134	209.0	/experiments/knapen_AOT/AOT_stimuli/pictures/1139_fw.png	460.1945309638977	1.1451189517974854
211	325.6222321987152	response	0	j		209.0	/experiments/knapen_AOT/AOT_stimuli/pictures/1139_fw.png	461.296334028244	
212	325.6655480861664	picture	0		124	210.0	/experiments/knapen_AOT/AOT_stimuli/pictures/0713_fw.png	461.3396499156952	1.055553913116455
212	326.68728613853455	response	0	k		210.0	/experiments/knapen_AOT/AOT_stimuli/pictures/0713_fw.png	462.36138796806335	
213	326.72110199928284	picture	0		91	211.0	/experiments/knapen_AOT/AOT_stimuli/pictures/0149_fw.png	462.39520382881165	0.7911431789398193
213	327.4712390899658	response	0	k		211.0	/experiments/knapen_AOT/AOT_stimuli/pictures/0149_fw.png	463.14534091949463	
214	327.51224517822266	picture	0		139	212.0	/experiments/knapen_AOT/AOT_stimuli/pictures/2155_fw.png	463.18634700775146	1.2019309997558594
214	328.6622841358185	response	0	k		212.0	/experiments/knapen_AOT/AOT_stimuli/pictures/2155_fw.png	464.3363859653473	
215	328.7141761779785	picture	0		115	213.0	/experiments/knapen_AOT/AOT_stimuli/pictures/0929_fw.png	464.3882780075073	0.9862220287322998
215	329.66245102882385	response	0	k		213.0	/experiments/knapen_AOT/AOT_stimuli/pictures/0929_fw.png	465.33655285835266	
216	329.7003982067108	picture	0		112	214.0	/experiments/knapen_AOT/AOT_stimuli/pictures/1148_fw.png	465.3745000362396	0.9651679992675781
216	330.62226700782776	response	0	k		214.0	/experiments/knapen_AOT/AOT_stimuli/pictures/1148_fw.png	466.29636883735657	
217	330.6655662059784	picture	0		172	215.0	/experiments/knapen_AOT/AOT_stimuli/pictures/1186_fw.png	466.3396680355072	1.4583427906036377
217	332.08747005462646	response	0	k		215.0	/experiments/knapen_AOT/AOT_stimuli/pictures/1186_fw.png	467.7615718841553	
218	332.12390899658203	picture	0		122	216.0	/experiments/knapen_AOT/AOT_stimuli/pictures/0098_fw.png	467.79801082611084	1.041729211807251
218	333.12903904914856	response	0	k		216.0	/experiments/knapen_AOT/AOT_stimuli/pictures/0098_fw.png	468.80314087867737	
219	333.1656382083893	picture	0		145	217.0	/experiments/knapen_AOT/AOT_stimuli/pictures/0883_fw.png	468.8397400379181	1.2221930027008057
219	334.36247301101685	response	0	k		217.0	/experiments/knapen_AOT/AOT_stimuli/pictures/0883_fw.png	470.03657484054565	
220	334.3878312110901	picture	0		325	218.0	/experiments/knapen_AOT/AOT_stimuli/pictures/1704_fw.png	470.0619330406189	2.741091012954712
220	337.08758020401	response	0	k		218.0	/experiments/knapen_AOT/AOT_stimuli/pictures/1704_fw.png	472.7616820335388	
221	337.1289222240448	picture	0		311	219.0	/experiments/knapen_AOT/AOT_stimuli/pictures/0597_fw.png	472.8030240535736	2.6339337825775146
221	339.71257305145264	response	0	k		219.0	/experiments/knapen_AOT/AOT_stimuli/pictures/0597_fw.png	475.38667488098145	
222	339.7628560066223	picture	0		120	220.0	/experiments/knapen_AOT/AOT_stimuli/pictures/0445_fw.png	475.4369578361511	1.0278069972991943
222	340.75412702560425	response	0	k		220.0	/experiments/knapen_AOT/AOT_stimuli/pictures/0445_fw.png	476.42822885513306	
223	340.7906630039215	picture	0		102	221.0	/experiments/knapen_AOT/AOT_stimuli/pictures/1781_fw.png	476.4647648334503	0.8750021457672119
223	341.6224031448364	response	0	k		221.0	/experiments/knapen_AOT/AOT_stimuli/pictures/1781_fw.png	477.29650497436523	
224	341.6656651496887	picture	0		80	222.0	/experiments/knapen_AOT/AOT_stimuli/pictures/0062_fw.png	477.33976697921753	0.6883199214935303
224	342.3209140300751	response	0	j		222.0	/experiments/knapen_AOT/AOT_stimuli/pictures/0062_fw.png	477.9950158596039	
225	342.35398507118225	picture	0		157	223.0	/experiments/knapen_AOT/AOT_stimuli/pictures/1441_fw.png	478.02808690071106	1.3500111103057861
225	343.6541211605072	response	0	k		223.0	/experiments/knapen_AOT/AOT_stimuli/pictures/1441_fw.png	479.328222990036	
226	343.70399618148804	picture	0		295	224.0	/experiments/knapen_AOT/AOT_stimuli/pictures/2120_fw.png	479.37809801101685	2.4894869327545166
226	346.1542069911957	response	0	k		224.0	/experiments/knapen_AOT/AOT_stimuli/pictures/2120_fw.png	481.8283088207245	
227	346.19348311424255	picture	0		198	225.0	/experiments/knapen_AOT/AOT_stimuli/pictures/1893_fw.png	481.86758494377136	1.6874980926513672
227	347.8374960422516	response	0	j		225.0	/experiments/knapen_AOT/AOT_stimuli/pictures/1893_fw.png	483.5115978717804	
228	347.8809812068939	picture	0		220	226.0	/experiments/knapen_AOT/AOT_stimuli/pictures/1432_fw.png	483.55508303642273	1.8611719608306885
228	349.7042410373688	response	0	j		226.0	/experiments/knapen_AOT/AOT_stimuli/pictures/1432_fw.png	485.3783428668976	
229	349.7421531677246	picture	0		106	227.0	/experiments/knapen_AOT/AOT_stimuli/pictures/0382_fw.png	485.4162549972534	0.9202919006347656
229	350.61433506011963	response	0	j		227.0	/experiments/knapen_AOT/AOT_stimuli/pictures/0382_fw.png	486.28843688964844	
230	350.6624450683594	picture	0		416	228.0	/experiments/knapen_AOT/AOT_stimuli/pictures/0052_fw.png	486.3365468978882	3.5000340938568115
230	354.12107706069946	response	0	k		228.0	/experiments/knapen_AOT/AOT_stimuli/pictures/0052_fw.png	489.79517889022827	
231	354.1624791622162	picture	0		172	229.0	/experiments/knapen_AOT/AOT_stimuli/pictures/1563_fw.png	489.836580991745	1.4834239482879639
231	355.58781719207764	response	0	k		229.0	/experiments/knapen_AOT/AOT_stimuli/pictures/1563_fw.png	491.26191902160645	
232	355.64590311050415	picture	0		113	230.0	/experiments/knapen_AOT/AOT_stimuli/pictures/0397_fw.png	491.32000494003296	0.9851269721984863
232	356.57929515838623	response	0	k		230.0	/experiments/knapen_AOT/AOT_stimuli/pictures/0397_fw.png	492.25339698791504	
233	356.63103008270264	picture	0		268	231.0	/experiments/knapen_AOT/AOT_stimuli/pictures/0552_fw.png	492.30513191223145	2.2732579708099365
233	358.8543891906738	response	0	k		231.0	/experiments/knapen_AOT/AOT_stimuli/pictures/0552_fw.png	494.52849102020264	
234	358.9042880535126	picture	0		104	232.0	/experiments/knapen_AOT/AOT_stimuli/pictures/0762_fw.png	494.5783898830414	0.899940013885498
234	359.7631530761719	response	0	k		232.0	/experiments/knapen_AOT/AOT_stimuli/pictures/0762_fw.png	495.4372549057007	
235	359.80422806739807	picture	0		149	233.0	/experiments/knapen_AOT/AOT_stimuli/pictures/2171_fw.png	495.4783298969269	1.2749791145324707
235	361.0376920700073	response	0	k		233.0	/experiments/knapen_AOT/AOT_stimuli/pictures/2171_fw.png	496.71179389953613	
236	361.07920718193054	picture	0		108	234.0	/experiments/knapen_AOT/AOT_stimuli/pictures/0530_fw.png	496.75330901145935	0.9338409900665283
236	361.9714961051941	response	0	j		234.0	/experiments/knapen_AOT/AOT_stimuli/pictures/0530_fw.png	497.6455979347229	
237	362.01304817199707	picture	0		364	235.0	/experiments/knapen_AOT/AOT_stimuli/pictures/1301_fw.png	497.6871500015259	3.0625429153442383
237	365.03772807121277	response	0	j		235.0	/experiments/knapen_AOT/AOT_stimuli/pictures/1301_fw.png	500.7118299007416	
238	365.0755910873413	picture	0		334	236.0	/experiments/knapen_AOT/AOT_stimuli/pictures/1513_fw.png	500.7496929168701	2.8370659351348877
238	367.85449504852295	response	0	k		236.0	/experiments/knapen_AOT/AOT_stimuli/pictures/1513_fw.png	503.52859687805176	
239	367.9126570224762	picture	0		613	237.0	/experiments/knapen_AOT/AOT_stimuli/pictures/1820_fw.png	503.586758852005	5.211574077606201
239	373.0061740875244	response	0	k		237.0	/experiments/knapen_AOT/AOT_stimuli/pictures/1820_fw.png	508.6802759170532	
240	373.1242311000824	picture	0		100	238.0	/experiments/knapen_AOT/AOT_stimuli/pictures/0571_fw.png	508.7983329296112	0.9027450084686279
240	373.94630312919617	response	0	k		238.0	/experiments/knapen_AOT/AOT_stimuli/pictures/0571_fw.png	509.620404958725	
241	374.026976108551	picture	0		128	239.0	/experiments/knapen_AOT/AOT_stimuli/pictures/1292_fw.png	509.70107793807983	1.1024389266967773
241	375.08799505233765	response	0	j		239.0	/experiments/knapen_AOT/AOT_stimuli/pictures/1292_fw.png	510.76209688186646	
242	375.1294150352478	picture	0		273	240.0	/experiments/knapen_AOT/AOT_stimuli/pictures/1424_fw.png	510.8035168647766	2.3003811836242676
242	377.38984203338623	response	0	j		240.0	/experiments/knapen_AOT/AOT_stimuli/pictures/1424_fw.png	513.063943862915	
243	377.42979621887207	picture	0		84	241.0	/experiments/knapen_AOT/AOT_stimuli/pictures/0768_fw.png	513.1038980484009	0.7330248355865479
243	378.1213049888611	response	0	k		241.0	/experiments/knapen_AOT/AOT_stimuli/pictures/0768_fw.png	513.7954068183899	
244	378.1628210544586	picture	0		139	242.0	/experiments/knapen_AOT/AOT_stimuli/pictures/0821_fw.png	513.8369228839874	1.1916379928588867
244	379.31300115585327	response	0	k		242.0	/experiments/knapen_AOT/AOT_stimuli/pictures/0821_fw.png	514.9871029853821	
245	379.3544590473175	picture	0		130	243.0	/experiments/knapen_AOT/AOT_stimuli/pictures/0666_fw.png	515.0285608768463	1.1448261737823486
245	380.42284417152405	response	0	k		243.0	/experiments/knapen_AOT/AOT_stimuli/pictures/0666_fw.png	516.0969460010529	
246	380.49928522109985	picture	0		402	244.0	/experiments/knapen_AOT/AOT_stimuli/pictures/0459_fw.png	516.1733870506287	3.421938896179199
246	383.86312913894653	response	0	k		244.0	/experiments/knapen_AOT/AOT_stimuli/pictures/0459_fw.png	519.5372309684753	
247	383.92122411727905	picture	0		98	245.0	/experiments/knapen_AOT/AOT_stimuli/pictures/0805_fw.png	519.5953259468079	0.8499839305877686
247	384.7297201156616	response	0	k		245.0	/experiments/knapen_AOT/AOT_stimuli/pictures/0805_fw.png	520.4038219451904	
248	384.7712080478668	picture	0		163	246.0	/experiments/knapen_AOT/AOT_stimuli/pictures/0208_fw.png	520.4453098773956	1.3878450393676758
248	386.121502161026	response	0	k		246.0	/experiments/knapen_AOT/AOT_stimuli/pictures/0208_fw.png	521.7956039905548	
249	386.1590530872345	picture	0		111	247.0	/experiments/knapen_AOT/AOT_stimuli/pictures/1709_fw.png	521.8331549167633	0.9538629055023193
249	387.07149720191956	response	0	k		247.0	/experiments/knapen_AOT/AOT_stimuli/pictures/1709_fw.png	522.7455990314484	
250	387.1129159927368	picture	0		128	248.0	/experiments/knapen_AOT/AOT_stimuli/pictures/2107_fw.png	522.7870178222656	1.1711351871490479
250	388.17151713371277	response	0	j		248.0	/experiments/knapen_AOT/AOT_stimuli/pictures/2107_fw.png	523.8456189632416	
251	388.28405117988586	picture	0		100	249.0	/experiments/knapen_AOT/AOT_stimuli/pictures/1180_fw.png	523.9581530094147	0.8705530166625977
251	389.113144159317	response	0	j		249.0	/experiments/knapen_AOT/AOT_stimuli/pictures/1180_fw.png	524.7872459888458	
252	389.15460419654846	picture	0		137	250.0	/experiments/knapen_AOT/AOT_stimuli/pictures/1442_fw.png	524.8287060260773	1.1749918460845947
252	390.2881381511688	response	0	k		250.0	/experiments/knapen_AOT/AOT_stimuli/pictures/1442_fw.png	525.9622399806976	
253	390.32959604263306	picture	0		157	251.0	/experiments/knapen_AOT/AOT_stimuli/pictures/1615_fw.png	526.0036978721619	1.3502881526947021
253	391.62310218811035	response	0	j		251.0	/experiments/knapen_AOT/AOT_stimuli/pictures/1615_fw.png	527.2972040176392	
254	391.67988419532776	picture	0		84	252.0	/experiments/knapen_AOT/AOT_stimuli/pictures/1071_fw.png	527.3539860248566	0.7414088249206543
254	392.3715350627899	response	0	k		252.0	/experiments/knapen_AOT/AOT_stimuli/pictures/1071_fw.png	528.0456368923187	
255	392.4212930202484	picture	0		163	253.0	/experiments/knapen_AOT/AOT_stimuli/pictures/1402_fw.png	528.0953948497772	1.391690969467163
255	393.77155017852783	response	0	k		253.0	/experiments/knapen_AOT/AOT_stimuli/pictures/1402_fw.png	529.4456520080566	
256	393.8129839897156	picture	0		94	254.0	/experiments/knapen_AOT/AOT_stimuli/pictures/0477_fw.png	529.4870858192444	0.816702127456665
256	394.58815121650696	response	0	k		254.0	/experiments/knapen_AOT/AOT_stimuli/pictures/0477_fw.png	530.2622530460358	
257	394.62968611717224	picture	0		92	255.0	/experiments/knapen_AOT/AOT_stimuli/pictures/1965_fw.png	530.303787946701	0.8083040714263916
257	395.3883821964264	response	0	k		255.0	/experiments/knapen_AOT/AOT_stimuli/pictures/1965_fw.png	531.0624840259552	
258	395.43799018859863	picture	0		403	256.0	/experiments/knapen_AOT/AOT_stimuli/pictures/1404_fw.png	531.1120920181274	3.533646821975708
258	398.78826904296875	response	0	k		256.0	/experiments/knapen_AOT/AOT_stimuli/pictures/1404_fw.png	534.4623708724976	
259	398.97163701057434	picture	0		711	257.0	/experiments/knapen_AOT/AOT_stimuli/pictures/0188_fw.png	534.6457388401031	5.958348035812378
259	404.8884611129761	response	0	k		257.0	/experiments/knapen_AOT/AOT_stimuli/pictures/0188_fw.png	540.5625629425049	
260	404.9299850463867	picture	0		112	258.0	/experiments/knapen_AOT/AOT_stimuli/pictures/0586_fw.png	540.6040868759155	0.9666240215301514
260	405.8550000190735	response	0	j		258.0	/experiments/knapen_AOT/AOT_stimuli/pictures/0586_fw.png	541.5291018486023	
261	405.89660906791687	picture	0		129	259.0	/experiments/knapen_AOT/AOT_stimuli/pictures/0966_fw.png	541.5707108974457	1.1028621196746826
261	406.96331119537354	response	0	j		259.0	/experiments/knapen_AOT/AOT_stimuli/pictures/0966_fw.png	542.6374130249023	
262	406.99947118759155	picture	0		109	260.0	/experiments/knapen_AOT/AOT_stimuli/pictures/0722_fw.png	542.6735730171204	0.9470288753509521
262	407.8967571258545	response	0	k		260.0	/experiments/knapen_AOT/AOT_stimuli/pictures/0722_fw.png	543.5708589553833	
263	407.9465000629425	picture	0		106	261.0	/experiments/knapen_AOT/AOT_stimuli/pictures/1210_fw.png	543.6206018924713	0.934913158416748
263	408.8149061203003	response	0	k		261.0	/experiments/knapen_AOT/AOT_stimuli/pictures/1210_fw.png	544.4890079498291	
264	408.88141322135925	picture	0		116	262.0	/experiments/knapen_AOT/AOT_stimuli/pictures/0420_fw.png	544.5555150508881	1.0416858196258545
264	409.83831000328064	response	0	k		262.0	/experiments/knapen_AOT/AOT_stimuli/pictures/0420_fw.png	545.5124118328094	
265	409.9230990409851	picture	0		112	263.0	/experiments/knapen_AOT/AOT_stimuli/pictures/2029_fw.png	545.5972008705139	0.9817590713500977
265	410.8468701839447	response	0	k		263.0	/experiments/knapen_AOT/AOT_stimuli/pictures/2029_fw.png	546.5209720134735	
266	410.9048581123352	picture	0		1017	264.0	/experiments/knapen_AOT/AOT_stimuli/pictures/0607_fw.png	546.578959941864	8.508429050445557
266	419.37196803092957	response	0	k		264.0	/experiments/knapen_AOT/AOT_stimuli/pictures/0607_fw.png	555.0460698604584	
267	419.41328716278076	picture	0		162	265.0	/experiments/knapen_AOT/AOT_stimuli/pictures/0976_fw.png	555.0873889923096	1.3833680152893066
267	420.75519609451294	response	0	k		265.0	/experiments/knapen_AOT/AOT_stimuli/pictures/0976_fw.png	556.4292979240417	
268	420.79665517807007	picture	0		87	266.0	/experiments/knapen_AOT/AOT_stimuli/pictures/1495_fw.png	556.4707570075989	0.959885835647583
268	421.5136480331421	response	0	j		266.0	/experiments/knapen_AOT/AOT_stimuli/pictures/1495_fw.png	557.1877498626709	
269	421.75654101371765	picture	0		84	267.0	/experiments/knapen_AOT/AOT_stimuli/pictures/1488_fw.png	557.4306428432465	0.7153341770172119
269	422.44698214530945	response	0	k		267.0	/experiments/knapen_AOT/AOT_stimuli/pictures/1488_fw.png	558.1210839748383	
270	422.47187519073486	picture	0		296	268.0	/experiments/knapen_AOT/AOT_stimuli/pictures/1023_fw.png	558.1459770202637	2.6110808849334717
270	424.93027114868164	response	0	j		268.0	/experiments/knapen_AOT/AOT_stimuli/pictures/1023_fw.png	560.6043729782104	
271	425.08295607566833	picture	0		92	269.0	/experiments/knapen_AOT/AOT_stimuli/pictures/1937_fw.png	560.7570579051971	0.8554699420928955
271	425.83175802230835	response	0	k		269.0	/experiments/knapen_AOT/AOT_stimuli/pictures/1937_fw.png	561.5058598518372	
272	425.93842601776123	picture	0		97	270.0	/experiments/knapen_AOT/AOT_stimuli/pictures/0147_fw.png	561.61252784729	0.8416440486907959
272	426.73858618736267	response	0	k		270.0	/experiments/knapen_AOT/AOT_stimuli/pictures/0147_fw.png	562.4126880168915	
273	426.780070066452	picture	0		87	271.0	/experiments/knapen_AOT/AOT_stimuli/pictures/1015_fw.png	562.4541718959808	0.7583460807800293
273	427.4971241950989	response	0	k		271.0	/experiments/knapen_AOT/AOT_stimuli/pictures/1015_fw.png	563.1712260246277	
274	427.53841614723206	picture	0		1290	272.0	/experiments/knapen_AOT/AOT_stimuli/pictures/1132_fw.png	563.2125179767609	10.808464050292969
274	438.28047919273376	response	0	k		272.0	/experiments/knapen_AOT/AOT_stimuli/pictures/1132_fw.png	573.9545810222626	
275	438.346880197525	picture	0		110	273.0	/experiments/knapen_AOT/AOT_stimuli/pictures/1458_fw.png	574.0209820270538	0.9500198364257812
275	439.255508184433	response	0	k		273.0	/experiments/knapen_AOT/AOT_stimuli/pictures/1458_fw.png	574.9296100139618	
276	439.2969000339508	picture	0		1066	274.0	/experiments/knapen_AOT/AOT_stimuli/pictures/1020_fw.png	574.9710018634796	9.058576107025146
276	448.17228603363037	response	0	k		274.0	/experiments/knapen_AOT/AOT_stimuli/pictures/1020_fw.png	583.8463878631592	
277	448.35547614097595	picture	0		103	275.0	/experiments/knapen_AOT/AOT_stimuli/pictures/0751_fw.png	584.0295779705048	1.0262629985809326
277	449.19868302345276	response	0	j		275.0	/experiments/knapen_AOT/AOT_stimuli/pictures/0751_fw.png	584.8727848529816	
278	449.3817391395569	picture	0		151	276.0	/experiments/knapen_AOT/AOT_stimuli/pictures/0087_fw.png	585.0558409690857	1.2847559452056885
278	450.6238021850586	response	0	k		276.0	/experiments/knapen_AOT/AOT_stimuli/pictures/0087_fw.png	586.2979040145874	
279	450.6664950847626	picture	0		564	277.0	/experiments/knapen_AOT/AOT_stimuli/pictures/0349_fw.png	586.3405969142914	4.730593919754028
279	455.35571217536926	response	0	k		277.0	/experiments/knapen_AOT/AOT_stimuli/pictures/0349_fw.png	591.0298140048981	
280	455.3970890045166	picture	0		134	278.0	/experiments/knapen_AOT/AOT_stimuli/pictures/0935_fw.png	591.0711908340454	1.1930320262908936
280	456.50570011138916	response	0	j		278.0	/experiments/knapen_AOT/AOT_stimuli/pictures/0935_fw.png	592.179801940918	
281	456.5901210308075	picture	0		97	279.0	/experiments/knapen_AOT/AOT_stimuli/pictures/1270_fw.png	592.2642228603363	0.8403921127319336
281	457.38894605636597	response	0	j		279.0	/experiments/knapen_AOT/AOT_stimuli/pictures/1270_fw.png	593.0630478858948	
282	457.43051314353943	picture	0		148	280.0	/experiments/knapen_AOT/AOT_stimuli/pictures/0941_fw.png	593.1046149730682	1.2832958698272705
282	458.65575909614563	response	0	j		280.0	/experiments/knapen_AOT/AOT_stimuli/pictures/0941_fw.png	594.3298609256744	
283	458.7138090133667	picture	0		127	281.0	/experiments/knapen_AOT/AOT_stimuli/pictures/0589_fw.png	594.3879108428955	1.0916831493377686
283	459.7640151977539	response	0	k		281.0	/experiments/knapen_AOT/AOT_stimuli/pictures/0589_fw.png	595.4381170272827	
284	459.80549216270447	picture	0		485	282.0	/experiments/knapen_AOT/AOT_stimuli/pictures/0733_fw.png	595.4795939922333	4.075093984603882
284	463.83900213241577	response	0	k		282.0	/experiments/knapen_AOT/AOT_stimuli/pictures/0733_fw.png	599.5131039619446	
285	463.88058614730835	picture	0		369	283.0	/experiments/knapen_AOT/AOT_stimuli/pictures/0499_fw.png	599.5546879768372	3.108330011367798
285	466.9475100040436	response	0	k		283.0	/experiments/knapen_AOT/AOT_stimuli/pictures/0499_fw.png	602.6216118335724	
286	466.98891615867615	picture	0		126	284.0	/experiments/knapen_AOT/AOT_stimuli/pictures/0658_fw.png	602.663017988205	1.0804789066314697
286	468.02396512031555	response	0	k		284.0	/experiments/knapen_AOT/AOT_stimuli/pictures/0658_fw.png	603.6980669498444	
287	468.0693950653076	picture	0		155	285.0	/experiments/knapen_AOT/AOT_stimuli/pictures/1737_fw.png	603.7434968948364	1.5278899669647217
287	469.3558280467987	response	0	k		285.0	/experiments/knapen_AOT/AOT_stimuli/pictures/1737_fw.png	605.0299298763275	
288	469.59728503227234	picture	0		108	286.0	/experiments/knapen_AOT/AOT_stimuli/pictures/0750_fw.png	605.2713868618011	0.9166691303253174
288	470.4891459941864	response	0	k		286.0	/experiments/knapen_AOT/AOT_stimuli/pictures/0750_fw.png	606.1632478237152	
289	470.51395416259766	picture	0		128	287.0	/experiments/knapen_AOT/AOT_stimuli/pictures/1780_fw.png	606.1880559921265	1.0971159934997559
289	471.572448015213	response	0	k		287.0	/experiments/knapen_AOT/AOT_stimuli/pictures/1780_fw.png	607.2465498447418	
290	471.6110701560974	picture	0		119	288.0	/experiments/knapen_AOT/AOT_stimuli/pictures/2095_fw.png	607.2851719856262	1.0208740234375
290	472.5974860191345	response	0	k		288.0	/experiments/knapen_AOT/AOT_stimuli/pictures/2095_fw.png	608.2715878486633	
291	472.6319441795349	picture	0		125	289.0	/experiments/knapen_AOT/AOT_stimuli/pictures/1117_fw.png	608.3060460090637	1.2404038906097412
291	473.66416907310486	response	0	k		289.0	/experiments/knapen_AOT/AOT_stimuli/pictures/1117_fw.png	609.3382709026337	
292	473.87234807014465	picture	0		112	290.0	/experiments/knapen_AOT/AOT_stimuli/pictures/0073_fw.png	609.5464498996735	0.954016923904419
292	474.79765820503235	response	0	j		290.0	/experiments/knapen_AOT/AOT_stimuli/pictures/0073_fw.png	610.4717600345612	
293	474.8263649940491	picture	0		188	291.0	/experiments/knapen_AOT/AOT_stimuli/pictures/0770_fw.png	610.5004668235779	1.5960659980773926
293	476.3809220790863	response	0	j		291.0	/experiments/knapen_AOT/AOT_stimuli/pictures/0770_fw.png	612.0550239086151	
294	476.42243099212646	picture	0		478	292.0	/experiments/knapen_AOT/AOT_stimuli/pictures/1740_fw.png	612.0965328216553	4.008295059204102
294	480.39775800704956	response	0	k		292.0	/experiments/knapen_AOT/AOT_stimuli/pictures/1740_fw.png	616.0718598365784	
295	480.43072605133057	picture	0		114	293.0	/experiments/knapen_AOT/AOT_stimuli/pictures/1182_fw.png	616.1048278808594	0.9833800792694092
295	481.372771024704	response	0	k		293.0	/experiments/knapen_AOT/AOT_stimuli/pictures/1182_fw.png	617.0468728542328	
296	481.4141061306	picture	0		136	294.0	/experiments/knapen_AOT/AOT_stimuli/pictures/2128_fw.png	617.0882079601288	1.183351993560791
296	482.53938007354736	response	0	j		294.0	/experiments/knapen_AOT/AOT_stimuli/pictures/2128_fw.png	618.2134819030762	
297	482.59745812416077	picture	0		116	295.0	/experiments/knapen_AOT/AOT_stimuli/pictures/1323_fw.png	618.2715599536896	1.0000100135803223
297	483.5559411048889	response	0	k		295.0	/experiments/knapen_AOT/AOT_stimuli/pictures/1323_fw.png	619.2300429344177	
298	483.5974681377411	picture	0		125	296.0	/experiments/knapen_AOT/AOT_stimuli/pictures/1475_fw.png	619.2715699672699	1.075063943862915
298	484.63113498687744	response	0	k		296.0	/experiments/knapen_AOT/AOT_stimuli/pictures/1475_fw.png	620.3052368164062	
299	484.672532081604	picture	0		566	297.0	/experiments/knapen_AOT/AOT_stimuli/pictures/1698_fw.png	620.3466339111328	4.751337051391602
299	489.38109612464905	response	0	k		297.0	/experiments/knapen_AOT/AOT_stimuli/pictures/1698_fw.png	625.0551979541779	
300	489.4238691329956	picture	0		222	298.0	/experiments/knapen_AOT/AOT_stimuli/pictures/2141_fw.png	625.0979709625244	1.8903710842132568
300	491.2643530368805	response	0	k		298.0	/experiments/knapen_AOT/AOT_stimuli/pictures/2141_fw.png	626.9384548664093	
301	491.31424021720886	picture	0		132	299.0	/experiments/knapen_AOT/AOT_stimuli/pictures/2001_fw.png	626.9883420467377	1.1096367835998535
301	492.3993890285492	response	0	k		299.0	/experiments/knapen_AOT/AOT_stimuli/pictures/2001_fw.png	628.073490858078	
302	492.4238770008087	picture	0		126	300.0	/experiments/knapen_AOT/AOT_stimuli/pictures/1955_fw.png	628.0979788303375	1.1154110431671143
302	493.46445322036743	response	0	j		300.0	/experiments/knapen_AOT/AOT_stimuli/pictures/1955_fw.png	629.1385550498962	
303	493.53928804397583	picture	0		105	301.0	/experiments/knapen_AOT/AOT_stimuli/pictures/0084_fw.png	629.2133898735046	0.8916499614715576
303	494.3993790149689	response	0	j		301.0	/experiments/knapen_AOT/AOT_stimuli/pictures/0084_fw.png	630.0734808444977	
304	494.4309380054474	picture	0		128	302.0	/experiments/knapen_AOT/AOT_stimuli/pictures/0944_fw.png	630.1050398349762	1.1108760833740234
304	495.48948907852173	response	0	k		302.0	/experiments/knapen_AOT/AOT_stimuli/pictures/0944_fw.png	631.1635909080505	
305	495.5418140888214	picture	0		98	303.0	/experiments/knapen_AOT/AOT_stimuli/pictures/1789_fw.png	631.2159159183502	0.8476059436798096
305	496.3477551937103	response	0	j		303.0	/experiments/knapen_AOT/AOT_stimuli/pictures/1789_fw.png	632.0218570232391	
306	496.3894200325012	picture	0		182	304.0	/experiments/knapen_AOT/AOT_stimuli/pictures/0095_fw.png	632.06352186203	1.549976110458374
306	497.8978750705719	response	0	j		304.0	/experiments/knapen_AOT/AOT_stimuli/pictures/0095_fw.png	633.5719769001007	
307	497.9393961429596	picture	0		592	305.0	/experiments/knapen_AOT/AOT_stimuli/pictures/1997_fw.png	633.6134979724884	4.999983072280884
307	502.86462807655334	response	0	k		305.0	/experiments/knapen_AOT/AOT_stimuli/pictures/1997_fw.png	638.5387299060822	
308	502.9393792152405	picture	0		117	306.0	/experiments/knapen_AOT/AOT_stimuli/pictures/1313_fw.png	638.6134810447693	1.0083799362182617
308	503.906387090683	response	0	k		306.0	/experiments/knapen_AOT/AOT_stimuli/pictures/1313_fw.png	639.5804889202118	
309	503.94775915145874	picture	0		95	307.0	/experiments/knapen_AOT/AOT_stimuli/pictures/1565_fw.png	639.6218609809875	0.8249938488006592
309	504.73128509521484	response	0	k		307.0	/experiments/knapen_AOT/AOT_stimuli/pictures/1565_fw.png	640.4053869247437	
310	504.7727530002594	picture	0		114	308.0	/experiments/knapen_AOT/AOT_stimuli/pictures/1407_fw.png	640.4468548297882	0.9775300025939941
310	505.7147161960602	response	0	k		308.0	/experiments/knapen_AOT/AOT_stimuli/pictures/1407_fw.png	641.388818025589	
311	505.7502830028534	picture	0		166	309.0	/experiments/knapen_AOT/AOT_stimuli/pictures/1988_fw.png	641.4243848323822	1.423612117767334
311	507.12299609184265	response	0	k		309.0	/experiments/knapen_AOT/AOT_stimuli/pictures/1988_fw.png	642.7970979213715	
312	507.1738951206207	picture	0		472	310.0	/experiments/knapen_AOT/AOT_stimuli/pictures/1948_fw.png	642.8479969501495	3.9930388927459717
312	511.12300300598145	response	0	j		310.0	/experiments/knapen_AOT/AOT_stimuli/pictures/1948_fw.png	646.7971048355103	
313	511.1669340133667	picture	0		283	311.0	/experiments/knapen_AOT/AOT_stimuli/pictures/1802_fw.png	646.8410358428955	2.3977251052856445
313	513.5146951675415	response	0	k		311.0	/experiments/knapen_AOT/AOT_stimuli/pictures/1802_fw.png	649.1887969970703	
314	513.5646591186523	picture	0		138	312.0	/experiments/knapen_AOT/AOT_stimuli/pictures/0172_fw.png	649.2387609481812	1.1786930561065674
314	514.7064571380615	response	0	k		312.0	/experiments/knapen_AOT/AOT_stimuli/pictures/0172_fw.png	650.3805589675903	
315	514.7433521747589	picture	0		337	313.0	/experiments/knapen_AOT/AOT_stimuli/pictures/0845_fw.png	650.4174540042877	2.8473329544067383
315	517.5398900508881	response	0	j		313.0	/experiments/knapen_AOT/AOT_stimuli/pictures/0845_fw.png	653.2139918804169	
316	517.5906851291656	picture	0		318	314.0	/experiments/knapen_AOT/AOT_stimuli/pictures/0206_fw.png	653.2647869586945	2.6989328861236572
316	520.2314460277557	response	0	j		314.0	/experiments/knapen_AOT/AOT_stimuli/pictures/0206_fw.png	655.9055478572845	
317	520.2896180152893	picture	0		123	315.0	/experiments/knapen_AOT/AOT_stimuli/pictures/2013_fw.png	655.9637198448181	1.0583701133728027
317	521.3065841197968	response	0	k		315.0	/experiments/knapen_AOT/AOT_stimuli/pictures/2013_fw.png	656.9806859493256	
318	521.3479881286621	picture	0		114	316.0	/experiments/knapen_AOT/AOT_stimuli/pictures/1021_fw.png	657.0220899581909	0.9833240509033203
318	522.2898001670837	response	0	k		316.0	/experiments/knapen_AOT/AOT_stimuli/pictures/1021_fw.png	657.9639019966125	
319	522.3313121795654	picture	0		97	317.0	/experiments/knapen_AOT/AOT_stimuli/pictures/1400_fw.png	658.0054140090942	0.8416829109191895
319	523.1315960884094	response	0	k		317.0	/experiments/knapen_AOT/AOT_stimuli/pictures/1400_fw.png	658.8056979179382	
320	523.1729950904846	picture	0		106	318.0	/experiments/knapen_AOT/AOT_stimuli/pictures/1906_fw.png	658.8470969200134	0.9107611179351807
320	524.0482730865479	response	0	k		318.0	/experiments/knapen_AOT/AOT_stimuli/pictures/1906_fw.png	659.7223749160767	
321	524.0837562084198	picture	0		134	319.0	/experiments/knapen_AOT/AOT_stimuli/pictures/1779_fw.png	659.7578580379486	1.1559698581695557
321	525.1899490356445	response	0	k		319.0	/experiments/knapen_AOT/AOT_stimuli/pictures/1779_fw.png	660.8640508651733	
322	525.2397260665894	picture	0		87	320.0	/experiments/knapen_AOT/AOT_stimuli/pictures/0107_fw.png	660.9138278961182	0.7582991123199463
322	525.9566440582275	response	0	k		320.0	/experiments/knapen_AOT/AOT_stimuli/pictures/0107_fw.png	661.6307458877563	
323	525.9980251789093	picture	0		202	321.0	/experiments/knapen_AOT/AOT_stimuli/pictures/0121_fw.png	661.6721270084381	1.710731029510498
323	527.673192024231	response	0	k		321.0	/experiments/knapen_AOT/AOT_stimuli/pictures/0121_fw.png	663.3472938537598	
324	527.7087562084198	picture	0		124	322.0	/experiments/knapen_AOT/AOT_stimuli/pictures/1081_fw.png	663.3828580379486	1.0561089515686035
324	528.7317349910736	response	0	k		322.0	/experiments/knapen_AOT/AOT_stimuli/pictures/1081_fw.png	664.4058368206024	
325	528.7648651599884	picture	0		100	323.0	/experiments/knapen_AOT/AOT_stimuli/pictures/1805_fw.png	664.4389669895172	0.866569995880127
325	529.5900251865387	response	0	k		323.0	/experiments/knapen_AOT/AOT_stimuli/pictures/1805_fw.png	665.2641270160675	
326	529.6314351558685	picture	0		173	324.0	/experiments/knapen_AOT/AOT_stimuli/pictures/1433_fw.png	665.3055369853973	1.4751579761505127
326	531.0649530887604	response	0	k		324.0	/experiments/knapen_AOT/AOT_stimuli/pictures/1433_fw.png	666.7390549182892	
327	531.106593132019	picture	0		107	325.0	/experiments/knapen_AOT/AOT_stimuli/pictures/0592_fw.png	666.7806949615479	0.9249749183654785
327	531.9900741577148	response	0	k		325.0	/experiments/knapen_AOT/AOT_stimuli/pictures/0592_fw.png	667.6641759872437	
328	532.0315680503845	picture	0		145	326.0	/experiments/knapen_AOT/AOT_stimuli/pictures/2122_fw.png	667.7056698799133	1.2415771484375
328	533.231593132019	response	0	k		326.0	/experiments/knapen_AOT/AOT_stimuli/pictures/2122_fw.png	668.9056949615479	
329	533.273145198822	picture	0		346	327.0	/experiments/knapen_AOT/AOT_stimuli/pictures/0424_fw.png	668.9472470283508	2.914843797683716
329	536.1483631134033	response	0	k		327.0	/experiments/knapen_AOT/AOT_stimuli/pictures/0424_fw.png	671.8224649429321	
330	536.1879889965057	picture	0		312	328.0	/experiments/knapen_AOT/AOT_stimuli/pictures/0269_fw.png	671.8620908260345	2.635246992111206
330	538.7818570137024	response	0	k		328.0	/experiments/knapen_AOT/AOT_stimuli/pictures/0269_fw.png	674.4559588432312	
331	538.823235988617	picture	0		206	329.0	/experiments/knapen_AOT/AOT_stimuli/pictures/1901_fw.png	674.4973378181458	1.7416741847991943
331	540.5318431854248	response	0	k		329.0	/experiments/knapen_AOT/AOT_stimuli/pictures/1901_fw.png	676.2059450149536	
332	540.5649101734161	picture	0		216	330.0	/experiments/knapen_AOT/AOT_stimuli/pictures/0008_fw.png	676.239012002945	1.824983835220337
332	542.3567771911621	response	0	k		330.0	/experiments/knapen_AOT/AOT_stimuli/pictures/0008_fw.png	678.0308790206909	
333	542.3898940086365	picture	0		89	331.0	/experiments/knapen_AOT/AOT_stimuli/pictures/2149_fw.png	678.0639958381653	0.7918381690979004
333	543.1234261989594	response	0	j		331.0	/experiments/knapen_AOT/AOT_stimuli/pictures/2149_fw.png	678.7975280284882	
334	543.1817321777344	picture	0		102	332.0	/experiments/knapen_AOT/AOT_stimuli/pictures/0123_fw.png	678.8558340072632	0.8915839195251465
334	544.0167260169983	response	0	j		332.0	/experiments/knapen_AOT/AOT_stimuli/pictures/0123_fw.png	679.6908278465271	
335	544.0733160972595	picture	0		137	333.0	/experiments/knapen_AOT/AOT_stimuli/pictures/1594_fw.png	679.7474179267883	1.2119660377502441
335	545.2000110149384	response	0	j		333.0	/experiments/knapen_AOT/AOT_stimuli/pictures/1594_fw.png	680.8741128444672	
336	545.2852821350098	picture	0		245	334.0	/experiments/knapen_AOT/AOT_stimuli/pictures/1907_fw.png	680.9593839645386	2.071394920349121
336	547.3152241706848	response	0	k		334.0	/experiments/knapen_AOT/AOT_stimuli/pictures/1907_fw.png	682.9893260002136	
337	547.3566770553589	picture	0		265	335.0	/experiments/knapen_AOT/AOT_stimuli/pictures/2078_fw.png	683.0307788848877	2.2417080402374268
337	549.5569860935211	response	0	k		335.0	/experiments/knapen_AOT/AOT_stimuli/pictures/2078_fw.png	685.2310879230499	
338	549.5983850955963	picture	0		121	336.0	/experiments/knapen_AOT/AOT_stimuli/pictures/1567_fw.png	685.2724869251251	1.0416600704193115
338	550.5918161869049	response	0	j		336.0	/experiments/knapen_AOT/AOT_stimuli/pictures/1567_fw.png	686.2659180164337	
339	550.6400451660156	picture	0		151	337.0	/experiments/knapen_AOT/AOT_stimuli/pictures/0842_fw.png	686.3141469955444	1.308405876159668
339	551.8902699947357	response	0	k		337.0	/experiments/knapen_AOT/AOT_stimuli/pictures/0842_fw.png	687.5643718242645	
340	551.9484510421753	picture	0		99	338.0	/experiments/knapen_AOT/AOT_stimuli/pictures/1351_fw.png	687.6225528717041	0.8666019439697266
340	552.765242099762	response	0	k		338.0	/experiments/knapen_AOT/AOT_stimuli/pictures/1351_fw.png	688.4393439292908	
341	552.815052986145	picture	0		94	339.0	/experiments/knapen_AOT/AOT_stimuli/pictures/1748_fw.png	688.4891548156738	0.8083600997924805
341	553.591078042984	response	0	j		339.0	/experiments/knapen_AOT/AOT_stimuli/pictures/1748_fw.png	689.2651798725128	
342	553.6234130859375	picture	0		121	340.0	/experiments/knapen_AOT/AOT_stimuli/pictures/1405_fw.png	689.2975149154663	1.0416591167449951
342	554.6170001029968	response	0	k		340.0	/experiments/knapen_AOT/AOT_stimuli/pictures/1405_fw.png	690.2911019325256	
343	554.6650722026825	picture	0		500	341.0	/experiments/knapen_AOT/AOT_stimuli/pictures/0998_fw.png	690.3391740322113	4.200170993804932
343	558.8169660568237	response	0	j		341.0	/experiments/knapen_AOT/AOT_stimuli/pictures/0998_fw.png	694.4910678863525	
344	558.8652431964874	picture	0		159	342.0	/experiments/knapen_AOT/AOT_stimuli/pictures/1869_fw.png	694.5393450260162	1.358353853225708
344	560.1762351989746	response	0	j		342.0	/experiments/knapen_AOT/AOT_stimuli/pictures/1869_fw.png	695.8503370285034	
345	560.2235970497131	picture	0		97	343.0	/experiments/knapen_AOT/AOT_stimuli/pictures/1420_fw.png	695.897698879242	0.8665659427642822
345	561.017144203186	response	0	j		343.0	/experiments/knapen_AOT/AOT_stimuli/pictures/1420_fw.png	696.6912460327148	
346	561.0901629924774	picture	0		240	344.0	/experiments/knapen_AOT/AOT_stimuli/pictures/1991_fw.png	696.7642648220062	2.033374071121216
346	563.082093000412	response	0	j		344.0	/experiments/knapen_AOT/AOT_stimuli/pictures/1991_fw.png	698.7561948299408	
347	563.1235370635986	picture	0		130	345.0	/experiments/knapen_AOT/AOT_stimuli/pictures/1345_fw.png	698.7976388931274	1.1167221069335938
347	564.1919701099396	response	0	k		345.0	/experiments/knapen_AOT/AOT_stimuli/pictures/1345_fw.png	699.8660719394684	
348	564.2402591705322	picture	0		133	346.0	/experiments/knapen_AOT/AOT_stimuli/pictures/1041_fw.png	699.914361000061	1.1416678428649902
348	565.3405170440674	response	0	k		346.0	/experiments/knapen_AOT/AOT_stimuli/pictures/1041_fw.png	701.0146188735962	
349	565.3819270133972	picture	0		101	347.0	/experiments/knapen_AOT/AOT_stimuli/pictures/1881_fw.png	701.056028842926	0.8758220672607422
349	566.2086210250854	response	0	k		347.0	/experiments/knapen_AOT/AOT_stimuli/pictures/1881_fw.png	701.8827228546143	
350	566.257749080658	picture	0		381	348.0	/experiments/knapen_AOT/AOT_stimuli/pictures/1320_fw.png	701.9318509101868	3.2075300216674805
350	569.4170892238617	response	0	j		348.0	/experiments/knapen_AOT/AOT_stimuli/pictures/1320_fw.png	705.0911910533905	
351	569.4652791023254	picture	0		107	349.0	/experiments/knapen_AOT/AOT_stimuli/pictures/0247_fw.png	705.1393809318542	0.925055980682373
351	570.348895072937	response	0	j		349.0	/experiments/knapen_AOT/AOT_stimuli/pictures/0247_fw.png	706.0229969024658	
352	570.3903350830078	picture	0		137	350.0	/experiments/knapen_AOT/AOT_stimuli/pictures/1258_fw.png	706.0644369125366	1.1750550270080566
352	571.523912191391	response	0	k		350.0	/experiments/knapen_AOT/AOT_stimuli/pictures/1258_fw.png	707.1980140209198	
353	571.5653901100159	picture	0		229	351.0	/experiments/knapen_AOT/AOT_stimuli/pictures/0320_fw.png	707.2394919395447	1.935405969619751
353	573.4655270576477	response	0	k		351.0	/experiments/knapen_AOT/AOT_stimuli/pictures/0320_fw.png	709.1396288871765	
354	573.5007960796356	picture	0		79	352.0	/experiments/knapen_AOT/AOT_stimuli/pictures/0080_fw.png	709.1748979091644	0.6812329292297363
354	574.1489470005035	response	0	k		352.0	/experiments/knapen_AOT/AOT_stimuli/pictures/0080_fw.png	709.8230488300323	
355	574.1820290088654	picture	0		144	353.0	/experiments/knapen_AOT/AOT_stimuli/pictures/1221_fw.png	709.8561308383942	1.2333362102508545
355	575.3739461898804	response	0	k		353.0	/experiments/knapen_AOT/AOT_stimuli/pictures/1221_fw.png	711.0480480194092	
356	575.4153652191162	picture	0		125	354.0	/experiments/knapen_AOT/AOT_stimuli/pictures/0838_fw.png	711.089467048645	1.0716159343719482
356	576.4489891529083	response	0	k		354.0	/experiments/knapen_AOT/AOT_stimuli/pictures/0838_fw.png	712.1230909824371	
357	576.4869811534882	picture	0		188	355.0	/experiments/knapen_AOT/AOT_stimuli/pictures/1622_fw.png	712.161082983017	1.6041159629821777
357	578.0496730804443	response	0	j		355.0	/experiments/knapen_AOT/AOT_stimuli/pictures/1622_fw.png	713.7237749099731	
358	578.0910971164703	picture	0		114	356.0	/experiments/knapen_AOT/AOT_stimuli/pictures/0517_fw.png	713.7651989459991	0.9792079925537109
358	579.0322442054749	response	0	k		356.0	/experiments/knapen_AOT/AOT_stimuli/pictures/0517_fw.png	714.7063460350037	
359	579.070305109024	picture	0		519	357.0	/experiments/knapen_AOT/AOT_stimuli/pictures/0082_fw.png	714.7444069385529	4.378525972366333
359	583.3908050060272	response	0	k		357.0	/experiments/knapen_AOT/AOT_stimuli/pictures/0082_fw.png	719.064906835556	
360	583.4488310813904	picture	0		105	358.0	/experiments/knapen_AOT/AOT_stimuli/pictures/0091_fw.png	719.1229329109192	0.9083249568939209
360	584.3158230781555	response	0	k		358.0	/experiments/knapen_AOT/AOT_stimuli/pictures/0091_fw.png	719.9899249076843	
361	584.3571560382843	picture	0		95	359.0	/experiments/knapen_AOT/AOT_stimuli/pictures/2086_fw.png	720.0312578678131	0.8249921798706055
361	585.140762090683	response	0	j		359.0	/experiments/knapen_AOT/AOT_stimuli/pictures/2086_fw.png	720.8148639202118	
362	585.1821482181549	stim	0		221			720.8562500476837	1.867447853088379
362	587.0083780288696	response	0	space				722.6824798583984	
