trial_nr	onset	event_type	phase	response	nr_frames	picture_index	picture_file	onset_abs	duration
0	0.1814577579498291	stim	0		680			62.84043645858765	5.68652868270874
0	5.848538637161255	response	0	space				68.50751733779907	
2	5.867986440658569	picture	0		337	0.0	/experiments/Knapen_AOT/AOT_stimuli/pictures/1600_fw.png	68.52696514129639	2.8268613815307617
2	8.669837951660156	response	0	k		0.0	/experiments/Knapen_AOT/AOT_stimuli/pictures/1600_fw.png	71.32881665229797	
3	8.694847822189331	picture	0		107	1.0	/experiments/Knapen_AOT/AOT_stimuli/pictures/1404_fw.png	71.35382652282715	0.9093859195709229
3	9.59008002281189	response	0	j		1.0	/experiments/Knapen_AOT/AOT_stimuli/pictures/1404_fw.png	72.2490587234497	
4	9.604233741760254	picture	0		116	2.0	/experiments/Knapen_AOT/AOT_stimuli/pictures/0804_fw.png	72.26321244239807	0.9723522663116455
4	10.565106868743896	response	0	k		2.0	/experiments/Knapen_AOT/AOT_stimuli/pictures/0804_fw.png	73.22408556938171	
5	10.5765860080719	picture	0		209	3.0	/experiments/Knapen_AOT/AOT_stimuli/pictures/1833_fw.png	73.23556470870972	1.742856740951538
5	12.299216747283936	response	0	j		3.0	/experiments/Knapen_AOT/AOT_stimuli/pictures/1833_fw.png	74.95819544792175	
6	12.319442749023438	picture	0		99	4.0	/experiments/Knapen_AOT/AOT_stimuli/pictures/1459_fw.png	74.97842144966125	0.8334798812866211
6	13.14013671875	response	0	j		4.0	/experiments/Knapen_AOT/AOT_stimuli/pictures/1459_fw.png	75.79911541938782	
7	13.152922630310059	picture	0		160	5.0	/experiments/Knapen_AOT/AOT_stimuli/pictures/0784_fw.png	75.81190133094788	1.3370213508605957
7	14.473458528518677	response	0	j		5.0	/experiments/Knapen_AOT/AOT_stimuli/pictures/0784_fw.png	77.1324372291565	
8	14.489943981170654	picture	0		130	6.0	/experiments/Knapen_AOT/AOT_stimuli/pictures/1509_fw.png	77.14892268180847	1.0865790843963623
8	15.565168857574463	response	0	k		6.0	/experiments/Knapen_AOT/AOT_stimuli/pictures/1509_fw.png	78.22414755821228	
9	15.576523065567017	picture	0		115	7.0	/experiments/Knapen_AOT/AOT_stimuli/pictures/0102_fw.png	78.23550176620483	0.9634771347045898
9	16.523640632629395	response	0	j		7.0	/experiments/Knapen_AOT/AOT_stimuli/pictures/0102_fw.png	79.18261933326721	
10	16.540000200271606	picture	0		136	8.0	/experiments/Knapen_AOT/AOT_stimuli/pictures/1119_fw.png	79.19897890090942	1.1416246891021729
10	17.665172338485718	response	0	k		8.0	/experiments/Knapen_AOT/AOT_stimuli/pictures/1119_fw.png	80.32415103912354	
11	17.68162488937378	picture	0		117	9.0	/experiments/Knapen_AOT/AOT_stimuli/pictures/1785_fw.png	80.3406035900116	0.9782199859619141
11	18.64855122566223	response	0	k		9.0	/experiments/Knapen_AOT/AOT_stimuli/pictures/1785_fw.png	81.30752992630005	
12	18.659844875335693	picture	0		108	10.0	/experiments/Knapen_AOT/AOT_stimuli/pictures/2123_fw.png	81.31882357597351	0.9051661491394043
12	19.5485737323761	response	0	k		10.0	/experiments/Knapen_AOT/AOT_stimuli/pictures/2123_fw.png	82.20755243301392	
13	19.565011024475098	picture	0		99	11.0	/experiments/Knapen_AOT/AOT_stimuli/pictures/1851_fw.png	82.22398972511292	0.830977201461792
13	20.381864070892334	response	0	k		11.0	/experiments/Knapen_AOT/AOT_stimuli/pictures/1851_fw.png	83.04084277153015	
14	20.39598822593689	picture	0		286	12.0	/experiments/Knapen_AOT/AOT_stimuli/pictures/1945_fw.png	83.0549669265747	2.388782024383545
14	22.7737033367157	response	0	k		12.0	/experiments/Knapen_AOT/AOT_stimuli/pictures/1945_fw.png	85.43268203735352	
15	22.784770250320435	picture	0		101	13.0	/experiments/Knapen_AOT/AOT_stimuli/pictures/0495_fw.png	85.44374895095825	0.8552525043487549
15	23.623576402664185	response	0	k		13.0	/experiments/Knapen_AOT/AOT_stimuli/pictures/0495_fw.png	86.282555103302	
16	23.64002275466919	picture	0		88	14.0	/experiments/Knapen_AOT/AOT_stimuli/pictures/0910_fw.png	86.299001455307	0.7351675033569336
16	24.365272045135498	response	0	k		14.0	/experiments/Knapen_AOT/AOT_stimuli/pictures/0910_fw.png	87.02425074577332	
17	24.375190258026123	picture	0		168	15.0	/experiments/Knapen_AOT/AOT_stimuli/pictures/1507_fw.png	87.03416895866394	1.4065470695495605
17	25.76551079750061	response	0	k		15.0	/experiments/Knapen_AOT/AOT_stimuli/pictures/1507_fw.png	88.42448949813843	
18	25.781737327575684	picture	0		111	16.0	/experiments/Knapen_AOT/AOT_stimuli/pictures/1884_fw.png	88.4407160282135	0.9333741664886475
18	26.698606967926025	response	0	j		16.0	/experiments/Knapen_AOT/AOT_stimuli/pictures/1884_fw.png	89.35758566856384	
19	26.71511149406433	picture	0		88	17.0	/experiments/Knapen_AOT/AOT_stimuli/pictures/0674_fw.png	89.37409019470215	0.7416744232177734
19	27.440314054489136	response	0	j		17.0	/experiments/Knapen_AOT/AOT_stimuli/pictures/0674_fw.png	90.09929275512695	
20	27.456785917282104	picture	0		86	18.0	/experiments/Knapen_AOT/AOT_stimuli/pictures/1483_fw.png	90.11576461791992	0.7249653339385986
20	28.165266275405884	response	0	k		18.0	/experiments/Knapen_AOT/AOT_stimuli/pictures/1483_fw.png	90.8242449760437	
21	28.181751251220703	picture	0		114	19.0	/experiments/Knapen_AOT/AOT_stimuli/pictures/1096_fw.png	90.84072995185852	0.9583256244659424
21	29.12360167503357	response	0	j		19.0	/experiments/Knapen_AOT/AOT_stimuli/pictures/1096_fw.png	91.78258037567139	
22	29.140076875686646	picture	0		125	20.0	/experiments/Knapen_AOT/AOT_stimuli/pictures/2028_fw.png	91.79905557632446	1.0475919246673584
22	30.173640966415405	response	0	j		20.0	/experiments/Knapen_AOT/AOT_stimuli/pictures/2028_fw.png	92.83261966705322	
23	30.187668800354004	picture	0		105	21.0	/experiments/Knapen_AOT/AOT_stimuli/pictures/1728_fw.png	92.84664750099182	0.8819561004638672
23	31.056992053985596	response	0	j		21.0	/experiments/Knapen_AOT/AOT_stimuli/pictures/1728_fw.png	93.71597075462341	
24	31.06962490081787	picture	0		71	22.0	/experiments/Knapen_AOT/AOT_stimuli/pictures/1302_fw.png	93.72860360145569	0.5902585983276367
24	31.648658990859985	response	0	j		22.0	/experiments/Knapen_AOT/AOT_stimuli/pictures/1302_fw.png	94.3076376914978	
25	31.659883499145508	picture	0		110	23.0	/experiments/Knapen_AOT/AOT_stimuli/pictures/1172_fw.png	94.31886219978333	0.9219319820404053
25	32.56535577774048	response	0	k		23.0	/experiments/Knapen_AOT/AOT_stimuli/pictures/1172_fw.png	95.2243344783783	
26	32.58181548118591	picture	0		105	24.0	/experiments/Knapen_AOT/AOT_stimuli/pictures/2162_fw.png	95.24079418182373	0.8833279609680176
26	33.4486403465271	response	0	k		24.0	/experiments/Knapen_AOT/AOT_stimuli/pictures/2162_fw.png	96.10761904716492	
27	33.46514344215393	picture	0		120	25.0	/experiments/Knapen_AOT/AOT_stimuli/pictures/1258_fw.png	96.12412214279175	1.008324146270752
27	34.45706915855408	response	0	k		25.0	/experiments/Knapen_AOT/AOT_stimuli/pictures/1258_fw.png	97.1160478591919	
28	34.47346758842468	picture	0		125	26.0	/experiments/Knapen_AOT/AOT_stimuli/pictures/1706_fw.png	97.1324462890625	1.0500476360321045
28	35.507434129714966	response	0	j		26.0	/experiments/Knapen_AOT/AOT_stimuli/pictures/1706_fw.png	98.16641283035278	
29	35.52351522445679	picture	0		101	27.0	/experiments/Knapen_AOT/AOT_stimuli/pictures/0805_fw.png	98.1824939250946	0.8447701930999756
29	36.357038259506226	response	0	k		27.0	/experiments/Knapen_AOT/AOT_stimuli/pictures/0805_fw.png	99.01601696014404	
30	36.36828541755676	picture	0		83	28.0	/experiments/Knapen_AOT/AOT_stimuli/pictures/1645_fw.png	99.02726411819458	0.6944401264190674
30	37.04875588417053	response	0	j		28.0	/experiments/Knapen_AOT/AOT_stimuli/pictures/1645_fw.png	99.70773458480835	
31	37.06272554397583	picture	0		78	29.0	/experiments/Knapen_AOT/AOT_stimuli/pictures/0496_fw.png	99.72170424461365	0.6607770919799805
31	37.707311391830444	response	0	j		29.0	/experiments/Knapen_AOT/AOT_stimuli/pictures/0496_fw.png	100.36629009246826	
32	37.72350263595581	picture	0		136	30.0	/experiments/Knapen_AOT/AOT_stimuli/pictures/1855_fw.png	100.38248133659363	1.1378214359283447
32	38.848732709884644	response	0	k		30.0	/experiments/Knapen_AOT/AOT_stimuli/pictures/1855_fw.png	101.50771141052246	
33	38.861324071884155	picture	0		142	31.0	/experiments/Knapen_AOT/AOT_stimuli/pictures/0542_fw.png	101.52030277252197	1.1872336864471436
33	40.03234076499939	response	0	j		31.0	/experiments/Knapen_AOT/AOT_stimuli/pictures/0542_fw.png	102.6913194656372	
34	40.0485577583313	picture	0		80	32.0	/experiments/Knapen_AOT/AOT_stimuli/pictures/2049_fw.png	102.70753645896912	0.6669478416442871
34	40.70718026161194	response	0	j		32.0	/experiments/Knapen_AOT/AOT_stimuli/pictures/2049_fw.png	103.36615896224976	
35	40.715505599975586	picture	0		87	33.0	/experiments/Knapen_AOT/AOT_stimuli/pictures/1595_fw.png	103.3744843006134	0.7291853427886963
35	41.43206977844238	response	0	k		33.0	/experiments/Knapen_AOT/AOT_stimuli/pictures/1595_fw.png	104.0910484790802	
36	41.44469094276428	picture	0		97	34.0	/experiments/Knapen_AOT/AOT_stimuli/pictures/0655_fw.png	104.1036696434021	0.8122158050537109
36	42.240708112716675	response	0	k		34.0	/experiments/Knapen_AOT/AOT_stimuli/pictures/0655_fw.png	104.89968681335449	
37	42.25690674781799	picture	0		115	35.0	/experiments/Knapen_AOT/AOT_stimuli/pictures/1243_fw.png	104.91588544845581	0.9666552543640137
37	43.207149505615234	response	0	k		35.0	/experiments/Knapen_AOT/AOT_stimuli/pictures/1243_fw.png	105.86612820625305	
38	43.22356200218201	picture	0		102	36.0	/experiments/Knapen_AOT/AOT_stimuli/pictures/0261_fw.png	105.88254070281982	0.8530585765838623
38	44.06546998023987	response	0	k		36.0	/experiments/Knapen_AOT/AOT_stimuli/pictures/0261_fw.png	106.72444868087769	
39	44.07662057876587	picture	0		95	37.0	/experiments/Knapen_AOT/AOT_stimuli/pictures/0160_fw.png	106.73559927940369	0.7970008850097656
39	44.85715866088867	response	0	k		37.0	/experiments/Knapen_AOT/AOT_stimuli/pictures/0160_fw.png	107.51613736152649	
40	44.873621463775635	picture	0		101	38.0	/experiments/Knapen_AOT/AOT_stimuli/pictures/0207_fw.png	107.53260016441345	0.8419029712677002
40	45.70722436904907	response	0	k		38.0	/experiments/Knapen_AOT/AOT_stimuli/pictures/0207_fw.png	108.36620306968689	
41	45.715524435043335	picture	0		131	39.0	/experiments/Knapen_AOT/AOT_stimuli/pictures/1703_fw.png	108.37450313568115	1.0972344875335693
41	46.7988018989563	response	0	k		39.0	/experiments/Knapen_AOT/AOT_stimuli/pictures/1703_fw.png	109.45778059959412	
42	46.812758922576904	picture	0		123	40.0	/experiments/Knapen_AOT/AOT_stimuli/pictures/0154_fw.png	109.47173762321472	1.0358662605285645
42	47.83212232589722	response	0	k		40.0	/experiments/Knapen_AOT/AOT_stimuli/pictures/0154_fw.png	110.49110102653503	
43	47.84862518310547	picture	0		83	41.0	/experiments/Knapen_AOT/AOT_stimuli/pictures/1133_fw.png	110.50760388374329	0.7000541687011719
43	48.53246068954468	response	0	k		41.0	/experiments/Knapen_AOT/AOT_stimuli/pictures/1133_fw.png	111.1914393901825	
44	48.54867935180664	picture	0		110	42.0	/experiments/Knapen_AOT/AOT_stimuli/pictures/0197_fw.png	111.20765805244446	0.9249792098999023
44	49.457234382629395	response	0	j		42.0	/experiments/Knapen_AOT/AOT_stimuli/pictures/0197_fw.png	112.11621308326721	
45	49.47365856170654	picture	0		91	43.0	/experiments/Knapen_AOT/AOT_stimuli/pictures/1740_fw.png	112.13263726234436	0.7627956867218018
45	50.22385048866272	response	0	k		43.0	/experiments/Knapen_AOT/AOT_stimuli/pictures/1740_fw.png	112.88282918930054	
46	50.236454248428345	picture	0		94	44.0	/experiments/Knapen_AOT/AOT_stimuli/pictures/1764_fw.png	112.89543294906616	0.7847771644592285
46	51.0072226524353	response	0	j		44.0	/experiments/Knapen_AOT/AOT_stimuli/pictures/1764_fw.png	113.66620135307312	
47	51.02123141288757	picture	0		74	45.0	/experiments/Knapen_AOT/AOT_stimuli/pictures/2054_fw.png	113.68021011352539	0.6274430751800537
47	51.632174015045166	response	0	j		45.0	/experiments/Knapen_AOT/AOT_stimuli/pictures/2054_fw.png	114.29115271568298	
48	51.64867448806763	picture	0		78	46.0	/experiments/Knapen_AOT/AOT_stimuli/pictures/1524_fw.png	114.30765318870544	0.6502327919006348
48	52.28425860404968	response	0	j		46.0	/experiments/Knapen_AOT/AOT_stimuli/pictures/1524_fw.png	114.9432373046875	
49	52.29890727996826	picture	0		71	47.0	/experiments/Knapen_AOT/AOT_stimuli/pictures/0313_fw.png	114.95788598060608	0.5972623825073242
49	52.882277965545654	response	0	j		47.0	/experiments/Knapen_AOT/AOT_stimuli/pictures/0313_fw.png	115.54125666618347	
50	52.896169662475586	picture	0		124	48.0	/experiments/Knapen_AOT/AOT_stimuli/pictures/1281_fw.png	115.5551483631134	1.0441796779632568
50	53.92404842376709	response	0	k		48.0	/experiments/Knapen_AOT/AOT_stimuli/pictures/1281_fw.png	116.58302712440491	
51	53.94034934043884	picture	0		91	49.0	/experiments/Knapen_AOT/AOT_stimuli/pictures/0780_fw.png	116.59932804107666	0.7683329582214355
51	54.69080376625061	response	0	k		49.0	/experiments/Knapen_AOT/AOT_stimuli/pictures/0780_fw.png	117.34978246688843	
52	54.70868229866028	picture	0		101	50.0	/experiments/Knapen_AOT/AOT_stimuli/pictures/0875_fw.png	117.3676609992981	0.8402223587036133
52	55.54052972793579	response	0	k		50.0	/experiments/Knapen_AOT/AOT_stimuli/pictures/0875_fw.png	118.19950842857361	
53	55.54890465736389	picture	0		109	51.0	/experiments/Knapen_AOT/AOT_stimuli/pictures/1597_fw.png	118.20788335800171	0.916496992111206
53	56.44912576675415	response	0	j		51.0	/experiments/Knapen_AOT/AOT_stimuli/pictures/1597_fw.png	119.10810446739197	
54	56.4654016494751	picture	0		72	52.0	/experiments/Knapen_AOT/AOT_stimuli/pictures/0553_fw.png	119.12438035011292	0.6044073104858398
54	57.05722379684448	response	0	j		52.0	/experiments/Knapen_AOT/AOT_stimuli/pictures/0553_fw.png	119.7162024974823	
55	57.06980895996094	picture	0		131	53.0	/experiments/Knapen_AOT/AOT_stimuli/pictures/1801_fw.png	119.72878766059875	1.0902531147003174
55	58.14894127845764	response	0	k		53.0	/experiments/Knapen_AOT/AOT_stimuli/pictures/1801_fw.png	120.80791997909546	
56	58.160062074661255	picture	0		73	54.0	/experiments/Knapen_AOT/AOT_stimuli/pictures/1185_fw.png	120.81904077529907	0.6136763095855713
56	58.757261514663696	response	0	j		54.0	/experiments/Knapen_AOT/AOT_stimuli/pictures/1185_fw.png	121.41624021530151	
57	58.773738384246826	picture	0		115	55.0	/experiments/Knapen_AOT/AOT_stimuli/pictures/0829_fw.png	121.43271708488464	0.9627418518066406
57	59.723976850509644	response	0	k		55.0	/experiments/Knapen_AOT/AOT_stimuli/pictures/0829_fw.png	122.38295555114746	
58	59.73648023605347	picture	0		103	56.0	/experiments/Knapen_AOT/AOT_stimuli/pictures/1058_fw.png	122.39545893669128	0.8706226348876953
58	60.59062075614929	response	0	j		56.0	/experiments/Knapen_AOT/AOT_stimuli/pictures/1058_fw.png	123.24959945678711	
59	60.60710287094116	picture	0		116	57.0	/experiments/Knapen_AOT/AOT_stimuli/pictures/1193_fw.png	123.26608157157898	0.9750199317932129
59	61.565714597702026	response	0	k		57.0	/experiments/Knapen_AOT/AOT_stimuli/pictures/1193_fw.png	124.22469329833984	
60	61.582122802734375	picture	0		73	58.0	/experiments/Knapen_AOT/AOT_stimuli/pictures/1980_fw.png	124.24110150337219	0.612694501876831
60	62.18226099014282	response	0	j		58.0	/experiments/Knapen_AOT/AOT_stimuli/pictures/1980_fw.png	124.84123969078064	
61	62.194817304611206	picture	0		94	59.0	/experiments/Knapen_AOT/AOT_stimuli/pictures/0504_fw.png	124.85379600524902	0.7846729755401611
61	62.96563768386841	response	0	k		59.0	/experiments/Knapen_AOT/AOT_stimuli/pictures/0504_fw.png	125.62461638450623	
62	62.97949028015137	picture	0		87	60.0	/experiments/Knapen_AOT/AOT_stimuli/pictures/0319_fw.png	125.63846898078918	0.7291951179504395
62	63.69148230552673	response	0	k		60.0	/experiments/Knapen_AOT/AOT_stimuli/pictures/0319_fw.png	126.35046100616455	
63	63.70868539810181	picture	0		166	61.0	/experiments/Knapen_AOT/AOT_stimuli/pictures/1208_fw.png	126.36766409873962	1.3901350498199463
63	65.08297610282898	response	0	k		61.0	/experiments/Knapen_AOT/AOT_stimuli/pictures/1208_fw.png	127.7419548034668	
64	65.09882044792175	picture	0		86	62.0	/experiments/Knapen_AOT/AOT_stimuli/pictures/1782_fw.png	127.75779914855957	0.7210347652435303
64	65.80733704566956	response	0	j		62.0	/experiments/Knapen_AOT/AOT_stimuli/pictures/1782_fw.png	128.46631574630737	
65	65.81985521316528	picture	0		77	63.0	/experiments/Knapen_AOT/AOT_stimuli/pictures/1717_fw.png	128.4788339138031	0.6539525985717773
65	66.45737886428833	response	0	j		63.0	/experiments/Knapen_AOT/AOT_stimuli/pictures/1717_fw.png	129.11635756492615	
66	66.47380781173706	picture	0		73	64.0	/experiments/Knapen_AOT/AOT_stimuli/pictures/0212_fw.png	129.13278651237488	0.6167106628417969
66	67.07411694526672	response	0	j		64.0	/experiments/Knapen_AOT/AOT_stimuli/pictures/0212_fw.png	129.73309564590454	
67	67.09051847457886	picture	0		124	65.0	/experiments/Knapen_AOT/AOT_stimuli/pictures/1379_fw.png	129.74949717521667	1.0348742008209229
67	68.11574578285217	response	0	k		65.0	/experiments/Knapen_AOT/AOT_stimuli/pictures/1379_fw.png	130.77472448349	
68	68.12539267539978	picture	0		77	66.0	/experiments/Knapen_AOT/AOT_stimuli/pictures/1171_fw.png	130.7843713760376	0.6458156108856201
68	68.75742983818054	response	0	j		66.0	/experiments/Knapen_AOT/AOT_stimuli/pictures/1171_fw.png	131.41640853881836	
69	68.7712082862854	picture	0		81	67.0	/experiments/Knapen_AOT/AOT_stimuli/pictures/0482_fw.png	131.43018698692322	0.6806662082672119
69	69.44075655937195	response	0	j		67.0	/experiments/Knapen_AOT/AOT_stimuli/pictures/0482_fw.png	132.09973526000977	
70	69.45187449455261	picture	0		79	68.0	/experiments/Knapen_AOT/AOT_stimuli/pictures/0618_fw.png	132.11085319519043	0.6596255302429199
70	70.0914580821991	response	0	j		68.0	/experiments/Knapen_AOT/AOT_stimuli/pictures/0618_fw.png	132.7504367828369	
71	70.11150002479553	picture	0		85	69.0	/experiments/Knapen_AOT/AOT_stimuli/pictures/1034_fw.png	132.77047872543335	0.7123773097991943
71	70.8073673248291	response	0	k		69.0	/experiments/Knapen_AOT/AOT_stimuli/pictures/1034_fw.png	133.46634602546692	
72	70.82387733459473	picture	0		110	70.0	/experiments/Knapen_AOT/AOT_stimuli/pictures/1620_fw.png	133.48285603523254	0.9195830821990967
72	71.73243808746338	response	0	j		70.0	/experiments/Knapen_AOT/AOT_stimuli/pictures/1620_fw.png	134.3914167881012	
73	71.74346041679382	picture	0		101	71.0	/experiments/Knapen_AOT/AOT_stimuli/pictures/1345_fw.png	134.40243911743164	0.8402738571166992
73	72.57423114776611	response	0	k		71.0	/experiments/Knapen_AOT/AOT_stimuli/pictures/1345_fw.png	135.23320984840393	
74	72.58373427391052	picture	0		118	72.0	/experiments/Knapen_AOT/AOT_stimuli/pictures/0614_fw.png	135.24271297454834	0.990286111831665
74	73.55765342712402	response	0	k		72.0	/experiments/Knapen_AOT/AOT_stimuli/pictures/0614_fw.png	136.21663212776184	
75	73.57402038574219	picture	0		86	73.0	/experiments/Knapen_AOT/AOT_stimuli/pictures/0240_fw.png	136.23299908638	0.7180817127227783
75	74.27516794204712	response	0	j		73.0	/experiments/Knapen_AOT/AOT_stimuli/pictures/0240_fw.png	136.93414664268494	
76	74.29210209846497	picture	0		76	74.0	/experiments/Knapen_AOT/AOT_stimuli/pictures/2169_fw.png	136.95108079910278	0.6320767402648926
76	74.91582369804382	response	0	j		74.0	/experiments/Knapen_AOT/AOT_stimuli/pictures/2169_fw.png	137.57480239868164	
77	74.92417883872986	picture	0		78	75.0	/experiments/Knapen_AOT/AOT_stimuli/pictures/1144_fw.png	137.58315753936768	0.6580624580383301
77	75.56578493118286	response	0	j		75.0	/experiments/Knapen_AOT/AOT_stimuli/pictures/1144_fw.png	138.22476363182068	
78	75.58224129676819	picture	0		81	76.0	/experiments/Knapen_AOT/AOT_stimuli/pictures/1793_fw.png	138.241219997406	0.6751909255981445
78	76.24935269355774	response	0	k		76.0	/experiments/Knapen_AOT/AOT_stimuli/pictures/1793_fw.png	138.90833139419556	
79	76.25743222236633	picture	0		86	77.0	/experiments/Knapen_AOT/AOT_stimuli/pictures/1830_fw.png	138.91641092300415	0.7221469879150391
79	76.96607756614685	response	0	j		77.0	/experiments/Knapen_AOT/AOT_stimuli/pictures/1830_fw.png	139.62505626678467	
80	76.97957921028137	picture	0		106	78.0	/experiments/Knapen_AOT/AOT_stimuli/pictures/2025_fw.png	139.6385579109192	0.888948917388916
80	77.85775971412659	response	0	j		78.0	/experiments/Knapen_AOT/AOT_stimuli/pictures/2025_fw.png	140.5167384147644	
81	77.86852812767029	picture	0		85	79.0	/experiments/Knapen_AOT/AOT_stimuli/pictures/1100_fw.png	140.5275068283081	0.708303689956665
81	78.56586050987244	response	0	k		79.0	/experiments/Knapen_AOT/AOT_stimuli/pictures/1100_fw.png	141.22483921051025	
82	78.57683181762695	picture	0		118	80.0	/experiments/Knapen_AOT/AOT_stimuli/pictures/0877_fw.png	141.23581051826477	0.9861931800842285
82	79.54922318458557	response	0	k		80.0	/experiments/Knapen_AOT/AOT_stimuli/pictures/0877_fw.png	142.2082018852234	
83	79.56302499771118	picture	0		86	81.0	/experiments/Knapen_AOT/AOT_stimuli/pictures/0360_fw.png	142.222003698349	0.7276184558868408
83	80.2742440700531	response	0	k		81.0	/experiments/Knapen_AOT/AOT_stimuli/pictures/0360_fw.png	142.93322277069092	
84	80.29064345359802	picture	0		96	82.0	/experiments/Knapen_AOT/AOT_stimuli/pictures/2077_fw.png	142.94962215423584	0.8001542091369629
84	81.0754292011261	response	0	k		82.0	/experiments/Knapen_AOT/AOT_stimuli/pictures/2077_fw.png	143.73440790176392	
85	81.09079766273499	picture	0		97	83.0	/experiments/Knapen_AOT/AOT_stimuli/pictures/0597_fw.png	143.7497763633728	0.8165793418884277
85	81.88362646102905	response	0	k		83.0	/experiments/Knapen_AOT/AOT_stimuli/pictures/0597_fw.png	144.54260516166687	
86	81.90737700462341	picture	0		90	84.0	/experiments/Knapen_AOT/AOT_stimuli/pictures/1426_fw.png	144.56635570526123	0.7582709789276123
86	82.64942693710327	response	0	k		84.0	/experiments/Knapen_AOT/AOT_stimuli/pictures/1426_fw.png	145.3084056377411	
87	82.66564798355103	picture	0		223	85.0	/experiments/Knapen_AOT/AOT_stimuli/pictures/0629_fw.png	145.32462668418884	1.866701364517212
87	84.51586198806763	response	0	j		85.0	/experiments/Knapen_AOT/AOT_stimuli/pictures/0629_fw.png	147.17484068870544	
88	84.53234934806824	picture	0		101	86.0	/experiments/Knapen_AOT/AOT_stimuli/pictures/0906_fw.png	147.19132804870605	0.8431613445281982
88	85.36590766906738	response	0	k		86.0	/experiments/Knapen_AOT/AOT_stimuli/pictures/0906_fw.png	148.0248863697052	
89	85.37551069259644	picture	0		135	87.0	/experiments/Knapen_AOT/AOT_stimuli/pictures/1269_fw.png	148.03448939323425	1.1249384880065918
89	86.48370170593262	response	0	j		87.0	/experiments/Knapen_AOT/AOT_stimuli/pictures/1269_fw.png	149.14268040657043	
90	86.50044918060303	picture	0		85	88.0	/experiments/Knapen_AOT/AOT_stimuli/pictures/0965_fw.png	149.15942788124084	0.7154157161712646
90	87.19953465461731	response	0	j		88.0	/experiments/Knapen_AOT/AOT_stimuli/pictures/0965_fw.png	149.85851335525513	
91	87.21586489677429	picture	0		129	89.0	/experiments/Knapen_AOT/AOT_stimuli/pictures/1235_fw.png	149.8748435974121	1.0762922763824463
91	88.28281426429749	response	0	k		89.0	/experiments/Knapen_AOT/AOT_stimuli/pictures/1235_fw.png	150.9417929649353	
92	88.29215717315674	picture	0		95	90.0	/experiments/Knapen_AOT/AOT_stimuli/pictures/1954_fw.png	150.95113587379456	0.7916851043701172
92	89.06772518157959	response	0	j		90.0	/experiments/Knapen_AOT/AOT_stimuli/pictures/1954_fw.png	151.7267038822174	
93	89.08384227752686	picture	0		104	91.0	/experiments/Knapen_AOT/AOT_stimuli/pictures/0800_fw.png	151.74282097816467	0.8681187629699707
93	89.94095921516418	response	0	k		91.0	/experiments/Knapen_AOT/AOT_stimuli/pictures/0800_fw.png	152.599937915802	
94	89.95196104049683	picture	0		86	92.0	/experiments/Knapen_AOT/AOT_stimuli/pictures/0718_fw.png	152.61093974113464	0.7222509384155273
94	90.65766429901123	response	0	j		92.0	/experiments/Knapen_AOT/AOT_stimuli/pictures/0718_fw.png	153.31664299964905	
95	90.67421197891235	picture	0		89	93.0	/experiments/Knapen_AOT/AOT_stimuli/pictures/1520_fw.png	153.33319067955017	0.7429533004760742
95	91.40765404701233	response	0	k		93.0	/experiments/Knapen_AOT/AOT_stimuli/pictures/1520_fw.png	154.06663274765015	
96	91.41716527938843	picture	0		82	94.0	/experiments/Knapen_AOT/AOT_stimuli/pictures/1077_fw.png	154.07614398002625	0.6902797222137451
96	92.09172487258911	response	0	j		94.0	/experiments/Knapen_AOT/AOT_stimuli/pictures/1077_fw.png	154.75070357322693	
97	92.10744500160217	picture	0		86	95.0	/experiments/Knapen_AOT/AOT_stimuli/pictures/1295_fw.png	154.76642370224	0.7249965667724609
97	92.81594014167786	response	0	j		95.0	/experiments/Knapen_AOT/AOT_stimuli/pictures/1295_fw.png	155.47491884231567	
98	92.83244156837463	picture	0		73	96.0	/experiments/Knapen_AOT/AOT_stimuli/pictures/0110_fw.png	155.49142026901245	0.6167166233062744
98	93.43265295028687	response	0	k		96.0	/experiments/Knapen_AOT/AOT_stimuli/pictures/0110_fw.png	156.09163165092468	
99	93.44915819168091	picture	0		91	97.0	/experiments/Knapen_AOT/AOT_stimuli/pictures/0016_fw.png	156.10813689231873	0.759706974029541
99	94.19924974441528	response	0	j		97.0	/experiments/Knapen_AOT/AOT_stimuli/pictures/0016_fw.png	156.8582284450531	
100	94.20886516571045	picture	0		110	98.0	/experiments/Knapen_AOT/AOT_stimuli/pictures/0425_fw.png	156.86784386634827	0.916677713394165
100	95.11612367630005	response	0	k		98.0	/experiments/Knapen_AOT/AOT_stimuli/pictures/0425_fw.png	157.77510237693787	
101	95.12554287910461	picture	0		93	99.0	/experiments/Knapen_AOT/AOT_stimuli/pictures/1555_fw.png	157.78452157974243	0.7778210639953613
101	95.8836042881012	response	0	k		99.0	/experiments/Knapen_AOT/AOT_stimuli/pictures/1555_fw.png	158.542582988739	
102	95.90336394309998	picture	0		74	100.0	/experiments/Knapen_AOT/AOT_stimuli/pictures/0744_fw.png	158.5623426437378	0.6207873821258545
102	96.5077714920044	response	0	k		100.0	/experiments/Knapen_AOT/AOT_stimuli/pictures/0744_fw.png	159.1667501926422	
103	96.52415132522583	picture	0		84	101.0	/experiments/Knapen_AOT/AOT_stimuli/pictures/0131_fw.png	159.18313002586365	0.7055883407592773
103	97.21609234809875	response	0	j		101.0	/experiments/Knapen_AOT/AOT_stimuli/pictures/0131_fw.png	159.87507104873657	
104	97.22973966598511	picture	0		74	102.0	/experiments/Knapen_AOT/AOT_stimuli/pictures/0754_fw.png	159.88871836662292	0.624993085861206
104	97.84115219116211	response	0	j		102.0	/experiments/Knapen_AOT/AOT_stimuli/pictures/0754_fw.png	160.50013089179993	
105	97.85473275184631	picture	0		101	103.0	/experiments/Knapen_AOT/AOT_stimuli/pictures/1942_fw.png	160.51371145248413	0.8472332954406738
105	98.69121599197388	response	0	j		103.0	/experiments/Knapen_AOT/AOT_stimuli/pictures/1942_fw.png	161.3501946926117	
106	98.70196604728699	picture	0		88	104.0	/experiments/Knapen_AOT/AOT_stimuli/pictures/0143_fw.png	161.3609447479248	0.7360846996307373
106	99.42447447776794	response	0	k		104.0	/experiments/Knapen_AOT/AOT_stimuli/pictures/0143_fw.png	162.08345317840576	
107	99.43805074691772	picture	0		96	105.0	/experiments/Knapen_AOT/AOT_stimuli/pictures/1604_fw.png	162.09702944755554	0.8055720329284668
107	100.23280072212219	response	0	k		105.0	/experiments/Knapen_AOT/AOT_stimuli/pictures/1604_fw.png	162.89177942276	
108	100.24362277984619	picture	0		79	106.0	/experiments/Knapen_AOT/AOT_stimuli/pictures/0584_fw.png	162.902601480484	0.6639671325683594
108	100.89139795303345	response	0	k		106.0	/experiments/Knapen_AOT/AOT_stimuli/pictures/0584_fw.png	163.55037665367126	
109	100.90758991241455	picture	0		78	107.0	/experiments/Knapen_AOT/AOT_stimuli/pictures/0242_fw.png	163.56656861305237	0.6554872989654541
109	101.54945015907288	response	0	k		107.0	/experiments/Knapen_AOT/AOT_stimuli/pictures/0242_fw.png	164.2084288597107	
110	101.56307721138	picture	0		97	108.0	/experiments/Knapen_AOT/AOT_stimuli/pictures/0649_fw.png	164.22205591201782	0.8125050067901611
110	102.36618828773499	response	0	j		108.0	/experiments/Knapen_AOT/AOT_stimuli/pictures/0649_fw.png	165.0251669883728	
111	102.37558221817017	picture	0		88	109.0	/experiments/Knapen_AOT/AOT_stimuli/pictures/1049_fw.png	165.03456091880798	0.7361817359924316
111	103.09942674636841	response	0	j		109.0	/experiments/Knapen_AOT/AOT_stimuli/pictures/1049_fw.png	165.75840544700623	
112	103.1117639541626	picture	0		98	110.0	/experiments/Knapen_AOT/AOT_stimuli/pictures/1900_fw.png	165.77074265480042	0.8124961853027344
112	103.91613388061523	response	0	j		110.0	/experiments/Knapen_AOT/AOT_stimuli/pictures/1900_fw.png	166.57511258125305	
113	103.92426013946533	picture	0		97	111.0	/experiments/Knapen_AOT/AOT_stimuli/pictures/1303_fw.png	166.58323884010315	0.812523603439331
113	104.72444200515747	response	0	k		111.0	/experiments/Knapen_AOT/AOT_stimuli/pictures/1303_fw.png	167.3834207057953	
114	104.73678374290466	picture	0		78	112.0	/experiments/Knapen_AOT/AOT_stimuli/pictures/1535_fw.png	167.39576244354248	0.6541481018066406
114	105.37451601028442	response	0	j		112.0	/experiments/Knapen_AOT/AOT_stimuli/pictures/1535_fw.png	168.03349471092224	
115	105.3909318447113	picture	0		142	113.0	/experiments/Knapen_AOT/AOT_stimuli/pictures/0782_fw.png	168.04991054534912	1.1861002445220947
115	106.56618475914001	response	0	k		113.0	/experiments/Knapen_AOT/AOT_stimuli/pictures/0782_fw.png	169.22516345977783	
116	106.5770320892334	picture	0		81	114.0	/experiments/Knapen_AOT/AOT_stimuli/pictures/1474_fw.png	169.23601078987122	0.67356276512146
116	107.24114799499512	response	0	j		114.0	/experiments/Knapen_AOT/AOT_stimuli/pictures/1474_fw.png	169.90012669563293	
117	107.25059485435486	picture	0		73	115.0	/experiments/Knapen_AOT/AOT_stimuli/pictures/1251_fw.png	169.90957355499268	0.611182689666748
117	107.84953188896179	response	0	j		115.0	/experiments/Knapen_AOT/AOT_stimuli/pictures/1251_fw.png	170.5085105895996	
118	107.8617775440216	picture	0		87	116.0	/experiments/Knapen_AOT/AOT_stimuli/pictures/1499_fw.png	170.52075624465942	0.7292575836181641
118	108.57475876808167	response	0	k		116.0	/experiments/Knapen_AOT/AOT_stimuli/pictures/1499_fw.png	171.23373746871948	
119	108.59103512763977	picture	0		83	117.0	/experiments/Knapen_AOT/AOT_stimuli/pictures/1115_fw.png	171.2500138282776	0.6999301910400391
119	109.27453994750977	response	0	j		117.0	/experiments/Knapen_AOT/AOT_stimuli/pictures/1115_fw.png	171.93351864814758	
120	109.29096531867981	picture	0		110	118.0	/experiments/Knapen_AOT/AOT_stimuli/pictures/1076_fw.png	171.94994401931763	0.9250385761260986
120	110.19964146614075	response	0	k		118.0	/experiments/Knapen_AOT/AOT_stimuli/pictures/1076_fw.png	172.85862016677856	
121	110.21600389480591	picture	0		74	119.0	/experiments/Knapen_AOT/AOT_stimuli/pictures/0661_fw.png	172.87498259544373	0.6179840564727783
121	110.82454538345337	response	0	k		119.0	/experiments/Knapen_AOT/AOT_stimuli/pictures/0661_fw.png	173.4835240840912	
122	110.83398795127869	picture	0		76	120.0	/experiments/Knapen_AOT/AOT_stimuli/pictures/0301_fw.png	173.4929666519165	0.6319842338562012
122	111.45785546302795	response	0	j		120.0	/experiments/Knapen_AOT/AOT_stimuli/pictures/0301_fw.png	174.11683416366577	
123	111.46597218513489	picture	0		81	121.0	/experiments/Knapen_AOT/AOT_stimuli/pictures/1210_fw.png	174.1249508857727	0.6833875179290771
123	112.13285398483276	response	0	j		121.0	/experiments/Knapen_AOT/AOT_stimuli/pictures/1210_fw.png	174.79183268547058	
124	112.14935970306396	picture	0		66	122.0	/experiments/Knapen_AOT/AOT_stimuli/pictures/0071_fw.png	174.80833840370178	0.5527722835540771
124	112.68384170532227	response	0	j		122.0	/experiments/Knapen_AOT/AOT_stimuli/pictures/0071_fw.png	175.34282040596008	
125	112.70213198661804	picture	0		74	123.0	/experiments/Knapen_AOT/AOT_stimuli/pictures/0532_fw.png	175.36111068725586	0.6179661750793457
125	113.30792117118835	response	0	j		123.0	/experiments/Knapen_AOT/AOT_stimuli/pictures/0532_fw.png	175.96689987182617	
126	113.32009816169739	picture	0		77	124.0	/experiments/Knapen_AOT/AOT_stimuli/pictures/1525_fw.png	175.9790768623352	0.6388835906982422
126	113.94957900047302	response	0	j		124.0	/experiments/Knapen_AOT/AOT_stimuli/pictures/1525_fw.png	176.60855770111084	
127	113.95898175239563	picture	0		86	125.0	/experiments/Knapen_AOT/AOT_stimuli/pictures/0664_fw.png	176.61796045303345	0.7153720855712891
127	114.66623663902283	response	0	k		125.0	/experiments/Knapen_AOT/AOT_stimuli/pictures/0664_fw.png	177.32521533966064	
128	114.67435383796692	picture	0		80	126.0	/experiments/Knapen_AOT/AOT_stimuli/pictures/1301_fw.png	177.33333253860474	0.6666879653930664
128	115.33294486999512	response	0	j		126.0	/experiments/Knapen_AOT/AOT_stimuli/pictures/1301_fw.png	177.99192357063293	
129	115.34104180335999	picture	0		111	127.0	/experiments/Knapen_AOT/AOT_stimuli/pictures/1897_fw.png	178.0000205039978	0.9333417415618896
129	116.25794076919556	response	0	k		127.0	/experiments/Knapen_AOT/AOT_stimuli/pictures/1897_fw.png	178.91691946983337	
130	116.27438354492188	picture	0		84	128.0	/experiments/Knapen_AOT/AOT_stimuli/pictures/0276_fw.png	178.9333622455597	0.7054450511932373
130	116.96623182296753	response	0	k		128.0	/experiments/Knapen_AOT/AOT_stimuli/pictures/0276_fw.png	179.62521052360535	
131	116.97982859611511	picture	0		97	129.0	/experiments/Knapen_AOT/AOT_stimuli/pictures/0311_fw.png	179.63880729675293	0.812518835067749
131	117.78290700912476	response	0	k		129.0	/experiments/Knapen_AOT/AOT_stimuli/pictures/0311_fw.png	180.44188570976257	
132	117.79234743118286	picture	0		76	130.0	/experiments/Knapen_AOT/AOT_stimuli/pictures/1059_fw.png	180.45132613182068	0.6320381164550781
132	118.41625666618347	response	0	j		130.0	/experiments/Knapen_AOT/AOT_stimuli/pictures/1059_fw.png	181.0752353668213	
133	118.42438554763794	picture	0		101	131.0	/experiments/Knapen_AOT/AOT_stimuli/pictures/0722_fw.png	181.08336424827576	0.8470895290374756
133	119.25793385505676	response	0	j		131.0	/experiments/Knapen_AOT/AOT_stimuli/pictures/0722_fw.png	181.91691255569458	
134	119.27147507667542	picture	0		67	132.0	/experiments/Knapen_AOT/AOT_stimuli/pictures/0124_fw.png	181.93045377731323	0.5696098804473877
134	119.82462787628174	response	0	j		132.0	/experiments/Knapen_AOT/AOT_stimuli/pictures/0124_fw.png	182.48360657691956	
135	119.8410849571228	picture	0		76	133.0	/experiments/Knapen_AOT/AOT_stimuli/pictures/1544_fw.png	182.50006365776062	0.6417183876037598
135	120.46632742881775	response	0	j		133.0	/experiments/Knapen_AOT/AOT_stimuli/pictures/1544_fw.png	183.12530612945557	
136	120.48280334472656	picture	0		97	134.0	/experiments/Knapen_AOT/AOT_stimuli/pictures/1462_fw.png	183.14178204536438	0.8095614910125732
136	121.27636528015137	response	0	j		134.0	/experiments/Knapen_AOT/AOT_stimuli/pictures/1462_fw.png	183.93534398078918	
137	121.29236483573914	picture	0		84	135.0	/experiments/Knapen_AOT/AOT_stimuli/pictures/1370_fw.png	183.95134353637695	0.7013993263244629
137	121.9830572605133	response	0	j		135.0	/experiments/Knapen_AOT/AOT_stimuli/pictures/1370_fw.png	184.64203596115112	
138	121.9937641620636	picture	0		91	136.0	/experiments/Knapen_AOT/AOT_stimuli/pictures/1885_fw.png	184.65274286270142	0.7640423774719238
138	122.74141144752502	response	0	k		136.0	/experiments/Knapen_AOT/AOT_stimuli/pictures/1885_fw.png	185.40039014816284	
139	122.75780653953552	picture	0		89	137.0	/experiments/Knapen_AOT/AOT_stimuli/pictures/1797_fw.png	185.41678524017334	0.7429687976837158
139	123.48372483253479	response	0	j		137.0	/experiments/Knapen_AOT/AOT_stimuli/pictures/1797_fw.png	186.1427035331726	
140	123.50077533721924	picture	0		86	138.0	/experiments/Knapen_AOT/AOT_stimuli/pictures/1373_fw.png	186.15975403785706	0.723808765411377
140	124.20803761482239	response	0	j		138.0	/experiments/Knapen_AOT/AOT_stimuli/pictures/1373_fw.png	186.8670163154602	
141	124.22458410263062	picture	0		79	139.0	/experiments/Knapen_AOT/AOT_stimuli/pictures/0492_fw.png	186.88356280326843	0.6582145690917969
141	124.8674967288971	response	0	j		139.0	/experiments/Knapen_AOT/AOT_stimuli/pictures/0492_fw.png	187.5264754295349	
142	124.88279867172241	picture	0		86	140.0	/experiments/Knapen_AOT/AOT_stimuli/pictures/1106_fw.png	187.54177737236023	0.7221505641937256
142	125.59141182899475	response	0	k		140.0	/experiments/Knapen_AOT/AOT_stimuli/pictures/1106_fw.png	188.25039052963257	
143	125.60494923591614	picture	0		90	141.0	/experiments/Knapen_AOT/AOT_stimuli/pictures/1315_fw.png	188.26392793655396	0.7570247650146484
143	126.34967708587646	response	0	k		141.0	/experiments/Knapen_AOT/AOT_stimuli/pictures/1315_fw.png	189.00865578651428	
144	126.36197400093079	picture	0		97	142.0	/experiments/Knapen_AOT/AOT_stimuli/pictures/2063_fw.png	189.0209527015686	0.8054513931274414
144	127.15803861618042	response	0	j		142.0	/experiments/Knapen_AOT/AOT_stimuli/pictures/2063_fw.png	189.81701731681824	
145	127.16742539405823	picture	0		92	143.0	/experiments/Knapen_AOT/AOT_stimuli/pictures/0652_fw.png	189.82640409469604	0.7707924842834473
145	127.92473196983337	response	0	j		143.0	/experiments/Knapen_AOT/AOT_stimuli/pictures/0652_fw.png	190.5837106704712	
146	127.93821787834167	picture	0		96	144.0	/experiments/Knapen_AOT/AOT_stimuli/pictures/2003_fw.png	190.5971965789795	0.8113489151000977
146	128.73309183120728	response	0	j		144.0	/experiments/Knapen_AOT/AOT_stimuli/pictures/2003_fw.png	191.3920705318451	
147	128.74956679344177	picture	0		105	145.0	/experiments/Knapen_AOT/AOT_stimuli/pictures/1571_fw.png	191.4085454940796	0.8833367824554443
147	129.6165337562561	response	0	k		145.0	/experiments/Knapen_AOT/AOT_stimuli/pictures/1571_fw.png	192.27551245689392	
148	129.63290357589722	picture	0		82	146.0	/experiments/Knapen_AOT/AOT_stimuli/pictures/1799_fw.png	192.29188227653503	0.687328577041626
148	130.30811595916748	response	0	j		146.0	/experiments/Knapen_AOT/AOT_stimuli/pictures/1799_fw.png	192.9670946598053	
149	130.32023215293884	picture	0		118	147.0	/experiments/Knapen_AOT/AOT_stimuli/pictures/1710_fw.png	192.97921085357666	0.9792995452880859
149	131.29162406921387	response	0	k		147.0	/experiments/Knapen_AOT/AOT_stimuli/pictures/1710_fw.png	193.95060276985168	
150	131.29953169822693	picture	0		115	148.0	/experiments/Knapen_AOT/AOT_stimuli/pictures/1590_fw.png	193.95851039886475	0.9583532810211182
150	132.2498321533203	response	0	k		148.0	/experiments/Knapen_AOT/AOT_stimuli/pictures/1590_fw.png	194.90881085395813	
151	132.25788497924805	picture	0		102	149.0	/experiments/Knapen_AOT/AOT_stimuli/pictures/0014_fw.png	194.91686367988586	0.8540401458740234
151	133.0997850894928	response	0	k		149.0	/experiments/Knapen_AOT/AOT_stimuli/pictures/0014_fw.png	195.75876379013062	
152	133.11192512512207	picture	0		157	150.0	/experiments/Knapen_AOT/AOT_stimuli/pictures/1565_fw.png	195.7709038257599	1.3127422332763672
152	134.40828371047974	response	0	j		150.0	/experiments/Knapen_AOT/AOT_stimuli/pictures/1565_fw.png	197.06726241111755	
153	134.42466735839844	picture	0		142	151.0	/experiments/Knapen_AOT/AOT_stimuli/pictures/1776_fw.png	197.08364605903625	1.1872401237487793
153	135.5998010635376	response	0	k		151.0	/experiments/Knapen_AOT/AOT_stimuli/pictures/1776_fw.png	198.25877976417542	
154	135.61190748214722	picture	0		105	152.0	/experiments/Knapen_AOT/AOT_stimuli/pictures/0616_fw.png	198.27088618278503	0.8877427577972412
154	136.47576332092285	response	0	j		152.0	/experiments/Knapen_AOT/AOT_stimuli/pictures/0616_fw.png	199.13474202156067	
155	136.49965023994446	picture	0		81	153.0	/experiments/Knapen_AOT/AOT_stimuli/pictures/1599_fw.png	199.15862894058228	0.6749532222747803
155	137.16651034355164	response	0	j		153.0	/experiments/Knapen_AOT/AOT_stimuli/pictures/1599_fw.png	199.82548904418945	
156	137.17460346221924	picture	0		108	154.0	/experiments/Knapen_AOT/AOT_stimuli/pictures/0104_fw.png	199.83358216285706	0.9084410667419434
156	138.06649589538574	response	0	k		154.0	/experiments/Knapen_AOT/AOT_stimuli/pictures/0104_fw.png	200.72547459602356	
157	138.08304452896118	picture	0		135	155.0	/experiments/Knapen_AOT/AOT_stimuli/pictures/0558_fw.png	200.742023229599	1.1260921955108643
157	139.19983959197998	response	0	j		155.0	/experiments/Knapen_AOT/AOT_stimuli/pictures/0558_fw.png	201.8588182926178	
158	139.20913672447205	picture	0		77	156.0	/experiments/Knapen_AOT/AOT_stimuli/pictures/1169_fw.png	201.86811542510986	0.6488697528839111
158	139.8417227268219	response	0	k		156.0	/experiments/Knapen_AOT/AOT_stimuli/pictures/1169_fw.png	202.50070142745972	
159	139.85800647735596	picture	0		168	157.0	/experiments/Knapen_AOT/AOT_stimuli/pictures/0520_fw.png	202.51698517799377	1.4083614349365234
159	141.2499418258667	response	0	j		157.0	/experiments/Knapen_AOT/AOT_stimuli/pictures/0520_fw.png	203.90892052650452	
160	141.26636791229248	picture	0		109	158.0	/experiments/Knapen_AOT/AOT_stimuli/pictures/1429_fw.png	203.9253466129303	0.9166598320007324
160	142.16656684875488	response	0	k		158.0	/experiments/Knapen_AOT/AOT_stimuli/pictures/1429_fw.png	204.8255455493927	
161	142.1830277442932	picture	0		88	159.0	/experiments/Knapen_AOT/AOT_stimuli/pictures/0151_fw.png	204.84200644493103	0.7416877746582031
161	142.90824723243713	response	0	k		159.0	/experiments/Knapen_AOT/AOT_stimuli/pictures/0151_fw.png	205.56722593307495	
162	142.92471551895142	picture	0		73	160.0	/experiments/Knapen_AOT/AOT_stimuli/pictures/0768_fw.png	205.58369421958923	0.6166810989379883
162	143.52501320838928	response	0	k		160.0	/experiments/Knapen_AOT/AOT_stimuli/pictures/0768_fw.png	206.1839919090271	
163	143.5413966178894	picture	0		127	161.0	/experiments/Knapen_AOT/AOT_stimuli/pictures/0665_fw.png	206.20037531852722	1.0636439323425293
163	144.59156227111816	response	0	j		161.0	/experiments/Knapen_AOT/AOT_stimuli/pictures/0665_fw.png	207.25054097175598	
164	144.60504055023193	picture	0		79	162.0	/experiments/Knapen_AOT/AOT_stimuli/pictures/1654_fw.png	207.26401925086975	0.6666462421417236
164	145.2583885192871	response	0	k		162.0	/experiments/Knapen_AOT/AOT_stimuli/pictures/1654_fw.png	207.91736721992493	
165	145.27168679237366	picture	0		93	163.0	/experiments/Knapen_AOT/AOT_stimuli/pictures/0575_fw.png	207.93066549301147	0.7863850593566895
165	146.04167675971985	response	0	k		163.0	/experiments/Knapen_AOT/AOT_stimuli/pictures/0575_fw.png	208.70065546035767	
166	146.05807185173035	picture	0		102	164.0	/experiments/Knapen_AOT/AOT_stimuli/pictures/0832_fw.png	208.71705055236816	0.85257887840271
166	146.90002703666687	response	0	k		164.0	/experiments/Knapen_AOT/AOT_stimuli/pictures/0832_fw.png	209.5590057373047	
167	146.91065073013306	picture	0		88	165.0	/experiments/Knapen_AOT/AOT_stimuli/pictures/1070_fw.png	209.56962943077087	0.7391045093536377
167	147.63327145576477	response	0	k		165.0	/experiments/Knapen_AOT/AOT_stimuli/pictures/1070_fw.png	210.2922501564026	
168	147.6497552394867	picture	0		90	166.0	/experiments/Knapen_AOT/AOT_stimuli/pictures/1612_fw.png	210.3087339401245	0.7539114952087402
168	148.39161801338196	response	0	j		166.0	/experiments/Knapen_AOT/AOT_stimuli/pictures/1612_fw.png	211.05059671401978	
169	148.40366673469543	picture	0		109	167.0	/experiments/Knapen_AOT/AOT_stimuli/pictures/0636_fw.png	211.06264543533325	0.9127836227416992
169	149.29999423027039	response	0	j		167.0	/experiments/Knapen_AOT/AOT_stimuli/pictures/0636_fw.png	211.9589729309082	
170	149.31645035743713	picture	0		94	168.0	/experiments/Knapen_AOT/AOT_stimuli/pictures/1543_fw.png	211.97542905807495	0.7916686534881592
170	150.09163641929626	response	0	j		168.0	/experiments/Knapen_AOT/AOT_stimuli/pictures/1543_fw.png	212.75061511993408	
171	150.1081190109253	picture	0		90	169.0	/experiments/Knapen_AOT/AOT_stimuli/pictures/0140_fw.png	212.7670977115631	0.7538855075836182
171	150.84999537467957	response	0	k		169.0	/experiments/Knapen_AOT/AOT_stimuli/pictures/0140_fw.png	213.50897407531738	
172	150.8620045185089	picture	0		99	170.0	/experiments/Knapen_AOT/AOT_stimuli/pictures/1179_fw.png	213.52098321914673	0.8263976573944092
172	151.66739177703857	response	0	k		170.0	/experiments/Knapen_AOT/AOT_stimuli/pictures/1179_fw.png	214.3263704776764	
173	151.68840217590332	picture	0		78	171.0	/experiments/Knapen_AOT/AOT_stimuli/pictures/0696_fw.png	214.34738087654114	0.6614148616790771
173	152.3333761692047	response	0	k		171.0	/experiments/Knapen_AOT/AOT_stimuli/pictures/0696_fw.png	214.99235486984253	
174	152.3498170375824	picture	0		61	172.0	/experiments/Knapen_AOT/AOT_stimuli/pictures/0047_fw.png	215.00879573822021	0.6441752910614014
174	152.98332977294922	response	0	j		172.0	/experiments/Knapen_AOT/AOT_stimuli/pictures/0047_fw.png	215.64230847358704	
175	152.9939923286438	picture	0		84	173.0	/experiments/Knapen_AOT/AOT_stimuli/pictures/1880_fw.png	215.65297102928162	0.7058625221252441
175	153.6759934425354	response	0	j		173.0	/experiments/Knapen_AOT/AOT_stimuli/pictures/1880_fw.png	216.33497214317322	
176	153.69985485076904	picture	0		76	174.0	/experiments/Knapen_AOT/AOT_stimuli/pictures/0801_fw.png	216.35883355140686	0.6416282653808594
176	154.32510137557983	response	0	j		174.0	/experiments/Knapen_AOT/AOT_stimuli/pictures/0801_fw.png	216.98408007621765	
177	154.3414831161499	picture	0		90	175.0	/experiments/Knapen_AOT/AOT_stimuli/pictures/0189_fw.png	217.00046181678772	0.7566852569580078
177	155.0762231349945	response	0	k		175.0	/experiments/Knapen_AOT/AOT_stimuli/pictures/0189_fw.png	217.73520183563232	
178	155.0981683731079	picture	0		69	176.0	/experiments/Knapen_AOT/AOT_stimuli/pictures/1659_fw.png	217.75714707374573	0.576653003692627
178	155.65929412841797	response	0	j		176.0	/experiments/Knapen_AOT/AOT_stimuli/pictures/1659_fw.png	218.3182728290558	
179	155.67482137680054	picture	0		84	177.0	/experiments/Knapen_AOT/AOT_stimuli/pictures/1629_fw.png	218.33380007743835	0.7011313438415527
179	156.36670446395874	response	0	k		177.0	/experiments/Knapen_AOT/AOT_stimuli/pictures/1629_fw.png	219.02568316459656	
180	156.3759527206421	picture	0		86	178.0	/experiments/Knapen_AOT/AOT_stimuli/pictures/0349_fw.png	219.0349314212799	0.722257137298584
180	157.08338356018066	response	0	k		178.0	/experiments/Knapen_AOT/AOT_stimuli/pictures/0349_fw.png	219.74236226081848	
181	157.09820985794067	picture	0		80	179.0	/experiments/Knapen_AOT/AOT_stimuli/pictures/1647_fw.png	219.7571885585785	0.6767163276672363
181	157.75840878486633	response	0	j		179.0	/experiments/Knapen_AOT/AOT_stimuli/pictures/1647_fw.png	220.41738748550415	
182	157.7749261856079	picture	0		71	180.0	/experiments/Knapen_AOT/AOT_stimuli/pictures/1628_fw.png	220.43390488624573	0.6000404357910156
182	158.35852336883545	response	0	k		180.0	/experiments/Knapen_AOT/AOT_stimuli/pictures/1628_fw.png	221.01750206947327	
183	158.37496662139893	picture	0		79	181.0	/experiments/Knapen_AOT/AOT_stimuli/pictures/0527_fw.png	221.03394532203674	0.6607072353363037
183	159.02506399154663	response	0	j		181.0	/experiments/Knapen_AOT/AOT_stimuli/pictures/0527_fw.png	221.68404269218445	
184	159.03567385673523	picture	0		84	182.0	/experiments/Knapen_AOT/AOT_stimuli/pictures/0611_fw.png	221.69465255737305	0.705878734588623
184	159.72511672973633	response	0	j		182.0	/experiments/Knapen_AOT/AOT_stimuli/pictures/0611_fw.png	222.38409543037415	
185	159.74155259132385	picture	0		91	183.0	/experiments/Knapen_AOT/AOT_stimuli/pictures/0988_fw.png	222.40053129196167	0.7666833400726318
185	160.49180054664612	response	0	j		183.0	/experiments/Knapen_AOT/AOT_stimuli/pictures/0988_fw.png	223.15077924728394	
186	160.50823593139648	picture	0		73	184.0	/experiments/Knapen_AOT/AOT_stimuli/pictures/0385_fw.png	223.1672146320343	0.6107914447784424
186	161.10854196548462	response	0	k		184.0	/experiments/Knapen_AOT/AOT_stimuli/pictures/0385_fw.png	223.76752066612244	
187	161.11902737617493	picture	0		100	185.0	/experiments/Knapen_AOT/AOT_stimuli/pictures/1910_fw.png	223.77800607681274	0.8334026336669922
187	161.94179344177246	response	0	j		185.0	/experiments/Knapen_AOT/AOT_stimuli/pictures/1910_fw.png	224.60077214241028	
188	161.95243000984192	picture	0		76	186.0	/experiments/Knapen_AOT/AOT_stimuli/pictures/0073_fw.png	224.61140871047974	0.6391904354095459
188	162.5752453804016	response	0	j		186.0	/experiments/Knapen_AOT/AOT_stimuli/pictures/0073_fw.png	225.23422408103943	
189	162.59162044525146	picture	0		138	187.0	/experiments/Knapen_AOT/AOT_stimuli/pictures/1137_fw.png	225.25059914588928	1.1583659648895264
189	163.7335090637207	response	0	k		187.0	/experiments/Knapen_AOT/AOT_stimuli/pictures/1137_fw.png	226.39248776435852	
190	163.749986410141	picture	0		75	188.0	/experiments/Knapen_AOT/AOT_stimuli/pictures/1662_fw.png	226.4089651107788	0.6333086490631104
190	164.36682510375977	response	0	k		188.0	/experiments/Knapen_AOT/AOT_stimuli/pictures/1662_fw.png	227.02580380439758	
191	164.3832950592041	picture	0		103	189.0	/experiments/Knapen_AOT/AOT_stimuli/pictures/0634_fw.png	227.04227375984192	0.8666963577270508
191	165.23354625701904	response	0	j		189.0	/experiments/Knapen_AOT/AOT_stimuli/pictures/0634_fw.png	227.89252495765686	
192	165.24999141693115	picture	0		95	190.0	/experiments/Knapen_AOT/AOT_stimuli/pictures/1126_fw.png	227.90897011756897	0.7926461696624756
192	166.03347945213318	response	0	k		190.0	/experiments/Knapen_AOT/AOT_stimuli/pictures/1126_fw.png	228.692458152771	
193	166.04263758659363	picture	0		83	191.0	/experiments/Knapen_AOT/AOT_stimuli/pictures/1534_fw.png	228.70161628723145	0.6990101337432861
193	166.72560000419617	response	0	j		191.0	/experiments/Knapen_AOT/AOT_stimuli/pictures/1534_fw.png	229.38457870483398	
194	166.7416477203369	picture	0		83	192.0	/experiments/Knapen_AOT/AOT_stimuli/pictures/1401_fw.png	229.40062642097473	0.6968634128570557
194	167.4251594543457	response	0	j		192.0	/experiments/Knapen_AOT/AOT_stimuli/pictures/1401_fw.png	230.08413815498352	
195	167.43851113319397	picture	0		98	193.0	/experiments/Knapen_AOT/AOT_stimuli/pictures/0055_fw.png	230.0974898338318	0.8281738758087158
195	168.250257730484	response	0	k		193.0	/experiments/Knapen_AOT/AOT_stimuli/pictures/0055_fw.png	230.90923643112183	
196	168.26668500900269	picture	0		114	194.0	/experiments/Knapen_AOT/AOT_stimuli/pictures/2130_fw.png	230.9256637096405	0.9583444595336914
196	169.20850658416748	response	0	j		194.0	/experiments/Knapen_AOT/AOT_stimuli/pictures/2130_fw.png	231.8674852848053	
197	169.22502946853638	picture	0		97	195.0	/experiments/Knapen_AOT/AOT_stimuli/pictures/0325_fw.png	231.8840081691742	0.8107273578643799
197	170.02519154548645	response	0	j		195.0	/experiments/Knapen_AOT/AOT_stimuli/pictures/0325_fw.png	232.68417024612427	
198	170.03575682640076	picture	0		96	196.0	/experiments/Knapen_AOT/AOT_stimuli/pictures/0266_fw.png	232.69473552703857	0.7985892295837402
198	170.82518935203552	response	0	j		196.0	/experiments/Knapen_AOT/AOT_stimuli/pictures/0266_fw.png	233.48416805267334	
199	170.8343460559845	picture	0		102	197.0	/experiments/Knapen_AOT/AOT_stimuli/pictures/0056_fw.png	233.49332475662231	0.8573610782623291
199	171.66770386695862	response	0	j		197.0	/experiments/Knapen_AOT/AOT_stimuli/pictures/0056_fw.png	234.32668256759644	
200	171.69170713424683	picture	0		81	198.0	/experiments/Knapen_AOT/AOT_stimuli/pictures/0967_fw.png	234.35068583488464	0.683344841003418
200	172.35851407051086	response	0	j		198.0	/experiments/Knapen_AOT/AOT_stimuli/pictures/0967_fw.png	235.01749277114868	
201	172.37505197525024	picture	0		76	199.0	/experiments/Knapen_AOT/AOT_stimuli/pictures/1118_fw.png	235.03403067588806	0.6417014598846436
201	173.00030136108398	response	0	j		199.0	/experiments/Knapen_AOT/AOT_stimuli/pictures/1118_fw.png	235.6592800617218	
202	173.0167534351349	picture	0		65	200.0	/experiments/Knapen_AOT/AOT_stimuli/pictures/0984_fw.png	235.6757321357727	0.5467989444732666
202	173.55017042160034	response	0	j		200.0	/experiments/Knapen_AOT/AOT_stimuli/pictures/0984_fw.png	236.20914912223816	
203	173.56355237960815	picture	0		76	201.0	/experiments/Knapen_AOT/AOT_stimuli/pictures/0646_fw.png	236.22253108024597	0.6448605060577393
203	174.19190955162048	response	0	j		201.0	/experiments/Knapen_AOT/AOT_stimuli/pictures/0646_fw.png	236.8508882522583	
204	174.2084128856659	picture	0		74	202.0	/experiments/Knapen_AOT/AOT_stimuli/pictures/1380_fw.png	236.8673915863037	0.6249916553497314
204	174.81688022613525	response	0	j		202.0	/experiments/Knapen_AOT/AOT_stimuli/pictures/1380_fw.png	237.47585892677307	
205	174.83340454101562	picture	0		83	203.0	/experiments/Knapen_AOT/AOT_stimuli/pictures/2163_fw.png	237.49238324165344	0.7000341415405273
205	175.5169336795807	response	0	k		203.0	/experiments/Knapen_AOT/AOT_stimuli/pictures/2163_fw.png	238.1759123802185	
206	175.53343868255615	picture	0		99	204.0	/experiments/Knapen_AOT/AOT_stimuli/pictures/1165_fw.png	238.19241738319397	0.828751802444458
206	176.35026860237122	response	0	k		204.0	/experiments/Knapen_AOT/AOT_stimuli/pictures/1165_fw.png	239.00924730300903	
207	176.3621904850006	picture	0		108	205.0	/experiments/Knapen_AOT/AOT_stimuli/pictures/1805_fw.png	239.02116918563843	0.8962323665618896
207	177.25027918815613	response	0	j		205.0	/experiments/Knapen_AOT/AOT_stimuli/pictures/1805_fw.png	239.90925788879395	
208	177.2584228515625	picture	0		96	206.0	/experiments/Knapen_AOT/AOT_stimuli/pictures/0644_fw.png	239.91740155220032	0.8051505088806152
208	178.05024099349976	response	0	k		206.0	/experiments/Knapen_AOT/AOT_stimuli/pictures/0644_fw.png	240.70921969413757	
209	178.06357336044312	picture	0		98	207.0	/experiments/Knapen_AOT/AOT_stimuli/pictures/0479_fw.png	240.72255206108093	0.8198604583740234
209	178.86763310432434	response	0	k		207.0	/experiments/Knapen_AOT/AOT_stimuli/pictures/0479_fw.png	241.52661180496216	
210	178.88343381881714	picture	0		90	208.0	/experiments/Knapen_AOT/AOT_stimuli/pictures/1410_fw.png	241.54241251945496	0.7583789825439453
210	179.62526392936707	response	0	j		208.0	/experiments/Knapen_AOT/AOT_stimuli/pictures/1410_fw.png	242.28424263000488	
211	179.64181280136108	picture	0		111	209.0	/experiments/Knapen_AOT/AOT_stimuli/pictures/0476_fw.png	242.3007915019989	0.928734302520752
211	180.55863761901855	response	0	k		209.0	/experiments/Knapen_AOT/AOT_stimuli/pictures/0476_fw.png	243.21761631965637	
212	180.57054710388184	picture	0		102	210.0	/experiments/Knapen_AOT/AOT_stimuli/pictures/2087_fw.png	243.22952580451965	0.8472118377685547
212	181.4086308479309	response	0	k		210.0	/experiments/Knapen_AOT/AOT_stimuli/pictures/2087_fw.png	244.06760954856873	
213	181.4177589416504	picture	0		127	211.0	/experiments/Knapen_AOT/AOT_stimuli/pictures/0797_fw.png	244.0767376422882	1.0625085830688477
213	182.45983934402466	response	0	k		211.0	/experiments/Knapen_AOT/AOT_stimuli/pictures/0797_fw.png	245.11881804466248	
214	182.48026752471924	picture	0		84	212.0	/experiments/Knapen_AOT/AOT_stimuli/pictures/1062_fw.png	245.13924622535706	0.7115819454193115
214	183.1757686138153	response	0	j		212.0	/experiments/Knapen_AOT/AOT_stimuli/pictures/1062_fw.png	245.83474731445312	
215	183.19184947013855	picture	0		78	213.0	/experiments/Knapen_AOT/AOT_stimuli/pictures/0111_fw.png	245.85082817077637	0.6583402156829834
215	183.83387541770935	response	0	k		213.0	/experiments/Knapen_AOT/AOT_stimuli/pictures/0111_fw.png	246.49285411834717	
216	183.85018968582153	picture	0		83	214.0	/experiments/Knapen_AOT/AOT_stimuli/pictures/1447_fw.png	246.50916838645935	0.7000241279602051
216	184.5336558818817	response	0	k		214.0	/experiments/Knapen_AOT/AOT_stimuli/pictures/1447_fw.png	247.19263458251953	
217	184.55021381378174	picture	0		82	215.0	/experiments/Knapen_AOT/AOT_stimuli/pictures/1095_fw.png	247.20919251441956	0.6870753765106201
217	185.22534847259521	response	0	k		215.0	/experiments/Knapen_AOT/AOT_stimuli/pictures/1095_fw.png	247.88432717323303	
218	185.23728919029236	picture	0		95	216.0	/experiments/Knapen_AOT/AOT_stimuli/pictures/0043_fw.png	247.89626789093018	0.7962470054626465
218	186.01714205741882	response	0	k		216.0	/experiments/Knapen_AOT/AOT_stimuli/pictures/0043_fw.png	248.67612075805664	
219	186.033536195755	picture	0		81	217.0	/experiments/Knapen_AOT/AOT_stimuli/pictures/1589_fw.png	248.69251489639282	0.6833441257476807
219	186.7003755569458	response	0	k		217.0	/experiments/Knapen_AOT/AOT_stimuli/pictures/1589_fw.png	249.35935425758362	
220	186.71688032150269	picture	0		76	218.0	/experiments/Knapen_AOT/AOT_stimuli/pictures/1664_fw.png	249.3758590221405	0.6416945457458496
220	187.3420467376709	response	0	k		218.0	/experiments/Knapen_AOT/AOT_stimuli/pictures/1664_fw.png	250.00102543830872	
221	187.35857486724854	picture	0		92	219.0	/experiments/Knapen_AOT/AOT_stimuli/pictures/1904_fw.png	250.01755356788635	0.7675509452819824
221	188.1170437335968	response	0	j		219.0	/experiments/Knapen_AOT/AOT_stimuli/pictures/1904_fw.png	250.77602243423462	
222	188.12612581253052	picture	0		105	220.0	/experiments/Knapen_AOT/AOT_stimuli/pictures/0391_fw.png	250.78510451316833	0.8749983310699463
222	188.99204397201538	response	0	j		220.0	/experiments/Knapen_AOT/AOT_stimuli/pictures/0391_fw.png	251.6510226726532	
223	189.00112414360046	picture	0		84	221.0	/experiments/Knapen_AOT/AOT_stimuli/pictures/0763_fw.png	251.66010284423828	0.7074661254882812
223	189.69218802452087	response	0	k		221.0	/experiments/Knapen_AOT/AOT_stimuli/pictures/0763_fw.png	252.3511667251587	
224	189.70859026908875	picture	0		110	222.0	/experiments/Knapen_AOT/AOT_stimuli/pictures/2120_fw.png	252.36756896972656	0.9249937534332275
224	190.61704921722412	response	0	j		222.0	/experiments/Knapen_AOT/AOT_stimuli/pictures/2120_fw.png	253.27602791786194	
225	190.63358402252197	picture	0		80	223.0	/experiments/Knapen_AOT/AOT_stimuli/pictures/1777_fw.png	253.2925627231598	0.6731266975402832
225	191.2920823097229	response	0	j		223.0	/experiments/Knapen_AOT/AOT_stimuli/pictures/1777_fw.png	253.95106101036072	
226	191.30671072006226	picture	0		69	224.0	/experiments/Knapen_AOT/AOT_stimuli/pictures/0995_fw.png	253.96568942070007	0.5852963924407959
226	191.8679141998291	response	0	j		224.0	/experiments/Knapen_AOT/AOT_stimuli/pictures/0995_fw.png	254.52689290046692	
227	191.89200711250305	picture	0		84	225.0	/experiments/Knapen_AOT/AOT_stimuli/pictures/1378_fw.png	254.55098581314087	0.7083249092102051
227	192.58376550674438	response	0	j		225.0	/experiments/Knapen_AOT/AOT_stimuli/pictures/1378_fw.png	255.2427442073822	
228	192.60033202171326	picture	0		114	226.0	/experiments/Knapen_AOT/AOT_stimuli/pictures/0268_fw.png	255.25931072235107	0.9583187103271484
228	193.54214096069336	response	0	k		226.0	/experiments/Knapen_AOT/AOT_stimuli/pictures/0268_fw.png	256.2011196613312	
229	193.5586507320404	picture	0		103	227.0	/experiments/Knapen_AOT/AOT_stimuli/pictures/1189_fw.png	256.2176294326782	0.8592207431793213
229	194.408789396286	response	0	k		227.0	/experiments/Knapen_AOT/AOT_stimuli/pictures/1189_fw.png	257.0677680969238	
230	194.41787147521973	picture	0		81	228.0	/experiments/Knapen_AOT/AOT_stimuli/pictures/0570_fw.png	257.07685017585754	0.6804962158203125
230	195.08379220962524	response	0	k		228.0	/experiments/Knapen_AOT/AOT_stimuli/pictures/0570_fw.png	257.74277091026306	
231	195.09836769104004	picture	0		79	229.0	/experiments/Knapen_AOT/AOT_stimuli/pictures/2073_fw.png	257.75734639167786	0.6667454242706299
231	195.75048995018005	response	0	k		229.0	/experiments/Knapen_AOT/AOT_stimuli/pictures/2073_fw.png	258.40946865081787	
232	195.76511311531067	picture	0		82	230.0	/experiments/Knapen_AOT/AOT_stimuli/pictures/1681_fw.png	258.4240918159485	0.6935749053955078
232	196.44224095344543	response	0	k		230.0	/experiments/Knapen_AOT/AOT_stimuli/pictures/1681_fw.png	259.10121965408325	
233	196.45868802070618	picture	0		84	231.0	/experiments/Knapen_AOT/AOT_stimuli/pictures/1004_fw.png	259.117666721344	0.7083268165588379
233	197.15050864219666	response	0	k		231.0	/experiments/Knapen_AOT/AOT_stimuli/pictures/1004_fw.png	259.8094873428345	
234	197.16701483726501	picture	0		108	232.0	/experiments/Knapen_AOT/AOT_stimuli/pictures/0756_fw.png	259.82599353790283	0.908372163772583
234	198.05880284309387	response	0	k		232.0	/experiments/Knapen_AOT/AOT_stimuli/pictures/0756_fw.png	260.7177815437317	
235	198.0753870010376	picture	0		75	233.0	/experiments/Knapen_AOT/AOT_stimuli/pictures/1931_fw.png	260.7343657016754	0.6271958351135254
235	198.692223072052	response	0	j		233.0	/experiments/Knapen_AOT/AOT_stimuli/pictures/1931_fw.png	261.3512017726898	
236	198.70258283615112	picture	0		87	234.0	/experiments/Knapen_AOT/AOT_stimuli/pictures/1798_fw.png	261.36156153678894	0.7311460971832275
236	199.41725850105286	response	0	j		234.0	/experiments/Knapen_AOT/AOT_stimuli/pictures/1798_fw.png	262.0762372016907	
237	199.43372893333435	picture	0		101	235.0	/experiments/Knapen_AOT/AOT_stimuli/pictures/0188_fw.png	262.09270763397217	0.8500301837921143
237	200.259521484375	response	0	k		235.0	/experiments/Knapen_AOT/AOT_stimuli/pictures/0188_fw.png	262.9185001850128	
238	200.28375911712646	picture	0		73	236.0	/experiments/Knapen_AOT/AOT_stimuli/pictures/0066_fw.png	262.9427378177643	0.6133146286010742
238	200.8838632106781	response	0	k		236.0	/experiments/Knapen_AOT/AOT_stimuli/pictures/0066_fw.png	263.5428419113159	
239	200.89707374572754	picture	0		83	237.0	/experiments/Knapen_AOT/AOT_stimuli/pictures/0222_fw.png	263.55605244636536	0.6950287818908691
239	201.57557010650635	response	0	k		237.0	/experiments/Knapen_AOT/AOT_stimuli/pictures/0222_fw.png	264.23454880714417	
240	201.5921025276184	picture	0		105	238.0	/experiments/Knapen_AOT/AOT_stimuli/pictures/1598_fw.png	264.2510812282562	0.8813831806182861
240	202.4514923095703	response	0	k		238.0	/experiments/Knapen_AOT/AOT_stimuli/pictures/1598_fw.png	265.11047101020813	
241	202.4734857082367	picture	0		105	239.0	/experiments/Knapen_AOT/AOT_stimuli/pictures/0228_fw.png	265.1324644088745	0.8819386959075928
241	203.34221410751343	response	0	k		239.0	/experiments/Knapen_AOT/AOT_stimuli/pictures/0228_fw.png	266.00119280815125	
242	203.3554244041443	picture	0		74	240.0	/experiments/Knapen_AOT/AOT_stimuli/pictures/1491_fw.png	266.0144031047821	0.6283435821533203
242	203.96720242500305	response	0	k		240.0	/experiments/Knapen_AOT/AOT_stimuli/pictures/1491_fw.png	266.62618112564087	
243	203.9837679862976	picture	0		86	241.0	/experiments/Knapen_AOT/AOT_stimuli/pictures/0933_fw.png	266.6427466869354	0.7250540256500244
243	204.69245529174805	response	0	j		241.0	/experiments/Knapen_AOT/AOT_stimuli/pictures/0933_fw.png	267.35143399238586	
244	204.70882201194763	picture	0		69	242.0	/experiments/Knapen_AOT/AOT_stimuli/pictures/0724_fw.png	267.36780071258545	0.5833957195281982
244	205.27565097808838	response	0	k		242.0	/experiments/Knapen_AOT/AOT_stimuli/pictures/0724_fw.png	267.9346296787262	
245	205.29221773147583	picture	0		84	243.0	/experiments/Knapen_AOT/AOT_stimuli/pictures/1870_fw.png	267.95119643211365	0.7082459926605225
245	205.98399353027344	response	0	k		243.0	/experiments/Knapen_AOT/AOT_stimuli/pictures/1870_fw.png	268.64297223091125	
246	206.00046372413635	picture	0		82	244.0	/experiments/Knapen_AOT/AOT_stimuli/pictures/0958_fw.png	268.65944242477417	0.6916763782501221
246	206.67556047439575	response	0	j		244.0	/experiments/Knapen_AOT/AOT_stimuli/pictures/0958_fw.png	269.33453917503357	
247	206.69214010238647	picture	0		88	245.0	/experiments/Knapen_AOT/AOT_stimuli/pictures/0033_fw.png	269.3511188030243	0.741668701171875
247	207.4173128604889	response	0	k		245.0	/experiments/Knapen_AOT/AOT_stimuli/pictures/0033_fw.png	270.0762915611267	
248	207.43380880355835	picture	0		76	246.0	/experiments/Knapen_AOT/AOT_stimuli/pictures/1266_fw.png	270.09278750419617	0.6369068622589111
248	208.05131077766418	response	0	k		246.0	/experiments/Knapen_AOT/AOT_stimuli/pictures/1266_fw.png	270.710289478302	
249	208.07071566581726	picture	0		74	247.0	/experiments/Knapen_AOT/AOT_stimuli/pictures/1161_fw.png	270.7296943664551	0.6214401721954346
249	208.67558789253235	response	0	j		247.0	/experiments/Knapen_AOT/AOT_stimuli/pictures/1161_fw.png	271.33456659317017	
250	208.6921558380127	picture	0		74	248.0	/experiments/Knapen_AOT/AOT_stimuli/pictures/0860_fw.png	271.3511345386505	0.6216371059417725
250	209.30059027671814	response	0	k		248.0	/experiments/Knapen_AOT/AOT_stimuli/pictures/0860_fw.png	271.95956897735596	
251	209.31379294395447	picture	0		71	249.0	/experiments/Knapen_AOT/AOT_stimuli/pictures/1254_fw.png	271.9727716445923	0.5972950458526611
251	209.90068793296814	response	0	j		249.0	/experiments/Knapen_AOT/AOT_stimuli/pictures/1254_fw.png	272.55966663360596	
252	209.91108798980713	picture	0		75	250.0	/experiments/Knapen_AOT/AOT_stimuli/pictures/0335_fw.png	272.57006669044495	0.624915599822998
252	210.52563428878784	response	0	k		250.0	/experiments/Knapen_AOT/AOT_stimuli/pictures/0335_fw.png	273.18461298942566	
253	210.53600358963013	picture	0		111	251.0	/experiments/Knapen_AOT/AOT_stimuli/pictures/0277_fw.png	273.19498229026794	0.9236092567443848
253	211.4506914615631	response	0	k		251.0	/experiments/Knapen_AOT/AOT_stimuli/pictures/0277_fw.png	274.1096701622009	
254	211.4596128463745	picture	0		110	252.0	/experiments/Knapen_AOT/AOT_stimuli/pictures/1163_fw.png	274.11859154701233	0.9242367744445801
254	212.36730790138245	response	0	k		252.0	/experiments/Knapen_AOT/AOT_stimuli/pictures/1163_fw.png	275.02628660202026	
255	212.3838496208191	picture	0		94	253.0	/experiments/Knapen_AOT/AOT_stimuli/pictures/0621_fw.png	275.0428283214569	0.7916765213012695
255	213.1590838432312	response	0	k		253.0	/experiments/Knapen_AOT/AOT_stimuli/pictures/0621_fw.png	275.818062543869	
256	213.17552614212036	picture	0		77	254.0	/experiments/Knapen_AOT/AOT_stimuli/pictures/1704_fw.png	275.8345048427582	0.6452140808105469
256	213.80904006958008	response	0	k		254.0	/experiments/Knapen_AOT/AOT_stimuli/pictures/1704_fw.png	276.4680187702179	
257	213.8207402229309	picture	0		90	255.0	/experiments/Knapen_AOT/AOT_stimuli/pictures/0885_fw.png	276.4797189235687	0.7500121593475342
257	214.55901765823364	response	0	j		255.0	/experiments/Knapen_AOT/AOT_stimuli/pictures/0885_fw.png	277.21799635887146	
258	214.57075238227844	picture	0		75	256.0	/experiments/Knapen_AOT/AOT_stimuli/pictures/1724_fw.png	277.22973108291626	0.6298031806945801
258	215.1840786933899	response	0	k		256.0	/experiments/Knapen_AOT/AOT_stimuli/pictures/1724_fw.png	277.8430573940277	
259	215.20055556297302	picture	0		104	257.0	/experiments/Knapen_AOT/AOT_stimuli/pictures/2142_fw.png	277.85953426361084	0.8750095367431641
259	216.05227303504944	response	0	k		257.0	/experiments/Knapen_AOT/AOT_stimuli/pictures/2142_fw.png	278.71125173568726	
260	216.0755650997162	picture	0		81	258.0	/experiments/Knapen_AOT/AOT_stimuli/pictures/0119_fw.png	278.734543800354	0.6833381652832031
260	216.742427110672	response	0	k		258.0	/experiments/Knapen_AOT/AOT_stimuli/pictures/0119_fw.png	279.4014058113098	
261	216.7589032649994	picture	0		68	259.0	/experiments/Knapen_AOT/AOT_stimuli/pictures/0272_fw.png	279.4178819656372	0.5750317573547363
261	217.3174512386322	response	0	k		259.0	/experiments/Knapen_AOT/AOT_stimuli/pictures/0272_fw.png	279.97642993927	
262	217.33393502235413	picture	0		131	260.0	/experiments/Knapen_AOT/AOT_stimuli/pictures/2178_fw.png	279.99291372299194	1.1000068187713623
262	218.4174234867096	response	0	k		260.0	/experiments/Knapen_AOT/AOT_stimuli/pictures/2178_fw.png	281.0764021873474	
263	218.4339418411255	picture	0		143	261.0	/experiments/Knapen_AOT/AOT_stimuli/pictures/1050_fw.png	281.0929205417633	1.2000491619110107
263	219.61741065979004	response	0	k		261.0	/experiments/Knapen_AOT/AOT_stimuli/pictures/1050_fw.png	282.27638936042786	
264	219.6339910030365	picture	0		69	262.0	/experiments/Knapen_AOT/AOT_stimuli/pictures/1787_fw.png	282.2929697036743	0.5833151340484619
264	220.2007179260254	response	0	k		262.0	/experiments/Knapen_AOT/AOT_stimuli/pictures/1787_fw.png	282.8596966266632	
265	220.21730613708496	picture	0		97	263.0	/experiments/Knapen_AOT/AOT_stimuli/pictures/1216_fw.png	282.8762848377228	0.8118653297424316
265	221.01744556427002	response	0	k		263.0	/experiments/Knapen_AOT/AOT_stimuli/pictures/1216_fw.png	283.67642426490784	
266	221.0291714668274	picture	0		92	264.0	/experiments/Knapen_AOT/AOT_stimuli/pictures/1109_fw.png	283.6881501674652	0.7638256549835205
266	221.7840976715088	response	0	j		264.0	/experiments/Knapen_AOT/AOT_stimuli/pictures/1109_fw.png	284.4430763721466	
267	221.7929971218109	picture	0		79	265.0	/experiments/Knapen_AOT/AOT_stimuli/pictures/1701_fw.png	284.45197582244873	0.6667156219482422
267	222.4426372051239	response	0	k		265.0	/experiments/Knapen_AOT/AOT_stimuli/pictures/1701_fw.png	285.1016159057617	
268	222.45971274375916	picture	0		75	266.0	/experiments/Knapen_AOT/AOT_stimuli/pictures/1043_fw.png	285.118691444397	0.6326284408569336
268	223.0757942199707	response	0	j		266.0	/experiments/Knapen_AOT/AOT_stimuli/pictures/1043_fw.png	285.7347729206085	
269	223.0923411846161	picture	0		78	267.0	/experiments/Knapen_AOT/AOT_stimuli/pictures/0202_fw.png	285.7513198852539	0.6583549976348877
269	223.73413801193237	response	0	k		267.0	/experiments/Knapen_AOT/AOT_stimuli/pictures/0202_fw.png	286.3931167125702	
270	223.75069618225098	picture	0		100	268.0	/experiments/Knapen_AOT/AOT_stimuli/pictures/2147_fw.png	286.4096748828888	0.8339986801147461
270	224.57578945159912	response	0	j		268.0	/experiments/Knapen_AOT/AOT_stimuli/pictures/2147_fw.png	287.23476815223694	
271	224.58469486236572	picture	0		78	269.0	/experiments/Knapen_AOT/AOT_stimuli/pictures/1261_fw.png	287.24367356300354	0.6576640605926514
271	225.22585940361023	response	0	j		269.0	/experiments/Knapen_AOT/AOT_stimuli/pictures/1261_fw.png	287.88483810424805	
272	225.24235892295837	picture	0		89	270.0	/experiments/Knapen_AOT/AOT_stimuli/pictures/0218_fw.png	287.9013376235962	0.7500081062316895
272	225.9758312702179	response	0	j		270.0	/experiments/Knapen_AOT/AOT_stimuli/pictures/0218_fw.png	288.6348099708557	
273	225.99236702919006	picture	0		106	271.0	/experiments/Knapen_AOT/AOT_stimuli/pictures/0581_fw.png	288.6513457298279	0.8916826248168945
273	226.86054229736328	response	0	k		271.0	/experiments/Knapen_AOT/AOT_stimuli/pictures/0581_fw.png	289.5195209980011	
274	226.88404965400696	picture	0		83	272.0	/experiments/Knapen_AOT/AOT_stimuli/pictures/0413_fw.png	289.5430283546448	0.7000184059143066
274	227.56757950782776	response	0	k		272.0	/experiments/Knapen_AOT/AOT_stimuli/pictures/0413_fw.png	290.2265582084656	
275	227.58406805992126	picture	0		96	273.0	/experiments/Knapen_AOT/AOT_stimuli/pictures/0371_fw.png	290.2430467605591	0.8083159923553467
275	228.37596249580383	response	0	j		273.0	/experiments/Knapen_AOT/AOT_stimuli/pictures/0371_fw.png	291.03494119644165	
276	228.3923840522766	picture	0		108	274.0	/experiments/Knapen_AOT/AOT_stimuli/pictures/1867_fw.png	291.05136275291443	0.9083471298217773
276	229.28424501419067	response	0	j		274.0	/experiments/Knapen_AOT/AOT_stimuli/pictures/1867_fw.png	291.9432237148285	
277	229.3007311820984	picture	0		86	275.0	/experiments/Knapen_AOT/AOT_stimuli/pictures/1513_fw.png	291.9597098827362	0.7215371131896973
277	230.00922918319702	response	0	j		275.0	/experiments/Knapen_AOT/AOT_stimuli/pictures/1513_fw.png	292.66820788383484	
278	230.0222682952881	picture	0		153	276.0	/experiments/Knapen_AOT/AOT_stimuli/pictures/0862_fw.png	292.6812469959259	1.2785093784332275
278	231.2842378616333	response	0	k		276.0	/experiments/Knapen_AOT/AOT_stimuli/pictures/0862_fw.png	293.9432165622711	
279	231.3007776737213	picture	0		88	277.0	/experiments/Knapen_AOT/AOT_stimuli/pictures/1136_fw.png	293.95975637435913	0.7353870868682861
279	232.02594542503357	response	0	j		277.0	/experiments/Knapen_AOT/AOT_stimuli/pictures/1136_fw.png	294.6849241256714	
280	232.0361647605896	picture	0		75	278.0	/experiments/Knapen_AOT/AOT_stimuli/pictures/0915_fw.png	294.6951434612274	0.6312882900238037
280	232.65120220184326	response	0	k		278.0	/experiments/Knapen_AOT/AOT_stimuli/pictures/0915_fw.png	295.3101809024811	
281	232.6674530506134	picture	0		97	279.0	/experiments/Knapen_AOT/AOT_stimuli/pictures/0297_fw.png	295.3264317512512	0.8131566047668457
281	233.46755480766296	response	0	k		279.0	/experiments/Knapen_AOT/AOT_stimuli/pictures/0297_fw.png	296.1265335083008	
282	233.48060965538025	picture	0		68	280.0	/experiments/Knapen_AOT/AOT_stimuli/pictures/0260_fw.png	296.13958835601807	0.5624613761901855
282	234.03423404693604	response	0	k		280.0	/experiments/Knapen_AOT/AOT_stimuli/pictures/0260_fw.png	296.69321274757385	
283	234.04307103157043	picture	0		77	281.0	/experiments/Knapen_AOT/AOT_stimuli/pictures/0116_fw.png	296.70204973220825	0.6494548320770264
283	234.67591309547424	response	0	k		281.0	/experiments/Knapen_AOT/AOT_stimuli/pictures/0116_fw.png	297.33489179611206	
284	234.69252586364746	picture	0		111	282.0	/experiments/Knapen_AOT/AOT_stimuli/pictures/0647_fw.png	297.3515045642853	0.9333057403564453
284	235.60934209823608	response	0	k		282.0	/experiments/Knapen_AOT/AOT_stimuli/pictures/0647_fw.png	298.2683207988739	
285	235.6258316040039	picture	0		88	283.0	/experiments/Knapen_AOT/AOT_stimuli/pictures/1564_fw.png	298.2848103046417	0.7367446422576904
285	236.35098719596863	response	0	k		283.0	/experiments/Knapen_AOT/AOT_stimuli/pictures/1564_fw.png	299.00996589660645	
286	236.3625762462616	picture	0		109	284.0	/experiments/Knapen_AOT/AOT_stimuli/pictures/2089_fw.png	299.0215549468994	0.9132733345031738
286	237.259450674057	response	0	j		284.0	/experiments/Knapen_AOT/AOT_stimuli/pictures/2089_fw.png	299.9184293746948	
287	237.27584958076477	picture	0		90	285.0	/experiments/Knapen_AOT/AOT_stimuli/pictures/1496_fw.png	299.9348282814026	0.7583127021789551
287	238.01769471168518	response	0	j		285.0	/experiments/Knapen_AOT/AOT_stimuli/pictures/1496_fw.png	300.676673412323	
288	238.03416228294373	picture	0		80	286.0	/experiments/Knapen_AOT/AOT_stimuli/pictures/0840_fw.png	300.69314098358154	0.67502760887146
288	238.692724943161	response	0	j		286.0	/experiments/Knapen_AOT/AOT_stimuli/pictures/0840_fw.png	301.3517036437988	
289	238.70918989181519	picture	0		73	287.0	/experiments/Knapen_AOT/AOT_stimuli/pictures/2044_fw.png	301.368168592453	0.6117715835571289
289	239.30932331085205	response	0	j		287.0	/experiments/Knapen_AOT/AOT_stimuli/pictures/2044_fw.png	301.96830201148987	
290	239.32096147537231	picture	0		94	288.0	/experiments/Knapen_AOT/AOT_stimuli/pictures/2131_fw.png	301.97994017601013	0.7846884727478027
290	240.09269499778748	response	0	k		288.0	/experiments/Knapen_AOT/AOT_stimuli/pictures/2131_fw.png	302.7516736984253	
291	240.10564994812012	picture	0		107	289.0	/experiments/Knapen_AOT/AOT_stimuli/pictures/0269_fw.png	302.76462864875793	0.8958601951599121
291	240.98431825637817	response	0	k		289.0	/experiments/Knapen_AOT/AOT_stimuli/pictures/0269_fw.png	303.643296957016	
292	241.00151014328003	picture	0		108	290.0	/experiments/Knapen_AOT/AOT_stimuli/pictures/1810_fw.png	303.66048884391785	0.9077365398406982
292	241.89272737503052	response	0	j		290.0	/experiments/Knapen_AOT/AOT_stimuli/pictures/1810_fw.png	304.55170607566833	
293	241.90924668312073	picture	0		68	291.0	/experiments/Knapen_AOT/AOT_stimuli/pictures/0850_fw.png	304.56822538375854	0.5714564323425293
293	242.46770858764648	response	0	k		291.0	/experiments/Knapen_AOT/AOT_stimuli/pictures/0850_fw.png	305.1266872882843	
294	242.48070311546326	picture	0		115	292.0	/experiments/Knapen_AOT/AOT_stimuli/pictures/1372_fw.png	305.1396818161011	0.9583239555358887
294	243.42601990699768	response	0	k		292.0	/experiments/Knapen_AOT/AOT_stimuli/pictures/1372_fw.png	306.0849986076355	
295	243.43902707099915	picture	0		108	293.0	/experiments/Knapen_AOT/AOT_stimuli/pictures/1865_fw.png	306.09800577163696	0.9118936061859131
295	244.33440232276917	response	0	k		293.0	/experiments/Knapen_AOT/AOT_stimuli/pictures/1865_fw.png	306.993381023407	
296	244.35092067718506	picture	0		82	294.0	/experiments/Knapen_AOT/AOT_stimuli/pictures/0904_fw.png	307.0098993778229	0.6917107105255127
296	245.0261664390564	response	0	j		294.0	/experiments/Knapen_AOT/AOT_stimuli/pictures/0904_fw.png	307.6851451396942	
297	245.04263138771057	picture	0		83	295.0	/experiments/Knapen_AOT/AOT_stimuli/pictures/0402_fw.png	307.7016100883484	0.6999413967132568
297	245.72614431381226	response	0	k		295.0	/experiments/Knapen_AOT/AOT_stimuli/pictures/0402_fw.png	308.3851230144501	
298	245.74257278442383	picture	0		74	296.0	/experiments/Knapen_AOT/AOT_stimuli/pictures/0587_fw.png	308.40155148506165	0.6250290870666504
298	246.3511028289795	response	0	k		296.0	/experiments/Knapen_AOT/AOT_stimuli/pictures/0587_fw.png	309.0100815296173	
299	246.36760187149048	picture	0		69	297.0	/experiments/Knapen_AOT/AOT_stimuli/pictures/1702_fw.png	309.0265805721283	0.5833315849304199
299	246.93444418907166	response	0	k		297.0	/experiments/Knapen_AOT/AOT_stimuli/pictures/1702_fw.png	309.5934228897095	
300	246.9509334564209	picture	0		84	298.0	/experiments/Knapen_AOT/AOT_stimuli/pictures/1683_fw.png	309.6099121570587	0.7083394527435303
300	247.64281249046326	response	0	k		298.0	/experiments/Knapen_AOT/AOT_stimuli/pictures/1683_fw.png	310.3017911911011	
301	247.65927290916443	picture	0		91	299.0	/experiments/Knapen_AOT/AOT_stimuli/pictures/1738_fw.png	310.31825160980225	0.758927583694458
301	248.40947341918945	response	0	j		299.0	/experiments/Knapen_AOT/AOT_stimuli/pictures/1738_fw.png	311.06845211982727	
302	248.4182004928589	picture	0		78	300.0	/experiments/Knapen_AOT/AOT_stimuli/pictures/1705_fw.png	311.0771791934967	0.6577742099761963
302	249.05179452896118	response	0	k		300.0	/experiments/Knapen_AOT/AOT_stimuli/pictures/1705_fw.png	311.710773229599	
303	249.07597470283508	picture	0		99	301.0	/experiments/Knapen_AOT/AOT_stimuli/pictures/1585_fw.png	311.7349534034729	0.8333404064178467
303	249.89279532432556	response	0	j		301.0	/experiments/Knapen_AOT/AOT_stimuli/pictures/1585_fw.png	312.5517740249634	
304	249.90931510925293	picture	0		68	302.0	/experiments/Knapen_AOT/AOT_stimuli/pictures/1694_fw.png	312.56829380989075	0.5750527381896973
304	250.46777725219727	response	0	k		302.0	/experiments/Knapen_AOT/AOT_stimuli/pictures/1694_fw.png	313.1267559528351	
305	250.48436784744263	picture	0		90	303.0	/experiments/Knapen_AOT/AOT_stimuli/pictures/1959_fw.png	313.14334654808044	0.7582926750183105
305	251.22613215446472	response	0	k		303.0	/experiments/Knapen_AOT/AOT_stimuli/pictures/1959_fw.png	313.88511085510254	
306	251.24266052246094	picture	0		84	304.0	/experiments/Knapen_AOT/AOT_stimuli/pictures/1746_fw.png	313.90163922309875	0.708345890045166
306	251.9344985485077	response	0	k		304.0	/experiments/Knapen_AOT/AOT_stimuli/pictures/1746_fw.png	314.5934772491455	
307	251.9510064125061	picture	0		134	305.0	/experiments/Knapen_AOT/AOT_stimuli/pictures/0112_fw.png	314.6099851131439	1.120157241821289
307	253.05218958854675	response	0	k		305.0	/experiments/Knapen_AOT/AOT_stimuli/pictures/0112_fw.png	315.71116828918457	
308	253.0711636543274	picture	0		56	306.0	/experiments/Knapen_AOT/AOT_stimuli/pictures/0844_fw.png	315.7301423549652	0.4650280475616455
308	253.52612781524658	response	0	k		306.0	/experiments/Knapen_AOT/AOT_stimuli/pictures/0844_fw.png	316.1851065158844	
309	253.53619170188904	picture	0		71	307.0	/experiments/Knapen_AOT/AOT_stimuli/pictures/0920_fw.png	316.19517040252686	0.5981526374816895
309	254.11785221099854	response	0	k		307.0	/experiments/Knapen_AOT/AOT_stimuli/pictures/0920_fw.png	316.77683091163635	
310	254.13434433937073	picture	0		69	308.0	/experiments/Knapen_AOT/AOT_stimuli/pictures/0182_fw.png	316.79332304000854	0.5833554267883301
310	254.70124697685242	response	0	k		308.0	/experiments/Knapen_AOT/AOT_stimuli/pictures/0182_fw.png	317.36022567749023	
311	254.71769976615906	picture	0		95	309.0	/experiments/Knapen_AOT/AOT_stimuli/pictures/1722_fw.png	317.3766784667969	0.8000149726867676
311	255.50117206573486	response	0	j		309.0	/experiments/Knapen_AOT/AOT_stimuli/pictures/1722_fw.png	318.1601507663727	
312	255.51771473884583	picture	0		88	310.0	/experiments/Knapen_AOT/AOT_stimuli/pictures/0659_fw.png	318.17669343948364	0.7416608333587646
312	256.23562145233154	response	0	k		310.0	/experiments/Knapen_AOT/AOT_stimuli/pictures/0659_fw.png	318.89460015296936	
313	256.2593755722046	picture	0		146	311.0	/experiments/Knapen_AOT/AOT_stimuli/pictures/1051_fw.png	318.9183542728424	1.2214055061340332
313	257.46790838241577	response	0	k		311.0	/experiments/Knapen_AOT/AOT_stimuli/pictures/1051_fw.png	320.1268870830536	
314	257.4807810783386	picture	0		75	312.0	/experiments/Knapen_AOT/AOT_stimuli/pictures/0998_fw.png	320.13975977897644	0.6286535263061523
314	258.0929045677185	response	0	k		312.0	/experiments/Knapen_AOT/AOT_stimuli/pictures/0998_fw.png	320.7518832683563	
315	258.1094346046448	picture	0		129	313.0	/experiments/Knapen_AOT/AOT_stimuli/pictures/1950_fw.png	320.7684133052826	1.0796887874603271
315	259.17621517181396	response	0	k		313.0	/experiments/Knapen_AOT/AOT_stimuli/pictures/1950_fw.png	321.8351938724518	
316	259.1891233921051	picture	0		73	314.0	/experiments/Knapen_AOT/AOT_stimuli/pictures/1360_fw.png	321.8481020927429	0.6119520664215088
316	259.7845437526703	response	0	k		314.0	/experiments/Knapen_AOT/AOT_stimuli/pictures/1360_fw.png	322.4435224533081	
317	259.8010754585266	picture	0		82	315.0	/experiments/Knapen_AOT/AOT_stimuli/pictures/1250_fw.png	322.46005415916443	0.6866366863250732
317	260.4762625694275	response	0	k		315.0	/experiments/Knapen_AOT/AOT_stimuli/pictures/1250_fw.png	323.1352412700653	
318	260.4877121448517	picture	0		90	316.0	/experiments/Knapen_AOT/AOT_stimuli/pictures/0966_fw.png	323.1466908454895	0.7550575733184814
318	261.22628688812256	response	0	k		316.0	/experiments/Knapen_AOT/AOT_stimuli/pictures/0966_fw.png	323.8852655887604	
319	261.24276971817017	picture	0		82	317.0	/experiments/Knapen_AOT/AOT_stimuli/pictures/0678_fw.png	323.901748418808	0.691727876663208
319	261.91794657707214	response	0	j		317.0	/experiments/Knapen_AOT/AOT_stimuli/pictures/0678_fw.png	324.57692527770996	
320	261.9344975948334	picture	0		80	318.0	/experiments/Knapen_AOT/AOT_stimuli/pictures/1915_fw.png	324.5934762954712	0.6749622821807861
320	262.5929205417633	response	0	k		318.0	/experiments/Knapen_AOT/AOT_stimuli/pictures/1915_fw.png	325.2518992424011	
321	262.60945987701416	picture	0		75	319.0	/experiments/Knapen_AOT/AOT_stimuli/pictures/0765_fw.png	325.268438577652	0.6333286762237549
321	263.2263045310974	response	0	k		319.0	/experiments/Knapen_AOT/AOT_stimuli/pictures/0765_fw.png	325.88528323173523	
322	263.2427885532379	picture	0		133	320.0	/experiments/Knapen_AOT/AOT_stimuli/pictures/1331_fw.png	325.90176725387573	1.1167106628417969
322	264.3429584503174	response	0	k		320.0	/experiments/Knapen_AOT/AOT_stimuli/pictures/1331_fw.png	327.0019371509552	
323	264.3594992160797	picture	0		90	321.0	/experiments/Knapen_AOT/AOT_stimuli/pictures/0746_fw.png	327.01847791671753	0.7532663345336914
323	265.1012980937958	response	0	k		321.0	/experiments/Knapen_AOT/AOT_stimuli/pictures/0746_fw.png	327.7602767944336	
324	265.1127655506134	picture	0		83	322.0	/experiments/Knapen_AOT/AOT_stimuli/pictures/1913_fw.png	327.7717442512512	0.6967637538909912
324	265.79301476478577	response	0	j		322.0	/experiments/Knapen_AOT/AOT_stimuli/pictures/1913_fw.png	328.4519934654236	
325	265.8095293045044	picture	0		70	323.0	/experiments/Knapen_AOT/AOT_stimuli/pictures/1405_fw.png	328.4685080051422	0.5916616916656494
325	266.3847405910492	response	0	k		323.0	/experiments/Knapen_AOT/AOT_stimuli/pictures/1405_fw.png	329.043719291687	
326	266.40119099617004	picture	0		79	324.0	/experiments/Knapen_AOT/AOT_stimuli/pictures/0524_fw.png	329.06016969680786	0.6666576862335205
326	267.0516457557678	response	0	j		324.0	/experiments/Knapen_AOT/AOT_stimuli/pictures/0524_fw.png	329.71062445640564	
327	267.06784868240356	picture	0		82	325.0	/experiments/Knapen_AOT/AOT_stimuli/pictures/0167_fw.png	329.7268273830414	0.6916604042053223
327	267.74298429489136	response	0	j		325.0	/experiments/Knapen_AOT/AOT_stimuli/pictures/0167_fw.png	330.4019629955292	
328	267.7595090866089	picture	0		90	326.0	/experiments/Knapen_AOT/AOT_stimuli/pictures/1979_fw.png	330.4184877872467	0.7583522796630859
328	268.5017321109772	response	0	k		326.0	/experiments/Knapen_AOT/AOT_stimuli/pictures/1979_fw.png	331.160710811615	
329	268.517861366272	picture	0		77	327.0	/experiments/Knapen_AOT/AOT_stimuli/pictures/1494_fw.png	331.1768400669098	0.6500184535980225
329	269.1513602733612	response	0	j		327.0	/experiments/Knapen_AOT/AOT_stimuli/pictures/1494_fw.png	331.810338973999	
330	269.16787981987	picture	0		76	328.0	/experiments/Knapen_AOT/AOT_stimuli/pictures/0599_fw.png	331.8268585205078	0.6416707038879395
330	269.793062210083	response	0	k		328.0	/experiments/Knapen_AOT/AOT_stimuli/pictures/0599_fw.png	332.4520409107208	
331	269.80955052375793	picture	0		91	329.0	/experiments/Knapen_AOT/AOT_stimuli/pictures/2151_fw.png	332.46852922439575	0.7666676044464111
331	270.55972361564636	response	0	k		329.0	/experiments/Knapen_AOT/AOT_stimuli/pictures/2151_fw.png	333.2187023162842	
332	270.57621812820435	picture	0		121	330.0	/experiments/Knapen_AOT/AOT_stimuli/pictures/1735_fw.png	333.23519682884216	1.008831262588501
332	271.5763828754425	response	0	j		330.0	/experiments/Knapen_AOT/AOT_stimuli/pictures/1735_fw.png	334.2353615760803	
333	271.58504939079285	picture	0		68	331.0	/experiments/Knapen_AOT/AOT_stimuli/pictures/2101_fw.png	334.24402809143066	0.5746421813964844
333	272.14302706718445	response	0	k		331.0	/experiments/Knapen_AOT/AOT_stimuli/pictures/2101_fw.png	334.80200576782227	
334	272.15969157218933	picture	0		101	332.0	/experiments/Knapen_AOT/AOT_stimuli/pictures/1894_fw.png	334.81867027282715	0.8419647216796875
334	272.99310994148254	response	0	k		332.0	/experiments/Knapen_AOT/AOT_stimuli/pictures/1894_fw.png	335.65208864212036	
335	273.001656293869	picture	0		89	333.0	/experiments/Knapen_AOT/AOT_stimuli/pictures/0393_fw.png	335.66063499450684	0.749666690826416
335	273.734739780426	response	0	j		333.0	/experiments/Knapen_AOT/AOT_stimuli/pictures/0393_fw.png	336.39371848106384	
336	273.75132298469543	picture	0		79	334.0	/experiments/Knapen_AOT/AOT_stimuli/pictures/0505_fw.png	336.41030168533325	0.6666338443756104
336	274.40144419670105	response	0	k		334.0	/experiments/Knapen_AOT/AOT_stimuli/pictures/0505_fw.png	337.06042289733887	
337	274.41795682907104	picture	0		95	335.0	/experiments/Knapen_AOT/AOT_stimuli/pictures/1745_fw.png	337.07693552970886	0.7999985218048096
337	275.2013828754425	response	0	k		335.0	/experiments/Knapen_AOT/AOT_stimuli/pictures/1745_fw.png	337.8603615760803	
338	275.21795535087585	picture	0		119	336.0	/experiments/Knapen_AOT/AOT_stimuli/pictures/1151_fw.png	337.8769340515137	1.000009298324585
338	276.20147824287415	response	0	j		336.0	/experiments/Knapen_AOT/AOT_stimuli/pictures/1151_fw.png	338.86045694351196	
339	276.21796464920044	picture	0		72	337.0	/experiments/Knapen_AOT/AOT_stimuli/pictures/1557_fw.png	338.87694334983826	0.6083436012268066
339	276.80976152420044	response	0	k		337.0	/experiments/Knapen_AOT/AOT_stimuli/pictures/1557_fw.png	339.46874022483826	
340	276.82630825042725	picture	0		84	338.0	/experiments/Knapen_AOT/AOT_stimuli/pictures/1455_fw.png	339.48528695106506	0.7083227634429932
340	277.5181894302368	response	0	j		338.0	/experiments/Knapen_AOT/AOT_stimuli/pictures/1455_fw.png	340.17716813087463	
341	277.53463101387024	picture	0		107	339.0	/experiments/Knapen_AOT/AOT_stimuli/pictures/1386_fw.png	340.19360971450806	0.9000205993652344
341	278.4180941581726	response	0	k		339.0	/experiments/Knapen_AOT/AOT_stimuli/pictures/1386_fw.png	341.0770728588104	
342	278.4346516132355	picture	0		73	340.0	/experiments/Knapen_AOT/AOT_stimuli/pictures/1382_fw.png	341.0936303138733	0.6166634559631348
342	279.03477787971497	response	0	j		340.0	/experiments/Knapen_AOT/AOT_stimuli/pictures/1382_fw.png	341.6937565803528	
343	279.0513150691986	picture	0		72	341.0	/experiments/Knapen_AOT/AOT_stimuli/pictures/2064_fw.png	341.7102937698364	0.6032135486602783
343	279.63600492477417	response	0	k		341.0	/experiments/Knapen_AOT/AOT_stimuli/pictures/2064_fw.png	342.294983625412	
344	279.6545286178589	picture	0		82	342.0	/experiments/Knapen_AOT/AOT_stimuli/pictures/1428_fw.png	342.3135073184967	0.6805400848388672
344	280.3265128135681	response	0	j		342.0	/experiments/Knapen_AOT/AOT_stimuli/pictures/1428_fw.png	342.98549151420593	
345	280.33506870269775	picture	0		115	343.0	/experiments/Knapen_AOT/AOT_stimuli/pictures/2048_fw.png	342.99404740333557	0.9662811756134033
345	281.2848105430603	response	0	j		343.0	/experiments/Knapen_AOT/AOT_stimuli/pictures/2048_fw.png	343.9437892436981	
346	281.30134987831116	picture	0		84	344.0	/experiments/Knapen_AOT/AOT_stimuli/pictures/0144_fw.png	343.960328578949	0.7083480358123779
346	281.99313473701477	response	0	k		344.0	/experiments/Knapen_AOT/AOT_stimuli/pictures/0144_fw.png	344.6521134376526	
347	282.00969791412354	picture	0		86	345.0	/experiments/Knapen_AOT/AOT_stimuli/pictures/1721_fw.png	344.66867661476135	0.7250330448150635
347	282.71816420555115	response	0	k		345.0	/experiments/Knapen_AOT/AOT_stimuli/pictures/1721_fw.png	345.37714290618896	
348	282.7347309589386	picture	0		102	346.0	/experiments/Knapen_AOT/AOT_stimuli/pictures/0514_fw.png	345.3937096595764	0.8583128452301025
348	283.57649540901184	response	0	k		346.0	/experiments/Knapen_AOT/AOT_stimuli/pictures/0514_fw.png	346.23547410964966	
349	283.5930438041687	picture	0		95	347.0	/experiments/Knapen_AOT/AOT_stimuli/pictures/0137_fw.png	346.2520225048065	0.8000137805938721
349	284.3765585422516	response	0	k		347.0	/experiments/Knapen_AOT/AOT_stimuli/pictures/0137_fw.png	347.0355372428894	
350	284.3930575847626	picture	0		88	348.0	/experiments/Knapen_AOT/AOT_stimuli/pictures/1330_fw.png	347.0520362854004	0.7338449954986572
350	285.11818385124207	response	0	k		348.0	/experiments/Knapen_AOT/AOT_stimuli/pictures/1330_fw.png	347.7771625518799	
351	285.12690258026123	picture	0		93	349.0	/experiments/Knapen_AOT/AOT_stimuli/pictures/0474_fw.png	347.78588128089905	0.7829089164733887
351	285.893230676651	response	0	j		349.0	/experiments/Knapen_AOT/AOT_stimuli/pictures/0474_fw.png	348.5522093772888	
352	285.9098114967346	picture	0		92	350.0	/experiments/Knapen_AOT/AOT_stimuli/pictures/1446_fw.png	348.56879019737244	0.7749624252319336
352	286.668256521225	response	0	k		350.0	/experiments/Knapen_AOT/AOT_stimuli/pictures/1446_fw.png	349.3272352218628	
353	286.68477392196655	picture	0		77	351.0	/experiments/Knapen_AOT/AOT_stimuli/pictures/2140_fw.png	349.34375262260437	0.6500062942504883
353	287.3184394836426	response	0	k		351.0	/experiments/Knapen_AOT/AOT_stimuli/pictures/2140_fw.png	349.9774181842804	
354	287.33478021621704	picture	0		108	352.0	/experiments/Knapen_AOT/AOT_stimuli/pictures/1675_fw.png	349.99375891685486	0.9083383083343506
354	288.22663593292236	response	0	j		352.0	/experiments/Knapen_AOT/AOT_stimuli/pictures/1675_fw.png	350.8856146335602	
355	288.2431185245514	picture	0		144	353.0	/experiments/Knapen_AOT/AOT_stimuli/pictures/0576_fw.png	350.9020972251892	1.2031359672546387
355	289.43496966362	response	0	k		353.0	/experiments/Knapen_AOT/AOT_stimuli/pictures/0576_fw.png	352.0939483642578	
356	289.44625449180603	picture	0		65	354.0	/experiments/Knapen_AOT/AOT_stimuli/pictures/0578_fw.png	352.10523319244385	0.5468668937683105
356	289.9766185283661	response	0	k		354.0	/experiments/Knapen_AOT/AOT_stimuli/pictures/0578_fw.png	352.6355972290039	
357	289.99312138557434	picture	0		83	355.0	/experiments/Knapen_AOT/AOT_stimuli/pictures/0679_fw.png	352.65210008621216	0.7000260353088379
357	290.6765673160553	response	0	j		355.0	/experiments/Knapen_AOT/AOT_stimuli/pictures/0679_fw.png	353.3355460166931	
358	290.6931474208832	picture	0		79	356.0	/experiments/Knapen_AOT/AOT_stimuli/pictures/0332_fw.png	353.352126121521	0.662858247756958
358	291.3433165550232	response	0	k		356.0	/experiments/Knapen_AOT/AOT_stimuli/pictures/0332_fw.png	354.002295255661	
359	291.35600566864014	picture	0		112	357.0	/experiments/Knapen_AOT/AOT_stimuli/pictures/1529_fw.png	354.01498436927795	0.937516450881958
359	292.2768313884735	response	0	k		357.0	/experiments/Knapen_AOT/AOT_stimuli/pictures/1529_fw.png	354.9358100891113	
360	292.2935221195221	picture	0		74	358.0	/experiments/Knapen_AOT/AOT_stimuli/pictures/0866_fw.png	354.9525008201599	0.6246507167816162
360	292.90170454978943	response	0	k		358.0	/experiments/Knapen_AOT/AOT_stimuli/pictures/0866_fw.png	355.56068325042725	
361	292.9181728363037	picture	0		74	359.0	/experiments/Knapen_AOT/AOT_stimuli/pictures/0528_fw.png	355.5771515369415	0.6253466606140137
361	293.52688813209534	response	0	k		359.0	/experiments/Knapen_AOT/AOT_stimuli/pictures/0528_fw.png	356.18586683273315	
362	293.5435194969177	stim	0		480			356.20249819755554	4.01945161819458
362	297.5428524017334	response	0	space				360.2018311023712	
