trial_nr	onset	event_type	phase	response	nr_frames	picture_index	picture_file	onset_abs	duration
0	0.15862321853637695	stim	0		332			62.922118186950684	2.777796745300293
0	2.916912078857422	response	0	space				65.68040704727173	
2	2.93641996383667	picture	0		175	0.0	/experiments/Knapen_AOT/AOT_stimuli/pictures/2017_fw.png	65.69991493225098	1.4763901233673096
2	4.3884007930755615	response	0	j		0.0	/experiments/Knapen_AOT/AOT_stimuli/pictures/2017_fw.png	67.15189576148987	
3	4.4128100872039795	picture	0		136	1.0	/experiments/Knapen_AOT/AOT_stimuli/pictures/1775_fw.png	67.17630505561829	1.1455199718475342
3	5.541864633560181	response	0	j		1.0	/experiments/Knapen_AOT/AOT_stimuli/pictures/1775_fw.png	68.30535960197449	
4	5.558330059051514	picture	0		91	2.0	/experiments/Knapen_AOT/AOT_stimuli/pictures/2154_fw.png	68.32182502746582	0.766667366027832
4	6.308633804321289	response	0	j		2.0	/experiments/Knapen_AOT/AOT_stimuli/pictures/2154_fw.png	69.0721287727356	
5	6.324997425079346	picture	0		161	3.0	/experiments/Knapen_AOT/AOT_stimuli/pictures/0615_fw.png	69.08849239349365	1.3475661277770996
5	7.65854811668396	response	0	k		3.0	/experiments/Knapen_AOT/AOT_stimuli/pictures/0615_fw.png	70.42204308509827	
6	7.672563552856445	picture	0		90	4.0	/experiments/Knapen_AOT/AOT_stimuli/pictures/1878_fw.png	70.43605852127075	0.7607686519622803
6	8.416877746582031	response	0	j		4.0	/experiments/Knapen_AOT/AOT_stimuli/pictures/1878_fw.png	71.18037271499634	
7	8.433332204818726	picture	0		75	5.0	/experiments/Knapen_AOT/AOT_stimuli/pictures/1702_fw.png	71.19682717323303	0.6283156871795654
7	9.050193071365356	response	0	j		5.0	/experiments/Knapen_AOT/AOT_stimuli/pictures/1702_fw.png	71.81368803977966	
8	9.061647891998291	picture	0		78	6.0	/experiments/Knapen_AOT/AOT_stimuli/pictures/2079_fw.png	71.8251428604126	0.6550571918487549
8	9.70024061203003	response	0	j		6.0	/experiments/Knapen_AOT/AOT_stimuli/pictures/2079_fw.png	72.46373558044434	
9	9.716705083847046	picture	0		109	7.0	/experiments/Knapen_AOT/AOT_stimuli/pictures/0482_fw.png	72.48020005226135	0.9143149852752686
9	10.616949319839478	response	0	k		7.0	/experiments/Knapen_AOT/AOT_stimuli/pictures/0482_fw.png	73.38044428825378	
10	10.631020069122314	picture	0		94	8.0	/experiments/Knapen_AOT/AOT_stimuli/pictures/0733_fw.png	73.39451503753662	0.7916679382324219
10	11.408616304397583	response	0	j		8.0	/experiments/Knapen_AOT/AOT_stimuli/pictures/0733_fw.png	74.17211127281189	
11	11.422688007354736	picture	0		188	9.0	/experiments/Knapen_AOT/AOT_stimuli/pictures/0432_fw.png	74.18618297576904	1.5693278312683105
11	12.983575582504272	response	0	j		9.0	/experiments/Knapen_AOT/AOT_stimuli/pictures/0432_fw.png	75.74707055091858	
12	12.992015838623047	picture	0		90	10.0	/experiments/Knapen_AOT/AOT_stimuli/pictures/1152_fw.png	75.75551080703735	0.7580835819244385
12	13.733794212341309	response	0	k		10.0	/experiments/Knapen_AOT/AOT_stimuli/pictures/1152_fw.png	76.49728918075562	
13	13.750099420547485	picture	0		93	11.0	/experiments/Knapen_AOT/AOT_stimuli/pictures/1616_fw.png	76.51359438896179	0.7833423614501953
13	14.517041206359863	response	0	j		11.0	/experiments/Knapen_AOT/AOT_stimuli/pictures/1616_fw.png	77.28053617477417	
14	14.53344178199768	picture	0		114	12.0	/experiments/Knapen_AOT/AOT_stimuli/pictures/0143_fw.png	77.29693675041199	0.9583170413970947
14	15.475569486618042	response	0	k		12.0	/experiments/Knapen_AOT/AOT_stimuli/pictures/0143_fw.png	78.23906445503235	
15	15.491758823394775	picture	0		200	13.0	/experiments/Knapen_AOT/AOT_stimuli/pictures/0825_fw.png	78.25525379180908	1.6669516563415527
15	17.150317668914795	response	0	j		13.0	/experiments/Knapen_AOT/AOT_stimuli/pictures/0825_fw.png	79.9138126373291	
16	17.158710479736328	picture	0		96	14.0	/experiments/Knapen_AOT/AOT_stimuli/pictures/0978_fw.png	79.92220544815063	0.7997121810913086
16	17.950313568115234	response	0	k		14.0	/experiments/Knapen_AOT/AOT_stimuli/pictures/0978_fw.png	80.71380853652954	
17	17.958422660827637	picture	0		112	15.0	/experiments/Knapen_AOT/AOT_stimuli/pictures/0006_fw.png	80.72191762924194	0.9417119026184082
17	18.88393807411194	response	0	k		15.0	/experiments/Knapen_AOT/AOT_stimuli/pictures/0006_fw.png	81.64743304252625	
18	18.900134563446045	picture	0		149	16.0	/experiments/Knapen_AOT/AOT_stimuli/pictures/0722_fw.png	81.66362953186035	1.2447316646575928
18	20.13363480567932	response	0	k		16.0	/experiments/Knapen_AOT/AOT_stimuli/pictures/0722_fw.png	82.89712977409363	
19	20.144866228103638	picture	0		104	17.0	/experiments/Knapen_AOT/AOT_stimuli/pictures/1725_fw.png	82.90836119651794	0.8719604015350342
19	21.000313997268677	response	0	k		17.0	/experiments/Knapen_AOT/AOT_stimuli/pictures/1725_fw.png	83.76380896568298	
20	21.016826629638672	picture	0		491	18.0	/experiments/Knapen_AOT/AOT_stimuli/pictures/2024_fw.png	83.78032159805298	4.100061655044556
20	25.100401401519775	response	0	j		18.0	/experiments/Knapen_AOT/AOT_stimuli/pictures/2024_fw.png	87.86389636993408	
21	25.116888284683228	picture	0		109	19.0	/experiments/Knapen_AOT/AOT_stimuli/pictures/0503_fw.png	87.88038325309753	0.9099912643432617
21	26.009451150894165	response	0	j		19.0	/experiments/Knapen_AOT/AOT_stimuli/pictures/0503_fw.png	88.77294611930847	
22	26.02687954902649	picture	0		118	20.0	/experiments/Knapen_AOT/AOT_stimuli/pictures/1289_fw.png	88.7903745174408	0.9900243282318115
22	27.000670433044434	response	0	k		20.0	/experiments/Knapen_AOT/AOT_stimuli/pictures/1289_fw.png	89.76416540145874	
23	27.0169038772583	picture	0		129	21.0	/experiments/Knapen_AOT/AOT_stimuli/pictures/1615_fw.png	89.78039884567261	1.0794310569763184
23	28.083745002746582	response	0	k		21.0	/experiments/Knapen_AOT/AOT_stimuli/pictures/1615_fw.png	90.84723997116089	
24	28.09633493423462	picture	0		578	22.0	/experiments/Knapen_AOT/AOT_stimuli/pictures/1263_fw.png	90.85982990264893	4.828972578048706
24	32.90885615348816	response	0	j		22.0	/experiments/Knapen_AOT/AOT_stimuli/pictures/1263_fw.png	95.67235112190247	
25	32.925307512283325	picture	0		139	23.0	/experiments/Knapen_AOT/AOT_stimuli/pictures/1505_fw.png	95.68880248069763	1.1667664051055908
25	34.07555866241455	response	0	j		23.0	/experiments/Knapen_AOT/AOT_stimuli/pictures/1505_fw.png	96.83905363082886	
26	34.092073917388916	picture	0		88	24.0	/experiments/Knapen_AOT/AOT_stimuli/pictures/0637_fw.png	96.85556888580322	0.7334630489349365
26	34.81718707084656	response	0	j		24.0	/experiments/Knapen_AOT/AOT_stimuli/pictures/0637_fw.png	97.58068203926086	
27	34.82553696632385	picture	0		88	25.0	/experiments/Knapen_AOT/AOT_stimuli/pictures/1809_fw.png	97.58903193473816	0.741504430770874
27	35.55053639411926	response	0	j		25.0	/experiments/Knapen_AOT/AOT_stimuli/pictures/1809_fw.png	98.31403136253357	
28	35.56704139709473	picture	0		110	26.0	/experiments/Knapen_AOT/AOT_stimuli/pictures/1294_fw.png	98.33053636550903	0.9182281494140625
28	36.47581195831299	response	0	j		26.0	/experiments/Knapen_AOT/AOT_stimuli/pictures/1294_fw.png	99.2393069267273	
29	36.48526954650879	picture	0		78	27.0	/experiments/Knapen_AOT/AOT_stimuli/pictures/1196_fw.png	99.2487645149231	0.6567928791046143
29	37.125821352005005	response	0	j		27.0	/experiments/Knapen_AOT/AOT_stimuli/pictures/1196_fw.png	99.88931632041931	
30	37.1420624256134	picture	0		318	28.0	/experiments/Knapen_AOT/AOT_stimuli/pictures/0277_fw.png	99.90555739402771	2.655754327774048
30	39.783935546875	response	0	k		28.0	/experiments/Knapen_AOT/AOT_stimuli/pictures/0277_fw.png	102.5474305152893	
31	39.79781675338745	picture	0		99	29.0	/experiments/Knapen_AOT/AOT_stimuli/pictures/0275_fw.png	102.56131172180176	0.8334143161773682
31	40.61755108833313	response	0	k		29.0	/experiments/Knapen_AOT/AOT_stimuli/pictures/0275_fw.png	103.38104605674744	
32	40.63123106956482	picture	0		79	30.0	/experiments/Knapen_AOT/AOT_stimuli/pictures/1248_fw.png	103.39472603797913	0.666663646697998
32	41.283944606781006	response	0	j		30.0	/experiments/Knapen_AOT/AOT_stimuli/pictures/1248_fw.png	104.04743957519531	
33	41.29789471626282	picture	0		135	31.0	/experiments/Knapen_AOT/AOT_stimuli/pictures/0597_fw.png	104.06138968467712	1.1358716487884521
33	42.41750526428223	response	0	k		31.0	/experiments/Knapen_AOT/AOT_stimuli/pictures/0597_fw.png	105.18100023269653	
34	42.43376636505127	picture	0		103	32.0	/experiments/Knapen_AOT/AOT_stimuli/pictures/2070_fw.png	105.19726133346558	0.8666958808898926
34	43.28400015830994	response	0	j		32.0	/experiments/Knapen_AOT/AOT_stimuli/pictures/2070_fw.png	106.04749512672424	
35	43.30046224594116	picture	0		154	33.0	/experiments/Knapen_AOT/AOT_stimuli/pictures/1735_fw.png	106.06395721435547	1.291686773300171
35	44.57563519477844	response	0	k		33.0	/experiments/Knapen_AOT/AOT_stimuli/pictures/1735_fw.png	107.33913016319275	
36	44.59214901924133	picture	0		86	34.0	/experiments/Knapen_AOT/AOT_stimuli/pictures/1135_fw.png	107.35564398765564	0.7250189781188965
36	45.30062174797058	response	0	j		34.0	/experiments/Knapen_AOT/AOT_stimuli/pictures/1135_fw.png	108.06411671638489	
37	45.31716799736023	picture	0		115	35.0	/experiments/Knapen_AOT/AOT_stimuli/pictures/0039_fw.png	108.08066296577454	0.9598357677459717
37	46.267566442489624	response	0	k		35.0	/experiments/Knapen_AOT/AOT_stimuli/pictures/0039_fw.png	109.03106141090393	
38	46.2770037651062	picture	0		96	36.0	/experiments/Knapen_AOT/AOT_stimuli/pictures/1863_fw.png	109.04049873352051	0.8068296909332275
38	47.067551374435425	response	0	k		36.0	/experiments/Knapen_AOT/AOT_stimuli/pictures/1863_fw.png	109.83104634284973	
39	47.08383345603943	picture	0		79	37.0	/experiments/Knapen_AOT/AOT_stimuli/pictures/0248_fw.png	109.84732842445374	0.6584372520446777
39	47.73400688171387	response	0	j		37.0	/experiments/Knapen_AOT/AOT_stimuli/pictures/0248_fw.png	110.49750185012817	
40	47.742270708084106	picture	0		106	38.0	/experiments/Knapen_AOT/AOT_stimuli/pictures/1898_fw.png	110.50576567649841	0.8915925025939941
40	48.61748743057251	response	0	j		38.0	/experiments/Knapen_AOT/AOT_stimuli/pictures/1898_fw.png	111.38098239898682	
41	48.6338632106781	picture	0		78	39.0	/experiments/Knapen_AOT/AOT_stimuli/pictures/1498_fw.png	111.39735817909241	0.6501073837280273
41	49.27569794654846	response	0	j		39.0	/experiments/Knapen_AOT/AOT_stimuli/pictures/1498_fw.png	112.03919291496277	
42	49.28397059440613	picture	0		78	40.0	/experiments/Knapen_AOT/AOT_stimuli/pictures/0642_fw.png	112.04746556282043	0.6527867317199707
42	49.925692558288574	response	0	j		40.0	/experiments/Knapen_AOT/AOT_stimuli/pictures/0642_fw.png	112.68918752670288	
43	49.9367573261261	picture	0		106	41.0	/experiments/Knapen_AOT/AOT_stimuli/pictures/0997_fw.png	112.7002522945404	0.8887944221496582
43	50.80223774909973	response	0	k		41.0	/experiments/Knapen_AOT/AOT_stimuli/pictures/0997_fw.png	113.56573271751404	
44	50.82555174827576	picture	0		96	42.0	/experiments/Knapen_AOT/AOT_stimuli/pictures/1090_fw.png	113.58904671669006	0.805694580078125
44	51.611642599105835	response	0	k		42.0	/experiments/Knapen_AOT/AOT_stimuli/pictures/1090_fw.png	114.37513756752014	
45	51.63124632835388	picture	0		99	43.0	/experiments/Knapen_AOT/AOT_stimuli/pictures/1479_fw.png	114.39474129676819	0.8359956741333008
45	52.45079326629639	response	0	j		43.0	/experiments/Knapen_AOT/AOT_stimuli/pictures/1479_fw.png	115.2142882347107	
46	52.46724200248718	picture	0		96	44.0	/experiments/Knapen_AOT/AOT_stimuli/pictures/0967_fw.png	115.23073697090149	0.8028731346130371
46	53.25906944274902	response	0	k		44.0	/experiments/Knapen_AOT/AOT_stimuli/pictures/0967_fw.png	116.02256441116333	
47	53.27011513710022	picture	0		110	45.0	/experiments/Knapen_AOT/AOT_stimuli/pictures/1666_fw.png	116.03361010551453	0.916672945022583
47	54.17573666572571	response	0	k		45.0	/experiments/Knapen_AOT/AOT_stimuli/pictures/1666_fw.png	116.93923163414001	
48	54.1867880821228	picture	0		98	46.0	/experiments/Knapen_AOT/AOT_stimuli/pictures/1245_fw.png	116.95028305053711	0.8194928169250488
48	54.992639780044556	response	0	j		46.0	/experiments/Knapen_AOT/AOT_stimuli/pictures/1245_fw.png	117.75613474845886	
49	55.00628089904785	picture	0		250	47.0	/experiments/Knapen_AOT/AOT_stimuli/pictures/1332_fw.png	117.76977586746216	2.0943498611450195
49	57.08412551879883	response	0	k		47.0	/experiments/Knapen_AOT/AOT_stimuli/pictures/1332_fw.png	119.84762048721313	
50	57.10063076019287	picture	0		73	48.0	/experiments/Knapen_AOT/AOT_stimuli/pictures/2069_fw.png	119.86412572860718	0.616680383682251
50	57.70084047317505	response	0	j		48.0	/experiments/Knapen_AOT/AOT_stimuli/pictures/2069_fw.png	120.46433544158936	
51	57.71731114387512	picture	0		96	49.0	/experiments/Knapen_AOT/AOT_stimuli/pictures/0026_fw.png	120.48080611228943	0.8083615303039551
51	58.50942897796631	response	0	k		49.0	/experiments/Knapen_AOT/AOT_stimuli/pictures/0026_fw.png	121.27292394638062	
52	58.52567267417908	picture	0		81	50.0	/experiments/Knapen_AOT/AOT_stimuli/pictures/2053_fw.png	121.28916764259338	0.6834032535552979
52	59.19251728057861	response	0	j		50.0	/experiments/Knapen_AOT/AOT_stimuli/pictures/2053_fw.png	121.95601224899292	
53	59.209075927734375	picture	0		127	51.0	/experiments/Knapen_AOT/AOT_stimuli/pictures/0448_fw.png	121.97257089614868	1.0611026287078857
53	60.259159326553345	response	0	k		51.0	/experiments/Knapen_AOT/AOT_stimuli/pictures/0448_fw.png	123.02265429496765	
54	60.27017855644226	picture	0		230	52.0	/experiments/Knapen_AOT/AOT_stimuli/pictures/0969_fw.png	123.03367352485657	1.9221930503845215
54	62.17624831199646	response	0	k		52.0	/experiments/Knapen_AOT/AOT_stimuli/pictures/0969_fw.png	124.93974328041077	
55	62.19237160682678	picture	0		84	53.0	/experiments/Knapen_AOT/AOT_stimuli/pictures/0830_fw.png	124.95586657524109	0.7028236389160156
55	62.884188413619995	response	0	j		53.0	/experiments/Knapen_AOT/AOT_stimuli/pictures/0830_fw.png	125.6476833820343	
56	62.8951952457428	picture	0		178	54.0	/experiments/Knapen_AOT/AOT_stimuli/pictures/0335_fw.png	125.6586902141571	1.4861326217651367
56	64.36757612228394	response	0	k		54.0	/experiments/Knapen_AOT/AOT_stimuli/pictures/0335_fw.png	127.13107109069824	
57	64.38132786750793	picture	0		98	55.0	/experiments/Knapen_AOT/AOT_stimuli/pictures/0701_fw.png	127.14482283592224	0.8277401924133301
57	65.19257831573486	response	0	j		55.0	/experiments/Knapen_AOT/AOT_stimuli/pictures/0701_fw.png	127.95607328414917	
58	65.20906805992126	picture	0		94	56.0	/experiments/Knapen_AOT/AOT_stimuli/pictures/0678_fw.png	127.97256302833557	0.7916774749755859
58	65.98447465896606	response	0	k		56.0	/experiments/Knapen_AOT/AOT_stimuli/pictures/0678_fw.png	128.74796962738037	
59	66.00074553489685	picture	0		83	57.0	/experiments/Knapen_AOT/AOT_stimuli/pictures/0421_fw.png	128.76424050331116	0.6930801868438721
59	66.68444871902466	response	0	j		57.0	/experiments/Knapen_AOT/AOT_stimuli/pictures/0421_fw.png	129.44794368743896	
60	66.69382572174072	picture	0		451	58.0	/experiments/Knapen_AOT/AOT_stimuli/pictures/0937_fw.png	129.45732069015503	3.756984233856201
60	70.44268155097961	response	0	k		58.0	/experiments/Knapen_AOT/AOT_stimuli/pictures/0937_fw.png	133.20617651939392	
61	70.45080995559692	picture	0		68	59.0	/experiments/Knapen_AOT/AOT_stimuli/pictures/1640_fw.png	133.21430492401123	0.5763850212097168
61	71.00164246559143	response	0	j		59.0	/experiments/Knapen_AOT/AOT_stimuli/pictures/1640_fw.png	133.76513743400574	
62	71.02719497680664	picture	0		120	60.0	/experiments/Knapen_AOT/AOT_stimuli/pictures/1994_fw.png	133.79068994522095	1.000035285949707
62	72.01765275001526	response	0	j		60.0	/experiments/Knapen_AOT/AOT_stimuli/pictures/1994_fw.png	134.78114771842957	
63	72.02723026275635	picture	0		131	61.0	/experiments/Knapen_AOT/AOT_stimuli/pictures/0596_fw.png	134.79072523117065	1.098595380783081
63	73.10933589935303	response	0	k		61.0	/experiments/Knapen_AOT/AOT_stimuli/pictures/0596_fw.png	135.87283086776733	
64	73.12582564353943	picture	0		96	62.0	/experiments/Knapen_AOT/AOT_stimuli/pictures/1991_fw.png	135.88932061195374	0.8083605766296387
64	73.91799688339233	response	0	k		62.0	/experiments/Knapen_AOT/AOT_stimuli/pictures/1991_fw.png	136.68149185180664	
65	73.93418622016907	picture	0		75	63.0	/experiments/Knapen_AOT/AOT_stimuli/pictures/0031_fw.png	136.69768118858337	0.6333365440368652
65	74.55099940299988	response	0	j		63.0	/experiments/Knapen_AOT/AOT_stimuli/pictures/0031_fw.png	137.31449437141418	
66	74.56752276420593	picture	0		170	64.0	/experiments/Knapen_AOT/AOT_stimuli/pictures/1488_fw.png	137.33101773262024	1.4180371761322021
66	75.97604870796204	response	0	k		64.0	/experiments/Knapen_AOT/AOT_stimuli/pictures/1488_fw.png	138.73954367637634	
67	75.98555994033813	picture	0		112	65.0	/experiments/Knapen_AOT/AOT_stimuli/pictures/0299_fw.png	138.74905490875244	0.9403784275054932
67	76.90960264205933	response	0	j		65.0	/experiments/Knapen_AOT/AOT_stimuli/pictures/0299_fw.png	139.67309761047363	
68	76.92593836784363	picture	0		119	66.0	/experiments/Knapen_AOT/AOT_stimuli/pictures/0973_fw.png	139.68943333625793	0.9971837997436523
68	77.90940952301025	response	0	k		66.0	/experiments/Knapen_AOT/AOT_stimuli/pictures/0973_fw.png	140.67290449142456	
69	77.92312216758728	picture	0		70	67.0	/experiments/Knapen_AOT/AOT_stimuli/pictures/0281_fw.png	140.6866171360016	0.5902454853057861
69	78.50107645988464	response	0	j		67.0	/experiments/Knapen_AOT/AOT_stimuli/pictures/0281_fw.png	141.26457142829895	
70	78.51336765289307	picture	0		608	68.0	/experiments/Knapen_AOT/AOT_stimuli/pictures/1867_fw.png	141.27686262130737	5.0625715255737305
70	83.56783628463745	response	0	k		68.0	/experiments/Knapen_AOT/AOT_stimuli/pictures/1867_fw.png	146.33133125305176	
71	83.5759391784668	picture	0		90	69.0	/experiments/Knapen_AOT/AOT_stimuli/pictures/0801_fw.png	146.3394341468811	0.75
71	84.31783771514893	response	0	j		69.0	/experiments/Knapen_AOT/AOT_stimuli/pictures/0801_fw.png	147.08133268356323	
72	84.3259391784668	picture	0		131	70.0	/experiments/Knapen_AOT/AOT_stimuli/pictures/1275_fw.png	147.0894341468811	1.097203016281128
72	85.40969634056091	response	0	k		70.0	/experiments/Knapen_AOT/AOT_stimuli/pictures/1275_fw.png	148.17319130897522	
73	85.42314219474792	picture	0		125	71.0	/experiments/Knapen_AOT/AOT_stimuli/pictures/0818_fw.png	148.18663716316223	1.0486125946044922
73	86.45947670936584	response	0	k		71.0	/experiments/Knapen_AOT/AOT_stimuli/pictures/0818_fw.png	149.22297167778015	
74	86.47175478935242	picture	0		189	72.0	/experiments/Knapen_AOT/AOT_stimuli/pictures/1688_fw.png	149.23524975776672	1.5764131546020508
74	88.03448128700256	response	0	j		72.0	/experiments/Knapen_AOT/AOT_stimuli/pictures/1688_fw.png	150.79797625541687	
75	88.04816794395447	picture	0		109	73.0	/experiments/Knapen_AOT/AOT_stimuli/pictures/0354_fw.png	150.81166291236877	0.9166831970214844
75	88.9512255191803	response	0	k		73.0	/experiments/Knapen_AOT/AOT_stimuli/pictures/0354_fw.png	151.7147204875946	
76	88.96485114097595	picture	0		93	74.0	/experiments/Knapen_AOT/AOT_stimuli/pictures/0344_fw.png	151.72834610939026	0.7778258323669434
76	89.73457551002502	response	0	j		74.0	/experiments/Knapen_AOT/AOT_stimuli/pictures/0344_fw.png	152.49807047843933	
77	89.7426769733429	picture	0		98	75.0	/experiments/Knapen_AOT/AOT_stimuli/pictures/1668_fw.png	152.5061719417572	0.8193917274475098
77	90.55121922492981	response	0	k		75.0	/experiments/Knapen_AOT/AOT_stimuli/pictures/1668_fw.png	153.31471419334412	
78	90.5620687007904	picture	0		130	76.0	/experiments/Knapen_AOT/AOT_stimuli/pictures/0669_fw.png	153.3255636692047	1.0890798568725586
78	91.63459014892578	response	0	k		76.0	/experiments/Knapen_AOT/AOT_stimuli/pictures/0669_fw.png	154.3980851173401	
79	91.65114855766296	picture	0		100	77.0	/experiments/Knapen_AOT/AOT_stimuli/pictures/0025_fw.png	154.41464352607727	0.8345341682434082
79	92.47631359100342	response	0	j		77.0	/experiments/Knapen_AOT/AOT_stimuli/pictures/0025_fw.png	155.23980855941772	
80	92.48568272590637	picture	0		97	78.0	/experiments/Knapen_AOT/AOT_stimuli/pictures/0769_fw.png	155.24917769432068	0.8125448226928711
80	93.28457450866699	response	0	k		78.0	/experiments/Knapen_AOT/AOT_stimuli/pictures/0769_fw.png	156.0480694770813	
81	93.29822754859924	picture	0		75	79.0	/experiments/Knapen_AOT/AOT_stimuli/pictures/1656_fw.png	156.06172251701355	0.6319403648376465
81	93.91789722442627	response	0	j		79.0	/experiments/Knapen_AOT/AOT_stimuli/pictures/1656_fw.png	156.68139219284058	
82	93.93016791343689	picture	0		77	80.0	/experiments/Knapen_AOT/AOT_stimuli/pictures/0452_fw.png	156.6936628818512	0.6388661861419678
82	94.55962491035461	response	0	j		80.0	/experiments/Knapen_AOT/AOT_stimuli/pictures/0452_fw.png	157.32311987876892	
83	94.56903409957886	picture	0		87	81.0	/experiments/Knapen_AOT/AOT_stimuli/pictures/1277_fw.png	157.33252906799316	0.7320742607116699
83	95.28459620475769	response	0	k		81.0	/experiments/Knapen_AOT/AOT_stimuli/pictures/1277_fw.png	158.048091173172	
84	95.30110836029053	picture	0		118	82.0	/experiments/Knapen_AOT/AOT_stimuli/pictures/1967_fw.png	158.06460332870483	0.9916880130767822
84	96.2763524055481	response	0	k		82.0	/experiments/Knapen_AOT/AOT_stimuli/pictures/1967_fw.png	159.0398473739624	
85	96.29279637336731	picture	0		85	83.0	/experiments/Knapen_AOT/AOT_stimuli/pictures/1837_fw.png	159.05629134178162	0.7137796878814697
85	96.99297785758972	response	0	j		83.0	/experiments/Knapen_AOT/AOT_stimuli/pictures/1837_fw.png	159.75647282600403	
86	97.00657606124878	picture	0		136	84.0	/experiments/Knapen_AOT/AOT_stimuli/pictures/0073_fw.png	159.7700710296631	1.1445868015289307
86	98.13471007347107	response	0	j		84.0	/experiments/Knapen_AOT/AOT_stimuli/pictures/0073_fw.png	160.89820504188538	
87	98.15116286277771	picture	0		266	85.0	/experiments/Knapen_AOT/AOT_stimuli/pictures/0315_fw.png	160.91465783119202	2.216651201248169
87	100.35967969894409	response	0	j		85.0	/experiments/Knapen_AOT/AOT_stimuli/pictures/0315_fw.png	163.1231746673584	
88	100.36781406402588	picture	0		178	86.0	/experiments/Knapen_AOT/AOT_stimuli/pictures/1019_fw.png	163.13130903244019	1.4859979152679443
88	101.84305715560913	response	0	k		86.0	/experiments/Knapen_AOT/AOT_stimuli/pictures/1019_fw.png	164.60655212402344	
89	101.85381197929382	picture	0		83	87.0	/experiments/Knapen_AOT/AOT_stimuli/pictures/2100_fw.png	164.61730694770813	0.6944692134857178
89	102.53469371795654	response	0	j		87.0	/experiments/Knapen_AOT/AOT_stimuli/pictures/2100_fw.png	165.29818868637085	
90	102.54828119277954	picture	0		98	88.0	/experiments/Knapen_AOT/AOT_stimuli/pictures/0895_fw.png	165.31177616119385	0.8279247283935547
90	103.35972189903259	response	0	k		88.0	/experiments/Knapen_AOT/AOT_stimuli/pictures/0895_fw.png	166.1232168674469	
91	103.3762059211731	picture	0		94	89.0	/experiments/Knapen_AOT/AOT_stimuli/pictures/0794_fw.png	166.1397008895874	0.7833173274993896
91	104.15139603614807	response	0	j		89.0	/experiments/Knapen_AOT/AOT_stimuli/pictures/0794_fw.png	166.91489100456238	
92	104.15952324867249	picture	0		99	90.0	/experiments/Knapen_AOT/AOT_stimuli/pictures/0883_fw.png	166.9230182170868	0.8333771228790283
92	104.97638821601868	response	0	k		90.0	/experiments/Knapen_AOT/AOT_stimuli/pictures/0883_fw.png	167.73988318443298	
93	104.99290037155151	picture	0		105	91.0	/experiments/Knapen_AOT/AOT_stimuli/pictures/0216_fw.png	167.75639533996582	0.8833432197570801
93	105.85994672775269	response	0	k		91.0	/experiments/Knapen_AOT/AOT_stimuli/pictures/0216_fw.png	168.623441696167	
94	105.8762435913086	picture	0		88	92.0	/experiments/Knapen_AOT/AOT_stimuli/pictures/1412_fw.png	168.6397385597229	0.7416746616363525
94	106.601802110672	response	0	j		92.0	/experiments/Knapen_AOT/AOT_stimuli/pictures/1412_fw.png	169.3652970790863	
95	106.61791825294495	picture	0		107	93.0	/experiments/Knapen_AOT/AOT_stimuli/pictures/0377_fw.png	169.38141322135925	0.8956537246704102
95	107.50142478942871	response	0	k		93.0	/experiments/Knapen_AOT/AOT_stimuli/pictures/0377_fw.png	170.26491975784302	
96	107.51357197761536	picture	0		102	94.0	/experiments/Knapen_AOT/AOT_stimuli/pictures/1052_fw.png	170.27706694602966	0.8472273349761963
96	108.35147619247437	response	0	j		94.0	/experiments/Knapen_AOT/AOT_stimuli/pictures/1052_fw.png	171.11497116088867	
97	108.36079931259155	picture	0		112	95.0	/experiments/Knapen_AOT/AOT_stimuli/pictures/0047_fw.png	171.12429428100586	0.9404945373535156
97	109.28506398200989	response	0	k		95.0	/experiments/Knapen_AOT/AOT_stimuli/pictures/0047_fw.png	172.0485589504242	
98	109.30129384994507	picture	0		78	96.0	/experiments/Knapen_AOT/AOT_stimuli/pictures/0276_fw.png	172.06478881835938	0.6584508419036865
98	109.94316077232361	response	0	j		96.0	/experiments/Knapen_AOT/AOT_stimuli/pictures/0276_fw.png	172.70665574073792	
99	109.95974469184875	picture	0		90	97.0	/experiments/Knapen_AOT/AOT_stimuli/pictures/1380_fw.png	172.72323966026306	0.7552618980407715
99	110.70145916938782	response	0	j		97.0	/experiments/Knapen_AOT/AOT_stimuli/pictures/1380_fw.png	173.46495413780212	
100	110.71500658988953	picture	0		84	98.0	/experiments/Knapen_AOT/AOT_stimuli/pictures/1273_fw.png	173.47850155830383	0.7083311080932617
100	111.40982747077942	response	0	j		98.0	/experiments/Knapen_AOT/AOT_stimuli/pictures/1273_fw.png	174.17332243919373	
101	111.42333769798279	picture	0		103	99.0	/experiments/Knapen_AOT/AOT_stimuli/pictures/2025_fw.png	174.1868326663971	0.8612933158874512
101	112.27650499343872	response	0	k		99.0	/experiments/Knapen_AOT/AOT_stimuli/pictures/2025_fw.png	175.03999996185303	
102	112.28463101387024	picture	0		130	100.0	/experiments/Knapen_AOT/AOT_stimuli/pictures/0173_fw.png	175.04812598228455	1.0916953086853027
102	113.36000418663025	response	0	k		100.0	/experiments/Knapen_AOT/AOT_stimuli/pictures/0173_fw.png	176.12349915504456	
103	113.37632632255554	picture	0		153	101.0	/experiments/Knapen_AOT/AOT_stimuli/pictures/1482_fw.png	176.13982129096985	1.2833623886108398
103	114.64320015907288	response	0	k		101.0	/experiments/Knapen_AOT/AOT_stimuli/pictures/1482_fw.png	177.40669512748718	
104	114.65968871116638	picture	0		70	102.0	/experiments/Knapen_AOT/AOT_stimuli/pictures/0428_fw.png	177.4231836795807	0.591686487197876
104	115.23492002487183	response	0	j		102.0	/experiments/Knapen_AOT/AOT_stimuli/pictures/0428_fw.png	177.99841499328613	
105	115.25137519836426	picture	0		143	103.0	/experiments/Knapen_AOT/AOT_stimuli/pictures/0924_fw.png	178.01487016677856	1.200009822845459
105	116.43506646156311	response	0	k		103.0	/experiments/Knapen_AOT/AOT_stimuli/pictures/0924_fw.png	179.19856142997742	
106	116.45138502120972	picture	0		112	104.0	/experiments/Knapen_AOT/AOT_stimuli/pictures/1905_fw.png	179.21487998962402	0.94169020652771
106	117.37656044960022	response	0	k		104.0	/experiments/Knapen_AOT/AOT_stimuli/pictures/1905_fw.png	180.14005541801453	
107	117.39307522773743	picture	0		67	105.0	/experiments/Knapen_AOT/AOT_stimuli/pictures/1500_fw.png	180.15657019615173	0.5582947731018066
107	117.94325423240662	response	0	j		105.0	/experiments/Knapen_AOT/AOT_stimuli/pictures/1500_fw.png	180.70674920082092	
108	117.95137000083923	picture	0		257	106.0	/experiments/Knapen_AOT/AOT_stimuli/pictures/1527_fw.png	180.71486496925354	2.150054454803467
108	120.08499264717102	response	0	k		106.0	/experiments/Knapen_AOT/AOT_stimuli/pictures/1527_fw.png	182.84848761558533	
109	120.1014244556427	picture	0		86	107.0	/experiments/Knapen_AOT/AOT_stimuli/pictures/0101_fw.png	182.864919424057	0.7179000377655029
109	120.80992341041565	response	0	j		107.0	/experiments/Knapen_AOT/AOT_stimuli/pictures/0101_fw.png	183.57341837882996	
110	120.8193244934082	picture	0		75	108.0	/experiments/Knapen_AOT/AOT_stimuli/pictures/1965_fw.png	183.5828194618225	0.6321172714233398
110	121.4349946975708	response	0	j		108.0	/experiments/Knapen_AOT/AOT_stimuli/pictures/1965_fw.png	184.1984896659851	
111	121.45144176483154	picture	0		95	109.0	/experiments/Knapen_AOT/AOT_stimuli/pictures/1101_fw.png	184.21493673324585	0.8000349998474121
111	122.23502326011658	response	0	j		109.0	/experiments/Knapen_AOT/AOT_stimuli/pictures/1101_fw.png	184.99851822853088	
112	122.25147676467896	picture	0		236	110.0	/experiments/Knapen_AOT/AOT_stimuli/pictures/0829_fw.png	185.01497173309326	1.9750146865844727
112	124.20997738838196	response	0	k		110.0	/experiments/Knapen_AOT/AOT_stimuli/pictures/0829_fw.png	186.97347235679626	
113	124.22649145126343	picture	0		94	111.0	/experiments/Knapen_AOT/AOT_stimuli/pictures/1085_fw.png	186.98998641967773	0.7916615009307861
113	124.99402189254761	response	0	k		111.0	/experiments/Knapen_AOT/AOT_stimuli/pictures/1085_fw.png	187.7575168609619	
114	125.01815295219421	picture	0		71	112.0	/experiments/Knapen_AOT/AOT_stimuli/pictures/1376_fw.png	187.78164792060852	0.5927791595458984
114	125.60175347328186	response	0	j		112.0	/experiments/Knapen_AOT/AOT_stimuli/pictures/1376_fw.png	188.36524844169617	
115	125.61093211174011	picture	0		108	113.0	/experiments/Knapen_AOT/AOT_stimuli/pictures/1107_fw.png	188.37442708015442	0.9072432518005371
115	126.50169253349304	response	0	k		113.0	/experiments/Knapen_AOT/AOT_stimuli/pictures/1107_fw.png	189.26518750190735	
116	126.51817536354065	picture	0		83	114.0	/experiments/Knapen_AOT/AOT_stimuli/pictures/0419_fw.png	189.28167033195496	0.7000298500061035
116	127.20196723937988	response	0	j		114.0	/experiments/Knapen_AOT/AOT_stimuli/pictures/0419_fw.png	189.9654622077942	
117	127.21820521354675	picture	0		92	115.0	/experiments/Knapen_AOT/AOT_stimuli/pictures/1164_fw.png	189.98170018196106	0.7677943706512451
117	127.9767017364502	response	0	k		115.0	/experiments/Knapen_AOT/AOT_stimuli/pictures/1164_fw.png	190.7401967048645	
118	127.985999584198	picture	0		105	116.0	/experiments/Knapen_AOT/AOT_stimuli/pictures/1377_fw.png	190.7494945526123	0.8749573230743408
118	128.85173749923706	response	0	j		116.0	/experiments/Knapen_AOT/AOT_stimuli/pictures/1377_fw.png	191.61523246765137	
119	128.86095690727234	picture	0		121	117.0	/experiments/Knapen_AOT/AOT_stimuli/pictures/1756_fw.png	191.62445187568665	1.0072307586669922
119	129.8600652217865	response	0	k		117.0	/experiments/Knapen_AOT/AOT_stimuli/pictures/1756_fw.png	192.6235601902008	
120	129.86818766593933	picture	0		172	118.0	/experiments/Knapen_AOT/AOT_stimuli/pictures/0593_fw.png	192.63168263435364	1.441711187362671
120	131.29341506958008	response	0	j		118.0	/experiments/Knapen_AOT/AOT_stimuli/pictures/0593_fw.png	194.05691003799438	
121	131.309898853302	picture	0		132	119.0	/experiments/Knapen_AOT/AOT_stimuli/pictures/1962_fw.png	194.0733938217163	1.1066670417785645
121	132.39413690567017	response	0	j		119.0	/experiments/Knapen_AOT/AOT_stimuli/pictures/1962_fw.png	195.15763187408447	
122	132.41656589508057	picture	0		93	120.0	/experiments/Knapen_AOT/AOT_stimuli/pictures/1030_fw.png	195.18006086349487	0.7777488231658936
122	133.18510818481445	response	0	k		120.0	/experiments/Knapen_AOT/AOT_stimuli/pictures/1030_fw.png	195.94860315322876	
123	133.19431471824646	picture	0		86	121.0	/experiments/Knapen_AOT/AOT_stimuli/pictures/1510_fw.png	195.95780968666077	0.7155919075012207
123	133.90176582336426	response	0	j		121.0	/experiments/Knapen_AOT/AOT_stimuli/pictures/1510_fw.png	196.66526079177856	
124	133.90990662574768	picture	0		86	122.0	/experiments/Knapen_AOT/AOT_stimuli/pictures/0447_fw.png	196.673401594162	0.7250418663024902
124	134.61867117881775	response	0	j		122.0	/experiments/Knapen_AOT/AOT_stimuli/pictures/0447_fw.png	197.38216614723206	
125	134.63494849205017	picture	0		155	123.0	/experiments/Knapen_AOT/AOT_stimuli/pictures/1929_fw.png	197.39844346046448	1.2955193519592285
125	135.91846299171448	response	0	k		123.0	/experiments/Knapen_AOT/AOT_stimuli/pictures/1929_fw.png	198.68195796012878	
126	135.9304678440094	picture	0		111	124.0	/experiments/Knapen_AOT/AOT_stimuli/pictures/0372_fw.png	198.6939628124237	0.9295153617858887
126	136.84346985816956	response	0	k		124.0	/experiments/Knapen_AOT/AOT_stimuli/pictures/0372_fw.png	199.60696482658386	
127	136.8599832057953	picture	0		89	125.0	/experiments/Knapen_AOT/AOT_stimuli/pictures/1068_fw.png	199.6234781742096	0.7441060543060303
127	137.59373593330383	response	0	j		125.0	/experiments/Knapen_AOT/AOT_stimuli/pictures/1068_fw.png	200.35723090171814	
128	137.60408926010132	picture	0		94	126.0	/experiments/Knapen_AOT/AOT_stimuli/pictures/1850_fw.png	200.36758422851562	0.789238452911377
128	138.37687849998474	response	0	k		126.0	/experiments/Knapen_AOT/AOT_stimuli/pictures/1850_fw.png	201.14037346839905	
129	138.3933277130127	picture	0		76	127.0	/experiments/Knapen_AOT/AOT_stimuli/pictures/1941_fw.png	201.156822681427	0.6416747570037842
129	139.01851153373718	response	0	j		127.0	/experiments/Knapen_AOT/AOT_stimuli/pictures/1941_fw.png	201.7820065021515	
130	139.03500247001648	picture	0		182	128.0	/experiments/Knapen_AOT/AOT_stimuli/pictures/1161_fw.png	201.7984974384308	1.5250957012176514
130	140.54354810714722	response	0	k		128.0	/experiments/Knapen_AOT/AOT_stimuli/pictures/1161_fw.png	203.30704307556152	
131	140.56009817123413	picture	0		77	129.0	/experiments/Knapen_AOT/AOT_stimuli/pictures/1959_fw.png	203.32359313964844	0.6499998569488525
131	141.18725037574768	response	0	j		129.0	/experiments/Knapen_AOT/AOT_stimuli/pictures/1959_fw.png	203.950745344162	
132	141.21009802818298	picture	0		85	130.0	/experiments/Knapen_AOT/AOT_stimuli/pictures/1042_fw.png	203.9735929965973	0.7134628295898438
132	141.9101972579956	response	0	j		130.0	/experiments/Knapen_AOT/AOT_stimuli/pictures/1042_fw.png	204.6736922264099	
133	141.92356085777283	picture	0		109	131.0	/experiments/Knapen_AOT/AOT_stimuli/pictures/0873_fw.png	204.68705582618713	0.9166886806488037
133	142.82689762115479	response	0	k		131.0	/experiments/Knapen_AOT/AOT_stimuli/pictures/0873_fw.png	205.5903925895691	
134	142.84024953842163	picture	0		69	132.0	/experiments/Knapen_AOT/AOT_stimuli/pictures/2153_fw.png	205.60374450683594	0.5833234786987305
134	143.41024374961853	response	0	j		132.0	/experiments/Knapen_AOT/AOT_stimuli/pictures/2153_fw.png	206.17373871803284	
135	143.42357301712036	picture	0		75	133.0	/experiments/Knapen_AOT/AOT_stimuli/pictures/1310_fw.png	206.18706798553467	0.6364932060241699
135	144.04361271858215	response	0	j		133.0	/experiments/Knapen_AOT/AOT_stimuli/pictures/1310_fw.png	206.80710768699646	
136	144.06006622314453	picture	0		110	134.0	/experiments/Knapen_AOT/AOT_stimuli/pictures/1516_fw.png	206.82356119155884	0.9250483512878418
136	144.96859121322632	response	0	k		134.0	/experiments/Knapen_AOT/AOT_stimuli/pictures/1516_fw.png	207.73208618164062	
137	144.98511457443237	picture	0		101	135.0	/experiments/Knapen_AOT/AOT_stimuli/pictures/1504_fw.png	207.74860954284668	0.8500344753265381
137	145.81879997253418	response	0	k		135.0	/experiments/Knapen_AOT/AOT_stimuli/pictures/1504_fw.png	208.5822949409485	
138	145.8351490497589	picture	0		75	136.0	/experiments/Knapen_AOT/AOT_stimuli/pictures/0057_fw.png	208.59864401817322	0.6301300525665283
138	146.4519383907318	response	0	j		136.0	/experiments/Knapen_AOT/AOT_stimuli/pictures/0057_fw.png	209.21543335914612	
139	146.46527910232544	picture	0		131	137.0	/experiments/Knapen_AOT/AOT_stimuli/pictures/0934_fw.png	209.22877407073975	1.1031882762908936
139	147.5519561767578	response	0	k		137.0	/experiments/Knapen_AOT/AOT_stimuli/pictures/0934_fw.png	210.31545114517212	
140	147.56846737861633	picture	0		105	138.0	/experiments/Knapen_AOT/AOT_stimuli/pictures/0288_fw.png	210.33196234703064	0.8833603858947754
140	148.4353792667389	response	0	k		138.0	/experiments/Knapen_AOT/AOT_stimuli/pictures/0288_fw.png	211.1988742351532	
141	148.4518277645111	picture	0		84	139.0	/experiments/Knapen_AOT/AOT_stimuli/pictures/0002_fw.png	211.21532273292542	0.7083034515380859
141	149.14367365837097	response	0	j		139.0	/experiments/Knapen_AOT/AOT_stimuli/pictures/0002_fw.png	211.90716862678528	
142	149.1601312160492	picture	0		84	140.0	/experiments/Knapen_AOT/AOT_stimuli/pictures/1842_fw.png	211.9236261844635	0.7009737491607666
142	149.851984500885	response	0	j		140.0	/experiments/Knapen_AOT/AOT_stimuli/pictures/1842_fw.png	212.61547946929932	
143	149.86110496520996	picture	0		81	141.0	/experiments/Knapen_AOT/AOT_stimuli/pictures/1014_fw.png	212.62459993362427	0.6740164756774902
143	150.527001619339	response	0	j		141.0	/experiments/Knapen_AOT/AOT_stimuli/pictures/1014_fw.png	213.2904965877533	
144	150.53512144088745	picture	0		501	142.0	/experiments/Knapen_AOT/AOT_stimuli/pictures/0900_fw.png	213.29861640930176	4.3121397495269775
144	154.83540081977844	response	0	k		142.0	/experiments/Knapen_AOT/AOT_stimuli/pictures/0900_fw.png	217.59889578819275	
145	154.84726119041443	picture	0		88	143.0	/experiments/Knapen_AOT/AOT_stimuli/pictures/0569_fw.png	217.61075615882874	0.7379653453826904
145	155.56879329681396	response	0	k		143.0	/experiments/Knapen_AOT/AOT_stimuli/pictures/0569_fw.png	218.33228826522827	
146	155.58522653579712	picture	0		80	144.0	/experiments/Knapen_AOT/AOT_stimuli/pictures/0308_fw.png	218.34872150421143	0.6750161647796631
146	156.2437617778778	response	0	j		144.0	/experiments/Knapen_AOT/AOT_stimuli/pictures/0308_fw.png	219.00725674629211	
147	156.26024270057678	picture	0		225	145.0	/experiments/Knapen_AOT/AOT_stimuli/pictures/0655_fw.png	219.0237376689911	1.8833327293395996
147	158.12709045410156	response	0	k		145.0	/experiments/Knapen_AOT/AOT_stimuli/pictures/0655_fw.png	220.89058542251587	
148	158.14357542991638	picture	0		94	146.0	/experiments/Knapen_AOT/AOT_stimuli/pictures/2118_fw.png	220.9070703983307	0.7917027473449707
148	158.9187457561493	response	0	k		146.0	/experiments/Knapen_AOT/AOT_stimuli/pictures/2118_fw.png	221.6822407245636	
149	158.93527817726135	picture	0		108	147.0	/experiments/Knapen_AOT/AOT_stimuli/pictures/1567_fw.png	221.69877314567566	0.9084048271179199
149	159.82737922668457	response	0	k		147.0	/experiments/Knapen_AOT/AOT_stimuli/pictures/1567_fw.png	222.59087419509888	
150	159.84368300437927	picture	0		69	148.0	/experiments/Knapen_AOT/AOT_stimuli/pictures/1871_fw.png	222.60717797279358	0.5800082683563232
150	160.41044998168945	response	0	j		148.0	/experiments/Knapen_AOT/AOT_stimuli/pictures/1871_fw.png	223.17394495010376	
151	160.4236912727356	picture	0		310	149.0	/experiments/Knapen_AOT/AOT_stimuli/pictures/1411_fw.png	223.1871862411499	2.590306520462036
151	163.00234413146973	response	0	k		149.0	/experiments/Knapen_AOT/AOT_stimuli/pictures/1411_fw.png	225.76583909988403	
152	163.01399779319763	picture	0		73	150.0	/experiments/Knapen_AOT/AOT_stimuli/pictures/1343_fw.png	225.77749276161194	0.6046419143676758
152	163.61048698425293	response	0	j		150.0	/experiments/Knapen_AOT/AOT_stimuli/pictures/1343_fw.png	226.37398195266724	
153	163.6186397075653	picture	0		96	151.0	/experiments/Knapen_AOT/AOT_stimuli/pictures/1813_fw.png	226.38213467597961	0.8050904273986816
153	164.4104826450348	response	0	j		151.0	/experiments/Knapen_AOT/AOT_stimuli/pictures/1813_fw.png	227.1739776134491	
154	164.423730134964	picture	0		617	152.0	/experiments/Knapen_AOT/AOT_stimuli/pictures/1947_fw.png	227.1872251033783	5.14586067199707
154	169.56057572364807	response	0	k		152.0	/experiments/Knapen_AOT/AOT_stimuli/pictures/1947_fw.png	232.32407069206238	
155	169.56959080696106	picture	0		131	153.0	/experiments/Knapen_AOT/AOT_stimuli/pictures/1507_fw.png	232.33308577537537	1.0907819271087646
155	170.65228152275085	response	0	k		153.0	/experiments/Knapen_AOT/AOT_stimuli/pictures/1507_fw.png	233.41577649116516	
156	170.66037273406982	picture	0		110	154.0	/experiments/Knapen_AOT/AOT_stimuli/pictures/0635_fw.png	233.42386770248413	0.925065279006958
156	171.5689480304718	response	0	j		154.0	/experiments/Knapen_AOT/AOT_stimuli/pictures/0635_fw.png	234.3324429988861	
157	171.58543801307678	picture	0		121	155.0	/experiments/Knapen_AOT/AOT_stimuli/pictures/0798_fw.png	234.3489329814911	1.0119667053222656
157	172.5859019756317	response	0	k		155.0	/experiments/Knapen_AOT/AOT_stimuli/pictures/0798_fw.png	235.34939694404602	
158	172.59740471839905	picture	0		93	156.0	/experiments/Knapen_AOT/AOT_stimuli/pictures/1653_fw.png	235.36089968681335	0.7713580131530762
158	173.36061143875122	response	0	j		156.0	/experiments/Knapen_AOT/AOT_stimuli/pictures/1653_fw.png	236.12410640716553	
159	173.36876273155212	picture	0		127	157.0	/experiments/Knapen_AOT/AOT_stimuli/pictures/0358_fw.png	236.13225769996643	1.0667345523834229
159	174.41895937919617	response	0	k		157.0	/experiments/Knapen_AOT/AOT_stimuli/pictures/0358_fw.png	237.18245434761047	
160	174.43549728393555	picture	0		93	158.0	/experiments/Knapen_AOT/AOT_stimuli/pictures/1187_fw.png	237.19899225234985	0.7799756526947021
160	175.2023377418518	response	0	j		158.0	/experiments/Knapen_AOT/AOT_stimuli/pictures/1187_fw.png	237.9658327102661	
161	175.21547293663025	picture	0		82	159.0	/experiments/Knapen_AOT/AOT_stimuli/pictures/0601_fw.png	237.97896790504456	0.6950302124023438
161	175.8942506313324	response	0	j		159.0	/experiments/Knapen_AOT/AOT_stimuli/pictures/0601_fw.png	238.6577455997467	
162	175.9105031490326	picture	0		103	160.0	/experiments/Knapen_AOT/AOT_stimuli/pictures/0408_fw.png	238.6739981174469	0.8605403900146484
162	176.7606475353241	response	0	j		160.0	/experiments/Knapen_AOT/AOT_stimuli/pictures/0408_fw.png	239.5241425037384	
163	176.77104353904724	picture	0		107	161.0	/experiments/Knapen_AOT/AOT_stimuli/pictures/0108_fw.png	239.53453850746155	0.895878791809082
163	177.65235567092896	response	0	k		161.0	/experiments/Knapen_AOT/AOT_stimuli/pictures/0108_fw.png	240.41585063934326	
164	177.66692233085632	picture	0		112	162.0	/experiments/Knapen_AOT/AOT_stimuli/pictures/0532_fw.png	240.43041729927063	0.9374923706054688
164	178.59403800964355	response	0	j		162.0	/experiments/Knapen_AOT/AOT_stimuli/pictures/0532_fw.png	241.35753297805786	
165	178.6044147014618	picture	0		99	163.0	/experiments/Knapen_AOT/AOT_stimuli/pictures/0463_fw.png	241.3679096698761	0.831108570098877
165	179.41901564598083	response	0	j		163.0	/experiments/Knapen_AOT/AOT_stimuli/pictures/0463_fw.png	242.18251061439514	
166	179.43552327156067	picture	0		6	164.0	/experiments/Knapen_AOT/AOT_stimuli/pictures/1713_fw.png	242.19901823997498	0.050806522369384766
166	179.4772970676422	response	0	j		164.0	/experiments/Knapen_AOT/AOT_stimuli/pictures/1713_fw.png	242.24079203605652	
167	179.48632979393005	picture	0		233	165.0	/experiments/Knapen_AOT/AOT_stimuli/pictures/0280_fw.png	242.24982476234436	1.9492285251617432
167	181.4190492630005	response	0	j		165.0	/experiments/Knapen_AOT/AOT_stimuli/pictures/0280_fw.png	244.1825442314148	
168	181.4355583190918	picture	0		85	166.0	/experiments/Knapen_AOT/AOT_stimuli/pictures/0283_fw.png	244.1990532875061	0.7105309963226318
168	182.13580536842346	response	0	j		166.0	/experiments/Knapen_AOT/AOT_stimuli/pictures/0283_fw.png	244.89930033683777	
169	182.14608931541443	picture	0		102	167.0	/experiments/Knapen_AOT/AOT_stimuli/pictures/2063_fw.png	244.90958428382874	0.854193925857544
169	182.9859118461609	response	0	k		167.0	/experiments/Knapen_AOT/AOT_stimuli/pictures/2063_fw.png	245.7494068145752	
170	183.00028324127197	picture	0		91	168.0	/experiments/Knapen_AOT/AOT_stimuli/pictures/0693_fw.png	245.76377820968628	0.7638680934906006
170	183.75238943099976	response	0	j		168.0	/experiments/Knapen_AOT/AOT_stimuli/pictures/0693_fw.png	246.51588439941406	
171	183.76415133476257	picture	0		84	169.0	/experiments/Knapen_AOT/AOT_stimuli/pictures/0135_fw.png	246.52764630317688	0.7047603130340576
171	184.45240354537964	response	0	j		169.0	/experiments/Knapen_AOT/AOT_stimuli/pictures/0135_fw.png	247.21589851379395	
172	184.46891164779663	picture	0		118	170.0	/experiments/Knapen_AOT/AOT_stimuli/pictures/1564_fw.png	247.23240661621094	0.9917066097259521
172	185.44412970542908	response	0	k		170.0	/experiments/Knapen_AOT/AOT_stimuli/pictures/1564_fw.png	248.20762467384338	
173	185.46061825752258	picture	0		85	171.0	/experiments/Knapen_AOT/AOT_stimuli/pictures/1997_fw.png	248.2241132259369	0.7167017459869385
173	186.16075539588928	response	0	j		171.0	/experiments/Knapen_AOT/AOT_stimuli/pictures/1997_fw.png	248.9242503643036	
174	186.17732000350952	picture	0		154	172.0	/experiments/Knapen_AOT/AOT_stimuli/pictures/2108_fw.png	248.94081497192383	1.288264513015747
174	187.4524645805359	response	0	k		172.0	/experiments/Knapen_AOT/AOT_stimuli/pictures/2108_fw.png	250.2159595489502	
175	187.46558451652527	picture	0		77	173.0	/experiments/Knapen_AOT/AOT_stimuli/pictures/1815_fw.png	250.22907948493958	0.6458122730255127
175	188.10248017311096	response	0	j		173.0	/experiments/Knapen_AOT/AOT_stimuli/pictures/1815_fw.png	250.86597514152527	
176	188.11139678955078	picture	0		383	174.0	/experiments/Knapen_AOT/AOT_stimuli/pictures/0758_fw.png	250.8748917579651	3.1992714405059814
176	191.2941963672638	response	0	k		174.0	/experiments/Knapen_AOT/AOT_stimuli/pictures/0758_fw.png	254.0576913356781	
177	191.31066823005676	picture	0		162	175.0	/experiments/Knapen_AOT/AOT_stimuli/pictures/2096_fw.png	254.07416319847107	1.349998950958252
177	192.6525387763977	response	0	k		175.0	/experiments/Knapen_AOT/AOT_stimuli/pictures/2096_fw.png	255.416033744812	
178	192.66066718101501	picture	0		77	176.0	/experiments/Knapen_AOT/AOT_stimuli/pictures/1322_fw.png	255.42416214942932	0.6452169418334961
178	193.29419088363647	response	0	j		176.0	/experiments/Knapen_AOT/AOT_stimuli/pictures/1322_fw.png	256.0576858520508	
179	193.3058841228485	picture	0		83	177.0	/experiments/Knapen_AOT/AOT_stimuli/pictures/1249_fw.png	256.0693790912628	0.6965084075927734
179	193.97930312156677	response	0	j		177.0	/experiments/Knapen_AOT/AOT_stimuli/pictures/1249_fw.png	256.7427980899811	
180	194.00239253044128	picture	0		79	178.0	/experiments/Knapen_AOT/AOT_stimuli/pictures/1458_fw.png	256.7658874988556	0.6666874885559082
180	194.65256214141846	response	0	j		178.0	/experiments/Knapen_AOT/AOT_stimuli/pictures/1458_fw.png	257.41605710983276	
181	194.6690800189972	picture	0		94	179.0	/experiments/Knapen_AOT/AOT_stimuli/pictures/0958_fw.png	257.4325749874115	0.7832803726196289
181	195.4443235397339	response	0	k		179.0	/experiments/Knapen_AOT/AOT_stimuli/pictures/0958_fw.png	258.2078185081482	
182	195.45236039161682	picture	0		130	180.0	/experiments/Knapen_AOT/AOT_stimuli/pictures/0975_fw.png	258.2158553600311	1.0917234420776367
182	196.5283191204071	response	0	k		180.0	/experiments/Knapen_AOT/AOT_stimuli/pictures/0975_fw.png	259.2918140888214	
183	196.54408383369446	picture	0		78	181.0	/experiments/Knapen_AOT/AOT_stimuli/pictures/0187_fw.png	259.30757880210876	0.6583199501037598
183	197.17827248573303	response	0	j		181.0	/experiments/Knapen_AOT/AOT_stimuli/pictures/0187_fw.png	259.94176745414734	
184	197.20240378379822	picture	0		102	182.0	/experiments/Knapen_AOT/AOT_stimuli/pictures/0981_fw.png	259.9658987522125	0.8583543300628662
184	198.04446649551392	response	0	k		182.0	/experiments/Knapen_AOT/AOT_stimuli/pictures/0981_fw.png	260.8079614639282	
185	198.06075811386108	picture	0		92	183.0	/experiments/Knapen_AOT/AOT_stimuli/pictures/0033_fw.png	260.8242530822754	0.7750449180603027
185	198.81942200660706	response	0	j		183.0	/experiments/Knapen_AOT/AOT_stimuli/pictures/0033_fw.png	261.58291697502136	
186	198.8358030319214	picture	0		105	184.0	/experiments/Knapen_AOT/AOT_stimuli/pictures/1761_fw.png	261.5992980003357	0.88332200050354
186	199.7026071548462	response	0	k		184.0	/experiments/Knapen_AOT/AOT_stimuli/pictures/1761_fw.png	262.4661021232605	
187	199.71912503242493	picture	0		102	185.0	/experiments/Knapen_AOT/AOT_stimuli/pictures/2097_fw.png	262.48262000083923	0.858323335647583
187	200.56133937835693	response	0	k		185.0	/experiments/Knapen_AOT/AOT_stimuli/pictures/2097_fw.png	263.32483434677124	
188	200.5774483680725	picture	0		111	186.0	/experiments/Knapen_AOT/AOT_stimuli/pictures/0322_fw.png	263.3409433364868	0.9299027919769287
188	201.49434518814087	response	0	k		186.0	/experiments/Knapen_AOT/AOT_stimuli/pictures/0322_fw.png	264.2578401565552	
189	201.50735116004944	picture	0		157	187.0	/experiments/Knapen_AOT/AOT_stimuli/pictures/0102_fw.png	264.27084612846375	1.3124845027923584
189	202.81106638908386	response	0	k		187.0	/experiments/Knapen_AOT/AOT_stimuli/pictures/0102_fw.png	265.57456135749817	
190	202.8198356628418	picture	0		68	188.0	/experiments/Knapen_AOT/AOT_stimuli/pictures/1714_fw.png	265.5833306312561	0.5743451118469238
190	203.37795329093933	response	0	j		188.0	/experiments/Knapen_AOT/AOT_stimuli/pictures/1714_fw.png	266.14144825935364	
191	203.39418077468872	picture	0		101	189.0	/experiments/Knapen_AOT/AOT_stimuli/pictures/1716_fw.png	266.157675743103	0.8423364162445068
191	204.2276589870453	response	0	k		189.0	/experiments/Knapen_AOT/AOT_stimuli/pictures/1716_fw.png	266.9911539554596	
192	204.23651719093323	picture	0		117	190.0	/experiments/Knapen_AOT/AOT_stimuli/pictures/1910_fw.png	267.00001215934753	0.9826807975769043
192	205.20269441604614	response	0	k		190.0	/experiments/Knapen_AOT/AOT_stimuli/pictures/1910_fw.png	267.96618938446045	
193	205.21919798851013	picture	0		101	191.0	/experiments/Knapen_AOT/AOT_stimuli/pictures/0852_fw.png	267.98269295692444	0.8500058650970459
193	206.0527241230011	response	0	j		191.0	/experiments/Knapen_AOT/AOT_stimuli/pictures/0852_fw.png	268.8162190914154	
194	206.06920385360718	picture	0		117	192.0	/experiments/Knapen_AOT/AOT_stimuli/pictures/1251_fw.png	268.8326988220215	0.9798634052276611
194	207.03605246543884	response	0	k		192.0	/experiments/Knapen_AOT/AOT_stimuli/pictures/1251_fw.png	269.79954743385315	
195	207.04906725883484	picture	0		88	193.0	/experiments/Knapen_AOT/AOT_stimuli/pictures/0840_fw.png	269.81256222724915	0.7367839813232422
195	207.770254611969	response	0	j		193.0	/experiments/Knapen_AOT/AOT_stimuli/pictures/0840_fw.png	270.5337495803833	
196	207.78585124015808	picture	0		96	194.0	/experiments/Knapen_AOT/AOT_stimuli/pictures/1732_fw.png	270.5493462085724	0.8083741664886475
196	208.5701141357422	response	0	k		194.0	/experiments/Knapen_AOT/AOT_stimuli/pictures/1732_fw.png	271.3336091041565	
197	208.59422540664673	picture	0		202	195.0	/experiments/Knapen_AOT/AOT_stimuli/pictures/1605_fw.png	271.35772037506104	1.6916859149932861
197	210.26945304870605	response	0	j		195.0	/experiments/Knapen_AOT/AOT_stimuli/pictures/1605_fw.png	273.03294801712036	
198	210.28591132164001	picture	0		88	196.0	/experiments/Knapen_AOT/AOT_stimuli/pictures/1460_fw.png	273.0494062900543	0.7353739738464355
198	211.0110957622528	response	0	k		196.0	/experiments/Knapen_AOT/AOT_stimuli/pictures/1460_fw.png	273.7745907306671	
199	211.02128529548645	picture	0		88	197.0	/experiments/Knapen_AOT/AOT_stimuli/pictures/0541_fw.png	273.78478026390076	0.7361483573913574
199	211.7444453239441	response	0	j		197.0	/experiments/Knapen_AOT/AOT_stimuli/pictures/0541_fw.png	274.5079402923584	
200	211.7574336528778	picture	0		76	198.0	/experiments/Knapen_AOT/AOT_stimuli/pictures/1545_fw.png	274.5209286212921	0.6389098167419434
200	212.3861584663391	response	0	j		198.0	/experiments/Knapen_AOT/AOT_stimuli/pictures/1545_fw.png	275.1496534347534	
201	212.39634346961975	picture	0		100	199.0	/experiments/Knapen_AOT/AOT_stimuli/pictures/1304_fw.png	275.15983843803406	0.8332977294921875
201	213.21944403648376	response	0	j		199.0	/experiments/Knapen_AOT/AOT_stimuli/pictures/1304_fw.png	275.98293900489807	
202	213.22964119911194	picture	0		155	200.0	/experiments/Knapen_AOT/AOT_stimuli/pictures/0894_fw.png	275.99313616752625	1.297983169555664
202	214.51115608215332	response	0	k		200.0	/experiments/Knapen_AOT/AOT_stimuli/pictures/0894_fw.png	277.2746510505676	
203	214.5276243686676	picture	0		109	201.0	/experiments/Knapen_AOT/AOT_stimuli/pictures/1113_fw.png	277.2911193370819	0.9103682041168213
203	215.42781710624695	response	0	k		201.0	/experiments/Knapen_AOT/AOT_stimuli/pictures/1113_fw.png	278.19131207466125	
204	215.43799257278442	picture	0		73	202.0	/experiments/Knapen_AOT/AOT_stimuli/pictures/1651_fw.png	278.20148754119873	0.6111178398132324
204	216.0361807346344	response	0	j		202.0	/experiments/Knapen_AOT/AOT_stimuli/pictures/1651_fw.png	278.7996757030487	
205	216.04911041259766	picture	0		96	203.0	/experiments/Knapen_AOT/AOT_stimuli/pictures/0229_fw.png	278.81260538101196	0.8119235038757324
205	216.8444983959198	response	0	k		203.0	/experiments/Knapen_AOT/AOT_stimuli/pictures/0229_fw.png	279.6079933643341	
206	216.8610339164734	picture	0		126	204.0	/experiments/Knapen_AOT/AOT_stimuli/pictures/1786_fw.png	279.6245288848877	1.0583240985870361
206	217.9028594493866	response	0	k		204.0	/experiments/Knapen_AOT/AOT_stimuli/pictures/1786_fw.png	280.6663544178009	
207	217.91935801506042	picture	0		97	205.0	/experiments/Knapen_AOT/AOT_stimuli/pictures/0021_fw.png	280.68285298347473	0.8103196620941162
207	218.71951627731323	response	0	k		205.0	/experiments/Knapen_AOT/AOT_stimuli/pictures/0021_fw.png	281.48301124572754	
208	218.72967767715454	picture	0		89	206.0	/experiments/Knapen_AOT/AOT_stimuli/pictures/1029_fw.png	281.49317264556885	0.7480690479278564
208	219.46121382713318	response	0	j		206.0	/experiments/Knapen_AOT/AOT_stimuli/pictures/1029_fw.png	282.2247087955475	
209	219.4777467250824	picture	0		80	207.0	/experiments/Knapen_AOT/AOT_stimuli/pictures/0204_fw.png	282.2412416934967	0.6686134338378906
209	220.13622426986694	response	0	j		207.0	/experiments/Knapen_AOT/AOT_stimuli/pictures/0204_fw.png	282.89971923828125	
210	220.1463601589203	picture	0		91	208.0	/experiments/Knapen_AOT/AOT_stimuli/pictures/0536_fw.png	282.9098551273346	0.7646894454956055
210	220.894602060318	response	0	k		208.0	/experiments/Knapen_AOT/AOT_stimuli/pictures/0536_fw.png	283.6580970287323	
211	220.9110496044159	picture	0		117	209.0	/experiments/Knapen_AOT/AOT_stimuli/pictures/1270_fw.png	283.6745445728302	0.9833688735961914
211	221.87791275978088	response	0	j		209.0	/experiments/Knapen_AOT/AOT_stimuli/pictures/1270_fw.png	284.6414077281952	
212	221.89441847801208	picture	0		104	210.0	/experiments/Knapen_AOT/AOT_stimuli/pictures/1199_fw.png	284.6579134464264	0.8749971389770508
212	222.75292706489563	response	0	k		210.0	/experiments/Knapen_AOT/AOT_stimuli/pictures/1199_fw.png	285.51642203330994	
213	222.76941561698914	picture	0		106	211.0	/experiments/Knapen_AOT/AOT_stimuli/pictures/1845_fw.png	285.53291058540344	0.8838925361633301
213	223.6446018218994	response	0	k		211.0	/experiments/Knapen_AOT/AOT_stimuli/pictures/1845_fw.png	286.4080967903137	
214	223.65330815315247	picture	0		95	212.0	/experiments/Knapen_AOT/AOT_stimuli/pictures/0974_fw.png	286.4168031215668	0.7994585037231445
214	224.43655228614807	response	0	j		212.0	/experiments/Knapen_AOT/AOT_stimuli/pictures/0974_fw.png	287.2000472545624	
215	224.4527666568756	picture	0		107	213.0	/experiments/Knapen_AOT/AOT_stimuli/pictures/1851_fw.png	287.2162616252899	0.9000954627990723
215	225.3365752696991	response	0	j		213.0	/experiments/Knapen_AOT/AOT_stimuli/pictures/1851_fw.png	288.1000702381134	
216	225.35286211967468	picture	0		111	214.0	/experiments/Knapen_AOT/AOT_stimuli/pictures/0178_fw.png	288.116357088089	0.9254701137542725
216	226.2696533203125	response	0	k		214.0	/experiments/Knapen_AOT/AOT_stimuli/pictures/0178_fw.png	289.0331482887268	
217	226.27833223342896	picture	0		84	215.0	/experiments/Knapen_AOT/AOT_stimuli/pictures/0497_fw.png	289.04182720184326	0.7014117240905762
217	226.96198320388794	response	0	j		215.0	/experiments/Knapen_AOT/AOT_stimuli/pictures/0497_fw.png	289.72547817230225	
218	226.97974395751953	picture	0		102	216.0	/experiments/Knapen_AOT/AOT_stimuli/pictures/0481_fw.png	289.74323892593384	0.8541901111602783
218	227.81965112686157	response	0	k		216.0	/experiments/Knapen_AOT/AOT_stimuli/pictures/0481_fw.png	290.5831460952759	
219	227.8339340686798	picture	0		93	217.0	/experiments/Knapen_AOT/AOT_stimuli/pictures/1730_fw.png	290.5974290370941	0.7777450084686279
219	228.6029884815216	response	0	j		217.0	/experiments/Knapen_AOT/AOT_stimuli/pictures/1730_fw.png	291.3664834499359	
220	228.61167907714844	picture	0		89	218.0	/experiments/Knapen_AOT/AOT_stimuli/pictures/1060_fw.png	291.37517404556274	0.7430825233459473
220	229.34463739395142	response	0	j		218.0	/experiments/Knapen_AOT/AOT_stimuli/pictures/1060_fw.png	292.1081323623657	
221	229.35476160049438	picture	0		79	219.0	/experiments/Knapen_AOT/AOT_stimuli/pictures/0357_fw.png	292.1182565689087	0.6647701263427734
221	230.00300860404968	response	0	j		219.0	/experiments/Knapen_AOT/AOT_stimuli/pictures/0357_fw.png	292.766503572464	
222	230.01953172683716	picture	0		392	220.0	/experiments/Knapen_AOT/AOT_stimuli/pictures/1013_fw.png	292.78302669525146	3.2727811336517334
222	233.27805471420288	response	0	j		220.0	/experiments/Knapen_AOT/AOT_stimuli/pictures/1013_fw.png	296.0415496826172	
223	233.2923128604889	picture	0		129	221.0	/experiments/Knapen_AOT/AOT_stimuli/pictures/0659_fw.png	296.0558078289032	1.085568904876709
223	234.36168241500854	response	0	k		221.0	/experiments/Knapen_AOT/AOT_stimuli/pictures/0659_fw.png	297.12517738342285	
224	234.3778817653656	picture	0		102	222.0	/experiments/Knapen_AOT/AOT_stimuli/pictures/1202_fw.png	297.1413767337799	0.8519232273101807
224	235.21973943710327	response	0	k		222.0	/experiments/Knapen_AOT/AOT_stimuli/pictures/1202_fw.png	297.9832344055176	
225	235.22980499267578	picture	0		98	223.0	/experiments/Knapen_AOT/AOT_stimuli/pictures/0360_fw.png	297.9932999610901	0.8231000900268555
225	236.0364203453064	response	0	j		223.0	/experiments/Knapen_AOT/AOT_stimuli/pictures/0360_fw.png	298.7999153137207	
226	236.05290508270264	picture	0		98	224.0	/experiments/Knapen_AOT/AOT_stimuli/pictures/0131_fw.png	298.81640005111694	0.8227529525756836
226	236.8614387512207	response	0	j		224.0	/experiments/Knapen_AOT/AOT_stimuli/pictures/0131_fw.png	299.624933719635	
227	236.87565803527832	picture	0		184	225.0	/experiments/Knapen_AOT/AOT_stimuli/pictures/1823_fw.png	299.6391530036926	1.5416932106018066
227	238.4031274318695	response	0	j		225.0	/experiments/Knapen_AOT/AOT_stimuli/pictures/1823_fw.png	301.1666224002838	
228	238.41735124588013	picture	0		118	226.0	/experiments/Knapen_AOT/AOT_stimuli/pictures/1335_fw.png	301.18084621429443	0.9860918521881104
228	239.39478039741516	response	0	k		226.0	/experiments/Knapen_AOT/AOT_stimuli/pictures/1335_fw.png	302.15827536582947	
229	239.40344309806824	picture	0		108	227.0	/experiments/Knapen_AOT/AOT_stimuli/pictures/1771_fw.png	302.16693806648254	0.9027862548828125
229	240.2947759628296	response	0	j		227.0	/experiments/Knapen_AOT/AOT_stimuli/pictures/1771_fw.png	303.0582709312439	
230	240.30622935295105	picture	0		89	228.0	/experiments/Knapen_AOT/AOT_stimuli/pictures/2064_fw.png	303.06972432136536	0.7467355728149414
230	241.03651070594788	response	0	k		228.0	/experiments/Knapen_AOT/AOT_stimuli/pictures/2064_fw.png	303.8000056743622	
231	241.052964925766	picture	0		122	229.0	/experiments/Knapen_AOT/AOT_stimuli/pictures/1239_fw.png	303.8164598941803	1.025007963180542
231	242.06151413917542	response	0	k		229.0	/experiments/Knapen_AOT/AOT_stimuli/pictures/1239_fw.png	304.8250091075897	
232	242.07797288894653	picture	0		101	230.0	/experiments/Knapen_AOT/AOT_stimuli/pictures/1773_fw.png	304.84146785736084	0.8500254154205322
232	242.91150641441345	response	0	k		230.0	/experiments/Knapen_AOT/AOT_stimuli/pictures/1773_fw.png	305.67500138282776	
233	242.92799830436707	picture	0		163	231.0	/experiments/Knapen_AOT/AOT_stimuli/pictures/1359_fw.png	305.6914932727814	1.364396333694458
233	244.2781994342804	response	0	j		231.0	/experiments/Knapen_AOT/AOT_stimuli/pictures/1359_fw.png	307.0416944026947	
234	244.29239463806152	picture	0		113	232.0	/experiments/Knapen_AOT/AOT_stimuli/pictures/1781_fw.png	307.05588960647583	0.9444072246551514
234	245.22820711135864	response	0	k		232.0	/experiments/Knapen_AOT/AOT_stimuli/pictures/1781_fw.png	307.99170207977295	
235	245.23680186271667	picture	0		111	233.0	/experiments/Knapen_AOT/AOT_stimuli/pictures/1071_fw.png	308.000296831131	0.9306366443634033
235	246.15323686599731	response	0	k		233.0	/experiments/Knapen_AOT/AOT_stimuli/pictures/1071_fw.png	308.9167318344116	
236	246.16743850708008	picture	0		130	234.0	/experiments/Knapen_AOT/AOT_stimuli/pictures/1100_fw.png	308.9309334754944	1.0939502716064453
236	247.24488997459412	response	0	k		234.0	/experiments/Knapen_AOT/AOT_stimuli/pictures/1100_fw.png	310.0083849430084	
237	247.26138877868652	picture	0		113	235.0	/experiments/Knapen_AOT/AOT_stimuli/pictures/0950_fw.png	310.02488374710083	0.9500172138214111
237	248.19492435455322	response	0	k		235.0	/experiments/Knapen_AOT/AOT_stimuli/pictures/0950_fw.png	310.95841932296753	
238	248.21140599250793	picture	0		101	236.0	/experiments/Knapen_AOT/AOT_stimuli/pictures/2120_fw.png	310.97490096092224	0.8499999046325684
238	249.04520320892334	response	0	k		236.0	/experiments/Knapen_AOT/AOT_stimuli/pictures/2120_fw.png	311.80869817733765	
239	249.0614058971405	picture	0		182	237.0	/experiments/Knapen_AOT/AOT_stimuli/pictures/1943_fw.png	311.8249008655548	1.5226974487304688
239	250.56250739097595	response	0	k		237.0	/experiments/Knapen_AOT/AOT_stimuli/pictures/1943_fw.png	313.32600235939026	
240	250.58410334587097	picture	0		74	238.0	/experiments/Knapen_AOT/AOT_stimuli/pictures/1936_fw.png	313.3475983142853	0.6250298023223877
240	251.1950080394745	response	0	j		238.0	/experiments/Knapen_AOT/AOT_stimuli/pictures/1936_fw.png	313.9585030078888	
241	251.20913314819336	picture	0		97	239.0	/experiments/Knapen_AOT/AOT_stimuli/pictures/0434_fw.png	313.97262811660767	0.8124587535858154
241	252.0116000175476	response	0	k		239.0	/experiments/Knapen_AOT/AOT_stimuli/pictures/0434_fw.png	314.7750949859619	
242	252.02159190177917	picture	0		167	240.0	/experiments/Knapen_AOT/AOT_stimuli/pictures/1485_fw.png	314.7850868701935	1.3958587646484375
242	253.40329718589783	response	0	j		240.0	/experiments/Knapen_AOT/AOT_stimuli/pictures/1485_fw.png	316.16679215431213	
243	253.4174506664276	picture	0		82	241.0	/experiments/Knapen_AOT/AOT_stimuli/pictures/1753_fw.png	316.1809456348419	0.6940312385559082
243	254.09522247314453	response	0	j		241.0	/experiments/Knapen_AOT/AOT_stimuli/pictures/1753_fw.png	316.85871744155884	
244	254.11148190498352	picture	0		83	242.0	/experiments/Knapen_AOT/AOT_stimuli/pictures/1649_fw.png	316.8749768733978	0.6948976516723633
244	254.7950518131256	response	0	j		242.0	/experiments/Knapen_AOT/AOT_stimuli/pictures/1649_fw.png	317.5585467815399	
245	254.80637955665588	picture	0		90	243.0	/experiments/Knapen_AOT/AOT_stimuli/pictures/0395_fw.png	317.5698745250702	0.7499895095825195
245	255.54500365257263	response	0	k		243.0	/experiments/Knapen_AOT/AOT_stimuli/pictures/0395_fw.png	318.30849862098694	
246	255.5563690662384	picture	0		89	244.0	/experiments/Knapen_AOT/AOT_stimuli/pictures/1223_fw.png	318.3198640346527	0.7467954158782959
246	256.2867183685303	response	0	j		244.0	/experiments/Knapen_AOT/AOT_stimuli/pictures/1223_fw.png	319.0502133369446	
247	256.3031644821167	picture	0		92	245.0	/experiments/Knapen_AOT/AOT_stimuli/pictures/0212_fw.png	319.066659450531	0.7750148773193359
247	257.0616660118103	response	0	j		245.0	/experiments/Knapen_AOT/AOT_stimuli/pictures/0212_fw.png	319.8251609802246	
248	257.07817935943604	picture	0		112	246.0	/experiments/Knapen_AOT/AOT_stimuli/pictures/0261_fw.png	319.84167432785034	0.9416818618774414
248	258.0033724308014	response	0	k		246.0	/experiments/Knapen_AOT/AOT_stimuli/pictures/0261_fw.png	320.7668673992157	
249	258.0198612213135	picture	0		119	247.0	/experiments/Knapen_AOT/AOT_stimuli/pictures/1333_fw.png	320.7833561897278	1.0000247955322266
249	259.0033829212189	response	0	k		247.0	/experiments/Knapen_AOT/AOT_stimuli/pictures/1333_fw.png	321.7668778896332	
250	259.0198860168457	picture	0		74	248.0	/experiments/Knapen_AOT/AOT_stimuli/pictures/0055_fw.png	321.78338098526	0.6249828338623047
250	259.62840819358826	response	0	j		248.0	/experiments/Knapen_AOT/AOT_stimuli/pictures/0055_fw.png	322.39190316200256	
251	259.644868850708	picture	0		144	249.0	/experiments/Knapen_AOT/AOT_stimuli/pictures/1710_fw.png	322.4083638191223	1.2083654403686523
251	260.83673071861267	response	0	k		249.0	/experiments/Knapen_AOT/AOT_stimuli/pictures/1710_fw.png	323.600225687027	
252	260.85323429107666	picture	0		287	250.0	/experiments/Knapen_AOT/AOT_stimuli/pictures/1040_fw.png	323.61672925949097	2.4000630378723145
252	263.2367811203003	response	0	k		250.0	/experiments/Knapen_AOT/AOT_stimuli/pictures/1040_fw.png	326.0002760887146	
253	263.253297328949	picture	0		96	251.0	/experiments/Knapen_AOT/AOT_stimuli/pictures/2041_fw.png	326.0167922973633	0.8083064556121826
253	264.04509449005127	response	0	j		251.0	/experiments/Knapen_AOT/AOT_stimuli/pictures/2041_fw.png	326.8085894584656	
254	264.06160378456116	picture	0		79	252.0	/experiments/Knapen_AOT/AOT_stimuli/pictures/0223_fw.png	326.82509875297546	0.6666665077209473
254	264.7118203639984	response	0	j		252.0	/experiments/Knapen_AOT/AOT_stimuli/pictures/0223_fw.png	327.4753153324127	
255	264.7282702922821	picture	0		114	253.0	/experiments/Knapen_AOT/AOT_stimuli/pictures/0945_fw.png	327.4917652606964	0.9670486450195312
255	265.6701228618622	response	0	j		253.0	/experiments/Knapen_AOT/AOT_stimuli/pictures/0945_fw.png	328.4336178302765	
256	265.69531893730164	picture	0		106	254.0	/experiments/Knapen_AOT/AOT_stimuli/pictures/0072_fw.png	328.45881390571594	0.8913369178771973
256	266.56363105773926	response	0	k		254.0	/experiments/Knapen_AOT/AOT_stimuli/pictures/0072_fw.png	329.32712602615356	
257	266.58665585517883	picture	0		81	255.0	/experiments/Knapen_AOT/AOT_stimuli/pictures/1226_fw.png	329.35015082359314	0.678109884262085
257	267.25345849990845	response	0	j		255.0	/experiments/Knapen_AOT/AOT_stimuli/pictures/1226_fw.png	330.01695346832275	
258	267.2647657394409	picture	0		109	256.0	/experiments/Knapen_AOT/AOT_stimuli/pictures/0841_fw.png	330.0282607078552	0.9135572910308838
258	268.1542532444	response	0	j		256.0	/experiments/Knapen_AOT/AOT_stimuli/pictures/0841_fw.png	330.91774821281433	
259	268.1783230304718	picture	0		437	257.0	/experiments/Knapen_AOT/AOT_stimuli/pictures/1914_fw.png	330.9418179988861	3.650033712387085
259	271.8118829727173	response	0	j		257.0	/experiments/Knapen_AOT/AOT_stimuli/pictures/1914_fw.png	334.5753779411316	
260	271.8283567428589	picture	0		87	258.0	/experiments/Knapen_AOT/AOT_stimuli/pictures/0119_fw.png	334.5918517112732	0.7281184196472168
260	272.54521775245667	response	0	j		258.0	/experiments/Knapen_AOT/AOT_stimuli/pictures/0119_fw.png	335.308712720871	
261	272.5564751625061	picture	0		87	259.0	/experiments/Knapen_AOT/AOT_stimuli/pictures/1531_fw.png	335.3199701309204	0.7302348613739014
261	273.2702593803406	response	0	k		259.0	/experiments/Knapen_AOT/AOT_stimuli/pictures/1531_fw.png	336.0337543487549	
262	273.28671002388	picture	0		106	260.0	/experiments/Knapen_AOT/AOT_stimuli/pictures/2039_fw.png	336.0502049922943	0.891730546951294
262	274.16216373443604	response	0	k		260.0	/experiments/Knapen_AOT/AOT_stimuli/pictures/2039_fw.png	336.92565870285034	
263	274.1784405708313	picture	0		91	261.0	/experiments/Knapen_AOT/AOT_stimuli/pictures/0028_fw.png	336.9419355392456	0.7666654586791992
263	274.9285674095154	response	0	j		261.0	/experiments/Knapen_AOT/AOT_stimuli/pictures/0028_fw.png	337.6920623779297	
264	274.9451060295105	picture	0		120	262.0	/experiments/Knapen_AOT/AOT_stimuli/pictures/2131_fw.png	337.7086009979248	1.0002555847167969
264	275.93692803382874	response	0	j		262.0	/experiments/Knapen_AOT/AOT_stimuli/pictures/2131_fw.png	338.70042300224304	
265	275.9453616142273	picture	0		90	263.0	/experiments/Knapen_AOT/AOT_stimuli/pictures/0799_fw.png	338.7088565826416	0.7581493854522705
265	276.68699073791504	response	0	k		263.0	/experiments/Knapen_AOT/AOT_stimuli/pictures/0799_fw.png	339.45048570632935	
266	276.70351099967957	picture	0		83	264.0	/experiments/Knapen_AOT/AOT_stimuli/pictures/2142_fw.png	339.4670059680939	0.6999540328979492
266	277.38693404197693	response	0	j		264.0	/experiments/Knapen_AOT/AOT_stimuli/pictures/2142_fw.png	340.15042901039124	
267	277.4034650325775	picture	0		82	265.0	/experiments/Knapen_AOT/AOT_stimuli/pictures/0215_fw.png	340.1669600009918	0.6916429996490479
267	278.078599691391	response	0	j		265.0	/experiments/Knapen_AOT/AOT_stimuli/pictures/0215_fw.png	340.8420946598053	
268	278.09510803222656	picture	0		219	266.0	/experiments/Knapen_AOT/AOT_stimuli/pictures/0077_fw.png	340.85860300064087	1.829474687576294
268	279.91196036338806	response	0	k		266.0	/experiments/Knapen_AOT/AOT_stimuli/pictures/0077_fw.png	342.67545533180237	
269	279.92458271980286	picture	0		143	267.0	/experiments/Knapen_AOT/AOT_stimuli/pictures/2001_fw.png	342.68807768821716	1.2038967609405518
269	281.1120536327362	response	0	k		267.0	/experiments/Knapen_AOT/AOT_stimuli/pictures/2001_fw.png	343.8755486011505	
270	281.1284794807434	picture	0		83	268.0	/experiments/Knapen_AOT/AOT_stimuli/pictures/0649_fw.png	343.8919744491577	0.7000086307525635
270	281.8120427131653	response	0	j		268.0	/experiments/Knapen_AOT/AOT_stimuli/pictures/0649_fw.png	344.5755376815796	
271	281.828488111496	picture	0		104	269.0	/experiments/Knapen_AOT/AOT_stimuli/pictures/1184_fw.png	344.5919830799103	0.8750543594360352
271	282.6870391368866	response	0	k		269.0	/experiments/Knapen_AOT/AOT_stimuli/pictures/1184_fw.png	345.4505341053009	
272	282.703542470932	picture	0		108	270.0	/experiments/Knapen_AOT/AOT_stimuli/pictures/2147_fw.png	345.4670374393463	0.9083149433135986
272	283.5954234600067	response	0	j		270.0	/experiments/Knapen_AOT/AOT_stimuli/pictures/2147_fw.png	346.358918428421	
273	283.6118574142456	picture	0		170	271.0	/experiments/Knapen_AOT/AOT_stimuli/pictures/1170_fw.png	346.3753523826599	1.425020456314087
273	285.02077555656433	response	0	k		271.0	/experiments/Knapen_AOT/AOT_stimuli/pictures/1170_fw.png	347.78427052497864	
274	285.0368778705597	picture	0		87	272.0	/experiments/Knapen_AOT/AOT_stimuli/pictures/0176_fw.png	347.800372838974	0.7280275821685791
274	285.75371623039246	response	0	j		272.0	/experiments/Knapen_AOT/AOT_stimuli/pictures/0176_fw.png	348.51721119880676	
275	285.76490545272827	picture	0		100	273.0	/experiments/Knapen_AOT/AOT_stimuli/pictures/2121_fw.png	348.5284004211426	0.8333477973937988
275	286.58701610565186	response	0	k		273.0	/experiments/Knapen_AOT/AOT_stimuli/pictures/2121_fw.png	349.35051107406616	
276	286.59825325012207	picture	0		82	274.0	/experiments/Knapen_AOT/AOT_stimuli/pictures/0935_fw.png	349.3617482185364	0.6886496543884277
276	287.27036333084106	response	0	j		274.0	/experiments/Knapen_AOT/AOT_stimuli/pictures/0935_fw.png	350.03385829925537	
277	287.2869029045105	picture	0		83	275.0	/experiments/Knapen_AOT/AOT_stimuli/pictures/0838_fw.png	350.0503978729248	0.6932902336120605
277	287.9703438282013	response	0	k		275.0	/experiments/Knapen_AOT/AOT_stimuli/pictures/0838_fw.png	350.7338387966156	
278	287.98019313812256	picture	0		139	276.0	/experiments/Knapen_AOT/AOT_stimuli/pictures/1247_fw.png	350.74368810653687	1.165053129196167
278	289.1286861896515	response	0	k		276.0	/experiments/Knapen_AOT/AOT_stimuli/pictures/1247_fw.png	351.8921811580658	
279	289.1452462673187	picture	0		80	277.0	/experiments/Knapen_AOT/AOT_stimuli/pictures/0614_fw.png	351.90874123573303	0.675034761428833
279	289.80371952056885	response	0	j		277.0	/experiments/Knapen_AOT/AOT_stimuli/pictures/0614_fw.png	352.56721448898315	
280	289.82028102874756	picture	0		134	278.0	/experiments/Knapen_AOT/AOT_stimuli/pictures/1145_fw.png	352.58377599716187	1.1250464916229248
280	290.9289746284485	response	0	k		278.0	/experiments/Knapen_AOT/AOT_stimuli/pictures/1145_fw.png	353.6924695968628	
281	290.9453275203705	picture	0		80	279.0	/experiments/Knapen_AOT/AOT_stimuli/pictures/1591_fw.png	353.7088224887848	0.6749653816223145
281	291.6039791107178	response	0	j		279.0	/experiments/Knapen_AOT/AOT_stimuli/pictures/1591_fw.png	354.3674740791321	
282	291.6202929019928	picture	0		127	280.0	/experiments/Knapen_AOT/AOT_stimuli/pictures/0704_fw.png	354.3837878704071	1.0613269805908203
282	292.6704499721527	response	0	k		280.0	/experiments/Knapen_AOT/AOT_stimuli/pictures/0704_fw.png	355.433944940567	
283	292.6816198825836	picture	0		85	281.0	/experiments/Knapen_AOT/AOT_stimuli/pictures/0489_fw.png	355.4451148509979	0.7136974334716797
283	293.3788275718689	response	0	j		281.0	/experiments/Knapen_AOT/AOT_stimuli/pictures/0489_fw.png	356.1423225402832	
284	293.3953173160553	picture	0		81	282.0	/experiments/Knapen_AOT/AOT_stimuli/pictures/1696_fw.png	356.1588122844696	0.6833364963531494
284	294.06217551231384	response	0	j		282.0	/experiments/Knapen_AOT/AOT_stimuli/pictures/1696_fw.png	356.82567048072815	
285	294.07865381240845	picture	0		162	283.0	/experiments/Knapen_AOT/AOT_stimuli/pictures/0126_fw.png	356.84214878082275	1.3583390712738037
285	295.4205467700958	response	0	k		283.0	/experiments/Knapen_AOT/AOT_stimuli/pictures/0126_fw.png	358.18404173851013	
286	295.43699288368225	picture	0		81	284.0	/experiments/Knapen_AOT/AOT_stimuli/pictures/1410_fw.png	358.20048785209656	0.683366060256958
286	296.1038467884064	response	0	j		284.0	/experiments/Knapen_AOT/AOT_stimuli/pictures/1410_fw.png	358.8673417568207	
287	296.1203589439392	picture	0		88	285.0	/experiments/Knapen_AOT/AOT_stimuli/pictures/1514_fw.png	358.8838539123535	0.7416849136352539
287	296.8455147743225	response	0	k		285.0	/experiments/Knapen_AOT/AOT_stimuli/pictures/1514_fw.png	359.6090097427368	
288	296.86204385757446	picture	0		147	286.0	/experiments/Knapen_AOT/AOT_stimuli/pictures/1590_fw.png	359.62553882598877	1.229363203048706
288	298.07885336875916	response	0	j		286.0	/experiments/Knapen_AOT/AOT_stimuli/pictures/1590_fw.png	360.84234833717346	
289	298.09140706062317	picture	0		96	287.0	/experiments/Knapen_AOT/AOT_stimuli/pictures/2128_fw.png	360.8549020290375	0.8123152256011963
289	298.88720655441284	response	0	j		287.0	/experiments/Knapen_AOT/AOT_stimuli/pictures/2128_fw.png	361.65070152282715	
290	298.90372228622437	picture	0		82	288.0	/experiments/Knapen_AOT/AOT_stimuli/pictures/0859_fw.png	361.6672172546387	0.6916818618774414
290	299.57890033721924	response	0	j		288.0	/experiments/Knapen_AOT/AOT_stimuli/pictures/0859_fw.png	362.34239530563354	
291	299.5954041481018	picture	0		143	289.0	/experiments/Knapen_AOT/AOT_stimuli/pictures/0473_fw.png	362.3588991165161	1.2000477313995361
291	300.77893328666687	response	0	j		289.0	/experiments/Knapen_AOT/AOT_stimuli/pictures/0473_fw.png	363.5424282550812	
292	300.79545187950134	picture	0		214	290.0	/experiments/Knapen_AOT/AOT_stimuli/pictures/0577_fw.png	363.55894684791565	1.7916653156280518
292	302.5706036090851	response	0	j		290.0	/experiments/Knapen_AOT/AOT_stimuli/pictures/0577_fw.png	365.3340985774994	
293	302.5871171951294	picture	0		107	291.0	/experiments/Knapen_AOT/AOT_stimuli/pictures/0144_fw.png	365.3506121635437	0.9000110626220703
293	303.47059297561646	response	0	k		291.0	/experiments/Knapen_AOT/AOT_stimuli/pictures/0144_fw.png	366.23408794403076	
294	303.48712825775146	picture	0		209	292.0	/experiments/Knapen_AOT/AOT_stimuli/pictures/0003_fw.png	366.25062322616577	1.7501602172851562
294	305.2206406593323	response	0	k		292.0	/experiments/Knapen_AOT/AOT_stimuli/pictures/0003_fw.png	367.9841356277466	
295	305.2372884750366	picture	0		120	293.0	/experiments/Knapen_AOT/AOT_stimuli/pictures/1704_fw.png	368.0007834434509	1.0081889629364014
295	306.2290909290314	response	0	j		293.0	/experiments/Knapen_AOT/AOT_stimuli/pictures/1704_fw.png	368.9925858974457	
296	306.245477437973	picture	0		110	294.0	/experiments/Knapen_AOT/AOT_stimuli/pictures/0780_fw.png	369.00897240638733	0.9223799705505371
296	307.1465835571289	response	0	k		294.0	/experiments/Knapen_AOT/AOT_stimuli/pictures/0780_fw.png	369.9100785255432	
297	307.16785740852356	picture	0		104	295.0	/experiments/Knapen_AOT/AOT_stimuli/pictures/1091_fw.png	369.93135237693787	0.8776376247406006
297	308.0292103290558	response	0	k		295.0	/experiments/Knapen_AOT/AOT_stimuli/pictures/1091_fw.png	370.7927052974701	
298	308.04549503326416	picture	0		167	296.0	/experiments/Knapen_AOT/AOT_stimuli/pictures/1734_fw.png	370.80899000167847	1.3931879997253418
298	309.4289884567261	response	0	k		296.0	/experiments/Knapen_AOT/AOT_stimuli/pictures/1734_fw.png	372.1924834251404	
299	309.4386830329895	picture	0		100	297.0	/experiments/Knapen_AOT/AOT_stimuli/pictures/1988_fw.png	372.2021780014038	0.8401753902435303
299	310.26234316825867	response	0	k		297.0	/experiments/Knapen_AOT/AOT_stimuli/pictures/1988_fw.png	373.025838136673	
300	310.27885842323303	picture	0		106	298.0	/experiments/Knapen_AOT/AOT_stimuli/pictures/2073_fw.png	373.04235339164734	0.8916902542114258
300	311.1542766094208	response	0	j		298.0	/experiments/Knapen_AOT/AOT_stimuli/pictures/2073_fw.png	373.9177715778351	
301	311.17054867744446	picture	0		156	299.0	/experiments/Knapen_AOT/AOT_stimuli/pictures/1181_fw.png	373.93404364585876	1.3083436489105225
301	312.46244072914124	response	0	k		299.0	/experiments/Knapen_AOT/AOT_stimuli/pictures/1181_fw.png	375.22593569755554	
302	312.478892326355	picture	0		194	300.0	/experiments/Knapen_AOT/AOT_stimuli/pictures/0095_fw.png	375.2423872947693	1.6250274181365967
302	314.08741879463196	response	0	k		300.0	/experiments/Knapen_AOT/AOT_stimuli/pictures/0095_fw.png	376.85091376304626	
303	314.1039197444916	picture	0		86	301.0	/experiments/Knapen_AOT/AOT_stimuli/pictures/0147_fw.png	376.8674147129059	0.7167308330535889
303	314.81244945526123	response	0	j		301.0	/experiments/Knapen_AOT/AOT_stimuli/pictures/0147_fw.png	377.57594442367554	
304	314.82065057754517	picture	0		96	302.0	/experiments/Knapen_AOT/AOT_stimuli/pictures/1372_fw.png	377.5841455459595	0.8082711696624756
304	315.6124541759491	response	0	k		302.0	/experiments/Knapen_AOT/AOT_stimuli/pictures/1372_fw.png	378.3759491443634	
305	315.62892174720764	picture	0		80	303.0	/experiments/Knapen_AOT/AOT_stimuli/pictures/1652_fw.png	378.39241671562195	0.6750044822692871
305	316.28747272491455	response	0	j		303.0	/experiments/Knapen_AOT/AOT_stimuli/pictures/1652_fw.png	379.05096769332886	
306	316.30392622947693	picture	0		109	304.0	/experiments/Knapen_AOT/AOT_stimuli/pictures/1182_fw.png	379.06742119789124	0.9167342185974121
306	317.20413160324097	response	0	j		304.0	/experiments/Knapen_AOT/AOT_stimuli/pictures/1182_fw.png	379.9676265716553	
307	317.22066044807434	picture	0		86	305.0	/experiments/Knapen_AOT/AOT_stimuli/pictures/1843_fw.png	379.98415541648865	0.7249865531921387
307	317.92915201187134	response	0	j		305.0	/experiments/Knapen_AOT/AOT_stimuli/pictures/1843_fw.png	380.69264698028564	
308	317.9456470012665	picture	0		143	306.0	/experiments/Knapen_AOT/AOT_stimuli/pictures/1323_fw.png	380.7091419696808	1.200000286102295
308	319.129145860672	response	0	k		306.0	/experiments/Knapen_AOT/AOT_stimuli/pictures/1323_fw.png	381.8926408290863	
309	319.1456472873688	picture	0		78	307.0	/experiments/Knapen_AOT/AOT_stimuli/pictures/0696_fw.png	381.9091422557831	0.6583342552185059
309	319.7874913215637	response	0	j		307.0	/experiments/Knapen_AOT/AOT_stimuli/pictures/0696_fw.png	382.550986289978	
310	319.8039815425873	picture	0		96	308.0	/experiments/Knapen_AOT/AOT_stimuli/pictures/1865_fw.png	382.5674765110016	0.8083899021148682
310	320.59585189819336	response	0	k		308.0	/experiments/Knapen_AOT/AOT_stimuli/pictures/1865_fw.png	383.35934686660767	
311	320.61237144470215	picture	0		89	309.0	/experiments/Knapen_AOT/AOT_stimuli/pictures/1807_fw.png	383.37586641311646	0.750035285949707
311	321.3395435810089	response	0	j		309.0	/experiments/Knapen_AOT/AOT_stimuli/pictures/1807_fw.png	384.1030385494232	
312	321.36240673065186	picture	0		107	310.0	/experiments/Knapen_AOT/AOT_stimuli/pictures/1920_fw.png	384.12590169906616	0.8999438285827637
312	322.24586296081543	response	0	k		310.0	/experiments/Knapen_AOT/AOT_stimuli/pictures/1920_fw.png	385.00935792922974	
313	322.2623505592346	picture	0		123	311.0	/experiments/Knapen_AOT/AOT_stimuli/pictures/0209_fw.png	385.0258455276489	1.0333459377288818
313	323.2791864871979	response	0	k		311.0	/experiments/Knapen_AOT/AOT_stimuli/pictures/0209_fw.png	386.0426814556122	
314	323.2956964969635	picture	0		110	312.0	/experiments/Knapen_AOT/AOT_stimuli/pictures/1547_fw.png	386.0591914653778	0.924994945526123
314	324.2041997909546	response	0	k		312.0	/experiments/Knapen_AOT/AOT_stimuli/pictures/1547_fw.png	386.9676947593689	
315	324.2206914424896	picture	0		94	313.0	/experiments/Knapen_AOT/AOT_stimuli/pictures/1610_fw.png	386.98418641090393	0.7917013168334961
315	324.99618673324585	response	0	j		313.0	/experiments/Knapen_AOT/AOT_stimuli/pictures/1610_fw.png	387.75968170166016	
316	325.0123927593231	picture	0		87	314.0	/experiments/Knapen_AOT/AOT_stimuli/pictures/2101_fw.png	387.7758877277374	0.7333729267120361
316	325.7292113304138	response	0	j		314.0	/experiments/Knapen_AOT/AOT_stimuli/pictures/2101_fw.png	388.4927062988281	
317	325.74576568603516	picture	0		92	315.0	/experiments/Knapen_AOT/AOT_stimuli/pictures/1212_fw.png	388.50926065444946	0.7749905586242676
317	326.5042407512665	response	0	j		315.0	/experiments/Knapen_AOT/AOT_stimuli/pictures/1212_fw.png	389.2677357196808	
318	326.5207562446594	picture	0		123	316.0	/experiments/Knapen_AOT/AOT_stimuli/pictures/1747_fw.png	389.28425121307373	1.0333385467529297
318	327.5376937389374	response	0	k		316.0	/experiments/Knapen_AOT/AOT_stimuli/pictures/1747_fw.png	390.3011887073517	
319	327.55409479141235	picture	0		93	317.0	/experiments/Knapen_AOT/AOT_stimuli/pictures/2168_fw.png	390.31758975982666	0.7833278179168701
319	328.3209488391876	response	0	j		317.0	/experiments/Knapen_AOT/AOT_stimuli/pictures/2168_fw.png	391.08444380760193	
320	328.3374226093292	picture	0		91	318.0	/experiments/Knapen_AOT/AOT_stimuli/pictures/1000_fw.png	391.10091757774353	0.7611391544342041
320	329.0876097679138	response	0	j		318.0	/experiments/Knapen_AOT/AOT_stimuli/pictures/1000_fw.png	391.8511047363281	
321	329.0985617637634	picture	0		249	319.0	/experiments/Knapen_AOT/AOT_stimuli/pictures/1886_fw.png	391.86205673217773	2.076420545578003
321	331.16262221336365	response	0	j		319.0	/experiments/Knapen_AOT/AOT_stimuli/pictures/1886_fw.png	393.92611718177795	
322	331.17498230934143	picture	0		83	320.0	/experiments/Knapen_AOT/AOT_stimuli/pictures/0518_fw.png	393.93847727775574	0.6958136558532715
322	331.8543953895569	response	0	k		320.0	/experiments/Knapen_AOT/AOT_stimuli/pictures/0518_fw.png	394.6178903579712	
323	331.8707959651947	picture	0		74	321.0	/experiments/Knapen_AOT/AOT_stimuli/pictures/0646_fw.png	394.634290933609	0.625009298324585
323	332.47930359840393	response	0	k		321.0	/experiments/Knapen_AOT/AOT_stimuli/pictures/0646_fw.png	395.24279856681824	
324	332.4958052635193	picture	0		83	322.0	/experiments/Knapen_AOT/AOT_stimuli/pictures/0513_fw.png	395.2593002319336	0.7001035213470459
324	333.17930603027344	response	0	j		322.0	/experiments/Knapen_AOT/AOT_stimuli/pictures/0513_fw.png	395.94280099868774	
325	333.19590878486633	picture	0		145	323.0	/experiments/Knapen_AOT/AOT_stimuli/pictures/0399_fw.png	395.95940375328064	1.2165825366973877
325	334.3961298465729	response	0	k		323.0	/experiments/Knapen_AOT/AOT_stimuli/pictures/0399_fw.png	397.1596248149872	
326	334.4124913215637	picture	0		99	324.0	/experiments/Knapen_AOT/AOT_stimuli/pictures/1083_fw.png	397.175986289978	0.8333566188812256
326	335.2293496131897	response	0	j		324.0	/experiments/Knapen_AOT/AOT_stimuli/pictures/1083_fw.png	397.992844581604	
327	335.24584794044495	picture	0		99	325.0	/experiments/Knapen_AOT/AOT_stimuli/pictures/0222_fw.png	398.00934290885925	0.8333477973937988
327	336.06269574165344	response	0	k		325.0	/experiments/Knapen_AOT/AOT_stimuli/pictures/0222_fw.png	398.82619071006775	
328	336.07919573783875	picture	0		99	326.0	/experiments/Knapen_AOT/AOT_stimuli/pictures/0384_fw.png	398.84269070625305	0.8333470821380615
328	336.8960506916046	response	0	k		326.0	/experiments/Knapen_AOT/AOT_stimuli/pictures/0384_fw.png	399.6595456600189	
329	336.9125428199768	picture	0		123	327.0	/experiments/Knapen_AOT/AOT_stimuli/pictures/1020_fw.png	399.6760377883911	1.033357858657837
329	337.929639339447	response	0	k		327.0	/experiments/Knapen_AOT/AOT_stimuli/pictures/1020_fw.png	400.6931343078613	
330	337.94590067863464	picture	0		96	328.0	/experiments/Knapen_AOT/AOT_stimuli/pictures/1005_fw.png	400.70939564704895	0.8083384037017822
330	338.73063802719116	response	0	j		328.0	/experiments/Knapen_AOT/AOT_stimuli/pictures/1005_fw.png	401.49413299560547	
331	338.7542390823364	picture	0		76	329.0	/experiments/Knapen_AOT/AOT_stimuli/pictures/0148_fw.png	401.51773405075073	0.6360569000244141
331	339.37938237190247	response	0	j		329.0	/experiments/Knapen_AOT/AOT_stimuli/pictures/0148_fw.png	402.1428773403168	
332	339.39029598236084	picture	0		103	330.0	/experiments/Knapen_AOT/AOT_stimuli/pictures/1553_fw.png	402.15379095077515	0.8639373779296875
332	340.23794436454773	response	0	k		330.0	/experiments/Knapen_AOT/AOT_stimuli/pictures/1553_fw.png	403.00143933296204	
333	340.2542333602905	picture	0		85	331.0	/experiments/Knapen_AOT/AOT_stimuli/pictures/0508_fw.png	403.01772832870483	0.7166783809661865
333	340.9468913078308	response	0	j		331.0	/experiments/Knapen_AOT/AOT_stimuli/pictures/0508_fw.png	403.7103862762451	
334	340.9709117412567	picture	0		206	332.0	/experiments/Knapen_AOT/AOT_stimuli/pictures/0996_fw.png	403.734406709671	1.725031852722168
334	342.67946338653564	response	0	k		332.0	/experiments/Knapen_AOT/AOT_stimuli/pictures/0996_fw.png	405.44295835494995	
335	342.6959435939789	picture	0		90	333.0	/experiments/Knapen_AOT/AOT_stimuli/pictures/0564_fw.png	405.4594385623932	0.7583644390106201
335	343.4378590583801	response	0	j		333.0	/experiments/Knapen_AOT/AOT_stimuli/pictures/0564_fw.png	406.20135402679443	
336	343.4543080329895	picture	0		82	334.0	/experiments/Knapen_AOT/AOT_stimuli/pictures/2022_fw.png	406.2178030014038	0.6916656494140625
336	344.1296865940094	response	0	j		334.0	/experiments/Knapen_AOT/AOT_stimuli/pictures/2022_fw.png	406.8931815624237	
337	344.14597368240356	picture	0		81	335.0	/experiments/Knapen_AOT/AOT_stimuli/pictures/1882_fw.png	406.90946865081787	0.6833152770996094
337	344.8127534389496	response	0	j		335.0	/experiments/Knapen_AOT/AOT_stimuli/pictures/1882_fw.png	407.5762484073639	
338	344.8292889595032	picture	0		125	336.0	/experiments/Knapen_AOT/AOT_stimuli/pictures/0735_fw.png	407.5927839279175	1.0500164031982422
338	345.8627371788025	response	0	j		336.0	/experiments/Knapen_AOT/AOT_stimuli/pictures/0735_fw.png	408.6262321472168	
339	345.8793053627014	picture	0		103	337.0	/experiments/Knapen_AOT/AOT_stimuli/pictures/0446_fw.png	408.6428003311157	0.8583157062530518
339	346.7294268608093	response	0	k		337.0	/experiments/Knapen_AOT/AOT_stimuli/pictures/0446_fw.png	409.49292182922363	
340	346.73762106895447	picture	0		96	338.0	/experiments/Knapen_AOT/AOT_stimuli/pictures/0086_fw.png	409.5011160373688	0.8083674907684326
340	347.5296039581299	response	0	k		338.0	/experiments/Knapen_AOT/AOT_stimuli/pictures/0086_fw.png	410.2930989265442	
341	347.5459885597229	picture	0		83	339.0	/experiments/Knapen_AOT/AOT_stimuli/pictures/0915_fw.png	410.3094835281372	0.7000119686126709
341	348.2295467853546	response	0	k		339.0	/experiments/Knapen_AOT/AOT_stimuli/pictures/0915_fw.png	410.9930417537689	
342	348.24600052833557	picture	0		188	340.0	/experiments/Knapen_AOT/AOT_stimuli/pictures/0617_fw.png	411.0094954967499	1.5750186443328857
342	349.80458903312683	response	0	k		340.0	/experiments/Knapen_AOT/AOT_stimuli/pictures/0617_fw.png	412.56808400154114	
343	349.82101917266846	picture	0		147	341.0	/experiments/Knapen_AOT/AOT_stimuli/pictures/1236_fw.png	412.58451414108276	1.23335862159729
343	351.0378782749176	response	0	k		341.0	/experiments/Knapen_AOT/AOT_stimuli/pictures/1236_fw.png	413.8013732433319	
344	351.05437779426575	picture	0		127	342.0	/experiments/Knapen_AOT/AOT_stimuli/pictures/1038_fw.png	413.81787276268005	1.066704511642456
344	352.10459089279175	response	0	k		342.0	/experiments/Knapen_AOT/AOT_stimuli/pictures/1038_fw.png	414.86808586120605	
345	352.1210823059082	picture	0		80	343.0	/experiments/Knapen_AOT/AOT_stimuli/pictures/0076_fw.png	414.8845772743225	0.6750121116638184
345	352.77977991104126	response	0	k		343.0	/experiments/Knapen_AOT/AOT_stimuli/pictures/0076_fw.png	415.54327487945557	
346	352.796094417572	picture	0		102	344.0	/experiments/Knapen_AOT/AOT_stimuli/pictures/1989_fw.png	415.5595893859863	0.8583657741546631
346	353.6381804943085	response	0	k		344.0	/experiments/Knapen_AOT/AOT_stimuli/pictures/1989_fw.png	416.4016754627228	
347	353.6544601917267	picture	0		143	345.0	/experiments/Knapen_AOT/AOT_stimuli/pictures/0388_fw.png	416.417955160141	1.199974775314331
347	354.83791518211365	response	0	k		345.0	/experiments/Knapen_AOT/AOT_stimuli/pictures/0388_fw.png	417.60141015052795	
348	354.854434967041	picture	0		80	346.0	/experiments/Knapen_AOT/AOT_stimuli/pictures/1779_fw.png	417.6179299354553	0.667931318283081
348	355.5129175186157	response	0	j		346.0	/experiments/Knapen_AOT/AOT_stimuli/pictures/1779_fw.png	418.27641248703003	
349	355.5223662853241	picture	0		122	347.0	/experiments/Knapen_AOT/AOT_stimuli/pictures/1303_fw.png	418.2858612537384	1.0237517356872559
349	356.5296185016632	response	0	k		347.0	/experiments/Knapen_AOT/AOT_stimuli/pictures/1303_fw.png	419.2931134700775	
350	356.54611802101135	picture	0		97	348.0	/experiments/Knapen_AOT/AOT_stimuli/pictures/0128_fw.png	419.30961298942566	0.8166649341583252
350	357.34646129608154	response	0	j		348.0	/experiments/Knapen_AOT/AOT_stimuli/pictures/0128_fw.png	420.10995626449585	
351	357.3627829551697	picture	0		79	349.0	/experiments/Knapen_AOT/AOT_stimuli/pictures/0211_fw.png	420.126277923584	0.6595964431762695
351	358.0129563808441	response	0	j		349.0	/experiments/Knapen_AOT/AOT_stimuli/pictures/0211_fw.png	420.7764513492584	
352	358.02237939834595	picture	0		92	350.0	/experiments/Knapen_AOT/AOT_stimuli/pictures/1928_fw.png	420.78587436676025	0.7708711624145508
352	358.77962255477905	response	0	j		350.0	/experiments/Knapen_AOT/AOT_stimuli/pictures/1928_fw.png	421.54311752319336	
353	358.7932505607605	picture	0		78	351.0	/experiments/Knapen_AOT/AOT_stimuli/pictures/0243_fw.png	421.5567455291748	0.6612517833709717
353	359.4380359649658	response	0	j		351.0	/experiments/Knapen_AOT/AOT_stimuli/pictures/0243_fw.png	422.2015309333801	
354	359.45450234413147	picture	0		161	352.0	/experiments/Knapen_AOT/AOT_stimuli/pictures/0053_fw.png	422.2179973125458	1.350036382675171
354	360.7880070209503	response	0	k		352.0	/experiments/Knapen_AOT/AOT_stimuli/pictures/0053_fw.png	423.5515019893646	
355	360.80453872680664	picture	0		100	353.0	/experiments/Knapen_AOT/AOT_stimuli/pictures/1592_fw.png	423.56803369522095	0.841667652130127
355	361.6296737194061	response	0	k		353.0	/experiments/Knapen_AOT/AOT_stimuli/pictures/1592_fw.png	424.39316868782043	
356	361.64620637893677	picture	0		93	354.0	/experiments/Knapen_AOT/AOT_stimuli/pictures/1300_fw.png	424.4097013473511	0.783311128616333
356	362.41305327415466	response	0	j		354.0	/experiments/Knapen_AOT/AOT_stimuli/pictures/1300_fw.png	425.17654824256897	
357	362.4295175075531	picture	0		95	355.0	/experiments/Knapen_AOT/AOT_stimuli/pictures/0490_fw.png	425.1930124759674	0.8000192642211914
357	363.21303939819336	response	0	j		355.0	/experiments/Knapen_AOT/AOT_stimuli/pictures/0490_fw.png	425.97653436660767	
358	363.2295367717743	picture	0		351	356.0	/experiments/Knapen_AOT/AOT_stimuli/pictures/1002_fw.png	425.9930317401886	2.933361053466797
358	366.13896131515503	response	0	k		356.0	/experiments/Knapen_AOT/AOT_stimuli/pictures/1002_fw.png	428.90245628356934	
359	366.1628978252411	picture	0		113	357.0	/experiments/Knapen_AOT/AOT_stimuli/pictures/0474_fw.png	428.9263927936554	0.9500141143798828
359	367.09641790390015	response	0	j		357.0	/experiments/Knapen_AOT/AOT_stimuli/pictures/0474_fw.png	429.85991287231445	
360	367.112911939621	picture	0		204	358.0	/experiments/Knapen_AOT/AOT_stimuli/pictures/1385_fw.png	429.8764069080353	1.7083497047424316
360	368.80476236343384	response	0	j		358.0	/experiments/Knapen_AOT/AOT_stimuli/pictures/1385_fw.png	431.56825733184814	
361	368.8212616443634	picture	0		125	359.0	/experiments/Knapen_AOT/AOT_stimuli/pictures/1274_fw.png	431.5847566127777	1.0500142574310303
361	369.85484075546265	response	0	k		359.0	/experiments/Knapen_AOT/AOT_stimuli/pictures/1274_fw.png	432.61833572387695	
362	369.87127590179443	stim	0		312			432.63477087020874	2.6130387783050537
362	372.4693624973297	response	0	space				435.232857465744	
