trial_nr	onset	event_type	phase	response	nr_frames	picture_index	picture_file	onset_abs	duration
0	0.20830297470092773	stim	0		866			138.06635999679565	7.283477067947388
0	7.4251790046691895	response	0	space				145.28323602676392	
2	7.491780042648315	picture	0		91	0.0	/experiments/knapen_AOT/AOT_stimuli/pictures/0838_fw.png	145.34983706474304	0.7997729778289795
2	8.235044956207275	response	0	k		0.0	/experiments/knapen_AOT/AOT_stimuli/pictures/0838_fw.png	146.093101978302	
3	8.291553020477295	picture	0		102	1.0	/experiments/knapen_AOT/AOT_stimuli/pictures/0004_fw.png	146.14961004257202	0.9250428676605225
3	9.158681869506836	response	0	k		1.0	/experiments/knapen_AOT/AOT_stimuli/pictures/0004_fw.png	147.01673889160156	
4	9.216595888137817	picture	0		107	2.0	/experiments/knapen_AOT/AOT_stimuli/pictures/1820_fw.png	147.07465291023254	0.9350330829620361
4	10.100098848342896	response	0	j		2.0	/experiments/knapen_AOT/AOT_stimuli/pictures/1820_fw.png	147.95815587043762	
5	10.151628971099854	picture	0		116	3.0	/experiments/knapen_AOT/AOT_stimuli/pictures/0169_fw.png	148.00968599319458	1.000032901763916
5	11.108422994613647	response	0	k		3.0	/experiments/knapen_AOT/AOT_stimuli/pictures/0169_fw.png	148.96648001670837	
6	11.15166187286377	picture	0		132	4.0	/experiments/knapen_AOT/AOT_stimuli/pictures/0765_fw.png	149.0097188949585	1.1249661445617676
6	12.24220895767212	response	0	j		4.0	/experiments/knapen_AOT/AOT_stimuli/pictures/0765_fw.png	150.10026597976685	
7	12.276628017425537	picture	0		94	5.0	/experiments/knapen_AOT/AOT_stimuli/pictures/1473_fw.png	150.13468503952026	0.8334219455718994
7	13.043558835983276	response	0	k		5.0	/experiments/knapen_AOT/AOT_stimuli/pictures/1473_fw.png	150.901615858078	
8	13.110049962997437	picture	0		107	6.0	/experiments/knapen_AOT/AOT_stimuli/pictures/0939_fw.png	150.96810698509216	0.944403886795044
8	13.992055892944336	response	0	k		6.0	/experiments/knapen_AOT/AOT_stimuli/pictures/0939_fw.png	151.85011291503906	
9	14.05445384979248	picture	0		192	7.0	/experiments/knapen_AOT/AOT_stimuli/pictures/1896_fw.png	151.9125108718872	1.6389660835266113
9	15.635202884674072	response	0	k		7.0	/experiments/knapen_AOT/AOT_stimuli/pictures/1896_fw.png	153.4932599067688	
10	15.693419933319092	picture	0		191	8.0	/experiments/knapen_AOT/AOT_stimuli/pictures/1585_fw.png	153.55147695541382	1.6179099082946777
10	17.275195837020874	response	0	k		8.0	/experiments/knapen_AOT/AOT_stimuli/pictures/1585_fw.png	155.1332528591156	
11	17.31132984161377	picture	0		140	9.0	/experiments/knapen_AOT/AOT_stimuli/pictures/1494_fw.png	155.1693868637085	1.2223351001739502
11	18.466933012008667	response	0	k		9.0	/experiments/knapen_AOT/AOT_stimuli/pictures/1494_fw.png	156.3249900341034	
12	18.53366494178772	picture	0		107	10.0	/experiments/knapen_AOT/AOT_stimuli/pictures/1337_fw.png	156.39172196388245	0.941417932510376
12	19.41037893295288	response	0	k		10.0	/experiments/knapen_AOT/AOT_stimuli/pictures/1337_fw.png	157.2684359550476	
13	19.475082874298096	picture	0		142	11.0	/experiments/knapen_AOT/AOT_stimuli/pictures/1181_fw.png	157.33313989639282	1.2251100540161133
13	20.650235891342163	response	0	k		11.0	/experiments/knapen_AOT/AOT_stimuli/pictures/1181_fw.png	158.5082929134369	
14	20.70019292831421	picture	0		82	12.0	/experiments/knapen_AOT/AOT_stimuli/pictures/2124_fw.png	158.55824995040894	0.7166309356689453
14	21.37527298927307	response	0	j		12.0	/experiments/knapen_AOT/AOT_stimuli/pictures/2124_fw.png	159.2333300113678	
15	21.416823863983154	picture	0		125	13.0	/experiments/knapen_AOT/AOT_stimuli/pictures/1106_fw.png	159.27488088607788	1.1000230312347412
15	22.45051383972168	response	0	k		13.0	/experiments/knapen_AOT/AOT_stimuli/pictures/1106_fw.png	160.3085708618164	
16	22.516846895217896	picture	0		112	14.0	/experiments/knapen_AOT/AOT_stimuli/pictures/0993_fw.png	160.37490391731262	0.9833230972290039
16	23.435205936431885	response	0	j		14.0	/experiments/knapen_AOT/AOT_stimuli/pictures/0993_fw.png	161.2932629585266	
17	23.5001699924469	picture	0		121	15.0	/experiments/knapen_AOT/AOT_stimuli/pictures/1099_fw.png	161.35822701454163	1.0666890144348145
17	24.5002498626709	response	0	k		15.0	/experiments/knapen_AOT/AOT_stimuli/pictures/1099_fw.png	162.35830688476562	
18	24.566859006881714	picture	0		95	16.0	/experiments/knapen_AOT/AOT_stimuli/pictures/0311_fw.png	162.42491602897644	0.8418529033660889
18	25.350257873535156	response	0	j		16.0	/experiments/knapen_AOT/AOT_stimuli/pictures/0311_fw.png	163.20831489562988	
19	25.408711910247803	picture	0		146	17.0	/experiments/knapen_AOT/AOT_stimuli/pictures/1831_fw.png	163.26676893234253	1.266456127166748
19	26.61022686958313	response	0	j		17.0	/experiments/knapen_AOT/AOT_stimuli/pictures/1831_fw.png	164.46828389167786	
20	26.67516803741455	picture	0		88	18.0	/experiments/knapen_AOT/AOT_stimuli/pictures/1013_fw.png	164.53322505950928	0.7613279819488525
20	27.393672943115234	response	0	j		18.0	/experiments/knapen_AOT/AOT_stimuli/pictures/1013_fw.png	165.25172996520996	
21	27.436496019363403	picture	0		118	19.0	/experiments/knapen_AOT/AOT_stimuli/pictures/2046_fw.png	165.29455304145813	1.0070250034332275
21	28.401952981948853	response	0	k		19.0	/experiments/knapen_AOT/AOT_stimuli/pictures/2046_fw.png	166.26001000404358	
22	28.44352102279663	picture	0		97	20.0	/experiments/knapen_AOT/AOT_stimuli/pictures/1680_fw.png	166.30157804489136	0.8401758670806885
22	29.242166996002197	response	0	j		20.0	/experiments/knapen_AOT/AOT_stimuli/pictures/1680_fw.png	167.10022401809692	
23	29.28369688987732	picture	0		249	21.0	/experiments/knapen_AOT/AOT_stimuli/pictures/1528_fw.png	167.14175391197205	2.1082100868225098
23	31.3504159450531	response	0	k		21.0	/experiments/knapen_AOT/AOT_stimuli/pictures/1528_fw.png	169.20847296714783	
24	31.39190697669983	picture	0		166	22.0	/experiments/knapen_AOT/AOT_stimuli/pictures/1125_fw.png	169.24996399879456	1.4333269596099854
24	32.767117977142334	response	0	j		22.0	/experiments/knapen_AOT/AOT_stimuli/pictures/1125_fw.png	170.62517499923706	
25	32.825233936309814	picture	0		118	23.0	/experiments/knapen_AOT/AOT_stimuli/pictures/1471_fw.png	170.68329095840454	1.0250780582427979
25	33.79377889633179	response	0	k		23.0	/experiments/knapen_AOT/AOT_stimuli/pictures/1471_fw.png	171.6518359184265	
26	33.85031199455261	picture	0		113	24.0	/experiments/knapen_AOT/AOT_stimuli/pictures/0969_fw.png	171.70836901664734	0.9915828704833984
26	34.78392004966736	response	0	k		24.0	/experiments/knapen_AOT/AOT_stimuli/pictures/0969_fw.png	172.64197707176208	
27	34.84189486503601	picture	0		177	25.0	/experiments/knapen_AOT/AOT_stimuli/pictures/0186_fw.png	172.69995188713074	1.5251171588897705
27	36.30889892578125	response	0	j		25.0	/experiments/knapen_AOT/AOT_stimuli/pictures/0186_fw.png	174.16695594787598	
28	36.36701202392578	picture	0		131	26.0	/experiments/knapen_AOT/AOT_stimuli/pictures/1036_fw.png	174.2250690460205	1.125053882598877
28	37.450559854507446	response	0	j		26.0	/experiments/knapen_AOT/AOT_stimuli/pictures/1036_fw.png	175.30861687660217	
29	37.49206590652466	picture	0		132	27.0	/experiments/knapen_AOT/AOT_stimuli/pictures/0432_fw.png	175.35012292861938	1.1460330486297607
29	38.58375000953674	response	0	k		27.0	/experiments/knapen_AOT/AOT_stimuli/pictures/0432_fw.png	176.44180703163147	
30	38.63809895515442	picture	0		155	28.0	/experiments/knapen_AOT/AOT_stimuli/pictures/0192_fw.png	176.49615597724915	1.3456189632415771
30	39.91730189323425	response	0	k		28.0	/experiments/knapen_AOT/AOT_stimuli/pictures/0192_fw.png	177.77535891532898	
31	39.983717918395996	picture	0		120	29.0	/experiments/knapen_AOT/AOT_stimuli/pictures/2015_fw.png	177.84177494049072	1.0084929466247559
31	40.97554087638855	response	0	k		29.0	/experiments/knapen_AOT/AOT_stimuli/pictures/2015_fw.png	178.83359789848328	
32	40.99221086502075	picture	0		110	30.0	/experiments/knapen_AOT/AOT_stimuli/pictures/0569_fw.png	178.85026788711548	0.94989013671875
32	41.90052103996277	response	0	k		30.0	/experiments/knapen_AOT/AOT_stimuli/pictures/0569_fw.png	179.7585780620575	
33	41.9421010017395	picture	0		126	31.0	/experiments/knapen_AOT/AOT_stimuli/pictures/1162_fw.png	179.80015802383423	1.091770887374878
33	42.98388385772705	response	0	j		31.0	/experiments/knapen_AOT/AOT_stimuli/pictures/1162_fw.png	180.84194087982178	
34	43.03387188911438	picture	0		101	32.0	/experiments/knapen_AOT/AOT_stimuli/pictures/0076_fw.png	180.8919289112091	0.8888490200042725
34	43.867416858673096	response	0	k		32.0	/experiments/knapen_AOT/AOT_stimuli/pictures/0076_fw.png	181.72547388076782	
35	43.92272090911865	picture	0		89	33.0	/experiments/knapen_AOT/AOT_stimuli/pictures/0025_fw.png	181.78077793121338	0.7917470932006836
35	44.659087896347046	response	0	j		33.0	/experiments/knapen_AOT/AOT_stimuli/pictures/0025_fw.png	182.51714491844177	
36	44.714468002319336	picture	0		240	34.0	/experiments/knapen_AOT/AOT_stimuli/pictures/0958_fw.png	182.57252502441406	2.027763843536377
36	46.70903491973877	response	0	j		34.0	/experiments/knapen_AOT/AOT_stimuli/pictures/0958_fw.png	184.5670919418335	
37	46.74223184585571	picture	0		164	35.0	/experiments/knapen_AOT/AOT_stimuli/pictures/2110_fw.png	184.60028886795044	1.409654140472412
37	48.10059404373169	response	0	k		35.0	/experiments/knapen_AOT/AOT_stimuli/pictures/2110_fw.png	185.95865106582642	
38	48.151885986328125	picture	0		80	36.0	/experiments/knapen_AOT/AOT_stimuli/pictures/1632_fw.png	186.00994300842285	0.7153909206390381
38	48.80232286453247	response	0	j		36.0	/experiments/knapen_AOT/AOT_stimuli/pictures/1632_fw.png	186.6603798866272	
39	48.86727690696716	picture	0		143	37.0	/experiments/knapen_AOT/AOT_stimuli/pictures/0544_fw.png	186.7253339290619	1.2500810623168945
39	50.07574987411499	response	0	k		37.0	/experiments/knapen_AOT/AOT_stimuli/pictures/0544_fw.png	187.93380689620972	
40	50.11735796928406	picture	0		169	38.0	/experiments/knapen_AOT/AOT_stimuli/pictures/1851_fw.png	187.97541499137878	1.437356948852539
40	51.51742696762085	response	0	j		38.0	/experiments/knapen_AOT/AOT_stimuli/pictures/1851_fw.png	189.37548398971558	
41	51.5547149181366	picture	0		104	39.0	/experiments/knapen_AOT/AOT_stimuli/pictures/0060_fw.png	189.41277194023132	0.8958690166473389
41	52.417261838912964	response	0	k		39.0	/experiments/knapen_AOT/AOT_stimuli/pictures/0060_fw.png	190.2753188610077	
42	52.450583934783936	picture	0		116	40.0	/experiments/knapen_AOT/AOT_stimuli/pictures/2166_fw.png	190.30864095687866	1.0082781314849854
42	53.40924096107483	response	0	k		40.0	/experiments/knapen_AOT/AOT_stimuli/pictures/2166_fw.png	191.26729798316956	
43	53.45886206626892	picture	0		100	41.0	/experiments/knapen_AOT/AOT_stimuli/pictures/1938_fw.png	191.31691908836365	0.9015607833862305
43	54.28419804573059	response	0	j		41.0	/experiments/knapen_AOT/AOT_stimuli/pictures/1938_fw.png	192.14225506782532	
44	54.36042284965515	picture	0		139	42.0	/experiments/knapen_AOT/AOT_stimuli/pictures/2127_fw.png	192.21847987174988	1.2082340717315674
44	55.50901794433594	response	0	k		42.0	/experiments/knapen_AOT/AOT_stimuli/pictures/2127_fw.png	193.36707496643066	
45	55.56865692138672	picture	0		111	43.0	/experiments/knapen_AOT/AOT_stimuli/pictures/1911_fw.png	193.42671394348145	0.9584579467773438
45	56.48400092124939	response	0	k		43.0	/experiments/knapen_AOT/AOT_stimuli/pictures/1911_fw.png	194.34205794334412	
46	56.52711486816406	picture	0		124	44.0	/experiments/knapen_AOT/AOT_stimuli/pictures/0116_fw.png	194.3851718902588	1.062394142150879
46	57.550665855407715	response	0	k		44.0	/experiments/knapen_AOT/AOT_stimuli/pictures/0116_fw.png	195.40872287750244	
47	57.58950901031494	picture	0		150	45.0	/experiments/knapen_AOT/AOT_stimuli/pictures/0443_fw.png	195.44756603240967	1.2778799533843994
47	58.83415985107422	response	0	k		45.0	/experiments/knapen_AOT/AOT_stimuli/pictures/0443_fw.png	196.69221687316895	
48	58.86738896369934	picture	0		279	46.0	/experiments/knapen_AOT/AOT_stimuli/pictures/0531_fw.png	196.72544598579407	2.3749048709869385
48	61.17729902267456	response	0	j		46.0	/experiments/knapen_AOT/AOT_stimuli/pictures/0531_fw.png	199.0353560447693	
49	61.24229383468628	picture	0		87	47.0	/experiments/knapen_AOT/AOT_stimuli/pictures/1169_fw.png	199.100350856781	0.7750201225280762
49	61.95911884307861	response	0	j		47.0	/experiments/knapen_AOT/AOT_stimuli/pictures/1169_fw.png	199.81717586517334	
50	62.017313957214355	picture	0		201	48.0	/experiments/knapen_AOT/AOT_stimuli/pictures/0984_fw.png	199.87537097930908	1.7249879837036133
50	63.68424701690674	response	0	j		48.0	/experiments/knapen_AOT/AOT_stimuli/pictures/0984_fw.png	201.54230403900146	
51	63.74230194091797	picture	0		137	49.0	/experiments/knapen_AOT/AOT_stimuli/pictures/0752_fw.png	201.6003589630127	1.194504976272583
51	64.87578701972961	response	0	k		49.0	/experiments/knapen_AOT/AOT_stimuli/pictures/0752_fw.png	202.73384404182434	
52	64.93680691719055	picture	0		172	50.0	/experiments/knapen_AOT/AOT_stimuli/pictures/0761_fw.png	202.79486393928528	1.463874101638794
52	66.35930490493774	response	0	k		50.0	/experiments/knapen_AOT/AOT_stimuli/pictures/0761_fw.png	204.21736192703247	
53	66.40068101882935	picture	0		137	51.0	/experiments/knapen_AOT/AOT_stimuli/pictures/0071_fw.png	204.25873804092407	1.1680529117584229
53	67.53431296348572	response	0	k		51.0	/experiments/knapen_AOT/AOT_stimuli/pictures/0071_fw.png	205.39236998558044	
54	67.56873393058777	picture	0		252	52.0	/experiments/knapen_AOT/AOT_stimuli/pictures/0295_fw.png	205.4267909526825	2.1527140140533447
54	69.65923404693604	response	0	j		52.0	/experiments/knapen_AOT/AOT_stimuli/pictures/0295_fw.png	207.51729106903076	
55	69.72144794464111	picture	0		94	53.0	/experiments/knapen_AOT/AOT_stimuli/pictures/1032_fw.png	207.57950496673584	0.8210339546203613
55	70.49271202087402	response	0	k		53.0	/experiments/knapen_AOT/AOT_stimuli/pictures/1032_fw.png	208.35076904296875	
56	70.54248189926147	picture	0		90	54.0	/experiments/knapen_AOT/AOT_stimuli/pictures/1643_fw.png	208.4005389213562	0.776324987411499
56	71.28432893753052	response	0	j		54.0	/experiments/knapen_AOT/AOT_stimuli/pictures/1643_fw.png	209.14238595962524	
57	71.31880688667297	picture	0		99	55.0	/experiments/knapen_AOT/AOT_stimuli/pictures/1003_fw.png	209.1768639087677	0.8749649524688721
57	72.15271401405334	response	0	j		55.0	/experiments/knapen_AOT/AOT_stimuli/pictures/1003_fw.png	210.01077103614807	
58	72.19377183914185	picture	0		567	56.0	/experiments/knapen_AOT/AOT_stimuli/pictures/0538_fw.png	210.05182886123657	4.749949216842651
58	76.90928602218628	response	0	j		56.0	/experiments/knapen_AOT/AOT_stimuli/pictures/0538_fw.png	214.767343044281	
59	76.9437210559845	picture	0		171	57.0	/experiments/knapen_AOT/AOT_stimuli/pictures/1895_fw.png	214.80177807807922	1.4737699031829834
59	78.35262298583984	response	0	j		57.0	/experiments/knapen_AOT/AOT_stimuli/pictures/1895_fw.png	216.21068000793457	
60	78.41749095916748	picture	0		84	58.0	/experiments/knapen_AOT/AOT_stimuli/pictures/0757_fw.png	216.2755479812622	0.7500460147857666
60	79.10937094688416	response	0	j		58.0	/experiments/knapen_AOT/AOT_stimuli/pictures/0757_fw.png	216.96742796897888	
61	79.16753697395325	picture	0		102	59.0	/experiments/knapen_AOT/AOT_stimuli/pictures/0283_fw.png	217.02559399604797	0.8999960422515869
61	80.00944590568542	response	0	k		59.0	/experiments/knapen_AOT/AOT_stimuli/pictures/0283_fw.png	217.86750292778015	
62	80.06753301620483	picture	0		105	60.0	/experiments/knapen_AOT/AOT_stimuli/pictures/0532_fw.png	217.92559003829956	0.9333429336547852
62	80.93433785438538	response	0	j		60.0	/experiments/knapen_AOT/AOT_stimuli/pictures/0532_fw.png	218.7923948764801	
63	81.00087594985962	picture	0		322	61.0	/experiments/knapen_AOT/AOT_stimuli/pictures/0288_fw.png	218.85893297195435	2.808429002761841
63	83.67610287666321	response	0	k		61.0	/experiments/knapen_AOT/AOT_stimuli/pictures/0288_fw.png	221.53415989875793	
64	83.80930495262146	picture	0		108	62.0	/experiments/knapen_AOT/AOT_stimuli/pictures/2071_fw.png	221.6673619747162	0.95831298828125
64	84.70112204551697	response	0	k		62.0	/experiments/knapen_AOT/AOT_stimuli/pictures/2071_fw.png	222.5591790676117	
65	84.76761794090271	picture	0		126	63.0	/experiments/knapen_AOT/AOT_stimuli/pictures/1922_fw.png	222.62567496299744	1.1083989143371582
65	85.80939793586731	response	0	k		63.0	/experiments/knapen_AOT/AOT_stimuli/pictures/1922_fw.png	223.66745495796204	
66	85.87601685523987	picture	0		537	64.0	/experiments/knapen_AOT/AOT_stimuli/pictures/1231_fw.png	223.7340738773346	4.505381107330322
66	90.34283304214478	response	0	k		64.0	/experiments/knapen_AOT/AOT_stimuli/pictures/1231_fw.png	228.2008900642395	
67	90.38139796257019	picture	0		166	65.0	/experiments/knapen_AOT/AOT_stimuli/pictures/1060_fw.png	228.23945498466492	1.419619083404541
67	91.75281190872192	response	0	k		65.0	/experiments/knapen_AOT/AOT_stimuli/pictures/1060_fw.png	229.61086893081665	
68	91.80101704597473	picture	0		90	66.0	/experiments/knapen_AOT/AOT_stimuli/pictures/0719_fw.png	229.65907406806946	0.783390998840332
68	92.53602004051208	response	0	j		66.0	/experiments/knapen_AOT/AOT_stimuli/pictures/0719_fw.png	230.3940770626068	
69	92.58440804481506	picture	0		202	67.0	/experiments/knapen_AOT/AOT_stimuli/pictures/0479_fw.png	230.4424650669098	1.7345077991485596
69	94.25961804389954	response	0	j		67.0	/experiments/knapen_AOT/AOT_stimuli/pictures/0479_fw.png	232.11767506599426	
70	94.31891584396362	picture	0		137	68.0	/experiments/knapen_AOT/AOT_stimuli/pictures/0115_fw.png	232.17697286605835	1.190486192703247
70	95.45121884346008	response	0	j		68.0	/experiments/knapen_AOT/AOT_stimuli/pictures/0115_fw.png	233.3092758655548	
71	95.50940203666687	picture	0		100	69.0	/experiments/knapen_AOT/AOT_stimuli/pictures/1276_fw.png	233.3674590587616	0.8750200271606445
71	96.33463191986084	response	0	k		69.0	/experiments/knapen_AOT/AOT_stimuli/pictures/1276_fw.png	234.19268894195557	
72	96.38442206382751	picture	0		82	70.0	/experiments/knapen_AOT/AOT_stimuli/pictures/2105_fw.png	234.24247908592224	0.7123568058013916
72	97.05954194068909	response	0	j		70.0	/experiments/knapen_AOT/AOT_stimuli/pictures/2105_fw.png	234.9175989627838	
73	97.0967788696289	picture	0		89	71.0	/experiments/knapen_AOT/AOT_stimuli/pictures/0750_fw.png	234.95483589172363	0.7638750076293945
73	97.82621788978577	response	0	k		71.0	/experiments/knapen_AOT/AOT_stimuli/pictures/0750_fw.png	235.6842749118805	
74	97.8606538772583	picture	0		129	72.0	/experiments/knapen_AOT/AOT_stimuli/pictures/0332_fw.png	235.71871089935303	1.1155211925506592
74	98.92632293701172	response	0	j		72.0	/experiments/knapen_AOT/AOT_stimuli/pictures/0332_fw.png	236.78437995910645	
75	98.97617506980896	picture	0		112	73.0	/experiments/knapen_AOT/AOT_stimuli/pictures/1097_fw.png	236.8342320919037	0.974984884262085
75	99.90137386322021	response	0	j		73.0	/experiments/knapen_AOT/AOT_stimuli/pictures/1097_fw.png	237.75943088531494	
76	99.95115995407104	picture	0		92	74.0	/experiments/knapen_AOT/AOT_stimuli/pictures/1496_fw.png	237.80921697616577	0.8192698955535889
76	100.70959901809692	response	0	j		74.0	/experiments/knapen_AOT/AOT_stimuli/pictures/1496_fw.png	238.56765604019165	
77	100.77042984962463	picture	0		109	75.0	/experiments/knapen_AOT/AOT_stimuli/pictures/0236_fw.png	238.62848687171936	0.9236531257629395
77	101.66813802719116	response	0	k		75.0	/experiments/knapen_AOT/AOT_stimuli/pictures/0236_fw.png	239.5261950492859	
78	101.69408297538757	picture	0		106	76.0	/experiments/knapen_AOT/AOT_stimuli/pictures/0582_fw.png	239.5521399974823	0.9237220287322998
78	102.5679440498352	response	0	j		76.0	/experiments/knapen_AOT/AOT_stimuli/pictures/0582_fw.png	240.42600107192993	
79	102.61780500411987	picture	0		172	77.0	/experiments/knapen_AOT/AOT_stimuli/pictures/0971_fw.png	240.4758620262146	1.4834039211273193
79	104.04314088821411	response	0	k		77.0	/experiments/knapen_AOT/AOT_stimuli/pictures/0971_fw.png	241.90119791030884	
80	104.10120892524719	picture	0		126	78.0	/experiments/knapen_AOT/AOT_stimuli/pictures/0685_fw.png	241.95926594734192	1.1000001430511475
80	105.13619589805603	response	0	k		78.0	/experiments/knapen_AOT/AOT_stimuli/pictures/0685_fw.png	242.99425292015076	
81	105.20120906829834	picture	0		222	79.0	/experiments/knapen_AOT/AOT_stimuli/pictures/0924_fw.png	243.05926609039307	1.8750078678131104
81	107.04316401481628	response	0	j		79.0	/experiments/knapen_AOT/AOT_stimuli/pictures/0924_fw.png	244.901221036911	
82	107.07621693611145	picture	0		191	80.0	/experiments/knapen_AOT/AOT_stimuli/pictures/1732_fw.png	244.93427395820618	1.6179261207580566
82	108.6597158908844	response	0	k		80.0	/experiments/knapen_AOT/AOT_stimuli/pictures/1732_fw.png	246.51777291297913	
83	108.6941430568695	picture	0		298	81.0	/experiments/knapen_AOT/AOT_stimuli/pictures/1202_fw.png	246.55220007896423	2.576249837875366
83	111.16811299324036	response	0	k		81.0	/experiments/knapen_AOT/AOT_stimuli/pictures/1202_fw.png	249.02617001533508	
84	111.27039289474487	picture	0		130	82.0	/experiments/knapen_AOT/AOT_stimuli/pictures/0464_fw.png	249.1284499168396	1.1319849491119385
84	112.33634495735168	response	0	k		82.0	/experiments/knapen_AOT/AOT_stimuli/pictures/0464_fw.png	250.1944019794464	
85	112.40237784385681	picture	0		107	83.0	/experiments/knapen_AOT/AOT_stimuli/pictures/1142_fw.png	250.26043486595154	0.9376571178436279
85	113.2847409248352	response	0	k		83.0	/experiments/knapen_AOT/AOT_stimuli/pictures/1142_fw.png	251.14279794692993	
86	113.34003496170044	picture	0		138	84.0	/experiments/knapen_AOT/AOT_stimuli/pictures/0219_fw.png	251.19809198379517	1.1874299049377441
86	114.48488306999207	response	0	k		84.0	/experiments/knapen_AOT/AOT_stimuli/pictures/0219_fw.png	252.3429400920868	
87	114.52746486663818	picture	0		318	85.0	/experiments/knapen_AOT/AOT_stimuli/pictures/1175_fw.png	252.3855218887329	2.673959970474243
87	117.16835498809814	response	0	j		85.0	/experiments/knapen_AOT/AOT_stimuli/pictures/1175_fw.png	255.02641201019287	
88	117.20142483711243	picture	0		124	86.0	/experiments/knapen_AOT/AOT_stimuli/pictures/0989_fw.png	255.05948185920715	1.0832571983337402
88	118.22653388977051	response	0	k		86.0	/experiments/knapen_AOT/AOT_stimuli/pictures/0989_fw.png	256.08459091186523	
89	118.28468203544617	picture	0		93	87.0	/experiments/knapen_AOT/AOT_stimuli/pictures/0272_fw.png	256.1427390575409	0.8917138576507568
89	119.07653284072876	response	0	k		87.0	/experiments/knapen_AOT/AOT_stimuli/pictures/0272_fw.png	256.9345898628235	
90	119.17639589309692	picture	0		155	88.0	/experiments/knapen_AOT/AOT_stimuli/pictures/0961_fw.png	257.03445291519165	1.3166320323944092
90	120.45993089675903	response	0	j		88.0	/experiments/knapen_AOT/AOT_stimuli/pictures/0961_fw.png	258.31798791885376	
91	120.49302792549133	picture	0		107	89.0	/experiments/knapen_AOT/AOT_stimuli/pictures/1144_fw.png	258.35108494758606	0.9234211444854736
91	121.3765549659729	response	0	j		89.0	/experiments/knapen_AOT/AOT_stimuli/pictures/1144_fw.png	259.2346119880676	
92	121.4164490699768	picture	0		774	90.0	/experiments/knapen_AOT/AOT_stimuli/pictures/1263_fw.png	259.27450609207153	6.479111909866333
92	127.85998892784119	response	0	k		90.0	/experiments/knapen_AOT/AOT_stimuli/pictures/1263_fw.png	265.7180459499359	
93	127.89556097984314	picture	0		104	91.0	/experiments/knapen_AOT/AOT_stimuli/pictures/0474_fw.png	265.75361800193787	0.9098339080810547
93	128.75166702270508	response	0	j		91.0	/experiments/knapen_AOT/AOT_stimuli/pictures/0474_fw.png	266.6097240447998	
94	128.8053948879242	picture	0		176	92.0	/experiments/knapen_AOT/AOT_stimuli/pictures/0237_fw.png	266.6634519100189	1.5137720108032227
94	130.26009702682495	response	0	k		92.0	/experiments/knapen_AOT/AOT_stimuli/pictures/0237_fw.png	268.1181540489197	
95	130.31916689872742	picture	0		337	93.0	/experiments/knapen_AOT/AOT_stimuli/pictures/1709_fw.png	268.17722392082214	2.861114978790283
95	133.11169385910034	response	0	j		93.0	/experiments/knapen_AOT/AOT_stimuli/pictures/1709_fw.png	270.96975088119507	
96	133.1802818775177	picture	0		104	94.0	/experiments/knapen_AOT/AOT_stimuli/pictures/1253_fw.png	271.0383388996124	0.9130091667175293
96	134.0349988937378	response	0	j		94.0	/experiments/knapen_AOT/AOT_stimuli/pictures/1253_fw.png	271.8930559158325	
97	134.09329104423523	picture	0		97	95.0	/experiments/knapen_AOT/AOT_stimuli/pictures/1598_fw.png	271.95134806632996	0.851038932800293
97	134.88688206672668	response	0	k		95.0	/experiments/knapen_AOT/AOT_stimuli/pictures/1598_fw.png	272.7449390888214	
98	134.94432997703552	picture	0		541	96.0	/experiments/knapen_AOT/AOT_stimuli/pictures/1506_fw.png	272.80238699913025	4.541553974151611
98	139.44358801841736	response	0	j		96.0	/experiments/knapen_AOT/AOT_stimuli/pictures/1506_fw.png	277.3016450405121	
99	139.48588395118713	picture	0		105	97.0	/experiments/knapen_AOT/AOT_stimuli/pictures/1261_fw.png	277.34394097328186	0.9167590141296387
99	140.35176587104797	response	0	k		97.0	/experiments/knapen_AOT/AOT_stimuli/pictures/1261_fw.png	278.2098228931427	
100	140.40264296531677	picture	0		94	98.0	/experiments/knapen_AOT/AOT_stimuli/pictures/1262_fw.png	278.2606999874115	0.8125360012054443
100	141.1768238544464	response	0	k		98.0	/experiments/knapen_AOT/AOT_stimuli/pictures/1262_fw.png	279.03488087654114	
101	141.21517896652222	picture	0		95	99.0	/experiments/knapen_AOT/AOT_stimuli/pictures/1991_fw.png	279.07323598861694	0.8473029136657715
101	142.00183987617493	response	0	k		99.0	/experiments/knapen_AOT/AOT_stimuli/pictures/1991_fw.png	279.85989689826965	
102	142.062481880188	picture	0		107	100.0	/experiments/knapen_AOT/AOT_stimuli/pictures/0188_fw.png	279.9205389022827	0.9236111640930176
102	142.94351291656494	response	0	k		100.0	/experiments/knapen_AOT/AOT_stimuli/pictures/0188_fw.png	280.80156993865967	
103	142.986093044281	picture	0		103	101.0	/experiments/knapen_AOT/AOT_stimuli/pictures/0210_fw.png	280.84415006637573	0.9027359485626221
103	143.83520102500916	response	0	k		101.0	/experiments/knapen_AOT/AOT_stimuli/pictures/0210_fw.png	281.6932580471039	
104	143.88882899284363	picture	0		147	102.0	/experiments/knapen_AOT/AOT_stimuli/pictures/0856_fw.png	281.74688601493835	1.271198034286499
104	145.09542083740234	response	0	k		102.0	/experiments/knapen_AOT/AOT_stimuli/pictures/0856_fw.png	282.95347785949707	
105	145.16002702713013	picture	0		1803	103.0	/experiments/knapen_AOT/AOT_stimuli/pictures/1623_fw.png	283.01808404922485	15.069121837615967
105	160.1772119998932	response	0	k		103.0	/experiments/knapen_AOT/AOT_stimuli/pictures/1623_fw.png	298.0352690219879	
106	160.2291488647461	picture	0		121	104.0	/experiments/knapen_AOT/AOT_stimuli/pictures/2146_fw.png	298.0872058868408	1.0488700866699219
106	161.2271580696106	response	0	j		104.0	/experiments/knapen_AOT/AOT_stimuli/pictures/2146_fw.png	299.0852150917053	
107	161.27801895141602	picture	0		111	105.0	/experiments/knapen_AOT/AOT_stimuli/pictures/1302_fw.png	299.13607597351074	0.9512538909912109
107	162.1937608718872	response	0	j		105.0	/experiments/knapen_AOT/AOT_stimuli/pictures/1302_fw.png	300.05181789398193	
108	162.22927284240723	picture	0		154	106.0	/experiments/knapen_AOT/AOT_stimuli/pictures/1644_fw.png	300.08732986450195	1.3310542106628418
108	163.49530506134033	response	0	k		106.0	/experiments/knapen_AOT/AOT_stimuli/pictures/1644_fw.png	301.35336208343506	
109	163.56032705307007	picture	0		91	107.0	/experiments/knapen_AOT/AOT_stimuli/pictures/1967_fw.png	301.4183840751648	0.8082900047302246
109	164.30380606651306	response	0	j		107.0	/experiments/knapen_AOT/AOT_stimuli/pictures/1967_fw.png	302.1618630886078	
110	164.3686170578003	picture	0		82	108.0	/experiments/knapen_AOT/AOT_stimuli/pictures/1232_fw.png	302.226674079895	0.7083549499511719
110	165.04379200935364	response	0	j		108.0	/experiments/knapen_AOT/AOT_stimuli/pictures/1232_fw.png	302.90184903144836	
111	165.07697200775146	picture	0		279	109.0	/experiments/knapen_AOT/AOT_stimuli/pictures/1090_fw.png	302.9350290298462	2.353592872619629
111	167.3939230442047	response	0	j		109.0	/experiments/knapen_AOT/AOT_stimuli/pictures/1090_fw.png	305.25198006629944	
112	167.4305648803711	picture	0		123	110.0	/experiments/knapen_AOT/AOT_stimuli/pictures/1300_fw.png	305.2886219024658	1.071666955947876
112	168.44395089149475	response	0	j		110.0	/experiments/knapen_AOT/AOT_stimuli/pictures/1300_fw.png	306.3020079135895	
113	168.50223183631897	picture	0		92	111.0	/experiments/knapen_AOT/AOT_stimuli/pictures/2018_fw.png	306.3602888584137	0.8173232078552246
113	169.25406503677368	response	0	j		111.0	/experiments/knapen_AOT/AOT_stimuli/pictures/2018_fw.png	307.1121220588684	
114	169.3195550441742	picture	0		120	112.0	/experiments/knapen_AOT/AOT_stimuli/pictures/1138_fw.png	307.1776120662689	1.0492498874664307
114	170.31053400039673	response	0	k		112.0	/experiments/knapen_AOT/AOT_stimuli/pictures/1138_fw.png	308.16859102249146	
115	170.36880493164062	picture	0		95	113.0	/experiments/knapen_AOT/AOT_stimuli/pictures/0762_fw.png	308.22686195373535	0.8605380058288574
115	171.17724990844727	response	0	k		113.0	/experiments/knapen_AOT/AOT_stimuli/pictures/0762_fw.png	309.035306930542	
116	171.22934293746948	picture	0		107	114.0	/experiments/knapen_AOT/AOT_stimuli/pictures/1155_fw.png	309.0873999595642	0.9167909622192383
116	172.1105568408966	response	0	k		114.0	/experiments/knapen_AOT/AOT_stimuli/pictures/1155_fw.png	309.96861386299133	
117	172.14613389968872	picture	0		243	115.0	/experiments/knapen_AOT/AOT_stimuli/pictures/1446_fw.png	310.00419092178345	2.0726470947265625
117	174.1606249809265	response	0	j		115.0	/experiments/knapen_AOT/AOT_stimuli/pictures/1446_fw.png	312.01868200302124	
118	174.21878099441528	picture	0		133	116.0	/experiments/knapen_AOT/AOT_stimuli/pictures/0806_fw.png	312.07683801651	1.1500399112701416
118	175.31895685195923	response	0	j		116.0	/experiments/knapen_AOT/AOT_stimuli/pictures/0806_fw.png	313.17701387405396	
119	175.36882090568542	picture	0		184	117.0	/experiments/knapen_AOT/AOT_stimuli/pictures/0405_fw.png	313.22687792778015	1.5618081092834473
119	176.89397501945496	response	0	j		117.0	/experiments/knapen_AOT/AOT_stimuli/pictures/0405_fw.png	314.7520320415497	
120	176.93062901496887	picture	0		359	118.0	/experiments/knapen_AOT/AOT_stimuli/pictures/1490_fw.png	314.7886860370636	3.0465869903564453
120	179.91070985794067	response	0	j		118.0	/experiments/knapen_AOT/AOT_stimuli/pictures/1490_fw.png	317.7687668800354	
121	179.97721600532532	picture	0		128	119.0	/experiments/knapen_AOT/AOT_stimuli/pictures/1390_fw.png	317.83527302742004	1.1250438690185547
121	181.03564405441284	response	0	k		119.0	/experiments/knapen_AOT/AOT_stimuli/pictures/1390_fw.png	318.89370107650757	
122	181.10225987434387	picture	0		163	120.0	/experiments/knapen_AOT/AOT_stimuli/pictures/1587_fw.png	318.9603168964386	1.3770360946655273
122	182.4458909034729	response	0	k		120.0	/experiments/knapen_AOT/AOT_stimuli/pictures/1587_fw.png	320.3039479255676	
123	182.4792959690094	picture	0		94	121.0	/experiments/knapen_AOT/AOT_stimuli/pictures/1476_fw.png	320.3373529911041	0.8127470016479492
123	183.25248003005981	response	0	k		121.0	/experiments/knapen_AOT/AOT_stimuli/pictures/1476_fw.png	321.11053705215454	
124	183.29204297065735	picture	0		124	122.0	/experiments/knapen_AOT/AOT_stimuli/pictures/1083_fw.png	321.1500999927521	1.0768659114837646
124	184.31907200813293	response	0	k		122.0	/experiments/knapen_AOT/AOT_stimuli/pictures/1083_fw.png	322.17712903022766	
125	184.3689088821411	picture	0		463	123.0	/experiments/knapen_AOT/AOT_stimuli/pictures/2030_fw.png	322.22696590423584	3.895188093185425
125	188.21929097175598	response	0	k		123.0	/experiments/knapen_AOT/AOT_stimuli/pictures/2030_fw.png	326.0773479938507	
126	188.26409697532654	picture	0		99	124.0	/experiments/knapen_AOT/AOT_stimuli/pictures/1706_fw.png	326.12215399742126	0.8683090209960938
126	189.07075595855713	response	0	k		124.0	/experiments/knapen_AOT/AOT_stimuli/pictures/1706_fw.png	326.92881298065186	
127	189.13240599632263	picture	0		114	125.0	/experiments/knapen_AOT/AOT_stimuli/pictures/2008_fw.png	326.99046301841736	1.0032529830932617
127	190.07075691223145	response	0	k		125.0	/experiments/knapen_AOT/AOT_stimuli/pictures/2008_fw.png	327.9288139343262	
128	190.1356589794159	picture	0		107	126.0	/experiments/knapen_AOT/AOT_stimuli/pictures/0524_fw.png	327.9937160015106	0.9416639804840088
128	191.01920986175537	response	0	j		126.0	/experiments/knapen_AOT/AOT_stimuli/pictures/0524_fw.png	328.8772668838501	
129	191.0773229598999	picture	0		98	127.0	/experiments/knapen_AOT/AOT_stimuli/pictures/1481_fw.png	328.93537998199463	0.8466858863830566
129	191.88579392433167	response	0	k		127.0	/experiments/knapen_AOT/AOT_stimuli/pictures/1481_fw.png	329.7438509464264	
130	191.92400884628296	picture	0		95	128.0	/experiments/knapen_AOT/AOT_stimuli/pictures/1626_fw.png	329.7820658683777	0.8450851440429688
130	192.71081686019897	response	0	k		128.0	/experiments/knapen_AOT/AOT_stimuli/pictures/1626_fw.png	330.5688738822937	
131	192.76909399032593	picture	0		125	129.0	/experiments/knapen_AOT/AOT_stimuli/pictures/1968_fw.png	330.62715101242065	1.0999999046325684
131	193.80250597000122	response	0	k		129.0	/experiments/knapen_AOT/AOT_stimuli/pictures/1968_fw.png	331.66056299209595	
132	193.8690938949585	picture	0		148	130.0	/experiments/knapen_AOT/AOT_stimuli/pictures/1153_fw.png	331.7271509170532	1.2840399742126465
132	195.09419202804565	response	0	k		130.0	/experiments/knapen_AOT/AOT_stimuli/pictures/1153_fw.png	332.9522490501404	
133	195.15313386917114	picture	0		129	131.0	/experiments/knapen_AOT/AOT_stimuli/pictures/0316_fw.png	333.01119089126587	1.1041760444641113
133	196.21924090385437	response	0	j		131.0	/experiments/knapen_AOT/AOT_stimuli/pictures/0316_fw.png	334.0772979259491	
134	196.25730991363525	picture	0		207	132.0	/experiments/knapen_AOT/AOT_stimuli/pictures/1817_fw.png	334.11536693573	1.7707431316375732
134	197.97772598266602	response	0	j		132.0	/experiments/knapen_AOT/AOT_stimuli/pictures/1817_fw.png	335.83578300476074	
135	198.02805304527283	picture	0		81	133.0	/experiments/knapen_AOT/AOT_stimuli/pictures/1031_fw.png	335.88611006736755	0.7244729995727539
135	198.6942698955536	response	0	j		133.0	/experiments/knapen_AOT/AOT_stimuli/pictures/1031_fw.png	336.5523269176483	
136	198.75252604484558	picture	0		124	134.0	/experiments/knapen_AOT/AOT_stimuli/pictures/1279_fw.png	336.6105830669403	1.0881218910217285
136	199.778333902359	response	0	j		134.0	/experiments/knapen_AOT/AOT_stimuli/pictures/1279_fw.png	337.63639092445374	
137	199.8406479358673	picture	0		137	135.0	/experiments/knapen_AOT/AOT_stimuli/pictures/0704_fw.png	337.69870495796204	1.1868460178375244
137	200.97758793830872	response	0	j		135.0	/experiments/knapen_AOT/AOT_stimuli/pictures/0704_fw.png	338.83564496040344	
138	201.02749395370483	picture	0		98	136.0	/experiments/knapen_AOT/AOT_stimuli/pictures/1756_fw.png	338.88555097579956	0.8416359424591064
138	201.82921600341797	response	0	k		136.0	/experiments/knapen_AOT/AOT_stimuli/pictures/1756_fw.png	339.6872730255127	
139	201.86912989616394	picture	0		133	137.0	/experiments/knapen_AOT/AOT_stimuli/pictures/0240_fw.png	339.72718691825867	1.1667370796203613
139	202.9692850112915	response	0	k		137.0	/experiments/knapen_AOT/AOT_stimuli/pictures/0240_fw.png	340.82734203338623	
140	203.0358669757843	picture	0		93	138.0	/experiments/knapen_AOT/AOT_stimuli/pictures/1965_fw.png	340.893923997879	0.8250598907470703
140	203.802631855011	response	0	k		138.0	/experiments/knapen_AOT/AOT_stimuli/pictures/1965_fw.png	341.6606888771057	
141	203.86092686653137	picture	0		115	139.0	/experiments/knapen_AOT/AOT_stimuli/pictures/0918_fw.png	341.7189838886261	1.008234977722168
141	204.81102204322815	response	0	j		139.0	/experiments/knapen_AOT/AOT_stimuli/pictures/0918_fw.png	342.6690790653229	
142	204.86916184425354	picture	0		92	140.0	/experiments/knapen_AOT/AOT_stimuli/pictures/1011_fw.png	342.72721886634827	0.8333489894866943
142	205.62775206565857	response	0	j		140.0	/experiments/knapen_AOT/AOT_stimuli/pictures/1011_fw.png	343.4858090877533	
143	205.70251083374023	picture	0		276	141.0	/experiments/knapen_AOT/AOT_stimuli/pictures/0315_fw.png	343.56056785583496	2.350048065185547
143	207.99441003799438	response	0	j		141.0	/experiments/knapen_AOT/AOT_stimuli/pictures/0315_fw.png	345.8524670600891	
144	208.05255889892578	picture	0		110	142.0	/experiments/knapen_AOT/AOT_stimuli/pictures/1428_fw.png	345.9106159210205	0.9667150974273682
144	208.9610879421234	response	0	j		142.0	/experiments/knapen_AOT/AOT_stimuli/pictures/1428_fw.png	346.81914496421814	
145	209.01927399635315	picture	0		113	143.0	/experiments/knapen_AOT/AOT_stimuli/pictures/1068_fw.png	346.8773310184479	1.0168368816375732
145	209.9527130126953	response	0	j		143.0	/experiments/knapen_AOT/AOT_stimuli/pictures/1068_fw.png	347.81077003479004	
146	210.03611087799072	picture	0		116	144.0	/experiments/knapen_AOT/AOT_stimuli/pictures/0151_fw.png	347.89416790008545	0.978248119354248
146	210.99444603919983	response	0	j		144.0	/experiments/knapen_AOT/AOT_stimuli/pictures/0151_fw.png	348.85250306129456	
147	211.01435899734497	picture	0		98	145.0	/experiments/knapen_AOT/AOT_stimuli/pictures/2175_fw.png	348.8724160194397	0.8465778827667236
147	211.820081949234	response	0	k		145.0	/experiments/knapen_AOT/AOT_stimuli/pictures/2175_fw.png	349.67813897132874	
148	211.8609368801117	picture	0		102	146.0	/experiments/knapen_AOT/AOT_stimuli/pictures/1405_fw.png	349.7189939022064	0.8756179809570312
148	212.70274686813354	response	0	k		146.0	/experiments/knapen_AOT/AOT_stimuli/pictures/1405_fw.png	350.56080389022827	
149	212.73655486106873	picture	0		128	147.0	/experiments/knapen_AOT/AOT_stimuli/pictures/0665_fw.png	350.59461188316345	1.091062068939209
149	213.79447603225708	response	0	j		147.0	/experiments/knapen_AOT/AOT_stimuli/pictures/0665_fw.png	351.6525330543518	
150	213.82761693000793	picture	0		100	148.0	/experiments/knapen_AOT/AOT_stimuli/pictures/0513_fw.png	351.68567395210266	0.8668360710144043
150	214.65338587760925	response	0	k		148.0	/experiments/knapen_AOT/AOT_stimuli/pictures/0513_fw.png	352.511442899704	
151	214.69445300102234	picture	0		94	149.0	/experiments/knapen_AOT/AOT_stimuli/pictures/1690_fw.png	352.55251002311707	0.8332569599151611
151	215.4694788455963	response	0	k		149.0	/experiments/knapen_AOT/AOT_stimuli/pictures/1690_fw.png	353.32753586769104	
152	215.5277099609375	picture	0		86	150.0	/experiments/knapen_AOT/AOT_stimuli/pictures/0081_fw.png	353.3857669830322	0.7436649799346924
152	216.2371129989624	response	0	k		150.0	/experiments/knapen_AOT/AOT_stimuli/pictures/0081_fw.png	354.09517002105713	
153	216.2713749408722	picture	0		104	151.0	/experiments/knapen_AOT/AOT_stimuli/pictures/2016_fw.png	354.1294319629669	0.8896520137786865
153	217.12789487838745	response	0	j		151.0	/experiments/knapen_AOT/AOT_stimuli/pictures/2016_fw.png	354.9859519004822	
154	217.16102695465088	picture	0		113	152.0	/experiments/knapen_AOT/AOT_stimuli/pictures/0137_fw.png	355.0190839767456	0.9750421047210693
154	218.09449005126953	response	0	j		152.0	/experiments/knapen_AOT/AOT_stimuli/pictures/0137_fw.png	355.95254707336426	
155	218.13606905937195	picture	0		97	153.0	/experiments/knapen_AOT/AOT_stimuli/pictures/0457_fw.png	355.9941260814667	0.8506128787994385
155	218.93635606765747	response	0	k		153.0	/experiments/knapen_AOT/AOT_stimuli/pictures/0457_fw.png	356.7944130897522	
156	218.9866819381714	picture	0		119	154.0	/experiments/knapen_AOT/AOT_stimuli/pictures/1168_fw.png	356.8447389602661	1.0695219039916992
156	219.99453806877136	response	0	j		154.0	/experiments/knapen_AOT/AOT_stimuli/pictures/1168_fw.png	357.8525950908661	
157	220.0562038421631	picture	0		96	155.0	/experiments/knapen_AOT/AOT_stimuli/pictures/1187_fw.png	357.9142608642578	0.847100019454956
157	220.84470391273499	response	0	j		155.0	/experiments/knapen_AOT/AOT_stimuli/pictures/1187_fw.png	358.7027609348297	
158	220.90330386161804	picture	0		88	156.0	/experiments/knapen_AOT/AOT_stimuli/pictures/0124_fw.png	358.76136088371277	0.7638931274414062
158	221.62131905555725	response	0	k		156.0	/experiments/knapen_AOT/AOT_stimuli/pictures/0124_fw.png	359.479376077652	
159	221.66719698905945	picture	0		111	157.0	/experiments/knapen_AOT/AOT_stimuli/pictures/0121_fw.png	359.5252540111542	0.9689478874206543
159	222.58629703521729	response	0	j		157.0	/experiments/knapen_AOT/AOT_stimuli/pictures/0121_fw.png	360.444354057312	
160	222.6361448764801	picture	0		225	158.0	/experiments/knapen_AOT/AOT_stimuli/pictures/0637_fw.png	360.49420189857483	1.9198801517486572
160	224.5030288696289	response	0	j		158.0	/experiments/knapen_AOT/AOT_stimuli/pictures/0637_fw.png	362.36108589172363	
161	224.55602502822876	picture	0		316	159.0	/experiments/knapen_AOT/AOT_stimuli/pictures/0693_fw.png	362.4140820503235	2.680155038833618
161	227.17809987068176	response	0	k		159.0	/experiments/knapen_AOT/AOT_stimuli/pictures/0693_fw.png	365.0361568927765	
162	227.23618006706238	picture	0		321	160.0	/experiments/knapen_AOT/AOT_stimuli/pictures/0054_fw.png	365.0942370891571	2.7251408100128174
162	229.90360593795776	response	0	k		160.0	/experiments/knapen_AOT/AOT_stimuli/pictures/0054_fw.png	367.7616629600525	
163	229.9613208770752	picture	0		212	161.0	/experiments/knapen_AOT/AOT_stimuli/pictures/1873_fw.png	367.8193778991699	1.817047119140625
163	231.71968698501587	response	0	k		161.0	/experiments/knapen_AOT/AOT_stimuli/pictures/1873_fw.png	369.5777440071106	
164	231.77836799621582	picture	0		658	162.0	/experiments/knapen_AOT/AOT_stimuli/pictures/0897_fw.png	369.63642501831055	5.5162389278411865
164	237.2531340122223	response	0	j		162.0	/experiments/knapen_AOT/AOT_stimuli/pictures/0897_fw.png	375.111191034317	
165	237.294606924057	picture	0		656	163.0	/experiments/knapen_AOT/AOT_stimuli/pictures/0584_fw.png	375.15266394615173	5.497719049453735
165	242.75331091880798	response	0	k		163.0	/experiments/knapen_AOT/AOT_stimuli/pictures/0584_fw.png	380.6113679409027	
166	242.79232597351074	picture	0		509	164.0	/experiments/knapen_AOT/AOT_stimuli/pictures/0676_fw.png	380.65038299560547	4.294143915176392
166	247.0214719772339	response	0	k		164.0	/experiments/knapen_AOT/AOT_stimuli/pictures/0676_fw.png	384.8795289993286	
167	247.08646988868713	picture	0		2372	165.0	/experiments/knapen_AOT/AOT_stimuli/pictures/1311_fw.png	384.94452691078186	19.800228118896484
167	266.8452248573303	response	0	k		165.0	/experiments/knapen_AOT/AOT_stimuli/pictures/1311_fw.png	404.70328187942505	
168	266.8866980075836	picture	0		159	166.0	/experiments/knapen_AOT/AOT_stimuli/pictures/0368_fw.png	404.74475502967834	1.366710901260376
168	268.20355796813965	response	0	k		166.0	/experiments/knapen_AOT/AOT_stimuli/pictures/0368_fw.png	406.0616149902344	
169	268.253408908844	picture	0		202	167.0	/experiments/knapen_AOT/AOT_stimuli/pictures/1085_fw.png	406.1114659309387	1.7335190773010254
169	269.9285819530487	response	0	k		167.0	/experiments/knapen_AOT/AOT_stimuli/pictures/1085_fw.png	407.78663897514343	
170	269.986927986145	picture	0		108	168.0	/experiments/knapen_AOT/AOT_stimuli/pictures/0075_fw.png	407.84498500823975	0.9515378475189209
170	270.8785629272461	response	0	k		168.0	/experiments/knapen_AOT/AOT_stimuli/pictures/0075_fw.png	408.7366199493408	
171	270.93846583366394	picture	0		387	169.0	/experiments/knapen_AOT/AOT_stimuli/pictures/1614_fw.png	408.79652285575867	3.264979124069214
171	274.15376901626587	response	0	k		169.0	/experiments/knapen_AOT/AOT_stimuli/pictures/1614_fw.png	412.0118260383606	
172	274.20344495773315	picture	0		108	170.0	/experiments/knapen_AOT/AOT_stimuli/pictures/1561_fw.png	412.0615019798279	0.9295270442962646
172	275.0952899456024	response	0	k		170.0	/experiments/knapen_AOT/AOT_stimuli/pictures/1561_fw.png	412.95334696769714	
173	275.1329720020294	picture	0		101	171.0	/experiments/knapen_AOT/AOT_stimuli/pictures/0385_fw.png	412.99102902412415	0.8705039024353027
173	275.9551570415497	response	0	j		171.0	/experiments/knapen_AOT/AOT_stimuli/pictures/0385_fw.png	413.8132140636444	
174	276.0034759044647	picture	0		102	172.0	/experiments/knapen_AOT/AOT_stimuli/pictures/0269_fw.png	413.86153292655945	0.8864610195159912
174	276.8453440666199	response	0	j		172.0	/experiments/knapen_AOT/AOT_stimuli/pictures/0269_fw.png	414.7034010887146	
175	276.8899369239807	picture	0		96	173.0	/experiments/knapen_AOT/AOT_stimuli/pictures/1595_fw.png	414.74799394607544	0.8302750587463379
175	277.6786198616028	response	0	k		173.0	/experiments/knapen_AOT/AOT_stimuli/pictures/1595_fw.png	415.5366768836975	
176	277.72021198272705	picture	0		106	174.0	/experiments/knapen_AOT/AOT_stimuli/pictures/0974_fw.png	415.5782690048218	0.9418039321899414
176	278.5953209400177	response	0	j		174.0	/experiments/knapen_AOT/AOT_stimuli/pictures/0974_fw.png	416.4533779621124	
177	278.662015914917	picture	0		429	175.0	/experiments/knapen_AOT/AOT_stimuli/pictures/1072_fw.png	416.5200729370117	3.60823392868042
177	282.22873997688293	response	0	k		175.0	/experiments/knapen_AOT/AOT_stimuli/pictures/1072_fw.png	420.08679699897766	
178	282.2702498435974	picture	0		464	176.0	/experiments/knapen_AOT/AOT_stimuli/pictures/1834_fw.png	420.12830686569214	3.897426128387451
178	286.12878799438477	response	0	k		176.0	/experiments/knapen_AOT/AOT_stimuli/pictures/1834_fw.png	423.9868450164795	
179	286.16767597198486	picture	0		95	177.0	/experiments/knapen_AOT/AOT_stimuli/pictures/0583_fw.png	424.0257329940796	0.8403410911560059
179	286.9471478462219	response	0	k		177.0	/experiments/knapen_AOT/AOT_stimuli/pictures/0583_fw.png	424.80520486831665	
180	287.00801706314087	picture	0		94	178.0	/experiments/knapen_AOT/AOT_stimuli/pictures/0571_fw.png	424.8660740852356	0.8123469352722168
180	287.77904987335205	response	0	j		178.0	/experiments/knapen_AOT/AOT_stimuli/pictures/0571_fw.png	425.6371068954468	
181	287.8203639984131	picture	0		92	179.0	/experiments/knapen_AOT/AOT_stimuli/pictures/1768_fw.png	425.6784210205078	0.8250260353088379
181	288.6037628650665	response	0	j		179.0	/experiments/knapen_AOT/AOT_stimuli/pictures/1768_fw.png	426.46181988716125	
182	288.6453900337219	picture	0		86	180.0	/experiments/knapen_AOT/AOT_stimuli/pictures/0519_fw.png	426.50344705581665	0.7666409015655518
182	289.3469989299774	response	0	j		180.0	/experiments/knapen_AOT/AOT_stimuli/pictures/0519_fw.png	427.20505595207214	
183	289.4120309352875	picture	0		93	181.0	/experiments/knapen_AOT/AOT_stimuli/pictures/0074_fw.png	427.2700879573822	0.8333120346069336
183	290.1719980239868	response	0	k		181.0	/experiments/knapen_AOT/AOT_stimuli/pictures/0074_fw.png	428.03005504608154	
184	290.2453429698944	picture	0		108	182.0	/experiments/knapen_AOT/AOT_stimuli/pictures/0426_fw.png	428.10339999198914	0.9363188743591309
184	291.1371660232544	response	0	k		182.0	/experiments/knapen_AOT/AOT_stimuli/pictures/0426_fw.png	428.9952230453491	
185	291.18166184425354	picture	0		96	183.0	/experiments/knapen_AOT/AOT_stimuli/pictures/1565_fw.png	429.03971886634827	0.82647705078125
185	291.9637289047241	response	0	k		183.0	/experiments/knapen_AOT/AOT_stimuli/pictures/1565_fw.png	429.82178592681885	
186	292.0081388950348	picture	0		81	184.0	/experiments/knapen_AOT/AOT_stimuli/pictures/0294_fw.png	429.8661959171295	0.6955909729003906
186	292.67051792144775	response	0	j		184.0	/experiments/knapen_AOT/AOT_stimuli/pictures/0294_fw.png	430.5285749435425	
187	292.7037298679352	picture	0		77	185.0	/experiments/knapen_AOT/AOT_stimuli/pictures/1039_fw.png	430.5617868900299	0.6916689872741699
187	293.3371729850769	response	0	k		185.0	/experiments/knapen_AOT/AOT_stimuli/pictures/1039_fw.png	431.19523000717163	
188	293.39539885520935	picture	0		88	186.0	/experiments/knapen_AOT/AOT_stimuli/pictures/0764_fw.png	431.2534558773041	0.7834579944610596
188	294.1205699443817	response	0	k		186.0	/experiments/knapen_AOT/AOT_stimuli/pictures/0764_fw.png	431.97862696647644	
189	294.1788568496704	picture	0		135	187.0	/experiments/knapen_AOT/AOT_stimuli/pictures/1115_fw.png	432.03691387176514	1.1750681400299072
189	295.29551005363464	response	0	k		187.0	/experiments/knapen_AOT/AOT_stimuli/pictures/1115_fw.png	433.15356707572937	
190	295.3539249897003	picture	0		147	188.0	/experiments/knapen_AOT/AOT_stimuli/pictures/2136_fw.png	433.21198201179504	1.2664690017700195
190	296.5708169937134	response	0	k		188.0	/experiments/knapen_AOT/AOT_stimuli/pictures/2136_fw.png	434.4288740158081	
191	296.62039399147034	picture	0		104	189.0	/experiments/knapen_AOT/AOT_stimuli/pictures/0778_fw.png	434.47845101356506	0.8946700096130371
191	297.47903084754944	response	0	k		189.0	/experiments/knapen_AOT/AOT_stimuli/pictures/0778_fw.png	435.33708786964417	
192	297.5150640010834	picture	0		119	190.0	/experiments/knapen_AOT/AOT_stimuli/pictures/1736_fw.png	435.3731210231781	1.0470800399780273
192	298.49562788009644	response	0	j		190.0	/experiments/knapen_AOT/AOT_stimuli/pictures/1736_fw.png	436.35368490219116	
193	298.5621440410614	picture	0		88	191.0	/experiments/knapen_AOT/AOT_stimuli/pictures/1284_fw.png	436.4202010631561	0.7749528884887695
193	299.2872998714447	response	0	k		191.0	/experiments/knapen_AOT/AOT_stimuli/pictures/1284_fw.png	437.14535689353943	
194	299.33709692955017	picture	0		267	192.0	/experiments/knapen_AOT/AOT_stimuli/pictures/0201_fw.png	437.1951539516449	2.2667770385742188
194	301.54728293418884	response	0	k		192.0	/experiments/knapen_AOT/AOT_stimuli/pictures/0201_fw.png	439.40533995628357	
195	301.6038739681244	picture	0		124	193.0	/experiments/knapen_AOT/AOT_stimuli/pictures/1912_fw.png	439.4619309902191	1.066598892211914
195	302.62896490097046	response	0	k		193.0	/experiments/knapen_AOT/AOT_stimuli/pictures/1912_fw.png	440.4870219230652	
196	302.6704728603363	picture	0		106	194.0	/experiments/knapen_AOT/AOT_stimuli/pictures/2097_fw.png	440.52852988243103	0.925044059753418
196	303.53885889053345	response	0	k		194.0	/experiments/knapen_AOT/AOT_stimuli/pictures/2097_fw.png	441.3969159126282	
197	303.5955169200897	picture	0		93	195.0	/experiments/knapen_AOT/AOT_stimuli/pictures/0604_fw.png	441.45357394218445	0.824976921081543
197	304.35553193092346	response	0	j		195.0	/experiments/knapen_AOT/AOT_stimuli/pictures/0604_fw.png	442.2135889530182	
198	304.42049384117126	picture	0		92	196.0	/experiments/knapen_AOT/AOT_stimuli/pictures/1462_fw.png	442.278550863266	0.8000400066375732
198	305.1789689064026	response	0	k		196.0	/experiments/knapen_AOT/AOT_stimuli/pictures/1462_fw.png	443.0370259284973	
199	305.22053384780884	picture	0		99	197.0	/experiments/knapen_AOT/AOT_stimuli/pictures/1678_fw.png	443.07859086990356	0.9083240032196045
199	306.0375020503998	response	0	j		197.0	/experiments/knapen_AOT/AOT_stimuli/pictures/1678_fw.png	443.8955590724945	
200	306.12885785102844	picture	0		117	198.0	/experiments/knapen_AOT/AOT_stimuli/pictures/1814_fw.png	443.98691487312317	1.0044541358947754
200	307.09580087661743	response	0	j		198.0	/experiments/knapen_AOT/AOT_stimuli/pictures/1814_fw.png	444.95385789871216	
201	307.1333119869232	picture	0		105	199.0	/experiments/knapen_AOT/AOT_stimuli/pictures/0334_fw.png	444.99136900901794	0.9096450805664062
201	307.99567699432373	response	0	k		199.0	/experiments/knapen_AOT/AOT_stimuli/pictures/0334_fw.png	445.85373401641846	
202	308.0429570674896	picture	0		149	200.0	/experiments/knapen_AOT/AOT_stimuli/pictures/1670_fw.png	445.90101408958435	1.294266939163208
202	309.27935886383057	response	0	k		200.0	/experiments/knapen_AOT/AOT_stimuli/pictures/1670_fw.png	447.1374158859253	
203	309.33722400665283	picture	0		98	201.0	/experiments/knapen_AOT/AOT_stimuli/pictures/0406_fw.png	447.19528102874756	0.8723540306091309
203	310.1389899253845	response	0	j		201.0	/experiments/knapen_AOT/AOT_stimuli/pictures/0406_fw.png	447.99704694747925	
204	310.20957803726196	picture	0		93	202.0	/experiments/knapen_AOT/AOT_stimuli/pictures/0646_fw.png	448.0676350593567	0.8334259986877441
204	310.97907400131226	response	0	k		202.0	/experiments/knapen_AOT/AOT_stimuli/pictures/0646_fw.png	448.837131023407	
205	311.0430040359497	picture	0		95	203.0	/experiments/knapen_AOT/AOT_stimuli/pictures/0740_fw.png	448.90106105804443	0.82759690284729
205	311.8291609287262	response	0	k		203.0	/experiments/knapen_AOT/AOT_stimuli/pictures/0740_fw.png	449.6872179508209	
206	311.870600938797	picture	0		137	204.0	/experiments/knapen_AOT/AOT_stimuli/pictures/0932_fw.png	449.7286579608917	1.2001941204071045
206	313.004163980484	response	0	k		204.0	/experiments/knapen_AOT/AOT_stimuli/pictures/0932_fw.png	450.86222100257874	
207	313.0707950592041	picture	0		299	205.0	/experiments/knapen_AOT/AOT_stimuli/pictures/1437_fw.png	450.9288520812988	2.555419921875
207	315.5475389957428	response	0	k		205.0	/experiments/knapen_AOT/AOT_stimuli/pictures/1437_fw.png	453.4055960178375	
208	315.6262149810791	picture	0		169	206.0	/experiments/knapen_AOT/AOT_stimuli/pictures/1485_fw.png	453.4842720031738	1.4446768760681152
208	317.02920484542847	response	0	k		206.0	/experiments/knapen_AOT/AOT_stimuli/pictures/1485_fw.png	454.8872618675232	
209	317.0708918571472	picture	0		122	207.0	/experiments/knapen_AOT/AOT_stimuli/pictures/0233_fw.png	454.92894887924194	1.066606044769287
209	318.0792610645294	response	0	k		207.0	/experiments/knapen_AOT/AOT_stimuli/pictures/0233_fw.png	455.93731808662415	
210	318.1374979019165	picture	0		377	208.0	/experiments/knapen_AOT/AOT_stimuli/pictures/0585_fw.png	455.99555492401123	3.169387102127075
210	321.27105689048767	response	0	k		208.0	/experiments/knapen_AOT/AOT_stimuli/pictures/0585_fw.png	459.1291139125824	
211	321.3068850040436	picture	0		92	209.0	/experiments/knapen_AOT/AOT_stimuli/pictures/0927_fw.png	459.1649420261383	0.7916920185089111
211	322.06254386901855	response	0	j		209.0	/experiments/knapen_AOT/AOT_stimuli/pictures/0927_fw.png	459.9206008911133	
212	322.0985770225525	picture	0		81	210.0	/experiments/knapen_AOT/AOT_stimuli/pictures/0700_fw.png	459.9566340446472	0.7014389038085938
212	322.76259303092957	response	0	k		210.0	/experiments/knapen_AOT/AOT_stimuli/pictures/0700_fw.png	460.6206500530243	
213	322.8000159263611	picture	0		99	211.0	/experiments/knapen_AOT/AOT_stimuli/pictures/1821_fw.png	460.6580729484558	0.8749971389770508
213	323.61265993118286	response	0	k		211.0	/experiments/knapen_AOT/AOT_stimuli/pictures/1821_fw.png	461.4707169532776	
214	323.67501306533813	picture	0		122	212.0	/experiments/knapen_AOT/AOT_stimuli/pictures/2081_fw.png	461.53307008743286	1.062525987625122
214	324.67926597595215	response	0	k		212.0	/experiments/knapen_AOT/AOT_stimuli/pictures/2081_fw.png	462.5373229980469	
215	324.73753905296326	picture	0		482	213.0	/experiments/knapen_AOT/AOT_stimuli/pictures/0753_fw.png	462.595596075058	4.069368839263916
215	328.7459590435028	response	0	j		213.0	/experiments/knapen_AOT/AOT_stimuli/pictures/0753_fw.png	466.60401606559753	
216	328.8069078922272	picture	0		119	214.0	/experiments/knapen_AOT/AOT_stimuli/pictures/1349_fw.png	466.6649649143219	1.0722761154174805
216	329.821133852005	response	0	k		214.0	/experiments/knapen_AOT/AOT_stimuli/pictures/1349_fw.png	467.67919087409973	
217	329.87918400764465	picture	0		108	215.0	/experiments/knapen_AOT/AOT_stimuli/pictures/1541_fw.png	467.7372410297394	0.9417848587036133
217	330.770977973938	response	0	j		215.0	/experiments/knapen_AOT/AOT_stimuli/pictures/1541_fw.png	468.6290349960327	
218	330.82096886634827	picture	0		88	216.0	/experiments/knapen_AOT/AOT_stimuli/pictures/0715_fw.png	468.679025888443	0.7833139896392822
218	331.54599499702454	response	0	k		216.0	/experiments/knapen_AOT/AOT_stimuli/pictures/0715_fw.png	469.40405201911926	
219	331.60428285598755	picture	0		1168	217.0	/experiments/knapen_AOT/AOT_stimuli/pictures/1625_fw.png	469.4623398780823	9.775093078613281
219	341.3227460384369	response	0	k		217.0	/experiments/knapen_AOT/AOT_stimuli/pictures/1625_fw.png	479.1808030605316	
220	341.37937593460083	picture	0		113	218.0	/experiments/knapen_AOT/AOT_stimuli/pictures/1321_fw.png	479.23743295669556	1.0500290393829346
220	342.30599784851074	response	0	j		218.0	/experiments/knapen_AOT/AOT_stimuli/pictures/1321_fw.png	480.16405487060547	
221	342.42940497398376	picture	0		95	219.0	/experiments/knapen_AOT/AOT_stimuli/pictures/1185_fw.png	480.2874619960785	0.8429999351501465
221	343.21277499198914	response	0	j		219.0	/experiments/knapen_AOT/AOT_stimuli/pictures/1185_fw.png	481.07083201408386	
222	343.2724049091339	picture	0		84	220.0	/experiments/knapen_AOT/AOT_stimuli/pictures/0834_fw.png	481.13046193122864	0.7500350475311279
222	343.9628179073334	response	0	k		220.0	/experiments/knapen_AOT/AOT_stimuli/pictures/0834_fw.png	481.8208749294281	
223	344.02243995666504	picture	0		106	221.0	/experiments/knapen_AOT/AOT_stimuli/pictures/1773_fw.png	481.88049697875977	0.9402730464935303
223	344.8894019126892	response	0	j		221.0	/experiments/knapen_AOT/AOT_stimuli/pictures/1773_fw.png	482.74745893478394	
224	344.96271300315857	picture	0		116	222.0	/experiments/knapen_AOT/AOT_stimuli/pictures/1597_fw.png	482.8207700252533	1.017899990081787
224	345.9145269393921	response	0	k		222.0	/experiments/knapen_AOT/AOT_stimuli/pictures/1597_fw.png	483.7725839614868	
225	345.98061299324036	picture	0		122	223.0	/experiments/knapen_AOT/AOT_stimuli/pictures/0672_fw.png	483.8386700153351	1.0418128967285156
225	346.98784589767456	response	0	k		223.0	/experiments/knapen_AOT/AOT_stimuli/pictures/0672_fw.png	484.8459029197693	
226	347.0224258899689	picture	0		112	224.0	/experiments/knapen_AOT/AOT_stimuli/pictures/1542_fw.png	484.8804829120636	0.9653351306915283
226	347.94621896743774	response	0	j		224.0	/experiments/knapen_AOT/AOT_stimuli/pictures/1542_fw.png	485.80427598953247	
227	347.9877610206604	picture	0		94	225.0	/experiments/knapen_AOT/AOT_stimuli/pictures/1569_fw.png	485.8458180427551	0.8262078762054443
227	348.76302194595337	response	0	k		225.0	/experiments/knapen_AOT/AOT_stimuli/pictures/1569_fw.png	486.6210789680481	
228	348.81396889686584	picture	0		118	226.0	/experiments/knapen_AOT/AOT_stimuli/pictures/0388_fw.png	486.67202591896057	1.0277791023254395
228	349.78807306289673	response	0	j		226.0	/experiments/knapen_AOT/AOT_stimuli/pictures/0388_fw.png	487.64613008499146	
229	349.8417479991913	picture	0		91	227.0	/experiments/knapen_AOT/AOT_stimuli/pictures/0793_fw.png	487.699805021286	0.8127059936523438
229	350.58812499046326	response	0	k		227.0	/experiments/knapen_AOT/AOT_stimuli/pictures/0793_fw.png	488.446182012558	
230	350.6544539928436	picture	0		108	228.0	/experiments/knapen_AOT/AOT_stimuli/pictures/0267_fw.png	488.51251101493835	0.9303748607635498
230	351.5464849472046	response	0	j		228.0	/experiments/knapen_AOT/AOT_stimuli/pictures/0267_fw.png	489.4045419692993	
231	351.5848288536072	picture	0		89	229.0	/experiments/knapen_AOT/AOT_stimuli/pictures/2160_fw.png	489.4428858757019	0.7779769897460938
231	352.32140493392944	response	0	k		229.0	/experiments/knapen_AOT/AOT_stimuli/pictures/2160_fw.png	490.17946195602417	
232	352.36280584335327	picture	0		110	230.0	/experiments/knapen_AOT/AOT_stimuli/pictures/0036_fw.png	490.220862865448	0.972081184387207
232	353.27138090133667	response	0	j		230.0	/experiments/knapen_AOT/AOT_stimuli/pictures/0036_fw.png	491.1294379234314	
233	353.3348870277405	picture	0		180	231.0	/experiments/knapen_AOT/AOT_stimuli/pictures/1012_fw.png	491.1929440498352	1.5555129051208496
233	354.82975792884827	response	0	j		231.0	/experiments/knapen_AOT/AOT_stimuli/pictures/1012_fw.png	492.687814950943	
234	354.8903999328613	picture	0		94	232.0	/experiments/knapen_AOT/AOT_stimuli/pictures/2103_fw.png	492.74845695495605	0.833367109298706
234	355.6630799770355	response	0	k		232.0	/experiments/knapen_AOT/AOT_stimuli/pictures/2103_fw.png	493.52113699913025	
235	355.72376704216003	picture	0		83	233.0	/experiments/knapen_AOT/AOT_stimuli/pictures/1077_fw.png	493.58182406425476	0.7224469184875488
235	356.40468406677246	response	0	k		233.0	/experiments/knapen_AOT/AOT_stimuli/pictures/1077_fw.png	494.2627410888672	
236	356.4462139606476	picture	0		87	234.0	/experiments/knapen_AOT/AOT_stimuli/pictures/1533_fw.png	494.3042709827423	0.7667810916900635
236	357.16318702697754	response	0	k		234.0	/experiments/knapen_AOT/AOT_stimuli/pictures/1533_fw.png	495.02124404907227	
237	357.21299505233765	picture	0		96	235.0	/experiments/knapen_AOT/AOT_stimuli/pictures/1923_fw.png	495.0710520744324	0.8249437808990479
237	358.00484704971313	response	0	k		235.0	/experiments/knapen_AOT/AOT_stimuli/pictures/1923_fw.png	495.86290407180786	
238	358.0379388332367	picture	0		96	236.0	/experiments/knapen_AOT/AOT_stimuli/pictures/1190_fw.png	495.8959958553314	0.8333451747894287
238	358.82976484298706	response	0	k		236.0	/experiments/knapen_AOT/AOT_stimuli/pictures/1190_fw.png	496.6878218650818	
239	358.8712840080261	picture	0		103	237.0	/experiments/knapen_AOT/AOT_stimuli/pictures/1742_fw.png	496.72934103012085	0.8917179107666016
239	359.72137093544006	response	0	k		237.0	/experiments/knapen_AOT/AOT_stimuli/pictures/1742_fw.png	497.5794279575348	
240	359.7630019187927	picture	0		154	238.0	/experiments/knapen_AOT/AOT_stimuli/pictures/1602_fw.png	497.62105894088745	1.333280086517334
240	361.0382590293884	response	0	k		238.0	/experiments/knapen_AOT/AOT_stimuli/pictures/1602_fw.png	498.89631605148315	
241	361.09628200531006	picture	0		94	239.0	/experiments/knapen_AOT/AOT_stimuli/pictures/0281_fw.png	498.9543390274048	0.8166840076446533
241	361.8715808391571	response	0	k		239.0	/experiments/knapen_AOT/AOT_stimuli/pictures/0281_fw.png	499.72963786125183	
242	361.9129660129547	picture	0		134	240.0	/experiments/knapen_AOT/AOT_stimuli/pictures/1378_fw.png	499.77102303504944	1.1750178337097168
242	363.02154302597046	response	0	k		240.0	/experiments/knapen_AOT/AOT_stimuli/pictures/1378_fw.png	500.8796000480652	
243	363.08798384666443	picture	0		94	241.0	/experiments/knapen_AOT/AOT_stimuli/pictures/1972_fw.png	500.94604086875916	0.8333280086517334
243	363.86312890052795	response	0	j		241.0	/experiments/knapen_AOT/AOT_stimuli/pictures/1972_fw.png	501.7211859226227	
244	363.92131185531616	picture	0		95	242.0	/experiments/knapen_AOT/AOT_stimuli/pictures/1953_fw.png	501.7793688774109	0.8333621025085449
244	364.6980810165405	response	0	j		242.0	/experiments/knapen_AOT/AOT_stimuli/pictures/1953_fw.png	502.55613803863525	
245	364.7546739578247	picture	0		122	243.0	/experiments/knapen_AOT/AOT_stimuli/pictures/1464_fw.png	502.61273097991943	1.0666511058807373
245	365.7631950378418	response	0	j		243.0	/experiments/knapen_AOT/AOT_stimuli/pictures/1464_fw.png	503.6212520599365	
246	365.82132506370544	picture	0		238	244.0	/experiments/knapen_AOT/AOT_stimuli/pictures/1748_fw.png	503.67938208580017	2.013664960861206
246	367.7967178821564	response	0	k		244.0	/experiments/knapen_AOT/AOT_stimuli/pictures/1748_fw.png	505.6547749042511	
247	367.83499002456665	picture	0		137	245.0	/experiments/knapen_AOT/AOT_stimuli/pictures/1939_fw.png	505.6930470466614	1.2030448913574219
247	368.99659991264343	response	0	j		245.0	/experiments/knapen_AOT/AOT_stimuli/pictures/1939_fw.png	506.85465693473816	
248	369.0380349159241	picture	0		143	246.0	/experiments/knapen_AOT/AOT_stimuli/pictures/1562_fw.png	506.8960919380188	1.250072956085205
248	370.22167897224426	response	0	j		246.0	/experiments/knapen_AOT/AOT_stimuli/pictures/1562_fw.png	508.079735994339	
249	370.2881078720093	picture	0		120	247.0	/experiments/knapen_AOT/AOT_stimuli/pictures/0205_fw.png	508.146164894104	1.033308982849121
249	371.2732858657837	response	0	k		247.0	/experiments/knapen_AOT/AOT_stimuli/pictures/0205_fw.png	509.1313428878784	
250	371.3214168548584	picture	0		117	248.0	/experiments/knapen_AOT/AOT_stimuli/pictures/1842_fw.png	509.1794738769531	1.0166912078857422
250	372.2815749645233	response	0	k		248.0	/experiments/knapen_AOT/AOT_stimuli/pictures/1842_fw.png	510.13963198661804	
251	372.33810806274414	picture	0		108	249.0	/experiments/knapen_AOT/AOT_stimuli/pictures/0249_fw.png	510.19616508483887	0.9552638530731201
251	373.2300329208374	response	0	j		249.0	/experiments/knapen_AOT/AOT_stimuli/pictures/0249_fw.png	511.08808994293213	
252	373.29337191581726	picture	0		107	250.0	/experiments/knapen_AOT/AOT_stimuli/pictures/1641_fw.png	511.151428937912	0.9447641372680664
252	374.1800649166107	response	0	j		250.0	/experiments/knapen_AOT/AOT_stimuli/pictures/1641_fw.png	512.0381219387054	
253	374.2381360530853	picture	0		138	251.0	/experiments/knapen_AOT/AOT_stimuli/pictures/0922_fw.png	512.09619307518	1.2010879516601562
253	375.3800139427185	response	0	j		251.0	/experiments/knapen_AOT/AOT_stimuli/pictures/0922_fw.png	513.2380709648132	
254	375.4392240047455	picture	0		104	252.0	/experiments/knapen_AOT/AOT_stimuli/pictures/1192_fw.png	513.2972810268402	0.8989639282226562
254	376.2967939376831	response	0	k		252.0	/experiments/knapen_AOT/AOT_stimuli/pictures/1192_fw.png	514.1548509597778	
255	376.33818793296814	picture	0		121	253.0	/experiments/knapen_AOT/AOT_stimuli/pictures/0494_fw.png	514.1962449550629	1.0499780178070068
255	377.33832597732544	response	0	k		253.0	/experiments/knapen_AOT/AOT_stimuli/pictures/0494_fw.png	515.1963829994202	
256	377.38816595077515	picture	0		98	254.0	/experiments/knapen_AOT/AOT_stimuli/pictures/0381_fw.png	515.2462229728699	0.8583879470825195
256	378.19669103622437	response	0	k		254.0	/experiments/knapen_AOT/AOT_stimuli/pictures/0381_fw.png	516.0547480583191	
257	378.24655389785767	picture	0		123	255.0	/experiments/knapen_AOT/AOT_stimuli/pictures/0623_fw.png	516.1046109199524	1.0834050178527832
257	379.2567980289459	response	0	j		255.0	/experiments/knapen_AOT/AOT_stimuli/pictures/0623_fw.png	517.1148550510406	
258	379.32995891571045	picture	0		138	256.0	/experiments/knapen_AOT/AOT_stimuli/pictures/1151_fw.png	517.1880159378052	1.1999211311340332
258	380.46492886543274	response	0	k		256.0	/experiments/knapen_AOT/AOT_stimuli/pictures/1151_fw.png	518.3229858875275	
259	380.5298800468445	picture	0		95	257.0	/experiments/knapen_AOT/AOT_stimuli/pictures/0093_fw.png	518.3879370689392	0.8250529766082764
259	381.31340193748474	response	0	j		257.0	/experiments/knapen_AOT/AOT_stimuli/pictures/0093_fw.png	519.1714589595795	
260	381.35493302345276	picture	0		104	258.0	/experiments/knapen_AOT/AOT_stimuli/pictures/2092_fw.png	519.2129900455475	0.8999638557434082
260	382.2134008407593	response	0	j		258.0	/experiments/knapen_AOT/AOT_stimuli/pictures/2092_fw.png	520.071457862854	
261	382.25489687919617	picture	0		90	259.0	/experiments/knapen_AOT/AOT_stimuli/pictures/1305_fw.png	520.1129539012909	0.7954599857330322
261	382.99686002731323	response	0	k		259.0	/experiments/knapen_AOT/AOT_stimuli/pictures/1305_fw.png	520.854917049408	
262	383.0503568649292	picture	0		98	260.0	/experiments/knapen_AOT/AOT_stimuli/pictures/0402_fw.png	520.9084138870239	0.8629071712493896
262	383.84862089157104	response	0	k		260.0	/experiments/knapen_AOT/AOT_stimuli/pictures/0402_fw.png	521.7066779136658	
263	383.9132640361786	picture	0		202	261.0	/experiments/knapen_AOT/AOT_stimuli/pictures/0905_fw.png	521.7713210582733	1.720451831817627
263	385.588427066803	response	0	j		261.0	/experiments/knapen_AOT/AOT_stimuli/pictures/0905_fw.png	523.4464840888977	
264	385.6337158679962	picture	0		111	262.0	/experiments/knapen_AOT/AOT_stimuli/pictures/1713_fw.png	523.4917728900909	0.9545431137084961
264	386.54677295684814	response	0	j		262.0	/experiments/knapen_AOT/AOT_stimuli/pictures/1713_fw.png	524.4048299789429	
265	386.5882589817047	picture	0		190	263.0	/experiments/knapen_AOT/AOT_stimuli/pictures/1451_fw.png	524.4463160037994	1.6428229808807373
265	388.16350388526917	response	0	k		263.0	/experiments/knapen_AOT/AOT_stimuli/pictures/1451_fw.png	526.0215609073639	
266	388.23108196258545	picture	0		300	264.0	/experiments/knapen_AOT/AOT_stimuli/pictures/1274_fw.png	526.0891389846802	2.5490949153900146
266	390.7218220233917	response	0	k		264.0	/experiments/knapen_AOT/AOT_stimuli/pictures/1274_fw.png	528.5798790454865	
267	390.78017687797546	picture	0		128	265.0	/experiments/knapen_AOT/AOT_stimuli/pictures/2052_fw.png	528.6382339000702	1.0998330116271973
267	391.8385579586029	response	0	j		265.0	/experiments/knapen_AOT/AOT_stimuli/pictures/2052_fw.png	529.6966149806976	
268	391.88000988960266	picture	0		154	266.0	/experiments/knapen_AOT/AOT_stimuli/pictures/0189_fw.png	529.7380669116974	1.3333549499511719
268	393.1553690433502	response	0	k		266.0	/experiments/knapen_AOT/AOT_stimuli/pictures/0189_fw.png	531.013426065445	
269	393.21336483955383	picture	0		94	267.0	/experiments/knapen_AOT/AOT_stimuli/pictures/0496_fw.png	531.0714218616486	0.8167500495910645
269	393.9885530471802	response	0	k		267.0	/experiments/knapen_AOT/AOT_stimuli/pictures/0496_fw.png	531.8466100692749	
270	394.0301148891449	picture	0		95	268.0	/experiments/knapen_AOT/AOT_stimuli/pictures/0378_fw.png	531.8881719112396	0.8499891757965088
270	394.8135828971863	response	0	k		268.0	/experiments/knapen_AOT/AOT_stimuli/pictures/0378_fw.png	532.671639919281	
271	394.8801040649414	picture	0		159	269.0	/experiments/knapen_AOT/AOT_stimuli/pictures/0177_fw.png	532.7381610870361	1.3510348796844482
271	396.1969749927521	response	0	k		269.0	/experiments/knapen_AOT/AOT_stimuli/pictures/0177_fw.png	534.0550320148468	
272	396.23113894462585	picture	0		586	270.0	/experiments/knapen_AOT/AOT_stimuli/pictures/1781_fw.png	534.0891959667206	4.9096291065216064
272	401.1053099632263	response	0	k		270.0	/experiments/knapen_AOT/AOT_stimuli/pictures/1781_fw.png	538.963366985321	
273	401.14076805114746	picture	0		100	271.0	/experiments/knapen_AOT/AOT_stimuli/pictures/0921_fw.png	538.9988250732422	0.86118483543396
273	401.96361804008484	response	0	k		271.0	/experiments/knapen_AOT/AOT_stimuli/pictures/0921_fw.png	539.8216750621796	
274	402.0019528865814	picture	0		95	272.0	/experiments/knapen_AOT/AOT_stimuli/pictures/1850_fw.png	539.8600099086761	0.828192949295044
274	402.7887279987335	response	0	k		272.0	/experiments/knapen_AOT/AOT_stimuli/pictures/1850_fw.png	540.6467850208282	
275	402.83014583587646	picture	0		102	273.0	/experiments/knapen_AOT/AOT_stimuli/pictures/0546_fw.png	540.6882028579712	0.9009261131286621
275	403.66522097587585	response	0	j		273.0	/experiments/knapen_AOT/AOT_stimuli/pictures/0546_fw.png	541.5232779979706	
276	403.7310719490051	picture	0		95	274.0	/experiments/knapen_AOT/AOT_stimuli/pictures/0055_fw.png	541.5891289710999	0.8333380222320557
276	404.5136818885803	response	0	k		274.0	/experiments/knapen_AOT/AOT_stimuli/pictures/0055_fw.png	542.371738910675	
277	404.5644099712372	picture	0		98	275.0	/experiments/knapen_AOT/AOT_stimuli/pictures/1786_fw.png	542.4224669933319	0.8824710845947266
277	405.3722059726715	response	0	k		275.0	/experiments/knapen_AOT/AOT_stimuli/pictures/1786_fw.png	543.2302629947662	
278	405.4468810558319	picture	0		101	276.0	/experiments/knapen_AOT/AOT_stimuli/pictures/1925_fw.png	543.3049380779266	0.8675739765167236
278	406.2804899215698	response	0	k		276.0	/experiments/knapen_AOT/AOT_stimuli/pictures/1925_fw.png	544.1385469436646	
279	406.31445503234863	picture	0		669	277.0	/experiments/knapen_AOT/AOT_stimuli/pictures/1063_fw.png	544.1725120544434	5.611137866973877
279	411.880539894104	response	0	k		277.0	/experiments/knapen_AOT/AOT_stimuli/pictures/1063_fw.png	549.7385969161987	
280	411.9255928993225	picture	0		174	278.0	/experiments/knapen_AOT/AOT_stimuli/pictures/0387_fw.png	549.7836499214172	1.5348081588745117
280	413.39726185798645	response	0	k		278.0	/experiments/knapen_AOT/AOT_stimuli/pictures/0387_fw.png	551.2553188800812	
281	413.460401058197	picture	0		93	279.0	/experiments/knapen_AOT/AOT_stimuli/pictures/0262_fw.png	551.3184580802917	0.8365938663482666
281	414.22384905815125	response	0	j		279.0	/experiments/knapen_AOT/AOT_stimuli/pictures/0262_fw.png	552.081906080246	
282	414.2969949245453	picture	0		109	280.0	/experiments/knapen_AOT/AOT_stimuli/pictures/1791_fw.png	552.15505194664	0.9501099586486816
282	415.1972608566284	response	0	j		280.0	/experiments/knapen_AOT/AOT_stimuli/pictures/1791_fw.png	553.0553178787231	
283	415.24710488319397	picture	0		119	281.0	/experiments/knapen_AOT/AOT_stimuli/pictures/0239_fw.png	553.1051619052887	1.0188829898834229
283	416.2239480018616	response	0	j		281.0	/experiments/knapen_AOT/AOT_stimuli/pictures/0239_fw.png	554.0820050239563	
284	416.2659878730774	picture	0		155	282.0	/experiments/knapen_AOT/AOT_stimuli/pictures/2117_fw.png	554.1240448951721	1.3226959705352783
284	417.5473029613495	response	0	k		282.0	/experiments/knapen_AOT/AOT_stimuli/pictures/2117_fw.png	555.4053599834442	
285	417.58868384361267	picture	0		130	283.0	/experiments/knapen_AOT/AOT_stimuli/pictures/1007_fw.png	555.4467408657074	1.141752004623413
285	418.6638648509979	response	0	k		283.0	/experiments/knapen_AOT/AOT_stimuli/pictures/1007_fw.png	556.5219218730927	
286	418.7304358482361	picture	0		131	284.0	/experiments/knapen_AOT/AOT_stimuli/pictures/1453_fw.png	556.5884928703308	1.1417670249938965
286	419.8139410018921	response	0	j		284.0	/experiments/knapen_AOT/AOT_stimuli/pictures/1453_fw.png	557.6719980239868	
287	419.87220287323	picture	0		96	285.0	/experiments/knapen_AOT/AOT_stimuli/pictures/1475_fw.png	557.7302598953247	0.8415839672088623
287	420.663871049881	response	0	k		285.0	/experiments/knapen_AOT/AOT_stimuli/pictures/1475_fw.png	558.5219280719757	
288	420.71378684043884	picture	0		128	286.0	/experiments/knapen_AOT/AOT_stimuli/pictures/1601_fw.png	558.5718438625336	1.099971055984497
288	421.7723948955536	response	0	k		286.0	/experiments/knapen_AOT/AOT_stimuli/pictures/1601_fw.png	559.6304519176483	
289	421.81375789642334	picture	0		105	287.0	/experiments/knapen_AOT/AOT_stimuli/pictures/0867_fw.png	559.6718149185181	0.9174909591674805
289	422.68061804771423	response	0	j		287.0	/experiments/knapen_AOT/AOT_stimuli/pictures/0867_fw.png	560.538675069809	
290	422.7312488555908	picture	0		112	288.0	/experiments/knapen_AOT/AOT_stimuli/pictures/0085_fw.png	560.5893058776855	0.9825670719146729
290	423.6488239765167	response	0	k		288.0	/experiments/knapen_AOT/AOT_stimuli/pictures/0085_fw.png	561.5068809986115	
291	423.7138159275055	picture	0		452	289.0	/experiments/knapen_AOT/AOT_stimuli/pictures/0037_fw.png	561.5718729496002	3.8000240325927734
291	427.4724340438843	response	0	k		289.0	/experiments/knapen_AOT/AOT_stimuli/pictures/0037_fw.png	565.330491065979	
292	427.51383996009827	picture	0		101	290.0	/experiments/knapen_AOT/AOT_stimuli/pictures/1092_fw.png	565.371896982193	0.8916850090026855
292	428.34746193885803	response	0	k		290.0	/experiments/knapen_AOT/AOT_stimuli/pictures/1092_fw.png	566.2055189609528	
293	428.40552496910095	picture	0		100	291.0	/experiments/knapen_AOT/AOT_stimuli/pictures/0900_fw.png	566.2635819911957	0.8883578777313232
293	429.2238428592682	response	0	k		291.0	/experiments/knapen_AOT/AOT_stimuli/pictures/0900_fw.png	567.0818998813629	
294	429.2938828468323	picture	0		848	292.0	/experiments/knapen_AOT/AOT_stimuli/pictures/0860_fw.png	567.151939868927	7.097182989120483
294	436.3565900325775	response	0	k		292.0	/experiments/knapen_AOT/AOT_stimuli/pictures/0860_fw.png	574.2146470546722	
295	436.39106583595276	picture	0		80	293.0	/experiments/knapen_AOT/AOT_stimuli/pictures/0428_fw.png	574.2491228580475	0.6979081630706787
295	437.04747200012207	response	0	k		293.0	/experiments/knapen_AOT/AOT_stimuli/pictures/0428_fw.png	574.9055290222168	
296	437.08897399902344	picture	0		112	294.0	/experiments/knapen_AOT/AOT_stimuli/pictures/0106_fw.png	574.9470310211182	0.9833838939666748
296	438.00744795799255	response	0	k		294.0	/experiments/knapen_AOT/AOT_stimuli/pictures/0106_fw.png	575.8655049800873	
297	438.0723578929901	picture	0		172	295.0	/experiments/knapen_AOT/AOT_stimuli/pictures/1801_fw.png	575.9304149150848	1.4832990169525146
297	439.49750089645386	response	0	k		295.0	/experiments/knapen_AOT/AOT_stimuli/pictures/1801_fw.png	577.3555579185486	
298	439.5556569099426	picture	0		694	296.0	/experiments/knapen_AOT/AOT_stimuli/pictures/1560_fw.png	577.4137139320374	5.835559129714966
298	445.33098697662354	response	0	k		296.0	/experiments/knapen_AOT/AOT_stimuli/pictures/1560_fw.png	583.1890439987183	
299	445.3912160396576	picture	0		107	297.0	/experiments/knapen_AOT/AOT_stimuli/pictures/1474_fw.png	583.2492730617523	0.93955397605896
299	446.2733368873596	response	0	j		297.0	/experiments/knapen_AOT/AOT_stimuli/pictures/1474_fw.png	584.1313939094543	
300	446.33077001571655	picture	0		84	298.0	/experiments/knapen_AOT/AOT_stimuli/pictures/0941_fw.png	584.1888270378113	0.7416770458221436
300	447.01591897010803	response	0	k		298.0	/experiments/knapen_AOT/AOT_stimuli/pictures/0941_fw.png	584.8739759922028	
301	447.0724470615387	picture	0		174	299.0	/experiments/knapen_AOT/AOT_stimuli/pictures/1178_fw.png	584.9305040836334	1.4999887943267822
301	448.5143349170685	response	0	k		299.0	/experiments/knapen_AOT/AOT_stimuli/pictures/1178_fw.png	586.3723919391632	
302	448.5724358558655	picture	0		127	300.0	/experiments/knapen_AOT/AOT_stimuli/pictures/1459_fw.png	586.4304928779602	1.1104249954223633
302	449.6160218715668	response	0	j		300.0	/experiments/knapen_AOT/AOT_stimuli/pictures/1459_fw.png	587.4740788936615	
303	449.68286085128784	picture	0		133	301.0	/experiments/knapen_AOT/AOT_stimuli/pictures/0807_fw.png	587.5409178733826	1.531297206878662
303	450.7749149799347	response	0	k		301.0	/experiments/knapen_AOT/AOT_stimuli/pictures/0807_fw.png	588.6329720020294	
304	451.2141580581665	picture	0		109	302.0	/experiments/knapen_AOT/AOT_stimuli/pictures/1454_fw.png	589.0722150802612	0.9333398342132568
304	452.11439990997314	response	0	k		302.0	/experiments/knapen_AOT/AOT_stimuli/pictures/1454_fw.png	589.9724569320679	
305	452.14749789237976	picture	0		101	303.0	/experiments/knapen_AOT/AOT_stimuli/pictures/0297_fw.png	590.0055549144745	0.8749890327453613
305	452.9811038970947	response	0	j		303.0	/experiments/knapen_AOT/AOT_stimuli/pictures/0297_fw.png	590.8391609191895	
306	453.0224869251251	picture	0		656	304.0	/experiments/knapen_AOT/AOT_stimuli/pictures/0884_fw.png	590.8805439472198	5.5917699337005615
306	458.4816720485687	response	0	k		304.0	/experiments/knapen_AOT/AOT_stimuli/pictures/0884_fw.png	596.3397290706635	
307	458.6142568588257	picture	0		135	305.0	/experiments/knapen_AOT/AOT_stimuli/pictures/1419_fw.png	596.4723138809204	1.2006261348724365
307	459.7561900615692	response	0	j		305.0	/experiments/knapen_AOT/AOT_stimuli/pictures/1419_fw.png	597.6142470836639	
308	459.8148829936981	picture	0		115	306.0	/experiments/knapen_AOT/AOT_stimuli/pictures/0527_fw.png	597.6729400157928	0.9930469989776611
308	460.7645809650421	response	0	j		306.0	/experiments/knapen_AOT/AOT_stimuli/pictures/0527_fw.png	598.6226379871368	
309	460.8079299926758	picture	0		83	307.0	/experiments/knapen_AOT/AOT_stimuli/pictures/1899_fw.png	598.6659870147705	0.7083990573883057
309	461.4895489215851	response	0	k		307.0	/experiments/knapen_AOT/AOT_stimuli/pictures/1899_fw.png	599.3476059436798	
310	461.5163290500641	picture	0		112	308.0	/experiments/knapen_AOT/AOT_stimuli/pictures/1584_fw.png	599.3743860721588	0.9731359481811523
310	462.44022393226624	response	0	j		308.0	/experiments/knapen_AOT/AOT_stimuli/pictures/1584_fw.png	600.298280954361	
311	462.48946499824524	picture	0		88	309.0	/experiments/knapen_AOT/AOT_stimuli/pictures/0780_fw.png	600.34752202034	0.7665119171142578
311	463.21451902389526	response	0	k		309.0	/experiments/knapen_AOT/AOT_stimuli/pictures/0780_fw.png	601.07257604599	
312	463.2559769153595	picture	0		99	310.0	/experiments/knapen_AOT/AOT_stimuli/pictures/1835_fw.png	601.1140339374542	0.8750109672546387
312	464.07283306121826	response	0	j		310.0	/experiments/knapen_AOT/AOT_stimuli/pictures/1835_fw.png	601.930890083313	
313	464.13098788261414	picture	0		224	311.0	/experiments/knapen_AOT/AOT_stimuli/pictures/1131_fw.png	601.9890449047089	1.920025110244751
313	465.98336601257324	response	0	k		311.0	/experiments/knapen_AOT/AOT_stimuli/pictures/1131_fw.png	603.841423034668	
314	466.0510129928589	picture	0		132	312.0	/experiments/knapen_AOT/AOT_stimuli/pictures/1313_fw.png	603.9090700149536	1.1319808959960938
314	467.13964104652405	response	0	k		312.0	/experiments/knapen_AOT/AOT_stimuli/pictures/1313_fw.png	604.9976980686188	
315	467.182993888855	picture	0		96	313.0	/experiments/knapen_AOT/AOT_stimuli/pictures/0978_fw.png	605.0410509109497	0.8313970565795898
315	467.97293996810913	response	0	k		313.0	/experiments/knapen_AOT/AOT_stimuli/pictures/0978_fw.png	605.8309969902039	
316	468.01439094543457	picture	0		92	314.0	/experiments/knapen_AOT/AOT_stimuli/pictures/2100_fw.png	605.8724479675293	0.8000020980834961
316	468.76620388031006	response	0	k		314.0	/experiments/knapen_AOT/AOT_stimuli/pictures/2100_fw.png	606.6242609024048	
317	468.81439304351807	picture	0		95	315.0	/experiments/knapen_AOT/AOT_stimuli/pictures/1702_fw.png	606.6724500656128	0.8416600227355957
317	469.59124088287354	response	0	k		315.0	/experiments/knapen_AOT/AOT_stimuli/pictures/1702_fw.png	607.4492979049683	
318	469.65605306625366	picture	0		144	316.0	/experiments/knapen_AOT/AOT_stimuli/pictures/0749_fw.png	607.5141100883484	1.2422537803649902
318	470.8479290008545	response	0	k		316.0	/experiments/knapen_AOT/AOT_stimuli/pictures/0749_fw.png	608.7059860229492	
319	470.89830684661865	picture	0		493	317.0	/experiments/knapen_AOT/AOT_stimuli/pictures/1711_fw.png	608.7563638687134	4.159753084182739
319	474.9912340641022	response	0	k		317.0	/experiments/knapen_AOT/AOT_stimuli/pictures/1711_fw.png	612.8492910861969	
320	475.0580599308014	picture	0		100	318.0	/experiments/knapen_AOT/AOT_stimuli/pictures/0598_fw.png	612.9161169528961	0.8982031345367432
320	475.88140392303467	response	0	j		318.0	/experiments/knapen_AOT/AOT_stimuli/pictures/0598_fw.png	613.7394609451294	
321	475.95626306533813	picture	0		100	319.0	/experiments/knapen_AOT/AOT_stimuli/pictures/0880_fw.png	613.8143200874329	0.8665709495544434
321	476.7751679420471	response	0	j		319.0	/experiments/knapen_AOT/AOT_stimuli/pictures/0880_fw.png	614.6332249641418	
322	476.8228340148926	picture	0		100	320.0	/experiments/knapen_AOT/AOT_stimuli/pictures/1325_fw.png	614.6808910369873	0.866649866104126
322	477.64862394332886	response	0	k		320.0	/experiments/knapen_AOT/AOT_stimuli/pictures/1325_fw.png	615.5066809654236	
323	477.6894838809967	picture	0		109	321.0	/experiments/knapen_AOT/AOT_stimuli/pictures/0954_fw.png	615.5475409030914	0.9588899612426758
323	478.58302998542786	response	0	k		321.0	/experiments/knapen_AOT/AOT_stimuli/pictures/0954_fw.png	616.4410870075226	
324	478.6483738422394	picture	0		108	322.0	/experiments/knapen_AOT/AOT_stimuli/pictures/0359_fw.png	616.5064308643341	0.9514482021331787
324	479.53976488113403	response	0	k		322.0	/experiments/knapen_AOT/AOT_stimuli/pictures/0359_fw.png	617.3978219032288	
325	479.59982204437256	picture	0		148	323.0	/experiments/knapen_AOT/AOT_stimuli/pictures/0410_fw.png	617.4578790664673	1.2777059078216553
325	480.82306599617004	response	0	j		323.0	/experiments/knapen_AOT/AOT_stimuli/pictures/0410_fw.png	618.6811230182648	
326	480.8775279521942	picture	0		118	324.0	/experiments/knapen_AOT/AOT_stimuli/pictures/0183_fw.png	618.7355849742889	1.012037992477417
326	481.84809589385986	response	0	j		324.0	/experiments/knapen_AOT/AOT_stimuli/pictures/0183_fw.png	619.7061529159546	
327	481.88956594467163	picture	0		142	325.0	/experiments/knapen_AOT/AOT_stimuli/pictures/0908_fw.png	619.7476229667664	1.2250089645385742
327	483.06523394584656	response	0	j		325.0	/experiments/knapen_AOT/AOT_stimuli/pictures/0908_fw.png	620.9232909679413	
328	483.1145749092102	picture	0		370	326.0	/experiments/knapen_AOT/AOT_stimuli/pictures/1244_fw.png	620.9726319313049	3.125033140182495
328	486.18312191963196	response	0	k		326.0	/experiments/knapen_AOT/AOT_stimuli/pictures/1244_fw.png	624.0411789417267	
329	486.2396080493927	picture	0		100	327.0	/experiments/knapen_AOT/AOT_stimuli/pictures/1964_fw.png	624.0976650714874	0.8833467960357666
329	487.0652458667755	response	0	k		327.0	/experiments/knapen_AOT/AOT_stimuli/pictures/1964_fw.png	624.9233028888702	
330	487.12295484542847	picture	0		138	328.0	/experiments/knapen_AOT/AOT_stimuli/pictures/0630_fw.png	624.9810118675232	1.208381175994873
330	488.26490092277527	response	0	k		328.0	/experiments/knapen_AOT/AOT_stimuli/pictures/0630_fw.png	626.12295794487	
331	488.33133602142334	picture	0		1286	329.0	/experiments/knapen_AOT/AOT_stimuli/pictures/1540_fw.png	626.1893930435181	10.775189876556396
331	499.0400609970093	response	0	k		329.0	/experiments/knapen_AOT/AOT_stimuli/pictures/1540_fw.png	636.898118019104	
332	499.10652589797974	picture	0		81	330.0	/experiments/knapen_AOT/AOT_stimuli/pictures/1550_fw.png	636.9645829200745	0.7249209880828857
332	499.76653599739075	response	0	k		330.0	/experiments/knapen_AOT/AOT_stimuli/pictures/1550_fw.png	637.6245930194855	
333	499.8314468860626	picture	0		102	331.0	/experiments/knapen_AOT/AOT_stimuli/pictures/1795_fw.png	637.6895039081573	0.9083530902862549
333	500.6733419895172	response	0	k		331.0	/experiments/knapen_AOT/AOT_stimuli/pictures/1795_fw.png	638.5313990116119	
334	500.7397999763489	picture	0		111	332.0	/experiments/knapen_AOT/AOT_stimuli/pictures/1805_fw.png	638.5978569984436	0.9749999046325684
334	501.65670895576477	response	0	k		332.0	/experiments/knapen_AOT/AOT_stimuli/pictures/1805_fw.png	639.5147659778595	
335	501.71479988098145	picture	0		177	333.0	/experiments/knapen_AOT/AOT_stimuli/pictures/1761_fw.png	639.5728569030762	1.525068998336792
335	503.1816589832306	response	0	k		333.0	/experiments/knapen_AOT/AOT_stimuli/pictures/1761_fw.png	641.0397160053253	
336	503.23986887931824	picture	0		559	334.0	/experiments/knapen_AOT/AOT_stimuli/pictures/0355_fw.png	641.097925901413	4.700378179550171
336	507.890184879303	response	0	k		334.0	/experiments/knapen_AOT/AOT_stimuli/pictures/0355_fw.png	645.7482419013977	
337	507.9402470588684	picture	0		79	335.0	/experiments/knapen_AOT/AOT_stimuli/pictures/2084_fw.png	645.7983040809631	0.7083468437194824
337	508.590185880661	response	0	k		335.0	/experiments/knapen_AOT/AOT_stimuli/pictures/2084_fw.png	646.4482429027557	
338	508.6485939025879	picture	0		90	336.0	/experiments/knapen_AOT/AOT_stimuli/pictures/1525_fw.png	646.5066509246826	0.7848141193389893
338	509.3902039527893	response	0	k		336.0	/experiments/knapen_AOT/AOT_stimuli/pictures/1525_fw.png	647.248260974884	
339	509.4334080219269	picture	0		97	337.0	/experiments/knapen_AOT/AOT_stimuli/pictures/1696_fw.png	647.2914650440216	0.8398559093475342
339	510.232125043869	response	0	k		337.0	/experiments/knapen_AOT/AOT_stimuli/pictures/1696_fw.png	648.0901820659637	
340	510.2732639312744	picture	0		261	338.0	/experiments/knapen_AOT/AOT_stimuli/pictures/2114_fw.png	648.1313209533691	2.2333600521087646
340	512.4568688869476	response	0	k		338.0	/experiments/knapen_AOT/AOT_stimuli/pictures/2114_fw.png	650.3149259090424	
341	512.5066239833832	picture	0		122	339.0	/experiments/knapen_AOT/AOT_stimuli/pictures/2158_fw.png	650.3646810054779	1.0667788982391357
341	513.5152440071106	response	0	k		339.0	/experiments/knapen_AOT/AOT_stimuli/pictures/2158_fw.png	651.3733010292053	
342	513.5734028816223	picture	0		80	340.0	/experiments/knapen_AOT/AOT_stimuli/pictures/0117_fw.png	651.431459903717	0.8415789604187012
342	514.2322008609772	response	0	k		340.0	/experiments/knapen_AOT/AOT_stimuli/pictures/0117_fw.png	652.0902578830719	
343	514.414981842041	picture	0		151	341.0	/experiments/knapen_AOT/AOT_stimuli/pictures/1208_fw.png	652.2730388641357	1.3100612163543701
343	515.6653368473053	response	0	k		341.0	/experiments/knapen_AOT/AOT_stimuli/pictures/1208_fw.png	653.5233938694	
344	515.7250430583954	picture	0		121	342.0	/experiments/knapen_AOT/AOT_stimuli/pictures/0636_fw.png	653.5831000804901	1.0485949516296387
344	516.7235660552979	response	0	k		342.0	/experiments/knapen_AOT/AOT_stimuli/pictures/0636_fw.png	654.5816230773926	
345	516.773638010025	picture	0		94	343.0	/experiments/knapen_AOT/AOT_stimuli/pictures/1341_fw.png	654.6316950321198	0.8163878917694092
345	517.541867017746	response	0	k		343.0	/experiments/knapen_AOT/AOT_stimuli/pictures/1341_fw.png	655.3999240398407	
346	517.5900259017944	picture	0		98	344.0	/experiments/knapen_AOT/AOT_stimuli/pictures/0949_fw.png	655.4480829238892	0.8642971515655518
346	518.3987979888916	response	0	k		344.0	/experiments/knapen_AOT/AOT_stimuli/pictures/0949_fw.png	656.2568550109863	
347	518.45432305336	picture	0		116	345.0	/experiments/knapen_AOT/AOT_stimuli/pictures/1948_fw.png	656.3123800754547	1.020866870880127
347	519.4152529239655	response	0	j		345.0	/experiments/knapen_AOT/AOT_stimuli/pictures/1948_fw.png	657.2733099460602	
348	519.4751899242401	picture	0		99	346.0	/experiments/knapen_AOT/AOT_stimuli/pictures/0080_fw.png	657.3332469463348	0.8732340335845947
348	520.290412902832	response	0	k		346.0	/experiments/knapen_AOT/AOT_stimuli/pictures/0080_fw.png	658.1484699249268	
349	520.3484239578247	picture	0		104	347.0	/experiments/knapen_AOT/AOT_stimuli/pictures/0367_fw.png	658.2064809799194	0.9166810512542725
349	521.2069909572601	response	0	k		347.0	/experiments/knapen_AOT/AOT_stimuli/pictures/0367_fw.png	659.0650479793549	
350	521.265105009079	picture	0		88	348.0	/experiments/knapen_AOT/AOT_stimuli/pictures/1001_fw.png	659.1231620311737	0.7666668891906738
350	521.9902880191803	response	0	k		348.0	/experiments/knapen_AOT/AOT_stimuli/pictures/1001_fw.png	659.848345041275	
351	522.0317718982697	picture	0		101	349.0	/experiments/knapen_AOT/AOT_stimuli/pictures/1904_fw.png	659.8898289203644	0.8668830394744873
351	522.8653810024261	response	0	j		349.0	/experiments/knapen_AOT/AOT_stimuli/pictures/1904_fw.png	660.7234380245209	
352	522.8986549377441	picture	0		122	350.0	/experiments/knapen_AOT/AOT_stimuli/pictures/1472_fw.png	660.7567119598389	1.0278229713439941
352	523.9069550037384	response	0	k		350.0	/experiments/knapen_AOT/AOT_stimuli/pictures/1472_fw.png	661.7650120258331	
353	523.9264779090881	picture	0		219	351.0	/experiments/knapen_AOT/AOT_stimuli/pictures/1381_fw.png	661.7845349311829	1.881972074508667
353	525.7338418960571	response	0	k		351.0	/experiments/knapen_AOT/AOT_stimuli/pictures/1381_fw.png	663.5918989181519	
354	525.8084499835968	picture	0		125	352.0	/experiments/knapen_AOT/AOT_stimuli/pictures/0658_fw.png	663.6665070056915	1.073490858078003
354	526.8404829502106	response	0	k		352.0	/experiments/knapen_AOT/AOT_stimuli/pictures/0658_fw.png	664.6985399723053	
355	526.8819408416748	picture	0		122	353.0	/experiments/knapen_AOT/AOT_stimuli/pictures/0870_fw.png	664.7399978637695	1.0499629974365234
355	527.8904800415039	response	0	k		353.0	/experiments/knapen_AOT/AOT_stimuli/pictures/0870_fw.png	665.7485370635986	
356	527.9319038391113	picture	0		84	354.0	/experiments/knapen_AOT/AOT_stimuli/pictures/0756_fw.png	665.789960861206	0.7446150779724121
356	528.6236720085144	response	0	k		354.0	/experiments/knapen_AOT/AOT_stimuli/pictures/0756_fw.png	666.4817290306091	
357	528.6765189170837	picture	0		537	355.0	/experiments/knapen_AOT/AOT_stimuli/pictures/0088_fw.png	666.5345759391785	4.522046089172363
357	533.1335999965668	response	0	k		355.0	/experiments/knapen_AOT/AOT_stimuli/pictures/0088_fw.png	670.9916570186615	
358	533.1985650062561	picture	0		77	356.0	/experiments/knapen_AOT/AOT_stimuli/pictures/1613_fw.png	671.0566220283508	0.6933579444885254
358	533.8320939540863	response	0	k		356.0	/experiments/knapen_AOT/AOT_stimuli/pictures/1613_fw.png	671.690150976181	
359	533.8919229507446	picture	0		101	357.0	/experiments/knapen_AOT/AOT_stimuli/pictures/2057_fw.png	671.7499799728394	0.8983790874481201
359	534.7170858383179	response	0	k		357.0	/experiments/knapen_AOT/AOT_stimuli/pictures/2057_fw.png	672.5751428604126	
360	534.7903020381927	picture	0		101	358.0	/experiments/knapen_AOT/AOT_stimuli/pictures/0490_fw.png	672.6483590602875	0.8932399749755859
360	535.6237759590149	response	0	k		358.0	/experiments/knapen_AOT/AOT_stimuli/pictures/0490_fw.png	673.4818329811096	
361	535.6835420131683	picture	0		181	359.0	/experiments/knapen_AOT/AOT_stimuli/pictures/1604_fw.png	673.5415990352631	1.5400760173797607
361	537.1822068691254	response	0	j		359.0	/experiments/knapen_AOT/AOT_stimuli/pictures/1604_fw.png	675.0402638912201	
362	537.2236180305481	stim	0		122			675.0816750526428	1.043299913406372
362	538.2321739196777	response	0	space				676.0902309417725	
