trial_nr	onset	event_type	phase	response	nr_frames	picture_index	picture_file	onset_abs	duration
0	0.1856381893157959	stim	0		1360			110.40187907218933	11.368068933486938
0	11.5088050365448	response	0	space				121.72504591941833	
2	11.553707122802734	picture	0		97	0.0	/experiments/knapen_AOT/AOT_stimuli/pictures/1568_fw.png	121.76994800567627	0.8474118709564209
2	12.355494022369385	response	0	k		0.0	/experiments/knapen_AOT/AOT_stimuli/pictures/1568_fw.png	122.57173490524292	
3	12.401118993759155	picture	0		156	1.0	/experiments/knapen_AOT/AOT_stimuli/pictures/1454_fw.png	122.61735987663269	1.3332130908966064
3	13.691841125488281	response	0	k		1.0	/experiments/knapen_AOT/AOT_stimuli/pictures/1454_fw.png	123.90808200836182	
4	13.734332084655762	picture	0		94	2.0	/experiments/knapen_AOT/AOT_stimuli/pictures/1883_fw.png	123.9505729675293	0.8333389759063721
4	14.508563995361328	response	0	j		2.0	/experiments/knapen_AOT/AOT_stimuli/pictures/1883_fw.png	124.72480487823486	
5	14.567671060562134	picture	0		170	3.0	/experiments/knapen_AOT/AOT_stimuli/pictures/1105_fw.png	124.78391194343567	1.432448148727417
5	15.975235223770142	response	0	j		3.0	/experiments/knapen_AOT/AOT_stimuli/pictures/1105_fw.png	126.19147610664368	
6	16.00011920928955	picture	0		102	4.0	/experiments/knapen_AOT/AOT_stimuli/pictures/0373_fw.png	126.21636009216309	0.8800468444824219
6	16.835413217544556	response	0	j		4.0	/experiments/knapen_AOT/AOT_stimuli/pictures/0373_fw.png	127.05165410041809	
7	16.880166053771973	picture	0		106	5.0	/experiments/knapen_AOT/AOT_stimuli/pictures/1375_fw.png	127.09640693664551	0.9366180896759033
7	17.75869607925415	response	0	j		5.0	/experiments/knapen_AOT/AOT_stimuli/pictures/1375_fw.png	127.97493696212769	
8	17.816784143447876	picture	0		107	6.0	/experiments/knapen_AOT/AOT_stimuli/pictures/0202_fw.png	128.0330250263214	0.9333629608154297
8	18.7002592086792	response	0	j		6.0	/experiments/knapen_AOT/AOT_stimuli/pictures/0202_fw.png	128.91650009155273	
9	18.750147104263306	picture	0		150	7.0	/experiments/knapen_AOT/AOT_stimuli/pictures/0787_fw.png	128.96638798713684	1.275846004486084
9	19.991897106170654	response	0	k		7.0	/experiments/knapen_AOT/AOT_stimuli/pictures/0787_fw.png	130.2081379890442	
10	20.02599310874939	picture	0		134	8.0	/experiments/knapen_AOT/AOT_stimuli/pictures/1001_fw.png	130.24223399162292	1.1492071151733398
10	21.133630990982056	response	0	k		8.0	/experiments/knapen_AOT/AOT_stimuli/pictures/1001_fw.png	131.3498718738556	
11	21.17520022392273	picture	0		109	9.0	/experiments/knapen_AOT/AOT_stimuli/pictures/0335_fw.png	131.39144110679626	0.9343400001525879
11	22.075271129608154	response	0	j		9.0	/experiments/knapen_AOT/AOT_stimuli/pictures/0335_fw.png	132.2915120124817	
12	22.109540224075317	picture	0		127	10.0	/experiments/knapen_AOT/AOT_stimuli/pictures/1007_fw.png	132.32578110694885	1.1110107898712158
12	23.158701181411743	response	0	j		10.0	/experiments/knapen_AOT/AOT_stimuli/pictures/1007_fw.png	133.37494206428528	
13	23.220551013946533	picture	0		155	11.0	/experiments/knapen_AOT/AOT_stimuli/pictures/2138_fw.png	133.43679189682007	1.3401529788970947
13	24.500354051589966	response	0	k		11.0	/experiments/knapen_AOT/AOT_stimuli/pictures/2138_fw.png	134.7165949344635	
14	24.560703992843628	picture	0		113	12.0	/experiments/knapen_AOT/AOT_stimuli/pictures/1417_fw.png	134.77694487571716	0.9653961658477783
14	25.491997003555298	response	0	j		12.0	/experiments/knapen_AOT/AOT_stimuli/pictures/1417_fw.png	135.70823788642883	
15	25.526100158691406	picture	0		137	13.0	/experiments/knapen_AOT/AOT_stimuli/pictures/2091_fw.png	135.74234104156494	1.1666338443756104
15	26.658708095550537	response	0	k		13.0	/experiments/knapen_AOT/AOT_stimuli/pictures/2091_fw.png	136.87494897842407	
16	26.692734003067017	picture	0		106	14.0	/experiments/knapen_AOT/AOT_stimuli/pictures/0484_fw.png	136.90897488594055	0.9097700119018555
16	27.56793713569641	response	0	j		14.0	/experiments/knapen_AOT/AOT_stimuli/pictures/0484_fw.png	137.78417801856995	
17	27.602504014968872	picture	0		114	15.0	/experiments/knapen_AOT/AOT_stimuli/pictures/1860_fw.png	137.8187448978424	0.9652261734008789
17	28.54206609725952	response	0	j		15.0	/experiments/knapen_AOT/AOT_stimuli/pictures/1860_fw.png	138.75830698013306	
18	28.56773018836975	picture	0		161	16.0	/experiments/knapen_AOT/AOT_stimuli/pictures/1800_fw.png	138.7839710712433	1.3610448837280273
18	29.900453090667725	response	0	k		16.0	/experiments/knapen_AOT/AOT_stimuli/pictures/1800_fw.png	140.11669397354126	
19	29.92877507209778	picture	0		100	17.0	/experiments/knapen_AOT/AOT_stimuli/pictures/0414_fw.png	140.1450159549713	0.8612110614776611
19	30.750457048416138	response	0	j		17.0	/experiments/knapen_AOT/AOT_stimuli/pictures/0414_fw.png	140.96669793128967	
20	30.78998613357544	picture	0		106	18.0	/experiments/knapen_AOT/AOT_stimuli/pictures/0539_fw.png	141.00622701644897	0.918626070022583
20	31.667083024978638	response	0	k		18.0	/experiments/knapen_AOT/AOT_stimuli/pictures/0539_fw.png	141.88332390785217	
21	31.708612203598022	picture	0		113	19.0	/experiments/knapen_AOT/AOT_stimuli/pictures/1940_fw.png	141.92485308647156	0.9702708721160889
21	32.63541102409363	response	0	j		19.0	/experiments/knapen_AOT/AOT_stimuli/pictures/1940_fw.png	142.85165190696716	
22	32.67888307571411	picture	0		138	20.0	/experiments/knapen_AOT/AOT_stimuli/pictures/0621_fw.png	142.89512395858765	1.196484088897705
22	33.817347049713135	response	0	k		20.0	/experiments/knapen_AOT/AOT_stimuli/pictures/0621_fw.png	144.03358793258667	
23	33.875367164611816	picture	0		163	21.0	/experiments/knapen_AOT/AOT_stimuli/pictures/1668_fw.png	144.09160804748535	1.4423339366912842
23	35.218807220458984	response	0	j		21.0	/experiments/knapen_AOT/AOT_stimuli/pictures/1668_fw.png	145.43504810333252	
24	35.3177011013031	picture	0		159	22.0	/experiments/knapen_AOT/AOT_stimuli/pictures/1564_fw.png	145.53394198417664	1.3410470485687256
24	36.627220153808594	response	0	j		22.0	/experiments/knapen_AOT/AOT_stimuli/pictures/1564_fw.png	146.84346103668213	
25	36.658748149871826	picture	0		111	23.0	/experiments/knapen_AOT/AOT_stimuli/pictures/1889_fw.png	146.87498903274536	0.9666440486907959
25	37.57550406455994	response	0	j		23.0	/experiments/knapen_AOT/AOT_stimuli/pictures/1889_fw.png	147.79174494743347	
26	37.62539219856262	picture	0		113	24.0	/experiments/knapen_AOT/AOT_stimuli/pictures/1527_fw.png	147.84163308143616	0.9917678833007812
26	38.558826208114624	response	0	k		24.0	/experiments/knapen_AOT/AOT_stimuli/pictures/1527_fw.png	148.77506709098816	
27	38.6171600818634	picture	0		155	25.0	/experiments/knapen_AOT/AOT_stimuli/pictures/1647_fw.png	148.83340096473694	1.3186509609222412
27	39.9005651473999	response	0	k		25.0	/experiments/knapen_AOT/AOT_stimuli/pictures/1647_fw.png	150.11680603027344	
28	39.935811042785645	picture	0		218	26.0	/experiments/knapen_AOT/AOT_stimuli/pictures/1024_fw.png	150.15205192565918	1.8646271228790283
28	41.742388010025024	response	0	k		26.0	/experiments/knapen_AOT/AOT_stimuli/pictures/1024_fw.png	151.95862889289856	
29	41.80043816566467	picture	0		109	27.0	/experiments/knapen_AOT/AOT_stimuli/pictures/1953_fw.png	152.0166790485382	0.9618918895721436
29	42.70066213607788	response	0	k		27.0	/experiments/knapen_AOT/AOT_stimuli/pictures/1953_fw.png	152.91690301895142	
30	42.762330055236816	picture	0		120	28.0	/experiments/knapen_AOT/AOT_stimuli/pictures/0628_fw.png	152.97857093811035	1.0070750713348389
30	43.75057816505432	response	0	j		28.0	/experiments/knapen_AOT/AOT_stimuli/pictures/0628_fw.png	153.96681904792786	
31	43.769405126571655	picture	0		91	29.0	/experiments/knapen_AOT/AOT_stimuli/pictures/0034_fw.png	153.9856460094452	0.784588098526001
31	44.51724720001221	response	0	j		29.0	/experiments/knapen_AOT/AOT_stimuli/pictures/0034_fw.png	154.73348808288574	
32	44.553993225097656	picture	0		94	30.0	/experiments/knapen_AOT/AOT_stimuli/pictures/1100_fw.png	154.7702341079712	0.8131527900695801
32	45.32576322555542	response	0	k		30.0	/experiments/knapen_AOT/AOT_stimuli/pictures/1100_fw.png	155.54200410842896	
33	45.367146015167236	picture	0		138	31.0	/experiments/knapen_AOT/AOT_stimuli/pictures/1988_fw.png	155.58338689804077	1.2250421047210693
33	46.50896501541138	response	0	k		31.0	/experiments/knapen_AOT/AOT_stimuli/pictures/1988_fw.png	156.7252058982849	
34	46.592188119888306	picture	0		115	32.0	/experiments/knapen_AOT/AOT_stimuli/pictures/1507_fw.png	156.80842900276184	0.9965999126434326
34	47.54243206977844	response	0	k		32.0	/experiments/knapen_AOT/AOT_stimuli/pictures/1507_fw.png	157.75867295265198	
35	47.58878803253174	picture	0		102	33.0	/experiments/knapen_AOT/AOT_stimuli/pictures/1979_fw.png	157.80502891540527	0.8818981647491455
35	48.42714500427246	response	0	j		33.0	/experiments/knapen_AOT/AOT_stimuli/pictures/1979_fw.png	158.643385887146	
36	48.470686197280884	picture	0		117	34.0	/experiments/knapen_AOT/AOT_stimuli/pictures/1444_fw.png	158.68692708015442	1.0215039253234863
36	49.427367210388184	response	0	k		34.0	/experiments/knapen_AOT/AOT_stimuli/pictures/1444_fw.png	159.64360809326172	
37	49.49219012260437	picture	0		140	35.0	/experiments/knapen_AOT/AOT_stimuli/pictures/1434_fw.png	159.7084310054779	1.2083740234375
37	50.643946170806885	response	0	k		35.0	/experiments/knapen_AOT/AOT_stimuli/pictures/1434_fw.png	160.86018705368042	
38	50.70056414604187	picture	0		103	36.0	/experiments/knapen_AOT/AOT_stimuli/pictures/0351_fw.png	160.9168050289154	0.8832859992980957
38	51.55064821243286	response	0	j		36.0	/experiments/knapen_AOT/AOT_stimuli/pictures/0351_fw.png	161.7668890953064	
39	51.583850145339966	picture	0		156	37.0	/experiments/knapen_AOT/AOT_stimuli/pictures/0573_fw.png	161.8000910282135	1.3250279426574707
39	52.87569713592529	response	0	k		37.0	/experiments/knapen_AOT/AOT_stimuli/pictures/0573_fw.png	163.09193801879883	
40	52.90887808799744	picture	0		204	38.0	/experiments/knapen_AOT/AOT_stimuli/pictures/1040_fw.png	163.12511897087097	1.725039005279541
40	54.600789070129395	response	0	j		38.0	/experiments/knapen_AOT/AOT_stimuli/pictures/1040_fw.png	164.81702995300293	
41	54.63391709327698	picture	0		174	39.0	/experiments/knapen_AOT/AOT_stimuli/pictures/1761_fw.png	164.8501579761505	1.4687550067901611
41	56.07581901550293	response	0	k		39.0	/experiments/knapen_AOT/AOT_stimuli/pictures/1761_fw.png	166.29205989837646	
42	56.10267210006714	picture	0		114	40.0	/experiments/knapen_AOT/AOT_stimuli/pictures/0513_fw.png	166.31891298294067	0.972923994064331
42	57.03564715385437	response	0	j		40.0	/experiments/knapen_AOT/AOT_stimuli/pictures/0513_fw.png	167.2518880367279	
43	57.07559609413147	picture	0		173	41.0	/experiments/knapen_AOT/AOT_stimuli/pictures/1621_fw.png	167.291836977005	1.4715509414672852
43	58.50911617279053	response	0	j		41.0	/experiments/knapen_AOT/AOT_stimuli/pictures/1621_fw.png	168.72535705566406	
44	58.547147035598755	picture	0		127	42.0	/experiments/knapen_AOT/AOT_stimuli/pictures/1980_fw.png	168.7633879184723	1.1535310745239258
44	59.59248614311218	response	0	k		42.0	/experiments/knapen_AOT/AOT_stimuli/pictures/1980_fw.png	169.80872702598572	
45	59.70067811012268	picture	0		138	43.0	/experiments/knapen_AOT/AOT_stimuli/pictures/1094_fw.png	169.91691899299622	1.1833579540252686
45	60.83584713935852	response	0	j		43.0	/experiments/knapen_AOT/AOT_stimuli/pictures/1094_fw.png	171.05208802223206	
46	60.88403606414795	picture	0		190	44.0	/experiments/knapen_AOT/AOT_stimuli/pictures/0360_fw.png	171.10027694702148	1.6083259582519531
46	62.459174156188965	response	0	j		44.0	/experiments/knapen_AOT/AOT_stimuli/pictures/0360_fw.png	172.6754150390625	
47	62.4923620223999	picture	0		108	45.0	/experiments/knapen_AOT/AOT_stimuli/pictures/1486_fw.png	172.70860290527344	0.9298980236053467
47	63.38412809371948	response	0	j		45.0	/experiments/knapen_AOT/AOT_stimuli/pictures/1486_fw.png	173.60036897659302	
48	63.42226004600525	picture	0		114	46.0	/experiments/knapen_AOT/AOT_stimuli/pictures/0216_fw.png	173.63850092887878	0.9721441268920898
48	64.35922002792358	response	0	k		46.0	/experiments/knapen_AOT/AOT_stimuli/pictures/0216_fw.png	174.57546091079712	
49	64.39440417289734	picture	0		115	47.0	/experiments/knapen_AOT/AOT_stimuli/pictures/0106_fw.png	174.61064505577087	1.0147178173065186
49	65.37590718269348	response	0	k		47.0	/experiments/knapen_AOT/AOT_stimuli/pictures/0106_fw.png	175.59214806556702	
50	65.40912199020386	picture	0		109	48.0	/experiments/knapen_AOT/AOT_stimuli/pictures/0400_fw.png	175.6253628730774	0.9366841316223145
50	66.30921506881714	response	0	k		48.0	/experiments/knapen_AOT/AOT_stimuli/pictures/0400_fw.png	176.52545595169067	
51	66.34580612182617	picture	0		100	49.0	/experiments/knapen_AOT/AOT_stimuli/pictures/0107_fw.png	176.5620470046997	0.8549139499664307
51	67.16765403747559	response	0	j		49.0	/experiments/knapen_AOT/AOT_stimuli/pictures/0107_fw.png	177.38389492034912	
52	67.2007200717926	picture	0		94	50.0	/experiments/knapen_AOT/AOT_stimuli/pictures/1588_fw.png	177.41696095466614	0.8333590030670166
52	67.97588109970093	response	0	j		50.0	/experiments/knapen_AOT/AOT_stimuli/pictures/1588_fw.png	178.19212198257446	
53	68.03407907485962	picture	0		104	51.0	/experiments/knapen_AOT/AOT_stimuli/pictures/1970_fw.png	178.25031995773315	0.9091510772705078
53	68.89256715774536	response	0	j		51.0	/experiments/knapen_AOT/AOT_stimuli/pictures/1970_fw.png	179.1088080406189	
54	68.94323015213013	picture	0		96	52.0	/experiments/knapen_AOT/AOT_stimuli/pictures/1066_fw.png	179.15947103500366	0.8492639064788818
54	69.73492622375488	response	0	j		52.0	/experiments/knapen_AOT/AOT_stimuli/pictures/1066_fw.png	179.95116710662842	
55	69.79249405860901	picture	0		150	53.0	/experiments/knapen_AOT/AOT_stimuli/pictures/1174_fw.png	180.00873494148254	1.2687201499938965
55	71.02809810638428	response	0	k		53.0	/experiments/knapen_AOT/AOT_stimuli/pictures/1174_fw.png	181.2443389892578	
56	71.0612142086029	picture	0		140	54.0	/experiments/knapen_AOT/AOT_stimuli/pictures/1390_fw.png	181.27745509147644	1.197948932647705
56	72.21758222579956	response	0	j		54.0	/experiments/knapen_AOT/AOT_stimuli/pictures/1390_fw.png	182.4338231086731	
57	72.25916314125061	picture	0		124	55.0	/experiments/knapen_AOT/AOT_stimuli/pictures/0377_fw.png	182.47540402412415	1.079761028289795
57	73.28437614440918	response	0	j		55.0	/experiments/knapen_AOT/AOT_stimuli/pictures/0377_fw.png	183.50061702728271	
58	73.3389241695404	picture	0		175	56.0	/experiments/knapen_AOT/AOT_stimuli/pictures/0872_fw.png	183.55516505241394	1.5036368370056152
58	74.78438711166382	response	0	k		56.0	/experiments/knapen_AOT/AOT_stimuli/pictures/0872_fw.png	185.00062799453735	
59	74.84256100654602	picture	0		94	57.0	/experiments/knapen_AOT/AOT_stimuli/pictures/0117_fw.png	185.05880188941956	0.8089890480041504
59	75.61143016815186	response	0	j		57.0	/experiments/knapen_AOT/AOT_stimuli/pictures/0117_fw.png	185.8276710510254	
60	75.65155005455017	picture	0		166	58.0	/experiments/knapen_AOT/AOT_stimuli/pictures/0935_fw.png	185.8677909374237	1.409593105316162
60	77.01927518844604	response	0	j		58.0	/experiments/knapen_AOT/AOT_stimuli/pictures/0935_fw.png	187.23551607131958	
61	77.06114315986633	picture	0		170	59.0	/experiments/knapen_AOT/AOT_stimuli/pictures/1166_fw.png	187.27738404273987	1.4444160461425781
61	78.46782302856445	response	0	k		59.0	/experiments/knapen_AOT/AOT_stimuli/pictures/1166_fw.png	188.684063911438	
62	78.50555920600891	picture	0		130	60.0	/experiments/knapen_AOT/AOT_stimuli/pictures/1383_fw.png	188.72180008888245	1.104212999343872
62	79.57600712776184	response	0	j		60.0	/experiments/knapen_AOT/AOT_stimuli/pictures/1383_fw.png	189.79224801063538	
63	79.60977220535278	picture	0		145	61.0	/experiments/knapen_AOT/AOT_stimuli/pictures/1675_fw.png	189.82601308822632	1.2328779697418213
63	80.80948209762573	response	0	k		61.0	/experiments/knapen_AOT/AOT_stimuli/pictures/1675_fw.png	191.02572298049927	
64	80.8426501750946	picture	0		113	62.0	/experiments/knapen_AOT/AOT_stimuli/pictures/0805_fw.png	191.05889105796814	1.0520360469818115
64	81.77670311927795	response	0	j		62.0	/experiments/knapen_AOT/AOT_stimuli/pictures/0805_fw.png	191.9929440021515	
65	81.89468622207642	picture	0		117	63.0	/experiments/knapen_AOT/AOT_stimuli/pictures/0905_fw.png	192.11092710494995	0.9999189376831055
65	82.85254907608032	response	0	j		63.0	/experiments/knapen_AOT/AOT_stimuli/pictures/0905_fw.png	193.06878995895386	
66	82.89460515975952	picture	0		127	64.0	/experiments/knapen_AOT/AOT_stimuli/pictures/1733_fw.png	193.11084604263306	1.0980558395385742
66	83.94340109825134	response	0	j		64.0	/experiments/knapen_AOT/AOT_stimuli/pictures/1733_fw.png	194.15964198112488	
67	83.9926609992981	picture	0		128	65.0	/experiments/knapen_AOT/AOT_stimuli/pictures/1686_fw.png	194.20890188217163	1.1311302185058594
67	85.04433608055115	response	0	j		65.0	/experiments/knapen_AOT/AOT_stimuli/pictures/1686_fw.png	195.26057696342468	
68	85.12379121780396	picture	0		257	66.0	/experiments/knapen_AOT/AOT_stimuli/pictures/1005_fw.png	195.3400321006775	2.168959856033325
68	87.25278902053833	response	0	k		66.0	/experiments/knapen_AOT/AOT_stimuli/pictures/1005_fw.png	197.46902990341187	
69	87.29275107383728	picture	0		134	67.0	/experiments/knapen_AOT/AOT_stimuli/pictures/0620_fw.png	197.50899195671082	1.2249650955200195
69	88.4017071723938	response	0	j		67.0	/experiments/knapen_AOT/AOT_stimuli/pictures/0620_fw.png	198.61794805526733	
70	88.5177161693573	picture	0		170	68.0	/experiments/knapen_AOT/AOT_stimuli/pictures/0288_fw.png	198.73395705223083	1.4750399589538574
70	89.92627000808716	response	0	k		68.0	/experiments/knapen_AOT/AOT_stimuli/pictures/0288_fw.png	200.1425108909607	
71	89.99275612831116	picture	0		129	69.0	/experiments/knapen_AOT/AOT_stimuli/pictures/1395_fw.png	200.2089970111847	1.1032350063323975
71	91.05961298942566	response	0	k		69.0	/experiments/knapen_AOT/AOT_stimuli/pictures/1395_fw.png	201.2758538722992	
72	91.09599113464355	picture	0		117	70.0	/experiments/knapen_AOT/AOT_stimuli/pictures/0316_fw.png	201.3122320175171	1.0300650596618652
72	92.05315613746643	response	0	k		70.0	/experiments/knapen_AOT/AOT_stimuli/pictures/0316_fw.png	202.26939702033997	
73	92.12605619430542	picture	0		97	71.0	/experiments/knapen_AOT/AOT_stimuli/pictures/1095_fw.png	202.34229707717896	0.8312268257141113
73	92.92623519897461	response	0	j		71.0	/experiments/knapen_AOT/AOT_stimuli/pictures/1095_fw.png	203.14247608184814	
74	92.95728302001953	picture	0		118	72.0	/experiments/knapen_AOT/AOT_stimuli/pictures/0318_fw.png	203.17352390289307	1.006911039352417
74	93.9345281124115	response	0	k		72.0	/experiments/knapen_AOT/AOT_stimuli/pictures/0318_fw.png	204.15076899528503	
75	93.96419405937195	picture	0		104	73.0	/experiments/knapen_AOT/AOT_stimuli/pictures/0385_fw.png	204.18043494224548	0.888787031173706
75	94.81849598884583	response	0	j		73.0	/experiments/knapen_AOT/AOT_stimuli/pictures/0385_fw.png	205.03473687171936	
76	94.85298109054565	picture	0		141	74.0	/experiments/knapen_AOT/AOT_stimuli/pictures/0847_fw.png	205.0692219734192	1.194525957107544
76	96.01787900924683	response	0	k		74.0	/experiments/knapen_AOT/AOT_stimuli/pictures/0847_fw.png	206.23411989212036	
77	96.0475070476532	picture	0		131	75.0	/experiments/knapen_AOT/AOT_stimuli/pictures/0507_fw.png	206.26374793052673	1.1202771663665771
77	97.12626504898071	response	0	j		75.0	/experiments/knapen_AOT/AOT_stimuli/pictures/0507_fw.png	207.34250593185425	
78	97.16778421401978	picture	0		186	76.0	/experiments/knapen_AOT/AOT_stimuli/pictures/0747_fw.png	207.3840250968933	1.5750298500061035
78	98.70964121818542	response	0	j		76.0	/experiments/knapen_AOT/AOT_stimuli/pictures/0747_fw.png	208.92588210105896	
79	98.74281406402588	picture	0		112	77.0	/experiments/knapen_AOT/AOT_stimuli/pictures/1725_fw.png	208.9590549468994	0.9749979972839355
79	99.66794013977051	response	0	j		77.0	/experiments/knapen_AOT/AOT_stimuli/pictures/1725_fw.png	209.88418102264404	
80	99.71781206130981	picture	0		108	78.0	/experiments/knapen_AOT/AOT_stimuli/pictures/1572_fw.png	209.93405294418335	0.9269189834594727
80	100.61010217666626	response	0	k		78.0	/experiments/knapen_AOT/AOT_stimuli/pictures/1572_fw.png	210.8263430595398	
81	100.64473104476929	picture	0		124	79.0	/experiments/knapen_AOT/AOT_stimuli/pictures/1922_fw.png	210.86097192764282	1.081498146057129
81	101.6680040359497	response	0	j		79.0	/experiments/knapen_AOT/AOT_stimuli/pictures/1922_fw.png	211.88424491882324	
82	101.72622919082642	picture	0		108	80.0	/experiments/knapen_AOT/AOT_stimuli/pictures/0317_fw.png	211.94247007369995	0.9332938194274902
82	102.61166620254517	response	0	j		80.0	/experiments/knapen_AOT/AOT_stimuli/pictures/0317_fw.png	212.8279070854187	
83	102.6595230102539	picture	0		119	81.0	/experiments/knapen_AOT/AOT_stimuli/pictures/1917_fw.png	212.87576389312744	1.0250940322875977
83	103.63614416122437	response	0	k		81.0	/experiments/knapen_AOT/AOT_stimuli/pictures/1917_fw.png	213.8523850440979	
84	103.6846170425415	picture	0		117	82.0	/experiments/knapen_AOT/AOT_stimuli/pictures/1740_fw.png	213.90085792541504	1.0295641422271729
84	104.6518030166626	response	0	k		82.0	/experiments/knapen_AOT/AOT_stimuli/pictures/1740_fw.png	214.86804389953613	
85	104.71418118476868	picture	0		112	83.0	/experiments/knapen_AOT/AOT_stimuli/pictures/0044_fw.png	214.9304220676422	0.9620490074157715
85	105.6278440952301	response	0	k		83.0	/experiments/knapen_AOT/AOT_stimuli/pictures/0044_fw.png	215.84408497810364	
86	105.67623019218445	picture	0		118	84.0	/experiments/knapen_AOT/AOT_stimuli/pictures/1905_fw.png	215.89247107505798	1.01019287109375
86	106.64458322525024	response	0	k		84.0	/experiments/knapen_AOT/AOT_stimuli/pictures/1905_fw.png	216.86082410812378	
87	106.6864230632782	picture	0		110	85.0	/experiments/knapen_AOT/AOT_stimuli/pictures/1281_fw.png	216.90266394615173	0.9565310478210449
87	107.59305000305176	response	0	k		85.0	/experiments/knapen_AOT/AOT_stimuli/pictures/1281_fw.png	217.8092908859253	
88	107.64295411109924	picture	0		139	86.0	/experiments/knapen_AOT/AOT_stimuli/pictures/0675_fw.png	217.85919499397278	1.1834259033203125
88	108.79309606552124	response	0	k		86.0	/experiments/knapen_AOT/AOT_stimuli/pictures/0675_fw.png	219.00933694839478	
89	108.82638001441956	picture	0		211	87.0	/experiments/knapen_AOT/AOT_stimuli/pictures/1700_fw.png	219.0426208972931	1.7917320728302002
89	110.5766429901123	response	0	j		87.0	/experiments/knapen_AOT/AOT_stimuli/pictures/1700_fw.png	220.79288387298584	
90	110.61811208724976	picture	0		101	88.0	/experiments/knapen_AOT/AOT_stimuli/pictures/0996_fw.png	220.8343529701233	0.8749790191650391
90	111.4450170993805	response	0	j		88.0	/experiments/knapen_AOT/AOT_stimuli/pictures/0996_fw.png	221.66125798225403	
91	111.4930911064148	picture	0		208	89.0	/experiments/knapen_AOT/AOT_stimuli/pictures/0963_fw.png	221.70933198928833	1.7696430683135986
91	113.21826815605164	response	0	j		89.0	/experiments/knapen_AOT/AOT_stimuli/pictures/0963_fw.png	223.43450903892517	
92	113.2627341747284	picture	0		96	90.0	/experiments/knapen_AOT/AOT_stimuli/pictures/0705_fw.png	223.47897505760193	0.8387060165405273
92	114.04469299316406	response	0	k		90.0	/experiments/knapen_AOT/AOT_stimuli/pictures/0705_fw.png	224.2609338760376	
93	114.10144019126892	picture	0		123	91.0	/experiments/knapen_AOT/AOT_stimuli/pictures/0723_fw.png	224.31768107414246	1.0666208267211914
93	115.11826419830322	response	0	k		91.0	/experiments/knapen_AOT/AOT_stimuli/pictures/0723_fw.png	225.33450508117676	
94	115.16806101799011	picture	0		117	92.0	/experiments/knapen_AOT/AOT_stimuli/pictures/0886_fw.png	225.38430190086365	1.0083341598510742
94	116.1348180770874	response	0	k		92.0	/experiments/knapen_AOT/AOT_stimuli/pictures/0886_fw.png	226.35105895996094	
95	116.17639517784119	picture	0		224	93.0	/experiments/knapen_AOT/AOT_stimuli/pictures/0825_fw.png	226.39263606071472	2.010063886642456
95	118.02828812599182	response	0	k		93.0	/experiments/knapen_AOT/AOT_stimuli/pictures/0825_fw.png	228.24452900886536	
96	118.18645906448364	picture	0		111	94.0	/experiments/knapen_AOT/AOT_stimuli/pictures/0667_fw.png	228.40269994735718	0.948275089263916
96	119.10155010223389	response	0	k		94.0	/experiments/knapen_AOT/AOT_stimuli/pictures/0667_fw.png	229.31779098510742	
97	119.13473415374756	picture	0		117	95.0	/experiments/knapen_AOT/AOT_stimuli/pictures/0986_fw.png	229.3509750366211	1.0000090599060059
97	120.10152101516724	response	0	k		95.0	/experiments/knapen_AOT/AOT_stimuli/pictures/0986_fw.png	230.31776189804077	
98	120.13474321365356	picture	0		330	96.0	/experiments/knapen_AOT/AOT_stimuli/pictures/0162_fw.png	230.3509840965271	2.780892848968506
98	122.87673807144165	response	0	k		96.0	/experiments/knapen_AOT/AOT_stimuli/pictures/0162_fw.png	233.09297895431519	
99	122.91563606262207	picture	0		95	97.0	/experiments/knapen_AOT/AOT_stimuli/pictures/0413_fw.png	233.1318769454956	0.8056671619415283
99	123.7016830444336	response	0	j		97.0	/experiments/knapen_AOT/AOT_stimuli/pictures/0413_fw.png	233.91792392730713	
100	123.7213032245636	picture	0		113	98.0	/experiments/knapen_AOT/AOT_stimuli/pictures/1207_fw.png	233.93754410743713	0.9583477973937988
100	124.64474701881409	response	0	k		98.0	/experiments/knapen_AOT/AOT_stimuli/pictures/1207_fw.png	234.86098790168762	
101	124.6796510219574	picture	0		136	99.0	/experiments/knapen_AOT/AOT_stimuli/pictures/1723_fw.png	234.89589190483093	1.1598320007324219
101	125.80163717269897	response	0	j		99.0	/experiments/knapen_AOT/AOT_stimuli/pictures/1723_fw.png	236.0178780555725	
102	125.83948302268982	picture	0		137	100.0	/experiments/knapen_AOT/AOT_stimuli/pictures/1972_fw.png	236.05572390556335	1.1665351390838623
102	126.9683940410614	response	0	j		100.0	/experiments/knapen_AOT/AOT_stimuli/pictures/1972_fw.png	237.18463492393494	
103	127.00601816177368	picture	0		126	101.0	/experiments/knapen_AOT/AOT_stimuli/pictures/0902_fw.png	237.22225904464722	1.0903189182281494
103	128.03641414642334	response	0	k		101.0	/experiments/knapen_AOT/AOT_stimuli/pictures/0902_fw.png	238.25265502929688	
104	128.09633708000183	picture	0		181	102.0	/experiments/knapen_AOT/AOT_stimuli/pictures/1081_fw.png	238.31257796287537	1.5802719593048096
104	129.59355401992798	response	0	k		102.0	/experiments/knapen_AOT/AOT_stimuli/pictures/1081_fw.png	239.8097949028015	
105	129.67660903930664	picture	0		119	103.0	/experiments/knapen_AOT/AOT_stimuli/pictures/0575_fw.png	239.89284992218018	1.0101029872894287
105	130.66012716293335	response	0	k		103.0	/experiments/knapen_AOT/AOT_stimuli/pictures/0575_fw.png	240.87636804580688	
106	130.68671202659607	picture	0		95	104.0	/experiments/knapen_AOT/AOT_stimuli/pictures/0433_fw.png	240.9029529094696	0.8148841857910156
106	131.46837401390076	response	0	j		104.0	/experiments/knapen_AOT/AOT_stimuli/pictures/0433_fw.png	241.6846148967743	
107	131.50159621238708	picture	0		157	105.0	/experiments/knapen_AOT/AOT_stimuli/pictures/0887_fw.png	241.71783709526062	1.3416709899902344
107	132.80171012878418	response	0	k		105.0	/experiments/knapen_AOT/AOT_stimuli/pictures/0887_fw.png	243.01795101165771	
108	132.84326720237732	picture	0		116	106.0	/experiments/knapen_AOT/AOT_stimuli/pictures/1542_fw.png	243.05950808525085	1.0446858406066895
108	133.80173516273499	response	0	k		106.0	/experiments/knapen_AOT/AOT_stimuli/pictures/1542_fw.png	244.01797604560852	
109	133.887953042984	picture	0		170	107.0	/experiments/knapen_AOT/AOT_stimuli/pictures/1640_fw.png	244.10419392585754	1.4553711414337158
109	135.29349517822266	response	0	k		107.0	/experiments/knapen_AOT/AOT_stimuli/pictures/1640_fw.png	245.5097360610962	
110	135.34332418441772	picture	0		116	108.0	/experiments/knapen_AOT/AOT_stimuli/pictures/0517_fw.png	245.55956506729126	0.9961190223693848
110	136.30177116394043	response	0	j		108.0	/experiments/knapen_AOT/AOT_stimuli/pictures/0517_fw.png	246.51801204681396	
111	136.3394432067871	picture	0		126	109.0	/experiments/knapen_AOT/AOT_stimuli/pictures/2086_fw.png	246.55568408966064	1.0763888359069824
111	137.37677907943726	response	0	k		109.0	/experiments/knapen_AOT/AOT_stimuli/pictures/2086_fw.png	247.5930199623108	
112	137.4158320426941	picture	0		132	110.0	/experiments/knapen_AOT/AOT_stimuli/pictures/1096_fw.png	247.63207292556763	1.173647165298462
112	138.54348301887512	response	0	k		110.0	/experiments/knapen_AOT/AOT_stimuli/pictures/1096_fw.png	248.75972390174866	
113	138.58947920799255	picture	0		121	111.0	/experiments/knapen_AOT/AOT_stimuli/pictures/1932_fw.png	248.8057200908661	1.054067850112915
113	139.59349417686462	response	0	j		111.0	/experiments/knapen_AOT/AOT_stimuli/pictures/1932_fw.png	249.80973505973816	
114	139.64354705810547	picture	0		190	112.0	/experiments/knapen_AOT/AOT_stimuli/pictures/0695_fw.png	249.859787940979	1.612511157989502
114	141.21863317489624	response	0	j		112.0	/experiments/knapen_AOT/AOT_stimuli/pictures/0695_fw.png	251.43487405776978	
115	141.25605821609497	picture	0		150	113.0	/experiments/knapen_AOT/AOT_stimuli/pictures/1323_fw.png	251.4722990989685	1.2789738178253174
115	142.49351716041565	response	0	k		113.0	/experiments/knapen_AOT/AOT_stimuli/pictures/1323_fw.png	252.70975804328918	
116	142.5350320339203	picture	0		144	114.0	/experiments/knapen_AOT/AOT_stimuli/pictures/0895_fw.png	252.75127291679382	1.2334589958190918
116	143.72687101364136	response	0	j		114.0	/experiments/knapen_AOT/AOT_stimuli/pictures/0895_fw.png	253.9431118965149	
117	143.76849102973938	picture	0		198	115.0	/experiments/knapen_AOT/AOT_stimuli/pictures/0556_fw.png	253.98473191261292	1.6832711696624756
117	145.4102761745453	response	0	j		115.0	/experiments/knapen_AOT/AOT_stimuli/pictures/0556_fw.png	255.62651705741882	
118	145.45176219940186	picture	0		116	116.0	/experiments/knapen_AOT/AOT_stimuli/pictures/0852_fw.png	255.6680030822754	1.02500581741333
118	146.4102931022644	response	0	k		116.0	/experiments/knapen_AOT/AOT_stimuli/pictures/0852_fw.png	256.62653398513794	
119	146.47676801681519	picture	0		147	117.0	/experiments/knapen_AOT/AOT_stimuli/pictures/2009_fw.png	256.6930088996887	1.2667810916900635
119	147.6938021183014	response	0	j		117.0	/experiments/knapen_AOT/AOT_stimuli/pictures/2009_fw.png	257.9100430011749	
120	147.74354910850525	picture	0		103	118.0	/experiments/knapen_AOT/AOT_stimuli/pictures/1495_fw.png	257.9597899913788	0.943195104598999
120	148.59357714653015	response	0	j		118.0	/experiments/knapen_AOT/AOT_stimuli/pictures/1495_fw.png	258.8098180294037	
121	148.68674421310425	picture	0		154	119.0	/experiments/knapen_AOT/AOT_stimuli/pictures/0811_fw.png	258.9029850959778	1.3235409259796143
121	149.96025609970093	response	0	j		119.0	/experiments/knapen_AOT/AOT_stimuli/pictures/0811_fw.png	260.17649698257446	
122	150.01028513908386	picture	0		116	120.0	/experiments/knapen_AOT/AOT_stimuli/pictures/0261_fw.png	260.2265260219574	1.0082130432128906
122	150.96868109703064	response	0	j		120.0	/experiments/knapen_AOT/AOT_stimuli/pictures/0261_fw.png	261.1849219799042	
123	151.01849818229675	picture	0		118	121.0	/experiments/knapen_AOT/AOT_stimuli/pictures/0150_fw.png	261.2347390651703	1.0583670139312744
123	151.9936580657959	response	0	k		121.0	/experiments/knapen_AOT/AOT_stimuli/pictures/0150_fw.png	262.20989894866943	
124	152.07686519622803	picture	0		122	122.0	/experiments/knapen_AOT/AOT_stimuli/pictures/1245_fw.png	262.29310607910156	1.0666539669036865
124	153.08533811569214	response	0	j		122.0	/experiments/knapen_AOT/AOT_stimuli/pictures/1245_fw.png	263.3015789985657	
125	153.1435191631317	picture	0		103	123.0	/experiments/knapen_AOT/AOT_stimuli/pictures/1154_fw.png	263.35976004600525	0.9083750247955322
125	153.99368715286255	response	0	j		123.0	/experiments/knapen_AOT/AOT_stimuli/pictures/1154_fw.png	264.2099280357361	
126	154.05189418792725	picture	0		211	124.0	/experiments/knapen_AOT/AOT_stimuli/pictures/0971_fw.png	264.2681350708008	1.7917029857635498
126	155.80209302902222	response	0	j		124.0	/experiments/knapen_AOT/AOT_stimuli/pictures/0971_fw.png	266.01833391189575	
127	155.8435971736908	picture	0		169	125.0	/experiments/knapen_AOT/AOT_stimuli/pictures/1754_fw.png	266.05983805656433	1.4333398342132568
127	157.23703122138977	response	0	k		125.0	/experiments/knapen_AOT/AOT_stimuli/pictures/1754_fw.png	267.4532721042633	
128	157.27693700790405	picture	0		137	126.0	/experiments/knapen_AOT/AOT_stimuli/pictures/1702_fw.png	267.4931778907776	1.2779371738433838
128	158.41053318977356	response	0	j		126.0	/experiments/knapen_AOT/AOT_stimuli/pictures/1702_fw.png	268.6267740726471	
129	158.55487418174744	picture	0		109	127.0	/experiments/knapen_AOT/AOT_stimuli/pictures/1329_fw.png	268.771115064621	0.9305779933929443
129	159.44532299041748	response	0	j		127.0	/experiments/knapen_AOT/AOT_stimuli/pictures/1329_fw.png	269.661563873291	
130	159.48545217514038	picture	0		143	128.0	/experiments/knapen_AOT/AOT_stimuli/pictures/0516_fw.png	269.7016930580139	1.2248220443725586
130	160.66874814033508	response	0	k		128.0	/experiments/knapen_AOT/AOT_stimuli/pictures/0516_fw.png	270.8849890232086	
131	160.71027421951294	picture	0		169	129.0	/experiments/knapen_AOT/AOT_stimuli/pictures/0830_fw.png	270.9265151023865	1.4583988189697266
131	162.11057710647583	response	0	j		129.0	/experiments/knapen_AOT/AOT_stimuli/pictures/0830_fw.png	272.32681798934937	
132	162.16867303848267	picture	0		172	130.0	/experiments/knapen_AOT/AOT_stimuli/pictures/0211_fw.png	272.3849139213562	1.4667179584503174
132	163.59385919570923	response	0	k		130.0	/experiments/knapen_AOT/AOT_stimuli/pictures/0211_fw.png	273.81010007858276	
133	163.63539099693298	picture	0		141	131.0	/experiments/knapen_AOT/AOT_stimuli/pictures/0361_fw.png	273.8516318798065	1.2082910537719727
133	164.80218315124512	response	0	k		131.0	/experiments/knapen_AOT/AOT_stimuli/pictures/0361_fw.png	275.01842403411865	
134	164.84368205070496	picture	0		92	132.0	/experiments/knapen_AOT/AOT_stimuli/pictures/1143_fw.png	275.0599229335785	0.7946939468383789
134	165.60221004486084	response	0	j		132.0	/experiments/knapen_AOT/AOT_stimuli/pictures/1143_fw.png	275.8184509277344	
135	165.63837599754333	picture	0		94	133.0	/experiments/knapen_AOT/AOT_stimuli/pictures/2043_fw.png	275.85461688041687	0.8219962120056152
135	166.41061305999756	response	0	j		133.0	/experiments/knapen_AOT/AOT_stimuli/pictures/2043_fw.png	276.6268539428711	
136	166.46037220954895	picture	0		118	134.0	/experiments/knapen_AOT/AOT_stimuli/pictures/0277_fw.png	276.6766130924225	1.0333359241485596
136	167.4286651611328	response	0	k		134.0	/experiments/knapen_AOT/AOT_stimuli/pictures/0277_fw.png	277.64490604400635	
137	167.4937081336975	picture	0		116	135.0	/experiments/knapen_AOT/AOT_stimuli/pictures/1842_fw.png	277.70994901657104	1.019700050354004
137	168.44557905197144	response	0	k		135.0	/experiments/knapen_AOT/AOT_stimuli/pictures/1842_fw.png	278.66181993484497	
138	168.5134081840515	picture	0		110	136.0	/experiments/knapen_AOT/AOT_stimuli/pictures/1500_fw.png	278.72964906692505	0.9304049015045166
138	169.4124321937561	response	0	j		136.0	/experiments/knapen_AOT/AOT_stimuli/pictures/1500_fw.png	279.62867307662964	
139	169.44381308555603	picture	0		132	137.0	/experiments/knapen_AOT/AOT_stimuli/pictures/0725_fw.png	279.66005396842957	1.1333909034729004
139	170.53571319580078	response	0	j		137.0	/experiments/knapen_AOT/AOT_stimuli/pictures/0725_fw.png	280.7519540786743	
140	170.57720398902893	picture	0		151	138.0	/experiments/knapen_AOT/AOT_stimuli/pictures/0823_fw.png	280.79344487190247	1.3665850162506104
140	171.82059502601624	response	0	k		138.0	/experiments/knapen_AOT/AOT_stimuli/pictures/0823_fw.png	282.03683590888977	
141	171.94378900527954	picture	0		121	139.0	/experiments/knapen_AOT/AOT_stimuli/pictures/0300_fw.png	282.1600298881531	1.0418541431427002
141	172.9440450668335	response	0	k		139.0	/experiments/knapen_AOT/AOT_stimuli/pictures/0300_fw.png	283.16028594970703	
142	172.98564314842224	picture	0		156	140.0	/experiments/knapen_AOT/AOT_stimuli/pictures/2075_fw.png	283.2018840312958	1.3262898921966553
142	174.2773871421814	response	0	j		140.0	/experiments/knapen_AOT/AOT_stimuli/pictures/2075_fw.png	284.49362802505493	
143	174.3119330406189	picture	0		133	141.0	/experiments/knapen_AOT/AOT_stimuli/pictures/1189_fw.png	284.52817392349243	1.2569890022277832
143	175.41078209877014	response	0	k		141.0	/experiments/knapen_AOT/AOT_stimuli/pictures/1189_fw.png	285.6270229816437	
144	175.56892204284668	picture	0		197	142.0	/experiments/knapen_AOT/AOT_stimuli/pictures/1794_fw.png	285.7851629257202	1.724912166595459
144	177.20243310928345	response	0	j		142.0	/experiments/knapen_AOT/AOT_stimuli/pictures/1794_fw.png	287.418673992157	
145	177.29383420944214	picture	0		130	143.0	/experiments/knapen_AOT/AOT_stimuli/pictures/0757_fw.png	287.5100750923157	1.1168889999389648
145	178.3689730167389	response	0	k		143.0	/experiments/knapen_AOT/AOT_stimuli/pictures/0757_fw.png	288.5852138996124	
146	178.4107232093811	picture	0		170	144.0	/experiments/knapen_AOT/AOT_stimuli/pictures/1749_fw.png	288.62696409225464	1.5331389904022217
146	179.81899118423462	response	0	j		144.0	/experiments/knapen_AOT/AOT_stimuli/pictures/1749_fw.png	290.03523206710815	
147	179.94386219978333	picture	0		113	145.0	/experiments/knapen_AOT/AOT_stimuli/pictures/1820_fw.png	290.16010308265686	0.9931027889251709
147	180.87734508514404	response	0	j		145.0	/experiments/knapen_AOT/AOT_stimuli/pictures/1820_fw.png	291.0935859680176	
148	180.9369649887085	picture	0		118	146.0	/experiments/knapen_AOT/AOT_stimuli/pictures/0512_fw.png	291.15320587158203	1.0070431232452393
148	181.9107530117035	response	0	j		146.0	/experiments/knapen_AOT/AOT_stimuli/pictures/0512_fw.png	292.126993894577	
149	181.94400811195374	picture	0		159	147.0	/experiments/knapen_AOT/AOT_stimuli/pictures/1609_fw.png	292.16024899482727	1.358314037322998
149	183.2538321018219	response	0	k		147.0	/experiments/knapen_AOT/AOT_stimuli/pictures/1609_fw.png	293.47007298469543	
150	183.30232214927673	picture	0		103	148.0	/experiments/knapen_AOT/AOT_stimuli/pictures/1075_fw.png	293.51856303215027	0.8847060203552246
150	184.15249109268188	response	0	k		148.0	/experiments/knapen_AOT/AOT_stimuli/pictures/1075_fw.png	294.3687319755554	
151	184.18702816963196	picture	0		126	149.0	/experiments/knapen_AOT/AOT_stimuli/pictures/0845_fw.png	294.4032690525055	1.081955909729004
151	185.22752809524536	response	0	k		149.0	/experiments/knapen_AOT/AOT_stimuli/pictures/0845_fw.png	295.4437689781189	
152	185.26898407936096	picture	0		145	150.0	/experiments/knapen_AOT/AOT_stimuli/pictures/0105_fw.png	295.4852249622345	1.2332820892333984
152	186.46910500526428	response	0	k		150.0	/experiments/knapen_AOT/AOT_stimuli/pictures/0105_fw.png	296.6853458881378	
153	186.50226616859436	picture	0		120	151.0	/experiments/knapen_AOT/AOT_stimuli/pictures/1073_fw.png	296.7185070514679	1.0250840187072754
153	187.49410319328308	response	0	k		151.0	/experiments/knapen_AOT/AOT_stimuli/pictures/1073_fw.png	297.7103440761566	
154	187.52735018730164	picture	0		151	152.0	/experiments/knapen_AOT/AOT_stimuli/pictures/1544_fw.png	297.74359107017517	1.3124628067016602
154	188.7776391506195	response	0	j		152.0	/experiments/knapen_AOT/AOT_stimuli/pictures/1544_fw.png	298.99388003349304	
155	188.8398129940033	picture	0		107	153.0	/experiments/knapen_AOT/AOT_stimuli/pictures/0466_fw.png	299.05605387687683	0.9292111396789551
155	189.71916103363037	response	0	k		153.0	/experiments/knapen_AOT/AOT_stimuli/pictures/0466_fw.png	299.9354019165039	
156	189.76902413368225	picture	0		132	154.0	/experiments/knapen_AOT/AOT_stimuli/pictures/0868_fw.png	299.9852650165558	1.1666929721832275
156	190.86088919639587	response	0	j		154.0	/experiments/knapen_AOT/AOT_stimuli/pictures/0868_fw.png	301.0771300792694	
157	190.93571710586548	picture	0		142	155.0	/experiments/knapen_AOT/AOT_stimuli/pictures/0940_fw.png	301.151957988739	1.2097289562225342
157	192.11092901229858	response	0	j		155.0	/experiments/knapen_AOT/AOT_stimuli/pictures/0940_fw.png	302.3271698951721	
158	192.145446062088	picture	0		111	156.0	/experiments/knapen_AOT/AOT_stimuli/pictures/0783_fw.png	302.36168694496155	0.9513571262359619
158	193.06083512306213	response	0	j		156.0	/experiments/knapen_AOT/AOT_stimuli/pictures/0783_fw.png	303.27707600593567	
159	193.09680318832397	picture	0		238	157.0	/experiments/knapen_AOT/AOT_stimuli/pictures/2066_fw.png	303.3130440711975	2.0069198608398438
159	195.06917905807495	response	0	k		157.0	/experiments/knapen_AOT/AOT_stimuli/pictures/2066_fw.png	305.2854199409485	
160	195.10372304916382	picture	0		121	158.0	/experiments/knapen_AOT/AOT_stimuli/pictures/1838_fw.png	305.31996393203735	1.0349090099334717
160	196.10258507728577	response	0	j		158.0	/experiments/knapen_AOT/AOT_stimuli/pictures/1838_fw.png	306.3188259601593	
161	196.1386320590973	picture	0		116	159.0	/experiments/knapen_AOT/AOT_stimuli/pictures/0012_fw.png	306.3548729419708	0.9887890815734863
161	197.0942940711975	response	0	k		159.0	/experiments/knapen_AOT/AOT_stimuli/pictures/0012_fw.png	307.31053495407104	
162	197.12742114067078	picture	0		139	160.0	/experiments/knapen_AOT/AOT_stimuli/pictures/0425_fw.png	307.3436620235443	1.184743881225586
162	198.27766513824463	response	0	j		160.0	/experiments/knapen_AOT/AOT_stimuli/pictures/0425_fw.png	308.49390602111816	
163	198.31216502189636	picture	0		109	161.0	/experiments/knapen_AOT/AOT_stimuli/pictures/2058_fw.png	308.5284059047699	0.9237020015716553
163	199.21089506149292	response	0	k		161.0	/experiments/knapen_AOT/AOT_stimuli/pictures/2058_fw.png	309.42713594436646	
164	199.23586702346802	picture	0		115	162.0	/experiments/knapen_AOT/AOT_stimuli/pictures/0841_fw.png	309.45210790634155	1.0763421058654785
164	200.18595504760742	response	0	k		162.0	/experiments/knapen_AOT/AOT_stimuli/pictures/0841_fw.png	310.40219593048096	
165	200.3122091293335	picture	0		94	163.0	/experiments/knapen_AOT/AOT_stimuli/pictures/2004_fw.png	310.52845001220703	0.7987070083618164
165	201.08590602874756	response	0	k		163.0	/experiments/knapen_AOT/AOT_stimuli/pictures/2004_fw.png	311.3021469116211	
166	201.1109161376953	picture	0		157	164.0	/experiments/knapen_AOT/AOT_stimuli/pictures/1799_fw.png	311.32715702056885	1.3332750797271729
166	202.4109890460968	response	0	k		164.0	/experiments/knapen_AOT/AOT_stimuli/pictures/1799_fw.png	312.62722992897034	
167	202.44419121742249	picture	0		105	165.0	/experiments/knapen_AOT/AOT_stimuli/pictures/0916_fw.png	312.660432100296	0.9166429042816162
167	203.31096506118774	response	0	j		165.0	/experiments/knapen_AOT/AOT_stimuli/pictures/0916_fw.png	313.5272059440613	
168	203.3608341217041	picture	0		95	166.0	/experiments/knapen_AOT/AOT_stimuli/pictures/0257_fw.png	313.57707500457764	0.8264100551605225
168	204.1443691253662	response	0	j		166.0	/experiments/knapen_AOT/AOT_stimuli/pictures/0257_fw.png	314.36061000823975	
169	204.18724417686462	picture	0		206	167.0	/experiments/knapen_AOT/AOT_stimuli/pictures/0838_fw.png	314.40348505973816	1.7486279010772705
169	205.8943510055542	response	0	k		167.0	/experiments/knapen_AOT/AOT_stimuli/pictures/0838_fw.png	316.11059188842773	
170	205.9358720779419	picture	0		121	168.0	/experiments/knapen_AOT/AOT_stimuli/pictures/0309_fw.png	316.15211296081543	1.0360119342803955
170	206.93600010871887	response	0	k		168.0	/experiments/knapen_AOT/AOT_stimuli/pictures/0309_fw.png	317.1522409915924	
171	206.9718840122223	picture	0		87	169.0	/experiments/knapen_AOT/AOT_stimuli/pictures/0024_fw.png	317.1881248950958	0.7500150203704834
171	207.68602514266968	response	0	j		169.0	/experiments/knapen_AOT/AOT_stimuli/pictures/0024_fw.png	317.9022660255432	
172	207.72189903259277	picture	0		94	170.0	/experiments/knapen_AOT/AOT_stimuli/pictures/1826_fw.png	317.9381399154663	0.8056559562683105
172	208.4944941997528	response	0	j		170.0	/experiments/knapen_AOT/AOT_stimuli/pictures/1826_fw.png	318.71073508262634	
173	208.52755498886108	picture	0		98	171.0	/experiments/knapen_AOT/AOT_stimuli/pictures/0613_fw.png	318.7437958717346	0.841698169708252
173	209.3360311985016	response	0	k		171.0	/experiments/knapen_AOT/AOT_stimuli/pictures/0613_fw.png	319.5522720813751	
174	209.36925315856934	picture	0		104	172.0	/experiments/knapen_AOT/AOT_stimuli/pictures/1846_fw.png	319.58549404144287	0.9584219455718994
174	210.22085618972778	response	0	k		172.0	/experiments/knapen_AOT/AOT_stimuli/pictures/1846_fw.png	320.4370970726013	
175	210.32767510414124	picture	0		119	173.0	/experiments/knapen_AOT/AOT_stimuli/pictures/1790_fw.png	320.54391598701477	1.1582520008087158
175	211.31114220619202	response	0	j		173.0	/experiments/knapen_AOT/AOT_stimuli/pictures/1790_fw.png	321.52738308906555	
176	211.48592710494995	picture	0		128	174.0	/experiments/knapen_AOT/AOT_stimuli/pictures/1730_fw.png	321.7021679878235	1.1250109672546387
176	212.57783317565918	response	0	j		174.0	/experiments/knapen_AOT/AOT_stimuli/pictures/1730_fw.png	322.7940740585327	
177	212.6109380722046	picture	0		112	175.0	/experiments/knapen_AOT/AOT_stimuli/pictures/0353_fw.png	322.8271789550781	0.958428144454956
177	213.53617000579834	response	0	j		175.0	/experiments/knapen_AOT/AOT_stimuli/pictures/0353_fw.png	323.7524108886719	
178	213.56936621665955	picture	0		117	176.0	/experiments/knapen_AOT/AOT_stimuli/pictures/0729_fw.png	323.7856070995331	0.9999289512634277
178	214.53617811203003	response	0	k		176.0	/experiments/knapen_AOT/AOT_stimuli/pictures/0729_fw.png	324.75241899490356	
179	214.56929516792297	picture	0		182	177.0	/experiments/knapen_AOT/AOT_stimuli/pictures/1765_fw.png	324.7855360507965	1.6667449474334717
179	216.07792401313782	response	0	k		177.0	/experiments/knapen_AOT/AOT_stimuli/pictures/1765_fw.png	326.29416489601135	
180	216.23604011535645	picture	0		93	178.0	/experiments/knapen_AOT/AOT_stimuli/pictures/1068_fw.png	326.45228099823	0.8084089756011963
180	217.00281310081482	response	0	k		178.0	/experiments/knapen_AOT/AOT_stimuli/pictures/1068_fw.png	327.21905398368835	
181	217.04444909095764	picture	0		223	179.0	/experiments/knapen_AOT/AOT_stimuli/pictures/0081_fw.png	327.2606899738312	1.9083189964294434
181	218.8945541381836	response	0	k		179.0	/experiments/knapen_AOT/AOT_stimuli/pictures/0081_fw.png	329.11079502105713	
182	218.95276808738708	picture	0		167	180.0	/experiments/knapen_AOT/AOT_stimuli/pictures/0215_fw.png	329.1690089702606	1.4499449729919434
182	220.33640599250793	response	0	k		180.0	/experiments/knapen_AOT/AOT_stimuli/pictures/0215_fw.png	330.55264687538147	
183	220.40271306037903	picture	0		84	181.0	/experiments/knapen_AOT/AOT_stimuli/pictures/1699_fw.png	330.61895394325256	0.7429399490356445
183	221.0945680141449	response	0	j		181.0	/experiments/knapen_AOT/AOT_stimuli/pictures/1699_fw.png	331.31080889701843	
184	221.14565300941467	picture	0		93	182.0	/experiments/knapen_AOT/AOT_stimuli/pictures/0201_fw.png	331.3618938922882	0.7987790107727051
184	221.9112331867218	response	0	j		182.0	/experiments/knapen_AOT/AOT_stimuli/pictures/0201_fw.png	332.12747406959534	
185	221.94443202018738	picture	0		105	183.0	/experiments/knapen_AOT/AOT_stimuli/pictures/2143_fw.png	332.1606729030609	0.9083430767059326
185	222.8112771511078	response	0	k		183.0	/experiments/knapen_AOT/AOT_stimuli/pictures/2143_fw.png	333.0275180339813	
186	222.8527750968933	picture	0		142	184.0	/experiments/knapen_AOT/AOT_stimuli/pictures/0452_fw.png	333.06901597976685	1.2374370098114014
186	224.02130699157715	response	0	k		184.0	/experiments/knapen_AOT/AOT_stimuli/pictures/0452_fw.png	334.2375478744507	
187	224.0902121067047	picture	0		106	185.0	/experiments/knapen_AOT/AOT_stimuli/pictures/1009_fw.png	334.30645298957825	0.9375660419464111
187	224.9695930480957	response	0	j		185.0	/experiments/knapen_AOT/AOT_stimuli/pictures/1009_fw.png	335.18583393096924	
188	225.02777814865112	picture	0		116	186.0	/experiments/knapen_AOT/AOT_stimuli/pictures/1546_fw.png	335.24401903152466	1.000011920928955
188	225.98625206947327	response	0	j		186.0	/experiments/knapen_AOT/AOT_stimuli/pictures/1546_fw.png	336.2024929523468	
189	226.02779006958008	picture	0		108	187.0	/experiments/knapen_AOT/AOT_stimuli/pictures/1688_fw.png	336.2440309524536	0.9373779296875
189	226.9196240901947	response	0	j		187.0	/experiments/knapen_AOT/AOT_stimuli/pictures/1688_fw.png	337.13586497306824	
190	226.96516799926758	picture	0		150	188.0	/experiments/knapen_AOT/AOT_stimuli/pictures/1464_fw.png	337.1814088821411	1.270970106124878
190	228.20298600196838	response	0	j		188.0	/experiments/knapen_AOT/AOT_stimuli/pictures/1464_fw.png	338.4192268848419	
191	228.23613810539246	picture	0		115	189.0	/experiments/knapen_AOT/AOT_stimuli/pictures/0050_fw.png	338.452378988266	1.0000150203704834
191	229.186368227005	response	0	k		189.0	/experiments/knapen_AOT/AOT_stimuli/pictures/0050_fw.png	339.40260910987854	
192	229.23615312576294	picture	0		112	190.0	/experiments/knapen_AOT/AOT_stimuli/pictures/2114_fw.png	339.4523940086365	0.9513258934020996
192	230.16146206855774	response	0	j		190.0	/experiments/knapen_AOT/AOT_stimuli/pictures/2114_fw.png	340.3777029514313	
193	230.18747901916504	picture	0		176	191.0	/experiments/knapen_AOT/AOT_stimuli/pictures/0625_fw.png	340.4037199020386	1.4998860359191895
193	231.63802909851074	response	0	j		191.0	/experiments/knapen_AOT/AOT_stimuli/pictures/0625_fw.png	341.8542699813843	
194	231.68736505508423	picture	0		110	192.0	/experiments/knapen_AOT/AOT_stimuli/pictures/1958_fw.png	341.90360593795776	0.9931910037994385
194	232.59470915794373	response	0	j		192.0	/experiments/knapen_AOT/AOT_stimuli/pictures/1958_fw.png	342.81095004081726	
195	232.68055605888367	picture	0		95	193.0	/experiments/knapen_AOT/AOT_stimuli/pictures/1741_fw.png	342.8967969417572	0.8402190208435059
195	233.45451617240906	response	0	k		193.0	/experiments/knapen_AOT/AOT_stimuli/pictures/1741_fw.png	343.6707570552826	
196	233.52077507972717	picture	0		113	194.0	/experiments/knapen_AOT/AOT_stimuli/pictures/0311_fw.png	343.7370159626007	0.9654450416564941
196	234.4462730884552	response	0	j		194.0	/experiments/knapen_AOT/AOT_stimuli/pictures/0311_fw.png	344.66251397132874	
197	234.48622012138367	picture	0		110	195.0	/experiments/knapen_AOT/AOT_stimuli/pictures/0955_fw.png	344.7024610042572	0.9441390037536621
197	235.3948290348053	response	0	j		195.0	/experiments/knapen_AOT/AOT_stimuli/pictures/0955_fw.png	345.61106991767883	
198	235.43035912513733	picture	0		100	196.0	/experiments/knapen_AOT/AOT_stimuli/pictures/0266_fw.png	345.64660000801086	0.85589599609375
198	236.24633812904358	response	0	k		196.0	/experiments/knapen_AOT/AOT_stimuli/pictures/0266_fw.png	346.4625790119171	
199	236.28625512123108	picture	0		134	197.0	/experiments/knapen_AOT/AOT_stimuli/pictures/1322_fw.png	346.5024960041046	1.1371989250183105
199	237.39488101005554	response	0	j		197.0	/experiments/knapen_AOT/AOT_stimuli/pictures/1322_fw.png	347.6111218929291	
200	237.4234540462494	picture	0		111	198.0	/experiments/knapen_AOT/AOT_stimuli/pictures/1379_fw.png	347.6396949291229	0.9513700008392334
200	238.33656811714172	response	0	k		198.0	/experiments/knapen_AOT/AOT_stimuli/pictures/1379_fw.png	348.55280900001526	
201	238.37482404708862	picture	0		274	199.0	/experiments/knapen_AOT/AOT_stimuli/pictures/0038_fw.png	348.59106492996216	2.3615541458129883
201	240.64643120765686	response	0	j		199.0	/experiments/knapen_AOT/AOT_stimuli/pictures/0038_fw.png	350.8626720905304	
202	240.7363781929016	picture	0		108	200.0	/experiments/knapen_AOT/AOT_stimuli/pictures/0138_fw.png	350.95261907577515	0.9416518211364746
202	241.62140822410583	response	0	j		200.0	/experiments/knapen_AOT/AOT_stimuli/pictures/0138_fw.png	351.83764910697937	
203	241.6780300140381	picture	0		152	201.0	/experiments/knapen_AOT/AOT_stimuli/pictures/0155_fw.png	351.8942708969116	1.3704960346221924
203	242.9366331100464	response	0	k		201.0	/experiments/knapen_AOT/AOT_stimuli/pictures/0155_fw.png	353.1528739929199	
204	243.04852604866028	picture	0		152	202.0	/experiments/knapen_AOT/AOT_stimuli/pictures/1358_fw.png	353.2647669315338	1.4045960903167725
204	244.3032522201538	response	0	j		202.0	/experiments/knapen_AOT/AOT_stimuli/pictures/1358_fw.png	354.51949310302734	
205	244.45312213897705	picture	0		117	203.0	/experiments/knapen_AOT/AOT_stimuli/pictures/0910_fw.png	354.6693630218506	1.0259339809417725
205	245.41992902755737	response	0	j		203.0	/experiments/knapen_AOT/AOT_stimuli/pictures/0910_fw.png	355.6361699104309	
206	245.47905611991882	picture	0		117	204.0	/experiments/knapen_AOT/AOT_stimuli/pictures/1218_fw.png	355.69529700279236	1.0000479221343994
206	246.4381492137909	response	0	k		204.0	/experiments/knapen_AOT/AOT_stimuli/pictures/1218_fw.png	356.65439009666443	
207	246.47910404205322	picture	0		123	205.0	/experiments/knapen_AOT/AOT_stimuli/pictures/0782_fw.png	356.69534492492676	1.048980951309204
207	247.49490404129028	response	0	k		205.0	/experiments/knapen_AOT/AOT_stimuli/pictures/0782_fw.png	357.7111449241638	
208	247.52808499336243	picture	0		129	206.0	/experiments/knapen_AOT/AOT_stimuli/pictures/1937_fw.png	357.74432587623596	1.1037561893463135
208	248.59491419792175	response	0	k		206.0	/experiments/knapen_AOT/AOT_stimuli/pictures/1937_fw.png	358.8111550807953	
209	248.63184118270874	picture	0		111	207.0	/experiments/knapen_AOT/AOT_stimuli/pictures/1460_fw.png	358.8480820655823	0.9513988494873047
209	249.54492020606995	response	0	k		207.0	/experiments/knapen_AOT/AOT_stimuli/pictures/1460_fw.png	359.7611610889435	
210	249.58324003219604	picture	0		96	208.0	/experiments/knapen_AOT/AOT_stimuli/pictures/1867_fw.png	359.7994809150696	0.8403210639953613
210	250.3783140182495	response	0	j		208.0	/experiments/knapen_AOT/AOT_stimuli/pictures/1867_fw.png	360.59455490112305	
211	250.4235610961914	picture	0		91	209.0	/experiments/knapen_AOT/AOT_stimuli/pictures/1885_fw.png	360.63980197906494	0.7962360382080078
211	251.16992807388306	response	0	j		209.0	/experiments/knapen_AOT/AOT_stimuli/pictures/1885_fw.png	361.3861689567566	
212	251.2197971343994	picture	0		102	210.0	/experiments/knapen_AOT/AOT_stimuli/pictures/1629_fw.png	361.43603801727295	0.8750050067901611
212	252.0547502040863	response	0	k		210.0	/experiments/knapen_AOT/AOT_stimuli/pictures/1629_fw.png	362.27099108695984	
213	252.09480214118958	picture	0		170	211.0	/experiments/knapen_AOT/AOT_stimuli/pictures/1372_fw.png	362.3110430240631	1.4677848815917969
213	253.50332617759705	response	0	k		211.0	/experiments/knapen_AOT/AOT_stimuli/pictures/1372_fw.png	363.7195670604706	
214	253.56258702278137	picture	0		117	212.0	/experiments/knapen_AOT/AOT_stimuli/pictures/1113_fw.png	363.7788279056549	1.5072541236877441
214	254.52835822105408	response	0	j		212.0	/experiments/knapen_AOT/AOT_stimuli/pictures/1113_fw.png	364.7445991039276	
215	255.06984114646912	picture	0		210	213.0	/experiments/knapen_AOT/AOT_stimuli/pictures/0535_fw.png	365.28608202934265	1.783423900604248
215	256.8118190765381	response	0	k		213.0	/experiments/knapen_AOT/AOT_stimuli/pictures/0535_fw.png	367.0280599594116	
216	256.85326504707336	picture	0		162	214.0	/experiments/knapen_AOT/AOT_stimuli/pictures/1961_fw.png	367.0695059299469	1.3750131130218506
216	258.1950511932373	response	0	j		214.0	/experiments/knapen_AOT/AOT_stimuli/pictures/1961_fw.png	368.41129207611084	
217	258.2282781600952	picture	0		114	215.0	/experiments/knapen_AOT/AOT_stimuli/pictures/1470_fw.png	368.44451904296875	0.9916658401489258
217	259.17008209228516	response	0	k		215.0	/experiments/knapen_AOT/AOT_stimuli/pictures/1470_fw.png	369.3863229751587	
218	259.21994400024414	picture	0		142	216.0	/experiments/knapen_AOT/AOT_stimuli/pictures/1496_fw.png	369.4361848831177	1.21756911277771
218	260.39506316185	response	0	k		216.0	/experiments/knapen_AOT/AOT_stimuli/pictures/1496_fw.png	370.6113040447235	
219	260.43751311302185	picture	0		103	217.0	/experiments/knapen_AOT/AOT_stimuli/pictures/2042_fw.png	370.6537539958954	0.8990950584411621
219	261.2867991924286	response	0	k		217.0	/experiments/knapen_AOT/AOT_stimuli/pictures/2042_fw.png	371.5030400753021	
220	261.336608171463	picture	0		119	218.0	/experiments/knapen_AOT/AOT_stimuli/pictures/0154_fw.png	371.55284905433655	1.0249919891357422
220	262.3202021121979	response	0	j		218.0	/experiments/knapen_AOT/AOT_stimuli/pictures/0154_fw.png	372.5364429950714	
221	262.36160016059875	picture	0		118	219.0	/experiments/knapen_AOT/AOT_stimuli/pictures/1054_fw.png	372.5778410434723	1.0167150497436523
221	263.3367872238159	response	0	k		219.0	/experiments/knapen_AOT/AOT_stimuli/pictures/1054_fw.png	373.55302810668945	
222	263.3783152103424	picture	0		130	220.0	/experiments/knapen_AOT/AOT_stimuli/pictures/1315_fw.png	373.59455609321594	1.121757984161377
222	264.4536521434784	response	0	k		220.0	/experiments/knapen_AOT/AOT_stimuli/pictures/1315_fw.png	374.66989302635193	
223	264.5000731945038	picture	0		108	221.0	/experiments/knapen_AOT/AOT_stimuli/pictures/0740_fw.png	374.7163140773773	0.9305129051208496
223	265.3952422142029	response	0	k		221.0	/experiments/knapen_AOT/AOT_stimuli/pictures/0740_fw.png	375.6114830970764	
224	265.43058609962463	picture	0		237	222.0	/experiments/knapen_AOT/AOT_stimuli/pictures/1524_fw.png	375.64682698249817	2.0061070919036865
224	267.3952901363373	response	0	k		222.0	/experiments/knapen_AOT/AOT_stimuli/pictures/1524_fw.png	377.6115310192108	
225	267.4366931915283	picture	0		112	223.0	/experiments/knapen_AOT/AOT_stimuli/pictures/1554_fw.png	377.65293407440186	0.9833848476409912
225	268.3619201183319	response	0	k		223.0	/experiments/knapen_AOT/AOT_stimuli/pictures/1554_fw.png	378.57816100120544	
226	268.4200780391693	picture	0		109	224.0	/experiments/knapen_AOT/AOT_stimuli/pictures/1775_fw.png	378.63631892204285	0.9832801818847656
226	269.3202381134033	response	0	j		224.0	/experiments/knapen_AOT/AOT_stimuli/pictures/1775_fw.png	379.53647899627686	
227	269.4033582210541	picture	0		146	225.0	/experiments/knapen_AOT/AOT_stimuli/pictures/0125_fw.png	379.6195991039276	1.2356109619140625
227	270.6119031906128	response	0	k		225.0	/experiments/knapen_AOT/AOT_stimuli/pictures/0125_fw.png	380.8281440734863	
228	270.63896918296814	picture	0		93	226.0	/experiments/knapen_AOT/AOT_stimuli/pictures/1170_fw.png	380.8552100658417	0.8060958385467529
228	271.4035310745239	response	0	j		226.0	/experiments/knapen_AOT/AOT_stimuli/pictures/1170_fw.png	381.61977195739746	
229	271.4450650215149	picture	0		111	227.0	/experiments/knapen_AOT/AOT_stimuli/pictures/0968_fw.png	381.6613059043884	0.9508471488952637
229	272.36203813552856	response	0	k		227.0	/experiments/knapen_AOT/AOT_stimuli/pictures/0968_fw.png	382.5782790184021	
230	272.39591217041016	picture	0		134	228.0	/experiments/knapen_AOT/AOT_stimuli/pictures/2052_fw.png	382.6121530532837	1.1491918563842773
230	273.5036301612854	response	0	j		228.0	/experiments/knapen_AOT/AOT_stimuli/pictures/2052_fw.png	383.71987104415894	
231	273.54510402679443	picture	0		142	229.0	/experiments/knapen_AOT/AOT_stimuli/pictures/0090_fw.png	383.76134490966797	1.2166709899902344
231	274.72033500671387	response	0	k		229.0	/experiments/knapen_AOT/AOT_stimuli/pictures/0090_fw.png	384.9365758895874	
232	274.76177501678467	picture	0		118	230.0	/experiments/knapen_AOT/AOT_stimuli/pictures/0839_fw.png	384.9780158996582	1.8250391483306885
232	275.7370331287384	response	0	j		230.0	/experiments/knapen_AOT/AOT_stimuli/pictures/0839_fw.png	385.95327401161194	
233	276.58681416511536	picture	0		81	231.0	/experiments/knapen_AOT/AOT_stimuli/pictures/0792_fw.png	386.8030550479889	0.7500009536743164
233	277.24700808525085	response	0	j		231.0	/experiments/knapen_AOT/AOT_stimuli/pictures/0792_fw.png	387.4632489681244	
234	277.3368151187897	picture	0		89	232.0	/experiments/knapen_AOT/AOT_stimuli/pictures/2161_fw.png	387.5530560016632	0.7675859928131104
234	278.0703561306	response	0	k		232.0	/experiments/knapen_AOT/AOT_stimuli/pictures/2161_fw.png	388.2865970134735	
235	278.1044011116028	picture	0		151	233.0	/experiments/knapen_AOT/AOT_stimuli/pictures/1104_fw.png	388.3206419944763	1.2846601009368896
235	279.3537139892578	response	0	k		233.0	/experiments/knapen_AOT/AOT_stimuli/pictures/1104_fw.png	389.56995487213135	
236	279.3890612125397	picture	0		130	234.0	/experiments/knapen_AOT/AOT_stimuli/pictures/1317_fw.png	389.6053020954132	1.1061248779296875
236	280.46196818351746	response	0	k		234.0	/experiments/knapen_AOT/AOT_stimuli/pictures/1317_fw.png	390.678209066391	
237	280.49518609046936	picture	0		104	235.0	/experiments/knapen_AOT/AOT_stimuli/pictures/1410_fw.png	390.7114269733429	0.8833379745483398
237	281.3537700176239	response	0	j		235.0	/experiments/knapen_AOT/AOT_stimuli/pictures/1410_fw.png	391.57001090049744	
238	281.3785240650177	picture	0		156	236.0	/experiments/knapen_AOT/AOT_stimuli/pictures/1461_fw.png	391.59476494789124	1.3250019550323486
238	282.6704771518707	response	0	k		236.0	/experiments/knapen_AOT/AOT_stimuli/pictures/1461_fw.png	392.88671803474426	
239	282.70352602005005	picture	0		108	237.0	/experiments/knapen_AOT/AOT_stimuli/pictures/1273_fw.png	392.9197669029236	0.9250161647796631
239	283.5954930782318	response	0	k		237.0	/experiments/knapen_AOT/AOT_stimuli/pictures/1273_fw.png	393.81173396110535	
240	283.6285421848297	picture	0		174	238.0	/experiments/knapen_AOT/AOT_stimuli/pictures/1729_fw.png	393.84478306770325	1.4759588241577148
240	285.0704870223999	response	0	j		238.0	/experiments/knapen_AOT/AOT_stimuli/pictures/1729_fw.png	395.28672790527344	
241	285.1045010089874	picture	0		104	239.0	/experiments/knapen_AOT/AOT_stimuli/pictures/0152_fw.png	395.32074189186096	0.8907561302185059
241	285.9621000289917	response	0	k		239.0	/experiments/knapen_AOT/AOT_stimuli/pictures/0152_fw.png	396.17834091186523	
242	285.99525713920593	picture	0		132	240.0	/experiments/knapen_AOT/AOT_stimuli/pictures/0001_fw.png	396.21149802207947	1.1251220703125
242	287.0870840549469	response	0	k		240.0	/experiments/knapen_AOT/AOT_stimuli/pictures/0001_fw.png	397.30332493782043	
243	287.12037920951843	picture	0		157	241.0	/experiments/knapen_AOT/AOT_stimuli/pictures/0730_fw.png	397.33662009239197	1.3415567874908447
243	288.42055916786194	response	0	j		241.0	/experiments/knapen_AOT/AOT_stimuli/pictures/0730_fw.png	398.6368000507355	
244	288.4619359970093	picture	0		212	242.0	/experiments/knapen_AOT/AOT_stimuli/pictures/1373_fw.png	398.6781768798828	1.795241117477417
244	290.2206001281738	response	0	k		242.0	/experiments/knapen_AOT/AOT_stimuli/pictures/1373_fw.png	400.43684101104736	
245	290.2571771144867	picture	0		108	243.0	/experiments/knapen_AOT/AOT_stimuli/pictures/0934_fw.png	400.47341799736023	1.1798129081726074
245	291.1455991268158	response	0	k		243.0	/experiments/knapen_AOT/AOT_stimuli/pictures/0934_fw.png	401.36184000968933	
246	291.4369900226593	picture	0		103	244.0	/experiments/knapen_AOT/AOT_stimuli/pictures/1759_fw.png	401.65323090553284	0.883357048034668
246	292.2871651649475	response	0	k		244.0	/experiments/knapen_AOT/AOT_stimuli/pictures/1759_fw.png	402.50340604782104	
247	292.32034707069397	picture	0		99	245.0	/experiments/knapen_AOT/AOT_stimuli/pictures/1093_fw.png	402.5365879535675	0.8535189628601074
247	293.1372811794281	response	0	j		245.0	/experiments/knapen_AOT/AOT_stimuli/pictures/1093_fw.png	403.35352206230164	
248	293.1738660335541	picture	0		138	246.0	/experiments/knapen_AOT/AOT_stimuli/pictures/0086_fw.png	403.3901069164276	1.2132320404052734
248	294.3456881046295	response	0	j		246.0	/experiments/knapen_AOT/AOT_stimuli/pictures/0086_fw.png	404.56192898750305	
249	294.38709807395935	picture	0		161	247.0	/experiments/knapen_AOT/AOT_stimuli/pictures/0913_fw.png	404.6033389568329	1.4082939624786377
249	295.72053718566895	response	0	j		247.0	/experiments/knapen_AOT/AOT_stimuli/pictures/0913_fw.png	405.9367780685425	
250	295.795392036438	picture	0		126	248.0	/experiments/knapen_AOT/AOT_stimuli/pictures/1370_fw.png	406.0116329193115	1.4250421524047852
250	296.8303370475769	response	0	k		248.0	/experiments/knapen_AOT/AOT_stimuli/pictures/1370_fw.png	407.04657793045044	
251	297.2204341888428	picture	0		81	249.0	/experiments/knapen_AOT/AOT_stimuli/pictures/1159_fw.png	407.4366750717163	0.7250559329986572
251	297.88725209236145	response	0	j		249.0	/experiments/knapen_AOT/AOT_stimuli/pictures/1159_fw.png	408.103492975235	
252	297.94549012184143	picture	0		175	250.0	/experiments/knapen_AOT/AOT_stimuli/pictures/0404_fw.png	408.16173100471497	1.4999659061431885
252	299.3957099914551	response	0	k		250.0	/experiments/knapen_AOT/AOT_stimuli/pictures/0404_fw.png	409.6119508743286	
253	299.4454560279846	picture	0		138	251.0	/experiments/knapen_AOT/AOT_stimuli/pictures/0234_fw.png	409.66169691085815	1.2145881652832031
253	300.58736205101013	response	0	j		251.0	/experiments/knapen_AOT/AOT_stimuli/pictures/0234_fw.png	410.80360293388367	
254	300.6600441932678	picture	0		184	252.0	/experiments/knapen_AOT/AOT_stimuli/pictures/1249_fw.png	410.87628507614136	2.0138978958129883
254	302.18740701675415	response	0	k		252.0	/experiments/knapen_AOT/AOT_stimuli/pictures/1249_fw.png	412.4036478996277	
255	302.6739420890808	picture	0		79	253.0	/experiments/knapen_AOT/AOT_stimuli/pictures/0622_fw.png	412.89018297195435	0.7798750400543213
255	303.3207440376282	response	0	j		253.0	/experiments/knapen_AOT/AOT_stimuli/pictures/0622_fw.png	413.5369849205017	
256	303.45381712913513	picture	0		97	254.0	/experiments/knapen_AOT/AOT_stimuli/pictures/1264_fw.png	413.67005801200867	0.9423298835754395
256	304.2473340034485	response	0	k		254.0	/experiments/knapen_AOT/AOT_stimuli/pictures/1264_fw.png	414.463574886322	
257	304.39614701271057	picture	0		116	255.0	/experiments/knapen_AOT/AOT_stimuli/pictures/2165_fw.png	414.6123878955841	1.007723093032837
257	305.3540391921997	response	0	j		255.0	/experiments/knapen_AOT/AOT_stimuli/pictures/2165_fw.png	415.57028007507324	
258	305.4038701057434	picture	0		111	256.0	/experiments/knapen_AOT/AOT_stimuli/pictures/0135_fw.png	415.62011098861694	0.9750161170959473
258	306.32082319259644	response	0	j		256.0	/experiments/knapen_AOT/AOT_stimuli/pictures/0135_fw.png	416.53706407546997	
259	306.37888622283936	picture	0		93	257.0	/experiments/knapen_AOT/AOT_stimuli/pictures/1876_fw.png	416.5951271057129	0.8999769687652588
259	307.1458420753479	response	0	j		257.0	/experiments/knapen_AOT/AOT_stimuli/pictures/1876_fw.png	417.36208295822144	
260	307.2788631916046	picture	0		95	258.0	/experiments/knapen_AOT/AOT_stimuli/pictures/0027_fw.png	417.49510407447815	0.8535218238830566
260	308.06233310699463	response	0	j		258.0	/experiments/knapen_AOT/AOT_stimuli/pictures/0027_fw.png	418.27857398986816	
261	308.13238501548767	picture	0		104	259.0	/experiments/knapen_AOT/AOT_stimuli/pictures/1779_fw.png	418.3486258983612	0.9381611347198486
261	308.9875531196594	response	0	k		259.0	/experiments/knapen_AOT/AOT_stimuli/pictures/1779_fw.png	419.20379400253296	
262	309.0705461502075	picture	0		96	260.0	/experiments/knapen_AOT/AOT_stimuli/pictures/0259_fw.png	419.28678703308105	0.841688871383667
262	309.8623700141907	response	0	k		260.0	/experiments/knapen_AOT/AOT_stimuli/pictures/0259_fw.png	420.0786108970642	
263	309.9122350215912	picture	0		98	261.0	/experiments/knapen_AOT/AOT_stimuli/pictures/0579_fw.png	420.1284759044647	0.8936970233917236
263	310.720782995224	response	0	k		261.0	/experiments/knapen_AOT/AOT_stimuli/pictures/0579_fw.png	420.93702387809753	
264	310.8059320449829	picture	0		112	262.0	/experiments/knapen_AOT/AOT_stimuli/pictures/0791_fw.png	421.02217292785645	1.0063061714172363
264	311.72911620140076	response	0	k		262.0	/experiments/knapen_AOT/AOT_stimuli/pictures/0791_fw.png	421.9453570842743	
265	311.81223821640015	picture	0		97	263.0	/experiments/knapen_AOT/AOT_stimuli/pictures/1549_fw.png	422.0284790992737	1.0751018524169922
265	312.6063041687012	response	0	k		263.0	/experiments/knapen_AOT/AOT_stimuli/pictures/1549_fw.png	422.8225450515747	
266	312.88734006881714	picture	0		142	264.0	/experiments/knapen_AOT/AOT_stimuli/pictures/1620_fw.png	423.1035809516907	1.2381179332733154
266	314.0631031990051	response	0	k		264.0	/experiments/knapen_AOT/AOT_stimuli/pictures/1620_fw.png	424.27934408187866	
267	314.12545800209045	picture	0		97	265.0	/experiments/knapen_AOT/AOT_stimuli/pictures/0888_fw.png	424.341698884964	0.8542141914367676
267	314.92921710014343	response	0	j		265.0	/experiments/knapen_AOT/AOT_stimuli/pictures/0888_fw.png	425.14545798301697	
268	314.9796721935272	picture	0		104	266.0	/experiments/knapen_AOT/AOT_stimuli/pictures/0683_fw.png	425.19591307640076	0.9166028499603271
268	315.83067321777344	response	0	j		266.0	/experiments/knapen_AOT/AOT_stimuli/pictures/0683_fw.png	426.046914100647	
269	315.89627504348755	picture	0		93	267.0	/experiments/knapen_AOT/AOT_stimuli/pictures/0057_fw.png	426.1125159263611	0.8263940811157227
269	316.6624882221222	response	0	k		267.0	/experiments/knapen_AOT/AOT_stimuli/pictures/0057_fw.png	426.8787291049957	
270	316.72266912460327	picture	0		115	268.0	/experiments/knapen_AOT/AOT_stimuli/pictures/1235_fw.png	426.9389100074768	1.0346999168395996
270	317.6708631515503	response	0	k		268.0	/experiments/knapen_AOT/AOT_stimuli/pictures/1235_fw.png	427.8871040344238	
271	317.75736904144287	picture	0		96	269.0	/experiments/knapen_AOT/AOT_stimuli/pictures/1106_fw.png	427.9736099243164	0.8680870532989502
271	318.5459430217743	response	0	j		269.0	/experiments/knapen_AOT/AOT_stimuli/pictures/1106_fw.png	428.7621839046478	
272	318.6254560947418	picture	0		95	270.0	/experiments/knapen_AOT/AOT_stimuli/pictures/1446_fw.png	428.84169697761536	0.8750660419464111
272	319.41249799728394	response	0	j		270.0	/experiments/knapen_AOT/AOT_stimuli/pictures/1446_fw.png	429.62873888015747	
273	319.50052213668823	picture	0		129	271.0	/experiments/knapen_AOT/AOT_stimuli/pictures/0337_fw.png	429.71676301956177	1.1535069942474365
273	320.5709340572357	response	0	k		271.0	/experiments/knapen_AOT/AOT_stimuli/pictures/0337_fw.png	430.78717494010925	
274	320.65402913093567	picture	0		123	272.0	/experiments/knapen_AOT/AOT_stimuli/pictures/0415_fw.png	430.8702700138092	1.0756139755249023
274	321.6708950996399	response	0	k		272.0	/experiments/knapen_AOT/AOT_stimuli/pictures/0415_fw.png	431.8871359825134	
275	321.72964310646057	picture	0		111	273.0	/experiments/knapen_AOT/AOT_stimuli/pictures/1386_fw.png	431.9458839893341	1.0911140441894531
275	322.6392161846161	response	0	j		273.0	/experiments/knapen_AOT/AOT_stimuli/pictures/1386_fw.png	432.8554570674896	
276	322.82075715065	picture	0		146	274.0	/experiments/knapen_AOT/AOT_stimuli/pictures/0901_fw.png	433.03699803352356	1.2838959693908691
276	324.02247619628906	response	0	j		274.0	/experiments/knapen_AOT/AOT_stimuli/pictures/0901_fw.png	434.2387170791626	
277	324.1046531200409	picture	0		94	275.0	/experiments/knapen_AOT/AOT_stimuli/pictures/2027_fw.png	434.32089400291443	0.8828010559082031
277	324.8793570995331	response	0	k		275.0	/experiments/knapen_AOT/AOT_stimuli/pictures/2027_fw.png	435.0955979824066	
278	324.9874541759491	picture	0		99	276.0	/experiments/knapen_AOT/AOT_stimuli/pictures/1513_fw.png	435.20369505882263	0.9019889831542969
278	325.8042631149292	response	0	k		276.0	/experiments/knapen_AOT/AOT_stimuli/pictures/1513_fw.png	436.02050399780273	
279	325.8894431591034	picture	0		99	277.0	/experiments/knapen_AOT/AOT_stimuli/pictures/1586_fw.png	436.10568404197693	0.9147219657897949
279	326.70437002182007	response	0	k		277.0	/experiments/knapen_AOT/AOT_stimuli/pictures/1586_fw.png	436.9206109046936	
280	326.8041651248932	picture	0		93	278.0	/experiments/knapen_AOT/AOT_stimuli/pictures/0698_fw.png	437.0204060077667	0.824984073638916
280	327.57092809677124	response	0	k		278.0	/experiments/knapen_AOT/AOT_stimuli/pictures/0698_fw.png	437.7871689796448	
281	327.6291491985321	picture	0		91	279.0	/experiments/knapen_AOT/AOT_stimuli/pictures/1002_fw.png	437.84539008140564	0.8089349269866943
281	328.37938714027405	response	0	j		279.0	/experiments/knapen_AOT/AOT_stimuli/pictures/1002_fw.png	438.5956280231476	
282	328.4380841255188	picture	0		129	280.0	/experiments/knapen_AOT/AOT_stimuli/pictures/1656_fw.png	438.65432500839233	1.132728099822998
282	329.5044159889221	response	0	k		280.0	/experiments/knapen_AOT/AOT_stimuli/pictures/1656_fw.png	439.72065687179565	
283	329.5708122253418	picture	0		131	281.0	/experiments/knapen_AOT/AOT_stimuli/pictures/1156_fw.png	439.78705310821533	1.1666808128356934
283	330.65447902679443	response	0	k		281.0	/experiments/knapen_AOT/AOT_stimuli/pictures/1156_fw.png	440.87071990966797	
284	330.7374930381775	picture	0		103	282.0	/experiments/knapen_AOT/AOT_stimuli/pictures/0223_fw.png	440.953733921051	0.9089040756225586
284	331.58766412734985	response	0	k		282.0	/experiments/knapen_AOT/AOT_stimuli/pictures/0223_fw.png	441.8039050102234	
285	331.64639711380005	picture	0		92	283.0	/experiments/knapen_AOT/AOT_stimuli/pictures/2160_fw.png	441.8626379966736	0.8263759613037109
285	332.4044551849365	response	0	k		283.0	/experiments/knapen_AOT/AOT_stimuli/pictures/2160_fw.png	442.62069606781006	
286	332.47277307510376	picture	0		118	284.0	/experiments/knapen_AOT/AOT_stimuli/pictures/0835_fw.png	442.6890139579773	1.03143310546875
286	333.4398190975189	response	0	k		284.0	/experiments/knapen_AOT/AOT_stimuli/pictures/0835_fw.png	443.65605998039246	
287	333.5042061805725	picture	0		96	285.0	/experiments/knapen_AOT/AOT_stimuli/pictures/1110_fw.png	443.72044706344604	0.8435838222503662
287	334.29602813720703	response	0	j		285.0	/experiments/knapen_AOT/AOT_stimuli/pictures/1110_fw.png	444.51226902008057	
288	334.3477900028229	picture	0		183	286.0	/experiments/knapen_AOT/AOT_stimuli/pictures/0267_fw.png	444.5640308856964	1.6064372062683105
288	335.86267709732056	response	0	k		286.0	/experiments/knapen_AOT/AOT_stimuli/pictures/0267_fw.png	446.0789179801941	
289	335.9542272090912	picture	0		97	287.0	/experiments/knapen_AOT/AOT_stimuli/pictures/0896_fw.png	446.1704680919647	0.8584139347076416
289	336.75449800491333	response	0	j		287.0	/experiments/knapen_AOT/AOT_stimuli/pictures/0896_fw.png	446.97073888778687	
290	336.8126411437988	picture	0		100	288.0	/experiments/knapen_AOT/AOT_stimuli/pictures/0286_fw.png	447.02888202667236	0.8832709789276123
290	337.631147146225	response	0	k		288.0	/experiments/knapen_AOT/AOT_stimuli/pictures/0286_fw.png	447.8473880290985	
291	337.69591212272644	picture	0		107	289.0	/experiments/knapen_AOT/AOT_stimuli/pictures/1185_fw.png	447.9121530056	0.9296751022338867
291	338.57950711250305	response	0	j		289.0	/experiments/knapen_AOT/AOT_stimuli/pictures/1185_fw.png	448.7957479953766	
292	338.6255872249603	picture	0		106	290.0	/experiments/knapen_AOT/AOT_stimuli/pictures/1705_fw.png	448.84182810783386	0.912064790725708
292	339.4962000846863	response	0	k		290.0	/experiments/knapen_AOT/AOT_stimuli/pictures/1705_fw.png	449.7124409675598	
293	339.53765201568604	picture	0		125	291.0	/experiments/knapen_AOT/AOT_stimuli/pictures/1543_fw.png	449.75389289855957	1.0749871730804443
293	340.57125520706177	response	0	k		291.0	/experiments/knapen_AOT/AOT_stimuli/pictures/1543_fw.png	450.7874960899353	
294	340.6126391887665	picture	0		110	292.0	/experiments/knapen_AOT/AOT_stimuli/pictures/1870_fw.png	450.82888007164	1.0060439109802246
294	341.521635055542	response	0	k		292.0	/experiments/knapen_AOT/AOT_stimuli/pictures/1870_fw.png	451.7378759384155	
295	341.6186830997467	picture	0		87	293.0	/experiments/knapen_AOT/AOT_stimuli/pictures/0017_fw.png	451.83492398262024	0.843980073928833
295	342.33781909942627	response	0	k		293.0	/experiments/knapen_AOT/AOT_stimuli/pictures/0017_fw.png	452.5540599822998	
296	342.46266317367554	picture	0		115	294.0	/experiments/knapen_AOT/AOT_stimuli/pictures/0183_fw.png	452.6789040565491	1.058823823928833
296	343.4128260612488	response	0	k		294.0	/experiments/knapen_AOT/AOT_stimuli/pictures/0183_fw.png	453.6290669441223	
297	343.52148699760437	picture	0		105	295.0	/experiments/knapen_AOT/AOT_stimuli/pictures/1946_fw.png	453.7377278804779	0.94122314453125
297	344.3878860473633	response	0	j		295.0	/experiments/knapen_AOT/AOT_stimuli/pictures/1946_fw.png	454.6041269302368	
298	344.4627101421356	picture	0		206	296.0	/experiments/knapen_AOT/AOT_stimuli/pictures/1202_fw.png	454.67895102500916	1.7532269954681396
298	346.17131209373474	response	0	k		296.0	/experiments/knapen_AOT/AOT_stimuli/pictures/1202_fw.png	456.3875529766083	
299	346.21593713760376	picture	0		110	297.0	/experiments/knapen_AOT/AOT_stimuli/pictures/1747_fw.png	456.4321780204773	1.021838903427124
299	347.1212592124939	response	0	j		297.0	/experiments/knapen_AOT/AOT_stimuli/pictures/1747_fw.png	457.33750009536743	
300	347.2377760410309	picture	0		102	298.0	/experiments/knapen_AOT/AOT_stimuli/pictures/1079_fw.png	457.4540169239044	0.8916330337524414
300	348.07968306541443	response	0	j		298.0	/experiments/knapen_AOT/AOT_stimuli/pictures/1079_fw.png	458.29592394828796	
301	348.1294090747833	picture	0		187	299.0	/experiments/knapen_AOT/AOT_stimuli/pictures/1269_fw.png	458.34564995765686	1.6004281044006348
301	349.6796820163727	response	0	j		299.0	/experiments/knapen_AOT/AOT_stimuli/pictures/1269_fw.png	459.8959228992462	
302	349.72983717918396	picture	0		139	300.0	/experiments/knapen_AOT/AOT_stimuli/pictures/1091_fw.png	459.9460780620575	1.194471836090088
302	350.8797001838684	response	0	j		300.0	/experiments/knapen_AOT/AOT_stimuli/pictures/1091_fw.png	461.09594106674194	
303	350.92430901527405	picture	0		108	301.0	/experiments/knapen_AOT/AOT_stimuli/pictures/1169_fw.png	461.1405498981476	0.9444530010223389
303	351.81339502334595	response	0	j		301.0	/experiments/knapen_AOT/AOT_stimuli/pictures/1169_fw.png	462.0296359062195	
304	351.8687620162964	picture	0		109	302.0	/experiments/knapen_AOT/AOT_stimuli/pictures/1728_fw.png	462.0850028991699	0.9607670307159424
304	352.77178502082825	response	0	k		302.0	/experiments/knapen_AOT/AOT_stimuli/pictures/1728_fw.png	462.9880259037018	
305	352.82952904701233	picture	0		143	303.0	/experiments/knapen_AOT/AOT_stimuli/pictures/1939_fw.png	463.04576992988586	1.2684221267700195
305	354.0129840373993	response	0	j		303.0	/experiments/knapen_AOT/AOT_stimuli/pictures/1939_fw.png	464.2292249202728	
306	354.09795117378235	picture	0		100	304.0	/experiments/knapen_AOT/AOT_stimuli/pictures/2172_fw.png	464.3141920566559	0.9232180118560791
306	354.9214131832123	response	0	k		304.0	/experiments/knapen_AOT/AOT_stimuli/pictures/2172_fw.png	465.1376540660858	
307	355.0211691856384	picture	0		101	305.0	/experiments/knapen_AOT/AOT_stimuli/pictures/1610_fw.png	465.23741006851196	1.0583689212799072
307	355.8550081253052	response	0	k		305.0	/experiments/knapen_AOT/AOT_stimuli/pictures/1610_fw.png	466.0712490081787	
308	356.07953810691833	picture	0		180	306.0	/experiments/knapen_AOT/AOT_stimuli/pictures/0923_fw.png	466.29577898979187	1.608705997467041
308	357.5713610649109	response	0	j		306.0	/experiments/knapen_AOT/AOT_stimuli/pictures/0923_fw.png	467.7876019477844	
309	357.6882441043854	picture	0		116	307.0	/experiments/knapen_AOT/AOT_stimuli/pictures/1734_fw.png	467.9044849872589	1.0581068992614746
309	358.64673018455505	response	0	k		307.0	/experiments/knapen_AOT/AOT_stimuli/pictures/1734_fw.png	468.8629710674286	
310	358.74635100364685	picture	0		122	308.0	/experiments/knapen_AOT/AOT_stimuli/pictures/2088_fw.png	468.9625918865204	1.1999351978302002
310	359.7549271583557	response	0	j		308.0	/experiments/knapen_AOT/AOT_stimuli/pictures/2088_fw.png	469.97116804122925	
311	359.94628620147705	picture	0		128	309.0	/experiments/knapen_AOT/AOT_stimuli/pictures/0139_fw.png	470.1625270843506	1.2211627960205078
311	361.00486516952515	response	0	j		309.0	/experiments/knapen_AOT/AOT_stimuli/pictures/0139_fw.png	471.2211060523987	
312	361.16744899749756	picture	0		103	310.0	/experiments/knapen_AOT/AOT_stimuli/pictures/0599_fw.png	471.3836898803711	1.1122159957885742
312	362.01307010650635	response	0	j		310.0	/experiments/knapen_AOT/AOT_stimuli/pictures/0599_fw.png	472.2293109893799	
313	362.27966499328613	picture	0		92	311.0	/experiments/knapen_AOT/AOT_stimuli/pictures/0214_fw.png	472.49590587615967	0.7999320030212402
313	363.0314111709595	response	0	k		311.0	/experiments/knapen_AOT/AOT_stimuli/pictures/0214_fw.png	473.247652053833	
314	363.0795969963074	picture	0		136	312.0	/experiments/knapen_AOT/AOT_stimuli/pictures/2151_fw.png	473.2958378791809	1.166774034500122
314	364.20476603507996	response	0	k		312.0	/experiments/knapen_AOT/AOT_stimuli/pictures/2151_fw.png	474.4210069179535	
315	364.2463710308075	picture	0		105	313.0	/experiments/knapen_AOT/AOT_stimuli/pictures/1707_fw.png	474.46261191368103	0.9249181747436523
315	365.1131000518799	response	0	j		313.0	/experiments/knapen_AOT/AOT_stimuli/pictures/1707_fw.png	475.3293409347534	
316	365.17128920555115	picture	0		88	314.0	/experiments/knapen_AOT/AOT_stimuli/pictures/1048_fw.png	475.3875300884247	0.7916989326477051
316	365.92159700393677	response	0	j		314.0	/experiments/knapen_AOT/AOT_stimuli/pictures/1048_fw.png	476.1378378868103	
317	365.96298813819885	picture	0		123	315.0	/experiments/knapen_AOT/AOT_stimuli/pictures/0917_fw.png	476.1792290210724	1.0586280822753906
317	366.9800841808319	response	0	k		315.0	/experiments/knapen_AOT/AOT_stimuli/pictures/0917_fw.png	477.19632506370544	
318	367.02161622047424	picture	0		117	316.0	/experiments/knapen_AOT/AOT_stimuli/pictures/0102_fw.png	477.2378571033478	1.0081110000610352
318	367.98819303512573	response	0	k		316.0	/experiments/knapen_AOT/AOT_stimuli/pictures/0102_fw.png	478.20443391799927	
319	368.0297272205353	picture	0		141	317.0	/experiments/knapen_AOT/AOT_stimuli/pictures/1485_fw.png	478.2459681034088	1.2697539329528809
319	369.1966071128845	response	0	k		317.0	/experiments/knapen_AOT/AOT_stimuli/pictures/1485_fw.png	479.41284799575806	
320	369.29948115348816	picture	0		132	318.0	/experiments/knapen_AOT/AOT_stimuli/pictures/1856_fw.png	479.5157220363617	1.138956069946289
320	370.3881981372833	response	0	j		318.0	/experiments/knapen_AOT/AOT_stimuli/pictures/1856_fw.png	480.60443902015686	
321	370.43843722343445	picture	0		128	319.0	/experiments/knapen_AOT/AOT_stimuli/pictures/1780_fw.png	480.654678106308	1.107935905456543
321	371.4965810775757	response	0	k		319.0	/experiments/knapen_AOT/AOT_stimuli/pictures/1780_fw.png	481.7128219604492	
322	371.546373128891	picture	0		103	320.0	/experiments/knapen_AOT/AOT_stimuli/pictures/0560_fw.png	481.7626140117645	0.8999979496002197
322	372.3968040943146	response	0	k		320.0	/experiments/knapen_AOT/AOT_stimuli/pictures/0560_fw.png	482.6130449771881	
323	372.4463710784912	picture	0		89	321.0	/experiments/knapen_AOT/AOT_stimuli/pictures/0768_fw.png	482.66261196136475	0.8000240325927734
323	373.1799011230469	response	0	k		321.0	/experiments/knapen_AOT/AOT_stimuli/pictures/0768_fw.png	483.3961420059204	
324	373.246395111084	picture	0		94	322.0	/experiments/knapen_AOT/AOT_stimuli/pictures/1857_fw.png	483.4626359939575	0.8916831016540527
324	374.0219202041626	response	0	k		322.0	/experiments/knapen_AOT/AOT_stimuli/pictures/1857_fw.png	484.23816108703613	
325	374.13807821273804	picture	0		85	323.0	/experiments/knapen_AOT/AOT_stimuli/pictures/0770_fw.png	484.3543190956116	0.8211538791656494
325	374.8313879966736	response	0	j		323.0	/experiments/knapen_AOT/AOT_stimuli/pictures/0770_fw.png	485.0476288795471	
326	374.9592320919037	picture	0		180	324.0	/experiments/knapen_AOT/AOT_stimuli/pictures/0907_fw.png	485.1754729747772	1.5288901329040527
326	376.43994998931885	response	0	k		324.0	/experiments/knapen_AOT/AOT_stimuli/pictures/0907_fw.png	486.6561908721924	
327	376.48812222480774	picture	0		98	325.0	/experiments/knapen_AOT/AOT_stimuli/pictures/0551_fw.png	486.7043631076813	0.8669309616088867
327	377.296679019928	response	0	k		325.0	/experiments/knapen_AOT/AOT_stimuli/pictures/0551_fw.png	487.5129199028015	
328	377.3550531864166	picture	0		206	326.0	/experiments/knapen_AOT/AOT_stimuli/pictures/0796_fw.png	487.57129406929016	1.7581188678741455
328	379.06352519989014	response	0	j		326.0	/experiments/knapen_AOT/AOT_stimuli/pictures/0796_fw.png	489.2797660827637	
329	379.11317205429077	picture	0		131	327.0	/experiments/knapen_AOT/AOT_stimuli/pictures/1827_fw.png	489.3294129371643	1.2666740417480469
329	380.1966860294342	response	0	k		327.0	/experiments/knapen_AOT/AOT_stimuli/pictures/1827_fw.png	490.41292691230774	
330	380.3798460960388	picture	0		114	328.0	/experiments/knapen_AOT/AOT_stimuli/pictures/1287_fw.png	490.59608697891235	1.037795066833496
330	381.3216280937195	response	0	j		328.0	/experiments/knapen_AOT/AOT_stimuli/pictures/1287_fw.png	491.537868976593	
331	381.4176411628723	picture	0		151	329.0	/experiments/knapen_AOT/AOT_stimuli/pictures/0523_fw.png	491.63388204574585	1.7569060325622559
331	382.6632981300354	response	0	j		329.0	/experiments/knapen_AOT/AOT_stimuli/pictures/0523_fw.png	492.87953901290894	
332	383.17454719543457	picture	0		108	330.0	/experiments/knapen_AOT/AOT_stimuli/pictures/1472_fw.png	493.3907880783081	1.0220890045166016
332	384.0565540790558	response	0	j		330.0	/experiments/knapen_AOT/AOT_stimuli/pictures/1472_fw.png	494.2727949619293	
333	384.1966361999512	picture	0		260	331.0	/experiments/knapen_AOT/AOT_stimuli/pictures/1080_fw.png	494.4128770828247	2.199970006942749
333	386.3553102016449	response	0	k		331.0	/experiments/knapen_AOT/AOT_stimuli/pictures/1080_fw.png	496.57155108451843	
334	386.3966062068939	picture	0		130	332.0	/experiments/knapen_AOT/AOT_stimuli/pictures/1913_fw.png	496.61284708976746	1.2085208892822266
334	387.47183418273926	response	0	k		332.0	/experiments/knapen_AOT/AOT_stimuli/pictures/1913_fw.png	497.6880750656128	
335	387.60512709617615	picture	0		86	333.0	/experiments/knapen_AOT/AOT_stimuli/pictures/0457_fw.png	497.8213679790497	0.7664799690246582
335	388.313600063324	response	0	j		333.0	/experiments/knapen_AOT/AOT_stimuli/pictures/0457_fw.png	498.5298409461975	
336	388.3716070652008	picture	0		98	334.0	/experiments/knapen_AOT/AOT_stimuli/pictures/2045_fw.png	498.58784794807434	0.875028133392334
336	389.1801800727844	response	0	k		334.0	/experiments/knapen_AOT/AOT_stimuli/pictures/2045_fw.png	499.39642095565796	
337	389.24663519859314	picture	0		141	335.0	/experiments/knapen_AOT/AOT_stimuli/pictures/1745_fw.png	499.4628760814667	1.2916479110717773
337	390.41348218917847	response	0	k		335.0	/experiments/knapen_AOT/AOT_stimuli/pictures/1745_fw.png	500.629723072052	
338	390.5382831096649	picture	0		94	336.0	/experiments/knapen_AOT/AOT_stimuli/pictures/1222_fw.png	500.75452399253845	0.9501330852508545
338	391.31361413002014	response	0	k		336.0	/experiments/knapen_AOT/AOT_stimuli/pictures/1222_fw.png	501.5298550128937	
339	391.48841619491577	picture	0		106	337.0	/experiments/knapen_AOT/AOT_stimuli/pictures/0418_fw.png	501.7046570777893	0.9332408905029297
339	392.3635129928589	response	0	k		337.0	/experiments/knapen_AOT/AOT_stimuli/pictures/0418_fw.png	502.5797538757324	
340	392.4216570854187	picture	0		122	338.0	/experiments/knapen_AOT/AOT_stimuli/pictures/0295_fw.png	502.63789796829224	1.6250181198120117
340	393.42328906059265	response	0	k		338.0	/experiments/knapen_AOT/AOT_stimuli/pictures/0295_fw.png	503.6395299434662	
341	394.0466752052307	picture	0		84	339.0	/experiments/knapen_AOT/AOT_stimuli/pictures/0488_fw.png	504.26291608810425	0.9418039321899414
341	394.7385530471802	response	0	k		339.0	/experiments/knapen_AOT/AOT_stimuli/pictures/0488_fw.png	504.9547939300537	
342	394.98847913742065	picture	0		83	340.0	/experiments/knapen_AOT/AOT_stimuli/pictures/0673_fw.png	505.2047200202942	0.7625880241394043
342	395.6719071865082	response	0	j		340.0	/experiments/knapen_AOT/AOT_stimuli/pictures/0673_fw.png	505.8881480693817	
343	395.75106716156006	picture	0		106	341.0	/experiments/knapen_AOT/AOT_stimuli/pictures/1750_fw.png	505.9673080444336	0.9374680519104004
343	396.62186312675476	response	0	j		341.0	/experiments/knapen_AOT/AOT_stimuli/pictures/1750_fw.png	506.8381040096283	
344	396.68853521347046	picture	0		133	342.0	/experiments/knapen_AOT/AOT_stimuli/pictures/1642_fw.png	506.904776096344	1.224897861480713
344	397.78866314888	response	0	j		342.0	/experiments/knapen_AOT/AOT_stimuli/pictures/1642_fw.png	508.00490403175354	
345	397.9134330749512	picture	0		81	343.0	/experiments/knapen_AOT/AOT_stimuli/pictures/0209_fw.png	508.1296739578247	0.7751200199127197
345	398.58029103279114	response	0	k		343.0	/experiments/knapen_AOT/AOT_stimuli/pictures/0209_fw.png	508.7965319156647	
346	398.6885530948639	picture	0		125	344.0	/experiments/knapen_AOT/AOT_stimuli/pictures/1560_fw.png	508.9047939777374	1.116549015045166
346	399.7218871116638	response	0	j		344.0	/experiments/knapen_AOT/AOT_stimuli/pictures/1560_fw.png	509.93812799453735	
347	399.80510210990906	picture	0		103	345.0	/experiments/knapen_AOT/AOT_stimuli/pictures/0850_fw.png	510.0213429927826	0.9166719913482666
347	400.65519309043884	response	0	k		345.0	/experiments/knapen_AOT/AOT_stimuli/pictures/0850_fw.png	510.8714339733124	
348	400.7217741012573	picture	0		134	346.0	/experiments/knapen_AOT/AOT_stimuli/pictures/0189_fw.png	510.93801498413086	1.1751220226287842
348	401.8233630657196	response	0	j		346.0	/experiments/knapen_AOT/AOT_stimuli/pictures/0189_fw.png	512.0396039485931	
349	401.8968961238861	picture	0		187	347.0	/experiments/knapen_AOT/AOT_stimuli/pictures/0350_fw.png	512.1131370067596	1.6333539485931396
349	403.44030117988586	response	0	j		347.0	/experiments/knapen_AOT/AOT_stimuli/pictures/0350_fw.png	513.6565420627594	
350	403.53025007247925	picture	0		106	348.0	/experiments/knapen_AOT/AOT_stimuli/pictures/1201_fw.png	513.7464909553528	0.9665720462799072
350	404.40528321266174	response	0	k		348.0	/experiments/knapen_AOT/AOT_stimuli/pictures/1201_fw.png	514.6215240955353	
351	404.49682211875916	picture	0		143	349.0	/experiments/knapen_AOT/AOT_stimuli/pictures/0207_fw.png	514.7130630016327	1.333362102508545
351	405.68037509918213	response	0	j		349.0	/experiments/knapen_AOT/AOT_stimuli/pictures/0207_fw.png	515.8966159820557	
352	405.8301842212677	picture	0		126	350.0	/experiments/knapen_AOT/AOT_stimuli/pictures/1132_fw.png	516.0464251041412	1.158336877822876
352	406.8719701766968	response	0	k		350.0	/experiments/knapen_AOT/AOT_stimuli/pictures/1132_fw.png	517.0882110595703	
353	406.9885210990906	picture	0		102	351.0	/experiments/knapen_AOT/AOT_stimuli/pictures/0168_fw.png	517.2047619819641	1.061218023300171
353	407.82351899147034	response	0	j		351.0	/experiments/knapen_AOT/AOT_stimuli/pictures/0168_fw.png	518.0397598743439	
354	408.04973912239075	picture	0		93	352.0	/experiments/knapen_AOT/AOT_stimuli/pictures/1283_fw.png	518.2659800052643	1.0971910953521729
354	408.81379199028015	response	0	k		352.0	/experiments/knapen_AOT/AOT_stimuli/pictures/1283_fw.png	519.0300328731537	
355	409.1469302177429	picture	0		111	353.0	/experiments/knapen_AOT/AOT_stimuli/pictures/1689_fw.png	519.3631711006165	1.0278689861297607
355	410.0637550354004	response	0	j		353.0	/experiments/knapen_AOT/AOT_stimuli/pictures/1689_fw.png	520.2799959182739	
356	410.1747992038727	picture	0		114	354.0	/experiments/knapen_AOT/AOT_stimuli/pictures/2078_fw.png	520.3910400867462	1.0485718250274658
356	411.1137180328369	response	0	j		354.0	/experiments/knapen_AOT/AOT_stimuli/pictures/2078_fw.png	521.3299589157104	
357	411.22337102890015	picture	0		85	355.0	/experiments/knapen_AOT/AOT_stimuli/pictures/1449_fw.png	521.4396119117737	0.7818551063537598
357	411.92202711105347	response	0	j		355.0	/experiments/knapen_AOT/AOT_stimuli/pictures/1449_fw.png	522.138267993927	
358	412.0052261352539	picture	0		171	356.0	/experiments/knapen_AOT/AOT_stimuli/pictures/1167_fw.png	522.2214670181274	1.4583799839019775
358	413.42209911346436	response	0	j		356.0	/experiments/knapen_AOT/AOT_stimuli/pictures/1167_fw.png	523.6383399963379	
359	413.4636061191559	picture	0		90	357.0	/experiments/knapen_AOT/AOT_stimuli/pictures/0035_fw.png	523.6798470020294	0.7806570529937744
359	414.2054121494293	response	0	j		357.0	/experiments/knapen_AOT/AOT_stimuli/pictures/0035_fw.png	524.4216530323029	
360	414.24426317214966	picture	0		95	358.0	/experiments/knapen_AOT/AOT_stimuli/pictures/2135_fw.png	524.4605040550232	0.8193979263305664
360	415.02390003204346	response	0	k		358.0	/experiments/knapen_AOT/AOT_stimuli/pictures/2135_fw.png	525.240140914917	
361	415.0636610984802	picture	0		125	359.0	/experiments/knapen_AOT/AOT_stimuli/pictures/0990_fw.png	525.2799019813538	1.0696139335632324
361	416.0973300933838	response	0	k		359.0	/experiments/knapen_AOT/AOT_stimuli/pictures/0990_fw.png	526.3135709762573	
362	416.13327503204346	stim	0		1461			526.349515914917	12.372368097305298
362	428.306095123291	response	0	space				538.5223360061646	
