trial_nr	onset	event_type	phase	response	nr_frames	picture_index	picture_file	onset_abs	duration
0	0.17494750022888184	stim	0		469			69.20317268371582	3.928955554962158
0	4.083652973175049	response	0	space				73.11187815666199	
2	4.10390305519104	picture	0		250	0.0	/experiments/Knapen_AOT/AOT_stimuli/pictures/0556_fw.png	73.13212823867798	2.112809419631958
2	6.196495532989502	response	0	k		0.0	/experiments/Knapen_AOT/AOT_stimuli/pictures/0556_fw.png	75.22472071647644	
3	6.216712474822998	picture	0		260	1.0	/experiments/Knapen_AOT/AOT_stimuli/pictures/0507_fw.png	75.24493765830994	2.1719305515289307
3	8.375205516815186	response	0	k		1.0	/experiments/Knapen_AOT/AOT_stimuli/pictures/0507_fw.png	77.40343070030212	
4	8.388643026351929	picture	0		140	2.0	/experiments/Knapen_AOT/AOT_stimuli/pictures/1651_fw.png	77.41686820983887	1.173766851425171
4	9.550327062606812	response	0	j		2.0	/experiments/Knapen_AOT/AOT_stimuli/pictures/1651_fw.png	78.57855224609375	
5	9.5624098777771	picture	0		120	3.0	/experiments/Knapen_AOT/AOT_stimuli/pictures/0410_fw.png	78.59063506126404	1.0043132305145264
5	10.550304412841797	response	0	j		3.0	/experiments/Knapen_AOT/AOT_stimuli/pictures/0410_fw.png	79.57852959632874	
6	10.566723108291626	picture	0		100	4.0	/experiments/Knapen_AOT/AOT_stimuli/pictures/0957_fw.png	79.59494829177856	0.8359625339508057
6	11.384314060211182	response	0	k		4.0	/experiments/Knapen_AOT/AOT_stimuli/pictures/0957_fw.png	80.41253924369812	
7	11.402685642242432	picture	0		113	5.0	/experiments/Knapen_AOT/AOT_stimuli/pictures/1463_fw.png	80.43091082572937	0.9474279880523682
7	12.333642721176147	response	0	j		5.0	/experiments/Knapen_AOT/AOT_stimuli/pictures/1463_fw.png	81.36186790466309	
8	12.3501136302948	picture	0		90	6.0	/experiments/Knapen_AOT/AOT_stimuli/pictures/0842_fw.png	81.37833881378174	0.7539353370666504
8	13.0919668674469	response	0	j		6.0	/experiments/Knapen_AOT/AOT_stimuli/pictures/0842_fw.png	82.12019205093384	
9	13.10404896736145	picture	0		97	7.0	/experiments/Knapen_AOT/AOT_stimuli/pictures/0502_fw.png	82.13227415084839	0.8055598735809326
9	13.900383472442627	response	0	k		7.0	/experiments/Knapen_AOT/AOT_stimuli/pictures/0502_fw.png	82.92860865592957	
10	13.909608840942383	picture	0		114	8.0	/experiments/Knapen_AOT/AOT_stimuli/pictures/2074_fw.png	82.93783402442932	0.9514927864074707
10	14.850319147109985	response	0	k		8.0	/experiments/Knapen_AOT/AOT_stimuli/pictures/2074_fw.png	83.87854433059692	
11	14.861101627349854	picture	0		156	9.0	/experiments/Knapen_AOT/AOT_stimuli/pictures/1615_fw.png	83.88932681083679	1.2985146045684814
11	16.150429010391235	response	0	k		9.0	/experiments/Knapen_AOT/AOT_stimuli/pictures/1615_fw.png	85.17865419387817	
12	16.159616231918335	picture	0		109	10.0	/experiments/Knapen_AOT/AOT_stimuli/pictures/0013_fw.png	85.18784141540527	0.9097514152526855
12	17.058711051940918	response	0	k		10.0	/experiments/Knapen_AOT/AOT_stimuli/pictures/0013_fw.png	86.08693623542786	
13	17.06936764717102	picture	0		93	11.0	/experiments/Knapen_AOT/AOT_stimuli/pictures/0340_fw.png	86.09759283065796	0.7777860164642334
13	17.833685874938965	response	0	k		11.0	/experiments/Knapen_AOT/AOT_stimuli/pictures/0340_fw.png	86.8619110584259	
14	17.847153663635254	picture	0		127	12.0	/experiments/Knapen_AOT/AOT_stimuli/pictures/0923_fw.png	86.87537884712219	1.062455415725708
14	18.900426387786865	response	0	k		12.0	/experiments/Knapen_AOT/AOT_stimuli/pictures/0923_fw.png	87.9286515712738	
15	18.909609079360962	picture	0		121	13.0	/experiments/Knapen_AOT/AOT_stimuli/pictures/0182_fw.png	87.9378342628479	1.0072011947631836
15	19.908693552017212	response	0	j		13.0	/experiments/Knapen_AOT/AOT_stimuli/pictures/0182_fw.png	88.93691873550415	
16	19.916810274124146	picture	0		92	14.0	/experiments/Knapen_AOT/AOT_stimuli/pictures/2058_fw.png	88.94503545761108	0.7706255912780762
16	20.675369262695312	response	0	j		14.0	/experiments/Knapen_AOT/AOT_stimuli/pictures/2058_fw.png	89.70359444618225	
17	20.68743586540222	picture	0		110	15.0	/experiments/Knapen_AOT/AOT_stimuli/pictures/1340_fw.png	89.71566104888916	0.9211156368255615
17	21.59235382080078	response	0	j		15.0	/experiments/Knapen_AOT/AOT_stimuli/pictures/1340_fw.png	90.62057900428772	
18	21.608551502227783	picture	0		90	16.0	/experiments/Knapen_AOT/AOT_stimuli/pictures/0921_fw.png	90.63677668571472	0.7525372505187988
18	22.350577354431152	response	0	j		16.0	/experiments/Knapen_AOT/AOT_stimuli/pictures/0921_fw.png	91.37880253791809	
19	22.361088752746582	picture	0		85	17.0	/experiments/Knapen_AOT/AOT_stimuli/pictures/1155_fw.png	91.38931393623352	0.7083103656768799
19	23.058770895004272	response	0	j		17.0	/experiments/Knapen_AOT/AOT_stimuli/pictures/1155_fw.png	92.08699607849121	
20	23.069399118423462	picture	0		96	18.0	/experiments/Knapen_AOT/AOT_stimuli/pictures/0874_fw.png	92.0976243019104	0.80582594871521
20	23.85891628265381	response	0	j		18.0	/experiments/Knapen_AOT/AOT_stimuli/pictures/0874_fw.png	92.88714146614075	
21	23.875225067138672	picture	0		113	19.0	/experiments/Knapen_AOT/AOT_stimuli/pictures/1053_fw.png	92.90345025062561	0.944183349609375
21	24.808778762817383	response	0	j		19.0	/experiments/Knapen_AOT/AOT_stimuli/pictures/1053_fw.png	93.83700394630432	
22	24.819408416748047	picture	0		141	20.0	/experiments/Knapen_AOT/AOT_stimuli/pictures/2023_fw.png	93.84763360023499	1.1736023426055908
22	25.976462364196777	response	0	k		20.0	/experiments/Knapen_AOT/AOT_stimuli/pictures/2023_fw.png	95.00468754768372	
23	25.993010759353638	picture	0		147	21.0	/experiments/Knapen_AOT/AOT_stimuli/pictures/1822_fw.png	95.02123594284058	1.229273796081543
23	27.208791732788086	response	0	k		21.0	/experiments/Knapen_AOT/AOT_stimuli/pictures/1822_fw.png	96.23701691627502	
24	27.22228455543518	picture	0		102	22.0	/experiments/Knapen_AOT/AOT_stimuli/pictures/0489_fw.png	96.25050973892212	0.8541312217712402
24	28.067123889923096	response	0	j		22.0	/experiments/Knapen_AOT/AOT_stimuli/pictures/0489_fw.png	97.09534907341003	
25	28.07641577720642	picture	0		96	23.0	/experiments/Knapen_AOT/AOT_stimuli/pictures/1494_fw.png	97.10464096069336	0.7988431453704834
25	28.867128610610962	response	0	j		23.0	/experiments/Knapen_AOT/AOT_stimuli/pictures/1494_fw.png	97.8953537940979	
26	28.875258922576904	picture	0		194	24.0	/experiments/Knapen_AOT/AOT_stimuli/pictures/1038_fw.png	97.90348410606384	1.617805004119873
26	30.483846426010132	response	0	k		24.0	/experiments/Knapen_AOT/AOT_stimuli/pictures/1038_fw.png	99.51207160949707	
27	30.493063926696777	picture	0		102	25.0	/experiments/Knapen_AOT/AOT_stimuli/pictures/0569_fw.png	99.52128911018372	0.8541858196258545
27	31.333839178085327	response	0	k		25.0	/experiments/Knapen_AOT/AOT_stimuli/pictures/0569_fw.png	100.36206436157227	
28	31.347249746322632	picture	0		110	26.0	/experiments/Knapen_AOT/AOT_stimuli/pictures/0951_fw.png	100.37547492980957	0.9235761165618896
28	32.258869647979736	response	0	k		26.0	/experiments/Knapen_AOT/AOT_stimuli/pictures/0951_fw.png	101.28709483146667	
29	32.27082586288452	picture	0		111	27.0	/experiments/Knapen_AOT/AOT_stimuli/pictures/1657_fw.png	101.29905104637146	0.9236605167388916
29	33.17715907096863	response	0	k		27.0	/experiments/Knapen_AOT/AOT_stimuli/pictures/1657_fw.png	102.20538425445557	
30	33.19448637962341	picture	0		108	28.0	/experiments/Knapen_AOT/AOT_stimuli/pictures/0924_fw.png	102.22271156311035	0.9059243202209473
30	34.08405089378357	response	0	k		28.0	/experiments/Knapen_AOT/AOT_stimuli/pictures/0924_fw.png	103.11227607727051	
31	34.10041069984436	picture	0		114	29.0	/experiments/Knapen_AOT/AOT_stimuli/pictures/1875_fw.png	103.1286358833313	0.958364725112915
31	35.042216300964355	response	0	j		29.0	/experiments/Knapen_AOT/AOT_stimuli/pictures/1875_fw.png	104.0704414844513	
32	35.058775424957275	picture	0		106	30.0	/experiments/Knapen_AOT/AOT_stimuli/pictures/0492_fw.png	104.08700060844421	0.8857145309448242
32	35.933958768844604	response	0	j		30.0	/experiments/Knapen_AOT/AOT_stimuli/pictures/0492_fw.png	104.96218395233154	
33	35.9444899559021	picture	0		119	31.0	/experiments/Knapen_AOT/AOT_stimuli/pictures/0896_fw.png	104.97271513938904	0.9930500984191895
33	36.92575025558472	response	0	k		31.0	/experiments/Knapen_AOT/AOT_stimuli/pictures/0896_fw.png	105.95397543907166	
34	36.93754005432129	picture	0		95	32.0	/experiments/Knapen_AOT/AOT_stimuli/pictures/1853_fw.png	105.96576523780823	0.7962143421173096
34	37.71742582321167	response	0	k		32.0	/experiments/Knapen_AOT/AOT_stimuli/pictures/1853_fw.png	106.74565100669861	
35	37.7337543964386	picture	0		145	33.0	/experiments/Knapen_AOT/AOT_stimuli/pictures/0109_fw.png	106.76197957992554	1.2166697978973389
35	38.934213161468506	response	0	k		33.0	/experiments/Knapen_AOT/AOT_stimuli/pictures/0109_fw.png	107.96243834495544	
36	38.95042419433594	picture	0		93	34.0	/experiments/Knapen_AOT/AOT_stimuli/pictures/1964_fw.png	107.97864937782288	0.7833366394042969
36	39.71757173538208	response	0	k		34.0	/experiments/Knapen_AOT/AOT_stimuli/pictures/1964_fw.png	108.74579691886902	
37	39.733760833740234	picture	0		88	35.0	/experiments/Knapen_AOT/AOT_stimuli/pictures/1021_fw.png	108.76198601722717	0.7416825294494629
37	40.458919286727905	response	0	k		35.0	/experiments/Knapen_AOT/AOT_stimuli/pictures/1021_fw.png	109.48714447021484	
38	40.4754433631897	picture	0		85	36.0	/experiments/Knapen_AOT/AOT_stimuli/pictures/1193_fw.png	109.50366854667664	0.7121930122375488
38	41.16816449165344	response	0	j		36.0	/experiments/Knapen_AOT/AOT_stimuli/pictures/1193_fw.png	110.19638967514038	
39	41.187636375427246	picture	0		133	37.0	/experiments/Knapen_AOT/AOT_stimuli/pictures/0181_fw.png	110.21586155891418	1.1110749244689941
39	42.284189224243164	response	0	k		37.0	/experiments/Knapen_AOT/AOT_stimuli/pictures/0181_fw.png	111.3124144077301	
40	42.29871129989624	picture	0		152	38.0	/experiments/Knapen_AOT/AOT_stimuli/pictures/0398_fw.png	111.32693648338318	1.276768684387207
40	43.55904483795166	response	0	j		38.0	/experiments/Knapen_AOT/AOT_stimuli/pictures/0398_fw.png	112.5872700214386	
41	43.57547998428345	picture	0		106	39.0	/experiments/Knapen_AOT/AOT_stimuli/pictures/2077_fw.png	112.60370516777039	0.8916745185852051
41	44.450653314590454	response	0	j		39.0	/experiments/Knapen_AOT/AOT_stimuli/pictures/2077_fw.png	113.47887849807739	
42	44.46715450286865	picture	0		191	40.0	/experiments/Knapen_AOT/AOT_stimuli/pictures/1481_fw.png	113.49537968635559	1.5954341888427734
42	46.050689935684204	response	0	k		40.0	/experiments/Knapen_AOT/AOT_stimuli/pictures/1481_fw.png	115.07891511917114	
43	46.062588691711426	picture	0		87	41.0	/experiments/Knapen_AOT/AOT_stimuli/pictures/0136_fw.png	115.09081387519836	0.7295560836791992
43	46.78415584564209	response	0	j		41.0	/experiments/Knapen_AOT/AOT_stimuli/pictures/0136_fw.png	115.81238102912903	
44	46.792144775390625	picture	0		97	42.0	/experiments/Knapen_AOT/AOT_stimuli/pictures/2014_fw.png	115.82036995887756	0.8167226314544678
44	47.59238862991333	response	0	j		42.0	/experiments/Knapen_AOT/AOT_stimuli/pictures/2014_fw.png	116.62061381340027	
45	47.60886740684509	picture	0		335	43.0	/experiments/Knapen_AOT/AOT_stimuli/pictures/1765_fw.png	116.63709259033203	2.7939505577087402
45	50.39239454269409	response	0	k		43.0	/experiments/Knapen_AOT/AOT_stimuli/pictures/1765_fw.png	119.42061972618103	
46	50.40281796455383	picture	0		99	44.0	/experiments/Knapen_AOT/AOT_stimuli/pictures/1322_fw.png	119.43104314804077	0.8266346454620361
46	51.21746778488159	response	0	k		44.0	/experiments/Knapen_AOT/AOT_stimuli/pictures/1322_fw.png	120.24569296836853	
47	51.22945261001587	picture	0		115	45.0	/experiments/Knapen_AOT/AOT_stimuli/pictures/2003_fw.png	120.25767779350281	0.9651501178741455
47	52.17653131484985	response	0	k		45.0	/experiments/Knapen_AOT/AOT_stimuli/pictures/2003_fw.png	121.20475649833679	
48	52.194602727890015	picture	0		117	46.0	/experiments/Knapen_AOT/AOT_stimuli/pictures/1311_fw.png	121.22282791137695	0.9726288318634033
48	53.159111976623535	response	0	j		46.0	/experiments/Knapen_AOT/AOT_stimuli/pictures/1311_fw.png	122.18733716011047	
49	53.16723155975342	picture	0		91	47.0	/experiments/Knapen_AOT/AOT_stimuli/pictures/1282_fw.png	122.19545674324036	0.7667596340179443
49	53.9174907207489	response	0	j		47.0	/experiments/Knapen_AOT/AOT_stimuli/pictures/1282_fw.png	122.94571590423584	
50	53.93399119377136	picture	0		107	48.0	/experiments/Knapen_AOT/AOT_stimuli/pictures/1162_fw.png	122.9622163772583	0.8925559520721436
50	54.817492961883545	response	0	j		48.0	/experiments/Knapen_AOT/AOT_stimuli/pictures/1162_fw.png	123.84571814537048	
51	54.826547145843506	picture	0		110	49.0	/experiments/Knapen_AOT/AOT_stimuli/pictures/1492_fw.png	123.85477232933044	0.916717529296875
51	55.73419451713562	response	0	k		49.0	/experiments/Knapen_AOT/AOT_stimuli/pictures/1492_fw.png	124.76241970062256	
52	55.74326467514038	picture	0		107	50.0	/experiments/Knapen_AOT/AOT_stimuli/pictures/0512_fw.png	124.77148985862732	0.8957865238189697
52	56.62579131126404	response	0	j		50.0	/experiments/Knapen_AOT/AOT_stimuli/pictures/0512_fw.png	125.65401649475098	
53	56.63905119895935	picture	0		94	51.0	/experiments/Knapen_AOT/AOT_stimuli/pictures/2165_fw.png	125.66727638244629	0.78472900390625
53	57.409175634384155	response	0	j		51.0	/experiments/Knapen_AOT/AOT_stimuli/pictures/2165_fw.png	126.4374008178711	
54	57.4237802028656	picture	0		74	52.0	/experiments/Knapen_AOT/AOT_stimuli/pictures/2083_fw.png	126.45200538635254	0.625016450881958
54	58.034135818481445	response	0	j		52.0	/experiments/Knapen_AOT/AOT_stimuli/pictures/2083_fw.png	127.06236100196838	
55	58.04879665374756	picture	0		238	53.0	/experiments/Knapen_AOT/AOT_stimuli/pictures/2103_fw.png	127.0770218372345	1.9860105514526367
55	60.025861501693726	response	0	k		53.0	/experiments/Knapen_AOT/AOT_stimuli/pictures/2103_fw.png	129.05408668518066	
56	60.034807205200195	picture	0		112	54.0	/experiments/Knapen_AOT/AOT_stimuli/pictures/0879_fw.png	129.06303238868713	0.9376330375671387
56	60.95917558670044	response	0	k		54.0	/experiments/Knapen_AOT/AOT_stimuli/pictures/0879_fw.png	129.98740077018738	
57	60.972440242767334	picture	0		99	55.0	/experiments/Knapen_AOT/AOT_stimuli/pictures/1270_fw.png	130.00066542625427	0.83333420753479
57	61.79253029823303	response	0	j		55.0	/experiments/Knapen_AOT/AOT_stimuli/pictures/1270_fw.png	130.82075548171997	
58	61.805774450302124	picture	0		223	56.0	/experiments/Knapen_AOT/AOT_stimuli/pictures/0583_fw.png	130.83399963378906	1.8615844249725342
58	63.65925192832947	response	0	k		56.0	/experiments/Knapen_AOT/AOT_stimuli/pictures/0583_fw.png	132.6874771118164	
59	63.66735887527466	picture	0		105	57.0	/experiments/Knapen_AOT/AOT_stimuli/pictures/0268_fw.png	132.6955840587616	0.8750073909759521
59	64.5342481136322	response	0	k		57.0	/experiments/Knapen_AOT/AOT_stimuli/pictures/0268_fw.png	133.56247329711914	
60	64.54236626625061	picture	0		168	58.0	/experiments/Knapen_AOT/AOT_stimuli/pictures/2096_fw.png	133.57059144973755	1.4084267616271973
60	65.93428158760071	response	0	j		58.0	/experiments/Knapen_AOT/AOT_stimuli/pictures/2096_fw.png	134.96250677108765	
61	65.95079302787781	picture	0		92	59.0	/experiments/Knapen_AOT/AOT_stimuli/pictures/0466_fw.png	134.97901821136475	0.774968147277832
61	66.70925760269165	response	0	k		59.0	/experiments/Knapen_AOT/AOT_stimuli/pictures/0466_fw.png	135.7374827861786	
62	66.72576117515564	picture	0		135	60.0	/experiments/Knapen_AOT/AOT_stimuli/pictures/0734_fw.png	135.75398635864258	1.128664493560791
62	67.84265446662903	response	0	k		60.0	/experiments/Knapen_AOT/AOT_stimuli/pictures/0734_fw.png	136.87087965011597	
63	67.85442566871643	picture	0		161	61.0	/experiments/Knapen_AOT/AOT_stimuli/pictures/2026_fw.png	136.88265085220337	1.3402915000915527
63	69.18436694145203	response	0	j		61.0	/experiments/Knapen_AOT/AOT_stimuli/pictures/2026_fw.png	138.21259212493896	
64	69.19471716880798	picture	0		285	62.0	/experiments/Knapen_AOT/AOT_stimuli/pictures/1372_fw.png	138.22294235229492	2.3811187744140625
64	71.55944991111755	response	0	k		62.0	/experiments/Knapen_AOT/AOT_stimuli/pictures/1372_fw.png	140.5876750946045	
65	71.57583594322205	picture	0		165	63.0	/experiments/Knapen_AOT/AOT_stimuli/pictures/1329_fw.png	140.60406112670898	1.3758134841918945
65	72.942706823349	response	0	k		63.0	/experiments/Knapen_AOT/AOT_stimuli/pictures/1329_fw.png	141.97093200683594	
66	72.95164942741394	picture	0		99	64.0	/experiments/Knapen_AOT/AOT_stimuli/pictures/0244_fw.png	141.97987461090088	0.8264369964599609
66	73.76026964187622	response	0	k		64.0	/experiments/Knapen_AOT/AOT_stimuli/pictures/0244_fw.png	142.78849482536316	
67	73.7780864238739	picture	0		84	65.0	/experiments/Knapen_AOT/AOT_stimuli/pictures/1939_fw.png	142.80631160736084	0.7013630867004395
67	74.46772527694702	response	0	k		65.0	/experiments/Knapen_AOT/AOT_stimuli/pictures/1939_fw.png	143.49595046043396	
68	74.47944951057434	picture	0		140	66.0	/experiments/Knapen_AOT/AOT_stimuli/pictures/0783_fw.png	143.50767469406128	1.1666934490203857
68	75.63443231582642	response	0	k		66.0	/experiments/Knapen_AOT/AOT_stimuli/pictures/0783_fw.png	144.66265749931335	
69	75.64614295959473	picture	0		148	67.0	/experiments/Knapen_AOT/AOT_stimuli/pictures/0019_fw.png	144.67436814308167	1.23809814453125
69	76.86776518821716	response	0	j		67.0	/experiments/Knapen_AOT/AOT_stimuli/pictures/0019_fw.png	145.8959903717041	
70	76.88424110412598	picture	0		134	68.0	/experiments/Knapen_AOT/AOT_stimuli/pictures/1393_fw.png	145.91246628761292	1.116626501083374
70	77.99280595779419	response	0	k		68.0	/experiments/Knapen_AOT/AOT_stimuli/pictures/1393_fw.png	147.02103114128113	
71	78.00086760520935	picture	0		109	69.0	/experiments/Knapen_AOT/AOT_stimuli/pictures/2107_fw.png	147.0290927886963	0.9091815948486328
71	78.90111827850342	response	0	j		69.0	/experiments/Knapen_AOT/AOT_stimuli/pictures/2107_fw.png	147.92934346199036	
72	78.91004920005798	picture	0		172	70.0	/experiments/Knapen_AOT/AOT_stimuli/pictures/1387_fw.png	147.93827438354492	1.44089674949646
72	80.33449673652649	response	0	k		70.0	/experiments/Knapen_AOT/AOT_stimuli/pictures/1387_fw.png	149.36272192001343	
73	80.35094594955444	picture	0		95	71.0	/experiments/Knapen_AOT/AOT_stimuli/pictures/0098_fw.png	149.37917113304138	0.7999753952026367
73	81.13444781303406	response	0	k		71.0	/experiments/Knapen_AOT/AOT_stimuli/pictures/0098_fw.png	150.162672996521	
74	81.15092134475708	picture	0		91	72.0	/experiments/Knapen_AOT/AOT_stimuli/pictures/1789_fw.png	150.17914652824402	0.766714334487915
74	81.90124034881592	response	0	j		72.0	/experiments/Knapen_AOT/AOT_stimuli/pictures/1789_fw.png	150.92946553230286	
75	81.917635679245	picture	0		105	73.0	/experiments/Knapen_AOT/AOT_stimuli/pictures/1797_fw.png	150.94586086273193	0.8833212852478027
75	82.78452658653259	response	0	k		73.0	/experiments/Knapen_AOT/AOT_stimuli/pictures/1797_fw.png	151.81275177001953	
76	82.8009569644928	picture	0		141	74.0	/experiments/Knapen_AOT/AOT_stimuli/pictures/1582_fw.png	151.82918214797974	1.1786000728607178
76	83.96098494529724	response	0	j		74.0	/experiments/Knapen_AOT/AOT_stimuli/pictures/1582_fw.png	152.98921012878418	
77	83.97955703735352	picture	0		131	75.0	/experiments/Knapen_AOT/AOT_stimuli/pictures/0954_fw.png	153.00778222084045	1.0972342491149902
77	85.06787776947021	response	0	k		75.0	/experiments/Knapen_AOT/AOT_stimuli/pictures/0954_fw.png	154.09610295295715	
78	85.0767912864685	picture	0		120	76.0	/experiments/Knapen_AOT/AOT_stimuli/pictures/1847_fw.png	154.10501646995544	1.007544994354248
78	86.06783556938171	response	0	k		76.0	/experiments/Knapen_AOT/AOT_stimuli/pictures/1847_fw.png	155.09606075286865	
79	86.08433628082275	picture	0		102	77.0	/experiments/Knapen_AOT/AOT_stimuli/pictures/0454_fw.png	155.1125614643097	0.8536584377288818
79	86.92617988586426	response	0	k		77.0	/experiments/Knapen_AOT/AOT_stimuli/pictures/0454_fw.png	155.9544050693512	
80	86.93799471855164	picture	0		137	78.0	/experiments/Knapen_AOT/AOT_stimuli/pictures/1829_fw.png	155.96621990203857	1.138824701309204
80	88.06786918640137	response	0	k		78.0	/experiments/Knapen_AOT/AOT_stimuli/pictures/1829_fw.png	157.0960943698883	
81	88.07681941986084	picture	0		90	79.0	/experiments/Knapen_AOT/AOT_stimuli/pictures/1254_fw.png	157.10504460334778	0.7500450611114502
81	88.81799077987671	response	0	j		79.0	/experiments/Knapen_AOT/AOT_stimuli/pictures/1254_fw.png	157.84621596336365	
82	88.82686448097229	picture	0		128	80.0	/experiments/Knapen_AOT/AOT_stimuli/pictures/1745_fw.png	157.85508966445923	1.074211597442627
82	89.88454675674438	response	0	j		80.0	/experiments/Knapen_AOT/AOT_stimuli/pictures/1745_fw.png	158.91277194023132	
83	89.90107607841492	picture	0		133	81.0	/experiments/Knapen_AOT/AOT_stimuli/pictures/2032_fw.png	158.92930126190186	1.113236904144287
83	91.0012309551239	response	0	k		81.0	/experiments/Knapen_AOT/AOT_stimuli/pictures/2032_fw.png	160.02945613861084	
84	91.0143129825592	picture	0		196	82.0	/experiments/Knapen_AOT/AOT_stimuli/pictures/1518_fw.png	160.04253816604614	1.6318690776824951
84	92.6345911026001	response	0	k		82.0	/experiments/Knapen_AOT/AOT_stimuli/pictures/1518_fw.png	161.66281628608704	
85	92.6461820602417	picture	0		95	83.0	/experiments/Knapen_AOT/AOT_stimuli/pictures/1734_fw.png	161.67440724372864	0.7917478084564209
85	93.42628169059753	response	0	k		83.0	/experiments/Knapen_AOT/AOT_stimuli/pictures/1734_fw.png	162.45450687408447	
86	93.43792986869812	picture	0		93	84.0	/experiments/Knapen_AOT/AOT_stimuli/pictures/1940_fw.png	162.46615505218506	0.7778372764587402
86	94.20130681991577	response	0	j		84.0	/experiments/Knapen_AOT/AOT_stimuli/pictures/1940_fw.png	163.2295320034027	
87	94.21576714515686	picture	0		109	85.0	/experiments/Knapen_AOT/AOT_stimuli/pictures/0939_fw.png	163.2439923286438	0.9166431427001953
87	95.1180624961853	response	0	j		85.0	/experiments/Knapen_AOT/AOT_stimuli/pictures/0939_fw.png	164.14628767967224	
88	95.13241028785706	picture	0		129	86.0	/experiments/Knapen_AOT/AOT_stimuli/pictures/1991_fw.png	164.160635471344	1.0854098796844482
88	96.20148015022278	response	0	k		86.0	/experiments/Knapen_AOT/AOT_stimuli/pictures/1991_fw.png	165.22970533370972	
89	96.2178201675415	picture	0		99	87.0	/experiments/Knapen_AOT/AOT_stimuli/pictures/0873_fw.png	165.24604535102844	0.831282377243042
89	97.03470253944397	response	0	j		87.0	/experiments/Knapen_AOT/AOT_stimuli/pictures/0873_fw.png	166.0629277229309	
90	97.04910254478455	picture	0		111	88.0	/experiments/Knapen_AOT/AOT_stimuli/pictures/1432_fw.png	166.07732772827148	0.9353742599487305
90	97.96141266822815	response	0	k		88.0	/experiments/Knapen_AOT/AOT_stimuli/pictures/1432_fw.png	166.9896378517151	
91	97.98447680473328	picture	0		131	89.0	/experiments/Knapen_AOT/AOT_stimuli/pictures/0835_fw.png	167.01270198822021	1.0924193859100342
91	99.06803393363953	response	0	j		89.0	/experiments/Knapen_AOT/AOT_stimuli/pictures/0835_fw.png	168.09625911712646	
92	99.07689619064331	picture	0		159	90.0	/experiments/Knapen_AOT/AOT_stimuli/pictures/1689_fw.png	168.10512137413025	1.3264262676239014
92	100.39312267303467	response	0	k		90.0	/experiments/Knapen_AOT/AOT_stimuli/pictures/1689_fw.png	169.4213478565216	
93	100.40332245826721	picture	0		94	91.0	/experiments/Knapen_AOT/AOT_stimuli/pictures/0334_fw.png	169.43154764175415	0.7847774028778076
93	101.1764144897461	response	0	j		91.0	/experiments/Knapen_AOT/AOT_stimuli/pictures/0334_fw.png	170.20463967323303	
94	101.18809986114502	picture	0		107	92.0	/experiments/Knapen_AOT/AOT_stimuli/pictures/2051_fw.png	170.21632504463196	0.8964097499847412
94	102.06802201271057	response	0	k		92.0	/experiments/Knapen_AOT/AOT_stimuli/pictures/2051_fw.png	171.0962471961975	
95	102.08450961112976	picture	0		105	93.0	/experiments/Knapen_AOT/AOT_stimuli/pictures/1677_fw.png	171.1127347946167	0.8750529289245605
95	102.9514229297638	response	0	k		93.0	/experiments/Knapen_AOT/AOT_stimuli/pictures/1677_fw.png	171.97964811325073	
96	102.95956254005432	picture	0		124	94.0	/experiments/Knapen_AOT/AOT_stimuli/pictures/1430_fw.png	171.98778772354126	1.0340306758880615
96	103.98475170135498	response	0	j		94.0	/experiments/Knapen_AOT/AOT_stimuli/pictures/1430_fw.png	173.01297688484192	
97	103.99359321594238	picture	0		151	95.0	/experiments/Knapen_AOT/AOT_stimuli/pictures/0671_fw.png	173.02181839942932	1.2659857273101807
97	105.2431149482727	response	0	j		95.0	/experiments/Knapen_AOT/AOT_stimuli/pictures/0671_fw.png	174.27134013175964	
98	105.25957894325256	picture	0		95	96.0	/experiments/Knapen_AOT/AOT_stimuli/pictures/1726_fw.png	174.2878041267395	0.7964901924133301
98	106.04308080673218	response	0	j		96.0	/experiments/Knapen_AOT/AOT_stimuli/pictures/1726_fw.png	175.07130599021912	
99	106.0560691356659	picture	0		114	97.0	/experiments/Knapen_AOT/AOT_stimuli/pictures/0234_fw.png	175.08429431915283	0.9514036178588867
99	106.99312973022461	response	0	k		97.0	/experiments/Knapen_AOT/AOT_stimuli/pictures/0234_fw.png	176.02135491371155	
100	107.00747275352478	picture	0		164	98.0	/experiments/Knapen_AOT/AOT_stimuli/pictures/1190_fw.png	176.03569793701172	1.3749456405639648
100	108.36860632896423	response	0	j		98.0	/experiments/Knapen_AOT/AOT_stimuli/pictures/1190_fw.png	177.39683151245117	
101	108.38241839408875	picture	0		89	99.0	/experiments/Knapen_AOT/AOT_stimuli/pictures/1811_fw.png	177.41064357757568	0.7522132396697998
101	109.11813163757324	response	0	j		99.0	/experiments/Knapen_AOT/AOT_stimuli/pictures/1811_fw.png	178.14635682106018	
102	109.13463163375854	picture	0		86	100.0	/experiments/Knapen_AOT/AOT_stimuli/pictures/0605_fw.png	178.16285681724548	0.7200815677642822
102	109.84314918518066	response	0	j		100.0	/experiments/Knapen_AOT/AOT_stimuli/pictures/0605_fw.png	178.8713743686676	
103	109.85471320152283	picture	0		91	101.0	/experiments/Knapen_AOT/AOT_stimuli/pictures/0963_fw.png	178.88293838500977	0.7569503784179688
103	110.60148215293884	response	0	k		101.0	/experiments/Knapen_AOT/AOT_stimuli/pictures/0963_fw.png	179.62970733642578	
104	110.6116635799408	picture	0		101	102.0	/experiments/Knapen_AOT/AOT_stimuli/pictures/0546_fw.png	179.63988876342773	0.8480494022369385
104	111.44314122200012	response	0	k		102.0	/experiments/Knapen_AOT/AOT_stimuli/pictures/0546_fw.png	180.47136640548706	
105	111.45971298217773	picture	0		154	103.0	/experiments/Knapen_AOT/AOT_stimuli/pictures/1693_fw.png	180.48793816566467	1.291597604751587
105	112.73484134674072	response	0	k		103.0	/experiments/Knapen_AOT/AOT_stimuli/pictures/1693_fw.png	181.76306653022766	
106	112.75131058692932	picture	0		105	104.0	/experiments/Knapen_AOT/AOT_stimuli/pictures/1467_fw.png	181.77953577041626	0.8833630084991455
106	113.6182210445404	response	0	k		104.0	/experiments/Knapen_AOT/AOT_stimuli/pictures/1467_fw.png	182.64644622802734	
107	113.63467359542847	picture	0		146	105.0	/experiments/Knapen_AOT/AOT_stimuli/pictures/1364_fw.png	182.6628987789154	1.2200846672058105
107	114.84320974349976	response	0	k		105.0	/experiments/Knapen_AOT/AOT_stimuli/pictures/1364_fw.png	183.8714349269867	
108	114.85475826263428	picture	0		106	106.0	/experiments/Knapen_AOT/AOT_stimuli/pictures/0053_fw.png	183.88298344612122	0.8883056640625
108	115.72688126564026	response	0	k		106.0	/experiments/Knapen_AOT/AOT_stimuli/pictures/0053_fw.png	184.7551064491272	
109	115.74306392669678	picture	0		132	107.0	/experiments/Knapen_AOT/AOT_stimuli/pictures/0722_fw.png	184.77128911018372	1.1083555221557617
109	116.8350567817688	response	0	j		107.0	/experiments/Knapen_AOT/AOT_stimuli/pictures/0722_fw.png	185.86328196525574	
110	116.85141944885254	picture	0		104	108.0	/experiments/Knapen_AOT/AOT_stimuli/pictures/0965_fw.png	185.87964463233948	0.8714957237243652
110	117.70992827415466	response	0	k		108.0	/experiments/Knapen_AOT/AOT_stimuli/pictures/0965_fw.png	186.7381534576416	
111	117.7229151725769	picture	0		165	109.0	/experiments/Knapen_AOT/AOT_stimuli/pictures/1007_fw.png	186.75114035606384	1.3748369216918945
111	119.0849289894104	response	0	k		109.0	/experiments/Knapen_AOT/AOT_stimuli/pictures/1007_fw.png	188.11315417289734	
112	119.0977520942688	picture	0		124	110.0	/experiments/Knapen_AOT/AOT_stimuli/pictures/0445_fw.png	188.12597727775574	1.0453529357910156
112	120.12659859657288	response	0	k		110.0	/experiments/Knapen_AOT/AOT_stimuli/pictures/0445_fw.png	189.15482378005981	
113	120.14310503005981	picture	0		102	111.0	/experiments/Knapen_AOT/AOT_stimuli/pictures/1233_fw.png	189.17133021354675	0.8506133556365967
113	120.98494839668274	response	0	k		111.0	/experiments/Knapen_AOT/AOT_stimuli/pictures/1233_fw.png	190.01317358016968	
114	120.99371838569641	picture	0		92	112.0	/experiments/Knapen_AOT/AOT_stimuli/pictures/0980_fw.png	190.02194356918335	0.7708256244659424
114	121.75162291526794	response	0	j		112.0	/experiments/Knapen_AOT/AOT_stimuli/pictures/0980_fw.png	190.77984809875488	
115	121.76454401016235	picture	0		131	113.0	/experiments/Knapen_AOT/AOT_stimuli/pictures/1755_fw.png	190.7927691936493	1.0902621746063232
115	122.8433210849762	response	0	j		113.0	/experiments/Knapen_AOT/AOT_stimuli/pictures/1755_fw.png	191.87154626846313	
116	122.85480618476868	picture	0		193	114.0	/experiments/Knapen_AOT/AOT_stimuli/pictures/0336_fw.png	191.88303136825562	1.6110594272613525
116	124.45166230201721	response	0	j		114.0	/experiments/Knapen_AOT/AOT_stimuli/pictures/0336_fw.png	193.47988748550415	
117	124.46586561203003	picture	0		83	115.0	/experiments/Knapen_AOT/AOT_stimuli/pictures/1632_fw.png	193.49409079551697	0.7022726535797119
117	125.14443016052246	response	0	j		115.0	/experiments/Knapen_AOT/AOT_stimuli/pictures/1632_fw.png	194.1726553440094	
118	125.16813826560974	picture	0		119	116.0	/experiments/Knapen_AOT/AOT_stimuli/pictures/1575_fw.png	194.19636344909668	0.9922559261322021
118	126.14507937431335	response	0	k		116.0	/experiments/Knapen_AOT/AOT_stimuli/pictures/1575_fw.png	195.1733045578003	
119	126.16039419174194	picture	0		106	117.0	/experiments/Knapen_AOT/AOT_stimuli/pictures/0711_fw.png	195.18861937522888	0.8889234066009521
119	127.03505825996399	response	0	k		117.0	/experiments/Knapen_AOT/AOT_stimuli/pictures/0711_fw.png	196.06328344345093	
120	127.0493175983429	picture	0		108	118.0	/experiments/Knapen_AOT/AOT_stimuli/pictures/0981_fw.png	196.07754278182983	0.9027566909790039
120	127.93667960166931	response	0	k		118.0	/experiments/Knapen_AOT/AOT_stimuli/pictures/0981_fw.png	196.96490478515625	
121	127.9520742893219	picture	0		120	119.0	/experiments/Knapen_AOT/AOT_stimuli/pictures/0649_fw.png	196.98029947280884	1.0000038146972656
121	128.93714213371277	response	0	j		119.0	/experiments/Knapen_AOT/AOT_stimuli/pictures/0649_fw.png	197.9653673171997	
122	128.95207810401917	picture	0		118	120.0	/experiments/Knapen_AOT/AOT_stimuli/pictures/1442_fw.png	197.9803032875061	0.9911293983459473
122	129.92671942710876	response	0	k		120.0	/experiments/Knapen_AOT/AOT_stimuli/pictures/1442_fw.png	198.9549446105957	
123	129.9432075023651	picture	0		90	121.0	/experiments/Knapen_AOT/AOT_stimuli/pictures/0601_fw.png	198.97143268585205	0.751957893371582
123	130.68500399589539	response	0	j		121.0	/experiments/Knapen_AOT/AOT_stimuli/pictures/0601_fw.png	199.71322917938232	
124	130.6951653957367	picture	0		78	122.0	/experiments/Knapen_AOT/AOT_stimuli/pictures/1850_fw.png	199.72339057922363	0.65274977684021
124	131.3350124359131	response	0	j		122.0	/experiments/Knapen_AOT/AOT_stimuli/pictures/1850_fw.png	200.36323761940002	
125	131.3479151725769	picture	0		98	123.0	/experiments/Knapen_AOT/AOT_stimuli/pictures/1431_fw.png	200.37614035606384	0.8264286518096924
125	132.16034412384033	response	0	k		123.0	/experiments/Knapen_AOT/AOT_stimuli/pictures/1431_fw.png	201.18856930732727	
126	132.1743438243866	picture	0		141	124.0	/experiments/Knapen_AOT/AOT_stimuli/pictures/0034_fw.png	201.20256900787354	1.180562973022461
126	133.34343028068542	response	0	k		124.0	/experiments/Knapen_AOT/AOT_stimuli/pictures/0034_fw.png	202.37165546417236	
127	133.35490679740906	picture	0		117	125.0	/experiments/Knapen_AOT/AOT_stimuli/pictures/0631_fw.png	202.383131980896	0.9800248146057129
127	134.31866765022278	response	0	j		125.0	/experiments/Knapen_AOT/AOT_stimuli/pictures/0631_fw.png	203.34689283370972	
128	134.33493161201477	picture	0		79	126.0	/experiments/Knapen_AOT/AOT_stimuli/pictures/1278_fw.png	203.3631567955017	0.6588435173034668
128	134.98510098457336	response	0	j		126.0	/experiments/Knapen_AOT/AOT_stimuli/pictures/1278_fw.png	204.0133261680603	
129	134.99377512931824	picture	0		93	127.0	/experiments/Knapen_AOT/AOT_stimuli/pictures/0898_fw.png	204.02200031280518	0.7777669429779053
129	135.7602665424347	response	0	j		127.0	/experiments/Knapen_AOT/AOT_stimuli/pictures/0898_fw.png	204.78849172592163	
130	135.77154207229614	picture	0		109	128.0	/experiments/Knapen_AOT/AOT_stimuli/pictures/2075_fw.png	204.79976725578308	0.9097974300384521
130	136.6684069633484	response	0	j		128.0	/experiments/Knapen_AOT/AOT_stimuli/pictures/2075_fw.png	205.69663214683533	
131	136.6813395023346	picture	0		99	129.0	/experiments/Knapen_AOT/AOT_stimuli/pictures/2002_fw.png	205.70956468582153	0.8287184238433838
131	137.4935576915741	response	0	k		129.0	/experiments/Knapen_AOT/AOT_stimuli/pictures/2002_fw.png	206.52178287506104	
132	137.51005792617798	picture	0		124	130.0	/experiments/Knapen_AOT/AOT_stimuli/pictures/1474_fw.png	206.53828310966492	1.0415985584259033
132	138.53513407707214	response	0	k		130.0	/experiments/Knapen_AOT/AOT_stimuli/pictures/1474_fw.png	207.56335926055908	
133	138.55165648460388	picture	0		91	131.0	/experiments/Knapen_AOT/AOT_stimuli/pictures/1312_fw.png	207.57988166809082	0.7666764259338379
133	139.30177569389343	response	0	k		131.0	/experiments/Knapen_AOT/AOT_stimuli/pictures/1312_fw.png	208.33000087738037	
134	139.31833291053772	picture	0		114	132.0	/experiments/Knapen_AOT/AOT_stimuli/pictures/0309_fw.png	208.34655809402466	0.9533116817474365
134	140.26016807556152	response	0	j		132.0	/experiments/Knapen_AOT/AOT_stimuli/pictures/0309_fw.png	209.28839325904846	
135	140.27164459228516	picture	0		252	133.0	/experiments/Knapen_AOT/AOT_stimuli/pictures/1663_fw.png	209.2998697757721	2.1050570011138916
135	142.36047196388245	response	0	k		133.0	/experiments/Knapen_AOT/AOT_stimuli/pictures/1663_fw.png	211.38869714736938	
136	142.37670159339905	picture	0		98	134.0	/experiments/Knapen_AOT/AOT_stimuli/pictures/0563_fw.png	211.404926776886	0.825002908706665
136	143.18529176712036	response	0	j		134.0	/experiments/Knapen_AOT/AOT_stimuli/pictures/0563_fw.png	212.2135169506073	
137	143.2017045021057	picture	0		89	135.0	/experiments/Knapen_AOT/AOT_stimuli/pictures/1022_fw.png	212.22992968559265	0.7500622272491455
137	143.93540692329407	response	0	j		135.0	/experiments/Knapen_AOT/AOT_stimuli/pictures/1022_fw.png	212.963632106781	
138	143.95176672935486	picture	0		345	136.0	/experiments/Knapen_AOT/AOT_stimuli/pictures/1572_fw.png	212.9799919128418	2.883375883102417
138	146.8186812400818	response	0	j		136.0	/experiments/Knapen_AOT/AOT_stimuli/pictures/1572_fw.png	215.84690642356873	
139	146.83514261245728	picture	0		92	137.0	/experiments/Knapen_AOT/AOT_stimuli/pictures/0699_fw.png	215.8633677959442	0.7698662281036377
139	147.59361481666565	response	0	k		137.0	/experiments/Knapen_AOT/AOT_stimuli/pictures/0699_fw.png	216.6218400001526	
140	147.6050088405609	picture	0		132	138.0	/experiments/Knapen_AOT/AOT_stimuli/pictures/0553_fw.png	216.63323402404785	1.0972177982330322
140	148.69356560707092	response	0	j		138.0	/experiments/Knapen_AOT/AOT_stimuli/pictures/0553_fw.png	217.72179079055786	
141	148.70222663879395	picture	0		89	139.0	/experiments/Knapen_AOT/AOT_stimuli/pictures/1457_fw.png	217.73045182228088	0.743067741394043
141	149.43529105186462	response	0	j		139.0	/experiments/Knapen_AOT/AOT_stimuli/pictures/1457_fw.png	218.46351623535156	
142	149.445294380188	picture	0		89	140.0	/experiments/Knapen_AOT/AOT_stimuli/pictures/0085_fw.png	218.47351956367493	0.743065357208252
142	150.17693209648132	response	0	j		140.0	/experiments/Knapen_AOT/AOT_stimuli/pictures/0085_fw.png	219.20515727996826	
143	150.18835973739624	picture	0		106	141.0	/experiments/Knapen_AOT/AOT_stimuli/pictures/1659_fw.png	219.21658492088318	0.8884491920471191
143	151.06027126312256	response	0	j		141.0	/experiments/Knapen_AOT/AOT_stimuli/pictures/1659_fw.png	220.0884964466095	
144	151.07680892944336	picture	0		116	142.0	/experiments/Knapen_AOT/AOT_stimuli/pictures/0867_fw.png	220.1050341129303	1.104623794555664
144	152.16867637634277	response	0	k		142.0	/experiments/Knapen_AOT/AOT_stimuli/pictures/0867_fw.png	221.1969015598297	
145	152.18143272399902	picture	0		110	143.0	/experiments/Knapen_AOT/AOT_stimuli/pictures/0749_fw.png	221.20965790748596	0.9166615009307861
145	153.08535814285278	response	0	j		143.0	/experiments/Knapen_AOT/AOT_stimuli/pictures/0749_fw.png	222.11358332633972	
146	153.0980942249298	picture	0		133	144.0	/experiments/Knapen_AOT/AOT_stimuli/pictures/1411_fw.png	222.12631940841675	1.1041538715362549
146	154.19372248649597	response	0	k		144.0	/experiments/Knapen_AOT/AOT_stimuli/pictures/1411_fw.png	223.2219476699829	
147	154.20224809646606	picture	0		110	145.0	/experiments/Knapen_AOT/AOT_stimuli/pictures/1944_fw.png	223.230473279953	0.9245939254760742
147	155.11039996147156	response	0	k		145.0	/experiments/Knapen_AOT/AOT_stimuli/pictures/1944_fw.png	224.1386251449585	
148	155.12684202194214	picture	0		188	146.0	/experiments/Knapen_AOT/AOT_stimuli/pictures/1887_fw.png	224.15506720542908	1.5750534534454346
148	156.68539810180664	response	0	k		146.0	/experiments/Knapen_AOT/AOT_stimuli/pictures/1887_fw.png	225.71362328529358	
149	156.70189547538757	picture	0		290	147.0	/experiments/Knapen_AOT/AOT_stimuli/pictures/1551_fw.png	225.7301206588745	2.425008773803711
149	159.1105978488922	response	0	k		147.0	/experiments/Knapen_AOT/AOT_stimuli/pictures/1551_fw.png	228.13882303237915	
150	159.12690424919128	picture	0		93	148.0	/experiments/Knapen_AOT/AOT_stimuli/pictures/0747_fw.png	228.15512943267822	0.7768137454986572
150	159.89376401901245	response	0	k		148.0	/experiments/Knapen_AOT/AOT_stimuli/pictures/0747_fw.png	228.9219892024994	
151	159.90371799468994	picture	0		177	149.0	/experiments/Knapen_AOT/AOT_stimuli/pictures/0534_fw.png	228.93194317817688	1.4815654754638672
151	161.36899709701538	response	0	k		149.0	/experiments/Knapen_AOT/AOT_stimuli/pictures/0534_fw.png	230.39722228050232	
152	161.3852834701538	picture	0		289	150.0	/experiments/Knapen_AOT/AOT_stimuli/pictures/1365_fw.png	230.41350865364075	2.4141933917999268
152	163.78549933433533	response	0	k		150.0	/experiments/Knapen_AOT/AOT_stimuli/pictures/1365_fw.png	232.81372451782227	
153	163.79947686195374	picture	0		90	151.0	/experiments/Knapen_AOT/AOT_stimuli/pictures/2178_fw.png	232.82770204544067	0.7570269107818604
153	164.53714060783386	response	0	k		151.0	/experiments/Knapen_AOT/AOT_stimuli/pictures/2178_fw.png	233.5653657913208	
154	164.5565037727356	picture	0		164	152.0	/experiments/Knapen_AOT/AOT_stimuli/pictures/1798_fw.png	233.58472895622253	1.3705415725708008
154	165.91051721572876	response	0	k		152.0	/experiments/Knapen_AOT/AOT_stimuli/pictures/1798_fw.png	234.9387423992157	
155	165.9270453453064	picture	0		102	153.0	/experiments/Knapen_AOT/AOT_stimuli/pictures/1201_fw.png	234.95527052879333	0.8517324924468994
155	166.76901721954346	response	0	k		153.0	/experiments/Knapen_AOT/AOT_stimuli/pictures/1201_fw.png	235.7972424030304	
156	166.7787778377533	picture	0		117	154.0	/experiments/Knapen_AOT/AOT_stimuli/pictures/0994_fw.png	235.80700302124023	0.981562614440918
156	167.73727321624756	response	0	j		154.0	/experiments/Knapen_AOT/AOT_stimuli/pictures/0994_fw.png	236.7654983997345	
157	167.7603404521942	picture	0		175	155.0	/experiments/Knapen_AOT/AOT_stimuli/pictures/0636_fw.png	236.78856563568115	1.46669602394104
157	169.21054196357727	response	0	j		155.0	/experiments/Knapen_AOT/AOT_stimuli/pictures/0636_fw.png	238.2387671470642	
158	169.22703647613525	picture	0		160	156.0	/experiments/Knapen_AOT/AOT_stimuli/pictures/1837_fw.png	238.2552616596222	1.3363888263702393
158	170.55251502990723	response	0	k		156.0	/experiments/Knapen_AOT/AOT_stimuli/pictures/1837_fw.png	239.58074021339417	
159	170.5634253025055	picture	0		135	157.0	/experiments/Knapen_AOT/AOT_stimuli/pictures/0352_fw.png	239.59165048599243	1.125077486038208
159	171.6773030757904	response	0	j		157.0	/experiments/Knapen_AOT/AOT_stimuli/pictures/0352_fw.png	240.70552825927734	
160	171.6885027885437	picture	0		128	158.0	/experiments/Knapen_AOT/AOT_stimuli/pictures/2164_fw.png	240.71672797203064	1.0719010829925537
160	172.73637104034424	response	0	k		158.0	/experiments/Knapen_AOT/AOT_stimuli/pictures/2164_fw.png	241.76459622383118	
161	172.76040387153625	picture	0		217	159.0	/experiments/Knapen_AOT/AOT_stimuli/pictures/0971_fw.png	241.7886290550232	1.8169093132019043
161	174.5609107017517	response	0	k		159.0	/experiments/Knapen_AOT/AOT_stimuli/pictures/0971_fw.png	243.58913588523865	
162	174.57731318473816	picture	0		103	160.0	/experiments/Knapen_AOT/AOT_stimuli/pictures/1168_fw.png	243.6055383682251	0.8612513542175293
162	175.42733454704285	response	0	k		160.0	/experiments/Knapen_AOT/AOT_stimuli/pictures/1168_fw.png	244.45555973052979	
163	175.4385645389557	picture	0		105	161.0	/experiments/Knapen_AOT/AOT_stimuli/pictures/1670_fw.png	244.46678972244263	0.875
163	176.30231738090515	response	0	k		161.0	/experiments/Knapen_AOT/AOT_stimuli/pictures/1670_fw.png	245.3305425643921	
164	176.3135645389557	picture	0		105	162.0	/experiments/Knapen_AOT/AOT_stimuli/pictures/1994_fw.png	245.34178972244263	0.8802731037139893
164	177.17735052108765	response	0	k		162.0	/experiments/Knapen_AOT/AOT_stimuli/pictures/1994_fw.png	246.20557570457458	
165	177.19383764266968	picture	0		104	163.0	/experiments/Knapen_AOT/AOT_stimuli/pictures/1560_fw.png	246.22206282615662	0.8697445392608643
165	178.05233240127563	response	0	j		163.0	/experiments/Knapen_AOT/AOT_stimuli/pictures/1560_fw.png	247.08055758476257	
166	178.06358218193054	picture	0		110	164.0	/experiments/Knapen_AOT/AOT_stimuli/pictures/0672_fw.png	247.09180736541748	0.9166698455810547
166	178.96902990341187	response	0	k		164.0	/experiments/Knapen_AOT/AOT_stimuli/pictures/0672_fw.png	247.9972550868988	
167	178.9802520275116	picture	0		94	165.0	/experiments/Knapen_AOT/AOT_stimuli/pictures/0604_fw.png	248.00847721099854	0.7847146987915039
167	179.7450180053711	response	0	j		165.0	/experiments/Knapen_AOT/AOT_stimuli/pictures/0604_fw.png	248.77324318885803	
168	179.7649667263031	picture	0		92	166.0	/experiments/Knapen_AOT/AOT_stimuli/pictures/1174_fw.png	248.79319190979004	0.7705521583557129
168	180.51906299591064	response	0	j		166.0	/experiments/Knapen_AOT/AOT_stimuli/pictures/1174_fw.png	249.54728817939758	
169	180.5355188846588	picture	0		130	167.0	/experiments/Knapen_AOT/AOT_stimuli/pictures/0274_fw.png	249.56374406814575	1.0916459560394287
169	181.61069869995117	response	0	k		167.0	/experiments/Knapen_AOT/AOT_stimuli/pictures/0274_fw.png	250.6389238834381	
170	181.62716484069824	picture	0		116	168.0	/experiments/Knapen_AOT/AOT_stimuli/pictures/1434_fw.png	250.65539002418518	0.9711146354675293
170	182.58570742607117	response	0	k		168.0	/experiments/Knapen_AOT/AOT_stimuli/pictures/1434_fw.png	251.6139326095581	
171	182.59827947616577	picture	0		182	169.0	/experiments/Knapen_AOT/AOT_stimuli/pictures/0451_fw.png	251.6265046596527	1.5207388401031494
171	184.1107108592987	response	0	k		169.0	/experiments/Knapen_AOT/AOT_stimuli/pictures/0451_fw.png	253.13893604278564	
172	184.11901831626892	picture	0		116	170.0	/experiments/Knapen_AOT/AOT_stimuli/pictures/0438_fw.png	253.14724349975586	0.9723508358001709
172	185.07741379737854	response	0	k		170.0	/experiments/Knapen_AOT/AOT_stimuli/pictures/0438_fw.png	254.10563898086548	
173	185.0913691520691	picture	0		220	171.0	/experiments/Knapen_AOT/AOT_stimuli/pictures/0595_fw.png	254.11959433555603	1.8402013778686523
173	186.9191083908081	response	0	k		171.0	/experiments/Knapen_AOT/AOT_stimuli/pictures/0595_fw.png	255.94733357429504	
174	186.93157052993774	picture	0		81	172.0	/experiments/Knapen_AOT/AOT_stimuli/pictures/0914_fw.png	255.95979571342468	0.6790292263031006
174	187.5941195487976	response	0	j		172.0	/experiments/Knapen_AOT/AOT_stimuli/pictures/0914_fw.png	256.62234473228455	
175	187.61059975624084	picture	0		113	173.0	/experiments/Knapen_AOT/AOT_stimuli/pictures/1094_fw.png	256.6388249397278	0.9461119174957275
175	188.54411339759827	response	0	k		173.0	/experiments/Knapen_AOT/AOT_stimuli/pictures/1094_fw.png	257.5723385810852	
176	188.55671167373657	picture	0		295	174.0	/experiments/Knapen_AOT/AOT_stimuli/pictures/1355_fw.png	257.5849368572235	2.458218812942505
176	191.00248050689697	response	0	j		174.0	/experiments/Knapen_AOT/AOT_stimuli/pictures/1355_fw.png	260.0307056903839	
177	191.01493048667908	picture	0		110	175.0	/experiments/Knapen_AOT/AOT_stimuli/pictures/1702_fw.png	260.043155670166	0.9237213134765625
177	191.9275438785553	response	0	k		175.0	/experiments/Knapen_AOT/AOT_stimuli/pictures/1702_fw.png	260.95576906204224	
178	191.93865180015564	picture	0		107	176.0	/experiments/Knapen_AOT/AOT_stimuli/pictures/0886_fw.png	260.9668769836426	0.8889272212982178
178	192.8192219734192	response	0	j		176.0	/experiments/Knapen_AOT/AOT_stimuli/pictures/0886_fw.png	261.8474471569061	
179	192.82757902145386	picture	0		96	177.0	/experiments/Knapen_AOT/AOT_stimuli/pictures/1054_fw.png	261.8558042049408	0.8055191040039062
179	193.61919593811035	response	0	k		177.0	/experiments/Knapen_AOT/AOT_stimuli/pictures/1054_fw.png	262.6474211215973	
180	193.63309812545776	picture	0		148	178.0	/experiments/Knapen_AOT/AOT_stimuli/pictures/0735_fw.png	262.6613233089447	1.244232177734375
180	194.86084651947021	response	0	k		178.0	/experiments/Knapen_AOT/AOT_stimuli/pictures/0735_fw.png	263.88907170295715	
181	194.87733030319214	picture	0		105	179.0	/experiments/Knapen_AOT/AOT_stimuli/pictures/0518_fw.png	263.9055554866791	0.8808498382568359
181	195.73753690719604	response	0	k		179.0	/experiments/Knapen_AOT/AOT_stimuli/pictures/0518_fw.png	264.765762090683	
182	195.75818014144897	picture	0		89	180.0	/experiments/Knapen_AOT/AOT_stimuli/pictures/0071_fw.png	264.7864053249359	0.7499525547027588
182	196.49424743652344	response	0	k		180.0	/experiments/Knapen_AOT/AOT_stimuli/pictures/0071_fw.png	265.5224726200104	
183	196.50813269615173	picture	0		108	181.0	/experiments/Knapen_AOT/AOT_stimuli/pictures/1617_fw.png	265.5363578796387	0.9109106063842773
183	197.40255308151245	response	0	j		181.0	/experiments/Knapen_AOT/AOT_stimuli/pictures/1617_fw.png	266.4307782649994	
184	197.419043302536	picture	0		115	182.0	/experiments/Knapen_AOT/AOT_stimuli/pictures/1018_fw.png	266.44726848602295	0.9641284942626953
184	198.36927008628845	response	0	j		182.0	/experiments/Knapen_AOT/AOT_stimuli/pictures/1018_fw.png	267.3974952697754	
185	198.3831717967987	picture	0		91	183.0	/experiments/Knapen_AOT/AOT_stimuli/pictures/0868_fw.png	267.41139698028564	0.7638609409332275
185	199.12849473953247	response	0	j		183.0	/experiments/Knapen_AOT/AOT_stimuli/pictures/0868_fw.png	268.1567199230194	
186	199.14703273773193	picture	0		132	184.0	/experiments/Knapen_AOT/AOT_stimuli/pictures/1894_fw.png	268.1752579212189	1.1053733825683594
186	200.23593044281006	response	0	k		184.0	/experiments/Knapen_AOT/AOT_stimuli/pictures/1894_fw.png	269.264155626297	
187	200.2524061203003	picture	0		114	185.0	/experiments/Knapen_AOT/AOT_stimuli/pictures/2065_fw.png	269.28063130378723	0.9583921432495117
187	201.19431042671204	response	0	k		185.0	/experiments/Knapen_AOT/AOT_stimuli/pictures/2065_fw.png	270.222535610199	
188	201.2107982635498	picture	0		144	186.0	/experiments/Knapen_AOT/AOT_stimuli/pictures/1294_fw.png	270.23902344703674	1.2001242637634277
188	202.4026393890381	response	0	k		186.0	/experiments/Knapen_AOT/AOT_stimuli/pictures/1294_fw.png	271.430864572525	
189	202.41092252731323	picture	0		89	187.0	/experiments/Knapen_AOT/AOT_stimuli/pictures/0417_fw.png	271.43914771080017	0.749997615814209
189	203.13673448562622	response	0	k		187.0	/experiments/Knapen_AOT/AOT_stimuli/pictures/0417_fw.png	272.16495966911316	
190	203.16092014312744	picture	0		101	188.0	/experiments/Knapen_AOT/AOT_stimuli/pictures/0830_fw.png	272.1891453266144	0.8498737812042236
190	203.9943287372589	response	0	k		188.0	/experiments/Knapen_AOT/AOT_stimuli/pictures/0830_fw.png	273.02255392074585	
191	204.01079392433167	picture	0		128	189.0	/experiments/Knapen_AOT/AOT_stimuli/pictures/1239_fw.png	273.0390191078186	1.0667946338653564
191	205.06932520866394	response	0	k		189.0	/experiments/Knapen_AOT/AOT_stimuli/pictures/1239_fw.png	274.0975503921509	
192	205.07758855819702	picture	0		94	190.0	/experiments/Knapen_AOT/AOT_stimuli/pictures/0940_fw.png	274.10581374168396	0.7847509384155273
192	205.85269618034363	response	0	k		190.0	/experiments/Knapen_AOT/AOT_stimuli/pictures/0940_fw.png	274.88092136383057	
193	205.86233949661255	picture	0		93	191.0	/experiments/Knapen_AOT/AOT_stimuli/pictures/1541_fw.png	274.8905646800995	0.7778880596160889
193	206.62768077850342	response	0	k		191.0	/experiments/Knapen_AOT/AOT_stimuli/pictures/1541_fw.png	275.65590596199036	
194	206.64022755622864	picture	0		182	192.0	/experiments/Knapen_AOT/AOT_stimuli/pictures/1992_fw.png	275.6684527397156	1.5206751823425293
194	208.14504742622375	response	0	k		192.0	/experiments/Knapen_AOT/AOT_stimuli/pictures/1992_fw.png	277.1732726097107	
195	208.16090273857117	picture	0		121	193.0	/experiments/Knapen_AOT/AOT_stimuli/pictures/2126_fw.png	277.1891279220581	1.013983964920044
195	209.16106271743774	response	0	k		193.0	/experiments/Knapen_AOT/AOT_stimuli/pictures/2126_fw.png	278.1892879009247	
196	209.1748867034912	picture	0		347	194.0	/experiments/Knapen_AOT/AOT_stimuli/pictures/1315_fw.png	278.20311188697815	2.9027037620544434
196	212.0611093044281	response	0	k		194.0	/experiments/Knapen_AOT/AOT_stimuli/pictures/1315_fw.png	281.08933448791504	
197	212.07759046554565	picture	0		142	195.0	/experiments/Knapen_AOT/AOT_stimuli/pictures/1214_fw.png	281.1058156490326	1.191657304763794
197	213.2529067993164	response	0	j		195.0	/experiments/Knapen_AOT/AOT_stimuli/pictures/1214_fw.png	282.28113198280334	
198	213.26924777030945	picture	0		105	196.0	/experiments/Knapen_AOT/AOT_stimuli/pictures/0592_fw.png	282.2974729537964	0.8848495483398438
198	214.12852668762207	response	0	j		196.0	/experiments/Knapen_AOT/AOT_stimuli/pictures/0592_fw.png	283.156751871109	
199	214.1540973186493	picture	0		112	197.0	/experiments/Knapen_AOT/AOT_stimuli/pictures/0599_fw.png	283.18232250213623	0.9374794960021973
199	215.07779550552368	response	0	k		197.0	/experiments/Knapen_AOT/AOT_stimuli/pictures/0599_fw.png	284.1060206890106	
200	215.0915768146515	picture	0		175	198.0	/experiments/Knapen_AOT/AOT_stimuli/pictures/1886_fw.png	284.1198019981384	1.4652085304260254
200	216.54472756385803	response	0	k		198.0	/experiments/Knapen_AOT/AOT_stimuli/pictures/1886_fw.png	285.57295274734497	
201	216.55678534507751	picture	0		203	199.0	/experiments/Knapen_AOT/AOT_stimuli/pictures/1686_fw.png	285.58501052856445	1.6875264644622803
201	218.236186504364	response	0	k		199.0	/experiments/Knapen_AOT/AOT_stimuli/pictures/1686_fw.png	287.26441168785095	
202	218.2443118095398	picture	0		103	200.0	/experiments/Knapen_AOT/AOT_stimuli/pictures/0310_fw.png	287.27253699302673	0.8666815757751465
202	219.09452843666077	response	0	k		200.0	/experiments/Knapen_AOT/AOT_stimuli/pictures/0310_fw.png	288.1227536201477	
203	219.11099338531494	picture	0		104	201.0	/experiments/Knapen_AOT/AOT_stimuli/pictures/2035_fw.png	288.1392185688019	0.8750672340393066
203	219.96966981887817	response	0	k		201.0	/experiments/Knapen_AOT/AOT_stimuli/pictures/2035_fw.png	288.9978950023651	
204	219.98606061935425	picture	0		131	202.0	/experiments/Knapen_AOT/AOT_stimuli/pictures/0395_fw.png	289.0142858028412	1.09175443649292
204	221.0695354938507	response	0	k		202.0	/experiments/Knapen_AOT/AOT_stimuli/pictures/0395_fw.png	290.09776067733765	
205	221.07781505584717	picture	0		227	203.0	/experiments/Knapen_AOT/AOT_stimuli/pictures/0622_fw.png	290.1060402393341	1.8999214172363281
205	222.96148085594177	response	0	k		203.0	/experiments/Knapen_AOT/AOT_stimuli/pictures/0622_fw.png	291.9897060394287	
206	222.9777364730835	picture	0		115	204.0	/experiments/Knapen_AOT/AOT_stimuli/pictures/0567_fw.png	292.00596165657043	0.961148738861084
206	223.92076301574707	response	0	k		204.0	/experiments/Knapen_AOT/AOT_stimuli/pictures/0567_fw.png	292.948988199234	
207	223.93888521194458	picture	0		313	205.0	/experiments/Knapen_AOT/AOT_stimuli/pictures/1681_fw.png	292.9671103954315	2.6138570308685303
207	226.53663444519043	response	0	k		205.0	/experiments/Knapen_AOT/AOT_stimuli/pictures/1681_fw.png	295.56485962867737	
208	226.5527422428131	picture	0		94	206.0	/experiments/Knapen_AOT/AOT_stimuli/pictures/1208_fw.png	295.58096742630005	0.7889230251312256
208	227.3204803466797	response	0	k		206.0	/experiments/Knapen_AOT/AOT_stimuli/pictures/1208_fw.png	296.3487055301666	
209	227.34166526794434	picture	0		93	207.0	/experiments/Knapen_AOT/AOT_stimuli/pictures/2095_fw.png	296.3698904514313	0.7861275672912598
209	228.11145162582397	response	0	k		207.0	/experiments/Knapen_AOT/AOT_stimuli/pictures/2095_fw.png	297.1396768093109	
210	228.1277928352356	picture	0		89	208.0	/experiments/Knapen_AOT/AOT_stimuli/pictures/2102_fw.png	297.15601801872253	0.7499749660491943
210	228.8615415096283	response	0	k		208.0	/experiments/Knapen_AOT/AOT_stimuli/pictures/2102_fw.png	297.88976669311523	
211	228.8777678012848	picture	0		104	209.0	/experiments/Knapen_AOT/AOT_stimuli/pictures/1846_fw.png	297.90599298477173	0.8750231266021729
211	229.73662090301514	response	0	k		209.0	/experiments/Knapen_AOT/AOT_stimuli/pictures/1846_fw.png	298.7648460865021	
212	229.75279092788696	picture	0		123	210.0	/experiments/Knapen_AOT/AOT_stimuli/pictures/1350_fw.png	298.7810161113739	1.0263786315917969
212	230.7696602344513	response	0	k		210.0	/experiments/Knapen_AOT/AOT_stimuli/pictures/1350_fw.png	299.79788541793823	
213	230.77916955947876	picture	0		91	211.0	/experiments/Knapen_AOT/AOT_stimuli/pictures/0673_fw.png	299.8073947429657	0.7570257186889648
213	231.52071118354797	response	0	k		211.0	/experiments/Knapen_AOT/AOT_stimuli/pictures/0673_fw.png	300.5489363670349	
214	231.53619527816772	picture	0		111	212.0	/experiments/Knapen_AOT/AOT_stimuli/pictures/2168_fw.png	300.56442046165466	0.9332797527313232
214	232.45315885543823	response	0	k		212.0	/experiments/Knapen_AOT/AOT_stimuli/pictures/2168_fw.png	301.48138403892517	
215	232.46947503089905	picture	0		120	213.0	/experiments/Knapen_AOT/AOT_stimuli/pictures/0777_fw.png	301.497700214386	1.0083568096160889
215	233.46134495735168	response	0	j		213.0	/experiments/Knapen_AOT/AOT_stimuli/pictures/0777_fw.png	302.4895701408386	
216	233.47783184051514	picture	0		99	214.0	/experiments/Knapen_AOT/AOT_stimuli/pictures/0214_fw.png	302.5060570240021	0.8333396911621094
216	234.29468965530396	response	0	j		214.0	/experiments/Knapen_AOT/AOT_stimuli/pictures/0214_fw.png	303.3229148387909	
217	234.31117153167725	picture	0		91	215.0	/experiments/Knapen_AOT/AOT_stimuli/pictures/0029_fw.png	303.3393967151642	0.7667157649993896
217	235.0613498687744	response	0	j		215.0	/experiments/Knapen_AOT/AOT_stimuli/pictures/0029_fw.png	304.08957505226135	
218	235.07788729667664	picture	0		294	216.0	/experiments/Knapen_AOT/AOT_stimuli/pictures/1790_fw.png	304.1061124801636	2.4512555599212646
218	237.51971912384033	response	0	k		216.0	/experiments/Knapen_AOT/AOT_stimuli/pictures/1790_fw.png	306.54794430732727	
219	237.5291428565979	picture	0		169	217.0	/experiments/Knapen_AOT/AOT_stimuli/pictures/0961_fw.png	306.55736804008484	1.4097344875335693
219	238.92147517204285	response	0	k		217.0	/experiments/Knapen_AOT/AOT_stimuli/pictures/0961_fw.png	307.9497003555298	
220	238.93887734413147	picture	0		106	218.0	/experiments/Knapen_AOT/AOT_stimuli/pictures/2021_fw.png	307.9671025276184	0.8820669651031494
220	239.81145644187927	response	0	j		218.0	/experiments/Knapen_AOT/AOT_stimuli/pictures/2021_fw.png	308.8396816253662	
221	239.82094430923462	picture	0		157	219.0	/experiments/Knapen_AOT/AOT_stimuli/pictures/0285_fw.png	308.84916949272156	1.3124935626983643
221	241.11982893943787	response	0	k		219.0	/experiments/Knapen_AOT/AOT_stimuli/pictures/0285_fw.png	310.1480541229248	
222	241.13343787193298	picture	0		102	220.0	/experiments/Knapen_AOT/AOT_stimuli/pictures/1287_fw.png	310.1616630554199	0.8611652851104736
222	241.97829055786133	response	0	j		220.0	/experiments/Knapen_AOT/AOT_stimuli/pictures/1287_fw.png	311.00651574134827	
223	241.99460315704346	picture	0		91	221.0	/experiments/Knapen_AOT/AOT_stimuli/pictures/0063_fw.png	311.0228283405304	0.7638561725616455
223	242.74478363990784	response	0	k		221.0	/experiments/Knapen_AOT/AOT_stimuli/pictures/0063_fw.png	311.7730088233948	
224	242.7584593296051	picture	0		107	222.0	/experiments/Knapen_AOT/AOT_stimuli/pictures/1078_fw.png	311.78668451309204	0.9028379917144775
224	243.64496779441833	response	0	k		222.0	/experiments/Knapen_AOT/AOT_stimuli/pictures/1078_fw.png	312.6731929779053	
225	243.66129732131958	picture	0		95	223.0	/experiments/Knapen_AOT/AOT_stimuli/pictures/2100_fw.png	312.6895225048065	0.8000128269195557
225	244.44480443000793	response	0	k		223.0	/experiments/Knapen_AOT/AOT_stimuli/pictures/2100_fw.png	313.4730296134949	
226	244.46131014823914	picture	0		86	224.0	/experiments/Knapen_AOT/AOT_stimuli/pictures/1027_fw.png	313.4895353317261	0.7250115871429443
226	245.16982245445251	response	0	k		224.0	/experiments/Knapen_AOT/AOT_stimuli/pictures/1027_fw.png	314.19804763793945	
227	245.18632173538208	picture	0		98	225.0	/experiments/Knapen_AOT/AOT_stimuli/pictures/1556_fw.png	314.214546918869	0.8221609592437744
227	245.99485564231873	response	0	k		225.0	/experiments/Knapen_AOT/AOT_stimuli/pictures/1556_fw.png	315.02308082580566	
228	246.00848269462585	picture	0		89	226.0	/experiments/Knapen_AOT/AOT_stimuli/pictures/2010_fw.png	315.0367078781128	0.752859354019165
228	246.74487733840942	response	0	j		226.0	/experiments/Knapen_AOT/AOT_stimuli/pictures/2010_fw.png	315.77310252189636	
229	246.76134204864502	picture	0		96	227.0	/experiments/Knapen_AOT/AOT_stimuli/pictures/1219_fw.png	315.78956723213196	0.8026702404022217
229	247.5532717704773	response	0	k		227.0	/experiments/Knapen_AOT/AOT_stimuli/pictures/1219_fw.png	316.58149695396423	
230	247.56401228904724	picture	0		143	228.0	/experiments/Knapen_AOT/AOT_stimuli/pictures/0442_fw.png	316.5922374725342	1.1973445415496826
230	248.74490976333618	response	0	j		228.0	/experiments/Knapen_AOT/AOT_stimuli/pictures/0442_fw.png	317.7731349468231	
231	248.76135683059692	picture	0		117	229.0	/experiments/Knapen_AOT/AOT_stimuli/pictures/0256_fw.png	317.78958201408386	0.9764654636383057
231	249.720618724823	response	0	k		229.0	/experiments/Knapen_AOT/AOT_stimuli/pictures/0256_fw.png	318.74884390830994	
232	249.73782229423523	picture	0		104	230.0	/experiments/Knapen_AOT/AOT_stimuli/pictures/2177_fw.png	318.76604747772217	0.867896556854248
232	250.59491682052612	response	0	k		230.0	/experiments/Knapen_AOT/AOT_stimuli/pictures/2177_fw.png	319.62314200401306	
233	250.60571885108948	picture	0		122	231.0	/experiments/Knapen_AOT/AOT_stimuli/pictures/0335_fw.png	319.6339440345764	1.0223405361175537
233	251.61158752441406	response	0	j		231.0	/experiments/Knapen_AOT/AOT_stimuli/pictures/0335_fw.png	320.639812707901	
234	251.62805938720703	picture	0		120	232.0	/experiments/Knapen_AOT/AOT_stimuli/pictures/1963_fw.png	320.65628457069397	1.005467176437378
234	252.61991715431213	response	0	k		232.0	/experiments/Knapen_AOT/AOT_stimuli/pictures/1963_fw.png	321.6481423377991	
235	252.6335265636444	picture	0		115	233.0	/experiments/Knapen_AOT/AOT_stimuli/pictures/1933_fw.png	321.66175174713135	0.9695777893066406
235	253.58659648895264	response	0	k		233.0	/experiments/Knapen_AOT/AOT_stimuli/pictures/1933_fw.png	322.6148216724396	
236	253.60310435295105	picture	0		132	234.0	/experiments/Knapen_AOT/AOT_stimuli/pictures/0538_fw.png	322.631329536438	1.0999536514282227
236	254.69504117965698	response	0	k		234.0	/experiments/Knapen_AOT/AOT_stimuli/pictures/0538_fw.png	323.7232663631439	
237	254.70305800437927	picture	0		87	235.0	/experiments/Knapen_AOT/AOT_stimuli/pictures/0900_fw.png	323.7312831878662	0.7290694713592529
237	255.4202229976654	response	0	k		235.0	/experiments/Knapen_AOT/AOT_stimuli/pictures/0900_fw.png	324.44844818115234	
238	255.43212747573853	picture	0		126	236.0	/experiments/Knapen_AOT/AOT_stimuli/pictures/0120_fw.png	324.46035265922546	1.0543270111083984
238	256.4700303077698	response	0	k		236.0	/experiments/Knapen_AOT/AOT_stimuli/pictures/0120_fw.png	325.4982554912567	
239	256.4864544868469	picture	0		159	237.0	/experiments/Knapen_AOT/AOT_stimuli/pictures/1211_fw.png	325.51467967033386	1.3333683013916016
239	257.8034191131592	response	0	k		237.0	/experiments/Knapen_AOT/AOT_stimuli/pictures/1211_fw.png	326.8316442966461	
240	257.8198227882385	picture	0		138	238.0	/experiments/Knapen_AOT/AOT_stimuli/pictures/2008_fw.png	326.84804797172546	1.1583456993103027
240	258.96165013313293	response	0	k		238.0	/experiments/Knapen_AOT/AOT_stimuli/pictures/2008_fw.png	327.9898753166199	
241	258.9781684875488	picture	0		80	239.0	/experiments/Knapen_AOT/AOT_stimuli/pictures/1938_fw.png	328.00639367103577	0.6693081855773926
241	259.63671469688416	response	0	j		239.0	/experiments/Knapen_AOT/AOT_stimuli/pictures/1938_fw.png	328.6649398803711	
242	259.6474766731262	picture	0		108	240.0	/experiments/Knapen_AOT/AOT_stimuli/pictures/0407_fw.png	328.67570185661316	0.9056928157806396
242	260.5288255214691	response	0	j		240.0	/experiments/Knapen_AOT/AOT_stimuli/pictures/0407_fw.png	329.55705070495605	
243	260.55316948890686	picture	0		120	241.0	/experiments/Knapen_AOT/AOT_stimuli/pictures/1102_fw.png	329.5813946723938	1.0083262920379639
243	261.545086145401	response	0	j		241.0	/experiments/Knapen_AOT/AOT_stimuli/pictures/1102_fw.png	330.57331132888794	
244	261.5614957809448	picture	0		163	242.0	/experiments/Knapen_AOT/AOT_stimuli/pictures/1987_fw.png	330.58972096443176	1.3666958808898926
244	262.91171050071716	response	0	j		242.0	/experiments/Knapen_AOT/AOT_stimuli/pictures/1987_fw.png	331.9399356842041	
245	262.9281916618347	picture	0		92	243.0	/experiments/Knapen_AOT/AOT_stimuli/pictures/2173_fw.png	331.95641684532166	0.7750802040100098
245	263.6868669986725	response	0	k		243.0	/experiments/Knapen_AOT/AOT_stimuli/pictures/2173_fw.png	332.7150921821594	
246	263.7032718658447	picture	0		91	244.0	/experiments/Knapen_AOT/AOT_stimuli/pictures/0312_fw.png	332.73149704933167	0.763685941696167
246	264.45341992378235	response	0	k		244.0	/experiments/Knapen_AOT/AOT_stimuli/pictures/0312_fw.png	333.4816451072693	
247	264.4669578075409	picture	0		119	245.0	/experiments/Knapen_AOT/AOT_stimuli/pictures/2052_fw.png	333.49518299102783	1.0000057220458984
247	265.4533929824829	response	0	k		245.0	/experiments/Knapen_AOT/AOT_stimuli/pictures/2052_fw.png	334.48161816596985	
248	265.4669635295868	picture	0		88	246.0	/experiments/Knapen_AOT/AOT_stimuli/pictures/1083_fw.png	334.49518871307373	0.7446560859680176
248	266.19509100914	response	0	k		246.0	/experiments/Knapen_AOT/AOT_stimuli/pictures/1083_fw.png	335.22331619262695	
249	266.2116196155548	picture	0		106	247.0	/experiments/Knapen_AOT/AOT_stimuli/pictures/0050_fw.png	335.23984479904175	0.8916528224945068
249	267.0867772102356	response	0	k		247.0	/experiments/Knapen_AOT/AOT_stimuli/pictures/0050_fw.png	336.11500239372253	
250	267.1032724380493	picture	0		113	248.0	/experiments/Knapen_AOT/AOT_stimuli/pictures/0645_fw.png	336.13149762153625	0.9470503330230713
250	268.0367474555969	response	0	j		248.0	/experiments/Knapen_AOT/AOT_stimuli/pictures/0645_fw.png	337.06497263908386	
251	268.0503227710724	picture	0		109	249.0	/experiments/Knapen_AOT/AOT_stimuli/pictures/0473_fw.png	337.0785479545593	0.9166386127471924
251	268.9534468650818	response	0	j		249.0	/experiments/Knapen_AOT/AOT_stimuli/pictures/0473_fw.png	337.9816720485687	
252	268.9669613838196	picture	0		83	250.0	/experiments/Knapen_AOT/AOT_stimuli/pictures/1138_fw.png	337.9951865673065	0.6946201324462891
252	269.65369868278503	response	0	k		250.0	/experiments/Knapen_AOT/AOT_stimuli/pictures/1138_fw.png	338.681923866272	
253	269.66158151626587	picture	0		100	251.0	/experiments/Knapen_AOT/AOT_stimuli/pictures/1071_fw.png	338.6898066997528	0.8333377838134766
253	270.4868085384369	response	0	k		251.0	/experiments/Knapen_AOT/AOT_stimuli/pictures/1071_fw.png	339.5150337219238	
254	270.49491930007935	picture	0		101	252.0	/experiments/Knapen_AOT/AOT_stimuli/pictures/0509_fw.png	339.5231444835663	0.8501203060150146
254	271.3288791179657	response	0	j		252.0	/experiments/Knapen_AOT/AOT_stimuli/pictures/0509_fw.png	340.35710430145264	
255	271.34503960609436	picture	0		183	253.0	/experiments/Knapen_AOT/AOT_stimuli/pictures/0257_fw.png	340.3732647895813	1.5333139896392822
255	272.8618412017822	response	0	k		253.0	/experiments/Knapen_AOT/AOT_stimuli/pictures/0257_fw.png	341.89006638526917	
256	272.87835359573364	picture	0		102	254.0	/experiments/Knapen_AOT/AOT_stimuli/pictures/0133_fw.png	341.9065787792206	0.8526208400726318
256	273.7128105163574	response	0	j		254.0	/experiments/Knapen_AOT/AOT_stimuli/pictures/0133_fw.png	342.74103569984436	
257	273.7309744358063	picture	0		110	255.0	/experiments/Knapen_AOT/AOT_stimuli/pictures/0888_fw.png	342.7591996192932	0.9223613739013672
257	274.63684701919556	response	0	j		255.0	/experiments/Knapen_AOT/AOT_stimuli/pictures/0888_fw.png	343.6650722026825	
258	274.65333580970764	picture	0		99	256.0	/experiments/Knapen_AOT/AOT_stimuli/pictures/0258_fw.png	343.6815609931946	0.8333513736724854
258	275.47019505500793	response	0	k		256.0	/experiments/Knapen_AOT/AOT_stimuli/pictures/0258_fw.png	344.4984202384949	
259	275.4866871833801	picture	0		151	257.0	/experiments/Knapen_AOT/AOT_stimuli/pictures/1924_fw.png	344.51491236686707	1.2583296298980713
259	276.73695635795593	response	0	j		257.0	/experiments/Knapen_AOT/AOT_stimuli/pictures/1924_fw.png	345.76518154144287	
260	276.7450168132782	picture	0		105	258.0	/experiments/Knapen_AOT/AOT_stimuli/pictures/2116_fw.png	345.77324199676514	0.8833913803100586
260	277.6120660305023	response	0	j		258.0	/experiments/Knapen_AOT/AOT_stimuli/pictures/2116_fw.png	346.64029121398926	
261	277.62840819358826	picture	0		95	259.0	/experiments/Knapen_AOT/AOT_stimuli/pictures/0478_fw.png	346.6566333770752	0.7969682216644287
261	278.41188073158264	response	0	k		259.0	/experiments/Knapen_AOT/AOT_stimuli/pictures/0478_fw.png	347.4401059150696	
262	278.4253764152527	picture	0		104	260.0	/experiments/Knapen_AOT/AOT_stimuli/pictures/1108_fw.png	347.4536015987396	0.8781461715698242
262	279.28688955307007	response	0	j		260.0	/experiments/Knapen_AOT/AOT_stimuli/pictures/1108_fw.png	348.315114736557	
263	279.3035225868225	picture	0		92	261.0	/experiments/Knapen_AOT/AOT_stimuli/pictures/0175_fw.png	348.33174777030945	0.7748777866363525
263	280.06216764450073	response	0	k		261.0	/experiments/Knapen_AOT/AOT_stimuli/pictures/0175_fw.png	349.09039282798767	
264	280.07840037345886	picture	0		105	262.0	/experiments/Knapen_AOT/AOT_stimuli/pictures/1782_fw.png	349.1066255569458	0.8833427429199219
264	280.945303440094	response	0	j		262.0	/experiments/Knapen_AOT/AOT_stimuli/pictures/1782_fw.png	349.97352862358093	
265	280.9617431163788	picture	0		186	263.0	/experiments/Knapen_AOT/AOT_stimuli/pictures/0455_fw.png	349.9899682998657	1.5583791732788086
265	282.50367498397827	response	0	k		263.0	/experiments/Knapen_AOT/AOT_stimuli/pictures/0455_fw.png	351.5319001674652	
266	282.5201222896576	picture	0		124	264.0	/experiments/Knapen_AOT/AOT_stimuli/pictures/0912_fw.png	351.54834747314453	1.041663408279419
266	283.54535460472107	response	0	k		264.0	/experiments/Knapen_AOT/AOT_stimuli/pictures/0912_fw.png	352.573579788208	
267	283.561785697937	picture	0		98	265.0	/experiments/Knapen_AOT/AOT_stimuli/pictures/0654_fw.png	352.59001088142395	0.8250021934509277
267	284.37053871154785	response	0	j		265.0	/experiments/Knapen_AOT/AOT_stimuli/pictures/0654_fw.png	353.3987638950348	
268	284.38678789138794	picture	0		137	266.0	/experiments/Knapen_AOT/AOT_stimuli/pictures/0065_fw.png	353.4150130748749	1.1428413391113281
268	285.51277136802673	response	0	k		266.0	/experiments/Knapen_AOT/AOT_stimuli/pictures/0065_fw.png	354.5409965515137	
269	285.52962923049927	picture	0		111	267.0	/experiments/Knapen_AOT/AOT_stimuli/pictures/1882_fw.png	354.5578544139862	0.923828125
269	286.44538402557373	response	0	k		267.0	/experiments/Knapen_AOT/AOT_stimuli/pictures/1882_fw.png	355.47360920906067	
270	286.45345735549927	picture	0		101	268.0	/experiments/Knapen_AOT/AOT_stimuli/pictures/0051_fw.png	355.4816825389862	0.8500473499298096
270	287.2871744632721	response	0	j		268.0	/experiments/Knapen_AOT/AOT_stimuli/pictures/0051_fw.png	356.31539964675903	
271	287.3035047054291	picture	0		99	269.0	/experiments/Knapen_AOT/AOT_stimuli/pictures/0600_fw.png	356.331729888916	0.8302593231201172
271	288.1127622127533	response	0	k		269.0	/experiments/Knapen_AOT/AOT_stimuli/pictures/0600_fw.png	357.14098739624023	
272	288.1337640285492	picture	0		99	270.0	/experiments/Knapen_AOT/AOT_stimuli/pictures/1803_fw.png	357.16198921203613	0.83333420753479
272	288.95368814468384	response	0	j		270.0	/experiments/Knapen_AOT/AOT_stimuli/pictures/1803_fw.png	357.9819133281708	
273	288.967098236084	picture	0		118	271.0	/experiments/Knapen_AOT/AOT_stimuli/pictures/1339_fw.png	357.9953234195709	0.9863972663879395
273	289.94541025161743	response	0	k		271.0	/experiments/Knapen_AOT/AOT_stimuli/pictures/1339_fw.png	358.97363543510437	
274	289.9534955024719	picture	0		104	272.0	/experiments/Knapen_AOT/AOT_stimuli/pictures/1613_fw.png	358.98172068595886	0.8677845001220703
274	290.812016248703	response	0	k		272.0	/experiments/Knapen_AOT/AOT_stimuli/pictures/1613_fw.png	359.84024143218994	
275	290.821280002594	picture	0		95	273.0	/experiments/Knapen_AOT/AOT_stimuli/pictures/0419_fw.png	359.84950518608093	0.7989270687103271
275	291.60373878479004	response	0	j		273.0	/experiments/Knapen_AOT/AOT_stimuli/pictures/0419_fw.png	360.631963968277	
276	291.6202070713043	picture	0		332	274.0	/experiments/Knapen_AOT/AOT_stimuli/pictures/0186_fw.png	360.64843225479126	2.7750539779663086
276	294.37878489494324	response	0	j		274.0	/experiments/Knapen_AOT/AOT_stimuli/pictures/0186_fw.png	363.4070100784302	
277	294.39526104927063	picture	0		129	275.0	/experiments/Knapen_AOT/AOT_stimuli/pictures/1666_fw.png	363.42348623275757	1.0833463668823242
277	295.46212553977966	response	0	k		275.0	/experiments/Knapen_AOT/AOT_stimuli/pictures/1666_fw.png	364.4903507232666	
278	295.47860741615295	picture	0		104	276.0	/experiments/Knapen_AOT/AOT_stimuli/pictures/0270_fw.png	364.5068325996399	0.875002384185791
278	296.3371934890747	response	0	k		276.0	/experiments/Knapen_AOT/AOT_stimuli/pictures/0270_fw.png	365.36541867256165	
279	296.35360980033875	picture	0		121	277.0	/experiments/Knapen_AOT/AOT_stimuli/pictures/1711_fw.png	365.3818349838257	1.0167651176452637
279	297.3537976741791	response	0	k		277.0	/experiments/Knapen_AOT/AOT_stimuli/pictures/1711_fw.png	366.382022857666	
280	297.370374917984	picture	0		91	278.0	/experiments/Knapen_AOT/AOT_stimuli/pictures/0541_fw.png	366.39860010147095	0.7666158676147461
280	298.12084126472473	response	0	k		278.0	/experiments/Knapen_AOT/AOT_stimuli/pictures/0541_fw.png	367.14906644821167	
281	298.13699078559875	picture	0		120	279.0	/experiments/Knapen_AOT/AOT_stimuli/pictures/0360_fw.png	367.1652159690857	1.0083370208740234
281	299.12882351875305	response	0	j		279.0	/experiments/Knapen_AOT/AOT_stimuli/pictures/0360_fw.png	368.15704870224	
282	299.1453278064728	picture	0		103	280.0	/experiments/Knapen_AOT/AOT_stimuli/pictures/0076_fw.png	368.1735529899597	0.8635435104370117
282	299.99548602104187	response	0	k		280.0	/experiments/Knapen_AOT/AOT_stimuli/pictures/0076_fw.png	369.0237112045288	
283	300.0088713169098	picture	0		157	281.0	/experiments/Knapen_AOT/AOT_stimuli/pictures/1065_fw.png	369.03709650039673	1.3198299407958984
283	301.3053424358368	response	0	j		281.0	/experiments/Knapen_AOT/AOT_stimuli/pictures/1065_fw.png	370.33356761932373	
284	301.3287012577057	picture	0		193	282.0	/experiments/Knapen_AOT/AOT_stimuli/pictures/0321_fw.png	370.3569264411926	1.6166813373565674
284	302.9294066429138	response	0	j		282.0	/experiments/Knapen_AOT/AOT_stimuli/pictures/0321_fw.png	371.95763182640076	
285	302.94538259506226	picture	0		111	283.0	/experiments/Knapen_AOT/AOT_stimuli/pictures/0402_fw.png	371.9736077785492	0.9333395957946777
285	303.8622944355011	response	0	j		283.0	/experiments/Knapen_AOT/AOT_stimuli/pictures/0402_fw.png	372.89051961898804	
286	303.87872219085693	picture	0		97	284.0	/experiments/Knapen_AOT/AOT_stimuli/pictures/0161_fw.png	372.9069473743439	0.8107421398162842
286	304.6790392398834	response	0	j		284.0	/experiments/Knapen_AOT/AOT_stimuli/pictures/0161_fw.png	373.70726442337036	
287	304.6894643306732	picture	0		96	285.0	/experiments/Knapen_AOT/AOT_stimuli/pictures/0979_fw.png	373.71768951416016	0.8059022426605225
287	305.4791123867035	response	0	j		285.0	/experiments/Knapen_AOT/AOT_stimuli/pictures/0979_fw.png	374.50733757019043	
288	305.49536657333374	picture	0		107	286.0	/experiments/Knapen_AOT/AOT_stimuli/pictures/1828_fw.png	374.5235917568207	0.9000256061553955
288	306.3789486885071	response	0	k		286.0	/experiments/Knapen_AOT/AOT_stimuli/pictures/1828_fw.png	375.407173871994	
289	306.39539217948914	picture	0		101	287.0	/experiments/Knapen_AOT/AOT_stimuli/pictures/1754_fw.png	375.4236173629761	0.8500018119812012
289	307.22889614105225	response	0	k		287.0	/experiments/Knapen_AOT/AOT_stimuli/pictures/1754_fw.png	376.2571213245392	
290	307.24539399147034	picture	0		91	288.0	/experiments/Knapen_AOT/AOT_stimuli/pictures/0324_fw.png	376.2736191749573	0.7667067050933838
290	307.9955883026123	response	0	k		288.0	/experiments/Knapen_AOT/AOT_stimuli/pictures/0324_fw.png	377.02381348609924	
291	308.0121006965637	picture	0		89	289.0	/experiments/Knapen_AOT/AOT_stimuli/pictures/1436_fw.png	377.04032588005066	0.7500038146972656
291	308.745628118515	response	0	k		289.0	/experiments/Knapen_AOT/AOT_stimuli/pictures/1436_fw.png	377.77385330200195	
292	308.762104511261	picture	0		161	290.0	/experiments/Knapen_AOT/AOT_stimuli/pictures/1735_fw.png	377.7903296947479	1.350027322769165
292	310.09577989578247	response	0	k		290.0	/experiments/Knapen_AOT/AOT_stimuli/pictures/1735_fw.png	379.1240050792694	
293	310.11213183403015	picture	0		118	291.0	/experiments/Knapen_AOT/AOT_stimuli/pictures/0932_fw.png	379.1403570175171	0.9916670322418213
293	311.087411403656	response	0	k		291.0	/experiments/Knapen_AOT/AOT_stimuli/pictures/0932_fw.png	380.11563658714294	
294	311.103798866272	picture	0		109	292.0	/experiments/Knapen_AOT/AOT_stimuli/pictures/1462_fw.png	380.1320240497589	0.9167609214782715
294	312.0040514469147	response	0	j		292.0	/experiments/Knapen_AOT/AOT_stimuli/pictures/1462_fw.png	381.0322766304016	
295	312.02055978775024	picture	0		105	293.0	/experiments/Knapen_AOT/AOT_stimuli/pictures/0947_fw.png	381.0487849712372	0.883277416229248
295	312.8873755931854	response	0	k		293.0	/experiments/Knapen_AOT/AOT_stimuli/pictures/0947_fw.png	381.91560077667236	
296	312.9038372039795	picture	0		146	294.0	/experiments/Knapen_AOT/AOT_stimuli/pictures/1385_fw.png	381.93206238746643	1.224999189376831
296	314.1047661304474	response	0	k		294.0	/experiments/Knapen_AOT/AOT_stimuli/pictures/1385_fw.png	383.1329913139343	
297	314.1288363933563	picture	0		99	295.0	/experiments/Knapen_AOT/AOT_stimuli/pictures/1640_fw.png	383.15706157684326	0.8333399295806885
297	314.94573163986206	response	0	k		295.0	/experiments/Knapen_AOT/AOT_stimuli/pictures/1640_fw.png	383.973956823349	
298	314.962176322937	picture	0		152	296.0	/experiments/Knapen_AOT/AOT_stimuli/pictures/1370_fw.png	383.99040150642395	1.2750186920166016
298	316.2207581996918	response	0	k		296.0	/experiments/Knapen_AOT/AOT_stimuli/pictures/1370_fw.png	385.2489833831787	
299	316.2371950149536	picture	0		108	297.0	/experiments/Knapen_AOT/AOT_stimuli/pictures/0378_fw.png	385.26542019844055	0.9083681106567383
299	317.12910771369934	response	0	j		297.0	/experiments/Knapen_AOT/AOT_stimuli/pictures/0378_fw.png	386.1573328971863	
300	317.14556312561035	picture	0		112	298.0	/experiments/Knapen_AOT/AOT_stimuli/pictures/0792_fw.png	386.1737883090973	0.9416804313659668
300	318.07072257995605	response	0	j		298.0	/experiments/Knapen_AOT/AOT_stimuli/pictures/0792_fw.png	387.098947763443	
301	318.0872435569763	picture	0		105	299.0	/experiments/Knapen_AOT/AOT_stimuli/pictures/1422_fw.png	387.11546874046326	0.8802294731140137
301	318.9540841579437	response	0	k		299.0	/experiments/Knapen_AOT/AOT_stimuli/pictures/1422_fw.png	387.98230934143066	
302	318.96747303009033	picture	0		134	300.0	/experiments/Knapen_AOT/AOT_stimuli/pictures/1346_fw.png	387.99569821357727	1.128100872039795
302	320.0791084766388	response	0	k		300.0	/experiments/Knapen_AOT/AOT_stimuli/pictures/1346_fw.png	389.10733366012573	
303	320.0955739021301	picture	0		107	301.0	/experiments/Knapen_AOT/AOT_stimuli/pictures/2157_fw.png	389.12379908561707	0.9000093936920166
303	320.97923707962036	response	0	k		301.0	/experiments/Knapen_AOT/AOT_stimuli/pictures/2157_fw.png	390.0074622631073	
304	320.99558329582214	picture	0		122	302.0	/experiments/Knapen_AOT/AOT_stimuli/pictures/2125_fw.png	390.0238084793091	1.0203590393066406
304	322.0040898323059	response	0	k		302.0	/experiments/Knapen_AOT/AOT_stimuli/pictures/2125_fw.png	391.03231501579285	
305	322.0159423351288	picture	0		96	303.0	/experiments/Knapen_AOT/AOT_stimuli/pictures/1181_fw.png	391.0441675186157	0.8056168556213379
305	322.8041534423828	response	0	k		303.0	/experiments/Knapen_AOT/AOT_stimuli/pictures/1181_fw.png	391.83237862586975	
306	322.8215591907501	picture	0		158	304.0	/experiments/Knapen_AOT/AOT_stimuli/pictures/1717_fw.png	391.84978437423706	1.3240869045257568
306	324.129168510437	response	0	j		304.0	/experiments/Knapen_AOT/AOT_stimuli/pictures/1717_fw.png	393.15739369392395	
307	324.1456460952759	picture	0		122	305.0	/experiments/Knapen_AOT/AOT_stimuli/pictures/0208_fw.png	393.1738712787628	1.0231046676635742
307	325.15416049957275	response	0	j		305.0	/experiments/Knapen_AOT/AOT_stimuli/pictures/0208_fw.png	394.1823856830597	
308	325.16875076293945	picture	0		104	306.0	/experiments/Knapen_AOT/AOT_stimuli/pictures/1769_fw.png	394.1969759464264	0.8685245513916016
308	326.02918910980225	response	0	k		306.0	/experiments/Knapen_AOT/AOT_stimuli/pictures/1769_fw.png	395.0574142932892	
309	326.03727531433105	picture	0		79	307.0	/experiments/Knapen_AOT/AOT_stimuli/pictures/0916_fw.png	395.065500497818	0.6666827201843262
309	326.6813278198242	response	0	k		307.0	/experiments/Knapen_AOT/AOT_stimuli/pictures/0916_fw.png	395.70955300331116	
310	326.7039580345154	picture	0		97	308.0	/experiments/Knapen_AOT/AOT_stimuli/pictures/0284_fw.png	395.7321832180023	0.8120203018188477
310	327.4970190525055	response	0	k		308.0	/experiments/Knapen_AOT/AOT_stimuli/pictures/0284_fw.png	396.52524423599243	
311	327.51597833633423	picture	0		118	309.0	/experiments/Knapen_AOT/AOT_stimuli/pictures/0459_fw.png	396.54420351982117	0.9880404472351074
311	328.4875547885895	response	0	k		309.0	/experiments/Knapen_AOT/AOT_stimuli/pictures/0459_fw.png	397.5157799720764	
312	328.50401878356934	picture	0		100	310.0	/experiments/Knapen_AOT/AOT_stimuli/pictures/1544_fw.png	397.5322439670563	0.8417119979858398
312	329.32922434806824	response	0	k		310.0	/experiments/Knapen_AOT/AOT_stimuli/pictures/1544_fw.png	398.3574495315552	
313	329.3457307815552	picture	0		158	311.0	/experiments/Knapen_AOT/AOT_stimuli/pictures/0881_fw.png	398.3739559650421	1.3249738216400146
313	330.65425300598145	response	0	k		311.0	/experiments/Knapen_AOT/AOT_stimuli/pictures/0881_fw.png	399.6824781894684	
314	330.6707046031952	picture	0		213	312.0	/experiments/Knapen_AOT/AOT_stimuli/pictures/0190_fw.png	399.69892978668213	1.7833654880523682
314	332.4375946521759	response	0	k		312.0	/experiments/Knapen_AOT/AOT_stimuli/pictures/0190_fw.png	401.46581983566284	
315	332.45407009124756	picture	0		86	313.0	/experiments/Knapen_AOT/AOT_stimuli/pictures/1097_fw.png	401.4822952747345	0.7216892242431641
315	333.1625711917877	response	0	k		313.0	/experiments/Knapen_AOT/AOT_stimuli/pictures/1097_fw.png	402.19079637527466	
316	333.1757593154907	picture	0		252	314.0	/experiments/Knapen_AOT/AOT_stimuli/pictures/0157_fw.png	402.20398449897766	2.1116673946380615
316	335.27115297317505	response	0	k		314.0	/experiments/Knapen_AOT/AOT_stimuli/pictures/0157_fw.png	404.299378156662	
317	335.2874267101288	picture	0		85	315.0	/experiments/Knapen_AOT/AOT_stimuli/pictures/1715_fw.png	404.3156518936157	0.716691255569458
317	335.98768520355225	response	0	k		315.0	/experiments/Knapen_AOT/AOT_stimuli/pictures/1715_fw.png	405.0159103870392	
318	336.00411796569824	picture	0		136	316.0	/experiments/Knapen_AOT/AOT_stimuli/pictures/1345_fw.png	405.0323431491852	1.1369450092315674
318	337.12937474250793	response	0	k		316.0	/experiments/Knapen_AOT/AOT_stimuli/pictures/1345_fw.png	406.1575999259949	
319	337.1410629749298	picture	0		167	317.0	/experiments/Knapen_AOT/AOT_stimuli/pictures/0811_fw.png	406.16928815841675	1.3964343070983887
319	338.5209798812866	response	0	k		317.0	/experiments/Knapen_AOT/AOT_stimuli/pictures/0811_fw.png	407.54920506477356	
320	338.5374972820282	picture	0		86	318.0	/experiments/Knapen_AOT/AOT_stimuli/pictures/2019_fw.png	407.56572246551514	0.7216713428497314
320	339.245982170105	response	0	k		318.0	/experiments/Knapen_AOT/AOT_stimuli/pictures/2019_fw.png	408.2742073535919	
321	339.25916862487793	picture	0		94	319.0	/experiments/Knapen_AOT/AOT_stimuli/pictures/1479_fw.png	408.28739380836487	0.791654109954834
321	340.03767251968384	response	0	k		319.0	/experiments/Knapen_AOT/AOT_stimuli/pictures/1479_fw.png	409.0658977031708	
322	340.05082273483276	picture	0		117	320.0	/experiments/Knapen_AOT/AOT_stimuli/pictures/2112_fw.png	409.0790479183197	0.9867410659790039
322	341.0211443901062	response	0	k		320.0	/experiments/Knapen_AOT/AOT_stimuli/pictures/2112_fw.png	410.04936957359314	
323	341.03756380081177	picture	0		97	321.0	/experiments/Knapen_AOT/AOT_stimuli/pictures/0838_fw.png	410.0657889842987	0.816605806350708
323	341.83771419525146	response	0	j		321.0	/experiments/Knapen_AOT/AOT_stimuli/pictures/0838_fw.png	410.8659393787384	
324	341.8541696071625	picture	0		123	322.0	/experiments/Knapen_AOT/AOT_stimuli/pictures/0199_fw.png	410.8823947906494	1.0300140380859375
324	342.8710207939148	response	0	k		322.0	/experiments/Knapen_AOT/AOT_stimuli/pictures/0199_fw.png	411.89924597740173	
325	342.8841836452484	picture	0		123	323.0	/experiments/Knapen_AOT/AOT_stimuli/pictures/1825_fw.png	411.91240882873535	1.0366966724395752
325	343.8977863788605	response	0	k		323.0	/experiments/Knapen_AOT/AOT_stimuli/pictures/1825_fw.png	412.9260115623474	
326	343.920880317688	picture	0		213	324.0	/experiments/Knapen_AOT/AOT_stimuli/pictures/0472_fw.png	412.9491055011749	1.775674819946289
326	345.6877408027649	response	0	k		324.0	/experiments/Knapen_AOT/AOT_stimuli/pictures/0472_fw.png	414.71596598625183	
327	345.6965551376343	picture	0		114	325.0	/experiments/Knapen_AOT/AOT_stimuli/pictures/0575_fw.png	414.7247803211212	0.9576809406280518
327	346.6379644870758	response	0	j		325.0	/experiments/Knapen_AOT/AOT_stimuli/pictures/0575_fw.png	415.66618967056274	
328	346.65423607826233	picture	0		109	326.0	/experiments/Knapen_AOT/AOT_stimuli/pictures/0069_fw.png	415.68246126174927	0.9166874885559082
328	347.5544717311859	response	0	k		326.0	/experiments/Knapen_AOT/AOT_stimuli/pictures/0069_fw.png	416.58269691467285	
329	347.57092356681824	picture	0		109	327.0	/experiments/Knapen_AOT/AOT_stimuli/pictures/0573_fw.png	416.5991487503052	0.9105374813079834
329	348.47116804122925	response	0	j		327.0	/experiments/Knapen_AOT/AOT_stimuli/pictures/0573_fw.png	417.4993932247162	
330	348.4814610481262	picture	0		128	328.0	/experiments/Knapen_AOT/AOT_stimuli/pictures/1827_fw.png	417.50968623161316	1.0728046894073486
330	349.53777599334717	response	0	k		328.0	/experiments/Knapen_AOT/AOT_stimuli/pictures/1827_fw.png	418.5660011768341	
331	349.55426573753357	picture	0		155	329.0	/experiments/Knapen_AOT/AOT_stimuli/pictures/0999_fw.png	418.5824909210205	1.300020456314087
331	350.83779883384705	response	0	k		329.0	/experiments/Knapen_AOT/AOT_stimuli/pictures/0999_fw.png	419.866024017334	
332	350.85428619384766	picture	0		141	330.0	/experiments/Knapen_AOT/AOT_stimuli/pictures/0721_fw.png	419.8825113773346	1.1833362579345703
332	352.0211787223816	response	0	k		330.0	/experiments/Knapen_AOT/AOT_stimuli/pictures/0721_fw.png	421.04940390586853	
333	352.0376224517822	picture	0		214	331.0	/experiments/Knapen_AOT/AOT_stimuli/pictures/1184_fw.png	421.06584763526917	1.791731357574463
333	353.81289553642273	response	0	k		331.0	/experiments/Knapen_AOT/AOT_stimuli/pictures/1184_fw.png	422.84112071990967	
334	353.8293538093567	picture	0		101	332.0	/experiments/Knapen_AOT/AOT_stimuli/pictures/2176_fw.png	422.8575789928436	0.8500106334686279
334	354.66282749176025	response	0	j		332.0	/experiments/Knapen_AOT/AOT_stimuli/pictures/2176_fw.png	423.6910526752472	
335	354.6793644428253	picture	0		125	333.0	/experiments/Knapen_AOT/AOT_stimuli/pictures/1860_fw.png	423.70758962631226	1.0499763488769531
335	355.70525598526	response	0	k		333.0	/experiments/Knapen_AOT/AOT_stimuli/pictures/1860_fw.png	424.73348116874695	
336	355.72934079170227	picture	0		98	334.0	/experiments/Knapen_AOT/AOT_stimuli/pictures/0213_fw.png	424.7575659751892	0.8215861320495605
336	356.53786635398865	response	0	j		334.0	/experiments/Knapen_AOT/AOT_stimuli/pictures/0213_fw.png	425.5660915374756	
337	356.55092692375183	picture	0		85	335.0	/experiments/Knapen_AOT/AOT_stimuli/pictures/0952_fw.png	425.57915210723877	0.7200884819030762
337	357.2545599937439	response	0	k		335.0	/experiments/Knapen_AOT/AOT_stimuli/pictures/0952_fw.png	426.28278517723083	
338	357.2710154056549	picture	0		120	336.0	/experiments/Knapen_AOT/AOT_stimuli/pictures/0791_fw.png	426.29924058914185	1.0083591938018799
338	358.262975692749	response	0	j		336.0	/experiments/Knapen_AOT/AOT_stimuli/pictures/0791_fw.png	427.29120087623596	
339	358.2793745994568	picture	0		117	337.0	/experiments/Knapen_AOT/AOT_stimuli/pictures/0046_fw.png	427.3075997829437	0.979924201965332
339	359.2462179660797	response	0	k		337.0	/experiments/Knapen_AOT/AOT_stimuli/pictures/0046_fw.png	428.27444314956665	
340	359.2592988014221	picture	0		134	338.0	/experiments/Knapen_AOT/AOT_stimuli/pictures/1902_fw.png	428.28752398490906	1.1284432411193848
340	360.37122416496277	response	0	j		338.0	/experiments/Knapen_AOT/AOT_stimuli/pictures/1902_fw.png	429.3994493484497	
341	360.3877420425415	picture	0		90	339.0	/experiments/Knapen_AOT/AOT_stimuli/pictures/0800_fw.png	429.41596722602844	0.7583293914794922
341	361.129629611969	response	0	k		339.0	/experiments/Knapen_AOT/AOT_stimuli/pictures/0800_fw.png	430.15785479545593	
342	361.146071434021	picture	0		112	340.0	/experiments/Knapen_AOT/AOT_stimuli/pictures/0304_fw.png	430.17429661750793	0.9416985511779785
342	362.0712785720825	response	0	k		340.0	/experiments/Knapen_AOT/AOT_stimuli/pictures/0304_fw.png	431.09950375556946	
343	362.087769985199	picture	0		90	341.0	/experiments/Knapen_AOT/AOT_stimuli/pictures/2045_fw.png	431.1159951686859	0.7549011707305908
343	362.829617023468	response	0	j		341.0	/experiments/Knapen_AOT/AOT_stimuli/pictures/2045_fw.png	431.85784220695496	
344	362.84267115592957	picture	0		117	342.0	/experiments/Knapen_AOT/AOT_stimuli/pictures/0399_fw.png	431.8708963394165	0.9784605503082275
344	363.80468463897705	response	0	k		342.0	/experiments/Knapen_AOT/AOT_stimuli/pictures/0399_fw.png	432.832909822464	
345	363.8211317062378	picture	0		98	343.0	/experiments/Knapen_AOT/AOT_stimuli/pictures/1420_fw.png	432.84935688972473	0.8249721527099609
345	364.6297233104706	response	0	j		343.0	/experiments/Knapen_AOT/AOT_stimuli/pictures/1420_fw.png	433.6579484939575	
346	364.64610385894775	picture	0		176	344.0	/experiments/Knapen_AOT/AOT_stimuli/pictures/0796_fw.png	433.6743290424347	1.4750382900238037
346	366.09735012054443	response	0	j		344.0	/experiments/Knapen_AOT/AOT_stimuli/pictures/0796_fw.png	435.1255753040314	
347	366.12114214897156	picture	0		84	345.0	/experiments/Knapen_AOT/AOT_stimuli/pictures/0306_fw.png	435.1493673324585	0.708329439163208
347	366.8132128715515	response	0	k		345.0	/experiments/Knapen_AOT/AOT_stimuli/pictures/0306_fw.png	435.84143805503845	
348	366.82947158813477	picture	0		115	346.0	/experiments/Knapen_AOT/AOT_stimuli/pictures/1905_fw.png	435.8576967716217	0.9666926860809326
348	367.7796719074249	response	0	j		346.0	/experiments/Knapen_AOT/AOT_stimuli/pictures/1905_fw.png	436.80789709091187	
349	367.7961642742157	picture	0		189	347.0	/experiments/Knapen_AOT/AOT_stimuli/pictures/1806_fw.png	436.82438945770264	1.583376407623291
349	369.36303305625916	response	0	j		347.0	/experiments/Knapen_AOT/AOT_stimuli/pictures/1806_fw.png	438.3912582397461	
350	369.379540681839	picture	0		114	348.0	/experiments/Knapen_AOT/AOT_stimuli/pictures/2064_fw.png	438.4077658653259	0.9583382606506348
350	370.3214032649994	response	0	k		348.0	/experiments/Knapen_AOT/AOT_stimuli/pictures/2064_fw.png	439.3496284484863	
351	370.3378789424896	picture	0		112	349.0	/experiments/Knapen_AOT/AOT_stimuli/pictures/1090_fw.png	439.36610412597656	0.9416663646697998
351	371.26316380500793	response	0	k		349.0	/experiments/Knapen_AOT/AOT_stimuli/pictures/1090_fw.png	440.2913889884949	
352	371.2795453071594	picture	0		115	350.0	/experiments/Knapen_AOT/AOT_stimuli/pictures/2066_fw.png	440.30777049064636	0.9666652679443359
352	372.2297797203064	response	0	k		350.0	/experiments/Knapen_AOT/AOT_stimuli/pictures/2066_fw.png	441.25800490379333	
353	372.24621057510376	picture	0		103	351.0	/experiments/Knapen_AOT/AOT_stimuli/pictures/1415_fw.png	441.2744357585907	0.8604254722595215
353	373.09012484550476	response	0	j		351.0	/experiments/Knapen_AOT/AOT_stimuli/pictures/1415_fw.png	442.1183500289917	
354	373.1066360473633	picture	0		98	352.0	/experiments/Knapen_AOT/AOT_stimuli/pictures/0528_fw.png	442.1348612308502	0.822948694229126
354	373.9130554199219	response	0	k		352.0	/experiments/Knapen_AOT/AOT_stimuli/pictures/0528_fw.png	442.9412806034088	
355	373.9295847415924	picture	0		93	353.0	/experiments/Knapen_AOT/AOT_stimuli/pictures/0486_fw.png	442.95780992507935	0.7833445072174072
355	374.6971423625946	response	0	k		353.0	/experiments/Knapen_AOT/AOT_stimuli/pictures/0486_fw.png	443.72536754608154	
356	374.7129292488098	picture	0		80	354.0	/experiments/Knapen_AOT/AOT_stimuli/pictures/1428_fw.png	443.74115443229675	0.6750354766845703
356	375.3716058731079	response	0	k		354.0	/experiments/Knapen_AOT/AOT_stimuli/pictures/1428_fw.png	444.39983105659485	
357	375.3879647254944	picture	0		133	355.0	/experiments/Knapen_AOT/AOT_stimuli/pictures/1388_fw.png	444.4161899089813	1.116687536239624
357	376.4815194606781	response	0	k		355.0	/experiments/Knapen_AOT/AOT_stimuli/pictures/1388_fw.png	445.50974464416504	
358	376.504652261734	picture	0		94	356.0	/experiments/Knapen_AOT/AOT_stimuli/pictures/2133_fw.png	445.53287744522095	0.7916362285614014
358	377.27999210357666	response	0	k		356.0	/experiments/Knapen_AOT/AOT_stimuli/pictures/2133_fw.png	446.3082172870636	
359	377.2962884902954	picture	0		192	357.0	/experiments/Knapen_AOT/AOT_stimuli/pictures/1092_fw.png	446.32451367378235	1.6083698272705078
359	378.88840532302856	response	0	k		357.0	/experiments/Knapen_AOT/AOT_stimuli/pictures/1092_fw.png	447.9166305065155	
360	378.9046583175659	picture	0		90	358.0	/experiments/Knapen_AOT/AOT_stimuli/pictures/0814_fw.png	447.93288350105286	0.7582945823669434
360	379.64640641212463	response	0	j		358.0	/experiments/Knapen_AOT/AOT_stimuli/pictures/0814_fw.png	448.6746315956116	
361	379.66295289993286	picture	0		166	359.0	/experiments/Knapen_AOT/AOT_stimuli/pictures/1011_fw.png	448.6911780834198	1.391707181930542
361	381.03813076019287	response	0	j		359.0	/experiments/Knapen_AOT/AOT_stimuli/pictures/1011_fw.png	450.0663559436798	
362	381.0546600818634	stim	0		612			450.08288526535034	5.121051073074341
362	386.1561064720154	response	0	space				455.1843316555023	
