trial_nr	onset	event_type	phase	response	nr_frames	picture_index	picture_file	onset_abs	duration
0	0.16527676582336426	stim	0		479			89.31577777862549	4.001130819320679
0	4.1489036083221436	response	0	space				93.29940462112427	
2	4.166407585144043	picture	0		185	0.0	/experiments/Knapen_AOT/AOT_stimuli/pictures/2043_fw.png	93.31690859794617	1.5669982433319092
2	5.708777904510498	response	0	k		0.0	/experiments/Knapen_AOT/AOT_stimuli/pictures/2043_fw.png	94.85927891731262	
3	5.733405828475952	picture	0		212	1.0	/experiments/Knapen_AOT/AOT_stimuli/pictures/0370_fw.png	94.88390684127808	1.7735483646392822
3	7.498862266540527	response	0	j		1.0	/experiments/Knapen_AOT/AOT_stimuli/pictures/0370_fw.png	96.64936327934265	
4	7.506954193115234	picture	0		105	2.0	/experiments/Knapen_AOT/AOT_stimuli/pictures/0604_fw.png	96.65745520591736	0.875002384185791
4	8.373932123184204	response	0	k		2.0	/experiments/Knapen_AOT/AOT_stimuli/pictures/0604_fw.png	97.52443313598633	
5	8.381956577301025	picture	0		103	3.0	/experiments/Knapen_AOT/AOT_stimuli/pictures/1007_fw.png	97.53245759010315	0.8610212802886963
5	9.23225474357605	response	0	k		3.0	/experiments/Knapen_AOT/AOT_stimuli/pictures/1007_fw.png	98.38275575637817	
6	9.242977857589722	picture	0		117	4.0	/experiments/Knapen_AOT/AOT_stimuli/pictures/0331_fw.png	98.39347887039185	0.9723563194274902
6	10.207207679748535	response	0	k		4.0	/experiments/Knapen_AOT/AOT_stimuli/pictures/0331_fw.png	99.35770869255066	
7	10.215334177017212	picture	0		152	5.0	/experiments/Knapen_AOT/AOT_stimuli/pictures/2037_fw.png	99.36583518981934	1.270684003829956
7	11.473881959915161	response	0	k		5.0	/experiments/Knapen_AOT/AOT_stimuli/pictures/2037_fw.png	100.62438297271729	
8	11.486018180847168	picture	0		110	6.0	/experiments/Knapen_AOT/AOT_stimuli/pictures/1193_fw.png	100.63651919364929	0.9293785095214844
8	12.398913145065308	response	0	k		6.0	/experiments/Knapen_AOT/AOT_stimuli/pictures/1193_fw.png	101.54941415786743	
9	12.415396690368652	picture	0		147	7.0	/experiments/Knapen_AOT/AOT_stimuli/pictures/1337_fw.png	101.56589770317078	1.230391502380371
9	13.632452249526978	response	0	k		7.0	/experiments/Knapen_AOT/AOT_stimuli/pictures/1337_fw.png	102.7829532623291	
10	13.645788192749023	picture	0		123	8.0	/experiments/Knapen_AOT/AOT_stimuli/pictures/0191_fw.png	102.79628920555115	1.0279154777526855
10	14.658248901367188	response	0	k		8.0	/experiments/Knapen_AOT/AOT_stimuli/pictures/0191_fw.png	103.80874991416931	
11	14.673703670501709	picture	0		172	9.0	/experiments/Knapen_AOT/AOT_stimuli/pictures/0234_fw.png	103.82420468330383	1.4417681694030762
11	16.098982334136963	response	0	k		9.0	/experiments/Knapen_AOT/AOT_stimuli/pictures/0234_fw.png	105.24948334693909	
12	16.115471839904785	picture	0		87	10.0	/experiments/Knapen_AOT/AOT_stimuli/pictures/1103_fw.png	105.26597285270691	0.7333700656890869
12	16.832279920578003	response	0	j		10.0	/experiments/Knapen_AOT/AOT_stimuli/pictures/1103_fw.png	105.98278093338013	
13	16.848841905593872	picture	0		176	11.0	/experiments/Knapen_AOT/AOT_stimuli/pictures/1790_fw.png	105.999342918396	1.4704577922821045
13	18.30732536315918	response	0	j		11.0	/experiments/Knapen_AOT/AOT_stimuli/pictures/1790_fw.png	107.4578263759613	
14	18.319299697875977	picture	0		93	12.0	/experiments/Knapen_AOT/AOT_stimuli/pictures/0282_fw.png	107.4698007106781	0.7711172103881836
14	19.082315921783447	response	0	k		12.0	/experiments/Knapen_AOT/AOT_stimuli/pictures/0282_fw.png	108.23281693458557	
15	19.09041690826416	picture	0		93	13.0	/experiments/Knapen_AOT/AOT_stimuli/pictures/0154_fw.png	108.24091792106628	0.7775952816009521
15	19.849931478500366	response	0	j		13.0	/experiments/Knapen_AOT/AOT_stimuli/pictures/0154_fw.png	109.00043249130249	
16	19.868012189865112	picture	0		125	14.0	/experiments/Knapen_AOT/AOT_stimuli/pictures/0460_fw.png	109.01851320266724	1.0417208671569824
16	20.899070262908936	response	0	k		14.0	/experiments/Knapen_AOT/AOT_stimuli/pictures/0460_fw.png	110.04957127571106	
17	20.909733057022095	picture	0		113	15.0	/experiments/Knapen_AOT/AOT_stimuli/pictures/0289_fw.png	110.06023406982422	0.9474287033081055
17	21.840791702270508	response	0	k		15.0	/experiments/Knapen_AOT/AOT_stimuli/pictures/0289_fw.png	110.99129271507263	
18	21.8571617603302	picture	0		148	16.0	/experiments/Knapen_AOT/AOT_stimuli/pictures/2146_fw.png	111.00766277313232	1.2333128452301025
18	23.082358360290527	response	0	k		16.0	/experiments/Knapen_AOT/AOT_stimuli/pictures/2146_fw.png	112.23285937309265	
19	23.090474605560303	picture	0		76	17.0	/experiments/Knapen_AOT/AOT_stimuli/pictures/0817_fw.png	112.24097561836243	0.6417038440704346
19	23.715720891952515	response	0	j		17.0	/experiments/Knapen_AOT/AOT_stimuli/pictures/0817_fw.png	112.86622190475464	
20	23.732178449630737	picture	0		129	18.0	/experiments/Knapen_AOT/AOT_stimuli/pictures/2076_fw.png	112.88267946243286	1.0803239345550537
20	24.799036264419556	response	0	k		18.0	/experiments/Knapen_AOT/AOT_stimuli/pictures/2076_fw.png	113.94953727722168	
21	24.81250238418579	picture	0		167	19.0	/experiments/Knapen_AOT/AOT_stimuli/pictures/1803_fw.png	113.96300339698792	1.4030675888061523
21	26.199119329452515	response	0	k		19.0	/experiments/Knapen_AOT/AOT_stimuli/pictures/1803_fw.png	115.34962034225464	
22	26.215569972991943	picture	0		89	20.0	/experiments/Knapen_AOT/AOT_stimuli/pictures/0146_fw.png	115.36607098579407	0.7427849769592285
22	26.949081420898438	response	0	j		20.0	/experiments/Knapen_AOT/AOT_stimuli/pictures/0146_fw.png	116.09958243370056	
23	26.958354949951172	picture	0		95	21.0	/experiments/Knapen_AOT/AOT_stimuli/pictures/1126_fw.png	116.1088559627533	0.798853874206543
23	27.740821838378906	response	0	j		21.0	/experiments/Knapen_AOT/AOT_stimuli/pictures/1126_fw.png	116.89132285118103	
24	27.757208824157715	picture	0		86	22.0	/experiments/Knapen_AOT/AOT_stimuli/pictures/1046_fw.png	116.90770983695984	0.7220160961151123
24	28.46584415435791	response	0	j		22.0	/experiments/Knapen_AOT/AOT_stimuli/pictures/1046_fw.png	117.61634516716003	
25	28.479224920272827	picture	0		82	23.0	/experiments/Knapen_AOT/AOT_stimuli/pictures/2065_fw.png	117.62972593307495	0.6874790191650391
25	29.15745234489441	response	0	j		23.0	/experiments/Knapen_AOT/AOT_stimuli/pictures/2065_fw.png	118.30795335769653	
26	29.166703939437866	picture	0		119	24.0	/experiments/Knapen_AOT/AOT_stimuli/pictures/0190_fw.png	118.31720495223999	0.9930987358093262
26	30.149205684661865	response	0	k		24.0	/experiments/Knapen_AOT/AOT_stimuli/pictures/0190_fw.png	119.29970669746399	
27	30.159802675247192	picture	0		133	25.0	/experiments/Knapen_AOT/AOT_stimuli/pictures/2164_fw.png	119.31030368804932	1.111182451248169
27	31.257723808288574	response	0	k		25.0	/experiments/Knapen_AOT/AOT_stimuli/pictures/2164_fw.png	120.4082248210907	
28	31.27098512649536	picture	0		174	26.0	/experiments/Knapen_AOT/AOT_stimuli/pictures/1744_fw.png	120.42148613929749	1.4613957405090332
28	32.7163782119751	response	0	k		26.0	/experiments/Knapen_AOT/AOT_stimuli/pictures/1744_fw.png	121.86687922477722	
29	32.732380867004395	picture	0		88	27.0	/experiments/Knapen_AOT/AOT_stimuli/pictures/1814_fw.png	121.88288187980652	0.7399587631225586
29	33.45781087875366	response	0	j		27.0	/experiments/Knapen_AOT/AOT_stimuli/pictures/1814_fw.png	122.60831189155579	
30	33.47233963012695	picture	0		76	28.0	/experiments/Knapen_AOT/AOT_stimuli/pictures/0610_fw.png	122.62284064292908	0.6388444900512695
30	34.099226236343384	response	0	j		28.0	/experiments/Knapen_AOT/AOT_stimuli/pictures/0610_fw.png	123.24972724914551	
31	34.11118412017822	picture	0		112	29.0	/experiments/Knapen_AOT/AOT_stimuli/pictures/0733_fw.png	123.26168513298035	0.9305388927459717
31	35.03255748748779	response	0	k		29.0	/experiments/Knapen_AOT/AOT_stimuli/pictures/0733_fw.png	124.18305850028992	
32	35.041723012924194	picture	0		138	30.0	/experiments/Knapen_AOT/AOT_stimuli/pictures/1689_fw.png	124.19222402572632	1.1573317050933838
32	36.18258595466614	response	0	k		30.0	/experiments/Knapen_AOT/AOT_stimuli/pictures/1689_fw.png	125.33308696746826	
33	36.19905471801758	picture	0		97	31.0	/experiments/Knapen_AOT/AOT_stimuli/pictures/2118_fw.png	125.3495557308197	0.8082675933837891
33	36.999266386032104	response	0	k		31.0	/experiments/Knapen_AOT/AOT_stimuli/pictures/2118_fw.png	126.14976739883423	
34	37.00732231140137	picture	0		98	32.0	/experiments/Knapen_AOT/AOT_stimuli/pictures/1799_fw.png	126.15782332420349	0.8191847801208496
34	37.81597924232483	response	0	j		32.0	/experiments/Knapen_AOT/AOT_stimuli/pictures/1799_fw.png	126.96648025512695	
35	37.82650709152222	picture	0		190	33.0	/experiments/Knapen_AOT/AOT_stimuli/pictures/0936_fw.png	126.97700810432434	1.5832135677337646
35	39.3992178440094	response	0	j		33.0	/experiments/Knapen_AOT/AOT_stimuli/pictures/0936_fw.png	128.54971885681152	
36	39.40972065925598	picture	0		79	34.0	/experiments/Knapen_AOT/AOT_stimuli/pictures/1518_fw.png	128.5602216720581	0.6598336696624756
36	40.0578179359436	response	0	j		34.0	/experiments/Knapen_AOT/AOT_stimuli/pictures/1518_fw.png	129.20831894874573	
37	40.06955432891846	picture	0		124	35.0	/experiments/Knapen_AOT/AOT_stimuli/pictures/0727_fw.png	129.22005534172058	1.034712791442871
37	41.09092354774475	response	0	k		35.0	/experiments/Knapen_AOT/AOT_stimuli/pictures/0727_fw.png	130.24142456054688	
38	41.10426712036133	picture	0		112	36.0	/experiments/Knapen_AOT/AOT_stimuli/pictures/0740_fw.png	130.25476813316345	0.9448230266571045
38	42.03283667564392	response	0	j		36.0	/experiments/Knapen_AOT/AOT_stimuli/pictures/0740_fw.png	131.18333768844604	
39	42.04909014701843	picture	0		76	37.0	/experiments/Knapen_AOT/AOT_stimuli/pictures/1579_fw.png	131.19959115982056	0.6385080814361572
39	42.674296617507935	response	0	j		37.0	/experiments/Knapen_AOT/AOT_stimuli/pictures/1579_fw.png	131.82479763031006	
40	42.68759822845459	picture	0		86	38.0	/experiments/Knapen_AOT/AOT_stimuli/pictures/1903_fw.png	131.8380992412567	0.7223241329193115
40	43.39938974380493	response	0	j		38.0	/experiments/Knapen_AOT/AOT_stimuli/pictures/1903_fw.png	132.54989075660706	
41	43.4099223613739	picture	0		71	39.0	/experiments/Knapen_AOT/AOT_stimuli/pictures/0774_fw.png	132.56042337417603	0.5975220203399658
41	43.991089820861816	response	0	j		39.0	/experiments/Knapen_AOT/AOT_stimuli/pictures/0774_fw.png	133.14159083366394	
42	44.00744438171387	picture	0		221	40.0	/experiments/Knapen_AOT/AOT_stimuli/pictures/0457_fw.png	133.157945394516	1.8500339984893799
42	45.841017723083496	response	0	k		40.0	/experiments/Knapen_AOT/AOT_stimuli/pictures/0457_fw.png	134.99151873588562	
43	45.85747838020325	picture	0		121	41.0	/experiments/Knapen_AOT/AOT_stimuli/pictures/1824_fw.png	135.00797939300537	1.0107524394989014
43	46.850072383880615	response	0	j		41.0	/experiments/Knapen_AOT/AOT_stimuli/pictures/1824_fw.png	136.00057339668274	
44	46.86823081970215	picture	0		76	42.0	/experiments/Knapen_AOT/AOT_stimuli/pictures/0581_fw.png	136.01873183250427	0.6319236755371094
44	47.49118971824646	response	0	j		42.0	/experiments/Knapen_AOT/AOT_stimuli/pictures/0581_fw.png	136.64169073104858	
45	47.50015449523926	picture	0		101	43.0	/experiments/Knapen_AOT/AOT_stimuli/pictures/2018_fw.png	136.65065550804138	0.8490126132965088
45	48.33270740509033	response	0	j		43.0	/experiments/Knapen_AOT/AOT_stimuli/pictures/2018_fw.png	137.48320841789246	
46	48.34916710853577	picture	0		323	44.0	/experiments/Knapen_AOT/AOT_stimuli/pictures/0465_fw.png	137.4996681213379	2.700028896331787
46	51.02659058570862	response	0	j		44.0	/experiments/Knapen_AOT/AOT_stimuli/pictures/0465_fw.png	140.17709159851074	
47	51.049196004867554	picture	0		82	45.0	/experiments/Knapen_AOT/AOT_stimuli/pictures/2003_fw.png	140.19969701766968	0.6916890144348145
47	51.724501609802246	response	0	j		45.0	/experiments/Knapen_AOT/AOT_stimuli/pictures/2003_fw.png	140.87500262260437	
48	51.74088501930237	picture	0		193	46.0	/experiments/Knapen_AOT/AOT_stimuli/pictures/1309_fw.png	140.8913860321045	1.6133921146392822
48	53.34107851982117	response	0	k		46.0	/experiments/Knapen_AOT/AOT_stimuli/pictures/1309_fw.png	142.4915795326233	
49	53.35427713394165	picture	0		105	47.0	/experiments/Knapen_AOT/AOT_stimuli/pictures/1830_fw.png	142.50477814674377	0.8820590972900391
49	54.2244553565979	response	0	k		47.0	/experiments/Knapen_AOT/AOT_stimuli/pictures/1830_fw.png	143.37495636940002	
50	54.23633623123169	picture	0		96	48.0	/experiments/Knapen_AOT/AOT_stimuli/pictures/0445_fw.png	143.3868372440338	0.8046190738677979
50	55.02524971961975	response	0	j		48.0	/experiments/Knapen_AOT/AOT_stimuli/pictures/0445_fw.png	144.17575073242188	
51	55.04095530509949	picture	0		79	49.0	/experiments/Knapen_AOT/AOT_stimuli/pictures/2029_fw.png	144.1914563179016	0.6666445732116699
51	55.691113233566284	response	0	j		49.0	/experiments/Knapen_AOT/AOT_stimuli/pictures/2029_fw.png	144.8416142463684	
52	55.70759987831116	picture	0		113	50.0	/experiments/Knapen_AOT/AOT_stimuli/pictures/0743_fw.png	144.85810089111328	0.9454967975616455
52	56.64132380485535	response	0	k		50.0	/experiments/Knapen_AOT/AOT_stimuli/pictures/0743_fw.png	145.79182481765747	
53	56.6530966758728	picture	0		82	51.0	/experiments/Knapen_AOT/AOT_stimuli/pictures/1146_fw.png	145.80359768867493	0.6804814338684082
53	57.32452654838562	response	0	j		51.0	/experiments/Knapen_AOT/AOT_stimuli/pictures/1146_fw.png	146.47502756118774	
54	57.33357810974121	picture	0		82	52.0	/experiments/Knapen_AOT/AOT_stimuli/pictures/0528_fw.png	146.48407912254333	0.6907463073730469
54	58.00778341293335	response	0	j		52.0	/experiments/Knapen_AOT/AOT_stimuli/pictures/0528_fw.png	147.15828442573547	
55	58.02432441711426	picture	0		118	53.0	/experiments/Knapen_AOT/AOT_stimuli/pictures/0614_fw.png	147.17482542991638	0.9916322231292725
55	58.99949765205383	response	0	k		53.0	/experiments/Knapen_AOT/AOT_stimuli/pictures/0614_fw.png	148.14999866485596	
56	59.01595664024353	picture	0		76	54.0	/experiments/Knapen_AOT/AOT_stimuli/pictures/0807_fw.png	148.16645765304565	0.6417064666748047
56	59.64117741584778	response	0	j		54.0	/experiments/Knapen_AOT/AOT_stimuli/pictures/0807_fw.png	148.7916784286499	
57	59.657663106918335	picture	0		81	55.0	/experiments/Knapen_AOT/AOT_stimuli/pictures/0747_fw.png	148.80816411972046	0.6759073734283447
57	60.32450556755066	response	0	j		55.0	/experiments/Knapen_AOT/AOT_stimuli/pictures/0747_fw.png	149.47500658035278	
58	60.33357048034668	picture	0		112	56.0	/experiments/Knapen_AOT/AOT_stimuli/pictures/1767_fw.png	149.4840714931488	0.9375431537628174
58	61.25062441825867	response	0	k		56.0	/experiments/Knapen_AOT/AOT_stimuli/pictures/1767_fw.png	150.4011254310608	
59	61.2711136341095	picture	0		105	57.0	/experiments/Knapen_AOT/AOT_stimuli/pictures/1262_fw.png	150.42161464691162	0.8819408416748047
59	62.14119219779968	response	0	j		57.0	/experiments/Knapen_AOT/AOT_stimuli/pictures/1262_fw.png	151.2916932106018	
60	62.1530544757843	picture	0		549	58.0	/experiments/Knapen_AOT/AOT_stimuli/pictures/1316_fw.png	151.30355548858643	4.579670190811157
60	66.71628522872925	response	0	k		58.0	/experiments/Knapen_AOT/AOT_stimuli/pictures/1316_fw.png	155.86678624153137	
61	66.73272466659546	picture	0		87	59.0	/experiments/Knapen_AOT/AOT_stimuli/pictures/1950_fw.png	155.88322567939758	0.7260076999664307
61	67.4498405456543	response	0	j		59.0	/experiments/Knapen_AOT/AOT_stimuli/pictures/1950_fw.png	156.60034155845642	
62	67.45873236656189	picture	0		121	60.0	/experiments/Knapen_AOT/AOT_stimuli/pictures/0320_fw.png	156.609233379364	1.007319450378418
62	68.45801329612732	response	0	k		60.0	/experiments/Knapen_AOT/AOT_stimuli/pictures/0320_fw.png	157.60851430892944	
63	68.46605181694031	picture	0		150	61.0	/experiments/Knapen_AOT/AOT_stimuli/pictures/0516_fw.png	157.61655282974243	1.250011682510376
63	69.70800971984863	response	0	k		61.0	/experiments/Knapen_AOT/AOT_stimuli/pictures/0516_fw.png	158.85851073265076	
64	69.71606349945068	picture	0		108	62.0	/experiments/Knapen_AOT/AOT_stimuli/pictures/1941_fw.png	158.8665645122528	0.9084968566894531
64	70.60807085037231	response	0	k		62.0	/experiments/Knapen_AOT/AOT_stimuli/pictures/1941_fw.png	159.75857186317444	
65	70.62456035614014	picture	0		110	63.0	/experiments/Knapen_AOT/AOT_stimuli/pictures/0097_fw.png	159.77506136894226	0.9174280166625977
65	71.53298139572144	response	0	k		63.0	/experiments/Knapen_AOT/AOT_stimuli/pictures/0097_fw.png	160.68348240852356	
66	71.54198837280273	picture	0		92	64.0	/experiments/Knapen_AOT/AOT_stimuli/pictures/1792_fw.png	160.69248938560486	0.7708709239959717
66	72.2996666431427	response	0	j		64.0	/experiments/Knapen_AOT/AOT_stimuli/pictures/1792_fw.png	161.45016765594482	
67	72.3128592967987	picture	0		99	65.0	/experiments/Knapen_AOT/AOT_stimuli/pictures/0130_fw.png	161.46336030960083	0.8333284854888916
67	73.13300657272339	response	0	j		65.0	/experiments/Knapen_AOT/AOT_stimuli/pictures/0130_fw.png	162.2835075855255	
68	73.1461877822876	picture	0		91	66.0	/experiments/Knapen_AOT/AOT_stimuli/pictures/1608_fw.png	162.29668879508972	0.7639272212982178
68	73.89970374107361	response	0	j		66.0	/experiments/Knapen_AOT/AOT_stimuli/pictures/1608_fw.png	163.05020475387573	
69	73.91011500358582	picture	0		149	67.0	/experiments/Knapen_AOT/AOT_stimuli/pictures/1879_fw.png	163.06061601638794	1.2430419921875
69	75.14137291908264	response	0	k		67.0	/experiments/Knapen_AOT/AOT_stimuli/pictures/1879_fw.png	164.29187393188477	
70	75.15315699577332	picture	0		122	68.0	/experiments/Knapen_AOT/AOT_stimuli/pictures/1906_fw.png	164.30365800857544	1.0138938426971436
70	76.15801167488098	response	0	k		68.0	/experiments/Knapen_AOT/AOT_stimuli/pictures/1906_fw.png	165.3085126876831	
71	76.16705083847046	picture	0		106	69.0	/experiments/Knapen_AOT/AOT_stimuli/pictures/0333_fw.png	165.31755185127258	0.8824772834777832
71	77.034423828125	response	0	j		69.0	/experiments/Knapen_AOT/AOT_stimuli/pictures/0333_fw.png	166.18492484092712	
72	77.04952812194824	picture	0		216	70.0	/experiments/Knapen_AOT/AOT_stimuli/pictures/2158_fw.png	166.20002913475037	1.8049290180206299
72	78.83389401435852	response	0	k		70.0	/experiments/Knapen_AOT/AOT_stimuli/pictures/2158_fw.png	167.98439502716064	
73	78.85445713996887	picture	0		70	71.0	/experiments/Knapen_AOT/AOT_stimuli/pictures/0397_fw.png	168.004958152771	0.5835039615631104
73	79.4247670173645	response	0	j		71.0	/experiments/Knapen_AOT/AOT_stimuli/pictures/0397_fw.png	168.57526803016663	
74	79.43796110153198	picture	0		77	72.0	/experiments/Knapen_AOT/AOT_stimuli/pictures/2117_fw.png	168.5884621143341	0.6457476615905762
74	80.07478904724121	response	0	j		72.0	/experiments/Knapen_AOT/AOT_stimuli/pictures/2117_fw.png	169.22529006004333	
75	80.08370876312256	picture	0		130	73.0	/experiments/Knapen_AOT/AOT_stimuli/pictures/0970_fw.png	169.23420977592468	1.0833213329315186
75	81.15810942649841	response	0	k		73.0	/experiments/Knapen_AOT/AOT_stimuli/pictures/0970_fw.png	170.30861043930054	
76	81.16703009605408	picture	0		145	74.0	/experiments/Knapen_AOT/AOT_stimuli/pictures/0682_fw.png	170.3175311088562	1.2083821296691895
76	82.36652994155884	response	0	k		74.0	/experiments/Knapen_AOT/AOT_stimuli/pictures/0682_fw.png	171.51703095436096	
77	82.37541222572327	picture	0		69	75.0	/experiments/Knapen_AOT/AOT_stimuli/pictures/0514_fw.png	171.5259132385254	0.5764272212982178
77	82.94161081314087	response	0	j		75.0	/experiments/Knapen_AOT/AOT_stimuli/pictures/0514_fw.png	172.092111825943	
78	82.95183944702148	picture	0		79	76.0	/experiments/Knapen_AOT/AOT_stimuli/pictures/0438_fw.png	172.1023404598236	0.6597094535827637
78	83.5998306274414	response	0	j		76.0	/experiments/Knapen_AOT/AOT_stimuli/pictures/0438_fw.png	172.75033164024353	
79	83.61154890060425	picture	0		93	77.0	/experiments/Knapen_AOT/AOT_stimuli/pictures/0398_fw.png	172.76204991340637	0.7713708877563477
79	84.37488389015198	response	0	j		77.0	/experiments/Knapen_AOT/AOT_stimuli/pictures/0398_fw.png	173.5253849029541	
80	84.3829197883606	picture	0		103	78.0	/experiments/Knapen_AOT/AOT_stimuli/pictures/0795_fw.png	173.53342080116272	0.8667044639587402
80	85.23321747779846	response	0	k		78.0	/experiments/Knapen_AOT/AOT_stimuli/pictures/0795_fw.png	174.3837184906006	
81	85.24962425231934	picture	0		78	79.0	/experiments/Knapen_AOT/AOT_stimuli/pictures/1567_fw.png	174.40012526512146	0.6535983085632324
81	85.8914794921875	response	0	j		79.0	/experiments/Knapen_AOT/AOT_stimuli/pictures/1567_fw.png	175.04198050498962	
82	85.90322256088257	picture	0		74	80.0	/experiments/Knapen_AOT/AOT_stimuli/pictures/0021_fw.png	175.0537235736847	0.6180522441864014
82	86.50821733474731	response	0	j		80.0	/experiments/Knapen_AOT/AOT_stimuli/pictures/0021_fw.png	175.65871834754944	
83	86.52127480506897	picture	0		177	81.0	/experiments/Knapen_AOT/AOT_stimuli/pictures/0903_fw.png	175.6717758178711	1.4790844917297363
83	87.9915668964386	response	0	k		81.0	/experiments/Knapen_AOT/AOT_stimuli/pictures/0903_fw.png	177.14206790924072	
84	88.0003592967987	picture	0		144	82.0	/experiments/Knapen_AOT/AOT_stimuli/pictures/0521_fw.png	177.15086030960083	1.2014973163604736
84	89.1916069984436	response	0	k		82.0	/experiments/Knapen_AOT/AOT_stimuli/pictures/0521_fw.png	178.34210801124573	
85	89.20185661315918	picture	0		104	83.0	/experiments/Knapen_AOT/AOT_stimuli/pictures/0487_fw.png	178.3523576259613	0.8680768013000488
85	90.05824160575867	response	0	k		83.0	/experiments/Knapen_AOT/AOT_stimuli/pictures/0487_fw.png	179.2087426185608	
86	90.06993341445923	picture	0		103	84.0	/experiments/Knapen_AOT/AOT_stimuli/pictures/0302_fw.png	179.22043442726135	0.8631088733673096
86	90.91656184196472	response	0	j		84.0	/experiments/Knapen_AOT/AOT_stimuli/pictures/0302_fw.png	180.06706285476685	
87	90.93304228782654	picture	0		129	85.0	/experiments/Knapen_AOT/AOT_stimuli/pictures/0713_fw.png	180.08354330062866	1.074976921081543
87	91.9999029636383	response	0	k		85.0	/experiments/Knapen_AOT/AOT_stimuli/pictures/0713_fw.png	181.15040397644043	
88	92.00801920890808	picture	0		69	86.0	/experiments/Knapen_AOT/AOT_stimuli/pictures/0754_fw.png	181.1585202217102	0.5758159160614014
88	92.57494592666626	response	0	j		86.0	/experiments/Knapen_AOT/AOT_stimuli/pictures/0754_fw.png	181.72544693946838	
89	92.58383512496948	picture	0		169	87.0	/experiments/Knapen_AOT/AOT_stimuli/pictures/1955_fw.png	181.7343361377716	1.4159901142120361
89	93.98325634002686	response	0	k		87.0	/experiments/Knapen_AOT/AOT_stimuli/pictures/1955_fw.png	183.13375735282898	
90	93.99982523918152	picture	0		68	88.0	/experiments/Knapen_AOT/AOT_stimuli/pictures/2071_fw.png	183.15032625198364	0.574941873550415
90	94.55829071998596	response	0	j		88.0	/experiments/Knapen_AOT/AOT_stimuli/pictures/2071_fw.png	183.7087917327881	
91	94.57476711273193	picture	0		90	89.0	/experiments/Knapen_AOT/AOT_stimuli/pictures/0786_fw.png	183.72526812553406	0.7521712779998779
91	95.31665897369385	response	0	j		89.0	/experiments/Knapen_AOT/AOT_stimuli/pictures/0786_fw.png	184.46715998649597	
92	95.32693839073181	picture	0		174	90.0	/experiments/Knapen_AOT/AOT_stimuli/pictures/0082_fw.png	184.47743940353394	1.4561848640441895
92	96.76666378974915	response	0	j		90.0	/experiments/Knapen_AOT/AOT_stimuli/pictures/0082_fw.png	185.91716480255127	
93	96.783123254776	picture	0		87	91.0	/experiments/Knapen_AOT/AOT_stimuli/pictures/0479_fw.png	185.93362426757812	0.7313194274902344
93	97.50001955032349	response	0	j		91.0	/experiments/Knapen_AOT/AOT_stimuli/pictures/0479_fw.png	186.6505205631256	
94	97.51444268226624	picture	0		70	92.0	/experiments/Knapen_AOT/AOT_stimuli/pictures/0913_fw.png	186.66494369506836	0.5936899185180664
94	98.0916383266449	response	0	j		92.0	/experiments/Knapen_AOT/AOT_stimuli/pictures/0913_fw.png	187.24213933944702	
95	98.1081326007843	picture	0		108	93.0	/experiments/Knapen_AOT/AOT_stimuli/pictures/0899_fw.png	187.25863361358643	0.9083762168884277
95	99.00002479553223	response	0	j		93.0	/experiments/Knapen_AOT/AOT_stimuli/pictures/0899_fw.png	188.15052580833435	
96	99.01650881767273	picture	0		103	94.0	/experiments/Knapen_AOT/AOT_stimuli/pictures/1601_fw.png	188.16700983047485	0.8666324615478516
96	99.86699771881104	response	0	k		94.0	/experiments/Knapen_AOT/AOT_stimuli/pictures/1601_fw.png	189.01749873161316	
97	99.88314127922058	picture	0		85	95.0	/experiments/Knapen_AOT/AOT_stimuli/pictures/0161_fw.png	189.0336422920227	0.714627742767334
97	100.5833740234375	response	0	j		95.0	/experiments/Knapen_AOT/AOT_stimuli/pictures/0161_fw.png	189.73387503623962	
98	100.59776902198792	picture	0		87	96.0	/experiments/Knapen_AOT/AOT_stimuli/pictures/1708_fw.png	189.74827003479004	0.735405445098877
98	101.31676387786865	response	0	j		96.0	/experiments/Knapen_AOT/AOT_stimuli/pictures/1708_fw.png	190.46726489067078	
99	101.33317446708679	picture	0		148	97.0	/experiments/Knapen_AOT/AOT_stimuli/pictures/1424_fw.png	190.48367547988892	1.236818790435791
99	102.55835771560669	response	0	j		97.0	/experiments/Knapen_AOT/AOT_stimuli/pictures/1424_fw.png	191.7088587284088	
100	102.56999325752258	picture	0		102	98.0	/experiments/Knapen_AOT/AOT_stimuli/pictures/0043_fw.png	191.7204942703247	0.8548603057861328
100	103.40215969085693	response	0	k		98.0	/experiments/Knapen_AOT/AOT_stimuli/pictures/0043_fw.png	192.55266070365906	
101	103.42485356330872	picture	0		129	99.0	/experiments/Knapen_AOT/AOT_stimuli/pictures/0538_fw.png	192.57535457611084	1.0757207870483398
101	104.49173831939697	response	0	j		99.0	/experiments/Knapen_AOT/AOT_stimuli/pictures/0538_fw.png	193.6422393321991	
102	104.50057435035706	picture	0		122	100.0	/experiments/Knapen_AOT/AOT_stimuli/pictures/0541_fw.png	193.65107536315918	1.0208160877227783
102	105.50842189788818	response	0	k		100.0	/experiments/Knapen_AOT/AOT_stimuli/pictures/0541_fw.png	194.6589229106903	
103	105.52139043807983	picture	0		81	101.0	/experiments/Knapen_AOT/AOT_stimuli/pictures/1275_fw.png	194.67189145088196	0.686847448348999
103	106.19202065467834	response	0	j		101.0	/experiments/Knapen_AOT/AOT_stimuli/pictures/1275_fw.png	195.34252166748047	
104	106.20823788642883	picture	0		77	102.0	/experiments/Knapen_AOT/AOT_stimuli/pictures/0771_fw.png	195.35873889923096	0.6466012001037598
104	106.8419086933136	response	0	j		102.0	/experiments/Knapen_AOT/AOT_stimuli/pictures/0771_fw.png	195.99240970611572	
105	106.85483908653259	picture	0		95	103.0	/experiments/Knapen_AOT/AOT_stimuli/pictures/0244_fw.png	196.00534009933472	0.7985663414001465
105	107.64188051223755	response	0	k		103.0	/experiments/Knapen_AOT/AOT_stimuli/pictures/0244_fw.png	196.79238152503967	
106	107.65340542793274	picture	0		72	104.0	/experiments/Knapen_AOT/AOT_stimuli/pictures/0123_fw.png	196.80390644073486	0.6048541069030762
106	108.24204277992249	response	0	j		104.0	/experiments/Knapen_AOT/AOT_stimuli/pictures/0123_fw.png	197.3925437927246	
107	108.25825953483582	picture	0		99	105.0	/experiments/Knapen_AOT/AOT_stimuli/pictures/2178_fw.png	197.40876054763794	0.8257412910461426
107	109.07512092590332	response	0	j		105.0	/experiments/Knapen_AOT/AOT_stimuli/pictures/2178_fw.png	198.22562193870544	
108	109.08400082588196	picture	0		297	106.0	/experiments/Knapen_AOT/AOT_stimuli/pictures/0451_fw.png	198.23450183868408	2.482633113861084
108	111.55038619041443	response	0	k		106.0	/experiments/Knapen_AOT/AOT_stimuli/pictures/0451_fw.png	200.70088720321655	
109	111.56663393974304	picture	0		95	107.0	/experiments/Knapen_AOT/AOT_stimuli/pictures/0054_fw.png	200.71713495254517	0.7951281070709229
109	112.35035943984985	response	0	k		107.0	/experiments/Knapen_AOT/AOT_stimuli/pictures/0054_fw.png	201.50086045265198	
110	112.36176204681396	picture	0		186	108.0	/experiments/Knapen_AOT/AOT_stimuli/pictures/0813_fw.png	201.5122630596161	1.5549113750457764
110	113.90049815177917	response	0	k		108.0	/experiments/Knapen_AOT/AOT_stimuli/pictures/0813_fw.png	203.0509991645813	
111	113.91667342185974	picture	0		118	109.0	/experiments/Knapen_AOT/AOT_stimuli/pictures/1806_fw.png	203.06717443466187	0.9867823123931885
111	114.89187741279602	response	0	k		109.0	/experiments/Knapen_AOT/AOT_stimuli/pictures/1806_fw.png	204.04237842559814	
112	114.90345573425293	picture	0		134	110.0	/experiments/Knapen_AOT/AOT_stimuli/pictures/1516_fw.png	204.05395674705505	1.121588945388794
112	116.00865387916565	response	0	k		110.0	/experiments/Knapen_AOT/AOT_stimuli/pictures/1516_fw.png	205.15915489196777	
113	116.02504467964172	picture	0		75	111.0	/experiments/Knapen_AOT/AOT_stimuli/pictures/0579_fw.png	205.17554569244385	0.6283917427062988
113	116.63414216041565	response	0	j		111.0	/experiments/Knapen_AOT/AOT_stimuli/pictures/0579_fw.png	205.78464317321777	
114	116.65343642234802	picture	0		75	112.0	/experiments/Knapen_AOT/AOT_stimuli/pictures/1131_fw.png	205.80393743515015	0.629993200302124
114	117.26681971549988	response	0	j		112.0	/experiments/Knapen_AOT/AOT_stimuli/pictures/1131_fw.png	206.417320728302	
115	117.28342962265015	picture	0		68	113.0	/experiments/Knapen_AOT/AOT_stimuli/pictures/0152_fw.png	206.43393063545227	0.5714952945709229
115	117.8421151638031	response	0	j		113.0	/experiments/Knapen_AOT/AOT_stimuli/pictures/0152_fw.png	206.99261617660522	
116	117.85492491722107	picture	0		136	114.0	/experiments/Knapen_AOT/AOT_stimuli/pictures/1916_fw.png	207.0054259300232	1.1451282501220703
116	118.98372483253479	response	0	k		114.0	/experiments/Knapen_AOT/AOT_stimuli/pictures/1916_fw.png	208.1342258453369	
117	119.00005316734314	picture	0		246	115.0	/experiments/Knapen_AOT/AOT_stimuli/pictures/2078_fw.png	208.15055418014526	2.0561091899871826
117	121.03473258018494	response	0	k		115.0	/experiments/Knapen_AOT/AOT_stimuli/pictures/2078_fw.png	210.18523359298706	
118	121.05616235733032	picture	0		135	116.0	/experiments/Knapen_AOT/AOT_stimuli/pictures/0091_fw.png	210.20666337013245	1.1320645809173584
118	122.17531323432922	response	0	k		116.0	/experiments/Knapen_AOT/AOT_stimuli/pictures/0091_fw.png	211.32581424713135	
119	122.18822693824768	picture	0		96	117.0	/experiments/Knapen_AOT/AOT_stimuli/pictures/1232_fw.png	211.3387279510498	0.7986721992492676
119	122.97532939910889	response	0	k		117.0	/experiments/Knapen_AOT/AOT_stimuli/pictures/1232_fw.png	212.125830411911	
120	122.98689913749695	picture	0		110	118.0	/experiments/Knapen_AOT/AOT_stimuli/pictures/0316_fw.png	212.13740015029907	0.9165897369384766
120	123.89198470115662	response	0	k		118.0	/experiments/Knapen_AOT/AOT_stimuli/pictures/0316_fw.png	213.04248571395874	
121	123.90348887443542	picture	0		112	119.0	/experiments/Knapen_AOT/AOT_stimuli/pictures/1314_fw.png	213.05398988723755	0.9382812976837158
121	124.81840801239014	response	0	k		119.0	/experiments/Knapen_AOT/AOT_stimuli/pictures/1314_fw.png	213.96890902519226	
122	124.84177017211914	picture	0		152	120.0	/experiments/Knapen_AOT/AOT_stimuli/pictures/1074_fw.png	213.99227118492126	1.2751555442810059
122	126.10033464431763	response	0	k		120.0	/experiments/Knapen_AOT/AOT_stimuli/pictures/1074_fw.png	215.25083565711975	
123	126.11692571640015	picture	0		177	121.0	/experiments/Knapen_AOT/AOT_stimuli/pictures/1615_fw.png	215.26742672920227	1.4832639694213867
123	127.58370327949524	response	0	k		121.0	/experiments/Knapen_AOT/AOT_stimuli/pictures/1615_fw.png	216.73420429229736	
124	127.60018968582153	picture	0		131	122.0	/experiments/Knapen_AOT/AOT_stimuli/pictures/1549_fw.png	216.75069069862366	1.0999946594238281
124	128.68380045890808	response	0	k		122.0	/experiments/Knapen_AOT/AOT_stimuli/pictures/1549_fw.png	217.8343014717102	
125	128.70018434524536	picture	0		74	123.0	/experiments/Knapen_AOT/AOT_stimuli/pictures/0416_fw.png	217.85068535804749	0.620020866394043
125	129.30874681472778	response	0	j		123.0	/experiments/Knapen_AOT/AOT_stimuli/pictures/0416_fw.png	218.4592478275299	
126	129.3202052116394	picture	0		127	124.0	/experiments/Knapen_AOT/AOT_stimuli/pictures/1673_fw.png	218.47070622444153	1.0555799007415771
126	130.36704897880554	response	0	k		124.0	/experiments/Knapen_AOT/AOT_stimuli/pictures/1673_fw.png	219.51754999160767	
127	130.37578511238098	picture	0		97	125.0	/experiments/Knapen_AOT/AOT_stimuli/pictures/2005_fw.png	219.5262861251831	0.8125333786010742
127	131.17541790008545	response	0	j		125.0	/experiments/Knapen_AOT/AOT_stimuli/pictures/2005_fw.png	220.32591891288757	
128	131.18831849098206	picture	0		76	126.0	/experiments/Knapen_AOT/AOT_stimuli/pictures/0523_fw.png	220.33881950378418	0.632014274597168
128	131.8087501525879	response	0	j		126.0	/experiments/Knapen_AOT/AOT_stimuli/pictures/0523_fw.png	220.95925116539001	
129	131.82033276557922	picture	0		82	127.0	/experiments/Knapen_AOT/AOT_stimuli/pictures/0848_fw.png	220.97083377838135	0.6882123947143555
129	132.49217224121094	response	0	j		127.0	/experiments/Knapen_AOT/AOT_stimuli/pictures/0848_fw.png	221.64267325401306	
130	132.50854516029358	picture	0		121	128.0	/experiments/Knapen_AOT/AOT_stimuli/pictures/0509_fw.png	221.6590461730957	1.013092279434204
130	133.50879883766174	response	0	k		128.0	/experiments/Knapen_AOT/AOT_stimuli/pictures/0509_fw.png	222.65929985046387	
131	133.52163743972778	picture	0		80	129.0	/experiments/Knapen_AOT/AOT_stimuli/pictures/0287_fw.png	222.6721384525299	0.666654109954834
131	134.17540621757507	response	0	j		129.0	/experiments/Knapen_AOT/AOT_stimuli/pictures/0287_fw.png	223.3259072303772	
132	134.18829154968262	picture	0		154	130.0	/experiments/Knapen_AOT/AOT_stimuli/pictures/1501_fw.png	223.33879256248474	1.2953472137451172
132	135.46729707717896	response	0	j		130.0	/experiments/Knapen_AOT/AOT_stimuli/pictures/1501_fw.png	224.61779808998108	
133	135.48363876342773	picture	0		103	131.0	/experiments/Knapen_AOT/AOT_stimuli/pictures/0227_fw.png	224.63413977622986	0.8666272163391113
133	136.33384919166565	response	0	k		131.0	/experiments/Knapen_AOT/AOT_stimuli/pictures/0227_fw.png	225.48435020446777	
134	136.35026597976685	picture	0		135	132.0	/experiments/Knapen_AOT/AOT_stimuli/pictures/1929_fw.png	225.50076699256897	1.1297290325164795
134	137.467139005661	response	0	k		132.0	/experiments/Knapen_AOT/AOT_stimuli/pictures/1929_fw.png	226.61764001846313	
135	137.47999501228333	picture	0		104	133.0	/experiments/Knapen_AOT/AOT_stimuli/pictures/1269_fw.png	226.63049602508545	0.8680415153503418
135	138.33407402038574	response	0	k		133.0	/experiments/Knapen_AOT/AOT_stimuli/pictures/1269_fw.png	227.48457503318787	
136	138.34803652763367	picture	0		111	134.0	/experiments/Knapen_AOT/AOT_stimuli/pictures/0455_fw.png	227.4985375404358	0.9356460571289062
136	139.26714181900024	response	0	k		134.0	/experiments/Knapen_AOT/AOT_stimuli/pictures/0455_fw.png	228.41764283180237	
137	139.28368258476257	picture	0		144	135.0	/experiments/Knapen_AOT/AOT_stimuli/pictures/0584_fw.png	228.4341835975647	1.2032721042633057
137	140.47549653053284	response	0	k		135.0	/experiments/Knapen_AOT/AOT_stimuli/pictures/0584_fw.png	229.62599754333496	
138	140.48695468902588	picture	0		137	136.0	/experiments/Knapen_AOT/AOT_stimuli/pictures/0213_fw.png	229.637455701828	1.138871431350708
138	141.6172342300415	response	0	j		136.0	/experiments/Knapen_AOT/AOT_stimuli/pictures/0213_fw.png	230.76773524284363	
139	141.6258261203766	picture	0		103	137.0	/experiments/Knapen_AOT/AOT_stimuli/pictures/0359_fw.png	230.7763271331787	0.8611290454864502
139	142.47554564476013	response	0	k		137.0	/experiments/Knapen_AOT/AOT_stimuli/pictures/0359_fw.png	231.62604665756226	
140	142.48695516586304	picture	0		80	138.0	/experiments/Knapen_AOT/AOT_stimuli/pictures/0449_fw.png	231.63745617866516	0.6666786670684814
140	143.14224815368652	response	0	j		138.0	/experiments/Knapen_AOT/AOT_stimuli/pictures/0449_fw.png	232.29274916648865	
141	143.15363383293152	picture	0		78	139.0	/experiments/Knapen_AOT/AOT_stimuli/pictures/2140_fw.png	232.30413484573364	0.6550765037536621
141	143.79222750663757	response	0	j		139.0	/experiments/Knapen_AOT/AOT_stimuli/pictures/2140_fw.png	232.9427285194397	
142	143.80871033668518	picture	0		89	140.0	/experiments/Knapen_AOT/AOT_stimuli/pictures/1535_fw.png	232.9592113494873	0.7476868629455566
142	144.5422351360321	response	0	k		140.0	/experiments/Knapen_AOT/AOT_stimuli/pictures/1535_fw.png	233.69273614883423	
143	144.55639719963074	picture	0		210	141.0	/experiments/Knapen_AOT/AOT_stimuli/pictures/1539_fw.png	233.70689821243286	1.760688304901123
143	146.30096220970154	response	0	k		141.0	/experiments/Knapen_AOT/AOT_stimuli/pictures/1539_fw.png	235.45146322250366	
144	146.31708550453186	picture	0		93	142.0	/experiments/Knapen_AOT/AOT_stimuli/pictures/2175_fw.png	235.46758651733398	0.7810444831848145
144	147.08397364616394	response	0	k		142.0	/experiments/Knapen_AOT/AOT_stimuli/pictures/2175_fw.png	236.23447465896606	
145	147.09812998771667	picture	0		79	143.0	/experiments/Knapen_AOT/AOT_stimuli/pictures/0549_fw.png	236.2486310005188	0.6689682006835938
145	147.75063395500183	response	0	j		143.0	/experiments/Knapen_AOT/AOT_stimuli/pictures/0549_fw.png	236.90113496780396	
146	147.76709818840027	picture	0		133	144.0	/experiments/Knapen_AOT/AOT_stimuli/pictures/1373_fw.png	236.9175992012024	1.116713047027588
146	148.86729502677917	response	0	j		144.0	/experiments/Knapen_AOT/AOT_stimuli/pictures/1373_fw.png	238.0177960395813	
147	148.88381123542786	picture	0		103	145.0	/experiments/Knapen_AOT/AOT_stimuli/pictures/1291_fw.png	238.03431224822998	0.8601350784301758
147	149.73394632339478	response	0	j		145.0	/experiments/Knapen_AOT/AOT_stimuli/pictures/1291_fw.png	238.8844473361969	
148	149.74394631385803	picture	0		187	146.0	/experiments/Knapen_AOT/AOT_stimuli/pictures/0291_fw.png	238.89444732666016	1.5648565292358398
148	151.29233288764954	response	0	k		146.0	/experiments/Knapen_AOT/AOT_stimuli/pictures/0291_fw.png	240.44283390045166	
149	151.30880284309387	picture	0		70	147.0	/experiments/Knapen_AOT/AOT_stimuli/pictures/0959_fw.png	240.459303855896	0.7199010848999023
149	152.01734471321106	response	0	j		147.0	/experiments/Knapen_AOT/AOT_stimuli/pictures/0959_fw.png	241.16784572601318	
150	152.02870392799377	picture	0		537	148.0	/experiments/Knapen_AOT/AOT_stimuli/pictures/0829_fw.png	241.1792049407959	4.4801576137542725
150	156.49266958236694	response	0	j		148.0	/experiments/Knapen_AOT/AOT_stimuli/pictures/0829_fw.png	245.64317059516907	
151	156.50886154174805	picture	0		111	149.0	/experiments/Knapen_AOT/AOT_stimuli/pictures/1643_fw.png	245.65936255455017	0.9295918941497803
151	157.42572450637817	response	0	k		149.0	/experiments/Knapen_AOT/AOT_stimuli/pictures/1643_fw.png	246.5762255191803	
152	157.43845343589783	picture	0		195	150.0	/experiments/Knapen_AOT/AOT_stimuli/pictures/1947_fw.png	246.58895444869995	1.6371748447418213
152	159.05929470062256	response	0	k		150.0	/experiments/Knapen_AOT/AOT_stimuli/pictures/1947_fw.png	248.20979571342468	
153	159.07562828063965	picture	0		90	151.0	/experiments/Knapen_AOT/AOT_stimuli/pictures/0808_fw.png	248.22612929344177	0.7517733573913574
153	159.81764841079712	response	0	j		151.0	/experiments/Knapen_AOT/AOT_stimuli/pictures/0808_fw.png	248.96814942359924	
154	159.827401638031	picture	0		80	152.0	/experiments/Knapen_AOT/AOT_stimuli/pictures/0842_fw.png	248.97790265083313	0.6732015609741211
154	160.48423838615417	response	0	j		152.0	/experiments/Knapen_AOT/AOT_stimuli/pictures/0842_fw.png	249.6347393989563	
155	160.50060319900513	picture	0		82	153.0	/experiments/Knapen_AOT/AOT_stimuli/pictures/0757_fw.png	249.65110421180725	0.6917200088500977
155	161.1761839389801	response	0	j		153.0	/experiments/Knapen_AOT/AOT_stimuli/pictures/0757_fw.png	250.32668495178223	
156	161.19232320785522	picture	0		125	154.0	/experiments/Knapen_AOT/AOT_stimuli/pictures/1703_fw.png	250.34282422065735	1.0448222160339355
156	162.22582411766052	response	0	k		154.0	/experiments/Knapen_AOT/AOT_stimuli/pictures/1703_fw.png	251.37632513046265	
157	162.23714542388916	picture	0		256	155.0	/experiments/Knapen_AOT/AOT_stimuli/pictures/0014_fw.png	251.38764643669128	2.138498067855835
157	164.35916256904602	response	0	k		155.0	/experiments/Knapen_AOT/AOT_stimuli/pictures/0014_fw.png	253.50966358184814	
158	164.375643491745	picture	0		79	156.0	/experiments/Knapen_AOT/AOT_stimuli/pictures/0382_fw.png	253.52614450454712	0.6666593551635742
158	165.02633905410767	response	0	j		156.0	/experiments/Knapen_AOT/AOT_stimuli/pictures/0382_fw.png	254.1768400669098	
159	165.04230284690857	picture	0		559	157.0	/experiments/Knapen_AOT/AOT_stimuli/pictures/2052_fw.png	254.1928038597107	4.666741132736206
159	169.69271183013916	response	0	k		157.0	/experiments/Knapen_AOT/AOT_stimuli/pictures/2052_fw.png	258.8432128429413	
160	169.70904397964478	picture	0		127	158.0	/experiments/Knapen_AOT/AOT_stimuli/pictures/1115_fw.png	258.8595449924469	1.0628972053527832
160	170.7592215538025	response	0	k		158.0	/experiments/Knapen_AOT/AOT_stimuli/pictures/1115_fw.png	259.9097225666046	
161	170.77194118499756	picture	0		79	159.0	/experiments/Knapen_AOT/AOT_stimuli/pictures/1563_fw.png	259.9224421977997	0.6621620655059814
161	171.41761302947998	response	0	j		159.0	/experiments/Knapen_AOT/AOT_stimuli/pictures/1563_fw.png	260.5681140422821	
162	171.43410325050354	picture	0		102	160.0	/experiments/Knapen_AOT/AOT_stimuli/pictures/0631_fw.png	260.58460426330566	0.8517055511474609
162	172.27595019340515	response	0	k		160.0	/experiments/Knapen_AOT/AOT_stimuli/pictures/0631_fw.png	261.4264512062073	
163	172.285808801651	picture	0		101	161.0	/experiments/Knapen_AOT/AOT_stimuli/pictures/1500_fw.png	261.4363098144531	0.8402853012084961
163	173.11759233474731	response	0	k		161.0	/experiments/Knapen_AOT/AOT_stimuli/pictures/1500_fw.png	262.26809334754944	
164	173.1260941028595	picture	0		69	162.0	/experiments/Knapen_AOT/AOT_stimuli/pictures/1277_fw.png	262.2765951156616	0.583003044128418
164	173.69275975227356	response	0	j		162.0	/experiments/Knapen_AOT/AOT_stimuli/pictures/1277_fw.png	262.8432607650757	
165	173.70909714698792	picture	0		109	163.0	/experiments/Knapen_AOT/AOT_stimuli/pictures/1318_fw.png	262.85959815979004	0.9166698455810547
165	174.60921955108643	response	0	j		163.0	/experiments/Knapen_AOT/AOT_stimuli/pictures/1318_fw.png	263.75972056388855	
166	174.62576699256897	picture	0		96	164.0	/experiments/Knapen_AOT/AOT_stimuli/pictures/1063_fw.png	263.7762680053711	0.8059437274932861
166	175.41065549850464	response	0	k		164.0	/experiments/Knapen_AOT/AOT_stimuli/pictures/1063_fw.png	264.56115651130676	
167	175.43171072006226	picture	0		76	165.0	/experiments/Knapen_AOT/AOT_stimuli/pictures/0150_fw.png	264.5822117328644	0.6440799236297607
167	176.05930590629578	response	0	j		165.0	/experiments/Knapen_AOT/AOT_stimuli/pictures/0150_fw.png	265.2098069190979	
168	176.07579064369202	picture	0		102	166.0	/experiments/Knapen_AOT/AOT_stimuli/pictures/2125_fw.png	265.22629165649414	0.8583290576934814
168	176.91798043251038	response	0	j		166.0	/experiments/Knapen_AOT/AOT_stimuli/pictures/2125_fw.png	266.0684814453125	
169	176.9341197013855	picture	0		85	167.0	/experiments/Knapen_AOT/AOT_stimuli/pictures/1104_fw.png	266.0846207141876	0.7129156589508057
169	177.6343264579773	response	0	j		167.0	/experiments/Knapen_AOT/AOT_stimuli/pictures/1104_fw.png	266.7848274707794	
170	177.6470353603363	picture	0		97	168.0	/experiments/Knapen_AOT/AOT_stimuli/pictures/1538_fw.png	266.7975363731384	0.8123931884765625
170	178.45097661018372	response	0	k		168.0	/experiments/Knapen_AOT/AOT_stimuli/pictures/1538_fw.png	267.60147762298584	
171	178.45942854881287	picture	0		105	169.0	/experiments/Knapen_AOT/AOT_stimuli/pictures/0293_fw.png	267.609929561615	0.8830575942993164
171	179.32599139213562	response	0	k		169.0	/experiments/Knapen_AOT/AOT_stimuli/pictures/0293_fw.png	268.47649240493774	
172	179.34248614311218	picture	0		88	170.0	/experiments/Knapen_AOT/AOT_stimuli/pictures/1360_fw.png	268.4929871559143	0.7417309284210205
172	180.06787967681885	response	0	j		170.0	/experiments/Knapen_AOT/AOT_stimuli/pictures/1360_fw.png	269.218380689621	
173	180.0842170715332	picture	0		92	171.0	/experiments/Knapen_AOT/AOT_stimuli/pictures/0102_fw.png	269.2347180843353	0.774986982345581
173	180.8427014350891	response	0	j		171.0	/experiments/Knapen_AOT/AOT_stimuli/pictures/0102_fw.png	269.99320244789124	
174	180.85920405387878	picture	0		85	172.0	/experiments/Knapen_AOT/AOT_stimuli/pictures/2156_fw.png	270.0097050666809	0.7166895866394043
174	181.55936121940613	response	0	j		172.0	/experiments/Knapen_AOT/AOT_stimuli/pictures/2156_fw.png	270.70986223220825	
175	181.5758936405182	picture	0		115	173.0	/experiments/Knapen_AOT/AOT_stimuli/pictures/1473_fw.png	270.7263946533203	0.9599759578704834
175	182.52608561515808	response	0	j		173.0	/experiments/Knapen_AOT/AOT_stimuli/pictures/1473_fw.png	271.6765866279602	
176	182.53586959838867	picture	0		97	174.0	/experiments/Knapen_AOT/AOT_stimuli/pictures/0393_fw.png	271.6863706111908	0.8125090599060059
176	183.33440041542053	response	0	j		174.0	/experiments/Knapen_AOT/AOT_stimuli/pictures/0393_fw.png	272.48490142822266	
177	183.34837865829468	picture	0		106	175.0	/experiments/Knapen_AOT/AOT_stimuli/pictures/1044_fw.png	272.4988796710968	0.8942368030548096
177	184.21846747398376	response	0	j		175.0	/experiments/Knapen_AOT/AOT_stimuli/pictures/1044_fw.png	273.3689684867859	
178	184.2426154613495	picture	0		93	176.0	/experiments/Knapen_AOT/AOT_stimuli/pictures/0374_fw.png	273.3931164741516	0.779421329498291
178	185.0094075202942	response	0	j		176.0	/experiments/Knapen_AOT/AOT_stimuli/pictures/0374_fw.png	274.1599085330963	
179	185.02203679084778	picture	0		69	177.0	/experiments/Knapen_AOT/AOT_stimuli/pictures/0914_fw.png	274.1725378036499	0.5764052867889404
179	185.58449387550354	response	0	j		177.0	/experiments/Knapen_AOT/AOT_stimuli/pictures/0914_fw.png	274.73499488830566	
180	185.59844207763672	picture	0		121	178.0	/experiments/Knapen_AOT/AOT_stimuli/pictures/0429_fw.png	274.74894309043884	1.0191586017608643
180	186.6011917591095	response	0	j		178.0	/experiments/Knapen_AOT/AOT_stimuli/pictures/0429_fw.png	275.7516927719116	
181	186.61760067939758	picture	0		108	179.0	/experiments/Knapen_AOT/AOT_stimuli/pictures/1024_fw.png	275.7681016921997	0.9044275283813477
181	187.50949931144714	response	0	j		179.0	/experiments/Knapen_AOT/AOT_stimuli/pictures/1024_fw.png	276.66000032424927	
182	187.52202820777893	picture	0		89	180.0	/experiments/Knapen_AOT/AOT_stimuli/pictures/0728_fw.png	276.67252922058105	0.7455606460571289
182	188.25116419792175	response	0	j		180.0	/experiments/Knapen_AOT/AOT_stimuli/pictures/0728_fw.png	277.4016652107239	
183	188.26758885383606	picture	0		109	181.0	/experiments/Knapen_AOT/AOT_stimuli/pictures/0663_fw.png	277.4180898666382	0.914177417755127
183	189.1678249835968	response	0	k		181.0	/experiments/Knapen_AOT/AOT_stimuli/pictures/0663_fw.png	278.3183259963989	
184	189.1817662715912	picture	0		446	182.0	/experiments/Knapen_AOT/AOT_stimuli/pictures/0015_fw.png	278.3322672843933	3.722139596939087
184	192.8928418159485	response	0	k		182.0	/experiments/Knapen_AOT/AOT_stimuli/pictures/0015_fw.png	282.0433428287506	
185	192.90390586853027	picture	0		110	183.0	/experiments/Knapen_AOT/AOT_stimuli/pictures/1102_fw.png	282.0544068813324	0.9220848083496094
185	193.80955505371094	response	0	j		183.0	/experiments/Knapen_AOT/AOT_stimuli/pictures/1102_fw.png	282.96005606651306	
186	193.82599067687988	picture	0		87	184.0	/experiments/Knapen_AOT/AOT_stimuli/pictures/0318_fw.png	282.976491689682	0.7308244705200195
186	194.54286766052246	response	0	j		184.0	/experiments/Knapen_AOT/AOT_stimuli/pictures/0318_fw.png	283.6933686733246	
187	194.5568151473999	picture	0		104	185.0	/experiments/Knapen_AOT/AOT_stimuli/pictures/0600_fw.png	283.707316160202	0.8775515556335449
187	195.41790628433228	response	0	k		185.0	/experiments/Knapen_AOT/AOT_stimuli/pictures/0600_fw.png	284.5684072971344	
188	195.43436670303345	picture	0		130	186.0	/experiments/Knapen_AOT/AOT_stimuli/pictures/1080_fw.png	284.58486771583557	1.0877296924591064
188	196.5095500946045	response	0	j		186.0	/experiments/Knapen_AOT/AOT_stimuli/pictures/1080_fw.png	285.6600511074066	
189	196.52209639549255	picture	0		106	187.0	/experiments/Knapen_AOT/AOT_stimuli/pictures/1660_fw.png	285.6725974082947	0.8956279754638672
189	197.40133380889893	response	0	j		187.0	/experiments/Knapen_AOT/AOT_stimuli/pictures/1660_fw.png	286.55183482170105	
190	197.41772437095642	picture	0		100	188.0	/experiments/Knapen_AOT/AOT_stimuli/pictures/1170_fw.png	286.56822538375854	0.8335413932800293
190	198.2429895401001	response	0	j		188.0	/experiments/Knapen_AOT/AOT_stimuli/pictures/1170_fw.png	287.3934905529022	
191	198.25126576423645	picture	0		75	189.0	/experiments/Knapen_AOT/AOT_stimuli/pictures/1141_fw.png	287.4017667770386	0.6331348419189453
191	198.8684298992157	response	0	j		189.0	/experiments/Knapen_AOT/AOT_stimuli/pictures/1141_fw.png	288.0189309120178	
192	198.8844006061554	picture	0		123	190.0	/experiments/Knapen_AOT/AOT_stimuli/pictures/1721_fw.png	288.0349016189575	1.033362865447998
192	199.90133666992188	response	0	k		190.0	/experiments/Knapen_AOT/AOT_stimuli/pictures/1721_fw.png	289.051837682724	
193	199.9177634716034	picture	0		177	191.0	/experiments/Knapen_AOT/AOT_stimuli/pictures/0256_fw.png	289.0682644844055	1.4792652130126953
193	201.3846173286438	response	0	k		191.0	/experiments/Knapen_AOT/AOT_stimuli/pictures/0256_fw.png	290.5351183414459	
194	201.3970286846161	picture	0		81	192.0	/experiments/Knapen_AOT/AOT_stimuli/pictures/0180_fw.png	290.5475296974182	0.6790792942047119
194	202.0596468448639	response	0	j		192.0	/experiments/Knapen_AOT/AOT_stimuli/pictures/0180_fw.png	291.210147857666	
195	202.0761079788208	picture	0		109	193.0	/experiments/Knapen_AOT/AOT_stimuli/pictures/1231_fw.png	291.2266089916229	0.9166929721832275
195	202.97633624076843	response	0	k		193.0	/experiments/Knapen_AOT/AOT_stimuli/pictures/1231_fw.png	292.12683725357056	
196	202.99280095100403	picture	0		77	194.0	/experiments/Knapen_AOT/AOT_stimuli/pictures/0087_fw.png	292.14330196380615	0.6500115394592285
196	203.62652230262756	response	0	j		194.0	/experiments/Knapen_AOT/AOT_stimuli/pictures/0087_fw.png	292.7770233154297	
197	203.64281249046326	picture	0		94	195.0	/experiments/Knapen_AOT/AOT_stimuli/pictures/1338_fw.png	292.7933135032654	0.7916557788848877
197	204.41042923927307	response	0	j		195.0	/experiments/Knapen_AOT/AOT_stimuli/pictures/1338_fw.png	293.5609302520752	
198	204.43446826934814	picture	0		73	196.0	/experiments/Knapen_AOT/AOT_stimuli/pictures/0224_fw.png	293.58496928215027	0.6166799068450928
198	205.03494024276733	response	0	j		196.0	/experiments/Knapen_AOT/AOT_stimuli/pictures/0224_fw.png	294.18544125556946	
199	205.05114817619324	picture	0		108	197.0	/experiments/Knapen_AOT/AOT_stimuli/pictures/2154_fw.png	294.20164918899536	0.9015617370605469
199	205.94302916526794	response	0	k		197.0	/experiments/Knapen_AOT/AOT_stimuli/pictures/2154_fw.png	295.09353017807007	
200	205.95270991325378	picture	0		250	198.0	/experiments/Knapen_AOT/AOT_stimuli/pictures/1709_fw.png	295.1032109260559	2.090167999267578
200	208.02644324302673	response	0	k		198.0	/experiments/Knapen_AOT/AOT_stimuli/pictures/1709_fw.png	297.17694425582886	
201	208.04287791252136	picture	0		88	199.0	/experiments/Knapen_AOT/AOT_stimuli/pictures/1284_fw.png	297.1933789253235	0.741633415222168
201	208.76809453964233	response	0	j		199.0	/experiments/Knapen_AOT/AOT_stimuli/pictures/1284_fw.png	297.91859555244446	
202	208.78451132774353	picture	0		110	200.0	/experiments/Knapen_AOT/AOT_stimuli/pictures/0421_fw.png	297.93501234054565	0.9182131290435791
202	209.6930375099182	response	0	k		200.0	/experiments/Knapen_AOT/AOT_stimuli/pictures/0421_fw.png	298.84353852272034	
203	209.7027244567871	picture	0		93	201.0	/experiments/Knapen_AOT/AOT_stimuli/pictures/1646_fw.png	298.85322546958923	0.7818529605865479
203	210.46807885169983	response	0	j		201.0	/experiments/Knapen_AOT/AOT_stimuli/pictures/1646_fw.png	299.61857986450195	
204	210.48457741737366	picture	0		117	202.0	/experiments/Knapen_AOT/AOT_stimuli/pictures/0418_fw.png	299.6350784301758	0.9833037853240967
204	211.4514193534851	response	0	k		202.0	/experiments/Knapen_AOT/AOT_stimuli/pictures/0418_fw.png	300.60192036628723	
205	211.46788120269775	picture	0		203	203.0	/experiments/Knapen_AOT/AOT_stimuli/pictures/1752_fw.png	300.6183822154999	1.7000634670257568
205	213.1516900062561	response	0	k		203.0	/experiments/Knapen_AOT/AOT_stimuli/pictures/1752_fw.png	302.3021910190582	
206	213.1679446697235	picture	0		205	204.0	/experiments/Knapen_AOT/AOT_stimuli/pictures/1680_fw.png	302.31844568252563	1.716679573059082
206	214.86826038360596	response	0	k		204.0	/experiments/Knapen_AOT/AOT_stimuli/pictures/1680_fw.png	304.0187613964081	
207	214.8846242427826	picture	0		135	205.0	/experiments/Knapen_AOT/AOT_stimuli/pictures/0085_fw.png	304.0351252555847	1.1306490898132324
207	215.9951295852661	response	0	j		205.0	/experiments/Knapen_AOT/AOT_stimuli/pictures/0085_fw.png	305.14563059806824	
208	216.01527333259583	picture	0		82	206.0	/experiments/Knapen_AOT/AOT_stimuli/pictures/0792_fw.png	305.16577434539795	0.6943910121917725
208	216.69320273399353	response	0	j		206.0	/experiments/Knapen_AOT/AOT_stimuli/pictures/0792_fw.png	305.84370374679565	
209	216.7096643447876	picture	0		120	207.0	/experiments/Knapen_AOT/AOT_stimuli/pictures/1697_fw.png	305.8601653575897	1.0000979900360107
209	217.70148181915283	response	0	k		207.0	/experiments/Knapen_AOT/AOT_stimuli/pictures/1697_fw.png	306.85198283195496	
210	217.7097623348236	picture	0		108	208.0	/experiments/Knapen_AOT/AOT_stimuli/pictures/0020_fw.png	306.86026334762573	0.9082348346710205
210	218.60157537460327	response	0	k		208.0	/experiments/Knapen_AOT/AOT_stimuli/pictures/0020_fw.png	307.7520763874054	
211	218.61799716949463	picture	0		94	209.0	/experiments/Knapen_AOT/AOT_stimuli/pictures/1283_fw.png	307.76849818229675	0.7916605472564697
211	219.3862750530243	response	0	j		209.0	/experiments/Knapen_AOT/AOT_stimuli/pictures/1283_fw.png	308.5367760658264	
212	219.4096577167511	picture	0		75	210.0	/experiments/Knapen_AOT/AOT_stimuli/pictures/1836_fw.png	308.5601587295532	0.6334500312805176
212	220.02671885490417	response	0	j		210.0	/experiments/Knapen_AOT/AOT_stimuli/pictures/1836_fw.png	309.1772198677063	
213	220.04310774803162	picture	0		135	211.0	/experiments/Knapen_AOT/AOT_stimuli/pictures/0642_fw.png	309.19360876083374	1.133265733718872
213	221.15996766090393	response	0	k		211.0	/experiments/Knapen_AOT/AOT_stimuli/pictures/0642_fw.png	310.31046867370605	
214	221.1763734817505	picture	0		224	212.0	/experiments/Knapen_AOT/AOT_stimuli/pictures/0592_fw.png	310.3268744945526	1.8750789165496826
214	223.03494024276733	response	0	k		212.0	/experiments/Knapen_AOT/AOT_stimuli/pictures/0592_fw.png	312.18544125556946	
215	223.05145239830017	picture	0		103	213.0	/experiments/Knapen_AOT/AOT_stimuli/pictures/0773_fw.png	312.2019534111023	0.8596875667572021
215	223.90155744552612	response	0	k		213.0	/experiments/Knapen_AOT/AOT_stimuli/pictures/0773_fw.png	313.05205845832825	
216	223.91113996505737	picture	0		105	214.0	/experiments/Knapen_AOT/AOT_stimuli/pictures/2137_fw.png	313.0616409778595	0.8750486373901367
216	224.77657747268677	response	0	k		214.0	/experiments/Knapen_AOT/AOT_stimuli/pictures/2137_fw.png	313.9270784854889	
217	224.7861886024475	picture	0		99	215.0	/experiments/Knapen_AOT/AOT_stimuli/pictures/1520_fw.png	313.93668961524963	0.8319134712219238
217	225.601877450943	response	0	j		215.0	/experiments/Knapen_AOT/AOT_stimuli/pictures/1520_fw.png	314.7523784637451	
218	225.61810207366943	picture	0		113	216.0	/experiments/Knapen_AOT/AOT_stimuli/pictures/2093_fw.png	314.76860308647156	0.9500324726104736
218	226.5518970489502	response	0	k		216.0	/experiments/Knapen_AOT/AOT_stimuli/pictures/2093_fw.png	315.7023980617523	
219	226.5681345462799	picture	0		82	217.0	/experiments/Knapen_AOT/AOT_stimuli/pictures/0687_fw.png	315.71863555908203	0.6916708946228027
219	227.24326944351196	response	0	j		217.0	/experiments/Knapen_AOT/AOT_stimuli/pictures/0687_fw.png	316.3937704563141	
220	227.2598054409027	picture	0		85	218.0	/experiments/Knapen_AOT/AOT_stimuli/pictures/0851_fw.png	316.41030645370483	0.7166306972503662
220	227.9601731300354	response	0	j		218.0	/experiments/Knapen_AOT/AOT_stimuli/pictures/0851_fw.png	317.1106741428375	
221	227.97643613815308	picture	0		98	219.0	/experiments/Knapen_AOT/AOT_stimuli/pictures/1911_fw.png	317.1269371509552	0.8167650699615479
221	228.7850456237793	response	0	k		219.0	/experiments/Knapen_AOT/AOT_stimuli/pictures/1911_fw.png	317.9355466365814	
222	228.79320120811462	picture	0		86	220.0	/experiments/Knapen_AOT/AOT_stimuli/pictures/1636_fw.png	317.94370222091675	0.7222409248352051
222	229.50193309783936	response	0	j		220.0	/experiments/Knapen_AOT/AOT_stimuli/pictures/1636_fw.png	318.6524341106415	
223	229.51544213294983	picture	0		186	221.0	/experiments/Knapen_AOT/AOT_stimuli/pictures/0815_fw.png	318.66594314575195	1.5554132461547852
223	231.06002354621887	response	0	j		221.0	/experiments/Knapen_AOT/AOT_stimuli/pictures/0815_fw.png	320.210524559021	
224	231.07085537910461	picture	0		272	222.0	/experiments/Knapen_AOT/AOT_stimuli/pictures/2020_fw.png	320.22135639190674	2.2778117656707764
224	233.33500695228577	response	0	j		222.0	/experiments/Knapen_AOT/AOT_stimuli/pictures/2020_fw.png	322.4855079650879	
225	233.3486671447754	picture	0		266	223.0	/experiments/Knapen_AOT/AOT_stimuli/pictures/0715_fw.png	322.4991681575775	2.222217321395874
225	235.56006908416748	response	0	k		223.0	/experiments/Knapen_AOT/AOT_stimuli/pictures/0715_fw.png	324.7105700969696	
226	235.57088446617126	picture	0		232	224.0	/experiments/Knapen_AOT/AOT_stimuli/pictures/1635_fw.png	324.7213854789734	1.9390270709991455
226	237.49364733695984	response	0	j		224.0	/experiments/Knapen_AOT/AOT_stimuli/pictures/1635_fw.png	326.64414834976196	
227	237.5099115371704	picture	0		92	225.0	/experiments/Knapen_AOT/AOT_stimuli/pictures/1484_fw.png	326.66041254997253	0.7749714851379395
227	238.2684531211853	response	0	j		225.0	/experiments/Knapen_AOT/AOT_stimuli/pictures/1484_fw.png	327.4189541339874	
228	238.28488302230835	picture	0		88	226.0	/experiments/Knapen_AOT/AOT_stimuli/pictures/1875_fw.png	327.4353840351105	0.7416832447052002
228	239.00256061553955	response	0	k		226.0	/experiments/Knapen_AOT/AOT_stimuli/pictures/1875_fw.png	328.1530616283417	
229	239.02656626701355	picture	0		91	227.0	/experiments/Knapen_AOT/AOT_stimuli/pictures/0751_fw.png	328.1770672798157	0.7668039798736572
229	239.77703404426575	response	0	j		227.0	/experiments/Knapen_AOT/AOT_stimuli/pictures/0751_fw.png	328.92753505706787	
230	239.7933702468872	picture	0		95	228.0	/experiments/Knapen_AOT/AOT_stimuli/pictures/0820_fw.png	328.94387125968933	0.791668176651001
230	240.57678389549255	response	0	k		228.0	/experiments/Knapen_AOT/AOT_stimuli/pictures/0820_fw.png	329.7272849082947	
231	240.5850384235382	picture	0		125	229.0	/experiments/Knapen_AOT/AOT_stimuli/pictures/0272_fw.png	329.73553943634033	1.049905776977539
231	241.618501663208	response	0	k		229.0	/experiments/Knapen_AOT/AOT_stimuli/pictures/0272_fw.png	330.76900267601013	
232	241.63494420051575	picture	0		87	230.0	/experiments/Knapen_AOT/AOT_stimuli/pictures/2066_fw.png	330.78544521331787	0.7277529239654541
232	242.35179948806763	response	0	j		230.0	/experiments/Knapen_AOT/AOT_stimuli/pictures/2066_fw.png	331.50230050086975	
233	242.3626971244812	picture	0		147	231.0	/experiments/Knapen_AOT/AOT_stimuli/pictures/0018_fw.png	331.5131981372833	1.2306013107299805
233	243.5768527984619	response	0	j		231.0	/experiments/Knapen_AOT/AOT_stimuli/pictures/0018_fw.png	332.72735381126404	
234	243.59329843521118	picture	0		149	232.0	/experiments/Knapen_AOT/AOT_stimuli/pictures/1453_fw.png	332.7437994480133	1.2417480945587158
234	244.82686305046082	response	0	k		232.0	/experiments/Knapen_AOT/AOT_stimuli/pictures/1453_fw.png	333.97736406326294	
235	244.8350465297699	picture	0		109	233.0	/experiments/Knapen_AOT/AOT_stimuli/pictures/0200_fw.png	333.985547542572	0.9096271991729736
235	245.7351725101471	response	0	j		233.0	/experiments/Knapen_AOT/AOT_stimuli/pictures/0200_fw.png	334.8856735229492	
236	245.74467372894287	picture	0		83	234.0	/experiments/Knapen_AOT/AOT_stimuli/pictures/2080_fw.png	334.895174741745	0.6986684799194336
236	246.4268696308136	response	0	j		234.0	/experiments/Knapen_AOT/AOT_stimuli/pictures/2080_fw.png	335.5773706436157	
237	246.4433422088623	picture	0		88	235.0	/experiments/Knapen_AOT/AOT_stimuli/pictures/2115_fw.png	335.59384322166443	0.7416753768920898
237	247.1686623096466	response	0	j		235.0	/experiments/Knapen_AOT/AOT_stimuli/pictures/2115_fw.png	336.31916332244873	
238	247.1850175857544	picture	0		132	236.0	/experiments/Knapen_AOT/AOT_stimuli/pictures/1834_fw.png	336.3355185985565	1.1083273887634277
238	248.276930809021	response	0	k		236.0	/experiments/Knapen_AOT/AOT_stimuli/pictures/1834_fw.png	337.4274318218231	
239	248.29334497451782	picture	0		85	237.0	/experiments/Knapen_AOT/AOT_stimuli/pictures/1848_fw.png	337.44384598731995	0.7083256244659424
239	248.99353003501892	response	0	j		237.0	/experiments/Knapen_AOT/AOT_stimuli/pictures/1848_fw.png	338.14403104782104	
240	249.00167059898376	picture	0		74	238.0	/experiments/Knapen_AOT/AOT_stimuli/pictures/1677_fw.png	338.1521716117859	0.6250534057617188
240	249.61040115356445	response	0	j		238.0	/experiments/Knapen_AOT/AOT_stimuli/pictures/1677_fw.png	338.7609021663666	
241	249.62672400474548	picture	0		84	239.0	/experiments/Knapen_AOT/AOT_stimuli/pictures/1366_fw.png	338.7772250175476	0.7012882232666016
241	250.31866192817688	response	0	j		239.0	/experiments/Knapen_AOT/AOT_stimuli/pictures/1366_fw.png	339.469162940979	
242	250.32801222801208	picture	0		100	240.0	/experiments/Knapen_AOT/AOT_stimuli/pictures/1783_fw.png	339.4785132408142	0.8403749465942383
242	251.15191650390625	response	0	k		240.0	/experiments/Knapen_AOT/AOT_stimuli/pictures/1783_fw.png	340.3024175167084	
243	251.16838717460632	picture	0		100	241.0	/experiments/Knapen_AOT/AOT_stimuli/pictures/0477_fw.png	340.31888818740845	0.8333268165588379
243	251.9936420917511	response	0	k		241.0	/experiments/Knapen_AOT/AOT_stimuli/pictures/0477_fw.png	341.1441431045532	
244	252.00171399116516	picture	0		99	242.0	/experiments/Knapen_AOT/AOT_stimuli/pictures/1092_fw.png	341.1522150039673	0.8263382911682129
244	252.81865668296814	response	0	j		242.0	/experiments/Knapen_AOT/AOT_stimuli/pictures/1092_fw.png	341.96915769577026	
245	252.82805228233337	picture	0		151	243.0	/experiments/Knapen_AOT/AOT_stimuli/pictures/1407_fw.png	341.9785532951355	1.2653770446777344
245	254.07693481445312	response	0	j		243.0	/experiments/Knapen_AOT/AOT_stimuli/pictures/1407_fw.png	343.22743582725525	
246	254.0934293270111	picture	0		119	244.0	/experiments/Knapen_AOT/AOT_stimuli/pictures/1397_fw.png	343.24393033981323	1.0000555515289307
246	255.07701182365417	response	0	j		244.0	/experiments/Knapen_AOT/AOT_stimuli/pictures/1397_fw.png	344.2275128364563	
247	255.09348487854004	picture	0		95	245.0	/experiments/Knapen_AOT/AOT_stimuli/pictures/0668_fw.png	344.24398589134216	0.7971291542053223
247	255.87702345848083	response	0	j		245.0	/experiments/Knapen_AOT/AOT_stimuli/pictures/0668_fw.png	345.02752447128296	
248	255.89061403274536	picture	0		463	246.0	/experiments/Knapen_AOT/AOT_stimuli/pictures/2000_fw.png	345.0411150455475	3.8695638179779053
248	259.7437479496002	response	0	k		246.0	/experiments/Knapen_AOT/AOT_stimuli/pictures/2000_fw.png	348.89424896240234	
249	259.76017785072327	picture	0		89	247.0	/experiments/Knapen_AOT/AOT_stimuli/pictures/2095_fw.png	348.9106788635254	0.7500100135803223
249	260.4936661720276	response	0	k		247.0	/experiments/Knapen_AOT/AOT_stimuli/pictures/2095_fw.png	349.6441671848297	
250	260.5101878643036	picture	0		131	248.0	/experiments/Knapen_AOT/AOT_stimuli/pictures/0742_fw.png	349.6606888771057	1.0957236289978027
250	261.58672046661377	response	0	j		248.0	/experiments/Knapen_AOT/AOT_stimuli/pictures/0742_fw.png	350.7372214794159	
251	261.6059114933014	picture	0		127	249.0	/experiments/Knapen_AOT/AOT_stimuli/pictures/0840_fw.png	350.7564125061035	1.0709881782531738
251	262.66041707992554	response	0	k		249.0	/experiments/Knapen_AOT/AOT_stimuli/pictures/0840_fw.png	351.81091809272766	
252	262.67689967155457	picture	0		129	250.0	/experiments/Knapen_AOT/AOT_stimuli/pictures/0862_fw.png	351.8274006843567	1.0833323001861572
252	263.74380564689636	response	0	k		250.0	/experiments/Knapen_AOT/AOT_stimuli/pictures/0862_fw.png	352.8943066596985	
253	263.7602319717407	picture	0		213	251.0	/experiments/Knapen_AOT/AOT_stimuli/pictures/1172_fw.png	352.91073298454285	1.783344030380249
253	265.52710008621216	response	0	k		251.0	/experiments/Knapen_AOT/AOT_stimuli/pictures/1172_fw.png	354.6776010990143	
254	265.543576002121	picture	0		242	252.0	/experiments/Knapen_AOT/AOT_stimuli/pictures/0463_fw.png	354.6940770149231	2.025027275085449
254	267.55213046073914	response	0	j		252.0	/experiments/Knapen_AOT/AOT_stimuli/pictures/0463_fw.png	356.70263147354126	
255	267.5686032772064	picture	0		93	253.0	/experiments/Knapen_AOT/AOT_stimuli/pictures/1137_fw.png	356.71910429000854	0.7833428382873535
255	268.335590839386	response	0	j		253.0	/experiments/Knapen_AOT/AOT_stimuli/pictures/1137_fw.png	357.4860918521881	
256	268.3519461154938	picture	0		94	254.0	/experiments/Knapen_AOT/AOT_stimuli/pictures/0697_fw.png	357.5024471282959	0.7916936874389648
256	269.12713503837585	response	0	k		254.0	/experiments/Knapen_AOT/AOT_stimuli/pictures/0697_fw.png	358.277636051178	
257	269.14363980293274	picture	0		102	255.0	/experiments/Knapen_AOT/AOT_stimuli/pictures/1526_fw.png	358.29414081573486	0.8583183288574219
257	269.97892332077026	response	0	k		255.0	/experiments/Knapen_AOT/AOT_stimuli/pictures/1526_fw.png	359.1294243335724	
258	270.00195813179016	picture	0		79	256.0	/experiments/Knapen_AOT/AOT_stimuli/pictures/2064_fw.png	359.1524591445923	0.6595466136932373
258	270.65217185020447	response	0	j		256.0	/experiments/Knapen_AOT/AOT_stimuli/pictures/2064_fw.png	359.8026728630066	
259	270.6615047454834	picture	0		158	257.0	/experiments/Knapen_AOT/AOT_stimuli/pictures/1032_fw.png	359.8120057582855	1.319385051727295
259	271.9688837528229	response	0	k		257.0	/experiments/Knapen_AOT/AOT_stimuli/pictures/1032_fw.png	361.119384765625	
260	271.9808897972107	picture	0		87	258.0	/experiments/Knapen_AOT/AOT_stimuli/pictures/0723_fw.png	361.1313908100128	0.7377924919128418
260	272.7021861076355	response	0	j		258.0	/experiments/Knapen_AOT/AOT_stimuli/pictures/0723_fw.png	361.8526871204376	
261	272.71868228912354	picture	0		85	259.0	/experiments/Knapen_AOT/AOT_stimuli/pictures/0686_fw.png	361.86918330192566	0.7166450023651123
261	273.41886138916016	response	0	j		259.0	/experiments/Knapen_AOT/AOT_stimuli/pictures/0686_fw.png	362.5693624019623	
262	273.43532729148865	picture	0		165	260.0	/experiments/Knapen_AOT/AOT_stimuli/pictures/0955_fw.png	362.58582830429077	1.383375883102417
262	274.8025236129761	response	0	k		260.0	/experiments/Knapen_AOT/AOT_stimuli/pictures/0955_fw.png	363.9530246257782	
263	274.81870317459106	picture	0		118	261.0	/experiments/Knapen_AOT/AOT_stimuli/pictures/1750_fw.png	363.9692041873932	0.9916677474975586
263	275.78732657432556	response	0	k		261.0	/experiments/Knapen_AOT/AOT_stimuli/pictures/1750_fw.png	364.9378275871277	
264	275.8103709220886	picture	0		171	262.0	/experiments/Knapen_AOT/AOT_stimuli/pictures/0204_fw.png	364.96087193489075	1.4333701133728027
264	277.22732067108154	response	0	k		262.0	/experiments/Knapen_AOT/AOT_stimuli/pictures/0204_fw.png	366.37782168388367	
265	277.2437410354614	picture	0		100	263.0	/experiments/Knapen_AOT/AOT_stimuli/pictures/0211_fw.png	366.39424204826355	0.83453369140625
265	278.06897830963135	response	0	k		263.0	/experiments/Knapen_AOT/AOT_stimuli/pictures/0211_fw.png	367.2194793224335	
266	278.0782747268677	picture	0		103	264.0	/experiments/Knapen_AOT/AOT_stimuli/pictures/2023_fw.png	367.2287757396698	0.8655135631561279
266	278.9272482395172	response	0	k		264.0	/experiments/Knapen_AOT/AOT_stimuli/pictures/2023_fw.png	368.07774925231934	
267	278.9437882900238	picture	0		99	265.0	/experiments/Knapen_AOT/AOT_stimuli/pictures/1888_fw.png	368.0942893028259	0.8333051204681396
267	279.76063418388367	response	0	k		265.0	/experiments/Knapen_AOT/AOT_stimuli/pictures/1888_fw.png	368.9111351966858	
268	279.77709341049194	picture	0		101	266.0	/experiments/Knapen_AOT/AOT_stimuli/pictures/0176_fw.png	368.92759442329407	0.8499975204467773
268	280.61063981056213	response	0	k		266.0	/experiments/Knapen_AOT/AOT_stimuli/pictures/0176_fw.png	369.76114082336426	
269	280.6270909309387	picture	0		95	267.0	/experiments/Knapen_AOT/AOT_stimuli/pictures/1917_fw.png	369.77759194374084	0.791663408279419
269	281.41067123413086	response	0	j		267.0	/experiments/Knapen_AOT/AOT_stimuli/pictures/1917_fw.png	370.561172246933	
270	281.41875433921814	picture	0		183	268.0	/experiments/Knapen_AOT/AOT_stimuli/pictures/2017_fw.png	370.56925535202026	1.5333926677703857
270	282.93563747406006	response	0	k		268.0	/experiments/Knapen_AOT/AOT_stimuli/pictures/2017_fw.png	372.0861384868622	
271	282.9521470069885	picture	0		101	269.0	/experiments/Knapen_AOT/AOT_stimuli/pictures/0746_fw.png	372.10264801979065	0.8416340351104736
271	283.77854585647583	response	0	j		269.0	/experiments/Knapen_AOT/AOT_stimuli/pictures/0746_fw.png	372.92904686927795	
272	283.793781042099	picture	0		89	270.0	/experiments/Knapen_AOT/AOT_stimuli/pictures/1031_fw.png	372.9442820549011	0.7500338554382324
272	284.52737522125244	response	0	j		270.0	/experiments/Knapen_AOT/AOT_stimuli/pictures/1031_fw.png	373.67787623405457	
273	284.54381489753723	picture	0		82	271.0	/experiments/Knapen_AOT/AOT_stimuli/pictures/0776_fw.png	373.69431591033936	0.6872684955596924
273	285.21904826164246	response	0	j		271.0	/experiments/Knapen_AOT/AOT_stimuli/pictures/0776_fw.png	374.3695492744446	
274	285.2310833930969	picture	0		78	272.0	/experiments/Knapen_AOT/AOT_stimuli/pictures/2127_fw.png	374.38158440589905	0.6544268131256104
274	285.8690767288208	response	0	j		272.0	/experiments/Knapen_AOT/AOT_stimuli/pictures/2127_fw.png	375.0195777416229	
275	285.88551020622253	picture	0		101	273.0	/experiments/Knapen_AOT/AOT_stimuli/pictures/1312_fw.png	375.03601121902466	0.8500208854675293
275	286.7191164493561	response	0	k		273.0	/experiments/Knapen_AOT/AOT_stimuli/pictures/1312_fw.png	375.8696174621582	
276	286.73553109169006	picture	0		110	274.0	/experiments/Knapen_AOT/AOT_stimuli/pictures/2040_fw.png	375.8860321044922	0.9191854000091553
276	287.64405035972595	response	0	k		274.0	/experiments/Knapen_AOT/AOT_stimuli/pictures/2040_fw.png	376.7945513725281	
277	287.6547164916992	picture	0		66	275.0	/experiments/Knapen_AOT/AOT_stimuli/pictures/0109_fw.png	376.80521750450134	0.5558090209960938
277	288.1869304180145	response	0	j		275.0	/experiments/Knapen_AOT/AOT_stimuli/pictures/0109_fw.png	377.33743143081665	
278	288.2105255126953	picture	0		360	276.0	/experiments/Knapen_AOT/AOT_stimuli/pictures/0519_fw.png	377.36102652549744	3.0084192752838135
278	291.2027254104614	response	0	k		276.0	/experiments/Knapen_AOT/AOT_stimuli/pictures/0519_fw.png	380.35322642326355	
279	291.2189447879791	picture	0		90	277.0	/experiments/Knapen_AOT/AOT_stimuli/pictures/1864_fw.png	380.36944580078125	0.7582995891571045
279	291.9607274532318	response	0	j		277.0	/experiments/Knapen_AOT/AOT_stimuli/pictures/1864_fw.png	381.11122846603394	
280	291.97724437713623	picture	0		177	278.0	/experiments/Knapen_AOT/AOT_stimuli/pictures/0401_fw.png	381.12774538993835	1.4833502769470215
280	293.4441635608673	response	0	k		278.0	/experiments/Knapen_AOT/AOT_stimuli/pictures/0401_fw.png	382.59466457366943	
281	293.46059465408325	picture	0		85	279.0	/experiments/Knapen_AOT/AOT_stimuli/pictures/1438_fw.png	382.6110956668854	0.7167119979858398
281	294.1608283519745	response	0	j		279.0	/experiments/Knapen_AOT/AOT_stimuli/pictures/1438_fw.png	383.3113293647766	
282	294.1773066520691	picture	0		81	280.0	/experiments/Knapen_AOT/AOT_stimuli/pictures/0749_fw.png	383.3278076648712	0.678830623626709
282	294.8441433906555	response	0	j		280.0	/experiments/Knapen_AOT/AOT_stimuli/pictures/0749_fw.png	383.99464440345764	
283	294.8561372756958	picture	0		157	281.0	/experiments/Knapen_AOT/AOT_stimuli/pictures/1090_fw.png	384.0066382884979	1.3128175735473633
283	296.15268421173096	response	0	k		281.0	/experiments/Knapen_AOT/AOT_stimuli/pictures/1090_fw.png	385.3031852245331	
284	296.16895484924316	picture	0		85	282.0	/experiments/Knapen_AOT/AOT_stimuli/pictures/1418_fw.png	385.3194558620453	0.7166986465454102
284	296.8691499233246	response	0	k		282.0	/experiments/Knapen_AOT/AOT_stimuli/pictures/1418_fw.png	386.0196509361267	
285	296.8856534957886	picture	0		158	283.0	/experiments/Knapen_AOT/AOT_stimuli/pictures/0709_fw.png	386.0361545085907	1.3249897956848145
285	298.1870393753052	response	0	j		283.0	/experiments/Knapen_AOT/AOT_stimuli/pictures/0709_fw.png	387.3375403881073	
286	298.2106432914734	picture	0		171	284.0	/experiments/Knapen_AOT/AOT_stimuli/pictures/0002_fw.png	387.3611443042755	1.4334516525268555
286	299.62786173820496	response	0	k		284.0	/experiments/Knapen_AOT/AOT_stimuli/pictures/0002_fw.png	388.7783627510071	
287	299.64409494400024	picture	0		97	285.0	/experiments/Knapen_AOT/AOT_stimuli/pictures/2039_fw.png	388.79459595680237	0.8092870712280273
287	300.44425344467163	response	0	k		285.0	/experiments/Knapen_AOT/AOT_stimuli/pictures/2039_fw.png	389.59475445747375	
288	300.45338201522827	picture	0		111	286.0	/experiments/Knapen_AOT/AOT_stimuli/pictures/1062_fw.png	389.6038830280304	0.9323031902313232
288	301.3629822731018	response	0	k		286.0	/experiments/Knapen_AOT/AOT_stimuli/pictures/1062_fw.png	390.51348328590393	
289	301.3856852054596	picture	0		101	287.0	/experiments/Knapen_AOT/AOT_stimuli/pictures/0099_fw.png	390.5361862182617	0.8455934524536133
289	302.2192692756653	response	0	k		287.0	/experiments/Knapen_AOT/AOT_stimuli/pictures/0099_fw.png	391.3697702884674	
290	302.2312786579132	picture	0		116	288.0	/experiments/Knapen_AOT/AOT_stimuli/pictures/0676_fw.png	391.38177967071533	0.9711093902587891
290	303.18609285354614	response	0	j		288.0	/experiments/Knapen_AOT/AOT_stimuli/pictures/0676_fw.png	392.33659386634827	
291	303.202388048172	picture	0		90	289.0	/experiments/Knapen_AOT/AOT_stimuli/pictures/0551_fw.png	392.3528890609741	0.7583339214324951
291	303.9443259239197	response	0	j		289.0	/experiments/Knapen_AOT/AOT_stimuli/pictures/0551_fw.png	393.0948269367218	
292	303.9607219696045	picture	0		152	290.0	/experiments/Knapen_AOT/AOT_stimuli/pictures/0556_fw.png	393.1112229824066	1.275089979171753
292	305.21929478645325	response	0	j		290.0	/experiments/Knapen_AOT/AOT_stimuli/pictures/0556_fw.png	394.36979579925537	
293	305.23581194877625	picture	0		152	291.0	/experiments/Knapen_AOT/AOT_stimuli/pictures/1524_fw.png	394.38631296157837	1.274979829788208
293	306.49426317214966	response	0	k		291.0	/experiments/Knapen_AOT/AOT_stimuli/pictures/1524_fw.png	395.6447641849518	
294	306.51079177856445	picture	0		98	292.0	/experiments/Knapen_AOT/AOT_stimuli/pictures/1971_fw.png	395.6612927913666	0.8249585628509521
294	307.3193311691284	response	0	k		292.0	/experiments/Knapen_AOT/AOT_stimuli/pictures/1971_fw.png	396.46983218193054	
295	307.3357503414154	picture	0		95	293.0	/experiments/Knapen_AOT/AOT_stimuli/pictures/1850_fw.png	396.48625135421753	0.800044059753418
295	308.1193084716797	response	0	k		293.0	/experiments/Knapen_AOT/AOT_stimuli/pictures/1850_fw.png	397.2698094844818	
296	308.1357944011688	picture	0		105	294.0	/experiments/Knapen_AOT/AOT_stimuli/pictures/0683_fw.png	397.28629541397095	0.8833355903625488
296	309.0030345916748	response	0	j		294.0	/experiments/Knapen_AOT/AOT_stimuli/pictures/0683_fw.png	398.15353560447693	
297	309.0191299915314	picture	0		89	295.0	/experiments/Knapen_AOT/AOT_stimuli/pictures/1271_fw.png	398.1696310043335	0.7500128746032715
297	309.75263357162476	response	0	j		295.0	/experiments/Knapen_AOT/AOT_stimuli/pictures/1271_fw.png	398.9031345844269	
298	309.76914286613464	picture	0		114	296.0	/experiments/Knapen_AOT/AOT_stimuli/pictures/1925_fw.png	398.91964387893677	0.9583454132080078
298	310.7110080718994	response	0	k		296.0	/experiments/Knapen_AOT/AOT_stimuli/pictures/1925_fw.png	399.86150908470154	
299	310.72748827934265	picture	0		123	297.0	/experiments/Knapen_AOT/AOT_stimuli/pictures/1755_fw.png	399.8779892921448	1.0333476066589355
299	311.7454490661621	response	0	k		297.0	/experiments/Knapen_AOT/AOT_stimuli/pictures/1755_fw.png	400.89595007896423	
300	311.7608358860016	picture	0		125	298.0	/experiments/Knapen_AOT/AOT_stimuli/pictures/1416_fw.png	400.9113368988037	1.050004482269287
300	312.78681802749634	response	0	k		298.0	/experiments/Knapen_AOT/AOT_stimuli/pictures/1416_fw.png	401.93731904029846	
301	312.8108403682709	picture	0		93	299.0	/experiments/Knapen_AOT/AOT_stimuli/pictures/0173_fw.png	401.961341381073	0.7749924659729004
301	313.57773065567017	response	0	k		299.0	/experiments/Knapen_AOT/AOT_stimuli/pictures/0173_fw.png	402.7282316684723	
302	313.5858328342438	picture	0		127	300.0	/experiments/Knapen_AOT/AOT_stimuli/pictures/0510_fw.png	402.7363338470459	1.0621497631072998
302	314.63605642318726	response	0	k		300.0	/experiments/Knapen_AOT/AOT_stimuli/pictures/0510_fw.png	403.7865574359894	
303	314.6479825973511	picture	0		76	301.0	/experiments/Knapen_AOT/AOT_stimuli/pictures/1308_fw.png	403.7984836101532	0.6462438106536865
303	315.2777931690216	response	0	j		301.0	/experiments/Knapen_AOT/AOT_stimuli/pictures/1308_fw.png	404.42829418182373	
304	315.29422640800476	picture	0		231	302.0	/experiments/Knapen_AOT/AOT_stimuli/pictures/1816_fw.png	404.4447274208069	1.9333858489990234
304	317.21108865737915	response	0	k		302.0	/experiments/Knapen_AOT/AOT_stimuli/pictures/1816_fw.png	406.3615896701813	
305	317.2276122570038	picture	0		125	303.0	/experiments/Knapen_AOT/AOT_stimuli/pictures/0789_fw.png	406.3781132698059	1.0499770641326904
305	318.26108479499817	response	0	k		303.0	/experiments/Knapen_AOT/AOT_stimuli/pictures/0789_fw.png	407.4115858078003	
306	318.2775893211365	picture	0		125	304.0	/experiments/Knapen_AOT/AOT_stimuli/pictures/0468_fw.png	407.4280903339386	1.050011396408081
306	319.31163144111633	response	0	j		304.0	/experiments/Knapen_AOT/AOT_stimuli/pictures/0468_fw.png	408.46213245391846	
307	319.32760071754456	picture	0		173	305.0	/experiments/Knapen_AOT/AOT_stimuli/pictures/0572_fw.png	408.4781017303467	1.4500234127044678
307	320.76117753982544	response	0	j		305.0	/experiments/Knapen_AOT/AOT_stimuli/pictures/0572_fw.png	409.91167855262756	
308	320.777624130249	picture	0		128	306.0	/experiments/Knapen_AOT/AOT_stimuli/pictures/1450_fw.png	409.92812514305115	1.0750625133514404
308	321.8361234664917	response	0	k		306.0	/experiments/Knapen_AOT/AOT_stimuli/pictures/1450_fw.png	410.9866244792938	
309	321.85268664360046	picture	0		125	307.0	/experiments/Knapen_AOT/AOT_stimuli/pictures/0304_fw.png	411.0031876564026	1.0500082969665527
309	322.88628339767456	response	0	j		307.0	/experiments/Knapen_AOT/AOT_stimuli/pictures/0304_fw.png	412.0367844104767	
310	322.902694940567	picture	0		86	308.0	/experiments/Knapen_AOT/AOT_stimuli/pictures/0648_fw.png	412.05319595336914	0.7249541282653809
310	323.61142778396606	response	0	j		308.0	/experiments/Knapen_AOT/AOT_stimuli/pictures/0648_fw.png	412.7619287967682	
311	323.6276490688324	picture	0		80	309.0	/experiments/Knapen_AOT/AOT_stimuli/pictures/0484_fw.png	412.7781500816345	0.6731653213500977
311	324.28618597984314	response	0	j		309.0	/experiments/Knapen_AOT/AOT_stimuli/pictures/0484_fw.png	413.43668699264526	
312	324.3008143901825	picture	0		239	310.0	/experiments/Knapen_AOT/AOT_stimuli/pictures/0803_fw.png	413.4513154029846	2.0018858909606934
312	326.28630566596985	response	0	k		310.0	/experiments/Knapen_AOT/AOT_stimuli/pictures/0803_fw.png	415.436806678772	
313	326.3027002811432	picture	0		98	311.0	/experiments/Knapen_AOT/AOT_stimuli/pictures/0214_fw.png	415.4532012939453	0.8174688816070557
313	327.1112036705017	response	0	k		311.0	/experiments/Knapen_AOT/AOT_stimuli/pictures/0214_fw.png	416.26170468330383	
314	327.12016916275024	picture	0		99	312.0	/experiments/Knapen_AOT/AOT_stimuli/pictures/1494_fw.png	416.27067017555237	0.8326013088226318
314	327.93639302253723	response	0	j		312.0	/experiments/Knapen_AOT/AOT_stimuli/pictures/1494_fw.png	417.08689403533936	
315	327.9527704715729	picture	0		102	313.0	/experiments/Knapen_AOT/AOT_stimuli/pictures/0300_fw.png	417.103271484375	0.8582711219787598
315	328.7946310043335	response	0	k		313.0	/experiments/Knapen_AOT/AOT_stimuli/pictures/0300_fw.png	417.9451320171356	
316	328.81104159355164	picture	0		132	314.0	/experiments/Knapen_AOT/AOT_stimuli/pictures/0708_fw.png	417.96154260635376	1.1083698272705078
316	329.90295481681824	response	0	j		314.0	/experiments/Knapen_AOT/AOT_stimuli/pictures/0708_fw.png	419.05345582962036	
317	329.91941142082214	picture	0		130	315.0	/experiments/Knapen_AOT/AOT_stimuli/pictures/1734_fw.png	419.06991243362427	1.0833015441894531
317	330.9872615337372	response	0	j		315.0	/experiments/Knapen_AOT/AOT_stimuli/pictures/1734_fw.png	420.1377625465393	
318	331.0027129650116	picture	0		131	316.0	/experiments/Knapen_AOT/AOT_stimuli/pictures/0189_fw.png	420.1532139778137	1.1000425815582275
318	332.08626413345337	response	0	k		316.0	/experiments/Knapen_AOT/AOT_stimuli/pictures/0189_fw.png	421.2367651462555	
319	332.1027555465698	picture	0		71	317.0	/experiments/Knapen_AOT/AOT_stimuli/pictures/1514_fw.png	421.25325655937195	0.6000330448150635
319	332.6862573623657	response	0	j		317.0	/experiments/Knapen_AOT/AOT_stimuli/pictures/1514_fw.png	421.83675837516785	
320	332.7027885913849	picture	0		320	318.0	/experiments/Knapen_AOT/AOT_stimuli/pictures/0923_fw.png	421.853289604187	2.6750121116638184
320	335.36130595207214	response	0	k		318.0	/experiments/Knapen_AOT/AOT_stimuli/pictures/0923_fw.png	424.51180696487427	
321	335.3778007030487	picture	0		87	319.0	/experiments/Knapen_AOT/AOT_stimuli/pictures/1665_fw.png	424.52830171585083	0.7285499572753906
321	336.094651222229	response	0	j		319.0	/experiments/Knapen_AOT/AOT_stimuli/pictures/1665_fw.png	425.2451522350311	
322	336.1063506603241	picture	0		90	320.0	/experiments/Knapen_AOT/AOT_stimuli/pictures/0494_fw.png	425.2568516731262	0.7548067569732666
322	336.84465432167053	response	0	j		320.0	/experiments/Knapen_AOT/AOT_stimuli/pictures/0494_fw.png	425.99515533447266	
323	336.86115741729736	picture	0		112	321.0	/experiments/Knapen_AOT/AOT_stimuli/pictures/0833_fw.png	426.0116584300995	0.9416766166687012
323	337.7866973876953	response	0	k		321.0	/experiments/Knapen_AOT/AOT_stimuli/pictures/0833_fw.png	426.93719840049744	
324	337.80283403396606	picture	0		191	322.0	/experiments/Knapen_AOT/AOT_stimuli/pictures/0505_fw.png	426.9533350467682	1.6000945568084717
324	339.3866562843323	response	0	k		322.0	/experiments/Knapen_AOT/AOT_stimuli/pictures/0505_fw.png	428.5371572971344	
325	339.40292859077454	picture	0		109	323.0	/experiments/Knapen_AOT/AOT_stimuli/pictures/0934_fw.png	428.55342960357666	0.916595458984375
325	340.3030390739441	response	0	k		323.0	/experiments/Knapen_AOT/AOT_stimuli/pictures/0934_fw.png	429.4535400867462	
326	340.3195240497589	picture	0		181	324.0	/experiments/Knapen_AOT/AOT_stimuli/pictures/2099_fw.png	429.47002506256104	1.5167198181152344
326	341.81970953941345	response	0	k		324.0	/experiments/Knapen_AOT/AOT_stimuli/pictures/2099_fw.png	430.9702105522156	
327	341.83624386787415	picture	0		70	325.0	/experiments/Knapen_AOT/AOT_stimuli/pictures/0547_fw.png	430.98674488067627	0.5896368026733398
327	342.41151237487793	response	0	j		325.0	/experiments/Knapen_AOT/AOT_stimuli/pictures/0547_fw.png	431.56201338768005	
328	342.4258806705475	picture	0		103	326.0	/experiments/Knapen_AOT/AOT_stimuli/pictures/2092_fw.png	431.5763816833496	0.8686902523040771
328	343.2781045436859	response	0	k		326.0	/experiments/Knapen_AOT/AOT_stimuli/pictures/2092_fw.png	432.42860555648804	
329	343.29457092285156	picture	0		81	327.0	/experiments/Knapen_AOT/AOT_stimuli/pictures/1481_fw.png	432.4450719356537	0.6799154281616211
329	343.96169090270996	response	0	j		327.0	/experiments/Knapen_AOT/AOT_stimuli/pictures/1481_fw.png	433.1121919155121	
330	343.9744863510132	picture	0		121	328.0	/experiments/Knapen_AOT/AOT_stimuli/pictures/1648_fw.png	433.1249873638153	1.0201494693756104
330	344.97833800315857	response	0	k		328.0	/experiments/Knapen_AOT/AOT_stimuli/pictures/1648_fw.png	434.1288390159607	
331	344.9946358203888	picture	0		118	329.0	/experiments/Knapen_AOT/AOT_stimuli/pictures/2141_fw.png	434.1451368331909	0.9916219711303711
331	345.9699079990387	response	0	k		329.0	/experiments/Knapen_AOT/AOT_stimuli/pictures/2141_fw.png	435.1204090118408	
332	345.98625779151917	picture	0		92	330.0	/experiments/Knapen_AOT/AOT_stimuli/pictures/0661_fw.png	435.1367588043213	0.7750189304351807
332	346.744820356369	response	0	k		330.0	/experiments/Knapen_AOT/AOT_stimuli/pictures/0661_fw.png	435.89532136917114	
333	346.76127672195435	picture	0		120	331.0	/experiments/Knapen_AOT/AOT_stimuli/pictures/1991_fw.png	435.91177773475647	1.008340835571289
333	347.75313687324524	response	0	k		331.0	/experiments/Knapen_AOT/AOT_stimuli/pictures/1991_fw.png	436.90363788604736	
334	347.76961755752563	picture	0		70	332.0	/experiments/Knapen_AOT/AOT_stimuli/pictures/1009_fw.png	436.92011857032776	0.591688871383667
334	348.344984292984	response	0	j		332.0	/experiments/Knapen_AOT/AOT_stimuli/pictures/1009_fw.png	437.49548530578613	
335	348.3613064289093	picture	0		117	333.0	/experiments/Knapen_AOT/AOT_stimuli/pictures/1377_fw.png	437.5118074417114	0.983332633972168
335	349.32838010787964	response	0	k		333.0	/experiments/Knapen_AOT/AOT_stimuli/pictures/1377_fw.png	438.47888112068176	
336	349.34463906288147	picture	0		146	334.0	/experiments/Knapen_AOT/AOT_stimuli/pictures/1305_fw.png	438.4951400756836	1.2250332832336426
336	350.5531573295593	response	0	k		334.0	/experiments/Knapen_AOT/AOT_stimuli/pictures/1305_fw.png	439.70365834236145	
337	350.5696723461151	picture	0		116	335.0	/experiments/Knapen_AOT/AOT_stimuli/pictures/1036_fw.png	439.72017335891724	0.9750015735626221
337	351.52822828292847	response	0	k		335.0	/experiments/Knapen_AOT/AOT_stimuli/pictures/1036_fw.png	440.6787292957306	
338	351.54467391967773	picture	0		210	336.0	/experiments/Knapen_AOT/AOT_stimuli/pictures/0736_fw.png	440.69517493247986	1.7583732604980469
338	353.2865455150604	response	0	k		336.0	/experiments/Knapen_AOT/AOT_stimuli/pictures/0736_fw.png	442.43704652786255	
339	353.3030471801758	picture	0		218	337.0	/experiments/Knapen_AOT/AOT_stimuli/pictures/0205_fw.png	442.4535481929779	1.8250067234039307
339	355.11160492897034	response	0	k		337.0	/experiments/Knapen_AOT/AOT_stimuli/pictures/0205_fw.png	444.26210594177246	
340	355.1280539035797	picture	0		111	338.0	/experiments/Knapen_AOT/AOT_stimuli/pictures/1503_fw.png	444.27855491638184	0.9333415031433105
340	356.0448932647705	response	0	k		338.0	/experiments/Knapen_AOT/AOT_stimuli/pictures/1503_fw.png	445.19539427757263	
341	356.061395406723	picture	0		103	339.0	/experiments/Knapen_AOT/AOT_stimuli/pictures/1622_fw.png	445.21189641952515	0.8666768074035645
341	356.91157150268555	response	0	k		339.0	/experiments/Knapen_AOT/AOT_stimuli/pictures/1622_fw.png	446.06207251548767	
342	356.9280722141266	picture	0		129	340.0	/experiments/Knapen_AOT/AOT_stimuli/pictures/0042_fw.png	446.0785732269287	1.0833392143249512
342	357.9950976371765	response	0	k		340.0	/experiments/Knapen_AOT/AOT_stimuli/pictures/0042_fw.png	447.14559864997864	
343	358.01141142845154	picture	0		689	341.0	/experiments/Knapen_AOT/AOT_stimuli/pictures/2068_fw.png	447.16191244125366	5.7500879764556885
343	363.7451057434082	response	0	j		341.0	/experiments/Knapen_AOT/AOT_stimuli/pictures/2068_fw.png	452.8956067562103	
344	363.7614994049072	picture	0		85	342.0	/experiments/Knapen_AOT/AOT_stimuli/pictures/0939_fw.png	452.91200041770935	0.7131104469299316
344	364.4616611003876	response	0	j		342.0	/experiments/Knapen_AOT/AOT_stimuli/pictures/0939_fw.png	453.6121621131897	
345	364.47460985183716	picture	0		71	343.0	/experiments/Knapen_AOT/AOT_stimuli/pictures/0124_fw.png	453.6251108646393	0.5952489376068115
345	365.0533649921417	response	0	j		343.0	/experiments/Knapen_AOT/AOT_stimuli/pictures/0124_fw.png	454.20386600494385	
346	365.06985878944397	picture	0		94	344.0	/experiments/Knapen_AOT/AOT_stimuli/pictures/0296_fw.png	454.2203598022461	0.7916707992553711
346	365.8450984954834	response	0	j		344.0	/experiments/Knapen_AOT/AOT_stimuli/pictures/0296_fw.png	454.9955995082855	
347	365.86152958869934	picture	0		108	345.0	/experiments/Knapen_AOT/AOT_stimuli/pictures/0044_fw.png	455.01203060150146	0.9083607196807861
347	366.753573179245	response	0	k		345.0	/experiments/Knapen_AOT/AOT_stimuli/pictures/0044_fw.png	455.9040741920471	
348	366.7698903083801	picture	0		74	346.0	/experiments/Knapen_AOT/AOT_stimuli/pictures/1477_fw.png	455.92039132118225	0.6249887943267822
348	367.37112832069397	response	0	j		346.0	/experiments/Knapen_AOT/AOT_stimuli/pictures/1477_fw.png	456.5216293334961	
349	367.3948791027069	picture	0		96	347.0	/experiments/Knapen_AOT/AOT_stimuli/pictures/1580_fw.png	456.54538011550903	0.8084423542022705
349	368.1868257522583	response	0	k		347.0	/experiments/Knapen_AOT/AOT_stimuli/pictures/1580_fw.png	457.3373267650604	
350	368.2033214569092	picture	0		84	348.0	/experiments/Knapen_AOT/AOT_stimuli/pictures/1307_fw.png	457.3538224697113	0.7018790245056152
350	368.8950581550598	response	0	j		348.0	/experiments/Knapen_AOT/AOT_stimuli/pictures/1307_fw.png	458.04555916786194	
351	368.9052004814148	picture	0		146	349.0	/experiments/Knapen_AOT/AOT_stimuli/pictures/0819_fw.png	458.0557014942169	1.223053216934204
351	370.1117579936981	response	0	k		349.0	/experiments/Knapen_AOT/AOT_stimuli/pictures/0819_fw.png	459.26225900650024	
352	370.128253698349	picture	0		85	350.0	/experiments/Knapen_AOT/AOT_stimuli/pictures/1455_fw.png	459.2787547111511	0.7166821956634521
352	370.8284261226654	response	0	j		350.0	/experiments/Knapen_AOT/AOT_stimuli/pictures/1455_fw.png	459.97892713546753	
353	370.84493589401245	picture	0		368	351.0	/experiments/Knapen_AOT/AOT_stimuli/pictures/1791_fw.png	459.9954369068146	3.075101375579834
353	373.90352511405945	response	0	j		351.0	/experiments/Knapen_AOT/AOT_stimuli/pictures/1791_fw.png	463.0540261268616	
354	373.9200372695923	picture	0		135	352.0	/experiments/Knapen_AOT/AOT_stimuli/pictures/1869_fw.png	463.0705382823944	1.1332790851593018
354	375.03681921958923	response	0	k		352.0	/experiments/Knapen_AOT/AOT_stimuli/pictures/1869_fw.png	464.18732023239136	
355	375.0533163547516	picture	0		117	353.0	/experiments/Knapen_AOT/AOT_stimuli/pictures/1700_fw.png	464.2038173675537	0.9833550453186035
355	376.0201458930969	response	0	j		353.0	/experiments/Knapen_AOT/AOT_stimuli/pictures/1700_fw.png	465.17064690589905	
356	376.0366714000702	picture	0		100	354.0	/experiments/Knapen_AOT/AOT_stimuli/pictures/0402_fw.png	465.1871724128723	0.8416507244110107
356	376.86182975769043	response	0	j		354.0	/experiments/Knapen_AOT/AOT_stimuli/pictures/0402_fw.png	466.01233077049255	
357	376.8783221244812	picture	0		87	355.0	/experiments/Knapen_AOT/AOT_stimuli/pictures/2019_fw.png	466.0288231372833	0.7333526611328125
357	377.59518241882324	response	0	j		355.0	/experiments/Knapen_AOT/AOT_stimuli/pictures/2019_fw.png	466.74568343162537	
358	377.611674785614	picture	0		166	356.0	/experiments/Knapen_AOT/AOT_stimuli/pictures/1175_fw.png	466.76217579841614	1.3916854858398438
358	378.9872045516968	response	0	j		356.0	/experiments/Knapen_AOT/AOT_stimuli/pictures/1175_fw.png	468.1377055644989	
359	379.00336027145386	picture	0		227	357.0	/experiments/Knapen_AOT/AOT_stimuli/pictures/1315_fw.png	468.153861284256	1.9000134468078613
359	380.88690733909607	response	0	j		357.0	/experiments/Knapen_AOT/AOT_stimuli/pictures/1315_fw.png	470.0374083518982	
360	380.9033737182617	picture	0		118	358.0	/experiments/Knapen_AOT/AOT_stimuli/pictures/1914_fw.png	470.05387473106384	0.9916858673095703
360	381.878573179245	response	0	j		358.0	/experiments/Knapen_AOT/AOT_stimuli/pictures/1914_fw.png	471.0290741920471	
361	381.8950595855713	picture	0		167	359.0	/experiments/Knapen_AOT/AOT_stimuli/pictures/1872_fw.png	471.0455605983734	1.4000060558319092
361	383.27859807014465	response	0	k		359.0	/experiments/Knapen_AOT/AOT_stimuli/pictures/1872_fw.png	472.4290990829468	
362	383.2950656414032	stim	0		628			472.4455666542053	5.245502471923828
362	388.5260307788849	response	0	space				477.676531791687	
