trial_nr	onset	event_type	phase	response	nr_frames	picture_index	picture_file	onset_abs	duration
0	0.15822291374206543	stim	0		512			113.71272087097168	4.369657039642334
0	4.499940872192383	response	0	space				118.054438829422	
2	4.527879953384399	picture	0		178	0.0	/experiments/knapen_aot/AOT/AOT_stimuli/pictures/1586_fw.png	118.08237791061401	1.48842191696167
2	6.000194787979126	response	0	j		0.0	/experiments/knapen_aot/AOT/AOT_stimuli/pictures/1586_fw.png	119.55469274520874	
3	6.016301870346069	picture	0		119	1.0	/experiments/knapen_aot/AOT/AOT_stimuli/pictures/1874_fw.png	119.57079982757568	0.9999549388885498
3	7.0006139278411865	response	0	k		1.0	/experiments/knapen_aot/AOT/AOT_stimuli/pictures/1874_fw.png	120.5551118850708	
4	7.016256809234619	picture	0		139	2.0	/experiments/knapen_aot/AOT/AOT_stimuli/pictures/0434_fw.png	120.57075476646423	1.1666769981384277
4	8.167229890823364	response	0	j		2.0	/experiments/knapen_aot/AOT/AOT_stimuli/pictures/0434_fw.png	121.72172784805298	
5	8.182933807373047	picture	0		97	3.0	/experiments/knapen_aot/AOT/AOT_stimuli/pictures/2004_fw.png	121.73743176460266	0.817608118057251
5	8.976359844207764	response	0	j		3.0	/experiments/knapen_aot/AOT/AOT_stimuli/pictures/2004_fw.png	122.53085780143738	
6	9.000541925430298	picture	0		108	4.0	/experiments/knapen_aot/AOT/AOT_stimuli/pictures/0338_fw.png	122.55503988265991	0.9074039459228516
6	9.891380786895752	response	0	j		4.0	/experiments/knapen_aot/AOT/AOT_stimuli/pictures/0338_fw.png	123.44587874412537	
7	9.90794587135315	picture	0		370	5.0	/experiments/knapen_aot/AOT/AOT_stimuli/pictures/1661_fw.png	123.46244382858276	3.0850870609283447
7	12.976290941238403	response	0	k		5.0	/experiments/knapen_aot/AOT/AOT_stimuli/pictures/1661_fw.png	126.53078889846802	
8	12.993032932281494	picture	0		181	6.0	/experiments/knapen_aot/AOT/AOT_stimuli/pictures/1766_fw.png	126.54753088951111	1.5069160461425781
8	14.491305828094482	response	0	j		6.0	/experiments/knapen_aot/AOT/AOT_stimuli/pictures/1766_fw.png	128.0458037853241	
9	14.499948978424072	picture	0		121	7.0	/experiments/knapen_aot/AOT/AOT_stimuli/pictures/1369_fw.png	128.0544469356537	1.0496258735656738
9	15.50053095817566	response	0	k		7.0	/experiments/knapen_aot/AOT/AOT_stimuli/pictures/1369_fw.png	129.05502891540527	
10	15.549574851989746	picture	0		100	8.0	/experiments/knapen_aot/AOT/AOT_stimuli/pictures/0431_fw.png	129.10407280921936	0.8416259288787842
10	16.367992877960205	response	0	k		8.0	/experiments/knapen_aot/AOT/AOT_stimuli/pictures/0431_fw.png	129.92249083518982	
11	16.39120078086853	picture	0		105	9.0	/experiments/knapen_aot/AOT/AOT_stimuli/pictures/0098_fw.png	129.94569873809814	0.8833742141723633
11	17.258010864257812	response	0	j		9.0	/experiments/knapen_aot/AOT/AOT_stimuli/pictures/0098_fw.png	130.81250882148743	
12	17.274574995040894	picture	0		227	10.0	/experiments/knapen_aot/AOT/AOT_stimuli/pictures/1000_fw.png	130.8290729522705	1.8999788761138916
12	19.158015966415405	response	0	j		10.0	/experiments/knapen_aot/AOT/AOT_stimuli/pictures/1000_fw.png	132.71251392364502	
13	19.174553871154785	picture	0		102	11.0	/experiments/knapen_aot/AOT/AOT_stimuli/pictures/0472_fw.png	132.7290518283844	1.1749699115753174
13	20.01633596420288	response	0	j		11.0	/experiments/knapen_aot/AOT/AOT_stimuli/pictures/0472_fw.png	133.5708339214325	
14	20.349523782730103	picture	0		100	12.0	/experiments/knapen_aot/AOT/AOT_stimuli/pictures/0642_fw.png	133.90402173995972	0.8378782272338867
14	21.16888689994812	response	0	k		12.0	/experiments/knapen_aot/AOT/AOT_stimuli/pictures/0642_fw.png	134.72338485717773	
15	21.18740200996399	picture	0		107	13.0	/experiments/knapen_aot/AOT/AOT_stimuli/pictures/1942_fw.png	134.7418999671936	0.8954639434814453
15	22.0663058757782	response	0	k		13.0	/experiments/knapen_aot/AOT/AOT_stimuli/pictures/1942_fw.png	135.6208038330078	
16	22.082865953445435	picture	0		106	14.0	/experiments/knapen_aot/AOT/AOT_stimuli/pictures/0539_fw.png	135.63736391067505	0.8916759490966797
16	22.958820819854736	response	0	j		14.0	/experiments/knapen_aot/AOT/AOT_stimuli/pictures/0539_fw.png	136.51331877708435	
17	22.974541902542114	picture	0		106	15.0	/experiments/knapen_aot/AOT/AOT_stimuli/pictures/1304_fw.png	136.52903985977173	0.8916289806365967
17	23.849622011184692	response	0	j		15.0	/experiments/knapen_aot/AOT/AOT_stimuli/pictures/1304_fw.png	137.4041199684143	
18	23.86617088317871	picture	0		140	16.0	/experiments/knapen_aot/AOT/AOT_stimuli/pictures/1443_fw.png	137.42066884040833	1.1684629917144775
18	25.024626970291138	response	0	j		16.0	/experiments/knapen_aot/AOT/AOT_stimuli/pictures/1443_fw.png	138.57912492752075	
19	25.03463387489319	picture	0		154	17.0	/experiments/knapen_aot/AOT/AOT_stimuli/pictures/0257_fw.png	138.5891318321228	1.2898709774017334
19	26.307966947555542	response	0	k		17.0	/experiments/knapen_aot/AOT/AOT_stimuli/pictures/0257_fw.png	139.86246490478516	
20	26.324504852294922	picture	0		151	18.0	/experiments/knapen_aot/AOT/AOT_stimuli/pictures/1723_fw.png	139.87900280952454	1.259160041809082
20	27.567859888076782	response	0	j		18.0	/experiments/knapen_aot/AOT/AOT_stimuli/pictures/1723_fw.png	141.1223578453064	
21	27.583664894104004	picture	0		98	19.0	/experiments/knapen_aot/AOT/AOT_stimuli/pictures/1016_fw.png	141.13816285133362	0.8189020156860352
21	28.384740829467773	response	0	j		19.0	/experiments/knapen_aot/AOT/AOT_stimuli/pictures/1016_fw.png	141.9392387866974	
22	28.40256690979004	picture	0		89	20.0	/experiments/knapen_aot/AOT/AOT_stimuli/pictures/2046_fw.png	141.95706486701965	0.7431399822235107
22	29.132974863052368	response	0	k		20.0	/experiments/knapen_aot/AOT/AOT_stimuli/pictures/2046_fw.png	142.68747282028198	
23	29.14570689201355	picture	0		102	21.0	/experiments/knapen_aot/AOT/AOT_stimuli/pictures/1572_fw.png	142.70020484924316	0.847261905670166
23	29.976367950439453	response	0	j		21.0	/experiments/knapen_aot/AOT/AOT_stimuli/pictures/1572_fw.png	143.53086590766907	
24	29.992968797683716	picture	0		93	22.0	/experiments/knapen_aot/AOT/AOT_stimuli/pictures/0267_fw.png	143.54746675491333	0.7777299880981445
24	30.752171993255615	response	0	k		22.0	/experiments/knapen_aot/AOT/AOT_stimuli/pictures/0267_fw.png	144.30666995048523	
25	30.77069878578186	picture	0		124	23.0	/experiments/knapen_aot/AOT/AOT_stimuli/pictures/0865_fw.png	144.32519674301147	1.0371341705322266
25	31.7846999168396	response	0	j		23.0	/experiments/knapen_aot/AOT/AOT_stimuli/pictures/0865_fw.png	145.3391978740692	
26	31.807832956314087	picture	0		111	24.0	/experiments/knapen_aot/AOT/AOT_stimuli/pictures/1338_fw.png	145.3623309135437	0.9281039237976074
26	32.724647998809814	response	0	k		24.0	/experiments/knapen_aot/AOT/AOT_stimuli/pictures/1338_fw.png	146.27914595603943	
27	32.735936880111694	picture	0		146	25.0	/experiments/knapen_aot/AOT/AOT_stimuli/pictures/0533_fw.png	146.2904348373413	1.2218689918518066
27	33.941295862197876	response	0	k		25.0	/experiments/knapen_aot/AOT/AOT_stimuli/pictures/0533_fw.png	147.4957938194275	
28	33.9578058719635	picture	0		131	26.0	/experiments/knapen_aot/AOT/AOT_stimuli/pictures/1897_fw.png	147.51230382919312	1.0999720096588135
28	35.04220700263977	response	0	k		26.0	/experiments/knapen_aot/AOT/AOT_stimuli/pictures/1897_fw.png	148.59670495986938	
29	35.057777881622314	picture	0		140	27.0	/experiments/knapen_aot/AOT/AOT_stimuli/pictures/1107_fw.png	148.61227583885193	1.1750071048736572
29	36.2164249420166	response	0	k		27.0	/experiments/knapen_aot/AOT/AOT_stimuli/pictures/1107_fw.png	149.77092289924622	
30	36.23278498649597	picture	0		80	28.0	/experiments/knapen_aot/AOT/AOT_stimuli/pictures/0281_fw.png	149.7872829437256	0.669713020324707
30	36.89133095741272	response	0	j		28.0	/experiments/knapen_aot/AOT/AOT_stimuli/pictures/0281_fw.png	150.44582891464233	
31	36.90249800682068	picture	0		81	29.0	/experiments/knapen_aot/AOT/AOT_stimuli/pictures/1358_fw.png	150.4569959640503	0.6811769008636475
31	37.559637784957886	response	0	j		29.0	/experiments/knapen_aot/AOT/AOT_stimuli/pictures/1358_fw.png	151.1141357421875	
32	37.583674907684326	picture	0		93	30.0	/experiments/knapen_aot/AOT/AOT_stimuli/pictures/0708_fw.png	151.13817286491394	0.782418966293335
32	38.34959387779236	response	0	k		30.0	/experiments/knapen_aot/AOT/AOT_stimuli/pictures/0708_fw.png	151.90409183502197	
33	38.36609387397766	picture	0		91	31.0	/experiments/knapen_aot/AOT/AOT_stimuli/pictures/0258_fw.png	151.92059183120728	0.7667880058288574
33	39.116267919540405	response	0	j		31.0	/experiments/knapen_aot/AOT/AOT_stimuli/pictures/0258_fw.png	152.67076587677002	
34	39.13288187980652	picture	0		85	32.0	/experiments/knapen_aot/AOT/AOT_stimuli/pictures/1896_fw.png	152.68737983703613	0.7165961265563965
34	39.83380079269409	response	0	k		32.0	/experiments/knapen_aot/AOT/AOT_stimuli/pictures/1896_fw.png	153.3882987499237	
35	39.849478006362915	picture	0		124	33.0	/experiments/knapen_aot/AOT/AOT_stimuli/pictures/1691_fw.png	153.40397596359253	1.0416219234466553
35	40.87544584274292	response	0	k		33.0	/experiments/knapen_aot/AOT/AOT_stimuli/pictures/1691_fw.png	154.42994379997253	
36	40.89109992980957	picture	0		92	34.0	/experiments/knapen_aot/AOT/AOT_stimuli/pictures/1876_fw.png	154.44559788703918	0.7750658988952637
36	41.649592876434326	response	0	k		34.0	/experiments/knapen_aot/AOT/AOT_stimuli/pictures/1876_fw.png	155.20409083366394	
37	41.666165828704834	picture	0		94	35.0	/experiments/knapen_aot/AOT/AOT_stimuli/pictures/1434_fw.png	155.22066378593445	0.7924981117248535
37	42.44126582145691	response	0	j		35.0	/experiments/knapen_aot/AOT/AOT_stimuli/pictures/1434_fw.png	155.99576377868652	
38	42.45866394042969	picture	0		82	36.0	/experiments/knapen_aot/AOT/AOT_stimuli/pictures/1581_fw.png	156.0131618976593	0.6908040046691895
38	43.13286590576172	response	0	j		36.0	/experiments/knapen_aot/AOT/AOT_stimuli/pictures/1581_fw.png	156.68736386299133	
39	43.14946794509888	picture	0		85	37.0	/experiments/knapen_aot/AOT/AOT_stimuli/pictures/1218_fw.png	156.7039659023285	0.7166118621826172
39	43.84956979751587	response	0	k		37.0	/experiments/knapen_aot/AOT/AOT_stimuli/pictures/1218_fw.png	157.40406775474548	
40	43.866079807281494	picture	0		105	38.0	/experiments/knapen_aot/AOT/AOT_stimuli/pictures/1435_fw.png	157.4205777645111	0.8833951950073242
40	44.73292684555054	response	0	j		38.0	/experiments/knapen_aot/AOT/AOT_stimuli/pictures/1435_fw.png	158.28742480278015	
41	44.74947500228882	picture	0		94	39.0	/experiments/knapen_aot/AOT/AOT_stimuli/pictures/1143_fw.png	158.30397295951843	0.799954891204834
41	45.52457880973816	response	0	k		39.0	/experiments/knapen_aot/AOT/AOT_stimuli/pictures/1143_fw.png	159.07907676696777	
42	45.54942989349365	picture	0		89	40.0	/experiments/knapen_aot/AOT/AOT_stimuli/pictures/0154_fw.png	159.10392785072327	0.7841789722442627
42	46.282907009124756	response	0	j		40.0	/experiments/knapen_aot/AOT/AOT_stimuli/pictures/0154_fw.png	159.83740496635437	
43	46.333608865737915	picture	0		224	41.0	/experiments/knapen_aot/AOT/AOT_stimuli/pictures/0033_fw.png	159.88810682296753	1.874333143234253
43	48.19118690490723	response	0	k		41.0	/experiments/knapen_aot/AOT/AOT_stimuli/pictures/0033_fw.png	161.74568486213684	
44	48.20794200897217	picture	0		103	42.0	/experiments/knapen_aot/AOT/AOT_stimuli/pictures/1822_fw.png	161.76243996620178	0.8664848804473877
44	49.05790400505066	response	0	j		42.0	/experiments/knapen_aot/AOT/AOT_stimuli/pictures/1822_fw.png	162.61240196228027	
45	49.074426889419556	picture	0		119	43.0	/experiments/knapen_aot/AOT/AOT_stimuli/pictures/1316_fw.png	162.62892484664917	1.0000090599060059
45	50.05788278579712	response	0	k		43.0	/experiments/knapen_aot/AOT/AOT_stimuli/pictures/1316_fw.png	163.61238074302673	
46	50.07443594932556	picture	0		92	44.0	/experiments/knapen_aot/AOT/AOT_stimuli/pictures/2036_fw.png	163.62893390655518	0.7749729156494141
46	50.83379292488098	response	0	j		44.0	/experiments/knapen_aot/AOT/AOT_stimuli/pictures/2036_fw.png	164.3882908821106	
47	50.849408864974976	picture	0		96	45.0	/experiments/knapen_aot/AOT/AOT_stimuli/pictures/0929_fw.png	164.4039068222046	0.8516089916229248
47	51.641196966171265	response	0	k		45.0	/experiments/knapen_aot/AOT/AOT_stimuli/pictures/0929_fw.png	165.19569492340088	
48	51.7010178565979	picture	0		190	46.0	/experiments/knapen_aot/AOT/AOT_stimuli/pictures/0886_fw.png	165.25551581382751	1.590095043182373
48	53.27449178695679	response	0	k		46.0	/experiments/knapen_aot/AOT/AOT_stimuli/pictures/0886_fw.png	166.8289897441864	
49	53.29111289978027	picture	0		103	47.0	/experiments/knapen_aot/AOT/AOT_stimuli/pictures/0331_fw.png	166.8456108570099	0.8666210174560547
49	54.14119791984558	response	0	k		47.0	/experiments/knapen_aot/AOT/AOT_stimuli/pictures/0331_fw.png	167.6956958770752	
50	54.15773391723633	picture	0		82	48.0	/experiments/knapen_aot/AOT/AOT_stimuli/pictures/1532_fw.png	167.71223187446594	0.6916830539703369
50	54.833810806274414	response	0	k		48.0	/experiments/knapen_aot/AOT/AOT_stimuli/pictures/1532_fw.png	168.38830876350403	
51	54.849416971206665	picture	0		76	49.0	/experiments/knapen_aot/AOT/AOT_stimuli/pictures/2103_fw.png	168.40391492843628	0.6362698078155518
51	55.474538803100586	response	0	j		49.0	/experiments/knapen_aot/AOT/AOT_stimuli/pictures/2103_fw.png	169.0290367603302	
52	55.48568677902222	picture	0		118	50.0	/experiments/knapen_aot/AOT/AOT_stimuli/pictures/0523_fw.png	169.04018473625183	0.9886882305145264
52	56.45876693725586	response	0	j		50.0	/experiments/knapen_aot/AOT/AOT_stimuli/pictures/0523_fw.png	170.01326489448547	
53	56.47437500953674	picture	0		81	51.0	/experiments/knapen_aot/AOT/AOT_stimuli/pictures/1611_fw.png	170.02887296676636	0.6779508590698242
53	57.14117097854614	response	0	k		51.0	/experiments/knapen_aot/AOT/AOT_stimuli/pictures/1611_fw.png	170.69566893577576	
54	57.15232586860657	picture	0		110	52.0	/experiments/knapen_aot/AOT/AOT_stimuli/pictures/1078_fw.png	170.70682382583618	0.9166359901428223
54	58.057838916778564	response	0	k		52.0	/experiments/knapen_aot/AOT/AOT_stimuli/pictures/1078_fw.png	171.61233687400818	
55	58.06896185874939	picture	0		272	53.0	/experiments/knapen_aot/AOT/AOT_stimuli/pictures/0070_fw.png	171.623459815979	2.27211594581604
55	60.32447600364685	response	0	k		53.0	/experiments/knapen_aot/AOT/AOT_stimuli/pictures/0070_fw.png	173.87897396087646	
56	60.34107780456543	picture	0		142	54.0	/experiments/knapen_aot/AOT/AOT_stimuli/pictures/0951_fw.png	173.89557576179504	1.1916310787200928
56	61.51618790626526	response	0	k		54.0	/experiments/knapen_aot/AOT/AOT_stimuli/pictures/0951_fw.png	175.07068586349487	
57	61.53270888328552	picture	0		116	55.0	/experiments/knapen_aot/AOT/AOT_stimuli/pictures/0256_fw.png	175.08720684051514	0.9675040245056152
57	62.49119782447815	response	0	k		55.0	/experiments/knapen_aot/AOT/AOT_stimuli/pictures/0256_fw.png	176.04569578170776	
58	62.50021290779114	picture	0		131	56.0	/experiments/knapen_aot/AOT/AOT_stimuli/pictures/1278_fw.png	176.05471086502075	1.0991699695587158
58	63.58370780944824	response	0	j		56.0	/experiments/knapen_aot/AOT/AOT_stimuli/pictures/1278_fw.png	177.13820576667786	
59	63.59938287734985	picture	0		119	57.0	/experiments/knapen_aot/AOT/AOT_stimuli/pictures/1903_fw.png	177.15388083457947	0.9999620914459229
59	64.5836718082428	response	0	k		57.0	/experiments/knapen_aot/AOT/AOT_stimuli/pictures/1903_fw.png	178.1381697654724	
60	64.59934496879578	picture	0		82	58.0	/experiments/knapen_aot/AOT/AOT_stimuli/pictures/0753_fw.png	178.1538429260254	0.6916370391845703
60	65.27441883087158	response	0	k		58.0	/experiments/knapen_aot/AOT/AOT_stimuli/pictures/0753_fw.png	178.8289167881012	
61	65.29098200798035	picture	0		76	59.0	/experiments/knapen_aot/AOT/AOT_stimuli/pictures/1029_fw.png	178.84547996520996	0.6417169570922852
61	65.91695594787598	response	0	k		59.0	/experiments/knapen_aot/AOT/AOT_stimuli/pictures/1029_fw.png	179.4714539051056	
62	65.93269896507263	picture	0		134	60.0	/experiments/knapen_aot/AOT/AOT_stimuli/pictures/1503_fw.png	179.48719692230225	1.1250028610229492
62	67.04210186004639	response	0	j		60.0	/experiments/knapen_aot/AOT/AOT_stimuli/pictures/1503_fw.png	180.596599817276	
63	67.05770182609558	picture	0		170	61.0	/experiments/knapen_aot/AOT/AOT_stimuli/pictures/2009_fw.png	180.6121997833252	1.4208920001983643
63	68.4661009311676	response	0	j		61.0	/experiments/knapen_aot/AOT/AOT_stimuli/pictures/2009_fw.png	182.02059888839722	
64	68.47859382629395	picture	0		257	62.0	/experiments/knapen_aot/AOT/AOT_stimuli/pictures/0640_fw.png	182.03309178352356	2.15403413772583
64	70.60780191421509	response	0	k		62.0	/experiments/knapen_aot/AOT/AOT_stimuli/pictures/0640_fw.png	184.1622998714447	
65	70.63262796401978	picture	0		106	63.0	/experiments/knapen_aot/AOT/AOT_stimuli/pictures/0899_fw.png	184.1871259212494	0.8918108940124512
65	71.50780296325684	response	0	j		63.0	/experiments/knapen_aot/AOT/AOT_stimuli/pictures/0899_fw.png	185.06230092048645	
66	71.52443885803223	picture	0		200	64.0	/experiments/knapen_aot/AOT/AOT_stimuli/pictures/0921_fw.png	185.07893681526184	1.6693899631500244
66	73.17602396011353	response	0	k		64.0	/experiments/knapen_aot/AOT/AOT_stimuli/pictures/0921_fw.png	186.73052191734314	
67	73.19382882118225	picture	0		113	65.0	/experiments/knapen_aot/AOT/AOT_stimuli/pictures/0414_fw.png	186.74832677841187	0.9471561908721924
67	74.12538886070251	response	0	k		65.0	/experiments/knapen_aot/AOT/AOT_stimuli/pictures/0414_fw.png	187.67988681793213	
68	74.14098501205444	picture	0		82	66.0	/experiments/knapen_aot/AOT/AOT_stimuli/pictures/0266_fw.png	187.69548296928406	0.6916558742523193
68	74.81609988212585	response	0	j		66.0	/experiments/knapen_aot/AOT/AOT_stimuli/pictures/0266_fw.png	188.37059783935547	
69	74.83264088630676	picture	0		84	67.0	/experiments/knapen_aot/AOT/AOT_stimuli/pictures/1259_fw.png	188.38713884353638	0.7014749050140381
69	75.52439880371094	response	0	k		67.0	/experiments/knapen_aot/AOT/AOT_stimuli/pictures/1259_fw.png	189.07889676094055	
70	75.5341157913208	picture	0		140	68.0	/experiments/knapen_aot/AOT/AOT_stimuli/pictures/1818_fw.png	189.08861374855042	1.1985042095184326
70	76.69107699394226	response	0	j		68.0	/experiments/knapen_aot/AOT/AOT_stimuli/pictures/1818_fw.png	190.24557495117188	
71	76.73262000083923	picture	0		148	69.0	/experiments/knapen_aot/AOT/AOT_stimuli/pictures/0649_fw.png	190.28711795806885	1.2416939735412598
71	77.95104193687439	response	0	k		69.0	/experiments/knapen_aot/AOT/AOT_stimuli/pictures/0649_fw.png	191.505539894104	
72	77.9743139743805	picture	0		96	70.0	/experiments/knapen_aot/AOT/AOT_stimuli/pictures/1403_fw.png	191.5288119316101	0.8098018169403076
72	78.75946998596191	response	0	j		70.0	/experiments/knapen_aot/AOT/AOT_stimuli/pictures/1403_fw.png	192.31396794319153	
73	78.7841157913208	picture	0		78	71.0	/experiments/knapen_aot/AOT/AOT_stimuli/pictures/0791_fw.png	192.33861374855042	0.6569011211395264
73	79.4244430065155	response	0	k		71.0	/experiments/knapen_aot/AOT/AOT_stimuli/pictures/0791_fw.png	192.97894096374512	
74	79.44101691246033	picture	0		126	72.0	/experiments/knapen_aot/AOT/AOT_stimuli/pictures/0677_fw.png	192.99551486968994	1.0583069324493408
74	80.48276400566101	response	0	k		72.0	/experiments/knapen_aot/AOT/AOT_stimuli/pictures/0677_fw.png	194.03726196289062	
75	80.49932384490967	picture	0		89	73.0	/experiments/knapen_aot/AOT/AOT_stimuli/pictures/1007_fw.png	194.05382180213928	0.7582881450653076
75	81.23281288146973	response	0	k		73.0	/experiments/knapen_aot/AOT/AOT_stimuli/pictures/1007_fw.png	194.78731083869934	
76	81.25761198997498	picture	0		145	74.0	/experiments/knapen_aot/AOT/AOT_stimuli/pictures/1289_fw.png	194.8121099472046	1.2166829109191895
76	82.45779490470886	response	0	k		74.0	/experiments/knapen_aot/AOT/AOT_stimuli/pictures/1289_fw.png	196.01229286193848	
77	82.47429490089417	picture	0		102	75.0	/experiments/knapen_aot/AOT/AOT_stimuli/pictures/1504_fw.png	196.02879285812378	0.8583519458770752
77	83.3160719871521	response	0	k		75.0	/experiments/knapen_aot/AOT/AOT_stimuli/pictures/1504_fw.png	196.8705699443817	
78	83.33264684677124	picture	0		129	76.0	/experiments/knapen_aot/AOT/AOT_stimuli/pictures/0659_fw.png	196.88714480400085	1.083251953125
78	84.3994038105011	response	0	j		76.0	/experiments/knapen_aot/AOT/AOT_stimuli/pictures/0659_fw.png	197.9539017677307	
79	84.41589879989624	picture	0		141	77.0	/experiments/knapen_aot/AOT/AOT_stimuli/pictures/1802_fw.png	197.97039675712585	1.1833469867706299
79	85.5835349559784	response	0	k		77.0	/experiments/knapen_aot/AOT/AOT_stimuli/pictures/1802_fw.png	199.138032913208	
80	85.59924578666687	picture	0		99	78.0	/experiments/knapen_aot/AOT/AOT_stimuli/pictures/1480_fw.png	199.15374374389648	0.8333890438079834
80	86.41695094108582	response	0	k		78.0	/experiments/knapen_aot/AOT/AOT_stimuli/pictures/1480_fw.png	199.97144889831543	
81	86.43263483047485	picture	0		97	79.0	/experiments/knapen_aot/AOT/AOT_stimuli/pictures/1920_fw.png	199.98713278770447	0.8166489601135254
81	87.23277592658997	response	0	k		79.0	/experiments/knapen_aot/AOT/AOT_stimuli/pictures/1920_fw.png	200.78727388381958	
82	87.24928379058838	picture	0		76	80.0	/experiments/knapen_aot/AOT/AOT_stimuli/pictures/1295_fw.png	200.803781747818	0.6416561603546143
82	87.87458992004395	response	0	j		80.0	/experiments/knapen_aot/AOT/AOT_stimuli/pictures/1295_fw.png	201.42908787727356	
83	87.890939950943	picture	0		143	81.0	/experiments/knapen_aot/AOT/AOT_stimuli/pictures/0390_fw.png	201.4454379081726	1.1916890144348145
83	89.07438588142395	response	0	k		81.0	/experiments/knapen_aot/AOT/AOT_stimuli/pictures/0390_fw.png	202.62888383865356	
84	89.08262896537781	picture	0		206	82.0	/experiments/knapen_aot/AOT/AOT_stimuli/pictures/0167_fw.png	202.63712692260742	1.7222678661346436
84	90.7910578250885	response	0	j		82.0	/experiments/knapen_aot/AOT/AOT_stimuli/pictures/0167_fw.png	204.34555578231812	
85	90.80489683151245	picture	0		85	83.0	/experiments/knapen_aot/AOT/AOT_stimuli/pictures/1417_fw.png	204.35939478874207	0.7193610668182373
85	91.50771999359131	response	0	j		83.0	/experiments/knapen_aot/AOT/AOT_stimuli/pictures/1417_fw.png	205.06221795082092	
86	91.52425789833069	picture	0		95	84.0	/experiments/knapen_aot/AOT/AOT_stimuli/pictures/1736_fw.png	205.0787558555603	0.7999980449676514
86	92.3077278137207	response	0	j		84.0	/experiments/knapen_aot/AOT/AOT_stimuli/pictures/1736_fw.png	205.86222577095032	
87	92.32425594329834	picture	0		120	85.0	/experiments/knapen_aot/AOT/AOT_stimuli/pictures/1854_fw.png	205.87875390052795	1.0013759136199951
87	93.31604099273682	response	0	j		85.0	/experiments/knapen_aot/AOT/AOT_stimuli/pictures/1854_fw.png	206.87053894996643	
88	93.32563185691833	picture	0		78	86.0	/experiments/knapen_aot/AOT/AOT_stimuli/pictures/1089_fw.png	206.88012981414795	0.6527719497680664
88	93.96600484848022	response	0	k		86.0	/experiments/knapen_aot/AOT/AOT_stimuli/pictures/1089_fw.png	207.52050280570984	
89	93.9784038066864	picture	0		149	87.0	/experiments/knapen_aot/AOT/AOT_stimuli/pictures/0830_fw.png	207.53290176391602	1.245866060256958
89	95.2076997756958	response	0	k		87.0	/experiments/knapen_aot/AOT/AOT_stimuli/pictures/0830_fw.png	208.76219773292542	
90	95.22426986694336	picture	0		116	88.0	/experiments/knapen_aot/AOT/AOT_stimuli/pictures/1631_fw.png	208.77876782417297	0.9749579429626465
90	96.18273878097534	response	0	j		88.0	/experiments/knapen_aot/AOT/AOT_stimuli/pictures/1631_fw.png	209.73723673820496	
91	96.199227809906	picture	0		197	89.0	/experiments/knapen_aot/AOT/AOT_stimuli/pictures/1175_fw.png	209.75372576713562	1.6471641063690186
91	97.83270788192749	response	0	k		89.0	/experiments/knapen_aot/AOT/AOT_stimuli/pictures/1175_fw.png	211.3872058391571	
92	97.84639191627502	picture	0		96	90.0	/experiments/knapen_aot/AOT/AOT_stimuli/pictures/1866_fw.png	211.40088987350464	0.8111660480499268
92	98.6411349773407	response	0	j		90.0	/experiments/knapen_aot/AOT/AOT_stimuli/pictures/1866_fw.png	212.1956329345703	
93	98.65755796432495	picture	0		86	91.0	/experiments/knapen_aot/AOT/AOT_stimuli/pictures/0320_fw.png	212.21205592155457	0.7249798774719238
93	99.36601996421814	response	0	k		91.0	/experiments/knapen_aot/AOT/AOT_stimuli/pictures/0320_fw.png	212.92051792144775	
94	99.38253784179688	picture	0		82	92.0	/experiments/knapen_aot/AOT/AOT_stimuli/pictures/1161_fw.png	212.9370357990265	0.6860740184783936
94	100.05766201019287	response	0	j		92.0	/experiments/knapen_aot/AOT/AOT_stimuli/pictures/1161_fw.png	213.61215996742249	
95	100.06861186027527	picture	0		100	93.0	/experiments/knapen_aot/AOT/AOT_stimuli/pictures/0955_fw.png	213.62310981750488	0.8333139419555664
95	100.89101600646973	response	0	j		93.0	/experiments/knapen_aot/AOT/AOT_stimuli/pictures/0955_fw.png	214.44551396369934	
96	100.90192580223083	picture	0		86	94.0	/experiments/knapen_aot/AOT/AOT_stimuli/pictures/2059_fw.png	214.45642375946045	0.7152950763702393
96	101.60767388343811	response	0	j		94.0	/experiments/knapen_aot/AOT/AOT_stimuli/pictures/2059_fw.png	215.16217184066772	
97	101.61722087860107	picture	0		105	95.0	/experiments/knapen_aot/AOT/AOT_stimuli/pictures/2063_fw.png	215.1717188358307	0.8750779628753662
97	102.48268485069275	response	0	j		95.0	/experiments/knapen_aot/AOT/AOT_stimuli/pictures/2063_fw.png	216.03718280792236	
98	102.49229884147644	picture	0		88	96.0	/experiments/knapen_aot/AOT/AOT_stimuli/pictures/1845_fw.png	216.04679679870605	0.7402369976043701
98	103.21605086326599	response	0	j		96.0	/experiments/knapen_aot/AOT/AOT_stimuli/pictures/1845_fw.png	216.7705488204956	
99	103.23253583908081	picture	0		83	97.0	/experiments/knapen_aot/AOT/AOT_stimuli/pictures/1350_fw.png	216.78703379631042	0.6971349716186523
99	103.9159688949585	response	0	k		97.0	/experiments/knapen_aot/AOT/AOT_stimuli/pictures/1350_fw.png	217.4704668521881	
100	103.92967081069946	picture	0		91	98.0	/experiments/knapen_aot/AOT/AOT_stimuli/pictures/2107_fw.png	217.48416876792908	0.7638981342315674
100	104.6826319694519	response	0	k		98.0	/experiments/knapen_aot/AOT/AOT_stimuli/pictures/2107_fw.png	218.23712992668152	
101	104.69356894493103	picture	0		115	99.0	/experiments/knapen_aot/AOT/AOT_stimuli/pictures/1482_fw.png	218.24806690216064	0.9639840126037598
101	105.64100694656372	response	0	j		99.0	/experiments/knapen_aot/AOT/AOT_stimuli/pictures/1482_fw.png	219.19550490379333	
102	105.65755295753479	picture	0		180	100.0	/experiments/knapen_aot/AOT/AOT_stimuli/pictures/1577_fw.png	219.2120509147644	1.5249500274658203
102	107.14248490333557	response	0	k		100.0	/experiments/knapen_aot/AOT/AOT_stimuli/pictures/1577_fw.png	220.69698286056519	
103	107.18250298500061	picture	0		167	101.0	/experiments/knapen_aot/AOT/AOT_stimuli/pictures/0133_fw.png	220.73700094223022	1.4276618957519531
103	108.56595396995544	response	0	k		101.0	/experiments/knapen_aot/AOT/AOT_stimuli/pictures/0133_fw.png	222.12045192718506	
104	108.61016488075256	picture	0		102	102.0	/experiments/knapen_aot/AOT/AOT_stimuli/pictures/1486_fw.png	222.16466283798218	0.8556540012359619
104	109.44929790496826	response	0	j		102.0	/experiments/knapen_aot/AOT/AOT_stimuli/pictures/1486_fw.png	223.00379586219788	
105	109.46581888198853	picture	0		84	103.0	/experiments/knapen_aot/AOT/AOT_stimuli/pictures/1241_fw.png	223.02031683921814	0.7083449363708496
105	110.15762591362	response	0	j		103.0	/experiments/knapen_aot/AOT/AOT_stimuli/pictures/1241_fw.png	223.7121238708496	
106	110.17416381835938	picture	0		187	104.0	/experiments/knapen_aot/AOT/AOT_stimuli/pictures/0066_fw.png	223.728661775589	1.5666561126708984
106	111.71748900413513	response	0	j		104.0	/experiments/knapen_aot/AOT/AOT_stimuli/pictures/0066_fw.png	225.27198696136475	
107	111.74081993103027	picture	0		102	105.0	/experiments/knapen_aot/AOT/AOT_stimuli/pictures/1977_fw.png	225.2953178882599	0.8583729267120361
107	112.58269095420837	response	0	j		105.0	/experiments/knapen_aot/AOT/AOT_stimuli/pictures/1977_fw.png	226.137188911438	
108	112.59919285774231	picture	0		165	106.0	/experiments/knapen_aot/AOT/AOT_stimuli/pictures/1830_fw.png	226.15369081497192	1.3833580017089844
108	113.96589279174805	response	0	j		106.0	/experiments/knapen_aot/AOT/AOT_stimuli/pictures/1830_fw.png	227.52039074897766	
109	113.9825508594513	picture	0		74	107.0	/experiments/knapen_aot/AOT/AOT_stimuli/pictures/1266_fw.png	227.5370488166809	0.6249599456787109
109	114.59095883369446	response	0	k		107.0	/experiments/knapen_aot/AOT/AOT_stimuli/pictures/1266_fw.png	228.14545679092407	
110	114.60751080513	picture	0		111	108.0	/experiments/knapen_aot/AOT/AOT_stimuli/pictures/1027_fw.png	228.16200876235962	0.926307201385498
110	115.5175359249115	response	0	j		108.0	/experiments/knapen_aot/AOT/AOT_stimuli/pictures/1027_fw.png	229.0720338821411	
111	115.5338180065155	picture	0		86	109.0	/experiments/knapen_aot/AOT/AOT_stimuli/pictures/2146_fw.png	229.08831596374512	0.7320029735565186
111	116.24221301078796	response	0	j		109.0	/experiments/knapen_aot/AOT/AOT_stimuli/pictures/2146_fw.png	229.79671096801758	
112	116.26582098007202	picture	0		87	110.0	/experiments/knapen_aot/AOT/AOT_stimuli/pictures/0881_fw.png	229.82031893730164	0.7333388328552246
112	116.98262596130371	response	0	k		110.0	/experiments/knapen_aot/AOT/AOT_stimuli/pictures/0881_fw.png	230.53712391853333	
113	116.99915981292725	picture	0		88	111.0	/experiments/knapen_aot/AOT/AOT_stimuli/pictures/1051_fw.png	230.55365777015686	0.735954999923706
113	117.71765494346619	response	0	k		111.0	/experiments/knapen_aot/AOT/AOT_stimuli/pictures/1051_fw.png	231.2721529006958	
114	117.73511481285095	picture	0		83	112.0	/experiments/knapen_aot/AOT/AOT_stimuli/pictures/0520_fw.png	231.28961277008057	0.697357177734375
114	118.4159288406372	response	0	k		112.0	/experiments/knapen_aot/AOT/AOT_stimuli/pictures/0520_fw.png	231.97042679786682	
115	118.43247199058533	picture	0		121	113.0	/experiments/knapen_aot/AOT/AOT_stimuli/pictures/1708_fw.png	231.98696994781494	1.0166759490966797
115	119.43263292312622	response	0	j		113.0	/experiments/knapen_aot/AOT/AOT_stimuli/pictures/1708_fw.png	232.98713088035583	
116	119.449147939682	picture	0		74	114.0	/experiments/knapen_aot/AOT/AOT_stimuli/pictures/2017_fw.png	233.00364589691162	0.619304895401001
116	120.05758500099182	response	0	k		114.0	/experiments/knapen_aot/AOT/AOT_stimuli/pictures/2017_fw.png	233.61208295822144	
117	120.06845283508301	picture	0		120	115.0	/experiments/knapen_aot/AOT/AOT_stimuli/pictures/1709_fw.png	233.62295079231262	0.9999749660491943
117	121.05756783485413	response	0	j		115.0	/experiments/knapen_aot/AOT/AOT_stimuli/pictures/1709_fw.png	234.61206579208374	
118	121.0684278011322	picture	0		98	116.0	/experiments/knapen_aot/AOT/AOT_stimuli/pictures/1308_fw.png	234.62292575836182	0.8473570346832275
118	121.87427091598511	response	0	j		116.0	/experiments/knapen_aot/AOT/AOT_stimuli/pictures/1308_fw.png	235.42876887321472	
119	121.91578483581543	picture	0		94	117.0	/experiments/knapen_aot/AOT/AOT_stimuli/pictures/1921_fw.png	235.47028279304504	0.791672945022583
119	122.69091582298279	response	0	k		117.0	/experiments/knapen_aot/AOT/AOT_stimuli/pictures/1921_fw.png	236.2454137802124	
120	122.70745778083801	picture	0		99	118.0	/experiments/knapen_aot/AOT/AOT_stimuli/pictures/1452_fw.png	236.26195573806763	0.826242208480835
120	123.5175609588623	response	0	k		118.0	/experiments/knapen_aot/AOT/AOT_stimuli/pictures/1452_fw.png	237.07205891609192	
121	123.53369998931885	picture	0		90	119.0	/experiments/knapen_aot/AOT/AOT_stimuli/pictures/1545_fw.png	237.08819794654846	0.7570958137512207
121	124.27435398101807	response	0	k		119.0	/experiments/knapen_aot/AOT/AOT_stimuli/pictures/1545_fw.png	237.82885193824768	
122	124.29079580307007	picture	0		87	120.0	/experiments/knapen_aot/AOT/AOT_stimuli/pictures/0080_fw.png	237.84529376029968	0.758289098739624
122	125.00759696960449	response	0	k		120.0	/experiments/knapen_aot/AOT/AOT_stimuli/pictures/0080_fw.png	238.5620949268341	
123	125.04908490180969	picture	0		146	121.0	/experiments/knapen_aot/AOT/AOT_stimuli/pictures/1023_fw.png	238.6035828590393	1.2416870594024658
123	126.25752878189087	response	0	k		121.0	/experiments/knapen_aot/AOT/AOT_stimuli/pictures/1023_fw.png	239.81202673912048	
124	126.29077196121216	picture	0		93	122.0	/experiments/knapen_aot/AOT/AOT_stimuli/pictures/0417_fw.png	239.84526991844177	0.7833359241485596
124	127.05756998062134	response	0	j		122.0	/experiments/knapen_aot/AOT/AOT_stimuli/pictures/0417_fw.png	240.61206793785095	
125	127.07410788536072	picture	0		104	123.0	/experiments/knapen_aot/AOT/AOT_stimuli/pictures/0321_fw.png	240.62860584259033	0.8750090599060059
125	127.92587995529175	response	0	j		123.0	/experiments/knapen_aot/AOT/AOT_stimuli/pictures/0321_fw.png	241.48037791252136	
126	127.94911694526672	picture	0		85	124.0	/experiments/knapen_aot/AOT/AOT_stimuli/pictures/0977_fw.png	241.50361490249634	0.7097079753875732
126	128.64918994903564	response	0	k		124.0	/experiments/knapen_aot/AOT/AOT_stimuli/pictures/0977_fw.png	242.20368790626526	
127	128.6588249206543	picture	0		83	125.0	/experiments/knapen_aot/AOT/AOT_stimuli/pictures/0463_fw.png	242.2133228778839	0.6986739635467529
127	129.33436179161072	response	0	k		125.0	/experiments/knapen_aot/AOT/AOT_stimuli/pictures/0463_fw.png	242.88885974884033	
128	129.35749888420105	picture	0		84	126.0	/experiments/knapen_aot/AOT/AOT_stimuli/pictures/1084_fw.png	242.91199684143066	0.7084410190582275
128	130.0493128299713	response	0	j		126.0	/experiments/knapen_aot/AOT/AOT_stimuli/pictures/1084_fw.png	243.60381078720093	
129	130.06593990325928	picture	0		95	127.0	/experiments/knapen_aot/AOT/AOT_stimuli/pictures/0871_fw.png	243.6204378604889	0.7998449802398682
129	130.84929180145264	response	0	k		127.0	/experiments/knapen_aot/AOT/AOT_stimuli/pictures/0871_fw.png	244.40378975868225	
130	130.86578488349915	picture	0		88	128.0	/experiments/knapen_aot/AOT/AOT_stimuli/pictures/1857_fw.png	244.42028284072876	0.7416479587554932
130	131.5909128189087	response	0	j		128.0	/experiments/knapen_aot/AOT/AOT_stimuli/pictures/1857_fw.png	245.1454107761383	
131	131.60743284225464	picture	0		100	129.0	/experiments/knapen_aot/AOT/AOT_stimuli/pictures/1742_fw.png	245.16193079948425	0.8416481018066406
131	132.43258094787598	response	0	k		129.0	/experiments/knapen_aot/AOT/AOT_stimuli/pictures/1742_fw.png	245.9870789051056	
132	132.44908094406128	picture	0		103	130.0	/experiments/knapen_aot/AOT/AOT_stimuli/pictures/1131_fw.png	246.0035789012909	0.8666989803314209
132	133.29926896095276	response	0	k		130.0	/experiments/knapen_aot/AOT/AOT_stimuli/pictures/1131_fw.png	246.85376691818237	
133	133.3157799243927	picture	0		147	131.0	/experiments/knapen_aot/AOT/AOT_stimuli/pictures/0801_fw.png	246.87027788162231	1.2332770824432373
133	134.52615594863892	response	0	k		131.0	/experiments/knapen_aot/AOT/AOT_stimuli/pictures/0801_fw.png	248.08065390586853	
134	134.54905700683594	picture	0		88	132.0	/experiments/knapen_aot/AOT/AOT_stimuli/pictures/0368_fw.png	248.10355496406555	0.741844892501831
134	135.27427792549133	response	0	j		132.0	/experiments/knapen_aot/AOT/AOT_stimuli/pictures/0368_fw.png	248.82877588272095	
135	135.29090189933777	picture	0		310	133.0	/experiments/knapen_aot/AOT/AOT_stimuli/pictures/1105_fw.png	248.84539985656738	2.599947929382324
135	137.86587500572205	response	0	k		133.0	/experiments/knapen_aot/AOT/AOT_stimuli/pictures/1105_fw.png	251.42037296295166	
136	137.8908498287201	picture	0		102	134.0	/experiments/knapen_aot/AOT/AOT_stimuli/pictures/1097_fw.png	251.4453477859497	0.8665730953216553
136	138.7259979248047	response	0	j		134.0	/experiments/knapen_aot/AOT/AOT_stimuli/pictures/1097_fw.png	252.2804958820343	
137	138.75742292404175	picture	0		85	135.0	/experiments/knapen_aot/AOT/AOT_stimuli/pictures/0632_fw.png	252.31192088127136	0.7167050838470459
137	139.45759201049805	response	0	j		135.0	/experiments/knapen_aot/AOT/AOT_stimuli/pictures/0632_fw.png	253.01208996772766	
138	139.4741280078888	picture	0		82	136.0	/experiments/knapen_aot/AOT/AOT_stimuli/pictures/0013_fw.png	253.0286259651184	0.6916289329528809
138	140.1492259502411	response	0	k		136.0	/experiments/knapen_aot/AOT/AOT_stimuli/pictures/0013_fw.png	253.7037239074707	
139	140.16575694084167	picture	0		111	137.0	/experiments/knapen_aot/AOT/AOT_stimuli/pictures/1179_fw.png	253.7202548980713	0.9333209991455078
139	141.077232837677	response	0	j		137.0	/experiments/knapen_aot/AOT/AOT_stimuli/pictures/1179_fw.png	254.63173079490662	
140	141.09907793998718	picture	0		85	138.0	/experiments/knapen_aot/AOT/AOT_stimuli/pictures/1030_fw.png	254.6535758972168	0.7166879177093506
140	141.79926300048828	response	0	j		138.0	/experiments/knapen_aot/AOT/AOT_stimuli/pictures/1030_fw.png	255.3537609577179	
141	141.81576585769653	picture	0		135	139.0	/experiments/knapen_aot/AOT/AOT_stimuli/pictures/1732_fw.png	255.37026381492615	1.1333770751953125
141	142.92593598365784	response	0	j		139.0	/experiments/knapen_aot/AOT/AOT_stimuli/pictures/1732_fw.png	256.48043394088745	
142	142.94914293289185	picture	0		129	140.0	/experiments/knapen_aot/AOT/AOT_stimuli/pictures/1042_fw.png	256.50364089012146	1.0832040309906006
142	144.01581001281738	response	0	j		140.0	/experiments/knapen_aot/AOT/AOT_stimuli/pictures/1042_fw.png	257.570307970047	
143	144.03234696388245	picture	0		110	141.0	/experiments/knapen_aot/AOT/AOT_stimuli/pictures/1253_fw.png	257.58684492111206	0.9179048538208008
143	144.94085884094238	response	0	j		141.0	/experiments/knapen_aot/AOT/AOT_stimuli/pictures/1253_fw.png	258.495356798172	
144	144.95025181770325	picture	0		116	142.0	/experiments/knapen_aot/AOT/AOT_stimuli/pictures/0103_fw.png	258.50474977493286	0.9737780094146729
144	145.9088258743286	response	0	j		142.0	/experiments/knapen_aot/AOT/AOT_stimuli/pictures/0103_fw.png	259.4633238315582	
145	145.92402982711792	picture	0		220	143.0	/experiments/knapen_aot/AOT/AOT_stimuli/pictures/1555_fw.png	259.47852778434753	1.838602066040039
145	147.74913597106934	response	0	k		143.0	/experiments/knapen_aot/AOT/AOT_stimuli/pictures/1555_fw.png	261.30363392829895	
146	147.76263189315796	picture	0		95	144.0	/experiments/knapen_aot/AOT/AOT_stimuli/pictures/2080_fw.png	261.3171298503876	0.8030068874359131
146	148.54907298088074	response	0	j		144.0	/experiments/knapen_aot/AOT/AOT_stimuli/pictures/2080_fw.png	262.10357093811035	
147	148.56563878059387	picture	0		139	145.0	/experiments/knapen_aot/AOT/AOT_stimuli/pictures/1883_fw.png	262.1201367378235	1.1621952056884766
147	149.709086894989	response	0	k		145.0	/experiments/knapen_aot/AOT/AOT_stimuli/pictures/1883_fw.png	263.2635848522186	
148	149.72783398628235	picture	0		128	146.0	/experiments/knapen_aot/AOT/AOT_stimuli/pictures/1768_fw.png	263.28233194351196	1.071178913116455
148	150.78245878219604	response	0	j		146.0	/experiments/knapen_aot/AOT/AOT_stimuli/pictures/1768_fw.png	264.33695673942566	
149	150.7990128993988	picture	0		248	147.0	/experiments/knapen_aot/AOT/AOT_stimuli/pictures/2109_fw.png	264.3535108566284	2.0750138759613037
149	152.85743379592896	response	0	k		147.0	/experiments/knapen_aot/AOT/AOT_stimuli/pictures/2109_fw.png	266.41193175315857	
150	152.8740267753601	picture	0		95	148.0	/experiments/knapen_aot/AOT/AOT_stimuli/pictures/1524_fw.png	266.4285247325897	0.7999482154846191
150	153.65878295898438	response	0	j		148.0	/experiments/knapen_aot/AOT/AOT_stimuli/pictures/1524_fw.png	267.213280916214	
151	153.67397499084473	picture	0		133	149.0	/experiments/knapen_aot/AOT/AOT_stimuli/pictures/2071_fw.png	267.22847294807434	1.1166679859161377
151	154.77406787872314	response	0	k		149.0	/experiments/knapen_aot/AOT/AOT_stimuli/pictures/2071_fw.png	268.32856583595276	
152	154.79064297676086	picture	0		342	150.0	/experiments/knapen_aot/AOT/AOT_stimuli/pictures/1336_fw.png	268.3451409339905	2.858358860015869
152	157.63243198394775	response	0	k		150.0	/experiments/knapen_aot/AOT/AOT_stimuli/pictures/1336_fw.png	271.18692994117737	
153	157.64900183677673	picture	0		90	151.0	/experiments/knapen_aot/AOT/AOT_stimuli/pictures/0199_fw.png	271.20349979400635	0.7523910999298096
153	158.39079189300537	response	0	j		151.0	/experiments/knapen_aot/AOT/AOT_stimuli/pictures/0199_fw.png	271.945289850235	
154	158.40139293670654	picture	0		125	152.0	/experiments/knapen_aot/AOT/AOT_stimuli/pictures/0969_fw.png	271.95589089393616	1.047563076019287
154	159.43253183364868	response	0	j		152.0	/experiments/knapen_aot/AOT/AOT_stimuli/pictures/0969_fw.png	272.9870297908783	
155	159.44895601272583	picture	0		99	153.0	/experiments/knapen_aot/AOT/AOT_stimuli/pictures/2157_fw.png	273.00345396995544	0.8333568572998047
155	160.26578378677368	response	0	k		153.0	/experiments/knapen_aot/AOT/AOT_stimuli/pictures/2157_fw.png	273.8202817440033	
156	160.28231287002563	picture	0		91	154.0	/experiments/knapen_aot/AOT/AOT_stimuli/pictures/0624_fw.png	273.83681082725525	0.7666571140289307
156	161.0324249267578	response	0	j		154.0	/experiments/knapen_aot/AOT/AOT_stimuli/pictures/0624_fw.png	274.5869228839874	
157	161.04896998405457	picture	0		84	155.0	/experiments/knapen_aot/AOT/AOT_stimuli/pictures/0231_fw.png	274.6034679412842	0.7083249092102051
157	161.74211883544922	response	0	j		155.0	/experiments/knapen_aot/AOT/AOT_stimuli/pictures/0231_fw.png	275.29661679267883	
158	161.75729489326477	picture	0		126	156.0	/experiments/knapen_aot/AOT/AOT_stimuli/pictures/1760_fw.png	275.3117928504944	1.0537540912628174
158	162.7990357875824	response	0	k		156.0	/experiments/knapen_aot/AOT/AOT_stimuli/pictures/1760_fw.png	276.353533744812	
159	162.8110489845276	picture	0		150	157.0	/experiments/knapen_aot/AOT/AOT_stimuli/pictures/1650_fw.png	276.3655469417572	1.2545788288116455
159	164.04908084869385	response	0	k		157.0	/experiments/knapen_aot/AOT/AOT_stimuli/pictures/1650_fw.png	277.60357880592346	
160	164.06562781333923	picture	0		101	158.0	/experiments/knapen_aot/AOT/AOT_stimuli/pictures/0663_fw.png	277.62012577056885	0.8429481983184814
160	164.8925859928131	response	0	j		158.0	/experiments/knapen_aot/AOT/AOT_stimuli/pictures/0663_fw.png	278.4470839500427	
161	164.90857601165771	picture	0		84	159.0	/experiments/knapen_aot/AOT/AOT_stimuli/pictures/0589_fw.png	278.46307396888733	0.7010748386383057
161	165.59910893440247	response	0	k		159.0	/experiments/knapen_aot/AOT/AOT_stimuli/pictures/0589_fw.png	279.1536068916321	
162	165.60965085029602	picture	0		86	160.0	/experiments/knapen_aot/AOT/AOT_stimuli/pictures/1941_fw.png	279.16414880752563	0.7226400375366211
162	166.30910778045654	response	0	k		160.0	/experiments/knapen_aot/AOT/AOT_stimuli/pictures/1941_fw.png	279.86360573768616	
163	166.33229088783264	picture	0		73	161.0	/experiments/knapen_aot/AOT/AOT_stimuli/pictures/0813_fw.png	279.88678884506226	0.6166720390319824
163	166.93239784240723	response	0	k		161.0	/experiments/knapen_aot/AOT/AOT_stimuli/pictures/0813_fw.png	280.48689579963684	
164	166.94896292686462	picture	0		96	162.0	/experiments/knapen_aot/AOT/AOT_stimuli/pictures/1755_fw.png	280.50346088409424	0.8083288669586182
164	167.74207496643066	response	0	j		162.0	/experiments/knapen_aot/AOT/AOT_stimuli/pictures/1755_fw.png	281.2965729236603	
165	167.75729179382324	picture	0		103	163.0	/experiments/knapen_aot/AOT/AOT_stimuli/pictures/0736_fw.png	281.31178975105286	0.9083230495452881
165	168.6073830127716	response	0	k		163.0	/experiments/knapen_aot/AOT/AOT_stimuli/pictures/0736_fw.png	282.1618809700012	
166	168.66561484336853	picture	0		70	164.0	/experiments/knapen_aot/AOT/AOT_stimuli/pictures/1281_fw.png	282.22011280059814	0.6416449546813965
166	169.24218893051147	response	0	k		164.0	/experiments/knapen_aot/AOT/AOT_stimuli/pictures/1281_fw.png	282.7966868877411	
167	169.30725979804993	picture	0		123	165.0	/experiments/knapen_aot/AOT/AOT_stimuli/pictures/0290_fw.png	282.86175775527954	1.0416531562805176
167	170.31737995147705	response	0	k		165.0	/experiments/knapen_aot/AOT/AOT_stimuli/pictures/0290_fw.png	283.87187790870667	
168	170.34891295433044	picture	0		114	166.0	/experiments/knapen_aot/AOT/AOT_stimuli/pictures/0936_fw.png	283.90341091156006	0.9583148956298828
168	171.28502678871155	response	0	k		166.0	/experiments/knapen_aot/AOT/AOT_stimuli/pictures/0936_fw.png	284.83952474594116	
169	171.30722784996033	picture	0		94	167.0	/experiments/knapen_aot/AOT/AOT_stimuli/pictures/1824_fw.png	284.86172580718994	0.7916920185089111
169	172.07686185836792	response	0	k		167.0	/experiments/knapen_aot/AOT/AOT_stimuli/pictures/1824_fw.png	285.63135981559753	
170	172.09891986846924	picture	0		91	168.0	/experiments/knapen_aot/AOT/AOT_stimuli/pictures/0003_fw.png	285.65341782569885	0.7666490077972412
170	172.84904599189758	response	0	j		168.0	/experiments/knapen_aot/AOT/AOT_stimuli/pictures/0003_fw.png	286.4035439491272	
171	172.86556887626648	picture	0		85	169.0	/experiments/knapen_aot/AOT/AOT_stimuli/pictures/0567_fw.png	286.4200668334961	0.7166121006011963
171	173.5657057762146	response	0	k		169.0	/experiments/knapen_aot/AOT/AOT_stimuli/pictures/0567_fw.png	287.1202037334442	
172	173.58218097686768	picture	0		87	170.0	/experiments/knapen_aot/AOT/AOT_stimuli/pictures/1777_fw.png	287.1366789340973	0.7500479221343994
172	174.292338848114	response	0	j		170.0	/experiments/knapen_aot/AOT/AOT_stimuli/pictures/1777_fw.png	287.8468368053436	
173	174.33222889900208	picture	0		99	171.0	/experiments/knapen_aot/AOT/AOT_stimuli/pictures/1090_fw.png	287.8867268562317	0.8333590030670166
173	175.1491458415985	response	0	j		171.0	/experiments/knapen_aot/AOT/AOT_stimuli/pictures/1090_fw.png	288.7036437988281	
174	175.1655879020691	picture	0		92	172.0	/experiments/knapen_aot/AOT/AOT_stimuli/pictures/0195_fw.png	288.7200858592987	0.7773680686950684
174	175.92401599884033	response	0	k		172.0	/experiments/knapen_aot/AOT/AOT_stimuli/pictures/0195_fw.png	289.47851395606995	
175	175.94295597076416	picture	0		94	173.0	/experiments/knapen_aot/AOT/AOT_stimuli/pictures/1388_fw.png	289.4974539279938	0.7916069030761719
175	176.70905780792236	response	0	j		173.0	/experiments/knapen_aot/AOT/AOT_stimuli/pictures/1388_fw.png	290.263555765152	
176	176.73456287384033	picture	0		95	174.0	/experiments/knapen_aot/AOT/AOT_stimuli/pictures/0608_fw.png	290.28906083106995	0.7987720966339111
176	177.50896978378296	response	0	k		174.0	/experiments/knapen_aot/AOT/AOT_stimuli/pictures/0608_fw.png	291.0634677410126	
177	177.53333497047424	picture	0		118	175.0	/experiments/knapen_aot/AOT/AOT_stimuli/pictures/1949_fw.png	291.08783292770386	0.990574836730957
177	178.5007359981537	response	0	k		175.0	/experiments/knapen_aot/AOT/AOT_stimuli/pictures/1949_fw.png	292.0552339553833	
178	178.5239098072052	picture	0		157	176.0	/experiments/knapen_aot/AOT/AOT_stimuli/pictures/0959_fw.png	292.0784077644348	1.3166580200195312
178	179.825110912323	response	0	j		176.0	/experiments/knapen_aot/AOT/AOT_stimuli/pictures/0959_fw.png	293.3796088695526	
179	179.84056782722473	picture	0		93	177.0	/experiments/knapen_aot/AOT/AOT_stimuli/pictures/0692_fw.png	293.39506578445435	0.7833151817321777
179	180.60737299919128	response	0	k		177.0	/experiments/knapen_aot/AOT/AOT_stimuli/pictures/0692_fw.png	294.1618709564209	
180	180.6238830089569	picture	0		93	178.0	/experiments/knapen_aot/AOT/AOT_stimuli/pictures/1484_fw.png	294.1783809661865	0.7833209037780762
180	181.39066696166992	response	0	j		178.0	/experiments/knapen_aot/AOT/AOT_stimuli/pictures/1484_fw.png	294.94516491889954	
181	181.40720391273499	picture	0		84	179.0	/experiments/knapen_aot/AOT/AOT_stimuli/pictures/1566_fw.png	294.9617018699646	0.709352970123291
181	182.09236598014832	response	0	k		179.0	/experiments/knapen_aot/AOT/AOT_stimuli/pictures/1566_fw.png	295.64686393737793	
182	182.11655688285828	picture	0		109	180.0	/experiments/knapen_aot/AOT/AOT_stimuli/pictures/1617_fw.png	295.6710548400879	0.9156839847564697
182	183.01575994491577	response	0	k		180.0	/experiments/knapen_aot/AOT/AOT_stimuli/pictures/1617_fw.png	296.5702579021454	
183	183.03224086761475	picture	0		88	181.0	/experiments/knapen_aot/AOT/AOT_stimuli/pictures/2055_fw.png	296.58673882484436	0.7416419982910156
183	183.75737380981445	response	0	k		181.0	/experiments/knapen_aot/AOT/AOT_stimuli/pictures/2055_fw.png	297.31187176704407	
184	183.77388286590576	picture	0		82	182.0	/experiments/knapen_aot/AOT/AOT_stimuli/pictures/0821_fw.png	297.3283808231354	0.6917080879211426
184	184.45015001296997	response	0	j		182.0	/experiments/knapen_aot/AOT/AOT_stimuli/pictures/0821_fw.png	298.0046479701996	
185	184.4655909538269	picture	0		98	183.0	/experiments/knapen_aot/AOT/AOT_stimuli/pictures/0690_fw.png	298.0200889110565	0.824955940246582
185	185.27401685714722	response	0	k		183.0	/experiments/knapen_aot/AOT/AOT_stimuli/pictures/0690_fw.png	298.82851481437683	
186	185.2905468940735	picture	0		77	184.0	/experiments/knapen_aot/AOT/AOT_stimuli/pictures/1125_fw.png	298.8450448513031	0.6500029563903809
186	185.92406177520752	response	0	j		184.0	/experiments/knapen_aot/AOT/AOT_stimuli/pictures/1125_fw.png	299.47855973243713	
187	185.94054985046387	picture	0		153	185.0	/experiments/knapen_aot/AOT/AOT_stimuli/pictures/0337_fw.png	299.4950478076935	1.2833380699157715
187	187.2073187828064	response	0	k		185.0	/experiments/knapen_aot/AOT/AOT_stimuli/pictures/0337_fw.png	300.761816740036	
188	187.22388792037964	picture	0		134	186.0	/experiments/knapen_aot/AOT/AOT_stimuli/pictures/0995_fw.png	300.77838587760925	1.1249520778656006
188	188.3323209285736	response	0	k		186.0	/experiments/knapen_aot/AOT/AOT_stimuli/pictures/0995_fw.png	301.8868188858032	
189	188.34883999824524	picture	0		106	187.0	/experiments/knapen_aot/AOT/AOT_stimuli/pictures/1138_fw.png	301.90333795547485	0.8917069435119629
189	189.2239978313446	response	0	k		187.0	/experiments/knapen_aot/AOT/AOT_stimuli/pictures/1138_fw.png	302.7784957885742	
190	189.2405469417572	picture	0		82	188.0	/experiments/knapen_aot/AOT/AOT_stimuli/pictures/0306_fw.png	302.7950448989868	0.6915969848632812
190	189.91559290885925	response	0	k		188.0	/experiments/knapen_aot/AOT/AOT_stimuli/pictures/0306_fw.png	303.47009086608887	
191	189.93214392662048	picture	0		95	189.0	/experiments/knapen_aot/AOT/AOT_stimuli/pictures/0483_fw.png	303.4866418838501	0.8000309467315674
191	190.70895195007324	response	0	j		189.0	/experiments/knapen_aot/AOT/AOT_stimuli/pictures/0483_fw.png	304.26344990730286	
192	190.73217487335205	picture	0		215	190.0	/experiments/knapen_aot/AOT/AOT_stimuli/pictures/0203_fw.png	304.28667283058167	1.8002140522003174
192	192.50877380371094	response	0	k		190.0	/experiments/knapen_aot/AOT/AOT_stimuli/pictures/0203_fw.png	306.06327176094055	
193	192.53238892555237	picture	0		133	191.0	/experiments/knapen_aot/AOT/AOT_stimuli/pictures/1761_fw.png	306.086886882782	1.1164319515228271
193	193.6322958469391	response	0	k		191.0	/experiments/knapen_aot/AOT/AOT_stimuli/pictures/1761_fw.png	307.1867938041687	
194	193.6488208770752	picture	0		86	192.0	/experiments/knapen_aot/AOT/AOT_stimuli/pictures/1317_fw.png	307.2033188343048	0.7250909805297852
194	194.35729598999023	response	0	j		192.0	/experiments/knapen_aot/AOT/AOT_stimuli/pictures/1317_fw.png	307.91179394721985	
195	194.37391185760498	picture	0		85	193.0	/experiments/knapen_aot/AOT/AOT_stimuli/pictures/0593_fw.png	307.9284098148346	0.7165849208831787
195	195.0754759311676	response	0	k		193.0	/experiments/knapen_aot/AOT/AOT_stimuli/pictures/0593_fw.png	308.6299738883972	
196	195.09049677848816	picture	0		77	194.0	/experiments/knapen_aot/AOT/AOT_stimuli/pictures/0353_fw.png	308.6449947357178	0.6499621868133545
196	195.72388291358948	response	0	j		194.0	/experiments/knapen_aot/AOT/AOT_stimuli/pictures/0353_fw.png	309.2783808708191	
197	195.7404589653015	picture	0		102	195.0	/experiments/knapen_aot/AOT/AOT_stimuli/pictures/1579_fw.png	309.2949569225311	0.8550679683685303
197	196.58225083351135	response	0	k		195.0	/experiments/knapen_aot/AOT/AOT_stimuli/pictures/1579_fw.png	310.13674879074097	
198	196.59552693367004	picture	0		101	196.0	/experiments/knapen_aot/AOT/AOT_stimuli/pictures/1411_fw.png	310.15002489089966	0.8535120487213135
198	197.43232583999634	response	0	j		196.0	/experiments/knapen_aot/AOT/AOT_stimuli/pictures/1411_fw.png	310.98682379722595	
199	197.44903898239136	picture	0		81	197.0	/experiments/knapen_aot/AOT/AOT_stimuli/pictures/0234_fw.png	311.003536939621	0.6830878257751465
199	198.11664700508118	response	0	j		197.0	/experiments/knapen_aot/AOT/AOT_stimuli/pictures/0234_fw.png	311.6711449623108	
200	198.1321268081665	picture	0		82	198.0	/experiments/knapen_aot/AOT/AOT_stimuli/pictures/0976_fw.png	311.6866247653961	0.6917650699615479
200	198.80731892585754	response	0	k		198.0	/experiments/knapen_aot/AOT/AOT_stimuli/pictures/0976_fw.png	312.36181688308716	
201	198.82389187812805	picture	0		98	199.0	/experiments/knapen_aot/AOT/AOT_stimuli/pictures/0535_fw.png	312.37838983535767	0.8248600959777832
201	199.6322419643402	response	0	j		199.0	/experiments/knapen_aot/AOT/AOT_stimuli/pictures/0535_fw.png	313.1867399215698	
202	199.64875197410583	picture	0		94	200.0	/experiments/knapen_aot/AOT/AOT_stimuli/pictures/1066_fw.png	313.20324993133545	0.7917428016662598
202	200.42392683029175	response	0	j		200.0	/experiments/knapen_aot/AOT/AOT_stimuli/pictures/1066_fw.png	313.97842478752136	
203	200.4404947757721	picture	0		79	201.0	/experiments/knapen_aot/AOT/AOT_stimuli/pictures/1644_fw.png	313.9949927330017	0.6618671417236328
203	201.08395099639893	response	0	j		201.0	/experiments/knapen_aot/AOT/AOT_stimuli/pictures/1644_fw.png	314.63844895362854	
204	201.10236191749573	picture	0		89	202.0	/experiments/knapen_aot/AOT/AOT_stimuli/pictures/1796_fw.png	314.65685987472534	0.7464289665222168
204	201.8322398662567	response	0	k		202.0	/experiments/knapen_aot/AOT/AOT_stimuli/pictures/1796_fw.png	315.3867378234863	
205	201.84879088401794	picture	0		88	203.0	/experiments/knapen_aot/AOT/AOT_stimuli/pictures/1100_fw.png	315.40328884124756	0.7416961193084717
205	202.57508397102356	response	0	k		203.0	/experiments/knapen_aot/AOT/AOT_stimuli/pictures/1100_fw.png	316.1295819282532	
206	202.59048700332642	picture	0		95	204.0	/experiments/knapen_aot/AOT/AOT_stimuli/pictures/1571_fw.png	316.14498496055603	0.7966699600219727
206	203.37390184402466	response	0	k		204.0	/experiments/knapen_aot/AOT/AOT_stimuli/pictures/1571_fw.png	316.9283998012543	
207	203.3871569633484	picture	0		93	205.0	/experiments/knapen_aot/AOT/AOT_stimuli/pictures/1337_fw.png	316.941654920578	0.7866430282592773
207	204.15866494178772	response	0	j		205.0	/experiments/knapen_aot/AOT/AOT_stimuli/pictures/1337_fw.png	317.71316289901733	
208	204.17379999160767	picture	0		83	206.0	/experiments/knapen_aot/AOT/AOT_stimuli/pictures/1727_fw.png	317.7282979488373	0.6999599933624268
208	204.8572359085083	response	0	k		206.0	/experiments/knapen_aot/AOT/AOT_stimuli/pictures/1727_fw.png	318.4117338657379	
209	204.8737599849701	picture	0		93	207.0	/experiments/knapen_aot/AOT/AOT_stimuli/pictures/1080_fw.png	318.4282579421997	0.783390998840332
209	205.64059400558472	response	0	k		207.0	/experiments/knapen_aot/AOT/AOT_stimuli/pictures/1080_fw.png	319.19509196281433	
210	205.65715098381042	picture	0		87	208.0	/experiments/knapen_aot/AOT/AOT_stimuli/pictures/1514_fw.png	319.21164894104004	0.7299067974090576
210	206.37391090393066	response	0	k		208.0	/experiments/knapen_aot/AOT/AOT_stimuli/pictures/1514_fw.png	319.9284088611603	
211	206.38705778121948	picture	0		114	209.0	/experiments/knapen_aot/AOT/AOT_stimuli/pictures/0001_fw.png	319.9415557384491	0.970069169998169
211	207.3322730064392	response	0	j		209.0	/experiments/knapen_aot/AOT/AOT_stimuli/pictures/0001_fw.png	320.8867709636688	
212	207.35712695121765	picture	0		91	210.0	/experiments/knapen_aot/AOT/AOT_stimuli/pictures/0635_fw.png	320.91162490844727	0.8011229038238525
212	208.10727190971375	response	0	j		210.0	/experiments/knapen_aot/AOT/AOT_stimuli/pictures/0635_fw.png	321.66176986694336	
213	208.1582498550415	picture	0		84	211.0	/experiments/knapen_aot/AOT/AOT_stimuli/pictures/0772_fw.png	321.7127478122711	0.7155210971832275
213	208.8489170074463	response	0	k		211.0	/experiments/knapen_aot/AOT/AOT_stimuli/pictures/0772_fw.png	322.4034149646759	
214	208.87377095222473	picture	0		117	212.0	/experiments/knapen_aot/AOT/AOT_stimuli/pictures/1224_fw.png	322.42826890945435	0.9854788780212402
214	209.84058094024658	response	0	k		212.0	/experiments/knapen_aot/AOT/AOT_stimuli/pictures/1224_fw.png	323.3950788974762	
215	209.85924983024597	picture	0		79	213.0	/experiments/knapen_aot/AOT/AOT_stimuli/pictures/1540_fw.png	323.4137477874756	0.6644940376281738
215	210.50717091560364	response	0	k		213.0	/experiments/knapen_aot/AOT/AOT_stimuli/pictures/1540_fw.png	324.06166887283325	
216	210.52374386787415	picture	0		90	214.0	/experiments/knapen_aot/AOT/AOT_stimuli/pictures/0063_fw.png	324.07824182510376	0.7597019672393799
216	211.2589819431305	response	0	j		214.0	/experiments/knapen_aot/AOT/AOT_stimuli/pictures/0063_fw.png	324.8134799003601	
217	211.28344583511353	picture	0		82	215.0	/experiments/knapen_aot/AOT/AOT_stimuli/pictures/0275_fw.png	324.83794379234314	0.6903021335601807
217	211.95730686187744	response	0	k		215.0	/experiments/knapen_aot/AOT/AOT_stimuli/pictures/0275_fw.png	325.51180481910706	
218	211.9737479686737	picture	0		111	216.0	/experiments/knapen_aot/AOT/AOT_stimuli/pictures/1310_fw.png	325.5282459259033	0.9333348274230957
218	212.8838210105896	response	0	k		216.0	/experiments/knapen_aot/AOT/AOT_stimuli/pictures/1310_fw.png	326.4383189678192	
219	212.9070827960968	picture	0		103	217.0	/experiments/knapen_aot/AOT/AOT_stimuli/pictures/2119_fw.png	326.4615807533264	0.8666481971740723
219	213.75714778900146	response	0	k		217.0	/experiments/knapen_aot/AOT/AOT_stimuli/pictures/2119_fw.png	327.3116457462311	
220	213.77373099327087	picture	0		99	218.0	/experiments/knapen_aot/AOT/AOT_stimuli/pictures/0636_fw.png	327.3282289505005	1.0667078495025635
220	214.5905339717865	response	0	j		218.0	/experiments/knapen_aot/AOT/AOT_stimuli/pictures/0636_fw.png	328.1450319290161	
221	214.84043884277344	picture	0		80	219.0	/experiments/knapen_aot/AOT/AOT_stimuli/pictures/0086_fw.png	328.39493680000305	0.6749870777130127
221	215.49893379211426	response	0	j		219.0	/experiments/knapen_aot/AOT/AOT_stimuli/pictures/0086_fw.png	329.0534317493439	
222	215.51542592048645	picture	0		90	220.0	/experiments/knapen_aot/AOT/AOT_stimuli/pictures/0014_fw.png	329.06992387771606	0.7583298683166504
222	216.25716996192932	response	0	j		220.0	/experiments/knapen_aot/AOT/AOT_stimuli/pictures/0014_fw.png	329.81166791915894	
223	216.2737557888031	picture	0		76	221.0	/experiments/knapen_aot/AOT/AOT_stimuli/pictures/0856_fw.png	329.8282537460327	0.6416850090026855
223	216.89885187149048	response	0	k		221.0	/experiments/knapen_aot/AOT/AOT_stimuli/pictures/0856_fw.png	330.4533498287201	
224	216.9154407978058	picture	0		81	222.0	/experiments/knapen_aot/AOT/AOT_stimuli/pictures/0329_fw.png	330.4699387550354	0.6832790374755859
224	217.58223485946655	response	0	j		222.0	/experiments/knapen_aot/AOT/AOT_stimuli/pictures/0329_fw.png	331.13673281669617	
225	217.59871983528137	picture	0		98	223.0	/experiments/knapen_aot/AOT/AOT_stimuli/pictures/1739_fw.png	331.153217792511	0.8254120349884033
225	218.40791296958923	response	0	j		223.0	/experiments/knapen_aot/AOT/AOT_stimuli/pictures/1739_fw.png	331.96241092681885	
226	218.42413187026978	picture	0		87	224.0	/experiments/knapen_aot/AOT/AOT_stimuli/pictures/0254_fw.png	331.9786298274994	0.7329280376434326
226	219.14049291610718	response	0	k		224.0	/experiments/knapen_aot/AOT/AOT_stimuli/pictures/0254_fw.png	332.6949908733368	
227	219.1570599079132	picture	0		90	225.0	/experiments/knapen_aot/AOT/AOT_stimuli/pictures/1928_fw.png	332.7115578651428	0.7583260536193848
227	219.89881777763367	response	0	k		225.0	/experiments/knapen_aot/AOT/AOT_stimuli/pictures/1928_fw.png	333.4533157348633	
228	219.9153859615326	picture	0		88	226.0	/experiments/knapen_aot/AOT/AOT_stimuli/pictures/0188_fw.png	333.4698839187622	0.742480993270874
228	220.64049983024597	response	0	k		226.0	/experiments/knapen_aot/AOT/AOT_stimuli/pictures/0188_fw.png	334.1949977874756	
229	220.65786695480347	picture	0		85	227.0	/experiments/knapen_aot/AOT/AOT_stimuli/pictures/1378_fw.png	334.2123649120331	0.7158548831939697
229	221.35716700553894	response	0	k		227.0	/experiments/knapen_aot/AOT/AOT_stimuli/pictures/1378_fw.png	334.91166496276855	
230	221.37372183799744	picture	0		74	228.0	/experiments/knapen_aot/AOT/AOT_stimuli/pictures/0369_fw.png	334.92821979522705	0.624993085861206
230	221.98220300674438	response	0	j		228.0	/experiments/knapen_aot/AOT/AOT_stimuli/pictures/0369_fw.png	335.536700963974	
231	221.99871492385864	picture	0		85	229.0	/experiments/knapen_aot/AOT/AOT_stimuli/pictures/0960_fw.png	335.55321288108826	0.7167298793792725
231	222.69200897216797	response	0	k		229.0	/experiments/knapen_aot/AOT/AOT_stimuli/pictures/0960_fw.png	336.2465069293976	
232	222.71544480323792	picture	0		90	230.0	/experiments/knapen_aot/AOT/AOT_stimuli/pictures/1925_fw.png	336.26994276046753	0.7548131942749023
232	223.4510908126831	response	0	j		230.0	/experiments/knapen_aot/AOT/AOT_stimuli/pictures/1925_fw.png	337.0055887699127	
233	223.47025799751282	picture	0		92	231.0	/experiments/knapen_aot/AOT/AOT_stimuli/pictures/0862_fw.png	337.02475595474243	0.7784500122070312
233	224.23216080665588	response	0	k		231.0	/experiments/knapen_aot/AOT/AOT_stimuli/pictures/0862_fw.png	337.7866587638855	
234	224.24870800971985	picture	0		85	232.0	/experiments/knapen_aot/AOT/AOT_stimuli/pictures/2041_fw.png	337.80320596694946	0.717188835144043
234	224.94950199127197	response	0	j		232.0	/experiments/knapen_aot/AOT/AOT_stimuli/pictures/2041_fw.png	338.5039999485016	
235	224.9658968448639	picture	0		88	233.0	/experiments/knapen_aot/AOT/AOT_stimuli/pictures/0691_fw.png	338.5203948020935	0.7337169647216797
235	225.68368577957153	response	0	j		233.0	/experiments/knapen_aot/AOT/AOT_stimuli/pictures/0691_fw.png	339.23818373680115	
236	225.69961380958557	picture	0		84	234.0	/experiments/knapen_aot/AOT/AOT_stimuli/pictures/1057_fw.png	339.2541117668152	0.7075181007385254
236	226.3905119895935	response	0	j		234.0	/experiments/knapen_aot/AOT/AOT_stimuli/pictures/1057_fw.png	339.9450099468231	
237	226.4071319103241	picture	0		86	235.0	/experiments/knapen_aot/AOT/AOT_stimuli/pictures/0288_fw.png	339.9616298675537	0.7249269485473633
237	227.11608695983887	response	0	j		235.0	/experiments/knapen_aot/AOT/AOT_stimuli/pictures/0288_fw.png	340.6705849170685	
238	227.13205885887146	picture	0		85	236.0	/experiments/knapen_aot/AOT/AOT_stimuli/pictures/0988_fw.png	340.6865568161011	0.7166471481323242
238	227.83216285705566	response	0	j		236.0	/experiments/knapen_aot/AOT/AOT_stimuli/pictures/0988_fw.png	341.3866608142853	
239	227.84870600700378	picture	0		85	237.0	/experiments/knapen_aot/AOT/AOT_stimuli/pictures/2040_fw.png	341.4032039642334	0.7166478633880615
239	228.54877591133118	response	0	k		237.0	/experiments/knapen_aot/AOT/AOT_stimuli/pictures/2040_fw.png	342.1032738685608	
240	228.56535387039185	picture	0		108	238.0	/experiments/knapen_aot/AOT/AOT_stimuli/pictures/1109_fw.png	342.11985182762146	0.9047930240631104
240	229.45099186897278	response	0	k		238.0	/experiments/knapen_aot/AOT/AOT_stimuli/pictures/1109_fw.png	343.0054898262024	
241	229.47014689445496	picture	0		88	239.0	/experiments/knapen_aot/AOT/AOT_stimuli/pictures/0250_fw.png	343.02464485168457	0.7452950477600098
241	230.19945693016052	response	0	k		239.0	/experiments/knapen_aot/AOT/AOT_stimuli/pictures/0250_fw.png	343.75395488739014	
242	230.21544194221497	picture	0		184	240.0	/experiments/knapen_aot/AOT/AOT_stimuli/pictures/0734_fw.png	343.7699398994446	1.5415689945220947
242	231.74112391471863	response	0	k		240.0	/experiments/knapen_aot/AOT/AOT_stimuli/pictures/0734_fw.png	345.29562187194824	
243	231.75701093673706	picture	0		81	241.0	/experiments/knapen_aot/AOT/AOT_stimuli/pictures/1507_fw.png	345.3115088939667	0.6833279132843018
243	232.42380285263062	response	0	j		241.0	/experiments/knapen_aot/AOT/AOT_stimuli/pictures/1507_fw.png	345.97830080986023	
244	232.44033885002136	picture	0		96	242.0	/experiments/knapen_aot/AOT/AOT_stimuli/pictures/0963_fw.png	345.994836807251	0.8083369731903076
244	233.23206496238708	response	0	j		242.0	/experiments/knapen_aot/AOT/AOT_stimuli/pictures/0963_fw.png	346.7865629196167	
245	233.24867582321167	picture	0		90	243.0	/experiments/knapen_aot/AOT/AOT_stimuli/pictures/1602_fw.png	346.8031737804413	0.7583770751953125
245	233.9910910129547	response	0	j		243.0	/experiments/knapen_aot/AOT/AOT_stimuli/pictures/1602_fw.png	347.5455889701843	
246	234.00705289840698	picture	0		128	244.0	/experiments/knapen_aot/AOT/AOT_stimuli/pictures/0799_fw.png	347.5615508556366	1.075010061264038
246	235.05864596366882	response	0	j		244.0	/experiments/knapen_aot/AOT/AOT_stimuli/pictures/0799_fw.png	348.61314392089844	
247	235.08206295967102	picture	0		107	245.0	/experiments/knapen_aot/AOT/AOT_stimuli/pictures/0717_fw.png	348.63656091690063	0.9000308513641357
247	235.96539688110352	response	0	j		245.0	/experiments/knapen_aot/AOT/AOT_stimuli/pictures/0717_fw.png	349.51989483833313	
248	235.98209381103516	picture	0		90	246.0	/experiments/knapen_aot/AOT/AOT_stimuli/pictures/1587_fw.png	349.53659176826477	0.7583351135253906
248	236.72377490997314	response	0	j		246.0	/experiments/knapen_aot/AOT/AOT_stimuli/pictures/1587_fw.png	350.27827286720276	
249	236.74042892456055	picture	0		146	247.0	/experiments/knapen_aot/AOT/AOT_stimuli/pictures/2029_fw.png	350.29492688179016	1.224897861480713
249	237.94941592216492	response	0	j		247.0	/experiments/knapen_aot/AOT/AOT_stimuli/pictures/2029_fw.png	351.50391387939453	
250	237.96532678604126	picture	0		115	248.0	/experiments/knapen_aot/AOT/AOT_stimuli/pictures/0334_fw.png	351.5198247432709	0.9999949932098389
250	238.91535878181458	response	0	j		248.0	/experiments/knapen_aot/AOT/AOT_stimuli/pictures/0334_fw.png	352.4698567390442	
251	238.9653217792511	picture	0		91	249.0	/experiments/knapen_aot/AOT/AOT_stimuli/pictures/1431_fw.png	352.5198197364807	0.7686681747436523
251	239.71549892425537	response	0	k		249.0	/experiments/knapen_aot/AOT/AOT_stimuli/pictures/1431_fw.png	353.269996881485	
252	239.73398995399475	picture	0		85	250.0	/experiments/knapen_aot/AOT/AOT_stimuli/pictures/0429_fw.png	353.28848791122437	0.7146780490875244
252	240.43205881118774	response	0	k		250.0	/experiments/knapen_aot/AOT/AOT_stimuli/pictures/0429_fw.png	353.98655676841736	
253	240.44866800308228	picture	0		85	251.0	/experiments/knapen_aot/AOT/AOT_stimuli/pictures/0131_fw.png	354.0031659603119	0.7166118621826172
253	241.14872288703918	response	0	j		251.0	/experiments/knapen_aot/AOT/AOT_stimuli/pictures/0131_fw.png	354.7032208442688	
254	241.1652798652649	picture	0		115	252.0	/experiments/knapen_aot/AOT/AOT_stimuli/pictures/0271_fw.png	354.7197778224945	0.9666829109191895
254	242.11611795425415	response	0	j		252.0	/experiments/knapen_aot/AOT/AOT_stimuli/pictures/0271_fw.png	355.67061591148376	
255	242.13196277618408	picture	0		220	253.0	/experiments/knapen_aot/AOT/AOT_stimuli/pictures/1346_fw.png	355.6864607334137	2.4917001724243164
255	243.9571168422699	response	0	k		253.0	/experiments/knapen_aot/AOT/AOT_stimuli/pictures/1346_fw.png	357.5116147994995	
256	244.6236629486084	picture	0		103	254.0	/experiments/knapen_aot/AOT/AOT_stimuli/pictures/0900_fw.png	358.178160905838	0.8671879768371582
256	245.4669098854065	response	0	j		254.0	/experiments/knapen_aot/AOT/AOT_stimuli/pictures/0900_fw.png	359.0214078426361	
257	245.49085092544556	picture	0		82	255.0	/experiments/knapen_aot/AOT/AOT_stimuli/pictures/0812_fw.png	359.04534888267517	0.6911718845367432
257	246.16539883613586	response	0	k		255.0	/experiments/knapen_aot/AOT/AOT_stimuli/pictures/0812_fw.png	359.7198967933655	
258	246.1820228099823	picture	0		115	256.0	/experiments/knapen_aot/AOT/AOT_stimuli/pictures/2156_fw.png	359.7365207672119	0.9666290283203125
258	247.1320948600769	response	0	j		256.0	/experiments/knapen_aot/AOT/AOT_stimuli/pictures/2156_fw.png	360.6865928173065	
259	247.1486518383026	picture	0		96	257.0	/experiments/knapen_aot/AOT/AOT_stimuli/pictures/0247_fw.png	360.7031497955322	0.8083460330963135
259	247.94041299819946	response	0	k		257.0	/experiments/knapen_aot/AOT/AOT_stimuli/pictures/0247_fw.png	361.4949109554291	
260	247.95699787139893	picture	0		108	258.0	/experiments/knapen_aot/AOT/AOT_stimuli/pictures/0106_fw.png	361.51149582862854	0.9083309173583984
260	248.84875679016113	response	0	k		258.0	/experiments/knapen_aot/AOT/AOT_stimuli/pictures/0106_fw.png	362.40325474739075	
261	248.86532878875732	picture	0		79	259.0	/experiments/knapen_aot/AOT/AOT_stimuli/pictures/2075_fw.png	362.41982674598694	0.6669721603393555
261	249.515398979187	response	0	j		259.0	/experiments/knapen_aot/AOT/AOT_stimuli/pictures/2075_fw.png	363.0698969364166	
262	249.53230094909668	picture	0		73	260.0	/experiments/knapen_aot/AOT/AOT_stimuli/pictures/0879_fw.png	363.0867989063263	0.6165950298309326
262	250.13207697868347	response	0	k		260.0	/experiments/knapen_aot/AOT/AOT_stimuli/pictures/0879_fw.png	363.6865749359131	
263	250.1488959789276	picture	0		86	261.0	/experiments/knapen_aot/AOT/AOT_stimuli/pictures/1781_fw.png	363.7033939361572	0.716925859451294
263	250.8503348827362	response	0	k		261.0	/experiments/knapen_aot/AOT/AOT_stimuli/pictures/1781_fw.png	364.4048328399658	
264	250.8658218383789	picture	0		103	262.0	/experiments/knapen_aot/AOT/AOT_stimuli/pictures/1286_fw.png	364.4203197956085	0.866163969039917
264	251.71540689468384	response	0	k		262.0	/experiments/knapen_aot/AOT/AOT_stimuli/pictures/1286_fw.png	365.26990485191345	
265	251.73198580741882	picture	0		124	263.0	/experiments/knapen_aot/AOT/AOT_stimuli/pictures/0855_fw.png	365.28648376464844	1.0416970252990723
265	252.7570459842682	response	0	j		263.0	/experiments/knapen_aot/AOT/AOT_stimuli/pictures/0855_fw.png	366.3115439414978	
266	252.7736828327179	picture	0		80	264.0	/experiments/knapen_aot/AOT/AOT_stimuli/pictures/0220_fw.png	366.3281807899475	0.6749880313873291
266	253.4320650100708	response	0	j		264.0	/experiments/knapen_aot/AOT/AOT_stimuli/pictures/0220_fw.png	366.9865629673004	
267	253.44867086410522	picture	0		104	265.0	/experiments/knapen_aot/AOT/AOT_stimuli/pictures/2131_fw.png	367.00316882133484	0.8749909400939941
267	254.30703496932983	response	0	k		265.0	/experiments/knapen_aot/AOT/AOT_stimuli/pictures/2131_fw.png	367.86153292655945	
268	254.32366180419922	picture	0		99	266.0	/experiments/knapen_aot/AOT/AOT_stimuli/pictures/0002_fw.png	367.87815976142883	0.8333029747009277
268	255.14036798477173	response	0	j		266.0	/experiments/knapen_aot/AOT/AOT_stimuli/pictures/0002_fw.png	368.69486594200134	
269	255.15696477890015	picture	0		96	267.0	/experiments/knapen_aot/AOT/AOT_stimuli/pictures/0828_fw.png	368.71146273612976	0.8083930015563965
269	255.94923877716064	response	0	j		267.0	/experiments/knapen_aot/AOT/AOT_stimuli/pictures/0828_fw.png	369.50373673439026	
270	255.96535778045654	picture	0		85	268.0	/experiments/knapen_aot/AOT/AOT_stimuli/pictures/1382_fw.png	369.51985573768616	0.7166051864624023
270	256.6591489315033	response	0	j		268.0	/experiments/knapen_aot/AOT/AOT_stimuli/pictures/1382_fw.png	370.2136468887329	
271	256.68196296691895	picture	0		140	269.0	/experiments/knapen_aot/AOT/AOT_stimuli/pictures/1745_fw.png	370.23646092414856	1.1749918460845947
271	257.84041595458984	response	0	k		269.0	/experiments/knapen_aot/AOT/AOT_stimuli/pictures/1745_fw.png	371.39491391181946	
272	257.85695481300354	picture	0		118	270.0	/experiments/knapen_aot/AOT/AOT_stimuli/pictures/2053_fw.png	371.41145277023315	0.9916641712188721
272	258.82565093040466	response	0	k		270.0	/experiments/knapen_aot/AOT/AOT_stimuli/pictures/2053_fw.png	372.3801488876343	
273	258.8486189842224	picture	0		117	271.0	/experiments/knapen_aot/AOT/AOT_stimuli/pictures/0094_fw.png	372.403116941452	0.9833588600158691
273	259.81537079811096	response	0	j		271.0	/experiments/knapen_aot/AOT/AOT_stimuli/pictures/0094_fw.png	373.3698687553406	
274	259.8319778442383	picture	0		109	272.0	/experiments/knapen_aot/AOT/AOT_stimuli/pictures/0151_fw.png	373.3864758014679	0.9166750907897949
274	260.7320280075073	response	0	j		272.0	/experiments/knapen_aot/AOT/AOT_stimuli/pictures/0151_fw.png	374.28652596473694	
275	260.7486529350281	picture	0		100	273.0	/experiments/knapen_aot/AOT/AOT_stimuli/pictures/0634_fw.png	374.3031508922577	0.8416318893432617
275	261.57419991493225	response	0	j		273.0	/experiments/knapen_aot/AOT/AOT_stimuli/pictures/0634_fw.png	375.12869787216187	
276	261.59028482437134	picture	0		134	274.0	/experiments/knapen_aot/AOT/AOT_stimuli/pictures/1996_fw.png	375.14478278160095	1.1250109672546387
276	262.69920897483826	response	0	j		274.0	/experiments/knapen_aot/AOT/AOT_stimuli/pictures/1996_fw.png	376.25370693206787	
277	262.715295791626	picture	0		83	275.0	/experiments/knapen_aot/AOT/AOT_stimuli/pictures/1623_fw.png	376.2697937488556	0.6999661922454834
277	263.3987069129944	response	0	k		275.0	/experiments/knapen_aot/AOT/AOT_stimuli/pictures/1623_fw.png	376.953204870224	
278	263.41526198387146	picture	0		89	276.0	/experiments/knapen_aot/AOT/AOT_stimuli/pictures/0108_fw.png	376.9697599411011	0.7500548362731934
278	264.1486678123474	response	0	k		276.0	/experiments/knapen_aot/AOT/AOT_stimuli/pictures/0108_fw.png	377.703165769577	
279	264.16531682014465	picture	0		113	277.0	/experiments/knapen_aot/AOT/AOT_stimuli/pictures/0359_fw.png	377.71981477737427	0.9499640464782715
279	265.09867787361145	response	0	k		277.0	/experiments/knapen_aot/AOT/AOT_stimuli/pictures/0359_fw.png	378.65317583084106	
280	265.1152808666229	picture	0		94	278.0	/experiments/knapen_aot/AOT/AOT_stimuli/pictures/0873_fw.png	378.66977882385254	0.7916510105133057
280	265.89035201072693	response	0	k		278.0	/experiments/knapen_aot/AOT/AOT_stimuli/pictures/0873_fw.png	379.44484996795654	
281	265.90693187713623	picture	0		76	279.0	/experiments/knapen_aot/AOT/AOT_stimuli/pictures/0300_fw.png	379.46142983436584	0.6416029930114746
281	266.5324227809906	response	0	j		279.0	/experiments/knapen_aot/AOT/AOT_stimuli/pictures/0300_fw.png	380.0869207382202	
282	266.5485348701477	picture	0		126	280.0	/experiments/knapen_aot/AOT/AOT_stimuli/pictures/2000_fw.png	380.1030328273773	1.058337926864624
282	267.59038281440735	response	0	k		280.0	/experiments/knapen_aot/AOT/AOT_stimuli/pictures/2000_fw.png	381.14488077163696	
283	267.60687279701233	picture	0		141	281.0	/experiments/knapen_aot/AOT/AOT_stimuli/pictures/0641_fw.png	381.16137075424194	1.1833021640777588
283	268.7736339569092	response	0	j		281.0	/experiments/knapen_aot/AOT/AOT_stimuli/pictures/0641_fw.png	382.3281319141388	
284	268.7901749610901	picture	0		88	282.0	/experiments/knapen_aot/AOT/AOT_stimuli/pictures/1153_fw.png	382.3446729183197	0.7698819637298584
284	269.51528000831604	response	0	k		282.0	/experiments/knapen_aot/AOT/AOT_stimuli/pictures/1153_fw.png	383.06977796554565	
285	269.56005692481995	picture	0		163	283.0	/experiments/knapen_aot/AOT/AOT_stimuli/pictures/0099_fw.png	383.11455488204956	1.3820419311523438
285	270.90740990638733	response	0	k		283.0	/experiments/knapen_aot/AOT/AOT_stimuli/pictures/0099_fw.png	384.46190786361694	
286	270.9420988559723	picture	0		105	284.0	/experiments/knapen_aot/AOT/AOT_stimuli/pictures/0032_fw.png	384.4965968132019	0.8817050457000732
286	271.8069598674774	response	0	j		284.0	/experiments/knapen_aot/AOT/AOT_stimuli/pictures/0032_fw.png	385.36145782470703	
287	271.82380390167236	picture	0		112	285.0	/experiments/knapen_aot/AOT/AOT_stimuli/pictures/0319_fw.png	385.378301858902	0.9414639472961426
287	272.74862694740295	response	0	j		285.0	/experiments/knapen_aot/AOT/AOT_stimuli/pictures/0319_fw.png	386.30312490463257	
288	272.7652678489685	picture	0		79	286.0	/experiments/knapen_aot/AOT/AOT_stimuli/pictures/0629_fw.png	386.3197658061981	0.6697821617126465
288	273.4153079986572	response	0	k		286.0	/experiments/knapen_aot/AOT/AOT_stimuli/pictures/0629_fw.png	386.96980595588684	
289	273.43505001068115	picture	0		94	287.0	/experiments/knapen_aot/AOT/AOT_stimuli/pictures/1227_fw.png	386.98954796791077	0.7884719371795654
289	274.2069158554077	response	0	k		287.0	/experiments/knapen_aot/AOT/AOT_stimuli/pictures/1227_fw.png	387.76141381263733	
290	274.2235219478607	picture	0		83	288.0	/experiments/knapen_aot/AOT/AOT_stimuli/pictures/1776_fw.png	387.77801990509033	0.7000038623809814
290	274.9073917865753	response	0	k		288.0	/experiments/knapen_aot/AOT/AOT_stimuli/pictures/1776_fw.png	388.46188974380493	
291	274.9235258102417	picture	0		98	289.0	/experiments/knapen_aot/AOT/AOT_stimuli/pictures/1704_fw.png	388.4780237674713	0.825005054473877
291	275.73192596435547	response	0	j		289.0	/experiments/knapen_aot/AOT/AOT_stimuli/pictures/1704_fw.png	389.2864239215851	
292	275.7485308647156	picture	0		98	290.0	/experiments/knapen_aot/AOT/AOT_stimuli/pictures/1895_fw.png	389.3030288219452	0.8249950408935547
292	276.5569357872009	response	0	j		290.0	/experiments/knapen_aot/AOT/AOT_stimuli/pictures/1895_fw.png	390.11143374443054	
293	276.57352590560913	picture	0		89	291.0	/experiments/knapen_aot/AOT/AOT_stimuli/pictures/0911_fw.png	390.12802386283875	0.7499849796295166
293	277.3069248199463	response	0	j		291.0	/experiments/knapen_aot/AOT/AOT_stimuli/pictures/0911_fw.png	390.8614227771759	
294	277.32351088523865	picture	0		139	292.0	/experiments/knapen_aot/AOT/AOT_stimuli/pictures/1384_fw.png	390.87800884246826	1.166661024093628
294	278.4735019207001	response	0	k		292.0	/experiments/knapen_aot/AOT/AOT_stimuli/pictures/1384_fw.png	392.0279998779297	
295	278.4901719093323	picture	0		105	293.0	/experiments/knapen_aot/AOT/AOT_stimuli/pictures/0348_fw.png	392.0446698665619	0.8833320140838623
295	279.3569447994232	response	0	k		293.0	/experiments/knapen_aot/AOT/AOT_stimuli/pictures/0348_fw.png	392.91144275665283	
296	279.37350392341614	picture	0		88	294.0	/experiments/knapen_aot/AOT/AOT_stimuli/pictures/1148_fw.png	392.92800188064575	0.7416560649871826
296	280.0986828804016	response	0	k		294.0	/experiments/knapen_aot/AOT/AOT_stimuli/pictures/1148_fw.png	393.6531808376312	
297	280.1151599884033	picture	0		102	295.0	/experiments/knapen_aot/AOT/AOT_stimuli/pictures/0738_fw.png	393.66965794563293	0.8583838939666748
297	280.95692777633667	response	0	k		295.0	/experiments/knapen_aot/AOT/AOT_stimuli/pictures/0738_fw.png	394.5114257335663	
298	280.97354388237	picture	0		97	296.0	/experiments/knapen_aot/AOT/AOT_stimuli/pictures/1088_fw.png	394.5280418395996	0.816594123840332
298	281.7735879421234	response	0	k		296.0	/experiments/knapen_aot/AOT/AOT_stimuli/pictures/1088_fw.png	395.328085899353	
299	281.7901380062103	picture	0		115	297.0	/experiments/knapen_aot/AOT/AOT_stimuli/pictures/1676_fw.png	395.34463596343994	0.9666898250579834
299	282.7406017780304	response	0	k		297.0	/experiments/knapen_aot/AOT/AOT_stimuli/pictures/1676_fw.png	396.29509973526	
300	282.7568278312683	picture	0		98	298.0	/experiments/knapen_aot/AOT/AOT_stimuli/pictures/0163_fw.png	396.3113257884979	0.8250000476837158
300	283.56524181365967	response	0	k		298.0	/experiments/knapen_aot/AOT/AOT_stimuli/pictures/0163_fw.png	397.1197397708893	
301	283.581827878952	picture	0		93	299.0	/experiments/knapen_aot/AOT/AOT_stimuli/pictures/1798_fw.png	397.13632583618164	0.7833199501037598
301	284.34855699539185	response	0	k		299.0	/experiments/knapen_aot/AOT/AOT_stimuli/pictures/1798_fw.png	397.90305495262146	
302	284.3651478290558	picture	0		101	300.0	/experiments/knapen_aot/AOT/AOT_stimuli/pictures/1432_fw.png	397.9196457862854	0.8500001430511475
302	285.19890785217285	response	0	k		300.0	/experiments/knapen_aot/AOT/AOT_stimuli/pictures/1432_fw.png	398.75340580940247	
303	285.21514797210693	picture	0		106	301.0	/experiments/knapen_aot/AOT/AOT_stimuli/pictures/1031_fw.png	398.76964592933655	0.8916678428649902
303	286.0902109146118	response	0	k		301.0	/experiments/knapen_aot/AOT/AOT_stimuli/pictures/1031_fw.png	399.64470887184143	
304	286.1068158149719	picture	0		82	302.0	/experiments/knapen_aot/AOT/AOT_stimuli/pictures/0979_fw.png	399.66131377220154	0.6916520595550537
304	286.78226494789124	response	0	j		302.0	/experiments/knapen_aot/AOT/AOT_stimuli/pictures/0979_fw.png	400.33676290512085	
305	286.798467874527	picture	0		89	303.0	/experiments/knapen_aot/AOT/AOT_stimuli/pictures/1219_fw.png	400.3529658317566	0.7500309944152832
305	287.53224897384644	response	0	j		303.0	/experiments/knapen_aot/AOT/AOT_stimuli/pictures/1219_fw.png	401.08674693107605	
306	287.54849886894226	picture	0		96	304.0	/experiments/knapen_aot/AOT/AOT_stimuli/pictures/1351_fw.png	401.1029968261719	0.8083400726318359
306	288.34025597572327	response	0	j		304.0	/experiments/knapen_aot/AOT/AOT_stimuli/pictures/1351_fw.png	401.8947539329529	
307	288.3568389415741	picture	0		80	305.0	/experiments/knapen_aot/AOT/AOT_stimuli/pictures/0175_fw.png	401.9113368988037	0.6751370429992676
307	289.0152509212494	response	0	k		305.0	/experiments/knapen_aot/AOT/AOT_stimuli/pictures/0175_fw.png	402.569748878479	
308	289.03197598457336	picture	0		74	306.0	/experiments/knapen_aot/AOT/AOT_stimuli/pictures/1593_fw.png	402.586473941803	0.6248338222503662
308	289.63342094421387	response	0	j		306.0	/experiments/knapen_aot/AOT/AOT_stimuli/pictures/1593_fw.png	403.1879189014435	
309	289.65680980682373	picture	0		94	307.0	/experiments/knapen_aot/AOT/AOT_stimuli/pictures/1446_fw.png	403.21130776405334	0.7917649745941162
309	290.425096988678	response	0	j		307.0	/experiments/knapen_aot/AOT/AOT_stimuli/pictures/1446_fw.png	403.9795949459076	
310	290.44857478141785	picture	0		104	308.0	/experiments/knapen_aot/AOT/AOT_stimuli/pictures/1797_fw.png	404.00307273864746	0.8749241828918457
310	291.3068838119507	response	0	k		308.0	/experiments/knapen_aot/AOT/AOT_stimuli/pictures/1797_fw.png	404.8613817691803	
311	291.3234989643097	picture	0		92	309.0	/experiments/knapen_aot/AOT/AOT_stimuli/pictures/0518_fw.png	404.8779969215393	0.7749388217926025
311	292.0818328857422	response	0	j		309.0	/experiments/knapen_aot/AOT/AOT_stimuli/pictures/0518_fw.png	405.6363308429718	
312	292.0984377861023	picture	0		92	310.0	/experiments/knapen_aot/AOT/AOT_stimuli/pictures/0246_fw.png	405.6529357433319	0.7750720977783203
312	292.85013580322266	response	0	k		310.0	/experiments/knapen_aot/AOT/AOT_stimuli/pictures/0246_fw.png	406.40463376045227	
313	292.8735098838806	picture	0		162	311.0	/experiments/knapen_aot/AOT/AOT_stimuli/pictures/1020_fw.png	406.42800784111023	1.3582649230957031
313	294.21516489982605	response	0	j		311.0	/experiments/knapen_aot/AOT/AOT_stimuli/pictures/1020_fw.png	407.76966285705566	
314	294.2317748069763	picture	0		151	312.0	/experiments/knapen_aot/AOT/AOT_stimuli/pictures/1729_fw.png	407.78627276420593	1.2666630744934082
314	295.48184180259705	response	0	j		312.0	/experiments/knapen_aot/AOT/AOT_stimuli/pictures/1729_fw.png	409.03633975982666	
315	295.4984378814697	picture	0		137	313.0	/experiments/knapen_aot/AOT/AOT_stimuli/pictures/0161_fw.png	409.05293583869934	1.149972915649414
315	296.6251039505005	response	0	k		313.0	/experiments/knapen_aot/AOT/AOT_stimuli/pictures/0161_fw.png	410.1796019077301	
316	296.64841079711914	picture	0		144	314.0	/experiments/knapen_aot/AOT/AOT_stimuli/pictures/0261_fw.png	410.20290875434875	1.2031052112579346
316	297.8333649635315	response	0	j		314.0	/experiments/knapen_aot/AOT/AOT_stimuli/pictures/0261_fw.png	411.3878629207611	
317	297.8515160083771	picture	0		107	315.0	/experiments/knapen_aot/AOT/AOT_stimuli/pictures/0591_fw.png	411.4060139656067	0.896920919418335
317	298.73182678222656	response	0	j		315.0	/experiments/knapen_aot/AOT/AOT_stimuli/pictures/0591_fw.png	412.2863247394562	
318	298.7484369277954	picture	0		348	316.0	/experiments/knapen_aot/AOT/AOT_stimuli/pictures/1379_fw.png	412.302934885025	2.9085919857025146
318	301.63341188430786	response	0	j		316.0	/experiments/knapen_aot/AOT/AOT_stimuli/pictures/1379_fw.png	415.1879098415375	
319	301.6570289134979	picture	0		101	317.0	/experiments/knapen_aot/AOT/AOT_stimuli/pictures/0227_fw.png	415.21152687072754	0.8497068881988525
319	302.4904878139496	response	0	j		317.0	/experiments/knapen_aot/AOT/AOT_stimuli/pictures/0227_fw.png	416.0449857711792	
320	302.5067358016968	picture	0		98	318.0	/experiments/knapen_aot/AOT/AOT_stimuli/pictures/0870_fw.png	416.0612337589264	0.8249390125274658
320	303.3152229785919	response	0	j		318.0	/experiments/knapen_aot/AOT/AOT_stimuli/pictures/0870_fw.png	416.86972093582153	
321	303.33167481422424	picture	0		141	319.0	/experiments/knapen_aot/AOT/AOT_stimuli/pictures/1627_fw.png	416.88617277145386	1.1865131855010986
321	304.4985239505768	response	0	k		319.0	/experiments/knapen_aot/AOT/AOT_stimuli/pictures/1627_fw.png	418.0530219078064	
322	304.51818799972534	picture	0		82	320.0	/experiments/knapen_aot/AOT/AOT_stimuli/pictures/0571_fw.png	418.07268595695496	0.9930379390716553
322	305.1901228427887	response	0	k		320.0	/experiments/knapen_aot/AOT/AOT_stimuli/pictures/0571_fw.png	418.7446208000183	
323	305.511225938797	picture	0		96	321.0	/experiments/knapen_aot/AOT/AOT_stimuli/pictures/2152_fw.png	419.0657238960266	0.8124289512634277
323	306.3068878650665	response	0	k		321.0	/experiments/knapen_aot/AOT/AOT_stimuli/pictures/2152_fw.png	419.86138582229614	
324	306.3236548900604	picture	0		79	322.0	/experiments/knapen_aot/AOT/AOT_stimuli/pictures/1993_fw.png	419.87815284729004	0.6663820743560791
324	306.97347593307495	response	0	j		322.0	/experiments/knapen_aot/AOT/AOT_stimuli/pictures/1993_fw.png	420.52797389030457	
325	306.9900369644165	picture	0		84	323.0	/experiments/knapen_aot/AOT/AOT_stimuli/pictures/1888_fw.png	420.5445349216461	0.7083718776702881
325	307.6817798614502	response	0	j		323.0	/experiments/knapen_aot/AOT/AOT_stimuli/pictures/1888_fw.png	421.2362778186798	
326	307.6984088420868	picture	0		100	324.0	/experiments/knapen_aot/AOT/AOT_stimuli/pictures/1992_fw.png	421.2529067993164	0.8416299819946289
326	308.5234799385071	response	0	j		324.0	/experiments/knapen_aot/AOT/AOT_stimuli/pictures/1992_fw.png	422.0779778957367	
327	308.5400388240814	picture	0		72	325.0	/experiments/knapen_aot/AOT/AOT_stimuli/pictures/2101_fw.png	422.09453678131104	0.6083300113677979
327	309.13180589675903	response	0	k		325.0	/experiments/knapen_aot/AOT/AOT_stimuli/pictures/2101_fw.png	422.68630385398865	
328	309.1483688354492	picture	0		113	326.0	/experiments/knapen_aot/AOT/AOT_stimuli/pictures/1868_fw.png	422.70286679267883	0.9500150680541992
328	310.0817949771881	response	0	k		326.0	/experiments/knapen_aot/AOT/AOT_stimuli/pictures/1868_fw.png	423.6362929344177	
329	310.0983839035034	picture	0		109	327.0	/experiments/knapen_aot/AOT/AOT_stimuli/pictures/1303_fw.png	423.65288186073303	0.9127218723297119
329	310.998459815979	response	0	k		327.0	/experiments/knapen_aot/AOT/AOT_stimuli/pictures/1303_fw.png	424.5529577732086	
330	311.01110577583313	picture	0		101	328.0	/experiments/knapen_aot/AOT/AOT_stimuli/pictures/0091_fw.png	424.56560373306274	0.853924036026001
330	311.84168100357056	response	0	k		328.0	/experiments/knapen_aot/AOT/AOT_stimuli/pictures/0091_fw.png	425.39617896080017	
331	311.86502981185913	picture	0		88	329.0	/experiments/knapen_aot/AOT/AOT_stimuli/pictures/1035_fw.png	425.41952776908875	0.7416701316833496
331	312.5901207923889	response	0	j		329.0	/experiments/knapen_aot/AOT/AOT_stimuli/pictures/1035_fw.png	426.14461874961853	
332	312.6066999435425	picture	0		216	330.0	/experiments/knapen_aot/AOT/AOT_stimuli/pictures/0018_fw.png	426.1611979007721	1.817106008529663
332	314.39842891693115	response	0	j		330.0	/experiments/knapen_aot/AOT/AOT_stimuli/pictures/0018_fw.png	427.95292687416077	
333	314.42380595207214	picture	0		99	331.0	/experiments/knapen_aot/AOT/AOT_stimuli/pictures/1117_fw.png	427.97830390930176	0.8412618637084961
333	315.24028396606445	response	0	j		331.0	/experiments/knapen_aot/AOT/AOT_stimuli/pictures/1117_fw.png	428.79478192329407	
334	315.26506781578064	picture	0		78	332.0	/experiments/knapen_aot/AOT/AOT_stimuli/pictures/0264_fw.png	428.81956577301025	0.6583240032196045
334	315.9069619178772	response	0	k		332.0	/experiments/knapen_aot/AOT/AOT_stimuli/pictures/0264_fw.png	429.4614598751068	
335	315.92339181900024	picture	0		88	333.0	/experiments/knapen_aot/AOT/AOT_stimuli/pictures/0619_fw.png	429.47788977622986	0.7417609691619873
335	316.6416599750519	response	0	j		333.0	/experiments/knapen_aot/AOT/AOT_stimuli/pictures/0619_fw.png	430.1961579322815	
336	316.66515278816223	picture	0		120	334.0	/experiments/knapen_aot/AOT/AOT_stimuli/pictures/0382_fw.png	430.21965074539185	1.0081970691680908
336	317.65698981285095	response	0	j		334.0	/experiments/knapen_aot/AOT/AOT_stimuli/pictures/0382_fw.png	431.21148777008057	
337	317.6733498573303	picture	0		106	335.0	/experiments/knapen_aot/AOT/AOT_stimuli/pictures/0573_fw.png	431.22784781455994	0.893226146697998
337	318.5484240055084	response	0	k		335.0	/experiments/knapen_aot/AOT/AOT_stimuli/pictures/0573_fw.png	432.10292196273804	
338	318.5665760040283	picture	0		95	336.0	/experiments/knapen_aot/AOT/AOT_stimuli/pictures/0232_fw.png	432.12107396125793	0.7988588809967041
338	319.3483679294586	response	0	k		336.0	/experiments/knapen_aot/AOT/AOT_stimuli/pictures/0232_fw.png	432.90286588668823	
339	319.365434885025	picture	0		130	337.0	/experiments/knapen_aot/AOT/AOT_stimuli/pictures/1643_fw.png	432.91993284225464	1.0912411212921143
339	320.4333119392395	response	0	k		337.0	/experiments/knapen_aot/AOT/AOT_stimuli/pictures/1643_fw.png	433.9878098964691	
340	320.45667600631714	picture	0		88	338.0	/experiments/knapen_aot/AOT/AOT_stimuli/pictures/0759_fw.png	434.01117396354675	0.7419919967651367
340	321.1817100048065	response	0	j		338.0	/experiments/knapen_aot/AOT/AOT_stimuli/pictures/0759_fw.png	434.73620796203613	
341	321.1986680030823	picture	0		98	339.0	/experiments/knapen_aot/AOT/AOT_stimuli/pictures/1216_fw.png	434.7531659603119	0.8246657848358154
341	322.0001518726349	response	0	k		339.0	/experiments/knapen_aot/AOT/AOT_stimuli/pictures/1216_fw.png	435.5546498298645	
342	322.0233337879181	picture	0		103	340.0	/experiments/knapen_aot/AOT/AOT_stimuli/pictures/1682_fw.png	435.5778317451477	0.8666560649871826
342	322.8734610080719	response	0	j		340.0	/experiments/knapen_aot/AOT/AOT_stimuli/pictures/1682_fw.png	436.4279589653015	
343	322.8899898529053	picture	0		85	341.0	/experiments/knapen_aot/AOT/AOT_stimuli/pictures/1271_fw.png	436.4444878101349	0.7334439754486084
343	323.5900478363037	response	0	k		341.0	/experiments/knapen_aot/AOT/AOT_stimuli/pictures/1271_fw.png	437.1445457935333	
344	323.6234338283539	picture	0		78	342.0	/experiments/knapen_aot/AOT/AOT_stimuli/pictures/2128_fw.png	437.1779317855835	0.6832480430603027
344	324.26504588127136	response	0	k		342.0	/experiments/knapen_aot/AOT/AOT_stimuli/pictures/2128_fw.png	437.819543838501	
345	324.3066818714142	picture	0		154	343.0	/experiments/knapen_aot/AOT/AOT_stimuli/pictures/1439_fw.png	437.8611798286438	1.291923999786377
345	325.5817639827728	response	0	k		343.0	/experiments/knapen_aot/AOT/AOT_stimuli/pictures/1439_fw.png	439.13626194000244	
346	325.59860587120056	picture	0		85	344.0	/experiments/knapen_aot/AOT/AOT_stimuli/pictures/0858_fw.png	439.1531038284302	0.7163889408111572
346	326.29843187332153	response	0	k		344.0	/experiments/knapen_aot/AOT/AOT_stimuli/pictures/0858_fw.png	439.85292983055115	
347	326.3149948120117	picture	0		96	345.0	/experiments/knapen_aot/AOT/AOT_stimuli/pictures/1621_fw.png	439.86949276924133	0.8210752010345459
347	327.1067388057709	response	0	j		345.0	/experiments/knapen_aot/AOT/AOT_stimuli/pictures/1621_fw.png	440.6612367630005	
348	327.13607001304626	picture	0		93	346.0	/experiments/knapen_aot/AOT/AOT_stimuli/pictures/1436_fw.png	440.6905679702759	0.7872498035430908
348	327.90684700012207	response	0	j		346.0	/experiments/knapen_aot/AOT/AOT_stimuli/pictures/1436_fw.png	441.4613449573517	
349	327.92331981658936	picture	0		87	347.0	/experiments/knapen_aot/AOT/AOT_stimuli/pictures/1693_fw.png	441.47781777381897	0.7337901592254639
349	328.63999581336975	response	0	j		347.0	/experiments/knapen_aot/AOT/AOT_stimuli/pictures/1693_fw.png	442.19449377059937	
350	328.6571099758148	picture	0		121	348.0	/experiments/knapen_aot/AOT/AOT_stimuli/pictures/1521_fw.png	442.21160793304443	1.0161969661712646
350	329.6568429470062	response	0	j		348.0	/experiments/knapen_aot/AOT/AOT_stimuli/pictures/1521_fw.png	443.21134090423584	
351	329.6733069419861	picture	0		141	349.0	/experiments/knapen_aot/AOT/AOT_stimuli/pictures/1314_fw.png	443.2278048992157	1.1916708946228027
351	330.83332800865173	response	0	j		349.0	/experiments/knapen_aot/AOT/AOT_stimuli/pictures/1314_fw.png	444.38782596588135	
352	330.8649778366089	picture	0		85	350.0	/experiments/knapen_aot/AOT/AOT_stimuli/pictures/1328_fw.png	444.4194757938385	0.7166330814361572
352	331.56502890586853	response	0	k		350.0	/experiments/knapen_aot/AOT/AOT_stimuli/pictures/1328_fw.png	445.11952686309814	
353	331.58161091804504	picture	0		90	351.0	/experiments/knapen_aot/AOT/AOT_stimuli/pictures/0755_fw.png	445.13610887527466	0.7583498954772949
353	332.3234968185425	response	0	j		351.0	/experiments/knapen_aot/AOT/AOT_stimuli/pictures/0755_fw.png	445.8779947757721	
354	332.33996081352234	picture	0		99	352.0	/experiments/knapen_aot/AOT/AOT_stimuli/pictures/0512_fw.png	445.89445877075195	0.8333380222320557
354	333.1569938659668	response	0	j		352.0	/experiments/knapen_aot/AOT/AOT_stimuli/pictures/0512_fw.png	446.7114918231964	
355	333.1732988357544	picture	0		73	353.0	/experiments/knapen_aot/AOT/AOT_stimuli/pictures/0526_fw.png	446.727796792984	0.616642951965332
355	333.7733860015869	response	0	k		353.0	/experiments/knapen_aot/AOT/AOT_stimuli/pictures/0526_fw.png	447.3278839588165	
356	333.7899417877197	picture	0		110	354.0	/experiments/knapen_aot/AOT/AOT_stimuli/pictures/1254_fw.png	447.34443974494934	0.9293510913848877
356	334.69849586486816	response	0	k		354.0	/experiments/knapen_aot/AOT/AOT_stimuli/pictures/1254_fw.png	448.2529938220978	
357	334.7192928791046	picture	0		105	355.0	/experiments/knapen_aot/AOT/AOT_stimuli/pictures/1893_fw.png	448.27379083633423	0.888787031173706
357	335.5900168418884	response	0	k		355.0	/experiments/knapen_aot/AOT/AOT_stimuli/pictures/1893_fw.png	449.14451479911804	
358	335.6080799102783	picture	0		156	356.0	/experiments/knapen_aot/AOT/AOT_stimuli/pictures/0730_fw.png	449.16257786750793	1.3068618774414062
358	336.89835381507874	response	0	k		356.0	/experiments/knapen_aot/AOT/AOT_stimuli/pictures/0730_fw.png	450.45285177230835	
359	336.9149417877197	picture	0		179	357.0	/experiments/knapen_aot/AOT/AOT_stimuli/pictures/1155_fw.png	450.46943974494934	1.5000650882720947
359	338.39838695526123	response	0	j		357.0	/experiments/knapen_aot/AOT/AOT_stimuli/pictures/1155_fw.png	451.95288491249084	
360	338.4150068759918	picture	0		151	358.0	/experiments/knapen_aot/AOT/AOT_stimuli/pictures/1010_fw.png	451.96950483322144	1.2667620182037354
360	339.66500782966614	response	0	k		358.0	/experiments/knapen_aot/AOT/AOT_stimuli/pictures/1010_fw.png	453.21950578689575	
361	339.68176889419556	picture	0		91	359.0	/experiments/knapen_aot/AOT/AOT_stimuli/pictures/0230_fw.png	453.23626685142517	0.7664830684661865
361	340.42493295669556	response	0	j		359.0	/experiments/knapen_aot/AOT/AOT_stimuli/pictures/0230_fw.png	453.97943091392517	
362	340.44825196266174	stim	0		1716			454.00274991989136	14.316606044769287
