trial_nr	onset	event_type	phase	response	nr_frames	picture_index	picture_file	onset_abs	duration
0	0.17434263229370117	stim	0		681			107.88620567321777	5.693615436553955
0	5.8497092723846436	response	0	space				113.56157231330872	
2	5.867958068847656	picture	0		126	0.0	/experiments/Knapen_AOT/AOT_stimuli/pictures/0206_fw.png	113.57982110977173	1.0730490684509277
2	6.916588068008423	response	0	j		0.0	/experiments/Knapen_AOT/AOT_stimuli/pictures/0206_fw.png	114.6284511089325	
3	6.941007137298584	picture	0		133	1.0	/experiments/Knapen_AOT/AOT_stimuli/pictures/1940_fw.png	114.65287017822266	1.116743564605713
3	8.041322231292725	response	0	k		1.0	/experiments/Knapen_AOT/AOT_stimuli/pictures/1940_fw.png	115.7531852722168	
4	8.057750701904297	picture	0		98	2.0	/experiments/Knapen_AOT/AOT_stimuli/pictures/0426_fw.png	115.76961374282837	0.817155122756958
4	8.86633014678955	response	0	j		2.0	/experiments/Knapen_AOT/AOT_stimuli/pictures/0426_fw.png	116.57819318771362	
5	8.874905824661255	picture	0		99	3.0	/experiments/Knapen_AOT/AOT_stimuli/pictures/1604_fw.png	116.58676886558533	0.8264346122741699
5	9.6915442943573	response	0	k		3.0	/experiments/Knapen_AOT/AOT_stimuli/pictures/1604_fw.png	117.40340733528137	
6	9.701340436935425	picture	0		99	4.0	/experiments/Knapen_AOT/AOT_stimuli/pictures/1463_fw.png	117.4132034778595	0.8263363838195801
6	10.516308784484863	response	0	j		4.0	/experiments/Knapen_AOT/AOT_stimuli/pictures/1463_fw.png	118.22817182540894	
7	10.527676820755005	picture	0		92	5.0	/experiments/Knapen_AOT/AOT_stimuli/pictures/1675_fw.png	118.23953986167908	0.7640576362609863
7	11.276270389556885	response	0	j		5.0	/experiments/Knapen_AOT/AOT_stimuli/pictures/1675_fw.png	118.98813343048096	
8	11.291734457015991	picture	0		105	6.0	/experiments/Knapen_AOT/AOT_stimuli/pictures/0677_fw.png	119.00359749794006	0.874948263168335
8	12.158029079437256	response	0	j		6.0	/experiments/Knapen_AOT/AOT_stimuli/pictures/0677_fw.png	119.86989212036133	
9	12.166682720184326	picture	0		98	7.0	/experiments/Knapen_AOT/AOT_stimuli/pictures/1176_fw.png	119.8785457611084	0.8193545341491699
9	12.974685668945312	response	0	j		7.0	/experiments/Knapen_AOT/AOT_stimuli/pictures/1176_fw.png	120.68654870986938	
10	12.986037254333496	picture	0		111	8.0	/experiments/Knapen_AOT/AOT_stimuli/pictures/1432_fw.png	120.69790029525757	0.9301292896270752
10	13.892215728759766	response	0	k		8.0	/experiments/Knapen_AOT/AOT_stimuli/pictures/1432_fw.png	121.60407876968384	
11	13.916166543960571	picture	0		96	9.0	/experiments/Knapen_AOT/AOT_stimuli/pictures/1174_fw.png	121.62802958488464	0.8083333969116211
11	14.70068073272705	response	0	k		9.0	/experiments/Knapen_AOT/AOT_stimuli/pictures/1174_fw.png	122.41254377365112	
12	14.724499940872192	picture	0		118	10.0	/experiments/Knapen_AOT/AOT_stimuli/pictures/0559_fw.png	122.43636298179626	0.983773946762085
12	15.69971776008606	response	0	k		10.0	/experiments/Knapen_AOT/AOT_stimuli/pictures/0559_fw.png	123.41158080101013	
13	15.708273887634277	picture	0		92	11.0	/experiments/Knapen_AOT/AOT_stimuli/pictures/0067_fw.png	123.42013692855835	0.77089524269104
13	16.46641254425049	response	0	j		11.0	/experiments/Knapen_AOT/AOT_stimuli/pictures/0067_fw.png	124.17827558517456	
14	16.479169130325317	picture	0		133	12.0	/experiments/Knapen_AOT/AOT_stimuli/pictures/0626_fw.png	124.19103217124939	1.1041698455810547
14	17.574724197387695	response	0	k		12.0	/experiments/Knapen_AOT/AOT_stimuli/pictures/0626_fw.png	125.28658723831177	
15	17.583338975906372	picture	0		121	13.0	/experiments/Knapen_AOT/AOT_stimuli/pictures/0343_fw.png	125.29520201683044	1.0162372589111328
15	18.583804845809937	response	0	k		13.0	/experiments/Knapen_AOT/AOT_stimuli/pictures/0343_fw.png	126.29566788673401	
16	18.599576234817505	picture	0		109	14.0	/experiments/Knapen_AOT/AOT_stimuli/pictures/1359_fw.png	126.31143927574158	0.916651725769043
16	19.493414640426636	response	0	j		14.0	/experiments/Knapen_AOT/AOT_stimuli/pictures/1359_fw.png	127.20527768135071	
17	19.516227960586548	picture	0		108	15.0	/experiments/Knapen_AOT/AOT_stimuli/pictures/0446_fw.png	127.22809100151062	0.9083631038665771
17	20.408013105392456	response	0	k		15.0	/experiments/Knapen_AOT/AOT_stimuli/pictures/0446_fw.png	128.11987614631653	
18	20.424591064453125	picture	0		110	16.0	/experiments/Knapen_AOT/AOT_stimuli/pictures/0712_fw.png	128.1364541053772	0.916633129119873
18	21.333089351654053	response	0	k		16.0	/experiments/Knapen_AOT/AOT_stimuli/pictures/0712_fw.png	129.04495239257812	
19	21.341224193572998	picture	0		99	17.0	/experiments/Knapen_AOT/AOT_stimuli/pictures/0373_fw.png	129.05308723449707	0.8333859443664551
19	22.15807819366455	response	0	k		17.0	/experiments/Knapen_AOT/AOT_stimuli/pictures/0373_fw.png	129.86994123458862	
20	22.174610137939453	picture	0		107	18.0	/experiments/Knapen_AOT/AOT_stimuli/pictures/1575_fw.png	129.88647317886353	0.8999862670898438
20	23.058207273483276	response	0	k		18.0	/experiments/Knapen_AOT/AOT_stimuli/pictures/1575_fw.png	130.77007031440735	
21	23.074596405029297	picture	0		112	19.0	/experiments/Knapen_AOT/AOT_stimuli/pictures/1630_fw.png	130.78645944595337	0.9393565654754639
21	23.9998459815979	response	0	k		19.0	/experiments/Knapen_AOT/AOT_stimuli/pictures/1630_fw.png	131.71170902252197	
22	24.01395297050476	picture	0		95	20.0	/experiments/Knapen_AOT/AOT_stimuli/pictures/1784_fw.png	131.72581601142883	0.7986576557159424
22	24.799798250198364	response	0	k		20.0	/experiments/Knapen_AOT/AOT_stimuli/pictures/1784_fw.png	132.51166129112244	
23	24.812610626220703	picture	0		94	21.0	/experiments/Knapen_AOT/AOT_stimuli/pictures/1097_fw.png	132.52447366714478	0.7846746444702148
23	25.583242177963257	response	0	j		21.0	/experiments/Knapen_AOT/AOT_stimuli/pictures/1097_fw.png	133.29510521888733	
24	25.597285270690918	picture	0		103	22.0	/experiments/Knapen_AOT/AOT_stimuli/pictures/1689_fw.png	133.309148311615	0.8690252304077148
24	26.45014190673828	response	0	k		22.0	/experiments/Knapen_AOT/AOT_stimuli/pictures/1689_fw.png	134.16200494766235	
25	26.466310501098633	picture	0		124	23.0	/experiments/Knapen_AOT/AOT_stimuli/pictures/1718_fw.png	134.1781735420227	1.033759355545044
25	27.491495847702026	response	0	j		23.0	/experiments/Knapen_AOT/AOT_stimuli/pictures/1718_fw.png	135.2033588886261	
26	27.500069856643677	picture	0		101	24.0	/experiments/Knapen_AOT/AOT_stimuli/pictures/1495_fw.png	135.21193289756775	0.8472223281860352
26	28.333244800567627	response	0	k		24.0	/experiments/Knapen_AOT/AOT_stimuli/pictures/1495_fw.png	136.0451078414917	
27	28.347292184829712	picture	0		103	25.0	/experiments/Knapen_AOT/AOT_stimuli/pictures/1376_fw.png	136.05915522575378	0.86905837059021
27	29.199849128723145	response	0	k		25.0	/experiments/Knapen_AOT/AOT_stimuli/pictures/1376_fw.png	136.91171216964722	
28	29.216350555419922	picture	0		103	26.0	/experiments/Knapen_AOT/AOT_stimuli/pictures/1712_fw.png	136.928213596344	0.860100269317627
28	30.06663489341736	response	0	j		26.0	/experiments/Knapen_AOT/AOT_stimuli/pictures/1712_fw.png	137.77849793434143	
29	30.07645082473755	picture	0		96	27.0	/experiments/Knapen_AOT/AOT_stimuli/pictures/1101_fw.png	137.78831386566162	0.7986788749694824
29	30.866539478302002	response	0	j		27.0	/experiments/Knapen_AOT/AOT_stimuli/pictures/1101_fw.png	138.57840251922607	
30	30.87512969970703	picture	0		105	28.0	/experiments/Knapen_AOT/AOT_stimuli/pictures/0620_fw.png	138.5869927406311	0.8749129772186279
30	31.741618156433105	response	0	k		28.0	/experiments/Knapen_AOT/AOT_stimuli/pictures/0620_fw.png	139.45348119735718	
31	31.75004267692566	picture	0		102	29.0	/experiments/Knapen_AOT/AOT_stimuli/pictures/0477_fw.png	139.46190571784973	0.8542449474334717
31	32.591588258743286	response	0	j		29.0	/experiments/Knapen_AOT/AOT_stimuli/pictures/0477_fw.png	140.30345129966736	
32	32.60428762435913	picture	0		103	30.0	/experiments/Knapen_AOT/AOT_stimuli/pictures/1988_fw.png	140.3161506652832	0.8680262565612793
32	33.4582405090332	response	0	k		30.0	/experiments/Knapen_AOT/AOT_stimuli/pictures/1988_fw.png	141.17010354995728	
33	33.47231388092041	picture	0		102	31.0	/experiments/Knapen_AOT/AOT_stimuli/pictures/0819_fw.png	141.18417692184448	0.8607652187347412
33	34.31686210632324	response	0	k		31.0	/experiments/Knapen_AOT/AOT_stimuli/pictures/0819_fw.png	142.02872514724731	
34	34.33307909965515	picture	0		115	32.0	/experiments/Knapen_AOT/AOT_stimuli/pictures/1062_fw.png	142.04494214057922	0.9587690830230713
34	35.276798248291016	response	0	k		32.0	/experiments/Knapen_AOT/AOT_stimuli/pictures/1062_fw.png	142.9886612892151	
35	35.29184818267822	picture	0		106	33.0	/experiments/Knapen_AOT/AOT_stimuli/pictures/2156_fw.png	143.0037112236023	0.8888468742370605
35	36.166658878326416	response	0	k		33.0	/experiments/Knapen_AOT/AOT_stimuli/pictures/2156_fw.png	143.8785219192505	
36	36.18069505691528	picture	0		104	34.0	/experiments/Knapen_AOT/AOT_stimuli/pictures/1909_fw.png	143.89255809783936	0.8750045299530029
36	37.04166507720947	response	0	k		34.0	/experiments/Knapen_AOT/AOT_stimuli/pictures/1909_fw.png	144.75352811813354	
37	37.055699586868286	picture	0		95	35.0	/experiments/Knapen_AOT/AOT_stimuli/pictures/1964_fw.png	144.76756262779236	0.7986047267913818
37	37.84166693687439	response	0	k		35.0	/experiments/Knapen_AOT/AOT_stimuli/pictures/1964_fw.png	145.55352997779846	
38	37.85430431365967	picture	0		105	36.0	/experiments/Knapen_AOT/AOT_stimuli/pictures/0459_fw.png	145.56616735458374	0.8750612735748291
38	38.71663045883179	response	0	k		36.0	/experiments/Knapen_AOT/AOT_stimuli/pictures/0459_fw.png	146.42849349975586	
39	38.7293655872345	picture	0		174	37.0	/experiments/Knapen_AOT/AOT_stimuli/pictures/2015_fw.png	146.44122862815857	1.4512600898742676
39	40.166642904281616	response	0	k		37.0	/experiments/Knapen_AOT/AOT_stimuli/pictures/2015_fw.png	147.8785059452057	
40	40.180625677108765	picture	0		106	38.0	/experiments/Knapen_AOT/AOT_stimuli/pictures/0990_fw.png	147.89248871803284	0.8942475318908691
40	41.05837798118591	response	0	k		38.0	/experiments/Knapen_AOT/AOT_stimuli/pictures/0990_fw.png	148.77024102210999	
41	41.074873208999634	picture	0		109	39.0	/experiments/Knapen_AOT/AOT_stimuli/pictures/2143_fw.png	148.7867362499237	0.9114086627960205
41	41.97504448890686	response	0	k		39.0	/experiments/Knapen_AOT/AOT_stimuli/pictures/2143_fw.png	149.68690752983093	
42	41.986281871795654	picture	0		100	40.0	/experiments/Knapen_AOT/AOT_stimuli/pictures/1211_fw.png	149.69814491271973	0.8385617733001709
42	42.808459520339966	response	0	j		40.0	/experiments/Knapen_AOT/AOT_stimuli/pictures/1211_fw.png	150.52032256126404	
43	42.824843645095825	picture	0		105	41.0	/experiments/Knapen_AOT/AOT_stimuli/pictures/1090_fw.png	150.5367066860199	0.876819372177124
43	43.684391498565674	response	0	j		41.0	/experiments/Knapen_AOT/AOT_stimuli/pictures/1090_fw.png	151.39625453948975	
44	43.70166301727295	picture	0		94	42.0	/experiments/Knapen_AOT/AOT_stimuli/pictures/0675_fw.png	151.41352605819702	0.7898683547973633
44	44.475178241729736	response	0	k		42.0	/experiments/Knapen_AOT/AOT_stimuli/pictures/0675_fw.png	152.1870412826538	
45	44.49153137207031	picture	0		94	43.0	/experiments/Knapen_AOT/AOT_stimuli/pictures/0048_fw.png	152.20339441299438	0.7864444255828857
45	45.26673436164856	response	0	j		43.0	/experiments/Knapen_AOT/AOT_stimuli/pictures/0048_fw.png	152.97859740257263	
46	45.2779757976532	picture	0		107	44.0	/experiments/Knapen_AOT/AOT_stimuli/pictures/1275_fw.png	152.98983883857727	0.8969109058380127
46	46.15863537788391	response	0	k		44.0	/experiments/Knapen_AOT/AOT_stimuli/pictures/1275_fw.png	153.87049841880798	
47	46.17488670349121	picture	0		99	45.0	/experiments/Knapen_AOT/AOT_stimuli/pictures/1654_fw.png	153.88674974441528	0.8252847194671631
47	46.99178171157837	response	0	k		45.0	/experiments/Knapen_AOT/AOT_stimuli/pictures/1654_fw.png	154.70364475250244	
48	47.000171422958374	picture	0		93	46.0	/experiments/Knapen_AOT/AOT_stimuli/pictures/0252_fw.png	154.71203446388245	0.7777888774871826
48	47.76675868034363	response	0	j		46.0	/experiments/Knapen_AOT/AOT_stimuli/pictures/0252_fw.png	155.4786217212677	
49	47.77796030044556	picture	0		108	47.0	/experiments/Knapen_AOT/AOT_stimuli/pictures/1213_fw.png	155.48982334136963	0.9028069972991943
49	48.66681981086731	response	0	k		47.0	/experiments/Knapen_AOT/AOT_stimuli/pictures/1213_fw.png	156.37868285179138	
50	48.68076729774475	picture	0		96	48.0	/experiments/Knapen_AOT/AOT_stimuli/pictures/0658_fw.png	156.39263033866882	0.8056049346923828
50	49.47514462471008	response	0	j		48.0	/experiments/Knapen_AOT/AOT_stimuli/pictures/0658_fw.png	157.18700766563416	
51	49.486372232437134	picture	0		106	49.0	/experiments/Knapen_AOT/AOT_stimuli/pictures/1493_fw.png	157.1982352733612	0.8819231986999512
51	50.358535289764404	response	0	j		49.0	/experiments/Knapen_AOT/AOT_stimuli/pictures/1493_fw.png	158.07039833068848	
52	50.368295431137085	picture	0		139	50.0	/experiments/Knapen_AOT/AOT_stimuli/pictures/1502_fw.png	158.08015847206116	1.15972900390625
52	51.5168035030365	response	0	k		50.0	/experiments/Knapen_AOT/AOT_stimuli/pictures/1502_fw.png	159.22866654396057	
53	51.528024435043335	picture	0		101	51.0	/experiments/Knapen_AOT/AOT_stimuli/pictures/1574_fw.png	159.2398874759674	0.8469562530517578
53	52.358808279037476	response	0	k		51.0	/experiments/Knapen_AOT/AOT_stimuli/pictures/1574_fw.png	160.07067131996155	
54	52.37498068809509	picture	0		95	52.0	/experiments/Knapen_AOT/AOT_stimuli/pictures/1074_fw.png	160.08684372901917	0.7919173240661621
54	53.158496618270874	response	0	j		52.0	/experiments/Knapen_AOT/AOT_stimuli/pictures/1074_fw.png	160.87035965919495	
55	53.166898012161255	picture	0		87	53.0	/experiments/Knapen_AOT/AOT_stimuli/pictures/1941_fw.png	160.87876105308533	0.7292087078094482
55	53.88358449935913	response	0	j		53.0	/experiments/Knapen_AOT/AOT_stimuli/pictures/1941_fw.png	161.5954475402832	
56	53.8961067199707	picture	0		121	54.0	/experiments/Knapen_AOT/AOT_stimuli/pictures/0088_fw.png	161.60796976089478	1.0069456100463867
56	54.88436698913574	response	0	k		54.0	/experiments/Knapen_AOT/AOT_stimuli/pictures/0088_fw.png	162.59623003005981	
57	54.90305233001709	picture	0		91	55.0	/experiments/Knapen_AOT/AOT_stimuli/pictures/1780_fw.png	162.61491537094116	0.7569119930267334
57	55.65031099319458	response	0	j		55.0	/experiments/Knapen_AOT/AOT_stimuli/pictures/1780_fw.png	163.36217403411865	
58	55.65996432304382	picture	0		106	56.0	/experiments/Knapen_AOT/AOT_stimuli/pictures/1930_fw.png	163.3718273639679	0.8819680213928223
58	56.53358507156372	response	0	k		56.0	/experiments/Knapen_AOT/AOT_stimuli/pictures/1930_fw.png	164.2454481124878	
59	56.541932344436646	picture	0		103	57.0	/experiments/Knapen_AOT/AOT_stimuli/pictures/1398_fw.png	164.25379538536072	0.8611280918121338
59	57.391921520233154	response	0	k		57.0	/experiments/Knapen_AOT/AOT_stimuli/pictures/1398_fw.png	165.10378456115723	
60	57.40306043624878	picture	0		115	58.0	/experiments/Knapen_AOT/AOT_stimuli/pictures/1781_fw.png	165.11492347717285	0.9583137035369873
60	58.350253105163574	response	0	k		58.0	/experiments/Knapen_AOT/AOT_stimuli/pictures/1781_fw.png	166.06211614608765	
61	58.36137413978577	picture	0		116	59.0	/experiments/Knapen_AOT/AOT_stimuli/pictures/0184_fw.png	166.07323718070984	0.9653043746948242
61	59.316943645477295	response	0	k		59.0	/experiments/Knapen_AOT/AOT_stimuli/pictures/0184_fw.png	167.02880668640137	
62	59.32667851448059	picture	0		109	60.0	/experiments/Knapen_AOT/AOT_stimuli/pictures/0463_fw.png	167.03854155540466	0.9098076820373535
62	60.225273847579956	response	0	k		60.0	/experiments/Knapen_AOT/AOT_stimuli/pictures/0463_fw.png	167.93713688850403	
63	60.236486196517944	picture	0		104	61.0	/experiments/Knapen_AOT/AOT_stimuli/pictures/1513_fw.png	167.94834923744202	0.8680431842803955
63	61.0853910446167	response	0	j		61.0	/experiments/Knapen_AOT/AOT_stimuli/pictures/1513_fw.png	168.79725408554077	
64	61.10452938079834	picture	0		131	62.0	/experiments/Knapen_AOT/AOT_stimuli/pictures/0336_fw.png	168.8163924217224	1.0955913066864014
64	62.18371629714966	response	0	j		62.0	/experiments/Knapen_AOT/AOT_stimuli/pictures/0336_fw.png	169.89557933807373	
65	62.20012068748474	picture	0		96	63.0	/experiments/Knapen_AOT/AOT_stimuli/pictures/1246_fw.png	169.9119837284088	0.8083102703094482
65	62.992268562316895	response	0	j		63.0	/experiments/Knapen_AOT/AOT_stimuli/pictures/1246_fw.png	170.70413160324097	
66	63.00843095779419	picture	0		102	64.0	/experiments/Knapen_AOT/AOT_stimuli/pictures/0638_fw.png	170.72029399871826	0.8584070205688477
66	63.85043549537659	response	0	j		64.0	/experiments/Knapen_AOT/AOT_stimuli/pictures/0638_fw.png	171.56229853630066	
67	63.86683797836304	picture	0		100	65.0	/experiments/Knapen_AOT/AOT_stimuli/pictures/0472_fw.png	171.5787010192871	0.8418428897857666
67	64.68523073196411	response	0	j		65.0	/experiments/Knapen_AOT/AOT_stimuli/pictures/0472_fw.png	172.39709377288818	
68	64.7086808681488	picture	0		103	66.0	/experiments/Knapen_AOT/AOT_stimuli/pictures/1507_fw.png	172.42054390907288	0.8610858917236328
68	65.55869841575623	response	0	k		66.0	/experiments/Knapen_AOT/AOT_stimuli/pictures/1507_fw.png	173.2705614566803	
69	65.56976675987244	picture	0		103	67.0	/experiments/Knapen_AOT/AOT_stimuli/pictures/1524_fw.png	173.2816298007965	0.861152172088623
69	66.41702961921692	response	0	k		67.0	/experiments/Knapen_AOT/AOT_stimuli/pictures/1524_fw.png	174.128892660141	
70	66.43091893196106	picture	0		97	68.0	/experiments/Knapen_AOT/AOT_stimuli/pictures/0707_fw.png	174.14278197288513	0.8124983310699463
70	67.2337429523468	response	0	k		68.0	/experiments/Knapen_AOT/AOT_stimuli/pictures/0707_fw.png	174.94560599327087	
71	67.243417263031	picture	0		95	69.0	/experiments/Knapen_AOT/AOT_stimuli/pictures/1676_fw.png	174.95528030395508	0.7916879653930664
71	68.0253529548645	response	0	j		69.0	/experiments/Knapen_AOT/AOT_stimuli/pictures/1676_fw.png	175.73721599578857	
72	68.03510522842407	picture	0		105	70.0	/experiments/Knapen_AOT/AOT_stimuli/pictures/1254_fw.png	175.74696826934814	0.8749804496765137
72	68.89279055595398	response	0	k		70.0	/experiments/Knapen_AOT/AOT_stimuli/pictures/1254_fw.png	176.60465359687805	
73	68.91008567810059	picture	0		98	71.0	/experiments/Knapen_AOT/AOT_stimuli/pictures/0330_fw.png	176.62194871902466	0.8194270133972168
73	69.71708703041077	response	0	j		71.0	/experiments/Knapen_AOT/AOT_stimuli/pictures/0330_fw.png	177.42895007133484	
74	69.7295126914978	picture	0		95	72.0	/experiments/Knapen_AOT/AOT_stimuli/pictures/0229_fw.png	177.44137573242188	0.7916877269744873
74	70.50872993469238	response	0	k		72.0	/experiments/Knapen_AOT/AOT_stimuli/pictures/0229_fw.png	178.22059297561646	
75	70.52120041847229	picture	0		93	73.0	/experiments/Knapen_AOT/AOT_stimuli/pictures/0807_fw.png	178.23306345939636	0.7873532772064209
75	71.29227757453918	response	0	k		73.0	/experiments/Knapen_AOT/AOT_stimuli/pictures/0807_fw.png	179.00414061546326	
76	71.30855369567871	picture	0		95	74.0	/experiments/Knapen_AOT/AOT_stimuli/pictures/0007_fw.png	179.02041673660278	0.7960550785064697
76	72.09234666824341	response	0	k		74.0	/experiments/Knapen_AOT/AOT_stimuli/pictures/0007_fw.png	179.80420970916748	
77	72.10460877418518	picture	0		96	75.0	/experiments/Knapen_AOT/AOT_stimuli/pictures/0467_fw.png	179.81647181510925	0.8039963245391846
77	72.88443517684937	response	0	j		75.0	/experiments/Knapen_AOT/AOT_stimuli/pictures/0467_fw.png	180.59629821777344	
78	72.90860509872437	picture	0		96	76.0	/experiments/Knapen_AOT/AOT_stimuli/pictures/2032_fw.png	180.62046813964844	0.800100564956665
78	73.69311547279358	response	0	j		76.0	/experiments/Knapen_AOT/AOT_stimuli/pictures/2032_fw.png	181.40497851371765	
79	73.70870566368103	picture	0		95	77.0	/experiments/Knapen_AOT/AOT_stimuli/pictures/2140_fw.png	181.4205687046051	0.7917511463165283
79	74.48476886749268	response	0	j		77.0	/experiments/Knapen_AOT/AOT_stimuli/pictures/2140_fw.png	182.19663190841675	
80	74.50045680999756	picture	0		126	78.0	/experiments/Knapen_AOT/AOT_stimuli/pictures/1315_fw.png	182.21231985092163	1.0555455684661865
80	75.54211401939392	response	0	k		78.0	/experiments/Knapen_AOT/AOT_stimuli/pictures/1315_fw.png	183.253977060318	
81	75.55600237846375	picture	0		146	79.0	/experiments/Knapen_AOT/AOT_stimuli/pictures/1771_fw.png	183.26786541938782	1.2276124954223633
81	76.76717209815979	response	0	j		79.0	/experiments/Knapen_AOT/AOT_stimuli/pictures/1771_fw.png	184.47903513908386	
82	76.78361487388611	picture	0		94	80.0	/experiments/Knapen_AOT/AOT_stimuli/pictures/0078_fw.png	184.49547791481018	0.7862820625305176
82	77.55884027481079	response	0	k		80.0	/experiments/Knapen_AOT/AOT_stimuli/pictures/0078_fw.png	185.27070331573486	
83	77.56989693641663	picture	0		88	81.0	/experiments/Knapen_AOT/AOT_stimuli/pictures/2174_fw.png	185.2817599773407	0.7387263774871826
83	78.2845664024353	response	0	j		81.0	/experiments/Knapen_AOT/AOT_stimuli/pictures/2174_fw.png	185.99642944335938	
84	78.30862331390381	picture	0		133	82.0	/experiments/Knapen_AOT/AOT_stimuli/pictures/0216_fw.png	186.02048635482788	1.1084907054901123
84	79.40880918502808	response	0	j		82.0	/experiments/Knapen_AOT/AOT_stimuli/pictures/0216_fw.png	187.12067222595215	
85	79.41711401939392	picture	0		176	83.0	/experiments/Knapen_AOT/AOT_stimuli/pictures/1548_fw.png	187.128977060318	1.472156286239624
85	80.87558197975159	response	0	k		83.0	/experiments/Knapen_AOT/AOT_stimuli/pictures/1548_fw.png	188.58744502067566	
86	80.88927030563354	picture	0		137	84.0	/experiments/Knapen_AOT/AOT_stimuli/pictures/0466_fw.png	188.60113334655762	1.152754783630371
86	82.02553653717041	response	0	k		84.0	/experiments/Knapen_AOT/AOT_stimuli/pictures/0466_fw.png	189.73739957809448	
87	82.04202508926392	picture	0		106	85.0	/experiments/Knapen_AOT/AOT_stimuli/pictures/1173_fw.png	189.753888130188	0.888991117477417
87	82.91734647750854	response	0	j		85.0	/experiments/Knapen_AOT/AOT_stimuli/pictures/1173_fw.png	190.62920951843262	
88	82.93101620674133	picture	0		95	86.0	/experiments/Knapen_AOT/AOT_stimuli/pictures/1525_fw.png	190.6428792476654	0.7986226081848145
88	83.71724557876587	response	0	j		86.0	/experiments/Knapen_AOT/AOT_stimuli/pictures/1525_fw.png	191.42910861968994	
89	83.72963881492615	picture	0		103	87.0	/experiments/Knapen_AOT/AOT_stimuli/pictures/1706_fw.png	191.44150185585022	0.8542275428771973
89	84.57556247711182	response	0	j		87.0	/experiments/Knapen_AOT/AOT_stimuli/pictures/1706_fw.png	192.2874255180359	
90	84.58386635780334	picture	0		94	88.0	/experiments/Knapen_AOT/AOT_stimuli/pictures/0285_fw.png	192.29572939872742	0.7916994094848633
90	85.35902166366577	response	0	j		88.0	/experiments/Knapen_AOT/AOT_stimuli/pictures/0285_fw.png	193.07088470458984	
91	85.37556576728821	picture	0		93	89.0	/experiments/Knapen_AOT/AOT_stimuli/pictures/1216_fw.png	193.08742880821228	0.7776615619659424
91	86.1422758102417	response	0	k		89.0	/experiments/Knapen_AOT/AOT_stimuli/pictures/1216_fw.png	193.85413885116577	
92	86.15322732925415	picture	0		107	90.0	/experiments/Knapen_AOT/AOT_stimuli/pictures/1107_fw.png	193.86509037017822	0.8971753120422363
92	87.03393864631653	response	0	k		90.0	/experiments/Knapen_AOT/AOT_stimuli/pictures/1107_fw.png	194.7458016872406	
93	87.05040264129639	picture	0		107	91.0	/experiments/Knapen_AOT/AOT_stimuli/pictures/1165_fw.png	194.76226568222046	0.9000022411346436
93	87.93423748016357	response	0	k		91.0	/experiments/Knapen_AOT/AOT_stimuli/pictures/1165_fw.png	195.64610052108765	
94	87.95040488243103	picture	0		113	92.0	/experiments/Knapen_AOT/AOT_stimuli/pictures/0086_fw.png	195.6622679233551	0.9583606719970703
94	88.87658953666687	response	0	k		92.0	/experiments/Knapen_AOT/AOT_stimuli/pictures/0086_fw.png	196.58845257759094	
95	88.9087655544281	picture	0		96	93.0	/experiments/Knapen_AOT/AOT_stimuli/pictures/0120_fw.png	196.62062859535217	0.8000595569610596
95	89.70060658454895	response	0	j		93.0	/experiments/Knapen_AOT/AOT_stimuli/pictures/0120_fw.png	197.41246962547302	
96	89.70882511138916	picture	0		100	94.0	/experiments/Knapen_AOT/AOT_stimuli/pictures/1638_fw.png	197.42068815231323	0.8416564464569092
96	90.53402519226074	response	0	j		94.0	/experiments/Knapen_AOT/AOT_stimuli/pictures/1638_fw.png	198.24588823318481	
97	90.55048155784607	picture	0		97	95.0	/experiments/Knapen_AOT/AOT_stimuli/pictures/0272_fw.png	198.26234459877014	0.811145544052124
97	91.35070300102234	response	0	j		95.0	/experiments/Knapen_AOT/AOT_stimuli/pictures/0272_fw.png	199.0625660419464	
98	91.3616271018982	picture	0		94	96.0	/experiments/Knapen_AOT/AOT_stimuli/pictures/1021_fw.png	199.07349014282227	0.7847223281860352
98	92.13398385047913	response	0	k		96.0	/experiments/Knapen_AOT/AOT_stimuli/pictures/1021_fw.png	199.8458468914032	
99	92.14634943008423	picture	0		110	97.0	/experiments/Knapen_AOT/AOT_stimuli/pictures/1079_fw.png	199.8582124710083	0.9166560173034668
99	93.05067014694214	response	0	k		97.0	/experiments/Knapen_AOT/AOT_stimuli/pictures/1079_fw.png	200.7625331878662	
100	93.0630054473877	picture	0		101	98.0	/experiments/Knapen_AOT/AOT_stimuli/pictures/2131_fw.png	200.77486848831177	0.8403623104095459
100	93.88479351997375	response	0	k		98.0	/experiments/Knapen_AOT/AOT_stimuli/pictures/2131_fw.png	201.59665656089783	
101	93.90336775779724	picture	0		101	99.0	/experiments/Knapen_AOT/AOT_stimuli/pictures/2175_fw.png	201.6152307987213	0.8402318954467773
101	94.73410296440125	response	0	j		99.0	/experiments/Knapen_AOT/AOT_stimuli/pictures/2175_fw.png	202.44596600532532	
102	94.74359965324402	picture	0		107	100.0	/experiments/Knapen_AOT/AOT_stimuli/pictures/0296_fw.png	202.4554626941681	0.8958909511566162
102	95.62587475776672	response	0	k		100.0	/experiments/Knapen_AOT/AOT_stimuli/pictures/0296_fw.png	203.3377377986908	
103	95.63949060440063	picture	0		104	101.0	/experiments/Knapen_AOT/AOT_stimuli/pictures/0762_fw.png	203.3513536453247	0.87496018409729
103	96.50080275535583	response	0	j		101.0	/experiments/Knapen_AOT/AOT_stimuli/pictures/0762_fw.png	204.2126657962799	
104	96.51445078849792	picture	0		107	102.0	/experiments/Knapen_AOT/AOT_stimuli/pictures/1914_fw.png	204.226313829422	0.8958401679992676
104	97.40075469017029	response	0	j		102.0	/experiments/Knapen_AOT/AOT_stimuli/pictures/1914_fw.png	205.11261773109436	
105	97.41029095649719	picture	0		104	103.0	/experiments/Knapen_AOT/AOT_stimuli/pictures/2008_fw.png	205.12215399742126	0.8735790252685547
105	98.26758217811584	response	0	j		103.0	/experiments/Knapen_AOT/AOT_stimuli/pictures/2008_fw.png	205.97944521903992	
106	98.28386998176575	picture	0		97	104.0	/experiments/Knapen_AOT/AOT_stimuli/pictures/0774_fw.png	205.99573302268982	0.8139276504516602
106	99.0766773223877	response	0	j		104.0	/experiments/Knapen_AOT/AOT_stimuli/pictures/0774_fw.png	206.78854036331177	
107	99.09779763221741	picture	0		125	105.0	/experiments/Knapen_AOT/AOT_stimuli/pictures/0905_fw.png	206.80966067314148	1.0528295040130615
107	100.13407182693481	response	0	k		105.0	/experiments/Knapen_AOT/AOT_stimuli/pictures/0905_fw.png	207.8459348678589	
108	100.15062713623047	picture	0		122	106.0	/experiments/Knapen_AOT/AOT_stimuli/pictures/1026_fw.png	207.86249017715454	1.0166523456573486
108	101.15909504890442	response	0	k		106.0	/experiments/Knapen_AOT/AOT_stimuli/pictures/1026_fw.png	208.8709580898285	
109	101.16727948188782	picture	0		101	107.0	/experiments/Knapen_AOT/AOT_stimuli/pictures/1145_fw.png	208.8791425228119	0.8472063541412354
109	102.00086402893066	response	0	j		107.0	/experiments/Knapen_AOT/AOT_stimuli/pictures/1145_fw.png	209.71272706985474	
110	102.01448583602905	picture	0		109	108.0	/experiments/Knapen_AOT/AOT_stimuli/pictures/1908_fw.png	209.72634887695312	0.9166584014892578
110	102.91769075393677	response	0	j		108.0	/experiments/Knapen_AOT/AOT_stimuli/pictures/1908_fw.png	210.62955379486084	
111	102.93114423751831	picture	0		106	109.0	/experiments/Knapen_AOT/AOT_stimuli/pictures/0500_fw.png	210.64300727844238	0.888946533203125
111	103.8091344833374	response	0	k		109.0	/experiments/Knapen_AOT/AOT_stimuli/pictures/0500_fw.png	211.52099752426147	
112	103.82009077072144	picture	0		97	110.0	/experiments/Knapen_AOT/AOT_stimuli/pictures/1127_fw.png	211.5319538116455	0.8138566017150879
112	104.61759662628174	response	0	j		110.0	/experiments/Knapen_AOT/AOT_stimuli/pictures/1127_fw.png	212.3294596672058	
113	104.63394737243652	picture	0		105	111.0	/experiments/Knapen_AOT/AOT_stimuli/pictures/2058_fw.png	212.3458104133606	0.8805601596832275
113	105.500892162323	response	0	k		111.0	/experiments/Knapen_AOT/AOT_stimuli/pictures/2058_fw.png	213.21275520324707	
114	105.51450753211975	picture	0		101	112.0	/experiments/Knapen_AOT/AOT_stimuli/pictures/2053_fw.png	213.22637057304382	0.8528232574462891
114	106.35085773468018	response	0	k		112.0	/experiments/Knapen_AOT/AOT_stimuli/pictures/2053_fw.png	214.06272077560425	
115	106.36733078956604	picture	0		91	113.0	/experiments/Knapen_AOT/AOT_stimuli/pictures/1212_fw.png	214.0791938304901	0.7666621208190918
115	107.11751937866211	response	0	j		113.0	/experiments/Knapen_AOT/AOT_stimuli/pictures/1212_fw.png	214.82938241958618	
116	107.13399291038513	picture	0		107	114.0	/experiments/Knapen_AOT/AOT_stimuli/pictures/0258_fw.png	214.8458559513092	0.8944008350372314
116	108.01754522323608	response	0	k		114.0	/experiments/Knapen_AOT/AOT_stimuli/pictures/0258_fw.png	215.72940826416016	
117	108.02839374542236	picture	0		102	115.0	/experiments/Knapen_AOT/AOT_stimuli/pictures/0543_fw.png	215.74025678634644	0.8473715782165527
117	108.86047601699829	response	0	k		115.0	/experiments/Knapen_AOT/AOT_stimuli/pictures/0543_fw.png	216.57233905792236	
118	108.87576532363892	picture	0		98	116.0	/experiments/Knapen_AOT/AOT_stimuli/pictures/0812_fw.png	216.587628364563	0.8249592781066895
118	109.68458890914917	response	0	j		116.0	/experiments/Knapen_AOT/AOT_stimuli/pictures/0812_fw.png	217.39645195007324	
119	109.7007246017456	picture	0		99	117.0	/experiments/Knapen_AOT/AOT_stimuli/pictures/0734_fw.png	217.41258764266968	0.8277478218078613
119	110.51757836341858	response	0	k		117.0	/experiments/Knapen_AOT/AOT_stimuli/pictures/0734_fw.png	218.22944140434265	
120	110.52847242355347	picture	0		96	118.0	/experiments/Knapen_AOT/AOT_stimuli/pictures/1626_fw.png	218.24033546447754	0.7985529899597168
120	111.31761288642883	response	0	j		118.0	/experiments/Knapen_AOT/AOT_stimuli/pictures/1626_fw.png	219.0294759273529	
121	111.32702541351318	picture	0		104	119.0	/experiments/Knapen_AOT/AOT_stimuli/pictures/1314_fw.png	219.03888845443726	0.8736786842346191
121	112.18424558639526	response	0	j		119.0	/experiments/Knapen_AOT/AOT_stimuli/pictures/1314_fw.png	219.89610862731934	
122	112.2007040977478	picture	0		100	120.0	/experiments/Knapen_AOT/AOT_stimuli/pictures/1209_fw.png	219.91256713867188	0.834667444229126
122	113.02602219581604	response	0	k		120.0	/experiments/Knapen_AOT/AOT_stimuli/pictures/1209_fw.png	220.7378852367401	
123	113.03537154197693	picture	0		92	121.0	/experiments/Knapen_AOT/AOT_stimuli/pictures/2125_fw.png	220.747234582901	0.7737417221069336
123	113.79262709617615	response	0	k		121.0	/experiments/Knapen_AOT/AOT_stimuli/pictures/2125_fw.png	221.50449013710022	
124	113.80911326408386	picture	0		96	122.0	/experiments/Knapen_AOT/AOT_stimuli/pictures/1086_fw.png	221.52097630500793	0.8027000427246094
124	114.60096025466919	response	0	j		122.0	/experiments/Knapen_AOT/AOT_stimuli/pictures/1086_fw.png	222.31282329559326	
125	114.61181330680847	picture	0		99	123.0	/experiments/Knapen_AOT/AOT_stimuli/pictures/0848_fw.png	222.32367634773254	0.8263974189758301
125	115.42596364021301	response	0	j		123.0	/experiments/Knapen_AOT/AOT_stimuli/pictures/0848_fw.png	223.13782668113708	
126	115.4382107257843	picture	0		121	124.0	/experiments/Knapen_AOT/AOT_stimuli/pictures/0924_fw.png	223.15007376670837	1.006965160369873
126	116.4342679977417	response	0	j		124.0	/experiments/Knapen_AOT/AOT_stimuli/pictures/0924_fw.png	224.14613103866577	
127	116.44517588615417	picture	0		108	125.0	/experiments/Knapen_AOT/AOT_stimuli/pictures/1986_fw.png	224.15703892707825	0.9027237892150879
127	117.33423852920532	response	0	k		125.0	/experiments/Knapen_AOT/AOT_stimuli/pictures/1986_fw.png	225.0461015701294	
128	117.34789967536926	picture	0		207	126.0	/experiments/Knapen_AOT/AOT_stimuli/pictures/1451_fw.png	225.05976271629333	1.7290923595428467
128	119.06765580177307	response	0	j		126.0	/experiments/Knapen_AOT/AOT_stimuli/pictures/1451_fw.png	226.77951884269714	
129	119.07699203491211	picture	0		90	127.0	/experiments/Knapen_AOT/AOT_stimuli/pictures/1795_fw.png	226.78885507583618	0.7571558952331543
129	119.81779503822327	response	0	j		127.0	/experiments/Knapen_AOT/AOT_stimuli/pictures/1795_fw.png	227.52965807914734	
130	119.83414793014526	picture	0		105	128.0	/experiments/Knapen_AOT/AOT_stimuli/pictures/1430_fw.png	227.54601097106934	0.8833394050598145
130	120.70101308822632	response	0	j		128.0	/experiments/Knapen_AOT/AOT_stimuli/pictures/1430_fw.png	228.4128761291504	
131	120.71748733520508	picture	0		93	129.0	/experiments/Knapen_AOT/AOT_stimuli/pictures/0141_fw.png	228.42935037612915	0.7763171195983887
131	121.47723174095154	response	0	j		129.0	/experiments/Knapen_AOT/AOT_stimuli/pictures/0141_fw.png	229.1890947818756	
132	121.49380445480347	picture	0		272	130.0	/experiments/Knapen_AOT/AOT_stimuli/pictures/1298_fw.png	229.20566749572754	2.270749568939209
132	123.75103974342346	response	0	k		130.0	/experiments/Knapen_AOT/AOT_stimuli/pictures/1298_fw.png	231.46290278434753	
133	123.76455402374268	picture	0		100	131.0	/experiments/Knapen_AOT/AOT_stimuli/pictures/0821_fw.png	231.47641706466675	0.8446712493896484
133	124.59294819831848	response	0	k		131.0	/experiments/Knapen_AOT/AOT_stimuli/pictures/0821_fw.png	232.30481123924255	
134	124.60922527313232	picture	0		89	132.0	/experiments/Knapen_AOT/AOT_stimuli/pictures/0721_fw.png	232.3210883140564	0.7456891536712646
134	125.3427665233612	response	0	k		132.0	/experiments/Knapen_AOT/AOT_stimuli/pictures/0721_fw.png	233.05462956428528	
135	125.35491442680359	picture	0		96	133.0	/experiments/Knapen_AOT/AOT_stimuli/pictures/1436_fw.png	233.06677746772766	0.7987494468688965
135	126.14277672767639	response	0	k		133.0	/experiments/Knapen_AOT/AOT_stimuli/pictures/1436_fw.png	233.85463976860046	
136	126.15366387367249	picture	0		102	134.0	/experiments/Knapen_AOT/AOT_stimuli/pictures/2129_fw.png	233.86552691459656	0.8555736541748047
136	126.99272727966309	response	0	j		134.0	/experiments/Knapen_AOT/AOT_stimuli/pictures/2129_fw.png	234.70459032058716	
137	127.00923752784729	picture	0		107	135.0	/experiments/Knapen_AOT/AOT_stimuli/pictures/0766_fw.png	234.72110056877136	0.8943405151367188
137	127.89280581474304	response	0	j		135.0	/experiments/Knapen_AOT/AOT_stimuli/pictures/0766_fw.png	235.60466885566711	
138	127.90357804298401	picture	0		95	136.0	/experiments/Knapen_AOT/AOT_stimuli/pictures/0641_fw.png	235.61544108390808	0.797360897064209
138	128.677020072937	response	0	j		136.0	/experiments/Knapen_AOT/AOT_stimuli/pictures/0641_fw.png	236.38888311386108	
139	128.70093894004822	picture	0		118	137.0	/experiments/Knapen_AOT/AOT_stimuli/pictures/1993_fw.png	236.4128019809723	0.9873301982879639
139	129.66848969459534	response	0	j		137.0	/experiments/Knapen_AOT/AOT_stimuli/pictures/1993_fw.png	237.3803527355194	
140	129.68826913833618	picture	0		143	138.0	/experiments/Knapen_AOT/AOT_stimuli/pictures/1053_fw.png	237.40013217926025	1.1876485347747803
140	130.86780977249146	response	0	j		138.0	/experiments/Knapen_AOT/AOT_stimuli/pictures/1053_fw.png	238.57967281341553	
141	130.87591767311096	picture	0		113	139.0	/experiments/Knapen_AOT/AOT_stimuli/pictures/1147_fw.png	238.58778071403503	0.9500565528869629
141	131.8095347881317	response	0	k		139.0	/experiments/Knapen_AOT/AOT_stimuli/pictures/1147_fw.png	239.5213978290558	
142	131.82597422599792	picture	0		111	140.0	/experiments/Knapen_AOT/AOT_stimuli/pictures/1987_fw.png	239.537837266922	0.9249694347381592
142	132.742817401886	response	0	j		140.0	/experiments/Knapen_AOT/AOT_stimuli/pictures/1987_fw.png	240.45468044281006	
143	132.75094366073608	picture	0		105	141.0	/experiments/Knapen_AOT/AOT_stimuli/pictures/0691_fw.png	240.46280670166016	0.8833625316619873
143	133.6178731918335	response	0	j		141.0	/experiments/Knapen_AOT/AOT_stimuli/pictures/0691_fw.png	241.32973623275757	
144	133.63430619239807	picture	0		119	142.0	/experiments/Knapen_AOT/AOT_stimuli/pictures/1186_fw.png	241.34616923332214	1.0000121593475342
144	134.6181299686432	response	0	k		142.0	/experiments/Knapen_AOT/AOT_stimuli/pictures/1186_fw.png	242.32999300956726	
145	134.6343183517456	picture	0		151	143.0	/experiments/Knapen_AOT/AOT_stimuli/pictures/0316_fw.png	242.34618139266968	1.2624318599700928
145	135.87692213058472	response	0	k		143.0	/experiments/Knapen_AOT/AOT_stimuli/pictures/0316_fw.png	243.5887851715088	
146	135.8967502117157	picture	0		90	144.0	/experiments/Knapen_AOT/AOT_stimuli/pictures/0146_fw.png	243.60861325263977	0.7499709129333496
146	136.63456344604492	response	0	j		144.0	/experiments/Knapen_AOT/AOT_stimuli/pictures/0146_fw.png	244.346426486969	
147	136.64672112464905	picture	0		91	145.0	/experiments/Knapen_AOT/AOT_stimuli/pictures/0809_fw.png	244.35858416557312	0.7626614570617676
147	137.39302682876587	response	0	j		145.0	/experiments/Knapen_AOT/AOT_stimuli/pictures/0809_fw.png	245.10488986968994	
148	137.40938258171082	picture	0		108	146.0	/experiments/Knapen_AOT/AOT_stimuli/pictures/0617_fw.png	245.1212456226349	0.9039702415466309
148	138.30124378204346	response	0	k		146.0	/experiments/Knapen_AOT/AOT_stimuli/pictures/0617_fw.png	246.01310682296753	
149	138.31335282325745	picture	0		104	147.0	/experiments/Knapen_AOT/AOT_stimuli/pictures/0823_fw.png	246.02521586418152	0.8680658340454102
149	139.16797351837158	response	0	j		147.0	/experiments/Knapen_AOT/AOT_stimuli/pictures/0823_fw.png	246.87983655929565	
150	139.18141865730286	picture	0		122	148.0	/experiments/Knapen_AOT/AOT_stimuli/pictures/0082_fw.png	246.89328169822693	1.0209894180297852
150	140.19302248954773	response	0	j		148.0	/experiments/Knapen_AOT/AOT_stimuli/pictures/0082_fw.png	247.9048855304718	
151	140.20240807533264	picture	0		93	149.0	/experiments/Knapen_AOT/AOT_stimuli/pictures/0514_fw.png	247.9142711162567	0.777637243270874
151	140.96798992156982	response	0	k		149.0	/experiments/Knapen_AOT/AOT_stimuli/pictures/0514_fw.png	248.6798529624939	
152	140.98004531860352	picture	0		99	150.0	/experiments/Knapen_AOT/AOT_stimuli/pictures/0718_fw.png	248.6919083595276	0.8264009952545166
152	141.79291820526123	response	0	k		150.0	/experiments/Knapen_AOT/AOT_stimuli/pictures/0718_fw.png	249.5047812461853	
153	141.80644631385803	picture	0		107	151.0	/experiments/Knapen_AOT/AOT_stimuli/pictures/1803_fw.png	249.5183093547821	0.8959524631500244
153	142.69297432899475	response	0	k		151.0	/experiments/Knapen_AOT/AOT_stimuli/pictures/1803_fw.png	250.40483736991882	
154	142.70239877700806	picture	0		204	152.0	/experiments/Knapen_AOT/AOT_stimuli/pictures/2065_fw.png	250.41426181793213	1.707066297531128
154	144.39296531677246	response	0	k		152.0	/experiments/Knapen_AOT/AOT_stimuli/pictures/2065_fw.png	252.10482835769653	
155	144.40946507453918	picture	0		91	153.0	/experiments/Knapen_AOT/AOT_stimuli/pictures/0729_fw.png	252.12132811546326	0.765078067779541
155	145.15975785255432	response	0	j		153.0	/experiments/Knapen_AOT/AOT_stimuli/pictures/0729_fw.png	252.8716208934784	
156	145.17454314231873	picture	0		194	154.0	/experiments/Knapen_AOT/AOT_stimuli/pictures/0203_fw.png	252.8864061832428	1.6182479858398438
156	146.78469371795654	response	0	j		154.0	/experiments/Knapen_AOT/AOT_stimuli/pictures/0203_fw.png	254.49655675888062	
157	146.79279112815857	picture	0		149	155.0	/experiments/Knapen_AOT/AOT_stimuli/pictures/0772_fw.png	254.50465416908264	1.2428443431854248
157	148.02638339996338	response	0	k		155.0	/experiments/Knapen_AOT/AOT_stimuli/pictures/0772_fw.png	255.73824644088745	
158	148.035635471344	picture	0		135	156.0	/experiments/Knapen_AOT/AOT_stimuli/pictures/1478_fw.png	255.74749851226807	1.1322216987609863
158	149.1516125202179	response	0	j		156.0	/experiments/Knapen_AOT/AOT_stimuli/pictures/1478_fw.png	256.86347556114197	
159	149.16785717010498	picture	0		106	157.0	/experiments/Knapen_AOT/AOT_stimuli/pictures/0676_fw.png	256.87972021102905	0.8886497020721436
159	150.04303669929504	response	0	k		157.0	/experiments/Knapen_AOT/AOT_stimuli/pictures/0676_fw.png	257.7548997402191	
160	150.05650687217712	picture	0		91	158.0	/experiments/Knapen_AOT/AOT_stimuli/pictures/1242_fw.png	257.7683699131012	0.769716739654541
160	150.80978751182556	response	0	k		158.0	/experiments/Knapen_AOT/AOT_stimuli/pictures/1242_fw.png	258.52165055274963	
161	150.82622361183167	picture	0		93	159.0	/experiments/Knapen_AOT/AOT_stimuli/pictures/0816_fw.png	258.53808665275574	0.7833335399627686
161	151.5930528640747	response	0	k		159.0	/experiments/Knapen_AOT/AOT_stimuli/pictures/0816_fw.png	259.3049159049988	
162	151.60955715179443	picture	0		87	160.0	/experiments/Knapen_AOT/AOT_stimuli/pictures/1156_fw.png	259.3214201927185	0.7249548435211182
162	152.32642078399658	response	0	j		160.0	/experiments/Knapen_AOT/AOT_stimuli/pictures/1156_fw.png	260.03828382492065	
163	152.33451199531555	picture	0		74	161.0	/experiments/Knapen_AOT/AOT_stimuli/pictures/1515_fw.png	260.0463750362396	0.7500035762786865
163	153.0691637992859	response	0	j		161.0	/experiments/Knapen_AOT/AOT_stimuli/pictures/1515_fw.png	260.78102684020996	
164	153.08451557159424	picture	0		98	162.0	/experiments/Knapen_AOT/AOT_stimuli/pictures/1907_fw.png	260.7963786125183	0.8250761032104492
164	153.89311718940735	response	0	j		162.0	/experiments/Knapen_AOT/AOT_stimuli/pictures/1907_fw.png	261.6049802303314	
165	153.9095916748047	picture	0		88	163.0	/experiments/Knapen_AOT/AOT_stimuli/pictures/1809_fw.png	261.62145471572876	0.7372124195098877
165	154.63477778434753	response	0	j		163.0	/experiments/Knapen_AOT/AOT_stimuli/pictures/1809_fw.png	262.3466408252716	
166	154.64680409431458	picture	0		93	164.0	/experiments/Knapen_AOT/AOT_stimuli/pictures/1848_fw.png	262.35866713523865	0.7710752487182617
166	155.40984749794006	response	0	k		164.0	/experiments/Knapen_AOT/AOT_stimuli/pictures/1848_fw.png	263.12171053886414	
167	155.41787934303284	picture	0		155	165.0	/experiments/Knapen_AOT/AOT_stimuli/pictures/0672_fw.png	263.1297423839569	1.2916858196258545
167	156.70147442817688	response	0	k		165.0	/experiments/Knapen_AOT/AOT_stimuli/pictures/0672_fw.png	264.41333746910095	
168	156.7095651626587	picture	0		191	166.0	/experiments/Knapen_AOT/AOT_stimuli/pictures/1769_fw.png	264.42142820358276	1.600043773651123
168	158.29337668418884	response	0	j		166.0	/experiments/Knapen_AOT/AOT_stimuli/pictures/1769_fw.png	266.0052397251129	
169	158.30960893630981	picture	0		99	167.0	/experiments/Knapen_AOT/AOT_stimuli/pictures/1830_fw.png	266.0214719772339	0.8333449363708496
169	159.12642860412598	response	0	j		167.0	/experiments/Knapen_AOT/AOT_stimuli/pictures/1830_fw.png	266.83829164505005	
170	159.14295387268066	picture	0		218	168.0	/experiments/Knapen_AOT/AOT_stimuli/pictures/1757_fw.png	266.85481691360474	1.8166842460632324
170	160.95143747329712	response	0	k		168.0	/experiments/Knapen_AOT/AOT_stimuli/pictures/1757_fw.png	268.6633005142212	
171	160.9596381187439	picture	0		96	169.0	/experiments/Knapen_AOT/AOT_stimuli/pictures/1810_fw.png	268.67150115966797	0.8052606582641602
171	161.75143027305603	response	0	j		169.0	/experiments/Knapen_AOT/AOT_stimuli/pictures/1810_fw.png	269.4632933139801	
172	161.76489877700806	picture	0		128	170.0	/experiments/Knapen_AOT/AOT_stimuli/pictures/0703_fw.png	269.47676181793213	1.0697391033172607
172	162.82651209831238	response	0	k		170.0	/experiments/Knapen_AOT/AOT_stimuli/pictures/0703_fw.png	270.53837513923645	
173	162.83463788032532	picture	0		101	171.0	/experiments/Knapen_AOT/AOT_stimuli/pictures/2055_fw.png	270.5465009212494	0.8500549793243408
173	163.66179203987122	response	0	j		171.0	/experiments/Knapen_AOT/AOT_stimuli/pictures/2055_fw.png	271.3736550807953	
174	163.68469285964966	picture	0		84	172.0	/experiments/Knapen_AOT/AOT_stimuli/pictures/1382_fw.png	271.39655590057373	0.705291748046875
174	164.37656378746033	response	0	j		172.0	/experiments/Knapen_AOT/AOT_stimuli/pictures/1382_fw.png	272.0884268283844	
175	164.38998460769653	picture	0		87	173.0	/experiments/Knapen_AOT/AOT_stimuli/pictures/0166_fw.png	272.1018476486206	0.729109525680542
175	165.10989546775818	response	0	j		173.0	/experiments/Knapen_AOT/AOT_stimuli/pictures/0166_fw.png	272.82175850868225	
176	165.11909413337708	picture	0		84	174.0	/experiments/Knapen_AOT/AOT_stimuli/pictures/2098_fw.png	272.83095717430115	0.7014122009277344
176	165.80991196632385	response	0	j		174.0	/experiments/Knapen_AOT/AOT_stimuli/pictures/2098_fw.png	273.5217750072479	
177	165.8205063343048	picture	0		92	175.0	/experiments/Knapen_AOT/AOT_stimuli/pictures/0958_fw.png	273.5323693752289	0.7725517749786377
177	166.5765895843506	response	0	j		175.0	/experiments/Knapen_AOT/AOT_stimuli/pictures/0958_fw.png	274.28845262527466	
178	166.59305810928345	picture	0		86	176.0	/experiments/Knapen_AOT/AOT_stimuli/pictures/1480_fw.png	274.3049211502075	0.7204573154449463
178	167.30157089233398	response	0	j		176.0	/experiments/Knapen_AOT/AOT_stimuli/pictures/1480_fw.png	275.01343393325806	
179	167.3135154247284	picture	0		93	177.0	/experiments/Knapen_AOT/AOT_stimuli/pictures/2169_fw.png	275.02537846565247	0.7795724868774414
179	168.0767879486084	response	0	j		177.0	/experiments/Knapen_AOT/AOT_stimuli/pictures/2169_fw.png	275.78865098953247	
180	168.09308791160583	picture	0		107	178.0	/experiments/Knapen_AOT/AOT_stimuli/pictures/1335_fw.png	275.8049509525299	0.8941686153411865
180	168.9766080379486	response	0	k		178.0	/experiments/Knapen_AOT/AOT_stimuli/pictures/1335_fw.png	276.6884710788727	
181	168.98725652694702	picture	0		89	179.0	/experiments/Knapen_AOT/AOT_stimuli/pictures/1975_fw.png	276.6991195678711	0.7475118637084961
181	169.71829223632812	response	0	j		179.0	/experiments/Knapen_AOT/AOT_stimuli/pictures/1975_fw.png	277.4301552772522	
182	169.73476839065552	picture	0		108	180.0	/experiments/Knapen_AOT/AOT_stimuli/pictures/1108_fw.png	277.4466314315796	0.9052000045776367
182	170.6266188621521	response	0	k		180.0	/experiments/Knapen_AOT/AOT_stimuli/pictures/1108_fw.png	278.3384819030762	
183	170.63996839523315	picture	0		107	181.0	/experiments/Knapen_AOT/AOT_stimuli/pictures/1821_fw.png	278.3518314361572	0.9031426906585693
183	171.52669286727905	response	0	k		181.0	/experiments/Knapen_AOT/AOT_stimuli/pictures/1821_fw.png	279.2385559082031	
184	171.54311108589172	picture	0		86	182.0	/experiments/Knapen_AOT/AOT_stimuli/pictures/1751_fw.png	279.2549741268158	0.721898078918457
184	172.25164675712585	response	0	k		182.0	/experiments/Knapen_AOT/AOT_stimuli/pictures/1751_fw.png	279.9635097980499	
185	172.26500916481018	picture	0		93	183.0	/experiments/Knapen_AOT/AOT_stimuli/pictures/0502_fw.png	279.97687220573425	0.7780952453613281
185	173.03500890731812	response	0	k		183.0	/experiments/Knapen_AOT/AOT_stimuli/pictures/0502_fw.png	280.7468719482422	
186	173.0431044101715	picture	0		89	184.0	/experiments/Knapen_AOT/AOT_stimuli/pictures/1813_fw.png	280.7549674510956	0.7500147819519043
186	173.77669429779053	response	0	k		184.0	/experiments/Knapen_AOT/AOT_stimuli/pictures/1813_fw.png	281.4885573387146	
187	173.7931191921234	picture	0		100	185.0	/experiments/Knapen_AOT/AOT_stimuli/pictures/0644_fw.png	281.5049822330475	0.8417234420776367
187	174.61839866638184	response	0	k		185.0	/experiments/Knapen_AOT/AOT_stimuli/pictures/0644_fw.png	282.3302617073059	
188	174.63484263420105	picture	0		307	186.0	/experiments/Knapen_AOT/AOT_stimuli/pictures/1229_fw.png	282.3467056751251	2.5666840076446533
188	177.1850004196167	response	0	j		186.0	/experiments/Knapen_AOT/AOT_stimuli/pictures/1229_fw.png	284.89686346054077	
189	177.2015266418457	picture	0		92	187.0	/experiments/Knapen_AOT/AOT_stimuli/pictures/0891_fw.png	284.9133896827698	0.7750504016876221
189	177.9600327014923	response	0	k		187.0	/experiments/Knapen_AOT/AOT_stimuli/pictures/0891_fw.png	285.6718957424164	
190	177.97657704353333	picture	0		103	188.0	/experiments/Knapen_AOT/AOT_stimuli/pictures/0540_fw.png	285.6884400844574	0.8666186332702637
190	178.8268346786499	response	0	k		188.0	/experiments/Knapen_AOT/AOT_stimuli/pictures/0540_fw.png	286.538697719574	
191	178.8431956768036	picture	0		105	189.0	/experiments/Knapen_AOT/AOT_stimuli/pictures/1105_fw.png	286.55505871772766	0.8801758289337158
191	179.71004986763	response	0	k		189.0	/experiments/Knapen_AOT/AOT_stimuli/pictures/1105_fw.png	287.4219129085541	
192	179.7233715057373	picture	0		84	190.0	/experiments/Knapen_AOT/AOT_stimuli/pictures/1694_fw.png	287.4352345466614	0.7083320617675781
192	180.41839742660522	response	0	k		190.0	/experiments/Knapen_AOT/AOT_stimuli/pictures/1694_fw.png	288.1302604675293	
193	180.43170356750488	picture	0		102	191.0	/experiments/Knapen_AOT/AOT_stimuli/pictures/1822_fw.png	288.14356660842896	0.8615024089813232
193	181.2768909931183	response	0	k		191.0	/experiments/Knapen_AOT/AOT_stimuli/pictures/1822_fw.png	288.98875403404236	
194	181.2932059764862	picture	0		184	192.0	/experiments/Knapen_AOT/AOT_stimuli/pictures/0647_fw.png	289.0050690174103	1.5417115688323975
194	182.81848073005676	response	0	j		192.0	/experiments/Knapen_AOT/AOT_stimuli/pictures/0647_fw.png	290.53034377098083	
195	182.8349175453186	picture	0		102	193.0	/experiments/Knapen_AOT/AOT_stimuli/pictures/1168_fw.png	290.5467805862427	0.853736162185669
195	183.67682123184204	response	0	k		193.0	/experiments/Knapen_AOT/AOT_stimuli/pictures/1168_fw.png	291.3886842727661	
196	183.68865370750427	picture	0		98	194.0	/experiments/Knapen_AOT/AOT_stimuli/pictures/0776_fw.png	291.40051674842834	0.8129251003265381
196	184.49350929260254	response	0	j		194.0	/experiments/Knapen_AOT/AOT_stimuli/pictures/0776_fw.png	292.2053723335266	
197	184.5015788078308	picture	0		184	195.0	/experiments/Knapen_AOT/AOT_stimuli/pictures/0267_fw.png	292.2134418487549	1.5417125225067139
197	186.02681827545166	response	0	j		195.0	/experiments/Knapen_AOT/AOT_stimuli/pictures/0267_fw.png	293.73868131637573	
198	186.04329133033752	picture	0		162	196.0	/experiments/Knapen_AOT/AOT_stimuli/pictures/1663_fw.png	293.7551543712616	1.3583734035491943
198	187.38524651527405	response	0	k		196.0	/experiments/Knapen_AOT/AOT_stimuli/pictures/1663_fw.png	295.0971095561981	
199	187.40166473388672	picture	0		115	197.0	/experiments/Knapen_AOT/AOT_stimuli/pictures/1125_fw.png	295.1135277748108	0.9606189727783203
199	188.35184931755066	response	0	k		197.0	/experiments/Knapen_AOT/AOT_stimuli/pictures/1125_fw.png	296.06371235847473	
200	188.36228370666504	picture	0		111	198.0	/experiments/Knapen_AOT/AOT_stimuli/pictures/0634_fw.png	296.0741467475891	0.9237868785858154
200	189.27691984176636	response	0	j		198.0	/experiments/Knapen_AOT/AOT_stimuli/pictures/0634_fw.png	296.98878288269043	
201	189.28607058525085	picture	0		94	199.0	/experiments/Knapen_AOT/AOT_stimuli/pictures/0884_fw.png	296.9979336261749	0.7845737934112549
201	190.0526683330536	response	0	j		199.0	/experiments/Knapen_AOT/AOT_stimuli/pictures/0884_fw.png	297.76453137397766	
202	190.0706443786621	picture	0		95	200.0	/experiments/Knapen_AOT/AOT_stimuli/pictures/0342_fw.png	297.7825074195862	0.7977538108825684
202	190.85215497016907	response	0	k		200.0	/experiments/Knapen_AOT/AOT_stimuli/pictures/0342_fw.png	298.56401801109314	
203	190.86839818954468	picture	0		111	201.0	/experiments/Knapen_AOT/AOT_stimuli/pictures/0660_fw.png	298.58026123046875	0.933300256729126
203	191.78525519371033	response	0	k		201.0	/experiments/Knapen_AOT/AOT_stimuli/pictures/0660_fw.png	299.4971182346344	
204	191.8016984462738	picture	0		140	202.0	/experiments/Knapen_AOT/AOT_stimuli/pictures/1644_fw.png	299.5135614871979	1.1750743389129639
204	192.96022701263428	response	0	j		202.0	/experiments/Knapen_AOT/AOT_stimuli/pictures/1644_fw.png	300.67209005355835	
205	192.97677278518677	picture	0		148	203.0	/experiments/Knapen_AOT/AOT_stimuli/pictures/1476_fw.png	300.68863582611084	1.2332618236541748
205	194.2019407749176	response	0	k		203.0	/experiments/Knapen_AOT/AOT_stimuli/pictures/1476_fw.png	301.9138038158417	
206	194.21003460884094	picture	0		133	204.0	/experiments/Knapen_AOT/AOT_stimuli/pictures/1942_fw.png	301.921897649765	1.1167118549346924
206	195.31026673316956	response	0	k		204.0	/experiments/Knapen_AOT/AOT_stimuli/pictures/1942_fw.png	303.0221297740936	
207	195.32674646377563	picture	0		102	205.0	/experiments/Knapen_AOT/AOT_stimuli/pictures/1927_fw.png	303.0386095046997	0.8550724983215332
207	196.16867756843567	response	0	j		205.0	/experiments/Knapen_AOT/AOT_stimuli/pictures/1927_fw.png	303.88054060935974	
208	196.18181896209717	picture	0		117	206.0	/experiments/Knapen_AOT/AOT_stimuli/pictures/0919_fw.png	303.89368200302124	0.9865968227386475
208	197.15193152427673	response	0	j		206.0	/experiments/Knapen_AOT/AOT_stimuli/pictures/0919_fw.png	304.8637945652008	
209	197.16841578483582	picture	0		93	207.0	/experiments/Knapen_AOT/AOT_stimuli/pictures/0782_fw.png	304.8802788257599	0.7833602428436279
209	197.93544793128967	response	0	j		207.0	/experiments/Knapen_AOT/AOT_stimuli/pictures/0782_fw.png	305.64731097221375	
210	197.95177602767944	picture	0		91	208.0	/experiments/Knapen_AOT/AOT_stimuli/pictures/1342_fw.png	305.6636390686035	0.7667078971862793
210	198.7020332813263	response	0	j		208.0	/experiments/Knapen_AOT/AOT_stimuli/pictures/1342_fw.png	306.41389632225037	
211	198.71848392486572	picture	0		85	209.0	/experiments/Knapen_AOT/AOT_stimuli/pictures/0548_fw.png	306.4303469657898	0.7166810035705566
211	199.41864156723022	response	0	j		209.0	/experiments/Knapen_AOT/AOT_stimuli/pictures/0548_fw.png	307.1305046081543	
212	199.43516492843628	picture	0		93	210.0	/experiments/Knapen_AOT/AOT_stimuli/pictures/1760_fw.png	307.14702796936035	0.7813730239868164
212	200.20192313194275	response	0	j		210.0	/experiments/Knapen_AOT/AOT_stimuli/pictures/1760_fw.png	307.9137861728668	
213	200.2165379524231	picture	0		92	211.0	/experiments/Knapen_AOT/AOT_stimuli/pictures/0046_fw.png	307.92840099334717	0.7709026336669922
213	200.97707653045654	response	0	j		211.0	/experiments/Knapen_AOT/AOT_stimuli/pictures/0046_fw.png	308.6889395713806	
214	200.9874405860901	picture	0		100	212.0	/experiments/Knapen_AOT/AOT_stimuli/pictures/0111_fw.png	308.69930362701416	0.8332974910736084
214	201.81034183502197	response	0	k		212.0	/experiments/Knapen_AOT/AOT_stimuli/pictures/0111_fw.png	309.52220487594604	
215	201.8207380771637	picture	0		97	213.0	/experiments/Knapen_AOT/AOT_stimuli/pictures/0613_fw.png	309.53260111808777	0.8144288063049316
215	202.61866760253906	response	0	k		213.0	/experiments/Knapen_AOT/AOT_stimuli/pictures/0613_fw.png	310.33053064346313	
216	202.63516688346863	picture	0		107	214.0	/experiments/Knapen_AOT/AOT_stimuli/pictures/2170_fw.png	310.3470299243927	0.8939061164855957
216	203.5186746120453	response	0	j		214.0	/experiments/Knapen_AOT/AOT_stimuli/pictures/2170_fw.png	311.23053765296936	
217	203.52907299995422	picture	0		99	215.0	/experiments/Knapen_AOT/AOT_stimuli/pictures/1073_fw.png	311.2409360408783	0.8264012336730957
217	204.34364414215088	response	0	k		215.0	/experiments/Knapen_AOT/AOT_stimuli/pictures/1073_fw.png	312.05550718307495	
218	204.35547423362732	picture	0		105	216.0	/experiments/Knapen_AOT/AOT_stimuli/pictures/0352_fw.png	312.0673372745514	0.8750205039978027
218	205.21867060661316	response	0	j		216.0	/experiments/Knapen_AOT/AOT_stimuli/pictures/0352_fw.png	312.93053364753723	
219	205.23049473762512	picture	0		103	217.0	/experiments/Knapen_AOT/AOT_stimuli/pictures/1488_fw.png	312.9423577785492	0.8546769618988037
219	206.07704281806946	response	0	j		217.0	/experiments/Knapen_AOT/AOT_stimuli/pictures/1488_fw.png	313.78890585899353	
220	206.08517169952393	picture	0		107	218.0	/experiments/Knapen_AOT/AOT_stimuli/pictures/1957_fw.png	313.797034740448	0.8953332901000977
220	206.96869373321533	response	0	k		218.0	/experiments/Knapen_AOT/AOT_stimuli/pictures/1957_fw.png	314.6805567741394	
221	206.98050498962402	picture	0		99	219.0	/experiments/Knapen_AOT/AOT_stimuli/pictures/0803_fw.png	314.6923680305481	0.8263981342315674
221	207.79368233680725	response	0	k		219.0	/experiments/Knapen_AOT/AOT_stimuli/pictures/0803_fw.png	315.5055453777313	
222	207.8069031238556	picture	0		102	220.0	/experiments/Knapen_AOT/AOT_stimuli/pictures/1363_fw.png	315.51876616477966	0.8616886138916016
222	208.65223336219788	response	0	j		220.0	/experiments/Knapen_AOT/AOT_stimuli/pictures/1363_fw.png	316.36409640312195	
223	208.6685917377472	picture	0		155	221.0	/experiments/Knapen_AOT/AOT_stimuli/pictures/1263_fw.png	316.38045477867126	1.300001621246338
223	209.95206713676453	response	0	j		221.0	/experiments/Knapen_AOT/AOT_stimuli/pictures/1263_fw.png	317.6639301776886	
224	209.96859335899353	picture	0		103	222.0	/experiments/Knapen_AOT/AOT_stimuli/pictures/1782_fw.png	317.6804563999176	0.8666520118713379
224	210.81874775886536	response	0	j		222.0	/experiments/Knapen_AOT/AOT_stimuli/pictures/1782_fw.png	318.53061079978943	
225	210.83524537086487	picture	0		104	223.0	/experiments/Knapen_AOT/AOT_stimuli/pictures/0116_fw.png	318.54710841178894	0.8674893379211426
225	211.69377040863037	response	0	k		223.0	/experiments/Knapen_AOT/AOT_stimuli/pictures/0116_fw.png	319.40563344955444	
226	211.702734708786	picture	0		109	224.0	/experiments/Knapen_AOT/AOT_stimuli/pictures/0237_fw.png	319.4145977497101	0.9158942699432373
226	212.60211205482483	response	0	k		224.0	/experiments/Knapen_AOT/AOT_stimuli/pictures/0237_fw.png	320.3139750957489	
227	212.61862897872925	picture	0		97	225.0	/experiments/Knapen_AOT/AOT_stimuli/pictures/0964_fw.png	320.3304920196533	0.8132913112640381
227	213.4188106060028	response	0	j		225.0	/experiments/Knapen_AOT/AOT_stimuli/pictures/0964_fw.png	321.1306736469269	
228	213.4319202899933	picture	0		110	226.0	/experiments/Knapen_AOT/AOT_stimuli/pictures/0195_fw.png	321.14378333091736	0.920074462890625
228	214.33563327789307	response	0	k		226.0	/experiments/Knapen_AOT/AOT_stimuli/pictures/0195_fw.png	322.04749631881714	
229	214.3519947528839	picture	0		90	227.0	/experiments/Knapen_AOT/AOT_stimuli/pictures/0583_fw.png	322.063857793808	0.7535831928253174
229	215.09381103515625	response	0	j		227.0	/experiments/Knapen_AOT/AOT_stimuli/pictures/0583_fw.png	322.8056740760803	
230	215.10557794570923	picture	0		236	228.0	/experiments/Knapen_AOT/AOT_stimuli/pictures/0193_fw.png	322.8174409866333	1.965162992477417
230	217.0607089996338	response	0	k		228.0	/experiments/Knapen_AOT/AOT_stimuli/pictures/0193_fw.png	324.77257204055786	
231	217.07074093818665	picture	0		128	229.0	/experiments/Knapen_AOT/AOT_stimuli/pictures/0566_fw.png	324.7826039791107	1.0695581436157227
231	218.12713837623596	response	0	j		229.0	/experiments/Knapen_AOT/AOT_stimuli/pictures/0566_fw.png	325.83900141716003	
232	218.14029908180237	picture	0		98	230.0	/experiments/Knapen_AOT/AOT_stimuli/pictures/1241_fw.png	325.85216212272644	0.8263912200927734
232	218.9522078037262	response	0	k		230.0	/experiments/Knapen_AOT/AOT_stimuli/pictures/1241_fw.png	326.66407084465027	
233	218.96669030189514	picture	0		111	231.0	/experiments/Knapen_AOT/AOT_stimuli/pictures/2040_fw.png	326.6785533428192	0.9305605888366699
233	219.88550066947937	response	0	j		231.0	/experiments/Knapen_AOT/AOT_stimuli/pictures/2040_fw.png	327.59736371040344	
234	219.8972508907318	picture	0		94	232.0	/experiments/Knapen_AOT/AOT_stimuli/pictures/1039_fw.png	327.6091139316559	0.7847199440002441
234	220.66887211799622	response	0	k		232.0	/experiments/Knapen_AOT/AOT_stimuli/pictures/1039_fw.png	328.3807351589203	
235	220.68197083473206	picture	0		122	233.0	/experiments/Knapen_AOT/AOT_stimuli/pictures/0068_fw.png	328.3938338756561	1.0200977325439453
235	221.68584656715393	response	0	k		233.0	/experiments/Knapen_AOT/AOT_stimuli/pictures/0068_fw.png	329.397709608078	
236	221.702068567276	picture	0		92	234.0	/experiments/Knapen_AOT/AOT_stimuli/pictures/0795_fw.png	329.4139316082001	0.7716419696807861
236	222.4607594013214	response	0	j		234.0	/experiments/Knapen_AOT/AOT_stimuli/pictures/0795_fw.png	330.1726224422455	
237	222.4737105369568	picture	0		111	235.0	/experiments/Knapen_AOT/AOT_stimuli/pictures/0062_fw.png	330.18557357788086	0.9367201328277588
237	223.39409518241882	response	0	j		235.0	/experiments/Knapen_AOT/AOT_stimuli/pictures/0062_fw.png	331.1059582233429	
238	223.41043066978455	picture	0		107	236.0	/experiments/Knapen_AOT/AOT_stimuli/pictures/2094_fw.png	331.1222937107086	0.8965926170349121
238	224.2939043045044	response	0	k		236.0	/experiments/Knapen_AOT/AOT_stimuli/pictures/2094_fw.png	332.00576734542847	
239	224.30702328681946	picture	0		97	237.0	/experiments/Knapen_AOT/AOT_stimuli/pictures/0778_fw.png	332.01888632774353	0.8117904663085938
239	225.1023600101471	response	0	k		237.0	/experiments/Knapen_AOT/AOT_stimuli/pictures/0778_fw.png	332.81422305107117	
240	225.11881375312805	picture	0		138	238.0	/experiments/Knapen_AOT/AOT_stimuli/pictures/1625_fw.png	332.8306767940521	1.1583285331726074
240	226.2608072757721	response	0	k		238.0	/experiments/Knapen_AOT/AOT_stimuli/pictures/1625_fw.png	333.97267031669617	
241	226.27714228630066	picture	0		80	239.0	/experiments/Knapen_AOT/AOT_stimuli/pictures/1445_fw.png	333.98900532722473	0.6749908924102783
241	226.93562197685242	response	0	k		239.0	/experiments/Knapen_AOT/AOT_stimuli/pictures/1445_fw.png	334.6474850177765	
242	226.95213317871094	picture	0		86	240.0	/experiments/Knapen_AOT/AOT_stimuli/pictures/0217_fw.png	334.663996219635	0.7230041027069092
242	227.65313243865967	response	0	j		240.0	/experiments/Knapen_AOT/AOT_stimuli/pictures/0217_fw.png	335.36499547958374	
243	227.67513728141785	picture	0		107	241.0	/experiments/Knapen_AOT/AOT_stimuli/pictures/0423_fw.png	335.3870003223419	0.902012825012207
243	228.56070709228516	response	0	k		241.0	/experiments/Knapen_AOT/AOT_stimuli/pictures/0423_fw.png	336.27257013320923	
244	228.57715010643005	picture	0		83	242.0	/experiments/Knapen_AOT/AOT_stimuli/pictures/1976_fw.png	336.2890131473541	0.7000417709350586
244	229.26083326339722	response	0	j		242.0	/experiments/Knapen_AOT/AOT_stimuli/pictures/1976_fw.png	336.9726963043213	
245	229.2771918773651	picture	0		88	243.0	/experiments/Knapen_AOT/AOT_stimuli/pictures/0562_fw.png	336.9890549182892	0.7382142543792725
245	230.00230813026428	response	0	j		243.0	/experiments/Knapen_AOT/AOT_stimuli/pictures/0562_fw.png	337.71417117118835	
246	230.01540613174438	picture	0		95	244.0	/experiments/Knapen_AOT/AOT_stimuli/pictures/1312_fw.png	337.72726917266846	0.7916421890258789
246	230.7939636707306	response	0	k		244.0	/experiments/Knapen_AOT/AOT_stimuli/pictures/1312_fw.png	338.50582671165466	
247	230.80704832077026	picture	0		93	245.0	/experiments/Knapen_AOT/AOT_stimuli/pictures/1141_fw.png	338.51891136169434	0.7847521305084229
247	231.57732772827148	response	0	j		245.0	/experiments/Knapen_AOT/AOT_stimuli/pictures/1141_fw.png	339.28919076919556	
248	231.5918004512787	picture	0		94	246.0	/experiments/Knapen_AOT/AOT_stimuli/pictures/1056_fw.png	339.30366349220276	0.7937402725219727
248	232.36906266212463	response	0	k		246.0	/experiments/Knapen_AOT/AOT_stimuli/pictures/1056_fw.png	340.0809257030487	
249	232.38554072380066	picture	0		96	247.0	/experiments/Knapen_AOT/AOT_stimuli/pictures/1911_fw.png	340.09740376472473	0.8034811019897461
249	233.17738485336304	response	0	k		247.0	/experiments/Knapen_AOT/AOT_stimuli/pictures/1911_fw.png	340.8892478942871	
250	233.1890218257904	picture	0		110	248.0	/experiments/Knapen_AOT/AOT_stimuli/pictures/0461_fw.png	340.9008848667145	0.9167423248291016
250	234.09404110908508	response	0	j		248.0	/experiments/Knapen_AOT/AOT_stimuli/pictures/0461_fw.png	341.80590415000916	
251	234.1057641506195	picture	0		122	249.0	/experiments/Knapen_AOT/AOT_stimuli/pictures/0793_fw.png	341.8176271915436	1.0138132572174072
251	235.11072754859924	response	0	k		249.0	/experiments/Knapen_AOT/AOT_stimuli/pictures/0793_fw.png	342.8225905895233	
252	235.1195774078369	picture	0		88	250.0	/experiments/Knapen_AOT/AOT_stimuli/pictures/0863_fw.png	342.831440448761	0.7361710071563721
252	235.84405088424683	response	0	k		250.0	/experiments/Knapen_AOT/AOT_stimuli/pictures/0863_fw.png	343.5559139251709	
253	235.8557484149933	picture	0		97	251.0	/experiments/Knapen_AOT/AOT_stimuli/pictures/1601_fw.png	343.56761145591736	0.8055119514465332
253	236.64496612548828	response	0	k		251.0	/experiments/Knapen_AOT/AOT_stimuli/pictures/1601_fw.png	344.35682916641235	
254	236.66126036643982	picture	0		168	252.0	/experiments/Knapen_AOT/AOT_stimuli/pictures/1946_fw.png	344.3731234073639	1.402684211730957
254	238.04495525360107	response	0	k		252.0	/experiments/Knapen_AOT/AOT_stimuli/pictures/1946_fw.png	345.75681829452515	
255	238.06394457817078	picture	0		91	253.0	/experiments/Knapen_AOT/AOT_stimuli/pictures/0486_fw.png	345.77580761909485	0.7633805274963379
255	238.81082940101624	response	0	k		253.0	/experiments/Knapen_AOT/AOT_stimuli/pictures/0486_fw.png	346.5226924419403	
256	238.82732510566711	picture	0		92	254.0	/experiments/Knapen_AOT/AOT_stimuli/pictures/0941_fw.png	346.5391881465912	0.7749762535095215
256	239.58582425117493	response	0	j		254.0	/experiments/Knapen_AOT/AOT_stimuli/pictures/0941_fw.png	347.297687292099	
257	239.60230135917664	picture	0		84	255.0	/experiments/Knapen_AOT/AOT_stimuli/pictures/1421_fw.png	347.3141644001007	0.7048077583312988
257	240.29410028457642	response	0	j		255.0	/experiments/Knapen_AOT/AOT_stimuli/pictures/1421_fw.png	348.0059633255005	
258	240.30710911750793	picture	0		104	256.0	/experiments/Knapen_AOT/AOT_stimuli/pictures/0198_fw.png	348.018972158432	0.8786077499389648
258	241.16911554336548	response	0	j		256.0	/experiments/Knapen_AOT/AOT_stimuli/pictures/0198_fw.png	348.88097858428955	
259	241.1857168674469	picture	0		91	257.0	/experiments/Knapen_AOT/AOT_stimuli/pictures/1479_fw.png	348.897579908371	0.7603189945220947
259	241.93580794334412	response	0	j		257.0	/experiments/Knapen_AOT/AOT_stimuli/pictures/1479_fw.png	349.6476709842682	
260	241.946035861969	picture	0		88	258.0	/experiments/Knapen_AOT/AOT_stimuli/pictures/1980_fw.png	349.65789890289307	0.7396435737609863
260	242.66918754577637	response	0	k		258.0	/experiments/Knapen_AOT/AOT_stimuli/pictures/1980_fw.png	350.38105058670044	
261	242.68567943572998	picture	0		113	259.0	/experiments/Knapen_AOT/AOT_stimuli/pictures/0560_fw.png	350.39754247665405	0.9500164985656738
261	243.61912965774536	response	0	k		259.0	/experiments/Knapen_AOT/AOT_stimuli/pictures/0560_fw.png	351.33099269866943	
262	243.63569593429565	picture	0		179	260.0	/experiments/Knapen_AOT/AOT_stimuli/pictures/1024_fw.png	351.3475589752197	1.4977962970733643
262	245.11916780471802	response	0	j		260.0	/experiments/Knapen_AOT/AOT_stimuli/pictures/1024_fw.png	352.8310308456421	
263	245.13349223136902	picture	0		90	261.0	/experiments/Knapen_AOT/AOT_stimuli/pictures/0953_fw.png	352.8453552722931	0.7605807781219482
263	245.87752652168274	response	0	j		261.0	/experiments/Knapen_AOT/AOT_stimuli/pictures/0953_fw.png	353.5893895626068	
264	245.89407300949097	picture	0		90	262.0	/experiments/Knapen_AOT/AOT_stimuli/pictures/1498_fw.png	353.60593605041504	0.7534284591674805
264	246.6358699798584	response	0	k		262.0	/experiments/Knapen_AOT/AOT_stimuli/pictures/1498_fw.png	354.34773302078247	
265	246.64750146865845	picture	0		134	263.0	/experiments/Knapen_AOT/AOT_stimuli/pictures/1812_fw.png	354.3593645095825	1.121572732925415
265	247.7525131702423	response	0	j		263.0	/experiments/Knapen_AOT/AOT_stimuli/pictures/1812_fw.png	355.4643762111664	
266	247.76907420158386	picture	0		96	264.0	/experiments/Knapen_AOT/AOT_stimuli/pictures/1683_fw.png	355.48093724250793	0.8083350658416748
266	248.56091403961182	response	0	k		264.0	/experiments/Knapen_AOT/AOT_stimuli/pictures/1683_fw.png	356.2727770805359	
267	248.57740926742554	picture	0		159	265.0	/experiments/Knapen_AOT/AOT_stimuli/pictures/0843_fw.png	356.2892723083496	1.3269078731536865
267	249.89429831504822	response	0	k		265.0	/experiments/Knapen_AOT/AOT_stimuli/pictures/0843_fw.png	357.6061613559723	
268	249.90431714057922	picture	0		89	266.0	/experiments/Knapen_AOT/AOT_stimuli/pictures/0436_fw.png	357.6161801815033	0.748131513595581
268	250.63592910766602	response	0	j		266.0	/experiments/Knapen_AOT/AOT_stimuli/pictures/0436_fw.png	358.3477921485901	
269	250.6524486541748	picture	0		97	267.0	/experiments/Knapen_AOT/AOT_stimuli/pictures/1126_fw.png	358.3643116950989	0.8166825771331787
269	251.44552087783813	response	0	j		267.0	/experiments/Knapen_AOT/AOT_stimuli/pictures/1126_fw.png	359.1573839187622	
270	251.46913123130798	picture	0		95	268.0	/experiments/Knapen_AOT/AOT_stimuli/pictures/1494_fw.png	359.18099427223206	0.7963976860046387
270	252.25280737876892	response	0	k		268.0	/experiments/Knapen_AOT/AOT_stimuli/pictures/1494_fw.png	359.964670419693	
271	252.26552891731262	picture	0		89	269.0	/experiments/Knapen_AOT/AOT_stimuli/pictures/1340_fw.png	359.9773919582367	0.7500369548797607
271	253.00260186195374	response	0	k		269.0	/experiments/Knapen_AOT/AOT_stimuli/pictures/1340_fw.png	360.7144649028778	
272	253.01556587219238	picture	0		90	270.0	/experiments/Knapen_AOT/AOT_stimuli/pictures/1481_fw.png	360.72742891311646	0.7569429874420166
272	253.76092720031738	response	0	j		270.0	/experiments/Knapen_AOT/AOT_stimuli/pictures/1481_fw.png	361.47279024124146	
273	253.7725088596344	picture	0		197	271.0	/experiments/Knapen_AOT/AOT_stimuli/pictures/0388_fw.png	361.4843719005585	1.646677017211914
273	255.40264439582825	response	0	j		271.0	/experiments/Knapen_AOT/AOT_stimuli/pictures/0388_fw.png	363.1145074367523	
274	255.4191858768463	picture	0		101	272.0	/experiments/Knapen_AOT/AOT_stimuli/pictures/0975_fw.png	363.1310489177704	0.8463752269744873
274	256.25280117988586	response	0	k		272.0	/experiments/Knapen_AOT/AOT_stimuli/pictures/0975_fw.png	363.96466422080994	
275	256.2655611038208	picture	0		97	273.0	/experiments/Knapen_AOT/AOT_stimuli/pictures/1792_fw.png	363.9774241447449	0.8125030994415283
275	257.0693027973175	response	0	k		273.0	/experiments/Knapen_AOT/AOT_stimuli/pictures/1792_fw.png	364.7811658382416	
276	257.07806420326233	picture	0		88	274.0	/experiments/Knapen_AOT/AOT_stimuli/pictures/1671_fw.png	364.7899272441864	0.7411057949066162
276	257.80271005630493	response	0	k		274.0	/experiments/Knapen_AOT/AOT_stimuli/pictures/1671_fw.png	365.514573097229	
277	257.81916999816895	picture	0		95	275.0	/experiments/Knapen_AOT/AOT_stimuli/pictures/0870_fw.png	365.531033039093	0.8000354766845703
277	258.6027114391327	response	0	k		275.0	/experiments/Knapen_AOT/AOT_stimuli/pictures/0870_fw.png	366.31457448005676	
278	258.6192054748535	picture	0		106	276.0	/experiments/Knapen_AOT/AOT_stimuli/pictures/1094_fw.png	366.3310685157776	0.8916747570037842
278	259.4945864677429	response	0	k		276.0	/experiments/Knapen_AOT/AOT_stimuli/pictures/1094_fw.png	367.206449508667	
279	259.5108802318573	picture	0		134	277.0	/experiments/Knapen_AOT/AOT_stimuli/pictures/1735_fw.png	367.2227432727814	1.1249966621398926
279	260.6128604412079	response	0	k		277.0	/experiments/Knapen_AOT/AOT_stimuli/pictures/1735_fw.png	368.32472348213196	
280	260.6358768939972	picture	0		192	278.0	/experiments/Knapen_AOT/AOT_stimuli/pictures/1587_fw.png	368.34773993492126	1.6018540859222412
280	262.22125697135925	response	0	j		278.0	/experiments/Knapen_AOT/AOT_stimuli/pictures/1587_fw.png	369.9331200122833	
281	262.23773097991943	picture	0		99	279.0	/experiments/Knapen_AOT/AOT_stimuli/pictures/2178_fw.png	369.9495940208435	0.8315117359161377
281	263.05281686782837	response	0	k		279.0	/experiments/Knapen_AOT/AOT_stimuli/pictures/2178_fw.png	370.76467990875244	
282	263.06924271583557	picture	0		107	280.0	/experiments/Knapen_AOT/AOT_stimuli/pictures/0604_fw.png	370.78110575675964	0.9000601768493652
282	263.95271921157837	response	0	k		280.0	/experiments/Knapen_AOT/AOT_stimuli/pictures/0604_fw.png	371.66458225250244	
283	263.96930289268494	picture	0		92	281.0	/experiments/Knapen_AOT/AOT_stimuli/pictures/0190_fw.png	371.681165933609	0.7749841213226318
283	264.7278094291687	response	0	k		281.0	/experiments/Knapen_AOT/AOT_stimuli/pictures/0190_fw.png	372.4396724700928	
284	264.74428701400757	picture	0		90	282.0	/experiments/Knapen_AOT/AOT_stimuli/pictures/1645_fw.png	372.45615005493164	0.7583701610565186
284	265.48621439933777	response	0	k		282.0	/experiments/Knapen_AOT/AOT_stimuli/pictures/1645_fw.png	373.19807744026184	
285	265.5026571750641	picture	0		85	283.0	/experiments/Knapen_AOT/AOT_stimuli/pictures/0936_fw.png	373.21452021598816	0.7166235446929932
285	266.202764749527	response	0	k		283.0	/experiments/Knapen_AOT/AOT_stimuli/pictures/0936_fw.png	373.91462779045105	
286	266.2192807197571	picture	0		91	284.0	/experiments/Knapen_AOT/AOT_stimuli/pictures/2146_fw.png	373.93114376068115	0.7616510391235352
286	266.9694585800171	response	0	j		284.0	/experiments/Knapen_AOT/AOT_stimuli/pictures/2146_fw.png	374.68132162094116	
287	266.9809317588806	picture	0		110	285.0	/experiments/Knapen_AOT/AOT_stimuli/pictures/0099_fw.png	374.6927947998047	0.9217073917388916
287	267.88612365722656	response	0	j		285.0	/experiments/Knapen_AOT/AOT_stimuli/pictures/0099_fw.png	375.59798669815063	
288	267.9026391506195	picture	0		107	286.0	/experiments/Knapen_AOT/AOT_stimuli/pictures/0019_fw.png	375.6145021915436	0.9000060558319092
288	268.7861170768738	response	0	k		286.0	/experiments/Knapen_AOT/AOT_stimuli/pictures/0019_fw.png	376.49798011779785	
289	268.8026452064514	picture	0		104	287.0	/experiments/Knapen_AOT/AOT_stimuli/pictures/1357_fw.png	376.5145082473755	0.8727517127990723
289	269.66115283966064	response	0	j		287.0	/experiments/Knapen_AOT/AOT_stimuli/pictures/1357_fw.png	377.3730158805847	
290	269.6753969192505	picture	0		94	288.0	/experiments/Knapen_AOT/AOT_stimuli/pictures/1547_fw.png	377.38725996017456	0.7916736602783203
290	270.45283579826355	response	0	j		288.0	/experiments/Knapen_AOT/AOT_stimuli/pictures/1547_fw.png	378.1646988391876	
291	270.4670705795288	picture	0		96	289.0	/experiments/Knapen_AOT/AOT_stimuli/pictures/1530_fw.png	378.1789336204529	0.805565357208252
291	271.2611753940582	response	0	k		289.0	/experiments/Knapen_AOT/AOT_stimuli/pictures/1530_fw.png	378.9730384349823	
292	271.27263593673706	picture	0		117	290.0	/experiments/Knapen_AOT/AOT_stimuli/pictures/0250_fw.png	378.98449897766113	0.9722363948822021
292	272.22875690460205	response	0	j		290.0	/experiments/Knapen_AOT/AOT_stimuli/pictures/0250_fw.png	379.9406199455261	
293	272.24487233161926	picture	0		91	291.0	/experiments/Knapen_AOT/AOT_stimuli/pictures/0781_fw.png	379.95673537254333	0.7661757469177246
293	272.9944951534271	response	0	k		291.0	/experiments/Knapen_AOT/AOT_stimuli/pictures/0781_fw.png	380.7063581943512	
294	273.011048078537	picture	0		91	292.0	/experiments/Knapen_AOT/AOT_stimuli/pictures/0392_fw.png	380.72291111946106	0.761584997177124
294	273.7612237930298	response	0	j		292.0	/experiments/Knapen_AOT/AOT_stimuli/pictures/0392_fw.png	381.47308683395386	
295	273.7726330757141	picture	0		151	293.0	/experiments/Knapen_AOT/AOT_stimuli/pictures/1698_fw.png	381.4844961166382	1.2634241580963135
295	275.0195779800415	response	0	k		293.0	/experiments/Knapen_AOT/AOT_stimuli/pictures/1698_fw.png	382.7314410209656	
296	275.0360572338104	picture	0		81	294.0	/experiments/Knapen_AOT/AOT_stimuli/pictures/0043_fw.png	382.7479202747345	0.6810290813446045
296	275.702885389328	response	0	j		294.0	/experiments/Knapen_AOT/AOT_stimuli/pictures/0043_fw.png	383.4147484302521	
297	275.71708631515503	picture	0		185	295.0	/experiments/Knapen_AOT/AOT_stimuli/pictures/0473_fw.png	383.4289493560791	1.5523333549499512
297	277.2528860569	response	0	j		295.0	/experiments/Knapen_AOT/AOT_stimuli/pictures/0473_fw.png	384.9647490978241	
298	277.269419670105	picture	0		108	296.0	/experiments/Knapen_AOT/AOT_stimuli/pictures/1095_fw.png	384.98128271102905	0.9060757160186768
298	278.1612207889557	response	0	k		296.0	/experiments/Knapen_AOT/AOT_stimuli/pictures/1095_fw.png	385.87308382987976	
299	278.17549538612366	picture	0		90	297.0	/experiments/Knapen_AOT/AOT_stimuli/pictures/2006_fw.png	385.88735842704773	0.7606034278869629
299	278.9196140766144	response	0	j		297.0	/experiments/Knapen_AOT/AOT_stimuli/pictures/2006_fw.png	386.63147711753845	
300	278.9360988140106	picture	0		96	298.0	/experiments/Knapen_AOT/AOT_stimuli/pictures/1370_fw.png	386.6479618549347	0.8088490962982178
300	279.7279236316681	response	0	k		298.0	/experiments/Knapen_AOT/AOT_stimuli/pictures/1370_fw.png	387.43978667259216	
301	279.74494791030884	picture	0		111	299.0	/experiments/Knapen_AOT/AOT_stimuli/pictures/0209_fw.png	387.4568109512329	0.9305078983306885
301	280.66128945350647	response	0	j		299.0	/experiments/Knapen_AOT/AOT_stimuli/pictures/0209_fw.png	388.37315249443054	
302	280.6754558086395	picture	0		96	300.0	/experiments/Knapen_AOT/AOT_stimuli/pictures/1032_fw.png	388.3873188495636	0.810699462890625
302	281.46963453292847	response	0	j		300.0	/experiments/Knapen_AOT/AOT_stimuli/pictures/1032_fw.png	389.18149757385254	
303	281.48615527153015	picture	0		94	301.0	/experiments/Knapen_AOT/AOT_stimuli/pictures/0733_fw.png	389.1980183124542	0.7916896343231201
303	282.2613220214844	response	0	k		301.0	/experiments/Knapen_AOT/AOT_stimuli/pictures/0733_fw.png	389.97318506240845	
304	282.27784490585327	picture	0		86	302.0	/experiments/Knapen_AOT/AOT_stimuli/pictures/1232_fw.png	389.98970794677734	0.7249772548675537
304	282.98626041412354	response	0	j		302.0	/experiments/Knapen_AOT/AOT_stimuli/pictures/1232_fw.png	390.6981234550476	
305	283.0028221607208	picture	0		100	303.0	/experiments/Knapen_AOT/AOT_stimuli/pictures/1018_fw.png	390.7146852016449	0.8416800498962402
305	283.8279519081116	response	0	j		303.0	/experiments/Knapen_AOT/AOT_stimuli/pictures/1018_fw.png	391.53981494903564	
306	283.84450221061707	picture	0		102	304.0	/experiments/Knapen_AOT/AOT_stimuli/pictures/0977_fw.png	391.55636525154114	0.8518321514129639
306	284.68632411956787	response	0	j		304.0	/experiments/Knapen_AOT/AOT_stimuli/pictures/0977_fw.png	392.39818716049194	
307	284.69633436203003	picture	0		87	305.0	/experiments/Knapen_AOT/AOT_stimuli/pictures/1804_fw.png	392.4081974029541	0.7291750907897949
307	285.41135692596436	response	0	k		305.0	/experiments/Knapen_AOT/AOT_stimuli/pictures/1804_fw.png	393.1232199668884	
308	285.4255094528198	picture	0		112	306.0	/experiments/Knapen_AOT/AOT_stimuli/pictures/1366_fw.png	393.1373724937439	0.9374744892120361
308	286.353049993515	response	0	j		306.0	/experiments/Knapen_AOT/AOT_stimuli/pictures/1366_fw.png	394.0649130344391	
309	286.36298394203186	picture	0		100	307.0	/experiments/Knapen_AOT/AOT_stimuli/pictures/0636_fw.png	394.07484698295593	0.8399176597595215
309	287.18633913993835	response	0	k		307.0	/experiments/Knapen_AOT/AOT_stimuli/pictures/0636_fw.png	394.8982021808624	
310	287.2029016017914	picture	0		200	308.0	/experiments/Knapen_AOT/AOT_stimuli/pictures/1324_fw.png	394.91476464271545	1.6669352054595947
310	288.8613746166229	response	0	j		308.0	/experiments/Knapen_AOT/AOT_stimuli/pictures/1324_fw.png	396.573237657547	
311	288.869836807251	picture	0		107	309.0	/experiments/Knapen_AOT/AOT_stimuli/pictures/0185_fw.png	396.58169984817505	0.8997478485107422
311	289.75306510925293	response	0	j		309.0	/experiments/Knapen_AOT/AOT_stimuli/pictures/0185_fw.png	397.464928150177	
312	289.7695846557617	picture	0		106	310.0	/experiments/Knapen_AOT/AOT_stimuli/pictures/1623_fw.png	397.4814476966858	0.8920855522155762
312	290.63704013824463	response	0	k		310.0	/experiments/Knapen_AOT/AOT_stimuli/pictures/1623_fw.png	398.3489031791687	
313	290.6616702079773	picture	0		99	311.0	/experiments/Knapen_AOT/AOT_stimuli/pictures/0982_fw.png	398.37353324890137	0.8333382606506348
313	291.47821497917175	response	0	k		311.0	/experiments/Knapen_AOT/AOT_stimuli/pictures/0982_fw.png	399.1900780200958	
314	291.49500846862793	picture	0		86	312.0	/experiments/Knapen_AOT/AOT_stimuli/pictures/1004_fw.png	399.206871509552	0.7246038913726807
314	292.203076839447	response	0	j		312.0	/experiments/Knapen_AOT/AOT_stimuli/pictures/1004_fw.png	399.9149398803711	
315	292.2196123600006	picture	0		95	313.0	/experiments/Knapen_AOT/AOT_stimuli/pictures/0394_fw.png	399.9314754009247	0.7962126731872559
315	293.00335931777954	response	0	k		313.0	/experiments/Knapen_AOT/AOT_stimuli/pictures/0394_fw.png	400.7152223587036	
316	293.01582503318787	picture	0		89	314.0	/experiments/Knapen_AOT/AOT_stimuli/pictures/0295_fw.png	400.72768807411194	0.7538809776306152
316	293.75308322906494	response	0	j		314.0	/experiments/Knapen_AOT/AOT_stimuli/pictures/0295_fw.png	401.464946269989	
317	293.7697060108185	picture	0		87	315.0	/experiments/Knapen_AOT/AOT_stimuli/pictures/1951_fw.png	401.48156905174255	0.7252721786499023
317	294.486421585083	response	0	k		315.0	/experiments/Knapen_AOT/AOT_stimuli/pictures/1951_fw.png	402.1982846260071	
318	294.4949781894684	picture	0		90	316.0	/experiments/Knapen_AOT/AOT_stimuli/pictures/1418_fw.png	402.20684123039246	0.7579867839813232
318	295.2301676273346	response	0	j		316.0	/experiments/Knapen_AOT/AOT_stimuli/pictures/1418_fw.png	402.94203066825867	
319	295.2529649734497	picture	0		96	317.0	/experiments/Knapen_AOT/AOT_stimuli/pictures/1389_fw.png	402.9648280143738	0.8045458793640137
319	296.0372881889343	response	0	k		317.0	/experiments/Knapen_AOT/AOT_stimuli/pictures/1389_fw.png	403.7491512298584	
320	296.0575108528137	picture	0		85	318.0	/experiments/Knapen_AOT/AOT_stimuli/pictures/1393_fw.png	403.7693738937378	0.7083437442779541
320	296.7531259059906	response	0	k		318.0	/experiments/Knapen_AOT/AOT_stimuli/pictures/1393_fw.png	404.4649889469147	
321	296.7658545970917	picture	0		93	319.0	/experiments/Knapen_AOT/AOT_stimuli/pictures/1732_fw.png	404.47771763801575	0.7788081169128418
321	297.52816915512085	response	0	j		319.0	/experiments/Knapen_AOT/AOT_stimuli/pictures/1732_fw.png	405.2400321960449	
322	297.5446627140045	picture	0		89	320.0	/experiments/Knapen_AOT/AOT_stimuli/pictures/0571_fw.png	405.2565257549286	0.7500150203704834
322	298.27814626693726	response	0	j		320.0	/experiments/Knapen_AOT/AOT_stimuli/pictures/0571_fw.png	405.9900093078613	
323	298.294677734375	picture	0		171	321.0	/experiments/Knapen_AOT/AOT_stimuli/pictures/0266_fw.png	406.0065407752991	1.4333693981170654
323	299.7115225791931	response	0	k		321.0	/experiments/Knapen_AOT/AOT_stimuli/pictures/0266_fw.png	407.4233856201172	
324	299.72804713249207	picture	0		87	322.0	/experiments/Knapen_AOT/AOT_stimuli/pictures/0156_fw.png	407.43991017341614	0.7333207130432129
324	300.4383625984192	response	0	k		322.0	/experiments/Knapen_AOT/AOT_stimuli/pictures/0156_fw.png	408.15022563934326	
325	300.4613678455353	picture	0		84	323.0	/experiments/Knapen_AOT/AOT_stimuli/pictures/1477_fw.png	408.17323088645935	0.7003564834594727
325	301.1531813144684	response	0	j		323.0	/experiments/Knapen_AOT/AOT_stimuli/pictures/1477_fw.png	408.86504435539246	
326	301.16172432899475	picture	0		130	324.0	/experiments/Knapen_AOT/AOT_stimuli/pictures/2166_fw.png	408.8735873699188	1.091318130493164
326	302.2299485206604	response	0	j		324.0	/experiments/Knapen_AOT/AOT_stimuli/pictures/2166_fw.png	409.9418115615845	
327	302.2530424594879	picture	0		82	325.0	/experiments/Knapen_AOT/AOT_stimuli/pictures/1610_fw.png	409.964905500412	0.6916840076446533
327	302.9282212257385	response	0	k		325.0	/experiments/Knapen_AOT/AOT_stimuli/pictures/1610_fw.png	410.6400842666626	
328	302.94472646713257	picture	0		84	326.0	/experiments/Knapen_AOT/AOT_stimuli/pictures/1133_fw.png	410.65658950805664	0.7031433582305908
328	303.6291756629944	response	0	k		326.0	/experiments/Knapen_AOT/AOT_stimuli/pictures/1133_fw.png	411.34103870391846	
329	303.64786982536316	picture	0		135	327.0	/experiments/Knapen_AOT/AOT_stimuli/pictures/2074_fw.png	411.35973286628723	1.1302409172058105
329	304.76155829429626	response	0	k		327.0	/experiments/Knapen_AOT/AOT_stimuli/pictures/2074_fw.png	412.47342133522034	
330	304.77811074256897	picture	0		100	328.0	/experiments/Knapen_AOT/AOT_stimuli/pictures/0505_fw.png	412.48997378349304	0.8416967391967773
330	305.6032555103302	response	0	k		328.0	/experiments/Knapen_AOT/AOT_stimuli/pictures/0505_fw.png	413.3151185512543	
331	305.61980748176575	picture	0		112	329.0	/experiments/Knapen_AOT/AOT_stimuli/pictures/1831_fw.png	413.3316705226898	0.9416532516479492
331	306.54489302635193	response	0	k		329.0	/experiments/Knapen_AOT/AOT_stimuli/pictures/1831_fw.png	414.256756067276	
332	306.5614607334137	picture	0		99	330.0	/experiments/Knapen_AOT/AOT_stimuli/pictures/0497_fw.png	414.27332377433777	0.8333702087402344
332	307.37828063964844	response	0	j		330.0	/experiments/Knapen_AOT/AOT_stimuli/pictures/0497_fw.png	415.0901436805725	
333	307.39483094215393	picture	0		144	331.0	/experiments/Knapen_AOT/AOT_stimuli/pictures/1243_fw.png	415.106693983078	1.2083003520965576
333	308.58662033081055	response	0	j		331.0	/experiments/Knapen_AOT/AOT_stimuli/pictures/1243_fw.png	416.2984833717346	
334	308.6031312942505	picture	0		93	332.0	/experiments/Knapen_AOT/AOT_stimuli/pictures/0670_fw.png	416.31499433517456	0.7833573818206787
334	309.3699383735657	response	0	k		332.0	/experiments/Knapen_AOT/AOT_stimuli/pictures/0670_fw.png	417.08180141448975	
335	309.38648867607117	picture	0		109	333.0	/experiments/Knapen_AOT/AOT_stimuli/pictures/1586_fw.png	417.09835171699524	0.9166877269744873
335	310.28662395477295	response	0	k		333.0	/experiments/Knapen_AOT/AOT_stimuli/pictures/1586_fw.png	417.998486995697	
336	310.30317640304565	picture	0		132	334.0	/experiments/Knapen_AOT/AOT_stimuli/pictures/0674_fw.png	418.0150394439697	1.1083269119262695
336	311.39503026008606	response	0	k		334.0	/experiments/Knapen_AOT/AOT_stimuli/pictures/0674_fw.png	419.10689330101013	
337	311.4115033149719	picture	0		97	335.0	/experiments/Knapen_AOT/AOT_stimuli/pictures/0318_fw.png	419.123366355896	0.812791109085083
337	312.20538687705994	response	0	k		335.0	/experiments/Knapen_AOT/AOT_stimuli/pictures/0318_fw.png	419.917249917984	
338	312.224294424057	picture	0		159	336.0	/experiments/Knapen_AOT/AOT_stimuli/pictures/2144_fw.png	419.9361574649811	1.3373713493347168
338	313.54501461982727	response	0	k		336.0	/experiments/Knapen_AOT/AOT_stimuli/pictures/2144_fw.png	421.25687766075134	
339	313.5616657733917	picture	0		97	337.0	/experiments/Knapen_AOT/AOT_stimuli/pictures/2130_fw.png	421.2735288143158	0.8165256977081299
339	314.3619029521942	response	0	k		337.0	/experiments/Knapen_AOT/AOT_stimuli/pictures/2130_fw.png	422.0737659931183	
340	314.37819147109985	picture	0		145	338.0	/experiments/Knapen_AOT/AOT_stimuli/pictures/0592_fw.png	422.0900545120239	1.2167091369628906
340	315.5784149169922	response	0	j		338.0	/experiments/Knapen_AOT/AOT_stimuli/pictures/0592_fw.png	423.29027795791626	
341	315.59490060806274	picture	0		141	339.0	/experiments/Knapen_AOT/AOT_stimuli/pictures/0152_fw.png	423.3067636489868	1.1780526638031006
341	316.7617230415344	response	0	j		339.0	/experiments/Knapen_AOT/AOT_stimuli/pictures/0152_fw.png	424.4735860824585	
342	316.77295327186584	picture	0		96	340.0	/experiments/Knapen_AOT/AOT_stimuli/pictures/0840_fw.png	424.4848163127899	0.7986326217651367
342	317.5617871284485	response	0	k		340.0	/experiments/Knapen_AOT/AOT_stimuli/pictures/0840_fw.png	425.27365016937256	
343	317.571585893631	picture	0		175	341.0	/experiments/Knapen_AOT/AOT_stimuli/pictures/1649_fw.png	425.28344893455505	1.465097427368164
343	319.02007842063904	response	0	k		341.0	/experiments/Knapen_AOT/AOT_stimuli/pictures/1649_fw.png	426.7319414615631	
344	319.03668332099915	picture	0		86	342.0	/experiments/Knapen_AOT/AOT_stimuli/pictures/0302_fw.png	426.7485463619232	0.7224326133728027
344	319.7450759410858	response	0	j		342.0	/experiments/Knapen_AOT/AOT_stimuli/pictures/0302_fw.png	427.4569389820099	
345	319.75911593437195	picture	0		121	343.0	/experiments/Knapen_AOT/AOT_stimuli/pictures/1647_fw.png	427.470978975296	1.0191845893859863
345	320.7618272304535	response	0	k		343.0	/experiments/Knapen_AOT/AOT_stimuli/pictures/1647_fw.png	428.47369027137756	
346	320.77830052375793	picture	0		84	344.0	/experiments/Knapen_AOT/AOT_stimuli/pictures/1538_fw.png	428.490163564682	0.7083203792572021
346	321.4702949523926	response	0	k		344.0	/experiments/Knapen_AOT/AOT_stimuli/pictures/1538_fw.png	429.18215799331665	
347	321.48662090301514	picture	0		95	345.0	/experiments/Knapen_AOT/AOT_stimuli/pictures/0981_fw.png	429.1984839439392	0.7933955192565918
347	322.2701299190521	response	0	j		345.0	/experiments/Knapen_AOT/AOT_stimuli/pictures/0981_fw.png	429.9819929599762	
348	322.28001642227173	picture	0		92	346.0	/experiments/Knapen_AOT/AOT_stimuli/pictures/0263_fw.png	429.9918794631958	0.7733290195465088
348	323.0370590686798	response	0	j		346.0	/experiments/Knapen_AOT/AOT_stimuli/pictures/0263_fw.png	430.7489221096039	
349	323.05334544181824	picture	0		110	347.0	/experiments/Knapen_AOT/AOT_stimuli/pictures/1411_fw.png	430.7652084827423	0.925060510635376
349	323.9617931842804	response	0	j		347.0	/experiments/Knapen_AOT/AOT_stimuli/pictures/1411_fw.png	431.67365622520447	
350	323.9784059524536	picture	0		104	348.0	/experiments/Knapen_AOT/AOT_stimuli/pictures/1736_fw.png	431.6902689933777	0.8710165023803711
350	324.83689069747925	response	0	j		348.0	/experiments/Knapen_AOT/AOT_stimuli/pictures/1736_fw.png	432.5487537384033	
351	324.849422454834	picture	0		100	349.0	/experiments/Knapen_AOT/AOT_stimuli/pictures/0215_fw.png	432.56128549575806	0.8372750282287598
351	325.67015385627747	response	0	k		349.0	/experiments/Knapen_AOT/AOT_stimuli/pictures/0215_fw.png	433.38201689720154	
352	325.68669748306274	picture	0		148	350.0	/experiments/Knapen_AOT/AOT_stimuli/pictures/1473_fw.png	433.3985605239868	1.2416820526123047
352	326.91186261177063	response	0	k		350.0	/experiments/Knapen_AOT/AOT_stimuli/pictures/1473_fw.png	434.6237256526947	
353	326.92837953567505	picture	0		83	351.0	/experiments/Knapen_AOT/AOT_stimuli/pictures/1550_fw.png	434.6402425765991	0.6999897956848145
353	327.6119055747986	response	0	j		351.0	/experiments/Knapen_AOT/AOT_stimuli/pictures/1550_fw.png	435.32376861572266	
354	327.62836933135986	picture	0		111	352.0	/experiments/Knapen_AOT/AOT_stimuli/pictures/1360_fw.png	435.34023237228394	0.9333686828613281
354	328.5452711582184	response	0	j		352.0	/experiments/Knapen_AOT/AOT_stimuli/pictures/1360_fw.png	436.25713419914246	
355	328.5617380142212	picture	0		99	353.0	/experiments/Knapen_AOT/AOT_stimuli/pictures/1267_fw.png	436.27360105514526	0.8293375968933105
355	329.37857937812805	response	0	j		353.0	/experiments/Knapen_AOT/AOT_stimuli/pictures/1267_fw.png	437.0904424190521	
356	329.3910756111145	picture	0		88	354.0	/experiments/Knapen_AOT/AOT_stimuli/pictures/1290_fw.png	437.1029386520386	0.745680570602417
356	330.12021231651306	response	0	k		354.0	/experiments/Knapen_AOT/AOT_stimuli/pictures/1290_fw.png	437.83207535743713	
357	330.1367561817169	picture	0		88	355.0	/experiments/Knapen_AOT/AOT_stimuli/pictures/1933_fw.png	437.848619222641	0.7416574954986572
357	330.86185932159424	response	0	k		355.0	/experiments/Knapen_AOT/AOT_stimuli/pictures/1933_fw.png	438.5737223625183	
358	330.8784136772156	picture	0		96	356.0	/experiments/Knapen_AOT/AOT_stimuli/pictures/1034_fw.png	438.59027671813965	0.8043603897094727
358	331.67022681236267	response	0	k		356.0	/experiments/Knapen_AOT/AOT_stimuli/pictures/1034_fw.png	439.38208985328674	
359	331.68277406692505	picture	0		133	357.0	/experiments/Knapen_AOT/AOT_stimuli/pictures/1855_fw.png	439.3946371078491	1.1181063652038574
359	332.7869083881378	response	0	j		357.0	/experiments/Knapen_AOT/AOT_stimuli/pictures/1855_fw.png	440.4987714290619	
360	332.8008804321289	picture	0		142	358.0	/experiments/Knapen_AOT/AOT_stimuli/pictures/1083_fw.png	440.512743473053	1.1942389011383057
360	333.9785952568054	response	0	j		358.0	/experiments/Knapen_AOT/AOT_stimuli/pictures/1083_fw.png	441.6904582977295	
361	333.9951193332672	picture	0		101	359.0	/experiments/Knapen_AOT/AOT_stimuli/pictures/0895_fw.png	441.7069823741913	0.8500244617462158
361	334.82103657722473	response	0	k		359.0	/experiments/Knapen_AOT/AOT_stimuli/pictures/0895_fw.png	442.5328996181488	
362	334.8451437950134	stim	0		849			442.5570068359375	7.094416379928589
362	341.91956400871277	response	0	space				449.63142704963684	
