trial_nr	onset	event_type	phase	response	nr_frames	picture_index	picture_file	onset_abs	duration
0	0.2081589698791504	stim	0		525			152.26571798324585	4.42545485496521
0	4.589313983917236	response	0	space				156.64687299728394	
2	4.63361382484436	picture	0		181	0.0	/experiments/knapen_AOT/AOT_stimuli/pictures/0223_fw.png	156.69117283821106	1.5330111980438232
2	6.133435010910034	response	0	j		0.0	/experiments/knapen_AOT/AOT_stimuli/pictures/0223_fw.png	158.19099402427673	
3	6.166625022888184	picture	0		101	1.0	/experiments/knapen_AOT/AOT_stimuli/pictures/0689_fw.png	158.22418403625488	0.8676128387451172
3	7.0000388622283936	response	0	j		1.0	/experiments/knapen_AOT/AOT_stimuli/pictures/0689_fw.png	159.0575978755951	
4	7.034237861633301	picture	0		100	2.0	/experiments/knapen_AOT/AOT_stimuli/pictures/1926_fw.png	159.091796875	0.8611199855804443
4	7.85837984085083	response	0	k		2.0	/experiments/knapen_AOT/AOT_stimuli/pictures/1926_fw.png	159.91593885421753	
5	7.895357847213745	picture	0		95	3.0	/experiments/knapen_AOT/AOT_stimuli/pictures/1322_fw.png	159.95291686058044	0.8296780586242676
5	8.675166845321655	response	0	j		3.0	/experiments/knapen_AOT/AOT_stimuli/pictures/1322_fw.png	160.73272585868835	
6	8.725035905838013	picture	0		91	4.0	/experiments/knapen_AOT/AOT_stimuli/pictures/1910_fw.png	160.7825949192047	0.7832520008087158
6	9.475075006484985	response	0	j		4.0	/experiments/knapen_AOT/AOT_stimuli/pictures/1910_fw.png	161.53263401985168	
7	9.508287906646729	picture	0		101	5.0	/experiments/knapen_AOT/AOT_stimuli/pictures/0982_fw.png	161.56584692001343	0.8666529655456543
7	10.341851949691772	response	0	k		5.0	/experiments/knapen_AOT/AOT_stimuli/pictures/0982_fw.png	162.39941096305847	
8	10.374940872192383	picture	0		111	6.0	/experiments/knapen_AOT/AOT_stimuli/pictures/0392_fw.png	162.43249988555908	0.951045036315918
8	11.291776895523071	response	0	j		6.0	/experiments/knapen_AOT/AOT_stimuli/pictures/0392_fw.png	163.34933590888977	
9	11.3259859085083	picture	0		99	7.0	/experiments/knapen_AOT/AOT_stimuli/pictures/1171_fw.png	163.383544921875	0.8490071296691895
9	12.141832828521729	response	0	k		7.0	/experiments/knapen_AOT/AOT_stimuli/pictures/1171_fw.png	164.19939184188843	
10	12.17499303817749	picture	0		92	8.0	/experiments/knapen_AOT/AOT_stimuli/pictures/1567_fw.png	164.2325520515442	0.7917289733886719
10	12.933473825454712	response	0	k		8.0	/experiments/knapen_AOT/AOT_stimuli/pictures/1567_fw.png	164.9910328388214	
11	12.966722011566162	picture	0		83	9.0	/experiments/knapen_AOT/AOT_stimuli/pictures/1684_fw.png	165.02428102493286	0.6999578475952148
11	13.65028190612793	response	0	j		9.0	/experiments/knapen_AOT/AOT_stimuli/pictures/1684_fw.png	165.70784091949463	
12	13.666679859161377	picture	0		112	10.0	/experiments/knapen_AOT/AOT_stimuli/pictures/0822_fw.png	165.72423887252808	0.9583351612091064
12	14.59195590019226	response	0	j		10.0	/experiments/knapen_AOT/AOT_stimuli/pictures/0822_fw.png	166.64951491355896	
13	14.625015020370483	picture	0		226	11.0	/experiments/knapen_AOT/AOT_stimuli/pictures/1129_fw.png	166.68257403373718	1.9092049598693848
13	16.500205993652344	response	0	j		11.0	/experiments/knapen_AOT/AOT_stimuli/pictures/1129_fw.png	168.55776500701904	
14	16.534219980239868	picture	0		87	12.0	/experiments/knapen_AOT/AOT_stimuli/pictures/2094_fw.png	168.59177899360657	0.7408769130706787
14	17.250277996063232	response	0	k		12.0	/experiments/knapen_AOT/AOT_stimuli/pictures/2094_fw.png	169.30783700942993	
15	17.275096893310547	picture	0		91	13.0	/experiments/knapen_AOT/AOT_stimuli/pictures/0664_fw.png	169.33265590667725	0.783405065536499
15	18.01880192756653	response	0	k		13.0	/experiments/knapen_AOT/AOT_stimuli/pictures/0664_fw.png	170.07636094093323	
16	18.058501958847046	picture	0		96	14.0	/experiments/knapen_AOT/AOT_stimuli/pictures/0997_fw.png	170.11606097221375	0.8250138759613037
16	18.867028951644897	response	0	k		14.0	/experiments/knapen_AOT/AOT_stimuli/pictures/0997_fw.png	170.9245879650116	
17	18.88351583480835	picture	0		108	15.0	/experiments/knapen_AOT/AOT_stimuli/pictures/1803_fw.png	170.94107484817505	0.9249181747436523
17	19.775182008743286	response	0	j		15.0	/experiments/knapen_AOT/AOT_stimuli/pictures/1803_fw.png	171.83274102210999	
18	19.808434009552002	picture	0		89	16.0	/experiments/knapen_AOT/AOT_stimuli/pictures/0264_fw.png	171.8659930229187	0.7677059173583984
18	20.54189395904541	response	0	k		16.0	/experiments/knapen_AOT/AOT_stimuli/pictures/0264_fw.png	172.5994529724121	
19	20.5761399269104	picture	0		91	17.0	/experiments/knapen_AOT/AOT_stimuli/pictures/0628_fw.png	172.6336989402771	0.7823059558868408
19	21.325294017791748	response	0	k		17.0	/experiments/knapen_AOT/AOT_stimuli/pictures/0628_fw.png	173.38285303115845	
20	21.35844588279724	picture	0		92	18.0	/experiments/knapen_AOT/AOT_stimuli/pictures/1901_fw.png	173.41600489616394	0.7939481735229492
20	22.117085933685303	response	0	j		18.0	/experiments/knapen_AOT/AOT_stimuli/pictures/1901_fw.png	174.174644947052	
21	22.15239405632019	picture	0		83	19.0	/experiments/knapen_AOT/AOT_stimuli/pictures/1665_fw.png	174.2099530696869	0.7154638767242432
21	22.82682991027832	response	0	j		19.0	/experiments/knapen_AOT/AOT_stimuli/pictures/1665_fw.png	174.88438892364502	
22	22.867857933044434	picture	0		76	20.0	/experiments/knapen_AOT/AOT_stimuli/pictures/0326_fw.png	174.92541694641113	0.6572780609130859
22	23.491941928863525	response	0	k		20.0	/experiments/knapen_AOT/AOT_stimuli/pictures/0326_fw.png	175.54950094223022	
23	23.52513599395752	picture	0		88	21.0	/experiments/knapen_AOT/AOT_stimuli/pictures/0160_fw.png	175.58269500732422	0.7592439651489258
23	24.250351905822754	response	0	k		21.0	/experiments/knapen_AOT/AOT_stimuli/pictures/0160_fw.png	176.30791091918945	
24	24.284379959106445	picture	0		85	22.0	/experiments/knapen_AOT/AOT_stimuli/pictures/1154_fw.png	176.34193897247314	0.7324419021606445
24	24.983670949935913	response	0	j		22.0	/experiments/knapen_AOT/AOT_stimuli/pictures/1154_fw.png	177.0412299633026	
25	25.01682186126709	picture	0		82	23.0	/experiments/knapen_AOT/AOT_stimuli/pictures/2162_fw.png	177.0743808746338	0.7083151340484619
25	25.691930055618286	response	0	k		23.0	/experiments/knapen_AOT/AOT_stimuli/pictures/2162_fw.png	177.74948906898499	
26	25.72513699531555	picture	0		88	24.0	/experiments/knapen_AOT/AOT_stimuli/pictures/1648_fw.png	177.78269600868225	0.760800838470459
26	26.45046091079712	response	0	k		24.0	/experiments/knapen_AOT/AOT_stimuli/pictures/1648_fw.png	178.50801992416382	
27	26.48593783378601	picture	0		83	25.0	/experiments/knapen_AOT/AOT_stimuli/pictures/0475_fw.png	178.5434968471527	0.7152540683746338
27	27.167129039764404	response	0	j		25.0	/experiments/knapen_AOT/AOT_stimuli/pictures/0475_fw.png	179.2246880531311	
28	27.201191902160645	picture	0		84	26.0	/experiments/knapen_AOT/AOT_stimuli/pictures/0885_fw.png	179.25875091552734	0.724013090133667
28	27.891993045806885	response	0	j		26.0	/experiments/knapen_AOT/AOT_stimuli/pictures/0885_fw.png	179.94955205917358	
29	27.92520499229431	picture	0		70	27.0	/experiments/knapen_AOT/AOT_stimuli/pictures/0092_fw.png	179.982764005661	0.6092078685760498
29	28.500298023223877	response	0	k		27.0	/experiments/knapen_AOT/AOT_stimuli/pictures/0092_fw.png	180.55785703659058	
30	28.53441286087036	picture	0		88	28.0	/experiments/knapen_AOT/AOT_stimuli/pictures/1938_fw.png	180.59197187423706	0.7575221061706543
30	29.25865387916565	response	0	j		28.0	/experiments/knapen_AOT/AOT_stimuli/pictures/1938_fw.png	181.31621289253235	
31	29.291934967041016	picture	0		82	29.0	/experiments/knapen_AOT/AOT_stimuli/pictures/1718_fw.png	181.34949398040771	0.7082579135894775
31	29.967038869857788	response	0	k		29.0	/experiments/knapen_AOT/AOT_stimuli/pictures/1718_fw.png	182.0245978832245	
32	30.000192880630493	picture	0		87	30.0	/experiments/knapen_AOT/AOT_stimuli/pictures/1870_fw.png	182.0577518939972	0.7500050067901611
32	30.71704888343811	response	0	j		30.0	/experiments/knapen_AOT/AOT_stimuli/pictures/1870_fw.png	182.7746078968048	
33	30.750197887420654	picture	0		83	31.0	/experiments/knapen_AOT/AOT_stimuli/pictures/0721_fw.png	182.80775690078735	0.7009410858154297
33	31.4269540309906	response	0	j		31.0	/experiments/knapen_AOT/AOT_stimuli/pictures/0721_fw.png	183.4845130443573	
34	31.451138973236084	picture	0		79	32.0	/experiments/knapen_AOT/AOT_stimuli/pictures/1721_fw.png	183.50869798660278	0.6825129985809326
34	32.100353956222534	response	0	k		32.0	/experiments/knapen_AOT/AOT_stimuli/pictures/1721_fw.png	184.15791296958923	
35	32.13365197181702	picture	0		89	33.0	/experiments/knapen_AOT/AOT_stimuli/pictures/1752_fw.png	184.19121098518372	0.7619619369506836
35	32.86720085144043	response	0	j		33.0	/experiments/knapen_AOT/AOT_stimuli/pictures/1752_fw.png	184.92475986480713	
36	32.8956139087677	picture	0		82	34.0	/experiments/knapen_AOT/AOT_stimuli/pictures/1952_fw.png	184.9531729221344	0.7046270370483398
36	33.56706404685974	response	0	j		34.0	/experiments/knapen_AOT/AOT_stimuli/pictures/1952_fw.png	185.62462306022644	
37	33.60024094581604	picture	0		108	35.0	/experiments/knapen_AOT/AOT_stimuli/pictures/0116_fw.png	185.65779995918274	0.927386999130249
37	34.4920928478241	response	0	j		35.0	/experiments/knapen_AOT/AOT_stimuli/pictures/0116_fw.png	186.5496518611908	
38	34.52762794494629	picture	0		96	36.0	/experiments/knapen_AOT/AOT_stimuli/pictures/1004_fw.png	186.585186958313	0.8226399421691895
38	35.31707692146301	response	0	j		36.0	/experiments/knapen_AOT/AOT_stimuli/pictures/1004_fw.png	187.3746359348297	
39	35.35026788711548	picture	0		97	37.0	/experiments/knapen_AOT/AOT_stimuli/pictures/0363_fw.png	187.40782690048218	0.8417260646820068
39	36.15041184425354	response	0	j		37.0	/experiments/knapen_AOT/AOT_stimuli/pictures/0363_fw.png	188.20797085762024	
40	36.191993951797485	picture	0		101	38.0	/experiments/knapen_AOT/AOT_stimuli/pictures/1001_fw.png	188.24955296516418	0.8667089939117432
40	37.01860690116882	response	0	j		38.0	/experiments/knapen_AOT/AOT_stimuli/pictures/1001_fw.png	189.07616591453552	
41	37.05870294570923	picture	0		89	39.0	/experiments/knapen_AOT/AOT_stimuli/pictures/0563_fw.png	189.11626195907593	0.7674510478973389
41	37.792255878448486	response	0	j		39.0	/experiments/knapen_AOT/AOT_stimuli/pictures/0563_fw.png	189.84981489181519	
42	37.82615399360657	picture	0		93	40.0	/experiments/knapen_AOT/AOT_stimuli/pictures/1800_fw.png	189.88371300697327	0.7991428375244141
42	38.59225296974182	response	0	j		40.0	/experiments/knapen_AOT/AOT_stimuli/pictures/1800_fw.png	190.64981198310852	
43	38.62529683113098	picture	0		111	41.0	/experiments/knapen_AOT/AOT_stimuli/pictures/0639_fw.png	190.68285584449768	0.9509561061859131
43	39.54222583770752	response	0	k		41.0	/experiments/knapen_AOT/AOT_stimuli/pictures/0639_fw.png	191.59978485107422	
44	39.576252937316895	picture	0		80	42.0	/experiments/knapen_AOT/AOT_stimuli/pictures/0671_fw.png	191.6338119506836	0.6908578872680664
44	40.227237939834595	response	0	k		42.0	/experiments/knapen_AOT/AOT_stimuli/pictures/0671_fw.png	192.2847969532013	
45	40.26711082458496	picture	0		77	43.0	/experiments/knapen_AOT/AOT_stimuli/pictures/1399_fw.png	192.32466983795166	0.6749420166015625
45	40.90048003196716	response	0	j		43.0	/experiments/knapen_AOT/AOT_stimuli/pictures/1399_fw.png	192.95803904533386	
46	40.94205284118652	picture	0		86	44.0	/experiments/knapen_AOT/AOT_stimuli/pictures/0840_fw.png	192.99961185455322	0.7416760921478271
46	41.650553941726685	response	0	k		44.0	/experiments/knapen_AOT/AOT_stimuli/pictures/0840_fw.png	193.70811295509338	
47	41.68372893333435	picture	0		72	45.0	/experiments/knapen_AOT/AOT_stimuli/pictures/0562_fw.png	193.74128794670105	0.6285738945007324
47	42.27551484107971	response	0	j		45.0	/experiments/knapen_AOT/AOT_stimuli/pictures/0562_fw.png	194.3330738544464	
48	42.31230282783508	picture	0		85	46.0	/experiments/knapen_AOT/AOT_stimuli/pictures/1581_fw.png	194.36986184120178	0.7381742000579834
48	43.00885891914368	response	0	k		46.0	/experiments/knapen_AOT/AOT_stimuli/pictures/1581_fw.png	195.06641793251038	
49	43.050477027893066	picture	0		101	47.0	/experiments/knapen_AOT/AOT_stimuli/pictures/1828_fw.png	195.10803604125977	0.8521778583526611
49	43.88386082649231	response	0	k		47.0	/experiments/knapen_AOT/AOT_stimuli/pictures/1828_fw.png	195.941419839859	
50	43.90265488624573	picture	0		96	48.0	/experiments/knapen_AOT/AOT_stimuli/pictures/1722_fw.png	195.96021389961243	0.8227920532226562
50	44.69217085838318	response	0	k		48.0	/experiments/knapen_AOT/AOT_stimuli/pictures/1722_fw.png	196.74972987174988	
51	44.725446939468384	picture	0		95	49.0	/experiments/knapen_AOT/AOT_stimuli/pictures/1975_fw.png	196.78300595283508	0.8000450134277344
51	45.508877992630005	response	0	k		49.0	/experiments/knapen_AOT/AOT_stimuli/pictures/1975_fw.png	197.5664370059967	
52	45.52549195289612	picture	0		105	50.0	/experiments/knapen_AOT/AOT_stimuli/pictures/0230_fw.png	197.58305096626282	0.9000370502471924
52	46.39221000671387	response	0	k		50.0	/experiments/knapen_AOT/AOT_stimuli/pictures/0230_fw.png	198.44976902008057	
53	46.42552900314331	picture	0		102	51.0	/experiments/knapen_AOT/AOT_stimuli/pictures/0252_fw.png	198.48308801651	0.9082109928131104
53	47.267289876937866	response	0	k		51.0	/experiments/knapen_AOT/AOT_stimuli/pictures/0252_fw.png	199.32484889030457	
54	47.33373999595642	picture	0		70	52.0	/experiments/knapen_AOT/AOT_stimuli/pictures/0962_fw.png	199.39129900932312	0.6105489730834961
54	47.90895700454712	response	0	j		52.0	/experiments/knapen_AOT/AOT_stimuli/pictures/0962_fw.png	199.96651601791382	
55	47.94428896903992	picture	0		81	53.0	/experiments/knapen_AOT/AOT_stimuli/pictures/0544_fw.png	200.00184798240662	0.681251049041748
55	48.60889196395874	response	0	k		53.0	/experiments/knapen_AOT/AOT_stimuli/pictures/0544_fw.png	200.66645097732544	
56	48.625540018081665	picture	0		95	54.0	/experiments/knapen_AOT/AOT_stimuli/pictures/2057_fw.png	200.68309903144836	0.8187270164489746
56	49.40904903411865	response	0	k		54.0	/experiments/knapen_AOT/AOT_stimuli/pictures/2057_fw.png	201.46660804748535	
57	49.44426703453064	picture	0		75	55.0	/experiments/knapen_AOT/AOT_stimuli/pictures/0187_fw.png	201.50182604789734	0.6478769779205322
57	50.05892205238342	response	0	j		55.0	/experiments/knapen_AOT/AOT_stimuli/pictures/0187_fw.png	202.11648106575012	
58	50.09214401245117	picture	0		96	56.0	/experiments/knapen_AOT/AOT_stimuli/pictures/0976_fw.png	202.14970302581787	0.8175239562988281
58	50.88395285606384	response	0	k		56.0	/experiments/knapen_AOT/AOT_stimuli/pictures/0976_fw.png	202.94151186943054	
59	50.90966796875	picture	0		90	57.0	/experiments/knapen_AOT/AOT_stimuli/pictures/0065_fw.png	202.9672269821167	0.7741348743438721
59	51.65075087547302	response	0	j		57.0	/experiments/knapen_AOT/AOT_stimuli/pictures/0065_fw.png	203.70830988883972	
60	51.68380284309387	picture	0		81	58.0	/experiments/knapen_AOT/AOT_stimuli/pictures/0828_fw.png	203.74136185646057	0.7000501155853271
60	52.35062503814697	response	0	k		58.0	/experiments/knapen_AOT/AOT_stimuli/pictures/0828_fw.png	204.40818405151367	
61	52.3838529586792	picture	0		110	59.0	/experiments/knapen_AOT/AOT_stimuli/pictures/1547_fw.png	204.4414119720459	0.9250190258026123
61	53.292325019836426	response	0	j		59.0	/experiments/knapen_AOT/AOT_stimuli/pictures/1547_fw.png	205.34988403320312	
62	53.30887198448181	picture	0		129	60.0	/experiments/knapen_AOT/AOT_stimuli/pictures/1712_fw.png	205.3664309978485	1.100005865097046
62	54.37577795982361	response	0	k		60.0	/experiments/knapen_AOT/AOT_stimuli/pictures/1712_fw.png	206.4333369731903	
63	54.40887784957886	picture	0		81	61.0	/experiments/knapen_AOT/AOT_stimuli/pictures/1593_fw.png	206.46643686294556	0.7021520137786865
63	55.07578086853027	response	0	k		61.0	/experiments/knapen_AOT/AOT_stimuli/pictures/1593_fw.png	207.13333988189697	
64	55.111029863357544	picture	0		89	62.0	/experiments/knapen_AOT/AOT_stimuli/pictures/0827_fw.png	207.16858887672424	0.7645280361175537
64	55.83554005622864	response	0	k		62.0	/experiments/knapen_AOT/AOT_stimuli/pictures/0827_fw.png	207.89309906959534	
65	55.8755578994751	picture	0		96	63.0	/experiments/knapen_AOT/AOT_stimuli/pictures/1137_fw.png	207.9331169128418	0.8257119655609131
65	56.66732382774353	response	0	j		63.0	/experiments/knapen_AOT/AOT_stimuli/pictures/1137_fw.png	208.72488284111023	
66	56.70126986503601	picture	0		121	64.0	/experiments/knapen_AOT/AOT_stimuli/pictures/1028_fw.png	208.7588288784027	1.0326299667358398
66	57.700830936431885	response	0	k		64.0	/experiments/knapen_AOT/AOT_stimuli/pictures/1028_fw.png	209.75838994979858	
67	57.73389983177185	picture	0		87	65.0	/experiments/knapen_AOT/AOT_stimuli/pictures/1970_fw.png	209.79145884513855	0.7521500587463379
67	58.44386601448059	response	0	j		65.0	/experiments/knapen_AOT/AOT_stimuli/pictures/1970_fw.png	210.5014250278473	
68	58.48604989051819	picture	0		82	66.0	/experiments/knapen_AOT/AOT_stimuli/pictures/0917_fw.png	210.5436089038849	0.7061820030212402
68	59.15904784202576	response	0	k		66.0	/experiments/knapen_AOT/AOT_stimuli/pictures/0917_fw.png	211.21660685539246	
69	59.19223189353943	picture	0		93	67.0	/experiments/knapen_AOT/AOT_stimuli/pictures/0813_fw.png	211.24979090690613	0.8007240295410156
69	59.95904994010925	response	0	k		67.0	/experiments/knapen_AOT/AOT_stimuli/pictures/0813_fw.png	212.01660895347595	
70	59.992955923080444	picture	0		80	68.0	/experiments/knapen_AOT/AOT_stimuli/pictures/0415_fw.png	212.05051493644714	0.6944799423217773
70	60.64395999908447	response	0	k		68.0	/experiments/knapen_AOT/AOT_stimuli/pictures/0415_fw.png	212.70151901245117	
71	60.68743586540222	picture	0		115	69.0	/experiments/knapen_AOT/AOT_stimuli/pictures/0195_fw.png	212.74499487876892	0.9723830223083496
71	61.62775683403015	response	0	j		69.0	/experiments/knapen_AOT/AOT_stimuli/pictures/0195_fw.png	213.68531584739685	
72	61.65981888771057	picture	0		89	70.0	/experiments/knapen_AOT/AOT_stimuli/pictures/1408_fw.png	213.71737790107727	0.765800952911377
72	62.392436027526855	response	0	k		70.0	/experiments/knapen_AOT/AOT_stimuli/pictures/1408_fw.png	214.44999504089355	
73	62.42561984062195	picture	0		89	71.0	/experiments/knapen_AOT/AOT_stimuli/pictures/0863_fw.png	214.48317885398865	0.7687540054321289
73	63.15914988517761	response	0	j		71.0	/experiments/knapen_AOT/AOT_stimuli/pictures/0863_fw.png	215.2167088985443	
74	63.19437384605408	picture	0		83	72.0	/experiments/knapen_AOT/AOT_stimuli/pictures/0405_fw.png	215.25193285942078	0.7395939826965332
74	63.900774002075195	response	0	j		72.0	/experiments/knapen_AOT/AOT_stimuli/pictures/0405_fw.png	215.9583330154419	
75	63.93396782875061	picture	0		81	73.0	/experiments/knapen_AOT/AOT_stimuli/pictures/0720_fw.png	215.9915268421173	0.6840121746063232
75	64.60079097747803	response	0	k		73.0	/experiments/knapen_AOT/AOT_stimuli/pictures/0720_fw.png	216.65834999084473	
76	64.61798000335693	picture	0		73	74.0	/experiments/knapen_AOT/AOT_stimuli/pictures/1401_fw.png	216.67553901672363	0.632828950881958
76	65.21751689910889	response	0	j		74.0	/experiments/knapen_AOT/AOT_stimuli/pictures/1401_fw.png	217.2750759124756	
77	65.25080895423889	picture	0		84	75.0	/experiments/knapen_AOT/AOT_stimuli/pictures/0653_fw.png	217.3083679676056	0.7081918716430664
77	65.94245100021362	response	0	j		75.0	/experiments/knapen_AOT/AOT_stimuli/pictures/0653_fw.png	218.00001001358032	
78	65.95900082588196	picture	0		84	76.0	/experiments/knapen_AOT/AOT_stimuli/pictures/0587_fw.png	218.01655983924866	0.7249910831451416
78	66.64397883415222	response	0	j		76.0	/experiments/knapen_AOT/AOT_stimuli/pictures/0587_fw.png	218.70153784751892	
79	66.6839919090271	picture	0		87	77.0	/experiments/knapen_AOT/AOT_stimuli/pictures/1972_fw.png	218.7415509223938	0.7534761428833008
79	67.40085101127625	response	0	j		77.0	/experiments/knapen_AOT/AOT_stimuli/pictures/1972_fw.png	219.45841002464294	
80	67.4374680519104	picture	0		108	78.0	/experiments/knapen_AOT/AOT_stimuli/pictures/2082_fw.png	219.4950270652771	0.9236838817596436
80	68.32650303840637	response	0	k		78.0	/experiments/knapen_AOT/AOT_stimuli/pictures/2082_fw.png	220.38406205177307	
81	68.36115193367004	picture	0		77	79.0	/experiments/knapen_AOT/AOT_stimuli/pictures/0346_fw.png	220.41871094703674	0.6667940616607666
81	68.99321389198303	response	0	j		79.0	/experiments/knapen_AOT/AOT_stimuli/pictures/0346_fw.png	221.05077290534973	
82	69.02794599533081	picture	0		77	80.0	/experiments/knapen_AOT/AOT_stimuli/pictures/1963_fw.png	221.0855050086975	0.666489839553833
82	69.65995383262634	response	0	k		80.0	/experiments/knapen_AOT/AOT_stimuli/pictures/1963_fw.png	221.71751284599304	
83	69.69443583488464	picture	0		92	81.0	/experiments/knapen_AOT/AOT_stimuli/pictures/0193_fw.png	221.75199484825134	0.7917020320892334
83	70.4440529346466	response	0	j		81.0	/experiments/knapen_AOT/AOT_stimuli/pictures/0193_fw.png	222.5016119480133	
84	70.48613786697388	picture	0		88	82.0	/experiments/knapen_AOT/AOT_stimuli/pictures/1486_fw.png	222.54369688034058	0.7569780349731445
84	71.2092399597168	response	0	k		82.0	/experiments/knapen_AOT/AOT_stimuli/pictures/1486_fw.png	223.2667989730835	
85	71.24311590194702	picture	0		81	83.0	/experiments/knapen_AOT/AOT_stimuli/pictures/1588_fw.png	223.30067491531372	0.7014260292053223
85	71.90997505187988	response	0	j		83.0	/experiments/knapen_AOT/AOT_stimuli/pictures/1588_fw.png	223.96753406524658	
86	71.94454193115234	picture	0		84	84.0	/experiments/knapen_AOT/AOT_stimuli/pictures/0278_fw.png	224.00210094451904	0.7228620052337646
86	72.62780404090881	response	0	k		84.0	/experiments/knapen_AOT/AOT_stimuli/pictures/0278_fw.png	224.6853630542755	
87	72.66740393638611	picture	0		91	85.0	/experiments/knapen_AOT/AOT_stimuli/pictures/1585_fw.png	224.7249629497528	0.7702059745788574
87	73.41152882575989	response	0	k		85.0	/experiments/knapen_AOT/AOT_stimuli/pictures/1585_fw.png	225.4690878391266	
88	73.43760991096497	picture	0		87	86.0	/experiments/knapen_AOT/AOT_stimuli/pictures/2038_fw.png	225.49516892433167	0.7464821338653564
88	74.15088295936584	response	0	j		86.0	/experiments/knapen_AOT/AOT_stimuli/pictures/2038_fw.png	226.20844197273254	
89	74.18409204483032	picture	0		101	87.0	/experiments/knapen_AOT/AOT_stimuli/pictures/1248_fw.png	226.24165105819702	0.8667600154876709
89	75.01099491119385	response	0	k		87.0	/experiments/knapen_AOT/AOT_stimuli/pictures/1248_fw.png	227.06855392456055	
90	75.050852060318	picture	0		76	88.0	/experiments/knapen_AOT/AOT_stimuli/pictures/0261_fw.png	227.1084110736847	0.6582469940185547
90	75.67607593536377	response	0	k		88.0	/experiments/knapen_AOT/AOT_stimuli/pictures/0261_fw.png	227.73363494873047	
91	75.70909905433655	picture	0		85	89.0	/experiments/knapen_AOT/AOT_stimuli/pictures/0679_fw.png	227.76665806770325	0.7354528903961182
91	76.4099600315094	response	0	k		89.0	/experiments/knapen_AOT/AOT_stimuli/pictures/0679_fw.png	228.4675190448761	
92	76.44455194473267	picture	0		76	90.0	/experiments/knapen_AOT/AOT_stimuli/pictures/1525_fw.png	228.50211095809937	0.6563189029693604
92	77.06762599945068	response	0	k		90.0	/experiments/knapen_AOT/AOT_stimuli/pictures/1525_fw.png	229.12518501281738	
93	77.10087084770203	picture	0		100	91.0	/experiments/knapen_AOT/AOT_stimuli/pictures/1896_fw.png	229.15842986106873	0.8582630157470703
93	77.92605400085449	response	0	k		91.0	/experiments/knapen_AOT/AOT_stimuli/pictures/1896_fw.png	229.9836130142212	
94	77.9591338634491	picture	0		82	92.0	/experiments/knapen_AOT/AOT_stimuli/pictures/1541_fw.png	230.0166928768158	0.6938741207122803
94	78.62761092185974	response	0	k		92.0	/experiments/knapen_AOT/AOT_stimuli/pictures/1541_fw.png	230.68516993522644	
95	78.65300798416138	picture	0		76	93.0	/experiments/knapen_AOT/AOT_stimuli/pictures/1887_fw.png	230.71056699752808	0.6561498641967773
95	79.27609992027283	response	0	k		93.0	/experiments/knapen_AOT/AOT_stimuli/pictures/1887_fw.png	231.33365893363953	
96	79.30915784835815	picture	0		84	94.0	/experiments/knapen_AOT/AOT_stimuli/pictures/1662_fw.png	231.36671686172485	0.7256810665130615
96	80.00096988677979	response	0	k		94.0	/experiments/knapen_AOT/AOT_stimuli/pictures/1662_fw.png	232.05852890014648	
97	80.03483891487122	picture	0		155	95.0	/experiments/knapen_AOT/AOT_stimuli/pictures/0030_fw.png	232.09239792823792	1.3194570541381836
97	81.31770896911621	response	0	k		95.0	/experiments/knapen_AOT/AOT_stimuli/pictures/0030_fw.png	233.3752679824829	
98	81.3542959690094	picture	0		108	96.0	/experiments/knapen_AOT/AOT_stimuli/pictures/1953_fw.png	233.4118549823761	0.9299309253692627
98	82.23588490486145	response	0	k		96.0	/experiments/knapen_AOT/AOT_stimuli/pictures/1953_fw.png	234.29344391822815	
99	82.28422689437866	picture	0		91	97.0	/experiments/knapen_AOT/AOT_stimuli/pictures/0274_fw.png	234.34178590774536	0.7854390144348145
99	83.0275399684906	response	0	k		97.0	/experiments/knapen_AOT/AOT_stimuli/pictures/0274_fw.png	235.0850989818573	
100	83.06966590881348	picture	0		93	98.0	/experiments/knapen_AOT/AOT_stimuli/pictures/1075_fw.png	235.12722492218018	0.7985079288482666
100	83.82825684547424	response	0	j		98.0	/experiments/knapen_AOT/AOT_stimuli/pictures/1075_fw.png	235.88581585884094	
101	83.86817383766174	picture	0		84	99.0	/experiments/knapen_AOT/AOT_stimuli/pictures/1900_fw.png	235.92573285102844	0.7244081497192383
101	84.55935287475586	response	0	k		99.0	/experiments/knapen_AOT/AOT_stimuli/pictures/1900_fw.png	236.61691188812256	
102	84.59258198738098	picture	0		68	100.0	/experiments/knapen_AOT/AOT_stimuli/pictures/0796_fw.png	236.65014100074768	0.5916428565979004
102	85.15104293823242	response	0	j		100.0	/experiments/knapen_AOT/AOT_stimuli/pictures/0796_fw.png	237.20860195159912	
103	85.18422484397888	picture	0		84	101.0	/experiments/knapen_AOT/AOT_stimuli/pictures/1494_fw.png	237.24178385734558	0.7256472110748291
103	85.8760929107666	response	0	j		101.0	/experiments/knapen_AOT/AOT_stimuli/pictures/1494_fw.png	237.9336519241333	
104	85.90987205505371	picture	0		81	102.0	/experiments/knapen_AOT/AOT_stimuli/pictures/0608_fw.png	237.9674310684204	0.7013688087463379
104	86.57666087150574	response	0	k		102.0	/experiments/knapen_AOT/AOT_stimuli/pictures/0608_fw.png	238.63421988487244	
105	86.61124086380005	picture	0		85	103.0	/experiments/knapen_AOT/AOT_stimuli/pictures/0857_fw.png	238.66879987716675	0.7397661209106445
105	87.3093810081482	response	0	k		103.0	/experiments/knapen_AOT/AOT_stimuli/pictures/0857_fw.png	239.3669400215149	
106	87.3510069847107	picture	0		74	104.0	/experiments/knapen_AOT/AOT_stimuli/pictures/0623_fw.png	239.4085659980774	0.6421608924865723
106	87.95941305160522	response	0	j		104.0	/experiments/knapen_AOT/AOT_stimuli/pictures/0623_fw.png	240.01697206497192	
107	87.99316787719727	picture	0		89	105.0	/experiments/knapen_AOT/AOT_stimuli/pictures/0543_fw.png	240.05072689056396	0.7708690166473389
107	88.72610282897949	response	0	k		105.0	/experiments/knapen_AOT/AOT_stimuli/pictures/0543_fw.png	240.7836618423462	
108	88.7640368938446	picture	0		77	106.0	/experiments/knapen_AOT/AOT_stimuli/pictures/0009_fw.png	240.8215959072113	0.6620039939880371
108	89.39286088943481	response	0	j		106.0	/experiments/knapen_AOT/AOT_stimuli/pictures/0009_fw.png	241.4504199028015	
109	89.42604088783264	picture	0		91	107.0	/experiments/knapen_AOT/AOT_stimuli/pictures/0516_fw.png	241.48359990119934	0.7832419872283936
109	90.17623805999756	response	0	j		107.0	/experiments/knapen_AOT/AOT_stimuli/pictures/0516_fw.png	242.23379707336426	
110	90.20928287506104	picture	0		77	108.0	/experiments/knapen_AOT/AOT_stimuli/pictures/1087_fw.png	242.26684188842773	0.6667129993438721
110	90.83595395088196	response	0	j		108.0	/experiments/knapen_AOT/AOT_stimuli/pictures/1087_fw.png	242.89351296424866	
111	90.87599587440491	picture	0		89	109.0	/experiments/knapen_AOT/AOT_stimuli/pictures/1564_fw.png	242.9335548877716	0.7667181491851807
111	91.60943794250488	response	0	j		109.0	/experiments/knapen_AOT/AOT_stimuli/pictures/1564_fw.png	243.66699695587158	
112	91.64271402359009	picture	0		113	110.0	/experiments/knapen_AOT/AOT_stimuli/pictures/0423_fw.png	243.7002730369568	0.9685549736022949
112	92.57674884796143	response	0	k		110.0	/experiments/knapen_AOT/AOT_stimuli/pictures/0423_fw.png	244.63430786132812	
113	92.61126899719238	picture	0		101	111.0	/experiments/knapen_AOT/AOT_stimuli/pictures/1124_fw.png	244.66882801055908	0.8647739887237549
113	93.4360179901123	response	0	k		111.0	/experiments/knapen_AOT/AOT_stimuli/pictures/1124_fw.png	245.493577003479	
114	93.47604298591614	picture	0		106	112.0	/experiments/knapen_AOT/AOT_stimuli/pictures/1323_fw.png	245.53360199928284	0.9083189964294434
114	94.35115385055542	response	0	j		112.0	/experiments/knapen_AOT/AOT_stimuli/pictures/1323_fw.png	246.40871286392212	
115	94.38436198234558	picture	0		100	113.0	/experiments/knapen_AOT/AOT_stimuli/pictures/1694_fw.png	246.44192099571228	0.8416738510131836
115	95.20328402519226	response	0	k		113.0	/experiments/knapen_AOT/AOT_stimuli/pictures/1694_fw.png	247.26084303855896	
116	95.22603583335876	picture	0		259	114.0	/experiments/knapen_AOT/AOT_stimuli/pictures/1335_fw.png	247.28359484672546	2.1750590801239014
116	97.37630105018616	response	0	j		114.0	/experiments/knapen_AOT/AOT_stimuli/pictures/1335_fw.png	249.43386006355286	
117	97.40109491348267	picture	0		139	115.0	/experiments/knapen_AOT/AOT_stimuli/pictures/0938_fw.png	249.45865392684937	1.1834080219268799
117	98.55129790306091	response	0	j		115.0	/experiments/knapen_AOT/AOT_stimuli/pictures/0938_fw.png	250.6088569164276	
118	98.58450293540955	picture	0		86	116.0	/experiments/knapen_AOT/AOT_stimuli/pictures/0941_fw.png	250.64206194877625	0.7421159744262695
118	99.29293704032898	response	0	j		116.0	/experiments/knapen_AOT/AOT_stimuli/pictures/0941_fw.png	251.35049605369568	
119	99.32661890983582	picture	0		83	117.0	/experiments/knapen_AOT/AOT_stimuli/pictures/0855_fw.png	251.38417792320251	0.7161531448364258
119	100.00960898399353	response	0	k		117.0	/experiments/knapen_AOT/AOT_stimuli/pictures/0855_fw.png	252.06716799736023	
120	100.04277205467224	picture	0		111	118.0	/experiments/knapen_AOT/AOT_stimuli/pictures/1708_fw.png	252.10033106803894	0.9505047798156738
120	100.95969104766846	response	0	k		118.0	/experiments/knapen_AOT/AOT_stimuli/pictures/1708_fw.png	253.01725006103516	
121	100.99327683448792	picture	0		104	119.0	/experiments/knapen_AOT/AOT_stimuli/pictures/1792_fw.png	253.05083584785461	0.8911881446838379
121	101.84475493431091	response	0	j		119.0	/experiments/knapen_AOT/AOT_stimuli/pictures/1792_fw.png	253.9023139476776	
122	101.88446497917175	picture	0		92	120.0	/experiments/knapen_AOT/AOT_stimuli/pictures/0737_fw.png	253.94202399253845	0.7963230609893799
122	102.63610982894897	response	0	k		120.0	/experiments/knapen_AOT/AOT_stimuli/pictures/0737_fw.png	254.69366884231567	
123	102.68078804016113	picture	0		110	121.0	/experiments/knapen_AOT/AOT_stimuli/pictures/0010_fw.png	254.73834705352783	0.9374828338623047
123	103.58465790748596	response	0	j		121.0	/experiments/knapen_AOT/AOT_stimuli/pictures/0010_fw.png	255.64221692085266	
124	103.61827087402344	picture	0		92	122.0	/experiments/knapen_AOT/AOT_stimuli/pictures/1733_fw.png	255.67582988739014	0.7917871475219727
124	104.37627100944519	response	0	j		122.0	/experiments/knapen_AOT/AOT_stimuli/pictures/1733_fw.png	256.4338300228119	
125	104.41005802154541	picture	0		73	123.0	/experiments/knapen_AOT/AOT_stimuli/pictures/0213_fw.png	256.4676170349121	0.6327760219573975
125	105.00966882705688	response	0	k		123.0	/experiments/knapen_AOT/AOT_stimuli/pictures/0213_fw.png	257.0672278404236	
126	105.04283404350281	picture	0		85	124.0	/experiments/knapen_AOT/AOT_stimuli/pictures/1839_fw.png	257.1003930568695	0.7352149486541748
126	105.74344682693481	response	0	j		124.0	/experiments/knapen_AOT/AOT_stimuli/pictures/1839_fw.png	257.8010058403015	
127	105.77804899215698	picture	0		77	125.0	/experiments/knapen_AOT/AOT_stimuli/pictures/0580_fw.png	257.8356080055237	0.6481239795684814
127	106.41012597084045	response	0	j		125.0	/experiments/knapen_AOT/AOT_stimuli/pictures/0580_fw.png	258.46768498420715	
128	106.42617297172546	picture	0		81	126.0	/experiments/knapen_AOT/AOT_stimuli/pictures/0820_fw.png	258.48373198509216	0.6999940872192383
128	107.09298586845398	response	0	k		126.0	/experiments/knapen_AOT/AOT_stimuli/pictures/0820_fw.png	259.1505448818207	
129	107.1261670589447	picture	0		88	127.0	/experiments/knapen_AOT/AOT_stimuli/pictures/1464_fw.png	259.1837260723114	0.7769069671630859
129	107.85142588615417	response	0	j		127.0	/experiments/knapen_AOT/AOT_stimuli/pictures/1464_fw.png	259.9089848995209	
130	107.90307402610779	picture	0		127	128.0	/experiments/knapen_AOT/AOT_stimuli/pictures/0236_fw.png	259.9606330394745	1.0648298263549805
130	108.95189189910889	response	0	k		128.0	/experiments/knapen_AOT/AOT_stimuli/pictures/0236_fw.png	261.0094509124756	
131	108.96790385246277	picture	0		90	129.0	/experiments/knapen_AOT/AOT_stimuli/pictures/1604_fw.png	261.02546286582947	0.7754220962524414
131	109.7098159790039	response	0	k		129.0	/experiments/knapen_AOT/AOT_stimuli/pictures/1604_fw.png	261.7673749923706	
132	109.74332594871521	picture	0		85	130.0	/experiments/knapen_AOT/AOT_stimuli/pictures/1500_fw.png	261.8008849620819	0.7578930854797363
132	110.4681179523468	response	0	j		130.0	/experiments/knapen_AOT/AOT_stimuli/pictures/1500_fw.png	262.5256769657135	
133	110.50121903419495	picture	0		80	131.0	/experiments/knapen_AOT/AOT_stimuli/pictures/1391_fw.png	262.55877804756165	0.6917769908905029
133	111.16028690338135	response	0	k		131.0	/experiments/knapen_AOT/AOT_stimuli/pictures/1391_fw.png	263.21784591674805	
134	111.19299602508545	picture	0		82	132.0	/experiments/knapen_AOT/AOT_stimuli/pictures/1134_fw.png	263.25055503845215	0.7101109027862549
134	111.86845397949219	response	0	j		132.0	/experiments/knapen_AOT/AOT_stimuli/pictures/1134_fw.png	263.9260129928589	
135	111.9031069278717	picture	0		79	133.0	/experiments/knapen_AOT/AOT_stimuli/pictures/1931_fw.png	263.9606659412384	0.6815140247344971
135	112.55152583122253	response	0	j		133.0	/experiments/knapen_AOT/AOT_stimuli/pictures/1931_fw.png	264.60908484458923	
136	112.5846209526062	picture	0		87	134.0	/experiments/knapen_AOT/AOT_stimuli/pictures/0700_fw.png	264.6421799659729	0.7583150863647461
136	113.30142188072205	response	0	j		134.0	/experiments/knapen_AOT/AOT_stimuli/pictures/0700_fw.png	265.35898089408875	
137	113.34293603897095	picture	0		87	135.0	/experiments/knapen_AOT/AOT_stimuli/pictures/1999_fw.png	265.40049505233765	0.7583518028259277
137	114.05974102020264	response	0	k		135.0	/experiments/knapen_AOT/AOT_stimuli/pictures/1999_fw.png	266.11730003356934	
138	114.10128784179688	picture	0		84	136.0	/experiments/knapen_AOT/AOT_stimuli/pictures/1321_fw.png	266.1588468551636	0.7255020141601562
138	114.79310393333435	response	0	k		136.0	/experiments/knapen_AOT/AOT_stimuli/pictures/1321_fw.png	266.85066294670105	
139	114.82678985595703	picture	0		131	137.0	/experiments/knapen_AOT/AOT_stimuli/pictures/1182_fw.png	266.88434886932373	1.1180222034454346
139	115.91021299362183	response	0	k		137.0	/experiments/knapen_AOT/AOT_stimuli/pictures/1182_fw.png	267.9677720069885	
140	115.94481205940247	picture	0		82	138.0	/experiments/knapen_AOT/AOT_stimuli/pictures/2029_fw.png	268.00237107276917	0.70841383934021
140	116.6185998916626	response	0	k		138.0	/experiments/knapen_AOT/AOT_stimuli/pictures/2029_fw.png	268.6761589050293	
141	116.65322589874268	picture	0		88	139.0	/experiments/knapen_AOT/AOT_stimuli/pictures/0943_fw.png	268.7107849121094	0.7647621631622314
141	117.37645101547241	response	0	j		139.0	/experiments/knapen_AOT/AOT_stimuli/pictures/0943_fw.png	269.4340100288391	
142	117.41798806190491	picture	0		100	140.0	/experiments/knapen_AOT/AOT_stimuli/pictures/1031_fw.png	269.4755470752716	0.8531889915466309
142	118.23640990257263	response	0	k		140.0	/experiments/knapen_AOT/AOT_stimuli/pictures/1031_fw.png	270.29396891593933	
143	118.27117705345154	picture	0		118	141.0	/experiments/knapen_AOT/AOT_stimuli/pictures/2120_fw.png	270.32873606681824	1.0069849491119385
143	119.24359488487244	response	0	k		141.0	/experiments/knapen_AOT/AOT_stimuli/pictures/2120_fw.png	271.30115389823914	
144	119.27816200256348	picture	0		77	142.0	/experiments/knapen_AOT/AOT_stimuli/pictures/0432_fw.png	271.3357210159302	0.6565239429473877
144	119.91037201881409	response	0	j		142.0	/experiments/knapen_AOT/AOT_stimuli/pictures/0432_fw.png	271.9679310321808	
145	119.93468594551086	picture	0		90	143.0	/experiments/knapen_AOT/AOT_stimuli/pictures/1855_fw.png	271.99224495887756	0.7750430107116699
145	120.6765558719635	response	0	j		143.0	/experiments/knapen_AOT/AOT_stimuli/pictures/1855_fw.png	272.7341148853302	
146	120.70972895622253	picture	0		79	144.0	/experiments/knapen_AOT/AOT_stimuli/pictures/1070_fw.png	272.76728796958923	0.6864969730377197
146	121.35990190505981	response	0	j		144.0	/experiments/knapen_AOT/AOT_stimuli/pictures/1070_fw.png	273.4174609184265	
147	121.39622592926025	picture	0		91	145.0	/experiments/knapen_AOT/AOT_stimuli/pictures/1059_fw.png	273.45378494262695	0.7801399230957031
147	122.14320302009583	response	0	j		145.0	/experiments/knapen_AOT/AOT_stimuli/pictures/1059_fw.png	274.2007620334625	
148	122.17636585235596	picture	0		78	146.0	/experiments/knapen_AOT/AOT_stimuli/pictures/0449_fw.png	274.23392486572266	0.67507004737854
148	122.81819891929626	response	0	k		146.0	/experiments/knapen_AOT/AOT_stimuli/pictures/0449_fw.png	274.87575793266296	
149	122.8514358997345	picture	0		110	147.0	/experiments/knapen_AOT/AOT_stimuli/pictures/1348_fw.png	274.9089949131012	0.9416160583496094
149	123.75989603996277	response	0	j		147.0	/experiments/knapen_AOT/AOT_stimuli/pictures/1348_fw.png	275.81745505332947	
150	123.7930519580841	picture	0		88	148.0	/experiments/knapen_AOT/AOT_stimuli/pictures/1358_fw.png	275.8506109714508	0.7583529949188232
150	124.51821088790894	response	0	k		148.0	/experiments/knapen_AOT/AOT_stimuli/pictures/1358_fw.png	276.57576990127563	
151	124.55140495300293	picture	0		86	149.0	/experiments/knapen_AOT/AOT_stimuli/pictures/1115_fw.png	276.60896396636963	0.7416908740997314
151	125.25987386703491	response	0	j		149.0	/experiments/knapen_AOT/AOT_stimuli/pictures/1115_fw.png	277.3174328804016	
152	125.29309582710266	picture	0		80	150.0	/experiments/knapen_AOT/AOT_stimuli/pictures/0510_fw.png	277.35065484046936	0.6935811042785645
152	125.95192885398865	response	0	j		150.0	/experiments/knapen_AOT/AOT_stimuli/pictures/0510_fw.png	278.00948786735535	
153	125.98667693138123	picture	0		77	151.0	/experiments/knapen_AOT/AOT_stimuli/pictures/1397_fw.png	278.0442359447479	0.6564230918884277
153	126.61862683296204	response	0	k		151.0	/experiments/knapen_AOT/AOT_stimuli/pictures/1397_fw.png	278.67618584632874	
154	126.64310002326965	picture	0		78	152.0	/experiments/knapen_AOT/AOT_stimuli/pictures/2110_fw.png	278.70065903663635	0.6833999156951904
154	127.28527498245239	response	0	j		152.0	/experiments/knapen_AOT/AOT_stimuli/pictures/2110_fw.png	279.3428339958191	
155	127.32649993896484	picture	0		82	153.0	/experiments/knapen_AOT/AOT_stimuli/pictures/1629_fw.png	279.38405895233154	0.7166059017181396
155	128.00163292884827	response	0	k		153.0	/experiments/knapen_AOT/AOT_stimuli/pictures/1629_fw.png	280.05919194221497	
156	128.04310584068298	picture	0		87	154.0	/experiments/knapen_AOT/AOT_stimuli/pictures/1045_fw.png	280.1006648540497	0.7500030994415283
156	128.7599458694458	response	0	j		154.0	/experiments/knapen_AOT/AOT_stimuli/pictures/1045_fw.png	280.8175048828125	
157	128.7931089401245	picture	0		90	155.0	/experiments/knapen_AOT/AOT_stimuli/pictures/1923_fw.png	280.8506679534912	0.7583649158477783
157	129.5353078842163	response	0	k		155.0	/experiments/knapen_AOT/AOT_stimuli/pictures/1923_fw.png	281.592866897583	
158	129.5514738559723	picture	0		87	156.0	/experiments/knapen_AOT/AOT_stimuli/pictures/1830_fw.png	281.609032869339	0.7545170783996582
158	130.26828694343567	response	0	k		156.0	/experiments/knapen_AOT/AOT_stimuli/pictures/1830_fw.png	282.32584595680237	
159	130.30599093437195	picture	0		84	157.0	/experiments/knapen_AOT/AOT_stimuli/pictures/0446_fw.png	282.36354994773865	0.7222499847412109
159	130.9936339855194	response	0	j		157.0	/experiments/knapen_AOT/AOT_stimuli/pictures/0446_fw.png	283.0511929988861	
160	131.02824091911316	picture	0		93	158.0	/experiments/knapen_AOT/AOT_stimuli/pictures/1703_fw.png	283.08579993247986	0.7986059188842773
160	131.79329204559326	response	0	j		158.0	/experiments/knapen_AOT/AOT_stimuli/pictures/1703_fw.png	283.85085105895996	
161	131.82684683799744	picture	0		156	159.0	/experiments/knapen_AOT/AOT_stimuli/pictures/0096_fw.png	283.88440585136414	1.341374158859253
161	133.11868286132812	response	0	j		159.0	/experiments/knapen_AOT/AOT_stimuli/pictures/0096_fw.png	285.1762418746948	
162	133.1682209968567	picture	0		97	160.0	/experiments/knapen_AOT/AOT_stimuli/pictures/2044_fw.png	285.2257800102234	0.8252999782562256
162	133.96833491325378	response	0	j		160.0	/experiments/knapen_AOT/AOT_stimuli/pictures/2044_fw.png	286.0258939266205	
163	133.99352097511292	picture	0		102	161.0	/experiments/knapen_AOT/AOT_stimuli/pictures/1928_fw.png	286.0510799884796	0.8830399513244629
163	134.82866597175598	response	0	k		161.0	/experiments/knapen_AOT/AOT_stimuli/pictures/1928_fw.png	286.8862249851227	
164	134.87656092643738	picture	0		86	162.0	/experiments/knapen_AOT/AOT_stimuli/pictures/1813_fw.png	286.9341199398041	0.7419600486755371
164	135.58522200584412	response	0	j		162.0	/experiments/knapen_AOT/AOT_stimuli/pictures/1813_fw.png	287.6427810192108	
165	135.61852097511292	picture	0		79	163.0	/experiments/knapen_AOT/AOT_stimuli/pictures/0509_fw.png	287.6760799884796	0.6830220222473145
165	136.26836800575256	response	0	k		163.0	/experiments/knapen_AOT/AOT_stimuli/pictures/0509_fw.png	288.32592701911926	
166	136.30154299736023	picture	0		87	164.0	/experiments/knapen_AOT/AOT_stimuli/pictures/1820_fw.png	288.35910201072693	0.7500178813934326
166	137.01841187477112	response	0	k		164.0	/experiments/knapen_AOT/AOT_stimuli/pictures/1820_fw.png	289.0759708881378	
167	137.05156087875366	picture	0		81	165.0	/experiments/knapen_AOT/AOT_stimuli/pictures/2055_fw.png	289.10911989212036	0.7000370025634766
167	137.71837997436523	response	0	j		165.0	/experiments/knapen_AOT/AOT_stimuli/pictures/2055_fw.png	289.77593898773193	
168	137.75159788131714	picture	0		102	166.0	/experiments/knapen_AOT/AOT_stimuli/pictures/1472_fw.png	289.80915689468384	0.8749821186065674
168	138.5933859348297	response	0	j		166.0	/experiments/knapen_AOT/AOT_stimuli/pictures/1472_fw.png	290.6509449481964	
169	138.6265799999237	picture	0		99	167.0	/experiments/knapen_AOT/AOT_stimuli/pictures/1128_fw.png	290.6841390132904	0.8501100540161133
169	139.43662285804749	response	0	j		167.0	/experiments/knapen_AOT/AOT_stimuli/pictures/1128_fw.png	291.4941818714142	
170	139.47669005393982	picture	0		90	168.0	/experiments/knapen_AOT/AOT_stimuli/pictures/1979_fw.png	291.5342490673065	0.7749679088592529
170	140.21842002868652	response	0	k		168.0	/experiments/knapen_AOT/AOT_stimuli/pictures/1979_fw.png	292.2759790420532	
171	140.25165796279907	picture	0		121	169.0	/experiments/knapen_AOT/AOT_stimuli/pictures/1118_fw.png	292.30921697616577	1.016632080078125
171	141.2519609928131	response	0	k		169.0	/experiments/knapen_AOT/AOT_stimuli/pictures/1118_fw.png	293.3095200061798	
172	141.2682900428772	picture	0		74	170.0	/experiments/knapen_AOT/AOT_stimuli/pictures/0514_fw.png	293.3258490562439	0.641963005065918
172	141.87683987617493	response	0	j		170.0	/experiments/knapen_AOT/AOT_stimuli/pictures/0514_fw.png	293.9343988895416	
173	141.91025304794312	picture	0		88	171.0	/experiments/knapen_AOT/AOT_stimuli/pictures/0488_fw.png	293.9678120613098	0.7580349445343018
173	142.62849593162537	response	0	k		171.0	/experiments/knapen_AOT/AOT_stimuli/pictures/0488_fw.png	294.68605494499207	
174	142.66828799247742	picture	0		91	172.0	/experiments/knapen_AOT/AOT_stimuli/pictures/1388_fw.png	294.7258470058441	0.7836439609527588
174	143.4120569229126	response	0	k		172.0	/experiments/knapen_AOT/AOT_stimuli/pictures/1388_fw.png	295.4696159362793	
175	143.45193195343018	picture	0		74	173.0	/experiments/knapen_AOT/AOT_stimuli/pictures/1668_fw.png	295.5094909667969	0.6413929462432861
175	144.06010603904724	response	0	j		173.0	/experiments/knapen_AOT/AOT_stimuli/pictures/1668_fw.png	296.11766505241394	
176	144.09332489967346	picture	0		90	174.0	/experiments/knapen_AOT/AOT_stimuli/pictures/1020_fw.png	296.15088391304016	0.7752809524536133
176	144.82855701446533	response	0	k		174.0	/experiments/knapen_AOT/AOT_stimuli/pictures/1020_fw.png	296.88611602783203	
177	144.86860585212708	picture	0		84	175.0	/experiments/knapen_AOT/AOT_stimuli/pictures/0597_fw.png	296.9261648654938	0.7247231006622314
177	145.56016182899475	response	0	k		175.0	/experiments/knapen_AOT/AOT_stimuli/pictures/0597_fw.png	297.61772084236145	
178	145.5933289527893	picture	0		86	176.0	/experiments/knapen_AOT/AOT_stimuli/pictures/0839_fw.png	297.650887966156	0.7416749000549316
178	146.3019359111786	response	0	k		176.0	/experiments/knapen_AOT/AOT_stimuli/pictures/0839_fw.png	298.3594949245453	
179	146.33500385284424	picture	0		99	177.0	/experiments/knapen_AOT/AOT_stimuli/pictures/1757_fw.png	298.39256286621094	0.8531742095947266
179	147.1517939567566	response	0	k		177.0	/experiments/knapen_AOT/AOT_stimuli/pictures/1757_fw.png	299.2093529701233	
180	147.18817806243896	picture	0		92	178.0	/experiments/knapen_AOT/AOT_stimuli/pictures/1869_fw.png	299.24573707580566	0.7846529483795166
180	147.94347095489502	response	0	j		178.0	/experiments/knapen_AOT/AOT_stimuli/pictures/1869_fw.png	300.0010299682617	
181	147.97283101081848	picture	0		83	179.0	/experiments/knapen_AOT/AOT_stimuli/pictures/1989_fw.png	300.0303900241852	0.712244987487793
181	148.64505887031555	response	0	k		179.0	/experiments/knapen_AOT/AOT_stimuli/pictures/1989_fw.png	300.70261788368225	
182	148.68507599830627	picture	0		84	180.0	/experiments/knapen_AOT/AOT_stimuli/pictures/0646_fw.png	300.742635011673	0.7252099514007568
182	149.3769760131836	response	0	j		180.0	/experiments/knapen_AOT/AOT_stimuli/pictures/0646_fw.png	301.4345350265503	
183	149.41028594970703	picture	0		117	181.0	/experiments/knapen_AOT/AOT_stimuli/pictures/0789_fw.png	301.46784496307373	0.9999690055847168
183	150.37690591812134	response	0	j		181.0	/experiments/knapen_AOT/AOT_stimuli/pictures/0789_fw.png	302.43446493148804	
184	150.41025495529175	picture	0		89	182.0	/experiments/knapen_AOT/AOT_stimuli/pictures/1817_fw.png	302.46781396865845	0.7581770420074463
184	151.1435580253601	response	0	j		182.0	/experiments/knapen_AOT/AOT_stimuli/pictures/1817_fw.png	303.2011170387268	
185	151.1684319972992	picture	0		86	183.0	/experiments/knapen_AOT/AOT_stimuli/pictures/1935_fw.png	303.2259910106659	0.7418780326843262
185	151.87707805633545	response	0	k		183.0	/experiments/knapen_AOT/AOT_stimuli/pictures/1935_fw.png	303.93463706970215	
186	151.91031002998352	picture	0		85	184.0	/experiments/knapen_AOT/AOT_stimuli/pictures/0403_fw.png	303.9678690433502	0.7361419200897217
186	152.6102340221405	response	0	j		184.0	/experiments/knapen_AOT/AOT_stimuli/pictures/0403_fw.png	304.6677930355072	
187	152.64645195007324	picture	0		123	185.0	/experiments/knapen_AOT/AOT_stimuli/pictures/2081_fw.png	304.70401096343994	1.0485939979553223
187	153.6604700088501	response	0	k		185.0	/experiments/knapen_AOT/AOT_stimuli/pictures/2081_fw.png	305.7180290222168	
188	153.69504594802856	picture	0		97	186.0	/experiments/knapen_AOT/AOT_stimuli/pictures/0937_fw.png	305.75260496139526	0.8333370685577393
188	154.49380803108215	response	0	k		186.0	/experiments/knapen_AOT/AOT_stimuli/pictures/0937_fw.png	306.55136704444885	
189	154.5283830165863	picture	0		111	187.0	/experiments/knapen_AOT/AOT_stimuli/pictures/1156_fw.png	306.585942029953	0.9484808444976807
189	155.43696904182434	response	0	k		187.0	/experiments/knapen_AOT/AOT_stimuli/pictures/1156_fw.png	307.49452805519104	
190	155.47686386108398	picture	0		121	188.0	/experiments/knapen_AOT/AOT_stimuli/pictures/0113_fw.png	307.5344228744507	1.058467149734497
190	156.50196290016174	response	0	k		188.0	/experiments/knapen_AOT/AOT_stimuli/pictures/0113_fw.png	308.55952191352844	
191	156.53533101081848	picture	0		120	189.0	/experiments/knapen_AOT/AOT_stimuli/pictures/0281_fw.png	308.5928900241852	1.0248329639434814
191	157.52700901031494	response	0	k		189.0	/experiments/knapen_AOT/AOT_stimuli/pictures/0281_fw.png	309.58456802368164	
192	157.56016397476196	picture	0		105	190.0	/experiments/knapen_AOT/AOT_stimuli/pictures/0322_fw.png	309.61772298812866	0.8999910354614258
192	158.42019295692444	response	0	j		190.0	/experiments/knapen_AOT/AOT_stimuli/pictures/0322_fw.png	310.47775197029114	
193	158.4601550102234	picture	0		80	191.0	/experiments/knapen_AOT/AOT_stimuli/pictures/0410_fw.png	310.5177140235901	0.6932928562164307
193	159.1189079284668	response	0	j		191.0	/experiments/knapen_AOT/AOT_stimuli/pictures/0410_fw.png	311.1764669418335	
194	159.15344786643982	picture	0		77	192.0	/experiments/knapen_AOT/AOT_stimuli/pictures/0676_fw.png	311.2110068798065	0.6667320728302002
194	159.78552293777466	response	0	j		192.0	/experiments/knapen_AOT/AOT_stimuli/pictures/0676_fw.png	311.84308195114136	
195	159.82017993927002	picture	0		92	193.0	/experiments/knapen_AOT/AOT_stimuli/pictures/1863_fw.png	311.8777389526367	0.791632890701294
195	160.57728791236877	response	0	k		193.0	/experiments/knapen_AOT/AOT_stimuli/pictures/1863_fw.png	312.6348469257355	
196	160.6118128299713	picture	0		84	194.0	/experiments/knapen_AOT/AOT_stimuli/pictures/0022_fw.png	312.669371843338	0.7233831882476807
196	161.30217599868774	response	0	j		194.0	/experiments/knapen_AOT/AOT_stimuli/pictures/0022_fw.png	313.35973501205444	
197	161.335196018219	picture	0		131	195.0	/experiments/knapen_AOT/AOT_stimuli/pictures/1080_fw.png	313.3927550315857	1.125006914138794
197	162.41213297843933	response	0	j		195.0	/experiments/knapen_AOT/AOT_stimuli/pictures/1080_fw.png	314.46969199180603	
198	162.4602029323578	picture	0		96	196.0	/experiments/knapen_AOT/AOT_stimuli/pictures/0824_fw.png	314.5177619457245	0.8251619338989258
198	163.25209283828735	response	0	k		196.0	/experiments/knapen_AOT/AOT_stimuli/pictures/0824_fw.png	315.30965185165405	
199	163.2853648662567	picture	0		87	197.0	/experiments/knapen_AOT/AOT_stimuli/pictures/1493_fw.png	315.3429238796234	0.7500419616699219
199	164.00219798088074	response	0	j		197.0	/experiments/knapen_AOT/AOT_stimuli/pictures/1493_fw.png	316.05975699424744	
200	164.03540682792664	picture	0		76	198.0	/experiments/knapen_AOT/AOT_stimuli/pictures/0210_fw.png	316.09296584129333	0.6667501926422119
200	164.66051697731018	response	0	k		198.0	/experiments/knapen_AOT/AOT_stimuli/pictures/0210_fw.png	316.7180759906769	
201	164.70215702056885	picture	0		81	199.0	/experiments/knapen_AOT/AOT_stimuli/pictures/0272_fw.png	316.75971603393555	0.6914758682250977
201	165.36895203590393	response	0	k		199.0	/experiments/knapen_AOT/AOT_stimuli/pictures/0272_fw.png	317.42651104927063	
202	165.39363288879395	picture	0		78	200.0	/experiments/knapen_AOT/AOT_stimuli/pictures/2140_fw.png	317.45119190216064	0.6765420436859131
202	166.02866101264954	response	0	k		200.0	/experiments/knapen_AOT/AOT_stimuli/pictures/2140_fw.png	318.08622002601624	
203	166.07017493247986	picture	0		78	201.0	/experiments/knapen_AOT/AOT_stimuli/pictures/1491_fw.png	318.12773394584656	0.6736030578613281
203	166.71041798591614	response	0	j		201.0	/experiments/knapen_AOT/AOT_stimuli/pictures/1491_fw.png	318.76797699928284	
204	166.7437779903412	picture	0		86	202.0	/experiments/knapen_AOT/AOT_stimuli/pictures/1875_fw.png	318.8013370037079	0.7430729866027832
204	167.44536089897156	response	0	j		202.0	/experiments/knapen_AOT/AOT_stimuli/pictures/1875_fw.png	319.50291991233826	
205	167.48685097694397	picture	0		76	203.0	/experiments/knapen_AOT/AOT_stimuli/pictures/0904_fw.png	319.54440999031067	0.6598010063171387
205	168.1104118824005	response	0	j		203.0	/experiments/knapen_AOT/AOT_stimuli/pictures/0904_fw.png	320.1679708957672	
206	168.1466519832611	picture	0		85	204.0	/experiments/knapen_AOT/AOT_stimuli/pictures/1030_fw.png	320.2042109966278	0.7304179668426514
206	168.83700394630432	response	0	k		204.0	/experiments/knapen_AOT/AOT_stimuli/pictures/1030_fw.png	320.894562959671	
207	168.87706995010376	picture	0		88	205.0	/experiments/knapen_AOT/AOT_stimuli/pictures/1888_fw.png	320.93462896347046	0.7582249641418457
207	169.6021499633789	response	0	k		205.0	/experiments/knapen_AOT/AOT_stimuli/pictures/1888_fw.png	321.6597089767456	
208	169.6352949142456	picture	0		93	206.0	/experiments/knapen_AOT/AOT_stimuli/pictures/1965_fw.png	321.6928539276123	0.8000349998474121
208	170.40215682983398	response	0	j		206.0	/experiments/knapen_AOT/AOT_stimuli/pictures/1965_fw.png	322.4597158432007	
209	170.43532991409302	picture	0		92	207.0	/experiments/knapen_AOT/AOT_stimuli/pictures/1948_fw.png	322.4928889274597	0.7917039394378662
209	171.19381189346313	response	0	k		207.0	/experiments/knapen_AOT/AOT_stimuli/pictures/1948_fw.png	323.25137090682983	
210	171.22703385353088	picture	0		86	208.0	/experiments/knapen_AOT/AOT_stimuli/pictures/0718_fw.png	323.2845928668976	0.74163818359375
210	171.93547296524048	response	0	j		208.0	/experiments/knapen_AOT/AOT_stimuli/pictures/0718_fw.png	323.9930319786072	
211	171.96867203712463	picture	0		76	209.0	/experiments/knapen_AOT/AOT_stimuli/pictures/1099_fw.png	324.02623105049133	0.6501498222351074
211	172.5938048362732	response	0	j		209.0	/experiments/knapen_AOT/AOT_stimuli/pictures/1099_fw.png	324.6513638496399	
212	172.61882185935974	picture	0		97	210.0	/experiments/knapen_AOT/AOT_stimuli/pictures/0800_fw.png	324.67638087272644	0.8416261672973633
212	173.4122350215912	response	0	k		210.0	/experiments/knapen_AOT/AOT_stimuli/pictures/0800_fw.png	325.4697940349579	
213	173.4604480266571	picture	0		102	211.0	/experiments/knapen_AOT/AOT_stimuli/pictures/0798_fw.png	325.5180070400238	0.8597898483276367
213	174.3022599220276	response	0	k		211.0	/experiments/knapen_AOT/AOT_stimuli/pictures/0798_fw.png	326.3598189353943	
214	174.32023787498474	picture	0		108	212.0	/experiments/knapen_AOT/AOT_stimuli/pictures/0571_fw.png	326.37779688835144	0.9236931800842285
214	175.21062397956848	response	0	k		212.0	/experiments/knapen_AOT/AOT_stimuli/pictures/0571_fw.png	327.2681829929352	
215	175.24393105506897	picture	0		85	213.0	/experiments/knapen_AOT/AOT_stimuli/pictures/1790_fw.png	327.30149006843567	0.73602294921875
215	175.94398593902588	response	0	j		213.0	/experiments/knapen_AOT/AOT_stimuli/pictures/1790_fw.png	328.0015449523926	
216	175.97995400428772	picture	0		95	214.0	/experiments/knapen_AOT/AOT_stimuli/pictures/2078_fw.png	328.0375130176544	0.8055939674377441
216	176.76065397262573	response	0	j		214.0	/experiments/knapen_AOT/AOT_stimuli/pictures/2078_fw.png	328.81821298599243	
217	176.78554797172546	picture	0		78	215.0	/experiments/knapen_AOT/AOT_stimuli/pictures/1950_fw.png	328.84310698509216	0.6749100685119629
217	177.42051696777344	response	0	j		215.0	/experiments/knapen_AOT/AOT_stimuli/pictures/1950_fw.png	329.47807598114014	
218	177.46045804023743	picture	0		78	216.0	/experiments/knapen_AOT/AOT_stimuli/pictures/0049_fw.png	329.5180170536041	0.6749978065490723
218	178.10226392745972	response	0	k		216.0	/experiments/knapen_AOT/AOT_stimuli/pictures/0049_fw.png	330.1598229408264	
219	178.1354558467865	picture	0		89	217.0	/experiments/knapen_AOT/AOT_stimuli/pictures/1341_fw.png	330.1930148601532	0.7680461406707764
219	178.86900305747986	response	0	j		217.0	/experiments/knapen_AOT/AOT_stimuli/pictures/1341_fw.png	330.92656207084656	
220	178.90350198745728	picture	0		71	218.0	/experiments/knapen_AOT/AOT_stimuli/pictures/1206_fw.png	330.961061000824	0.6152889728546143
220	179.48557686805725	response	0	k		218.0	/experiments/knapen_AOT/AOT_stimuli/pictures/1206_fw.png	331.54313588142395	
221	179.5187909603119	picture	0		78	219.0	/experiments/knapen_AOT/AOT_stimuli/pictures/0652_fw.png	331.5763499736786	0.6763548851013184
221	180.1607220172882	response	0	j		219.0	/experiments/knapen_AOT/AOT_stimuli/pictures/0652_fw.png	332.2182810306549	
222	180.1951458454132	picture	0		98	220.0	/experiments/knapen_AOT/AOT_stimuli/pictures/0453_fw.png	332.2527048587799	0.8404510021209717
222	181.002338886261	response	0	j		220.0	/experiments/knapen_AOT/AOT_stimuli/pictures/0453_fw.png	333.0598978996277	
223	181.03559684753418	picture	0		80	221.0	/experiments/knapen_AOT/AOT_stimuli/pictures/0335_fw.png	333.0931558609009	0.674868106842041
223	181.69406485557556	response	0	k		221.0	/experiments/knapen_AOT/AOT_stimuli/pictures/0335_fw.png	333.75162386894226	
224	181.71046495437622	picture	0		186	222.0	/experiments/knapen_AOT/AOT_stimuli/pictures/1598_fw.png	333.7680239677429	1.5751099586486816
224	183.25239205360413	response	0	j		222.0	/experiments/knapen_AOT/AOT_stimuli/pictures/1598_fw.png	335.3099510669708	
225	183.2855749130249	picture	0		196	223.0	/experiments/knapen_AOT/AOT_stimuli/pictures/1847_fw.png	335.3431339263916	1.6596269607543945
225	184.91073203086853	response	0	j		223.0	/experiments/knapen_AOT/AOT_stimuli/pictures/1847_fw.png	336.96829104423523	
226	184.9452018737793	picture	0		103	224.0	/experiments/knapen_AOT/AOT_stimuli/pictures/1438_fw.png	337.002760887146	0.8819639682769775
226	185.79414892196655	response	0	j		224.0	/experiments/knapen_AOT/AOT_stimuli/pictures/1438_fw.png	337.85170793533325	
227	185.82716584205627	picture	0		83	225.0	/experiments/knapen_AOT/AOT_stimuli/pictures/0801_fw.png	337.884724855423	0.7167680263519287
227	186.51068687438965	response	0	j		225.0	/experiments/knapen_AOT/AOT_stimuli/pictures/0801_fw.png	338.56824588775635	
228	186.5439338684082	picture	0		102	226.0	/experiments/knapen_AOT/AOT_stimuli/pictures/0998_fw.png	338.6014928817749	0.8915920257568359
228	187.38580703735352	response	0	j		226.0	/experiments/knapen_AOT/AOT_stimuli/pictures/0998_fw.png	339.4433660507202	
229	187.43552589416504	picture	0		134	227.0	/experiments/knapen_AOT/AOT_stimuli/pictures/2137_fw.png	339.49308490753174	1.2167141437530518
229	188.54412293434143	response	0	j		227.0	/experiments/knapen_AOT/AOT_stimuli/pictures/2137_fw.png	340.60168194770813	
230	188.6522400379181	picture	0		103	228.0	/experiments/knapen_AOT/AOT_stimuli/pictures/1505_fw.png	340.7097990512848	0.958319902420044
230	189.50239992141724	response	0	k		228.0	/experiments/knapen_AOT/AOT_stimuli/pictures/1505_fw.png	341.55995893478394	
231	189.61055994033813	picture	0		101	229.0	/experiments/knapen_AOT/AOT_stimuli/pictures/0681_fw.png	341.66811895370483	0.9389889240264893
231	190.43736100196838	response	0	k		229.0	/experiments/knapen_AOT/AOT_stimuli/pictures/0681_fw.png	342.4949200153351	
232	190.54954886436462	picture	0		75	230.0	/experiments/knapen_AOT/AOT_stimuli/pictures/0816_fw.png	342.6071078777313	0.7290351390838623
232	191.16910195350647	response	0	j		230.0	/experiments/knapen_AOT/AOT_stimuli/pictures/0816_fw.png	343.22666096687317	
233	191.2785840034485	picture	0		171	231.0	/experiments/knapen_AOT/AOT_stimuli/pictures/1659_fw.png	343.3361430168152	1.5654289722442627
233	192.6942150592804	response	0	k		231.0	/experiments/knapen_AOT/AOT_stimuli/pictures/1659_fw.png	344.7517740726471	
234	192.84401297569275	picture	0		97	232.0	/experiments/knapen_AOT/AOT_stimuli/pictures/0126_fw.png	344.90157198905945	0.8916618824005127
234	193.63747096061707	response	0	k		232.0	/experiments/knapen_AOT/AOT_stimuli/pictures/0126_fw.png	345.69502997398376	
235	193.73567485809326	picture	0		86	233.0	/experiments/knapen_AOT/AOT_stimuli/pictures/2172_fw.png	345.79323387145996	0.7860920429229736
235	194.43750286102295	response	0	j		233.0	/experiments/knapen_AOT/AOT_stimuli/pictures/2172_fw.png	346.49506187438965	
236	194.52176690101624	picture	0		103	234.0	/experiments/knapen_AOT/AOT_stimuli/pictures/1392_fw.png	346.57932591438293	0.9235079288482666
236	195.36919593811035	response	0	k		234.0	/experiments/knapen_AOT/AOT_stimuli/pictures/1392_fw.png	347.42675495147705	
237	195.4452748298645	picture	0		71	235.0	/experiments/knapen_AOT/AOT_stimuli/pictures/0851_fw.png	347.5028338432312	0.6737151145935059
237	196.0207929611206	response	0	j		235.0	/experiments/knapen_AOT/AOT_stimuli/pictures/0851_fw.png	348.0783519744873	
238	196.118989944458	picture	0		103	236.0	/experiments/knapen_AOT/AOT_stimuli/pictures/1806_fw.png	348.1765489578247	0.9166810512542725
238	196.96931290626526	response	0	k		236.0	/experiments/knapen_AOT/AOT_stimuli/pictures/1806_fw.png	349.02687191963196	
239	197.03567099571228	picture	0		107	237.0	/experiments/knapen_AOT/AOT_stimuli/pictures/1909_fw.png	349.093230009079	1.1457719802856445
239	197.91928386688232	response	0	j		237.0	/experiments/knapen_AOT/AOT_stimuli/pictures/1909_fw.png	349.976842880249	
240	198.18144297599792	picture	0		89	238.0	/experiments/knapen_AOT/AOT_stimuli/pictures/0576_fw.png	350.2390019893646	0.8472530841827393
240	198.91091394424438	response	0	j		238.0	/experiments/knapen_AOT/AOT_stimuli/pictures/0576_fw.png	350.9684729576111	
241	199.02869606018066	picture	0		81	239.0	/experiments/knapen_AOT/AOT_stimuli/pictures/0373_fw.png	351.08625507354736	0.740339994430542
241	199.69430589675903	response	0	j		239.0	/experiments/knapen_AOT/AOT_stimuli/pictures/0373_fw.png	351.75186491012573	
242	199.7690360546112	picture	0		161	240.0	/experiments/knapen_AOT/AOT_stimuli/pictures/1309_fw.png	351.8265950679779	1.4167628288269043
242	201.10252785682678	response	0	j		240.0	/experiments/knapen_AOT/AOT_stimuli/pictures/1309_fw.png	353.1600868701935	
243	201.1857988834381	picture	0		74	241.0	/experiments/knapen_AOT/AOT_stimuli/pictures/0744_fw.png	353.2433578968048	0.7916059494018555
243	201.7943160533905	response	0	k		241.0	/experiments/knapen_AOT/AOT_stimuli/pictures/0744_fw.png	353.8518750667572	
244	201.97740483283997	picture	0		73	242.0	/experiments/knapen_AOT/AOT_stimuli/pictures/0989_fw.png	354.03496384620667	0.7179210186004639
244	202.5775249004364	response	0	j		242.0	/experiments/knapen_AOT/AOT_stimuli/pictures/0989_fw.png	354.6350839138031	
245	202.69532585144043	picture	0		86	243.0	/experiments/knapen_AOT/AOT_stimuli/pictures/1073_fw.png	354.75288486480713	0.7847402095794678
245	203.40260887145996	response	0	k		243.0	/experiments/knapen_AOT/AOT_stimuli/pictures/1073_fw.png	355.46016788482666	
246	203.4800660610199	picture	0		101	244.0	/experiments/knapen_AOT/AOT_stimuli/pictures/1147_fw.png	355.5376250743866	0.9166998863220215
246	204.31090092658997	response	0	j		244.0	/experiments/knapen_AOT/AOT_stimuli/pictures/1147_fw.png	356.36845993995667	
247	204.39676594734192	picture	0		94	245.0	/experiments/knapen_AOT/AOT_stimuli/pictures/1237_fw.png	356.4543249607086	0.8403670787811279
247	205.16939187049866	response	0	k		245.0	/experiments/knapen_AOT/AOT_stimuli/pictures/1237_fw.png	357.22695088386536	
248	205.23713302612305	picture	0		73	246.0	/experiments/knapen_AOT/AOT_stimuli/pictures/0486_fw.png	357.29469203948975	0.6319429874420166
248	205.82911705970764	response	0	j		246.0	/experiments/knapen_AOT/AOT_stimuli/pictures/0486_fw.png	357.88667607307434	
249	205.86907601356506	picture	0		78	247.0	/experiments/knapen_AOT/AOT_stimuli/pictures/2144_fw.png	357.92663502693176	0.684006929397583
249	206.51100397109985	response	0	j		247.0	/experiments/knapen_AOT/AOT_stimuli/pictures/2144_fw.png	358.56856298446655	
250	206.55308294296265	picture	0		82	248.0	/experiments/knapen_AOT/AOT_stimuli/pictures/1595_fw.png	358.61064195632935	0.7257850170135498
250	207.23770594596863	response	0	k		248.0	/experiments/knapen_AOT/AOT_stimuli/pictures/1595_fw.png	359.2952649593353	
251	207.2788679599762	picture	0		144	249.0	/experiments/knapen_AOT/AOT_stimuli/pictures/1680_fw.png	359.3364269733429	1.2236170768737793
251	208.46933388710022	response	0	k		249.0	/experiments/knapen_AOT/AOT_stimuli/pictures/1680_fw.png	360.5268929004669	
252	208.50248503684998	picture	0		90	250.0	/experiments/knapen_AOT/AOT_stimuli/pictures/0144_fw.png	360.5600440502167	0.7763068675994873
252	209.23765683174133	response	0	j		250.0	/experiments/knapen_AOT/AOT_stimuli/pictures/0144_fw.png	361.29521584510803	
253	209.27879190444946	picture	0		73	251.0	/experiments/knapen_AOT/AOT_stimuli/pictures/0574_fw.png	361.33635091781616	0.6320281028747559
253	209.87763285636902	response	0	k		251.0	/experiments/knapen_AOT/AOT_stimuli/pictures/0574_fw.png	361.9351918697357	
254	209.91082000732422	picture	0		85	252.0	/experiments/knapen_AOT/AOT_stimuli/pictures/0234_fw.png	361.9683790206909	0.7359800338745117
254	210.61114501953125	response	0	k		252.0	/experiments/knapen_AOT/AOT_stimuli/pictures/0234_fw.png	362.66870403289795	
255	210.64680004119873	picture	0		73	253.0	/experiments/knapen_AOT/AOT_stimuli/pictures/1625_fw.png	362.70435905456543	0.6319069862365723
255	211.23751091957092	response	0	k		253.0	/experiments/knapen_AOT/AOT_stimuli/pictures/1625_fw.png	363.2950699329376	
256	211.2787070274353	picture	0		83	254.0	/experiments/knapen_AOT/AOT_stimuli/pictures/0202_fw.png	363.336266040802	0.6989068984985352
256	211.96109986305237	response	0	j		254.0	/experiments/knapen_AOT/AOT_stimuli/pictures/0202_fw.png	364.01865887641907	
257	211.97761392593384	picture	0		73	255.0	/experiments/knapen_AOT/AOT_stimuli/pictures/2017_fw.png	364.03517293930054	0.6345229148864746
257	212.57764387130737	response	0	j		255.0	/experiments/knapen_AOT/AOT_stimuli/pictures/2017_fw.png	364.6352028846741	
258	212.6121368408203	picture	0		76	256.0	/experiments/knapen_AOT/AOT_stimuli/pictures/0339_fw.png	364.669695854187	0.6570720672607422
258	213.22921991348267	response	0	k		256.0	/experiments/knapen_AOT/AOT_stimuli/pictures/0339_fw.png	365.28677892684937	
259	213.26920890808105	picture	0		87	257.0	/experiments/knapen_AOT/AOT_stimuli/pictures/0155_fw.png	365.32676792144775	0.7416770458221436
259	213.98617386817932	response	0	k		257.0	/experiments/knapen_AOT/AOT_stimuli/pictures/0155_fw.png	366.043732881546	
260	214.0108859539032	picture	0		95	258.0	/experiments/knapen_AOT/AOT_stimuli/pictures/0134_fw.png	366.0684449672699	0.8166639804840088
260	214.79448795318604	response	0	k		258.0	/experiments/knapen_AOT/AOT_stimuli/pictures/0134_fw.png	366.85204696655273	
261	214.8275499343872	picture	0		95	259.0	/experiments/knapen_AOT/AOT_stimuli/pictures/0916_fw.png	366.8851089477539	0.8166871070861816
261	215.61119103431702	response	0	k		259.0	/experiments/knapen_AOT/AOT_stimuli/pictures/0916_fw.png	367.6687500476837	
262	215.6442370414734	picture	0		85	260.0	/experiments/knapen_AOT/AOT_stimuli/pictures/0242_fw.png	367.7017960548401	0.7333858013153076
262	216.34454798698425	response	0	j		260.0	/experiments/knapen_AOT/AOT_stimuli/pictures/0242_fw.png	368.40210700035095	
263	216.3776228427887	picture	0		86	261.0	/experiments/knapen_AOT/AOT_stimuli/pictures/1466_fw.png	368.4351818561554	0.74996018409729
263	217.0861840248108	response	0	j		261.0	/experiments/knapen_AOT/AOT_stimuli/pictures/1466_fw.png	369.1437430381775	
264	217.127583026886	picture	0		81	262.0	/experiments/knapen_AOT/AOT_stimuli/pictures/1959_fw.png	369.1851420402527	0.7000088691711426
264	217.79453802108765	response	0	k		262.0	/experiments/knapen_AOT/AOT_stimuli/pictures/1959_fw.png	369.85209703445435	
265	217.82759189605713	picture	0		75	263.0	/experiments/knapen_AOT/AOT_stimuli/pictures/1280_fw.png	369.8851509094238	0.652580976486206
265	218.43782997131348	response	0	j		263.0	/experiments/knapen_AOT/AOT_stimuli/pictures/1280_fw.png	370.4953889846802	
266	218.48017287254333	picture	0		81	264.0	/experiments/knapen_AOT/AOT_stimuli/pictures/0300_fw.png	370.53773188591003	0.6807880401611328
266	219.14444589614868	response	0	k		264.0	/experiments/knapen_AOT/AOT_stimuli/pictures/0300_fw.png	371.2020049095154	
267	219.16096091270447	picture	0		96	265.0	/experiments/knapen_AOT/AOT_stimuli/pictures/1084_fw.png	371.21851992607117	0.8122889995574951
267	219.95275497436523	response	0	k		265.0	/experiments/knapen_AOT/AOT_stimuli/pictures/1084_fw.png	372.01031398773193	
268	219.97324991226196	picture	0		83	266.0	/experiments/knapen_AOT/AOT_stimuli/pictures/0890_fw.png	372.03080892562866	0.7152750492095947
268	220.65276193618774	response	0	j		266.0	/experiments/knapen_AOT/AOT_stimuli/pictures/0890_fw.png	372.71032094955444	
269	220.68852496147156	picture	0		131	267.0	/experiments/knapen_AOT/AOT_stimuli/pictures/1331_fw.png	372.74608397483826	1.1141889095306396
269	221.7695279121399	response	0	k		267.0	/experiments/knapen_AOT/AOT_stimuli/pictures/1331_fw.png	373.8270869255066	
270	221.8027138710022	picture	0		83	268.0	/experiments/knapen_AOT/AOT_stimuli/pictures/1353_fw.png	373.8602728843689	0.6999800205230713
270	222.48617601394653	response	0	j		268.0	/experiments/knapen_AOT/AOT_stimuli/pictures/1353_fw.png	374.54373502731323	
271	222.50269389152527	picture	0		84	269.0	/experiments/knapen_AOT/AOT_stimuli/pictures/1836_fw.png	374.56025290489197	0.7083470821380615
271	223.19459199905396	response	0	k		269.0	/experiments/knapen_AOT/AOT_stimuli/pictures/1836_fw.png	375.25215101242065	
272	223.21104097366333	picture	0		88	270.0	/experiments/knapen_AOT/AOT_stimuli/pictures/0907_fw.png	375.26859998703003	0.75832200050354
272	223.9362518787384	response	0	k		270.0	/experiments/knapen_AOT/AOT_stimuli/pictures/0907_fw.png	375.9938108921051	
273	223.96936297416687	picture	0		109	271.0	/experiments/knapen_AOT/AOT_stimuli/pictures/1527_fw.png	376.02692198753357	0.9344630241394043
273	224.86945486068726	response	0	j		271.0	/experiments/knapen_AOT/AOT_stimuli/pictures/1527_fw.png	376.92701387405396	
274	224.90382599830627	picture	0		76	272.0	/experiments/knapen_AOT/AOT_stimuli/pictures/0591_fw.png	376.961385011673	0.6598279476165771
274	225.52789998054504	response	0	k		272.0	/experiments/knapen_AOT/AOT_stimuli/pictures/0591_fw.png	377.58545899391174	
275	225.56365394592285	picture	0		130	273.0	/experiments/knapen_AOT/AOT_stimuli/pictures/0142_fw.png	377.62121295928955	1.0901820659637451
275	226.62949299812317	response	0	k		273.0	/experiments/knapen_AOT/AOT_stimuli/pictures/0142_fw.png	378.68705201148987	
276	226.6538360118866	picture	0		78	274.0	/experiments/knapen_AOT/AOT_stimuli/pictures/1033_fw.png	378.7113950252533	0.6738569736480713
276	227.2945899963379	response	0	k		274.0	/experiments/knapen_AOT/AOT_stimuli/pictures/1033_fw.png	379.3521490097046	
277	227.32769298553467	picture	0		127	275.0	/experiments/knapen_AOT/AOT_stimuli/pictures/1990_fw.png	379.38525199890137	1.0833630561828613
277	228.37801790237427	response	0	j		275.0	/experiments/knapen_AOT/AOT_stimuli/pictures/1990_fw.png	380.43557691574097	
278	228.41105604171753	picture	0		91	276.0	/experiments/knapen_AOT/AOT_stimuli/pictures/1291_fw.png	380.46861505508423	0.7844657897949219
278	229.16117882728577	response	0	k		276.0	/experiments/knapen_AOT/AOT_stimuli/pictures/1291_fw.png	381.21873784065247	
279	229.19552183151245	picture	0		104	277.0	/experiments/knapen_AOT/AOT_stimuli/pictures/0974_fw.png	381.25308084487915	0.8989081382751465
279	230.0529968738556	response	0	j		277.0	/experiments/knapen_AOT/AOT_stimuli/pictures/0974_fw.png	382.1105558872223	
280	230.0944299697876	picture	0		98	278.0	/experiments/knapen_AOT/AOT_stimuli/pictures/0397_fw.png	382.1519889831543	0.8249969482421875
280	230.90295791625977	response	0	j		278.0	/experiments/knapen_AOT/AOT_stimuli/pictures/0397_fw.png	382.96051692962646	
281	230.91942691802979	picture	0		185	279.0	/experiments/knapen_AOT/AOT_stimuli/pictures/0104_fw.png	382.9769859313965	1.5750701427459717
281	232.45300102233887	response	0	j		279.0	/experiments/knapen_AOT/AOT_stimuli/pictures/0104_fw.png	384.51056003570557	
282	232.49449706077576	picture	0		91	280.0	/experiments/knapen_AOT/AOT_stimuli/pictures/1723_fw.png	384.55205607414246	0.7843978404998779
282	233.2380440235138	response	0	k		280.0	/experiments/knapen_AOT/AOT_stimuli/pictures/1723_fw.png	385.2956030368805	
283	233.27889490127563	picture	0		109	281.0	/experiments/knapen_AOT/AOT_stimuli/pictures/0448_fw.png	385.33645391464233	0.9322359561920166
283	234.17798399925232	response	0	k		281.0	/experiments/knapen_AOT/AOT_stimuli/pictures/0448_fw.png	386.235543012619	
284	234.21113085746765	picture	0		88	282.0	/experiments/knapen_AOT/AOT_stimuli/pictures/1101_fw.png	386.26868987083435	0.7622830867767334
284	234.9363329410553	response	0	j		282.0	/experiments/knapen_AOT/AOT_stimuli/pictures/1101_fw.png	386.993891954422	
285	234.97341394424438	picture	0		102	283.0	/experiments/knapen_AOT/AOT_stimuli/pictures/1334_fw.png	387.0309729576111	0.871211051940918
285	235.8114869594574	response	0	j		283.0	/experiments/knapen_AOT/AOT_stimuli/pictures/1334_fw.png	387.8690459728241	
286	235.8446249961853	picture	0		100	284.0	/experiments/knapen_AOT/AOT_stimuli/pictures/1043_fw.png	387.902184009552	0.8582029342651367
286	236.6696798801422	response	0	k		284.0	/experiments/knapen_AOT/AOT_stimuli/pictures/1043_fw.png	388.7272388935089	
287	236.70282793045044	picture	0		190	285.0	/experiments/knapen_AOT/AOT_stimuli/pictures/0340_fw.png	388.76038694381714	1.6109230518341064
287	238.27804493904114	response	0	k		285.0	/experiments/knapen_AOT/AOT_stimuli/pictures/0340_fw.png	390.33560395240784	
288	238.31375098228455	picture	0		111	286.0	/experiments/knapen_AOT/AOT_stimuli/pictures/1906_fw.png	390.37130999565125	0.9557950496673584
288	239.22129082679749	response	0	k		286.0	/experiments/knapen_AOT/AOT_stimuli/pictures/1906_fw.png	391.2788498401642	
289	239.2695460319519	picture	0		82	287.0	/experiments/knapen_AOT/AOT_stimuli/pictures/1773_fw.png	391.3271050453186	0.710777997970581
289	239.94480895996094	response	0	k		287.0	/experiments/knapen_AOT/AOT_stimuli/pictures/1773_fw.png	392.00236797332764	
290	239.98032402992249	picture	0		84	288.0	/experiments/knapen_AOT/AOT_stimuli/pictures/0402_fw.png	392.0378830432892	0.7225899696350098
290	240.66984391212463	response	0	k		288.0	/experiments/knapen_AOT/AOT_stimuli/pictures/0402_fw.png	392.72740292549133	
291	240.7029139995575	picture	0		122	289.0	/experiments/knapen_AOT/AOT_stimuli/pictures/0080_fw.png	392.7604730129242	1.041830062866211
291	241.7114429473877	response	0	j		289.0	/experiments/knapen_AOT/AOT_stimuli/pictures/0080_fw.png	393.7690019607544	
292	241.7447440624237	picture	0		91	290.0	/experiments/knapen_AOT/AOT_stimuli/pictures/0994_fw.png	393.8023030757904	0.7704148292541504
292	242.49487900733948	response	0	j		290.0	/experiments/knapen_AOT/AOT_stimuli/pictures/0994_fw.png	394.5524380207062	
293	242.51515889167786	picture	0		80	291.0	/experiments/knapen_AOT/AOT_stimuli/pictures/1270_fw.png	394.57271790504456	0.6961021423339844
293	243.1698498725891	response	0	j		291.0	/experiments/knapen_AOT/AOT_stimuli/pictures/1270_fw.png	395.2274088859558	
294	243.21126103401184	picture	0		76	292.0	/experiments/knapen_AOT/AOT_stimuli/pictures/0634_fw.png	395.26882004737854	0.6510298252105713
294	243.82958889007568	response	0	k		292.0	/experiments/knapen_AOT/AOT_stimuli/pictures/0634_fw.png	395.8871479034424	
295	243.8622908592224	picture	0		99	293.0	/experiments/knapen_AOT/AOT_stimuli/pictures/1372_fw.png	395.9198498725891	0.8489980697631836
295	244.67814588546753	response	0	k		293.0	/experiments/knapen_AOT/AOT_stimuli/pictures/1372_fw.png	396.73570489883423	
296	244.7112889289856	picture	0		83	294.0	/experiments/knapen_AOT/AOT_stimuli/pictures/0225_fw.png	396.7688479423523	0.7204849720001221
296	245.39492201805115	response	0	j		294.0	/experiments/knapen_AOT/AOT_stimuli/pictures/0225_fw.png	397.45248103141785	
297	245.43177390098572	picture	0		89	295.0	/experiments/knapen_AOT/AOT_stimuli/pictures/1279_fw.png	397.4893329143524	0.7569229602813721
297	246.16144394874573	response	0	j		295.0	/experiments/knapen_AOT/AOT_stimuli/pictures/1279_fw.png	398.2190029621124	
298	246.1886968612671	picture	0		83	296.0	/experiments/knapen_AOT/AOT_stimuli/pictures/0683_fw.png	398.2462558746338	0.7152931690216064
298	246.86976885795593	response	0	k		296.0	/experiments/knapen_AOT/AOT_stimuli/pictures/0683_fw.png	398.92732787132263	
299	246.9039900302887	picture	0		100	297.0	/experiments/knapen_AOT/AOT_stimuli/pictures/1538_fw.png	398.9615490436554	0.8611190319061279
299	247.7281949520111	response	0	k		297.0	/experiments/knapen_AOT/AOT_stimuli/pictures/1538_fw.png	399.7857539653778	
300	247.76510906219482	picture	0		173	298.0	/experiments/knapen_AOT/AOT_stimuli/pictures/0456_fw.png	399.8226680755615	1.458345890045166
300	249.19489002227783	response	0	j		298.0	/experiments/knapen_AOT/AOT_stimuli/pictures/0456_fw.png	401.25244903564453	
301	249.22345495224	picture	0		65	299.0	/experiments/knapen_AOT/AOT_stimuli/pictures/1741_fw.png	401.2810139656067	0.5628900527954102
301	249.75322103500366	response	0	k		299.0	/experiments/knapen_AOT/AOT_stimuli/pictures/1741_fw.png	401.81078004837036	
302	249.7863450050354	picture	0		88	300.0	/experiments/knapen_AOT/AOT_stimuli/pictures/2021_fw.png	401.8439040184021	0.76674485206604
302	250.5114848613739	response	0	k		300.0	/experiments/knapen_AOT/AOT_stimuli/pictures/2021_fw.png	402.5690438747406	
303	250.55308985710144	picture	0		84	301.0	/experiments/knapen_AOT/AOT_stimuli/pictures/0611_fw.png	402.61064887046814	0.7260081768035889
303	251.23817801475525	response	0	k		301.0	/experiments/knapen_AOT/AOT_stimuli/pictures/0611_fw.png	403.29573702812195	
304	251.27909803390503	picture	0		86	302.0	/experiments/knapen_AOT/AOT_stimuli/pictures/0186_fw.png	403.33665704727173	0.7291738986968994
304	251.98659706115723	response	0	k		302.0	/experiments/knapen_AOT/AOT_stimuli/pictures/0186_fw.png	404.0441560745239	
305	252.00827193260193	picture	0		76	303.0	/experiments/knapen_AOT/AOT_stimuli/pictures/0910_fw.png	404.0658309459686	0.6614511013031006
305	252.62975692749023	response	0	k		303.0	/experiments/knapen_AOT/AOT_stimuli/pictures/0910_fw.png	404.68731594085693	
306	252.66972303390503	picture	0		92	304.0	/experiments/knapen_AOT/AOT_stimuli/pictures/1112_fw.png	404.72728204727173	0.7917289733886719
306	253.4215168952942	response	0	j		304.0	/experiments/knapen_AOT/AOT_stimuli/pictures/1112_fw.png	405.4790759086609	
307	253.4614520072937	picture	0		78	305.0	/experiments/knapen_AOT/AOT_stimuli/pictures/2095_fw.png	405.5190110206604	0.6856508255004883
307	254.1032519340515	response	0	j		305.0	/experiments/knapen_AOT/AOT_stimuli/pictures/2095_fw.png	406.1608109474182	
308	254.1471028327942	picture	0		79	306.0	/experiments/knapen_AOT/AOT_stimuli/pictures/1389_fw.png	406.2046618461609	0.6893661022186279
308	254.7949619293213	response	0	j		306.0	/experiments/knapen_AOT/AOT_stimuli/pictures/1389_fw.png	406.852520942688	
309	254.83646893501282	picture	0		80	307.0	/experiments/knapen_AOT/AOT_stimuli/pictures/0810_fw.png	406.8940279483795	0.7165939807891846
309	255.49498295783997	response	0	j		307.0	/experiments/knapen_AOT/AOT_stimuli/pictures/0810_fw.png	407.55254197120667	
310	255.553062915802	picture	0		90	308.0	/experiments/knapen_AOT/AOT_stimuli/pictures/1612_fw.png	407.6106219291687	0.7750289440155029
310	256.2949969768524	response	0	j		308.0	/experiments/knapen_AOT/AOT_stimuli/pictures/1612_fw.png	408.3525559902191	
311	256.3280918598175	picture	0		115	309.0	/experiments/knapen_AOT/AOT_stimuli/pictures/1442_fw.png	408.3856508731842	1.008430004119873
311	257.27830386161804	response	0	k		309.0	/experiments/knapen_AOT/AOT_stimuli/pictures/1442_fw.png	409.33586287498474	
312	257.3365218639374	picture	0		96	310.0	/experiments/knapen_AOT/AOT_stimuli/pictures/1675_fw.png	409.3940808773041	0.8499341011047363
312	258.12828183174133	response	0	k		310.0	/experiments/knapen_AOT/AOT_stimuli/pictures/1675_fw.png	410.18584084510803	
313	258.1864559650421	picture	0		79	311.0	/experiments/knapen_AOT/AOT_stimuli/pictures/1077_fw.png	410.2440149784088	0.6833500862121582
313	258.8299469947815	response	0	j		311.0	/experiments/knapen_AOT/AOT_stimuli/pictures/1077_fw.png	410.8875060081482	
314	258.8698060512543	picture	0		90	312.0	/experiments/knapen_AOT/AOT_stimuli/pictures/1787_fw.png	410.927365064621	0.777324914932251
314	259.6116909980774	response	0	j		312.0	/experiments/knapen_AOT/AOT_stimuli/pictures/1787_fw.png	411.6692500114441	
315	259.6471309661865	picture	0		75	313.0	/experiments/knapen_AOT/AOT_stimuli/pictures/1582_fw.png	411.7046899795532	0.6476709842681885
315	260.25477504730225	response	0	k		313.0	/experiments/knapen_AOT/AOT_stimuli/pictures/1582_fw.png	412.31233406066895	
316	260.2948019504547	picture	0		93	314.0	/experiments/knapen_AOT/AOT_stimuli/pictures/2112_fw.png	412.3523609638214	0.8106839656829834
316	261.06158900260925	response	0	k		314.0	/experiments/knapen_AOT/AOT_stimuli/pictures/2112_fw.png	413.11914801597595	
317	261.1054859161377	picture	0		74	315.0	/experiments/knapen_AOT/AOT_stimuli/pictures/1860_fw.png	413.1630449295044	0.6560139656066895
317	261.73669385910034	response	0	k		315.0	/experiments/knapen_AOT/AOT_stimuli/pictures/1860_fw.png	413.79425287246704	
318	261.7614998817444	picture	0		98	316.0	/experiments/knapen_AOT/AOT_stimuli/pictures/0088_fw.png	413.8190588951111	0.8750231266021729
318	262.57008600234985	response	0	j		316.0	/experiments/knapen_AOT/AOT_stimuli/pictures/0088_fw.png	414.62764501571655	
319	262.63652300834656	picture	0		71	317.0	/experiments/knapen_AOT/AOT_stimuli/pictures/0640_fw.png	414.69408202171326	0.6009538173675537
319	263.2201008796692	response	0	k		317.0	/experiments/knapen_AOT/AOT_stimuli/pictures/0640_fw.png	415.2776598930359	
320	263.2374768257141	picture	0		93	318.0	/experiments/knapen_AOT/AOT_stimuli/pictures/1395_fw.png	415.2950358390808	0.8195610046386719
320	264.00339102745056	response	0	k		318.0	/experiments/knapen_AOT/AOT_stimuli/pictures/1395_fw.png	416.06095004081726	
321	264.0570378303528	picture	0		80	319.0	/experiments/knapen_AOT/AOT_stimuli/pictures/1498_fw.png	416.1145968437195	0.7045230865478516
321	264.71166491508484	response	0	k		319.0	/experiments/knapen_AOT/AOT_stimuli/pictures/1498_fw.png	416.76922392845154	
322	264.76156091690063	picture	0		124	320.0	/experiments/knapen_AOT/AOT_stimuli/pictures/1439_fw.png	416.81911993026733	1.059216022491455
322	265.78676295280457	response	0	k		320.0	/experiments/knapen_AOT/AOT_stimuli/pictures/1439_fw.png	417.84432196617126	
323	265.8207769393921	picture	0		103	321.0	/experiments/knapen_AOT/AOT_stimuli/pictures/0743_fw.png	417.8783359527588	0.8824551105499268
323	266.670156955719	response	0	k		321.0	/experiments/knapen_AOT/AOT_stimuli/pictures/0743_fw.png	418.7277159690857	
324	266.703232049942	picture	0		97	322.0	/experiments/knapen_AOT/AOT_stimuli/pictures/0564_fw.png	418.7607910633087	0.8333418369293213
324	267.5033960342407	response	0	j		322.0	/experiments/knapen_AOT/AOT_stimuli/pictures/0564_fw.png	419.5609550476074	
325	267.53657388687134	picture	0		77	323.0	/experiments/knapen_AOT/AOT_stimuli/pictures/0128_fw.png	419.59413290023804	0.6917109489440918
325	268.1701588630676	response	0	k		323.0	/experiments/knapen_AOT/AOT_stimuli/pictures/0128_fw.png	420.2277178764343	
326	268.22828483581543	picture	0		83	324.0	/experiments/knapen_AOT/AOT_stimuli/pictures/0704_fw.png	420.28584384918213	0.7249250411987305
326	268.91173791885376	response	0	j		324.0	/experiments/knapen_AOT/AOT_stimuli/pictures/0704_fw.png	420.96929693222046	
327	268.95320987701416	picture	0		85	325.0	/experiments/knapen_AOT/AOT_stimuli/pictures/1119_fw.png	421.01076889038086	0.7358291149139404
327	269.6535339355469	response	0	k		325.0	/experiments/knapen_AOT/AOT_stimuli/pictures/1119_fw.png	421.7110929489136	
328	269.6890389919281	picture	0		71	326.0	/experiments/knapen_AOT/AOT_stimuli/pictures/1536_fw.png	421.7465980052948	0.6109390258789062
328	270.2701590061188	response	0	j		326.0	/experiments/knapen_AOT/AOT_stimuli/pictures/1536_fw.png	422.3277180194855	
329	270.299978017807	picture	0		79	327.0	/experiments/knapen_AOT/AOT_stimuli/pictures/1840_fw.png	422.3575370311737	0.6875150203704834
329	270.95344495773315	response	0	j		327.0	/experiments/knapen_AOT/AOT_stimuli/pictures/1840_fw.png	423.01100397109985	
330	270.9874930381775	picture	0		82	328.0	/experiments/knapen_AOT/AOT_stimuli/pictures/0633_fw.png	423.0450520515442	0.7013969421386719
330	271.6617319583893	response	0	k		328.0	/experiments/knapen_AOT/AOT_stimuli/pictures/0633_fw.png	423.719290971756	
331	271.68888998031616	picture	0		79	329.0	/experiments/knapen_AOT/AOT_stimuli/pictures/1262_fw.png	423.74644899368286	0.6811408996582031
331	272.3368089199066	response	0	j		329.0	/experiments/knapen_AOT/AOT_stimuli/pictures/1262_fw.png	424.3943679332733	
332	272.37003087997437	picture	0		132	330.0	/experiments/knapen_AOT/AOT_stimuli/pictures/1250_fw.png	424.42758989334106	1.1175031661987305
332	273.46176195144653	response	0	k		330.0	/experiments/knapen_AOT/AOT_stimuli/pictures/1250_fw.png	425.51932096481323	
333	273.4875340461731	picture	0		79	331.0	/experiments/knapen_AOT/AOT_stimuli/pictures/0859_fw.png	425.5450930595398	0.6824488639831543
333	274.13679599761963	response	0	j		331.0	/experiments/knapen_AOT/AOT_stimuli/pictures/0859_fw.png	426.1943550109863	
334	274.16998291015625	picture	0		84	332.0	/experiments/knapen_AOT/AOT_stimuli/pictures/1462_fw.png	426.22754192352295	0.7272729873657227
334	274.8617858886719	response	0	j		332.0	/experiments/knapen_AOT/AOT_stimuli/pictures/1462_fw.png	426.9193449020386	
335	274.897255897522	picture	0		175	333.0	/experiments/knapen_AOT/AOT_stimuli/pictures/1687_fw.png	426.9548149108887	1.4810960292816162
335	276.3452389240265	response	0	k		333.0	/experiments/knapen_AOT/AOT_stimuli/pictures/1687_fw.png	428.4027979373932	
336	276.3783519268036	picture	0		84	334.0	/experiments/knapen_AOT/AOT_stimuli/pictures/0631_fw.png	428.4359109401703	0.727288007736206
336	277.0702748298645	response	0	j		334.0	/experiments/knapen_AOT/AOT_stimuli/pictures/0631_fw.png	429.1278338432312	
337	277.1056399345398	picture	0		82	335.0	/experiments/knapen_AOT/AOT_stimuli/pictures/0259_fw.png	429.1631989479065	0.7143900394439697
337	277.77852487564087	response	0	j		335.0	/experiments/knapen_AOT/AOT_stimuli/pictures/0259_fw.png	429.83608388900757	
338	277.82002997398376	picture	0		84	336.0	/experiments/knapen_AOT/AOT_stimuli/pictures/1944_fw.png	429.87758898735046	0.7250089645385742
338	278.5118520259857	response	0	k		336.0	/experiments/knapen_AOT/AOT_stimuli/pictures/1944_fw.png	430.5694110393524	
339	278.54503893852234	picture	0		75	337.0	/experiments/knapen_AOT/AOT_stimuli/pictures/0178_fw.png	430.60259795188904	0.6510109901428223
339	279.16187286376953	response	0	j		337.0	/experiments/knapen_AOT/AOT_stimuli/pictures/0178_fw.png	431.21943187713623	
340	279.19604992866516	picture	0		123	338.0	/experiments/knapen_AOT/AOT_stimuli/pictures/0985_fw.png	431.25360894203186	1.049009084701538
340	280.2118949890137	response	0	j		338.0	/experiments/knapen_AOT/AOT_stimuli/pictures/0985_fw.png	432.26945400238037	
341	280.2450590133667	picture	0		74	339.0	/experiments/knapen_AOT/AOT_stimuli/pictures/0232_fw.png	432.3026180267334	0.6452829837799072
341	280.8536388874054	response	0	j		339.0	/experiments/knapen_AOT/AOT_stimuli/pictures/0232_fw.png	432.9111979007721	
342	280.8903419971466	picture	0		70	340.0	/experiments/knapen_AOT/AOT_stimuli/pictures/1461_fw.png	432.9479010105133	0.6048128604888916
342	281.4618649482727	response	0	k		340.0	/experiments/knapen_AOT/AOT_stimuli/pictures/1461_fw.png	433.5194239616394	
343	281.4951548576355	picture	0		96	341.0	/experiments/knapen_AOT/AOT_stimuli/pictures/0935_fw.png	433.5527138710022	0.8258011341094971
343	282.28690004348755	response	0	k		341.0	/experiments/knapen_AOT/AOT_stimuli/pictures/0935_fw.png	434.34445905685425	
344	282.320955991745	picture	0		141	342.0	/experiments/knapen_AOT/AOT_stimuli/pictures/0112_fw.png	434.3785150051117	1.201348066329956
344	283.4869110584259	response	0	j		342.0	/experiments/knapen_AOT/AOT_stimuli/pictures/0112_fw.png	435.5444700717926	
345	283.52230405807495	picture	0		79	343.0	/experiments/knapen_AOT/AOT_stimuli/pictures/1214_fw.png	435.57986307144165	0.6811318397521973
345	284.1703519821167	response	0	j		343.0	/experiments/knapen_AOT/AOT_stimuli/pictures/1214_fw.png	436.2279109954834	
346	284.20343589782715	picture	0		70	344.0	/experiments/knapen_AOT/AOT_stimuli/pictures/0520_fw.png	436.26099491119385	0.5916860103607178
346	284.77870893478394	response	0	j		344.0	/experiments/knapen_AOT/AOT_stimuli/pictures/0520_fw.png	436.83626794815063	
347	284.79512190818787	picture	0		70	345.0	/experiments/knapen_AOT/AOT_stimuli/pictures/1805_fw.png	436.85268092155457	0.6091539859771729
347	285.3703088760376	response	0	k		345.0	/experiments/knapen_AOT/AOT_stimuli/pictures/1805_fw.png	437.4278678894043	
348	285.40427589416504	picture	0		79	346.0	/experiments/knapen_AOT/AOT_stimuli/pictures/0287_fw.png	437.46183490753174	0.687567949295044
348	286.0469620227814	response	0	j		346.0	/experiments/knapen_AOT/AOT_stimuli/pictures/0287_fw.png	438.10452103614807	
349	286.0918438434601	picture	0		70	347.0	/experiments/knapen_AOT/AOT_stimuli/pictures/0079_fw.png	438.1494028568268	0.6117551326751709
349	286.67037296295166	response	0	k		347.0	/experiments/knapen_AOT/AOT_stimuli/pictures/0079_fw.png	438.72793197631836	
350	286.70359897613525	picture	0		122	348.0	/experiments/knapen_AOT/AOT_stimuli/pictures/0771_fw.png	438.76115798950195	1.0416300296783447
350	287.7120199203491	response	0	j		348.0	/experiments/knapen_AOT/AOT_stimuli/pictures/0771_fw.png	439.7695789337158	
351	287.7452290058136	picture	0		86	349.0	/experiments/knapen_AOT/AOT_stimuli/pictures/2170_fw.png	439.8027880191803	0.742393970489502
351	288.44687485694885	response	0	j		349.0	/experiments/knapen_AOT/AOT_stimuli/pictures/2170_fw.png	440.50443387031555	
352	288.4876229763031	picture	0		68	350.0	/experiments/knapen_AOT/AOT_stimuli/pictures/1213_fw.png	440.5451819896698	0.5910210609436035
352	289.03863191604614	response	0	k		350.0	/experiments/knapen_AOT/AOT_stimuli/pictures/1213_fw.png	441.09619092941284	
353	289.0786440372467	picture	0		92	351.0	/experiments/knapen_AOT/AOT_stimuli/pictures/0539_fw.png	441.1362030506134	0.7831928730010986
353	289.830365896225	response	0	k		351.0	/experiments/knapen_AOT/AOT_stimuli/pictures/0539_fw.png	441.8879249095917	
354	289.8618369102478	picture	0		98	352.0	/experiments/knapen_AOT/AOT_stimuli/pictures/0176_fw.png	441.9193959236145	0.8418231010437012
354	290.67036604881287	response	0	j		352.0	/experiments/knapen_AOT/AOT_stimuli/pictures/0176_fw.png	442.72792506217957	
355	290.7036600112915	picture	0		82	353.0	/experiments/knapen_AOT/AOT_stimuli/pictures/0029_fw.png	442.7612190246582	0.7082278728485107
355	291.3788330554962	response	0	k		353.0	/experiments/knapen_AOT/AOT_stimuli/pictures/0029_fw.png	443.4363920688629	
356	291.41188788414	picture	0		76	354.0	/experiments/knapen_AOT/AOT_stimuli/pictures/0370_fw.png	443.4694468975067	0.6590931415557861
356	292.03037691116333	response	0	j		354.0	/experiments/knapen_AOT/AOT_stimuli/pictures/0370_fw.png	444.08793592453003	
357	292.0709810256958	picture	0		71	355.0	/experiments/knapen_AOT/AOT_stimuli/pictures/1098_fw.png	444.1285400390625	0.6076328754425049
357	292.65372586250305	response	0	k		355.0	/experiments/knapen_AOT/AOT_stimuli/pictures/1098_fw.png	444.71128487586975	
358	292.6786139011383	picture	0		71	356.0	/experiments/knapen_AOT/AOT_stimuli/pictures/0852_fw.png	444.736172914505	0.6166181564331055
358	293.2620680332184	response	0	j		356.0	/experiments/knapen_AOT/AOT_stimuli/pictures/0852_fw.png	445.3196270465851	
359	293.2952320575714	picture	0		89	357.0	/experiments/knapen_AOT/AOT_stimuli/pictures/0093_fw.png	445.3527910709381	0.7689428329467773
359	294.0221178531647	response	0	j		357.0	/experiments/knapen_AOT/AOT_stimuli/pictures/0093_fw.png	446.0796768665314	
360	294.0641748905182	picture	0		72	358.0	/experiments/knapen_AOT/AOT_stimuli/pictures/1418_fw.png	446.1217339038849	0.6318271160125732
360	294.6536920070648	response	0	j		358.0	/experiments/knapen_AOT/AOT_stimuli/pictures/1418_fw.png	446.7112510204315	
361	294.69600200653076	picture	0		84	359.0	/experiments/knapen_AOT/AOT_stimuli/pictures/1037_fw.png	446.75356101989746	0.7242770195007324
361	295.3870940208435	response	0	j		359.0	/experiments/knapen_AOT/AOT_stimuli/pictures/1037_fw.png	447.4446530342102	
362	295.4202790260315	stim	0		1100			447.4778380393982	9.20027494430542
362	300.1789789199829	response	0	k				452.2365379333496	
362	304.58745193481445	response	0	space				456.64501094818115	
