trial_nr	onset	event_type	phase	response	nr_frames	picture_index	picture_file	onset_abs	duration
0	0.2802004814147949	stim	0		484			61.07825469970703	4.185067415237427
0	4.355922698974609	response	0	space				65.15397691726685	
2	4.465267896652222	picture	0		349	0.0	/experiments/knapen_AOT/AOT_stimuli/pictures/1855_fw.png	65.26332211494446	2.9687209129333496
2	7.3727638721466064	response	0	j		0.0	/experiments/knapen_AOT/AOT_stimuli/pictures/1855_fw.png	68.17081809043884	
3	7.433988809585571	picture	0		212	1.0	/experiments/knapen_AOT/AOT_stimuli/pictures/0464_fw.png	68.23204302787781	1.7812566757202148
3	9.188741683959961	response	0	k		1.0	/experiments/knapen_AOT/AOT_stimuli/pictures/0464_fw.png	69.9867959022522	
4	9.215245485305786	picture	0		87	2.0	/experiments/knapen_AOT/AOT_stimuli/pictures/2072_fw.png	70.01329970359802	0.7361788749694824
4	9.930423736572266	response	0	j		2.0	/experiments/knapen_AOT/AOT_stimuli/pictures/2072_fw.png	70.7284779548645	
5	9.951424360275269	picture	0		156	3.0	/experiments/knapen_AOT/AOT_stimuli/pictures/1295_fw.png	70.7494785785675	1.3288977146148682
5	11.247087001800537	response	0	j		3.0	/experiments/knapen_AOT/AOT_stimuli/pictures/1295_fw.png	72.04514122009277	
6	11.280322074890137	picture	0		127	4.0	/experiments/knapen_AOT/AOT_stimuli/pictures/0522_fw.png	72.07837629318237	1.0833210945129395
6	12.33052372932434	response	0	k		4.0	/experiments/knapen_AOT/AOT_stimuli/pictures/0522_fw.png	73.12857794761658	
7	12.363643169403076	picture	0		114	5.0	/experiments/knapen_AOT/AOT_stimuli/pictures/1267_fw.png	73.16169738769531	0.9627470970153809
7	13.305487394332886	response	0	j		5.0	/experiments/knapen_AOT/AOT_stimuli/pictures/1267_fw.png	74.10354161262512	
8	13.326390266418457	picture	0		246	6.0	/experiments/knapen_AOT/AOT_stimuli/pictures/0590_fw.png	74.1244444847107	2.055591106414795
8	15.363840579986572	response	0	k		6.0	/experiments/knapen_AOT/AOT_stimuli/pictures/0590_fw.png	76.16189479827881	
9	15.381981372833252	picture	0		77	7.0	/experiments/knapen_AOT/AOT_stimuli/pictures/2083_fw.png	76.18003559112549	0.6597228050231934
9	16.0138201713562	response	0	j		7.0	/experiments/knapen_AOT/AOT_stimuli/pictures/2083_fw.png	76.81187438964844	
10	16.041704177856445	picture	0		156	8.0	/experiments/knapen_AOT/AOT_stimuli/pictures/1179_fw.png	76.83975839614868	1.3055741786956787
10	17.330479383468628	response	0	k		8.0	/experiments/knapen_AOT/AOT_stimuli/pictures/1179_fw.png	78.12853360176086	
11	17.347278356552124	picture	0		195	9.0	/experiments/knapen_AOT/AOT_stimuli/pictures/1734_fw.png	78.14533257484436	1.649803638458252
11	18.96392846107483	response	0	k		9.0	/experiments/knapen_AOT/AOT_stimuli/pictures/1734_fw.png	79.76198267936707	
12	18.997081995010376	picture	0		105	10.0	/experiments/knapen_AOT/AOT_stimuli/pictures/1369_fw.png	79.79513621330261	0.899986982345581
12	19.863916635513306	response	0	j		10.0	/experiments/knapen_AOT/AOT_stimuli/pictures/1369_fw.png	80.66197085380554	
13	19.897068977355957	picture	0		131	11.0	/experiments/knapen_AOT/AOT_stimuli/pictures/0351_fw.png	80.6951231956482	1.1099491119384766
13	20.980579614639282	response	0	j		11.0	/experiments/knapen_AOT/AOT_stimuli/pictures/0351_fw.png	81.77863383293152	
14	21.007018089294434	picture	0		89	12.0	/experiments/knapen_AOT/AOT_stimuli/pictures/0545_fw.png	81.80507230758667	0.7650690078735352
14	21.738969326019287	response	0	j		12.0	/experiments/knapen_AOT/AOT_stimuli/pictures/0545_fw.png	82.53702354431152	
15	21.77208709716797	picture	0		95	13.0	/experiments/knapen_AOT/AOT_stimuli/pictures/1867_fw.png	82.5701413154602	0.8167216777801514
15	22.54793357849121	response	0	j		13.0	/experiments/knapen_AOT/AOT_stimuli/pictures/1867_fw.png	83.34598779678345	
16	22.58880877494812	picture	0		89	14.0	/experiments/knapen_AOT/AOT_stimuli/pictures/0758_fw.png	83.38686299324036	0.75836181640625
16	23.322262048721313	response	0	j		14.0	/experiments/knapen_AOT/AOT_stimuli/pictures/0758_fw.png	84.12031626701355	
17	23.34717059135437	picture	0		116	15.0	/experiments/knapen_AOT/AOT_stimuli/pictures/1345_fw.png	84.1452248096466	0.9793205261230469
17	24.305707693099976	response	0	j		15.0	/experiments/knapen_AOT/AOT_stimuli/pictures/1345_fw.png	85.10376191139221	
18	24.326491117477417	picture	0		102	16.0	/experiments/knapen_AOT/AOT_stimuli/pictures/0306_fw.png	85.12454533576965	0.8706469535827637
18	25.172338724136353	response	0	j		16.0	/experiments/knapen_AOT/AOT_stimuli/pictures/0306_fw.png	85.97039294242859	
19	25.19713807106018	picture	0		185	17.0	/experiments/knapen_AOT/AOT_stimuli/pictures/0964_fw.png	85.99519228935242	1.5583934783935547
19	26.7306170463562	response	0	k		17.0	/experiments/knapen_AOT/AOT_stimuli/pictures/0964_fw.png	87.52867126464844	
20	26.755531549453735	picture	0		511	18.0	/experiments/knapen_AOT/AOT_stimuli/pictures/0393_fw.png	87.55358576774597	4.275067567825317
20	31.005796909332275	response	0	k		18.0	/experiments/knapen_AOT/AOT_stimuli/pictures/0393_fw.png	91.80385112762451	
21	31.030599117279053	picture	0		121	19.0	/experiments/knapen_AOT/AOT_stimuli/pictures/0354_fw.png	91.82865333557129	1.025071382522583
21	32.030731201171875	response	0	j		19.0	/experiments/knapen_AOT/AOT_stimuli/pictures/0354_fw.png	92.82878541946411	
22	32.055670499801636	picture	0		95	20.0	/experiments/knapen_AOT/AOT_stimuli/pictures/1489_fw.png	92.85372471809387	0.8194773197174072
22	32.83910274505615	response	0	j		20.0	/experiments/knapen_AOT/AOT_stimuli/pictures/1489_fw.png	93.63715696334839	
23	32.87514781951904	picture	0		150	21.0	/experiments/knapen_AOT/AOT_stimuli/pictures/1037_fw.png	93.67320203781128	1.263901948928833
23	34.11430549621582	response	0	j		21.0	/experiments/knapen_AOT/AOT_stimuli/pictures/1037_fw.png	94.91235971450806	
24	34.139049768447876	picture	0		118	22.0	/experiments/knapen_AOT/AOT_stimuli/pictures/0394_fw.png	94.93710398674011	0.9999847412109375
24	35.114044427871704	response	0	j		22.0	/experiments/knapen_AOT/AOT_stimuli/pictures/0394_fw.png	95.91209864616394	
25	35.13903450965881	picture	0		149	23.0	/experiments/knapen_AOT/AOT_stimuli/pictures/1380_fw.png	95.93708872795105	1.2500205039978027
25	36.37263631820679	response	0	k		23.0	/experiments/knapen_AOT/AOT_stimuli/pictures/1380_fw.png	97.17069053649902	
26	36.389055013656616	picture	0		212	24.0	/experiments/knapen_AOT/AOT_stimuli/pictures/1187_fw.png	97.18710923194885	1.770843505859375
26	38.13951897621155	response	0	k		24.0	/experiments/knapen_AOT/AOT_stimuli/pictures/1187_fw.png	98.93757319450378	
27	38.15989851951599	picture	0		257	25.0	/experiments/knapen_AOT/AOT_stimuli/pictures/1397_fw.png	98.95795273780823	2.13889741897583
27	40.28911876678467	response	0	k		25.0	/experiments/knapen_AOT/AOT_stimuli/pictures/1397_fw.png	101.0871729850769	
28	40.29879593849182	picture	0		82	26.0	/experiments/knapen_AOT/AOT_stimuli/pictures/1844_fw.png	101.09685015678406	0.690234899520874
28	40.97250556945801	response	0	j		26.0	/experiments/knapen_AOT/AOT_stimuli/pictures/1844_fw.png	101.77055978775024	
29	40.989030838012695	picture	0		80	27.0	/experiments/knapen_AOT/AOT_stimuli/pictures/1253_fw.png	101.78708505630493	0.6749856472015381
29	41.64748406410217	response	0	j		27.0	/experiments/knapen_AOT/AOT_stimuli/pictures/1253_fw.png	102.44553828239441	
30	41.66401648521423	picture	0		111	28.0	/experiments/knapen_AOT/AOT_stimuli/pictures/0495_fw.png	102.46207070350647	0.9264822006225586
30	42.58083248138428	response	0	j		28.0	/experiments/knapen_AOT/AOT_stimuli/pictures/0495_fw.png	103.37888669967651	
31	42.59049868583679	picture	0		101	29.0	/experiments/knapen_AOT/AOT_stimuli/pictures/1553_fw.png	103.38855290412903	0.8485360145568848
31	43.422518253326416	response	0	j		29.0	/experiments/knapen_AOT/AOT_stimuli/pictures/1553_fw.png	104.22057247161865	
32	43.43903470039368	picture	0		463	30.0	/experiments/knapen_AOT/AOT_stimuli/pictures/0451_fw.png	104.23708891868591	3.8667726516723633
32	47.289207220077515	response	0	k		30.0	/experiments/knapen_AOT/AOT_stimuli/pictures/0451_fw.png	108.08726143836975	
33	47.30580735206604	picture	0		84	31.0	/experiments/knapen_AOT/AOT_stimuli/pictures/1106_fw.png	108.10386157035828	0.7084181308746338
33	47.99751901626587	response	0	j		31.0	/experiments/knapen_AOT/AOT_stimuli/pictures/1106_fw.png	108.7955732345581	
34	48.014225482940674	picture	0		137	32.0	/experiments/knapen_AOT/AOT_stimuli/pictures/1280_fw.png	108.81227970123291	1.1526880264282227
34	49.147603034973145	response	0	k		32.0	/experiments/knapen_AOT/AOT_stimuli/pictures/1280_fw.png	109.94565725326538	
35	49.1669135093689	picture	0		82	33.0	/experiments/knapen_AOT/AOT_stimuli/pictures/2004_fw.png	109.96496772766113	0.6888890266418457
35	49.83939170837402	response	0	j		33.0	/experiments/knapen_AOT/AOT_stimuli/pictures/2004_fw.png	110.63744592666626	
36	49.85580253601074	picture	0		105	34.0	/experiments/knapen_AOT/AOT_stimuli/pictures/0516_fw.png	110.65385675430298	0.8833222389221191
36	50.72267436981201	response	0	j		34.0	/experiments/knapen_AOT/AOT_stimuli/pictures/0516_fw.png	111.52072858810425	
37	50.73912477493286	picture	0		144	35.0	/experiments/knapen_AOT/AOT_stimuli/pictures/0896_fw.png	111.5371789932251	1.2083356380462646
37	51.9314398765564	response	0	k		35.0	/experiments/knapen_AOT/AOT_stimuli/pictures/0896_fw.png	112.72949409484863	
38	51.947460412979126	picture	0		186	36.0	/experiments/knapen_AOT/AOT_stimuli/pictures/0413_fw.png	112.74551463127136	1.5597765445709229
38	53.489330768585205	response	0	j		36.0	/experiments/knapen_AOT/AOT_stimuli/pictures/0413_fw.png	114.28738498687744	
39	53.50723695755005	picture	0		302	37.0	/experiments/knapen_AOT/AOT_stimuli/pictures/0018_fw.png	114.30529117584229	2.5152759552001953
39	56.01438045501709	response	0	k		37.0	/experiments/knapen_AOT/AOT_stimuli/pictures/0018_fw.png	116.81243467330933	
40	56.022512912750244	picture	0		165	38.0	/experiments/knapen_AOT/AOT_stimuli/pictures/0975_fw.png	116.82056713104248	1.3833496570587158
40	57.389424324035645	response	0	k		38.0	/experiments/knapen_AOT/AOT_stimuli/pictures/0975_fw.png	118.18747854232788	
41	57.40586256980896	picture	0		426	39.0	/experiments/knapen_AOT/AOT_stimuli/pictures/0254_fw.png	118.2039167881012	3.5597732067108154
41	60.947768211364746	response	0	k		39.0	/experiments/knapen_AOT/AOT_stimuli/pictures/0254_fw.png	121.74582242965698	
42	60.965635776519775	picture	0		181	40.0	/experiments/knapen_AOT/AOT_stimuli/pictures/1153_fw.png	121.76368999481201	1.5152976512908936
42	62.46443271636963	response	0	j		40.0	/experiments/knapen_AOT/AOT_stimuli/pictures/1153_fw.png	123.26248693466187	
43	62.48093342781067	picture	0		88	41.0	/experiments/knapen_AOT/AOT_stimuli/pictures/1985_fw.png	123.2789876461029	0.7416696548461914
43	63.20607376098633	response	0	j		41.0	/experiments/knapen_AOT/AOT_stimuli/pictures/1985_fw.png	124.00412797927856	
44	63.22260308265686	picture	0		103	42.0	/experiments/knapen_AOT/AOT_stimuli/pictures/0534_fw.png	124.0206573009491	0.8666753768920898
44	64.07279253005981	response	0	j		42.0	/experiments/knapen_AOT/AOT_stimuli/pictures/0534_fw.png	124.87084674835205	
45	64.08927845954895	picture	0		368	43.0	/experiments/knapen_AOT/AOT_stimuli/pictures/2055_fw.png	124.88733267784119	3.075070381164551
45	67.1478099822998	response	0	k		43.0	/experiments/knapen_AOT/AOT_stimuli/pictures/2055_fw.png	127.94586420059204	
46	67.1643488407135	picture	0		96	44.0	/experiments/knapen_AOT/AOT_stimuli/pictures/0389_fw.png	127.96240305900574	0.8083455562591553
46	67.95621156692505	response	0	j		44.0	/experiments/knapen_AOT/AOT_stimuli/pictures/0389_fw.png	128.75426578521729	
47	67.97269439697266	picture	0		168	45.0	/experiments/knapen_AOT/AOT_stimuli/pictures/0868_fw.png	128.7707486152649	1.4027016162872314
47	69.36449337005615	response	0	k		45.0	/experiments/knapen_AOT/AOT_stimuli/pictures/0868_fw.png	130.1625475883484	
48	69.37539601325989	picture	0		121	46.0	/experiments/knapen_AOT/AOT_stimuli/pictures/1750_fw.png	130.17345023155212	1.0139739513397217
48	70.37279605865479	response	0	j		46.0	/experiments/knapen_AOT/AOT_stimuli/pictures/1750_fw.png	131.17085027694702	
49	70.38936996459961	picture	0		214	47.0	/experiments/knapen_AOT/AOT_stimuli/pictures/0567_fw.png	131.18742418289185	1.791684627532959
49	72.16452383995056	response	0	j		47.0	/experiments/knapen_AOT/AOT_stimuli/pictures/0567_fw.png	132.9625780582428	
50	72.18105459213257	picture	0		101	48.0	/experiments/knapen_AOT/AOT_stimuli/pictures/0091_fw.png	132.9791088104248	0.850003719329834
50	73.01451110839844	response	0	k		48.0	/experiments/knapen_AOT/AOT_stimuli/pictures/0091_fw.png	133.81256532669067	
51	73.0310583114624	picture	0		967	49.0	/experiments/knapen_AOT/AOT_stimuli/pictures/0983_fw.png	133.82911252975464	8.06678318977356
51	81.0813364982605	response	0	k		49.0	/experiments/knapen_AOT/AOT_stimuli/pictures/0983_fw.png	141.87939071655273	
52	81.09784150123596	picture	0		77	50.0	/experiments/knapen_AOT/AOT_stimuli/pictures/0814_fw.png	141.8958957195282	0.6456959247589111
52	81.73131155967712	response	0	j		50.0	/experiments/knapen_AOT/AOT_stimuli/pictures/0814_fw.png	142.52936577796936	
53	81.74353742599487	picture	0		177	51.0	/experiments/knapen_AOT/AOT_stimuli/pictures/0587_fw.png	142.5415916442871	1.4793035984039307
53	83.20637392997742	response	0	j		51.0	/experiments/knapen_AOT/AOT_stimuli/pictures/0587_fw.png	144.00442814826965	
54	83.2228410243988	picture	0		162	52.0	/experiments/knapen_AOT/AOT_stimuli/pictures/0856_fw.png	144.02089524269104	1.3583674430847168
54	84.56483721733093	response	0	j		52.0	/experiments/knapen_AOT/AOT_stimuli/pictures/0856_fw.png	145.36289143562317	
55	84.58120846748352	picture	0		95	53.0	/experiments/knapen_AOT/AOT_stimuli/pictures/1192_fw.png	145.37926268577576	0.8000185489654541
55	85.3650643825531	response	0	j		53.0	/experiments/knapen_AOT/AOT_stimuli/pictures/1192_fw.png	146.16311860084534	
56	85.38122701644897	picture	0		108	54.0	/experiments/knapen_AOT/AOT_stimuli/pictures/1200_fw.png	146.1792812347412	0.9083216190338135
56	86.2730131149292	response	0	k		54.0	/experiments/knapen_AOT/AOT_stimuli/pictures/1200_fw.png	147.07106733322144	
57	86.28954863548279	picture	0		126	55.0	/experiments/knapen_AOT/AOT_stimuli/pictures/1559_fw.png	147.08760285377502	1.0583505630493164
57	87.32395458221436	response	0	k		55.0	/experiments/knapen_AOT/AOT_stimuli/pictures/1559_fw.png	148.1220088005066	
58	87.3478991985321	picture	0		239	56.0	/experiments/knapen_AOT/AOT_stimuli/pictures/1652_fw.png	148.14595341682434	2.0000410079956055
58	89.32388210296631	response	0	k		56.0	/experiments/knapen_AOT/AOT_stimuli/pictures/1652_fw.png	150.12193632125854	
59	89.34794020652771	picture	0		178	57.0	/experiments/knapen_AOT/AOT_stimuli/pictures/1028_fw.png	150.14599442481995	1.4917175769805908
59	90.82306814193726	response	0	j		57.0	/experiments/knapen_AOT/AOT_stimuli/pictures/1028_fw.png	151.6211223602295	
60	90.8396577835083	picture	0		94	58.0	/experiments/knapen_AOT/AOT_stimuli/pictures/0390_fw.png	151.63771200180054	0.7858986854553223
60	91.6148054599762	response	0	j		58.0	/experiments/knapen_AOT/AOT_stimuli/pictures/0390_fw.png	152.41285967826843	
61	91.62555646896362	picture	0		92	59.0	/experiments/knapen_AOT/AOT_stimuli/pictures/0454_fw.png	152.42361068725586	0.7724368572235107
61	92.38148069381714	response	0	j		59.0	/experiments/knapen_AOT/AOT_stimuli/pictures/0454_fw.png	153.17953491210938	
62	92.39799332618713	picture	0		106	60.0	/experiments/knapen_AOT/AOT_stimuli/pictures/0391_fw.png	153.19604754447937	0.8916585445404053
62	93.27312994003296	response	0	k		60.0	/experiments/knapen_AOT/AOT_stimuli/pictures/0391_fw.png	154.0711841583252	
63	93.28965187072754	picture	0		147	61.0	/experiments/knapen_AOT/AOT_stimuli/pictures/1898_fw.png	154.08770608901978	1.2333462238311768
63	94.50653839111328	response	0	k		61.0	/experiments/knapen_AOT/AOT_stimuli/pictures/1898_fw.png	155.30459260940552	
64	94.52299809455872	picture	0		697	62.0	/experiments/knapen_AOT/AOT_stimuli/pictures/1505_fw.png	155.32105231285095	5.810956239700317
64	100.32318425178528	response	0	k		62.0	/experiments/knapen_AOT/AOT_stimuli/pictures/1505_fw.png	161.12123847007751	
65	100.33395433425903	picture	0		111	63.0	/experiments/knapen_AOT/AOT_stimuli/pictures/2125_fw.png	161.13200855255127	0.9236025810241699
65	101.24819469451904	response	0	k		63.0	/experiments/knapen_AOT/AOT_stimuli/pictures/2125_fw.png	162.04624891281128	
66	101.2575569152832	picture	0		148	64.0	/experiments/knapen_AOT/AOT_stimuli/pictures/1869_fw.png	162.05561113357544	1.2405316829681396
66	102.4815571308136	response	0	j		64.0	/experiments/knapen_AOT/AOT_stimuli/pictures/1869_fw.png	163.27961134910583	
67	102.49808859825134	picture	0		159	65.0	/experiments/knapen_AOT/AOT_stimuli/pictures/1893_fw.png	163.29614281654358	1.3333520889282227
67	103.81489968299866	response	0	j		65.0	/experiments/knapen_AOT/AOT_stimuli/pictures/1893_fw.png	164.6129539012909	
68	103.83144068717957	picture	0		81	66.0	/experiments/knapen_AOT/AOT_stimuli/pictures/1418_fw.png	164.6294949054718	0.6833658218383789
68	104.49823307991028	response	0	j		66.0	/experiments/knapen_AOT/AOT_stimuli/pictures/1418_fw.png	165.29628729820251	
69	104.51480650901794	picture	0		113	67.0	/experiments/knapen_AOT/AOT_stimuli/pictures/1161_fw.png	165.31286072731018	0.9500062465667725
69	105.44825768470764	response	0	j		67.0	/experiments/knapen_AOT/AOT_stimuli/pictures/1161_fw.png	166.24631190299988	
70	105.46481275558472	picture	0		165	68.0	/experiments/knapen_AOT/AOT_stimuli/pictures/0149_fw.png	166.26286697387695	1.383326768875122
70	106.83161735534668	response	0	j		68.0	/experiments/knapen_AOT/AOT_stimuli/pictures/0149_fw.png	167.62967157363892	
71	106.84813952445984	picture	0		94	69.0	/experiments/knapen_AOT/AOT_stimuli/pictures/0562_fw.png	167.64619374275208	0.7844674587249756
71	107.62326955795288	response	0	j		69.0	/experiments/knapen_AOT/AOT_stimuli/pictures/0562_fw.png	168.42132377624512	
72	107.63260698318481	picture	0		305	70.0	/experiments/knapen_AOT/AOT_stimuli/pictures/0289_fw.png	168.43066120147705	2.5489118099212646
72	110.16506004333496	response	0	j		70.0	/experiments/knapen_AOT/AOT_stimuli/pictures/0289_fw.png	170.9631142616272	
73	110.18151879310608	picture	0		75	71.0	/experiments/knapen_AOT/AOT_stimuli/pictures/0811_fw.png	170.97957301139832	0.6333661079406738
73	110.79836893081665	response	0	j		71.0	/experiments/knapen_AOT/AOT_stimuli/pictures/0811_fw.png	171.5964231491089	
74	110.81488490104675	picture	0		730	72.0	/experiments/knapen_AOT/AOT_stimuli/pictures/0050_fw.png	171.612939119339	6.08864688873291
74	116.89008283615112	response	0	k		72.0	/experiments/knapen_AOT/AOT_stimuli/pictures/0050_fw.png	177.68813705444336	
75	116.90353178977966	picture	0		280	73.0	/experiments/knapen_AOT/AOT_stimuli/pictures/0972_fw.png	177.7015860080719	2.336449384689331
75	119.22343230247498	response	0	j		73.0	/experiments/knapen_AOT/AOT_stimuli/pictures/0972_fw.png	180.0214865207672	
76	119.239981174469	picture	0		162	74.0	/experiments/knapen_AOT/AOT_stimuli/pictures/0853_fw.png	180.03803539276123	1.3510501384735107
76	120.58176517486572	response	0	k		74.0	/experiments/knapen_AOT/AOT_stimuli/pictures/0853_fw.png	181.37981939315796	
77	120.5910313129425	picture	0		154	75.0	/experiments/knapen_AOT/AOT_stimuli/pictures/2037_fw.png	181.38908553123474	1.2906413078308105
77	121.86515498161316	response	0	k		75.0	/experiments/knapen_AOT/AOT_stimuli/pictures/2037_fw.png	182.6632091999054	
78	121.88167262077332	picture	0		100	76.0	/experiments/knapen_AOT/AOT_stimuli/pictures/1021_fw.png	182.67972683906555	0.8416762351989746
78	122.70686531066895	response	0	k		76.0	/experiments/knapen_AOT/AOT_stimuli/pictures/1021_fw.png	183.50491952896118	
79	122.72334885597229	picture	0		107	77.0	/experiments/knapen_AOT/AOT_stimuli/pictures/0311_fw.png	183.52140307426453	0.8954875469207764
79	123.60680222511292	response	0	j		77.0	/experiments/knapen_AOT/AOT_stimuli/pictures/0311_fw.png	184.40485644340515	
80	123.61883640289307	picture	0		85	78.0	/experiments/knapen_AOT/AOT_stimuli/pictures/1783_fw.png	184.4168906211853	0.7128856182098389
80	124.31530284881592	response	0	j		78.0	/experiments/knapen_AOT/AOT_stimuli/pictures/1783_fw.png	185.11335706710815	
81	124.3317220211029	picture	0		108	79.0	/experiments/knapen_AOT/AOT_stimuli/pictures/0431_fw.png	185.12977623939514	1.0166714191436768
81	125.22348165512085	response	0	j		79.0	/experiments/knapen_AOT/AOT_stimuli/pictures/0431_fw.png	186.0215358734131	
82	125.34839344024658	picture	0		235	80.0	/experiments/knapen_AOT/AOT_stimuli/pictures/0186_fw.png	186.14644765853882	1.966688632965088
82	127.29861760139465	response	0	k		80.0	/experiments/knapen_AOT/AOT_stimuli/pictures/0186_fw.png	188.0966718196869	
83	127.31508207321167	picture	0		104	81.0	/experiments/knapen_AOT/AOT_stimuli/pictures/1337_fw.png	188.1131362915039	0.874995231628418
83	128.1734914779663	response	0	j		81.0	/experiments/knapen_AOT/AOT_stimuli/pictures/1337_fw.png	188.97154569625854	
84	128.1900773048401	picture	0		128	82.0	/experiments/knapen_AOT/AOT_stimuli/pictures/0433_fw.png	188.98813152313232	1.0750062465667725
84	129.24854063987732	response	0	j		82.0	/experiments/knapen_AOT/AOT_stimuli/pictures/0433_fw.png	190.04659485816956	
85	129.26508355140686	picture	0		125	83.0	/experiments/knapen_AOT/AOT_stimuli/pictures/0519_fw.png	190.0631377696991	1.0500195026397705
85	130.2985484600067	response	0	k		83.0	/experiments/knapen_AOT/AOT_stimuli/pictures/0519_fw.png	191.09660267829895	
86	130.31510305404663	picture	0		83	84.0	/experiments/knapen_AOT/AOT_stimuli/pictures/1205_fw.png	191.11315727233887	0.7000119686126709
86	130.99862241744995	response	0	j		84.0	/experiments/knapen_AOT/AOT_stimuli/pictures/1205_fw.png	191.7966766357422	
87	131.0151150226593	picture	0		264	85.0	/experiments/knapen_AOT/AOT_stimuli/pictures/1423_fw.png	191.81316924095154	2.2083659172058105
87	133.20694780349731	response	0	k		85.0	/experiments/knapen_AOT/AOT_stimuli/pictures/1423_fw.png	194.00500202178955	
88	133.2234809398651	picture	0		175	86.0	/experiments/knapen_AOT/AOT_stimuli/pictures/0736_fw.png	194.02153515815735	1.4666683673858643
88	134.67388939857483	response	0	j		86.0	/experiments/knapen_AOT/AOT_stimuli/pictures/0736_fw.png	195.47194361686707	
89	134.69014930725098	picture	0		92	87.0	/experiments/knapen_AOT/AOT_stimuli/pictures/1939_fw.png	195.4882035255432	0.7759964466094971
89	135.44862270355225	response	0	j		87.0	/experiments/knapen_AOT/AOT_stimuli/pictures/1939_fw.png	196.24667692184448	
90	135.46614575386047	picture	0		470	88.0	/experiments/knapen_AOT/AOT_stimuli/pictures/1018_fw.png	196.2641999721527	3.9240951538085938
90	139.37371730804443	response	0	j		88.0	/experiments/knapen_AOT/AOT_stimuli/pictures/1018_fw.png	200.17177152633667	
91	139.39024090766907	picture	0		88	89.0	/experiments/knapen_AOT/AOT_stimuli/pictures/0695_fw.png	200.1882951259613	0.7426011562347412
91	140.10820293426514	response	0	k		89.0	/experiments/knapen_AOT/AOT_stimuli/pictures/0695_fw.png	200.90625715255737	
92	140.1328420639038	picture	0		127	90.0	/experiments/knapen_AOT/AOT_stimuli/pictures/1629_fw.png	200.93089628219604	1.0657286643981934
92	141.18200969696045	response	0	k		90.0	/experiments/knapen_AOT/AOT_stimuli/pictures/1629_fw.png	201.98006391525269	
93	141.198570728302	picture	0		219	91.0	/experiments/knapen_AOT/AOT_stimuli/pictures/0329_fw.png	201.99662494659424	1.8250901699066162
93	143.01539206504822	response	0	k		91.0	/experiments/knapen_AOT/AOT_stimuli/pictures/0329_fw.png	203.81344628334045	
94	143.02366089820862	picture	0		85	92.0	/experiments/knapen_AOT/AOT_stimuli/pictures/0915_fw.png	203.82171511650085	0.7166082859039307
94	143.71583342552185	response	0	j		92.0	/experiments/knapen_AOT/AOT_stimuli/pictures/0915_fw.png	204.5138876438141	
95	143.74026918411255	picture	0		90	93.0	/experiments/knapen_AOT/AOT_stimuli/pictures/0174_fw.png	204.53832340240479	0.7583479881286621
95	144.48206973075867	response	0	j		93.0	/experiments/knapen_AOT/AOT_stimuli/pictures/0174_fw.png	205.2801239490509	
96	144.4986171722412	picture	0		167	94.0	/experiments/knapen_AOT/AOT_stimuli/pictures/0049_fw.png	205.29667139053345	1.4000060558319092
96	145.88211488723755	response	0	j		94.0	/experiments/knapen_AOT/AOT_stimuli/pictures/0049_fw.png	206.68016910552979	
97	145.89862322807312	picture	0		315	95.0	/experiments/knapen_AOT/AOT_stimuli/pictures/1052_fw.png	206.69667744636536	2.6333603858947754
97	148.50894904136658	response	0	k		95.0	/experiments/knapen_AOT/AOT_stimuli/pictures/1052_fw.png	209.3070032596588	
98	148.5319836139679	picture	0		256	96.0	/experiments/knapen_AOT/AOT_stimuli/pictures/0090_fw.png	209.33003783226013	2.1417322158813477
98	150.65713381767273	response	0	k		96.0	/experiments/knapen_AOT/AOT_stimuli/pictures/0090_fw.png	211.45518803596497	
99	150.67371582984924	picture	0		103	97.0	/experiments/knapen_AOT/AOT_stimuli/pictures/0040_fw.png	211.47177004814148	0.8666622638702393
99	151.51632618904114	response	0	j		97.0	/experiments/knapen_AOT/AOT_stimuli/pictures/0040_fw.png	212.31438040733337	
100	151.54037809371948	picture	0		186	98.0	/experiments/knapen_AOT/AOT_stimuli/pictures/1648_fw.png	212.33843231201172	2.3773016929626465
100	153.89950609207153	response	0	k		98.0	/experiments/knapen_AOT/AOT_stimuli/pictures/1648_fw.png	214.69756031036377	
101	153.91767978668213	picture	0		239	99.0	/experiments/knapen_AOT/AOT_stimuli/pictures/1432_fw.png	214.71573400497437	1.9977879524230957
101	155.8988983631134	response	0	k		99.0	/experiments/knapen_AOT/AOT_stimuli/pictures/1432_fw.png	216.69695258140564	
102	155.91546773910522	picture	0		140	100.0	/experiments/knapen_AOT/AOT_stimuli/pictures/0678_fw.png	216.71352195739746	1.175044298171997
102	157.0739004611969	response	0	k		100.0	/experiments/knapen_AOT/AOT_stimuli/pictures/0678_fw.png	217.87195467948914	
103	157.09051203727722	picture	0		287	101.0	/experiments/knapen_AOT/AOT_stimuli/pictures/1330_fw.png	217.88856625556946	2.399998903274536
103	159.4739294052124	response	0	k		101.0	/experiments/knapen_AOT/AOT_stimuli/pictures/1330_fw.png	220.27198362350464	
104	159.49051094055176	picture	0		547	102.0	/experiments/knapen_AOT/AOT_stimuli/pictures/0347_fw.png	220.288565158844	4.566710948944092
104	164.0408329963684	response	0	k		102.0	/experiments/knapen_AOT/AOT_stimuli/pictures/0347_fw.png	224.83888721466064	
105	164.05722188949585	picture	0		212	103.0	/experiments/knapen_AOT/AOT_stimuli/pictures/0430_fw.png	224.8552761077881	1.7772016525268555
105	165.81594109535217	response	0	k		103.0	/experiments/knapen_AOT/AOT_stimuli/pictures/0430_fw.png	226.6139953136444	
106	165.8344235420227	picture	0		262	104.0	/experiments/knapen_AOT/AOT_stimuli/pictures/1960_fw.png	226.63247776031494	2.1894869804382324
106	168.00736165046692	response	0	k		104.0	/experiments/knapen_AOT/AOT_stimuli/pictures/1960_fw.png	228.80541586875916	
107	168.02391052246094	picture	0		82	105.0	/experiments/knapen_AOT/AOT_stimuli/pictures/1683_fw.png	228.82196474075317	0.6924786567687988
107	168.6990249156952	response	0	j		105.0	/experiments/knapen_AOT/AOT_stimuli/pictures/1683_fw.png	229.49707913398743	
108	168.71638917922974	picture	0		105	106.0	/experiments/knapen_AOT/AOT_stimuli/pictures/0802_fw.png	229.51444339752197	0.8825693130493164
108	169.58240580558777	response	0	j		106.0	/experiments/knapen_AOT/AOT_stimuli/pictures/0802_fw.png	230.38046002388	
109	169.59895849227905	picture	0		126	107.0	/experiments/knapen_AOT/AOT_stimuli/pictures/1617_fw.png	230.3970127105713	1.058312177658081
109	170.64074063301086	response	0	j		107.0	/experiments/knapen_AOT/AOT_stimuli/pictures/1617_fw.png	231.4387948513031	
110	170.65727066993713	picture	0		151	108.0	/experiments/knapen_AOT/AOT_stimuli/pictures/1873_fw.png	231.45532488822937	1.2666823863983154
110	171.90737986564636	response	0	k		108.0	/experiments/knapen_AOT/AOT_stimuli/pictures/1873_fw.png	232.7054340839386	
111	171.92395305633545	picture	0		101	109.0	/experiments/knapen_AOT/AOT_stimuli/pictures/0469_fw.png	232.72200727462769	0.8416721820831299
111	172.7575089931488	response	0	j		109.0	/experiments/knapen_AOT/AOT_stimuli/pictures/0469_fw.png	233.55556321144104	
112	172.76562523841858	picture	0		150	110.0	/experiments/knapen_AOT/AOT_stimuli/pictures/2049_fw.png	233.56367945671082	1.2583532333374023
112	174.0075011253357	response	0	j		110.0	/experiments/knapen_AOT/AOT_stimuli/pictures/2049_fw.png	234.80555534362793	
113	174.02397847175598	picture	0		153	111.0	/experiments/knapen_AOT/AOT_stimuli/pictures/0773_fw.png	234.82203269004822	1.283348560333252
113	175.29080080986023	response	0	j		111.0	/experiments/knapen_AOT/AOT_stimuli/pictures/0773_fw.png	236.08885502815247	
114	175.30732703208923	picture	0		294	112.0	/experiments/knapen_AOT/AOT_stimuli/pictures/1132_fw.png	236.10538125038147	2.45078706741333
114	177.74934339523315	response	0	j		112.0	/experiments/knapen_AOT/AOT_stimuli/pictures/1132_fw.png	238.5473976135254	
115	177.75811409950256	picture	0		78	113.0	/experiments/knapen_AOT/AOT_stimuli/pictures/0518_fw.png	238.5561683177948	0.6597208976745605
115	178.39942741394043	response	0	j		113.0	/experiments/knapen_AOT/AOT_stimuli/pictures/0518_fw.png	239.19748163223267	
116	178.41783499717712	picture	0		133	114.0	/experiments/knapen_AOT/AOT_stimuli/pictures/1967_fw.png	239.21588921546936	1.1111176013946533
116	179.51597809791565	response	0	k		114.0	/experiments/knapen_AOT/AOT_stimuli/pictures/1967_fw.png	240.31403231620789	
117	179.52895259857178	picture	0		76	115.0	/experiments/knapen_AOT/AOT_stimuli/pictures/1671_fw.png	240.327006816864	0.6367864608764648
117	180.14929246902466	response	0	j		115.0	/experiments/knapen_AOT/AOT_stimuli/pictures/1671_fw.png	240.9473466873169	
118	180.16573905944824	picture	0		208	116.0	/experiments/knapen_AOT/AOT_stimuli/pictures/0044_fw.png	240.96379327774048	1.7416856288909912
118	181.8909227848053	response	0	k		116.0	/experiments/knapen_AOT/AOT_stimuli/pictures/0044_fw.png	242.68897700309753	
119	181.90742468833923	picture	0		248	117.0	/experiments/knapen_AOT/AOT_stimuli/pictures/1354_fw.png	242.70547890663147	2.0751116275787354
119	183.96592497825623	response	0	j		117.0	/experiments/knapen_AOT/AOT_stimuli/pictures/1354_fw.png	244.76397919654846	
120	183.98253631591797	picture	0		90	118.0	/experiments/knapen_AOT/AOT_stimuli/pictures/1955_fw.png	244.7805905342102	0.7582485675811768
120	184.72432780265808	response	0	j		118.0	/experiments/knapen_AOT/AOT_stimuli/pictures/1955_fw.png	245.52238202095032	
121	184.74078488349915	picture	0		82	119.0	/experiments/knapen_AOT/AOT_stimuli/pictures/1519_fw.png	245.53883910179138	0.6916577816009521
121	185.41594624519348	response	0	j		119.0	/experiments/knapen_AOT/AOT_stimuli/pictures/1519_fw.png	246.21400046348572	
122	185.4324426651001	picture	0		318	120.0	/experiments/knapen_AOT/AOT_stimuli/pictures/0665_fw.png	246.23049688339233	2.659151077270508
122	188.07437109947205	response	0	k		120.0	/experiments/knapen_AOT/AOT_stimuli/pictures/0665_fw.png	248.87242531776428	
123	188.0915937423706	picture	0		110	121.0	/experiments/knapen_AOT/AOT_stimuli/pictures/1422_fw.png	248.88964796066284	1.0992333889007568
123	188.99926328659058	response	0	j		121.0	/experiments/knapen_AOT/AOT_stimuli/pictures/1422_fw.png	249.7973175048828	
124	189.19082713127136	picture	0		102	122.0	/experiments/knapen_AOT/AOT_stimuli/pictures/1946_fw.png	249.9888813495636	0.859107494354248
124	190.032621383667	response	0	k		122.0	/experiments/knapen_AOT/AOT_stimuli/pictures/1946_fw.png	250.83067560195923	
125	190.0499346256256	picture	0		93	123.0	/experiments/knapen_AOT/AOT_stimuli/pictures/0206_fw.png	250.84798884391785	0.7826030254364014
125	190.81601405143738	response	0	j		123.0	/experiments/knapen_AOT/AOT_stimuli/pictures/0206_fw.png	251.61406826972961	
126	190.832537651062	picture	0		174	124.0	/experiments/knapen_AOT/AOT_stimuli/pictures/0054_fw.png	251.63059186935425	1.4534618854522705
126	192.27440094947815	response	0	k		124.0	/experiments/knapen_AOT/AOT_stimuli/pictures/0054_fw.png	253.07245516777039	
127	192.28599953651428	picture	0		154	125.0	/experiments/knapen_AOT/AOT_stimuli/pictures/0565_fw.png	253.08405375480652	1.2882518768310547
127	193.557715177536	response	0	j		125.0	/experiments/knapen_AOT/AOT_stimuli/pictures/0565_fw.png	254.35576939582825	
128	193.57425141334534	picture	0		231	126.0	/experiments/knapen_AOT/AOT_stimuli/pictures/0694_fw.png	254.37230563163757	1.933333158493042
128	195.49103665351868	response	0	k		126.0	/experiments/knapen_AOT/AOT_stimuli/pictures/0694_fw.png	256.2890908718109	
129	195.50758457183838	picture	0		121	127.0	/experiments/knapen_AOT/AOT_stimuli/pictures/1328_fw.png	256.3056387901306	1.0166826248168945
129	196.50807881355286	response	0	k		127.0	/experiments/knapen_AOT/AOT_stimuli/pictures/1328_fw.png	257.3061330318451	
130	196.52426719665527	picture	0		91	128.0	/experiments/knapen_AOT/AOT_stimuli/pictures/1368_fw.png	257.3223214149475	0.7666823863983154
130	197.274582862854	response	0	j		128.0	/experiments/knapen_AOT/AOT_stimuli/pictures/1368_fw.png	258.07263708114624	
131	197.2909495830536	picture	0		379	129.0	/experiments/knapen_AOT/AOT_stimuli/pictures/1531_fw.png	258.0890038013458	3.1687207221984863
131	200.44113302230835	response	0	j		129.0	/experiments/knapen_AOT/AOT_stimuli/pictures/1531_fw.png	261.2391872406006	
132	200.45967030525208	picture	0		136	130.0	/experiments/knapen_AOT/AOT_stimuli/pictures/1469_fw.png	261.2577245235443	1.139662742614746
132	201.58307671546936	response	0	j		130.0	/experiments/knapen_AOT/AOT_stimuli/pictures/1469_fw.png	262.3811309337616	
133	201.59933304786682	picture	0		150	131.0	/experiments/knapen_AOT/AOT_stimuli/pictures/1167_fw.png	262.39738726615906	1.2500197887420654
133	202.84116101264954	response	0	k		131.0	/experiments/knapen_AOT/AOT_stimuli/pictures/1167_fw.png	263.6392152309418	
134	202.8493528366089	picture	0		186	132.0	/experiments/knapen_AOT/AOT_stimuli/pictures/0727_fw.png	263.6474070549011	1.5583546161651611
134	204.39117455482483	response	0	k		132.0	/experiments/knapen_AOT/AOT_stimuli/pictures/0727_fw.png	265.18922877311707	
135	204.40770745277405	picture	0		136	133.0	/experiments/knapen_AOT/AOT_stimuli/pictures/1111_fw.png	265.2057616710663	1.1422648429870605
135	205.53302550315857	response	0	k		133.0	/experiments/knapen_AOT/AOT_stimuli/pictures/1111_fw.png	266.3310797214508	
136	205.5499722957611	picture	0		135	134.0	/experiments/knapen_AOT/AOT_stimuli/pictures/2024_fw.png	266.34802651405334	1.1327335834503174
136	206.6661765575409	response	0	k		134.0	/experiments/knapen_AOT/AOT_stimuli/pictures/2024_fw.png	267.46423077583313	
137	206.68270587921143	picture	0		336	135.0	/experiments/knapen_AOT/AOT_stimuli/pictures/2118_fw.png	267.48076009750366	2.8000340461730957
137	209.47451066970825	response	0	j		135.0	/experiments/knapen_AOT/AOT_stimuli/pictures/2118_fw.png	270.2725648880005	
138	209.48273992538452	picture	0		364	136.0	/experiments/knapen_AOT/AOT_stimuli/pictures/2030_fw.png	270.28079414367676	3.0417611598968506
138	212.5085916519165	response	0	k		136.0	/experiments/knapen_AOT/AOT_stimuli/pictures/2030_fw.png	273.30664587020874	
139	212.52450108528137	picture	0		138	137.0	/experiments/knapen_AOT/AOT_stimuli/pictures/0951_fw.png	273.3225553035736	1.1505424976348877
139	213.666273355484	response	0	k		137.0	/experiments/knapen_AOT/AOT_stimuli/pictures/0951_fw.png	274.46432757377625	
140	213.67504358291626	picture	0		101	138.0	/experiments/knapen_AOT/AOT_stimuli/pictures/1002_fw.png	274.4730978012085	0.8410904407501221
140	214.5080440044403	response	0	k		138.0	/experiments/knapen_AOT/AOT_stimuli/pictures/1002_fw.png	275.30609822273254	
141	214.51613402366638	picture	0		242	139.0	/experiments/knapen_AOT/AOT_stimuli/pictures/0094_fw.png	275.3141882419586	2.020031690597534
141	216.52463674545288	response	0	k		139.0	/experiments/knapen_AOT/AOT_stimuli/pictures/0094_fw.png	277.3226909637451	
142	216.53616571426392	picture	0		517	140.0	/experiments/knapen_AOT/AOT_stimuli/pictures/1057_fw.png	277.33421993255615	4.313643455505371
142	220.8332691192627	response	0	j		140.0	/experiments/knapen_AOT/AOT_stimuli/pictures/1057_fw.png	281.63132333755493	
143	220.8498091697693	picture	0		113	141.0	/experiments/knapen_AOT/AOT_stimuli/pictures/1135_fw.png	281.6478633880615	0.949906587600708
143	221.78313326835632	response	0	k		141.0	/experiments/knapen_AOT/AOT_stimuli/pictures/1135_fw.png	282.58118748664856	
144	221.79971575737	picture	0		115	142.0	/experiments/knapen_AOT/AOT_stimuli/pictures/1292_fw.png	282.59776997566223	0.9667682647705078
144	222.75018119812012	response	0	k		142.0	/experiments/knapen_AOT/AOT_stimuli/pictures/1292_fw.png	283.54823541641235	
145	222.7664840221405	picture	0		95	143.0	/experiments/knapen_AOT/AOT_stimuli/pictures/2011_fw.png	283.56453824043274	0.7975375652313232
145	223.54992628097534	response	0	j		143.0	/experiments/knapen_AOT/AOT_stimuli/pictures/2011_fw.png	284.3479804992676	
146	223.56402158737183	picture	0		187	144.0	/experiments/knapen_AOT/AOT_stimuli/pictures/1913_fw.png	284.36207580566406	1.5689659118652344
146	225.1166751384735	response	0	k		144.0	/experiments/knapen_AOT/AOT_stimuli/pictures/1913_fw.png	285.91472935676575	
147	225.13298749923706	picture	0		245	145.0	/experiments/knapen_AOT/AOT_stimuli/pictures/1240_fw.png	285.9310417175293	2.042147397994995
147	227.16650128364563	response	0	k		145.0	/experiments/knapen_AOT/AOT_stimuli/pictures/1240_fw.png	287.96455550193787	
148	227.17513489723206	picture	0		100	146.0	/experiments/knapen_AOT/AOT_stimuli/pictures/1646_fw.png	287.9731891155243	0.8414666652679443
148	228.0000832080841	response	0	k		146.0	/experiments/knapen_AOT/AOT_stimuli/pictures/1646_fw.png	288.79813742637634	
149	228.0166015625	picture	0		102	147.0	/experiments/knapen_AOT/AOT_stimuli/pictures/1891_fw.png	288.81465578079224	0.8580870628356934
149	228.8581986427307	response	0	j		147.0	/experiments/knapen_AOT/AOT_stimuli/pictures/1891_fw.png	289.65625286102295	
150	228.8746886253357	picture	0		112	148.0	/experiments/knapen_AOT/AOT_stimuli/pictures/0195_fw.png	289.67274284362793	0.9418139457702637
150	229.80097842216492	response	0	k		148.0	/experiments/knapen_AOT/AOT_stimuli/pictures/0195_fw.png	290.59903264045715	
151	229.81650257110596	picture	0		177	149.0	/experiments/knapen_AOT/AOT_stimuli/pictures/0685_fw.png	290.6145567893982	1.4832212924957275
151	231.2832157611847	response	0	k		149.0	/experiments/knapen_AOT/AOT_stimuli/pictures/0685_fw.png	292.08126997947693	
152	231.29972386360168	picture	0		297	150.0	/experiments/knapen_AOT/AOT_stimuli/pictures/1899_fw.png	292.0977780818939	2.483426094055176
152	233.76659274101257	response	0	k		150.0	/experiments/knapen_AOT/AOT_stimuli/pictures/1899_fw.png	294.5646469593048	
153	233.78314995765686	picture	0		102	151.0	/experiments/knapen_AOT/AOT_stimuli/pictures/0498_fw.png	294.5812041759491	0.8583111763000488
153	234.6249315738678	response	0	j		151.0	/experiments/knapen_AOT/AOT_stimuli/pictures/0498_fw.png	295.42298579216003	
154	234.6414611339569	picture	0		125	152.0	/experiments/knapen_AOT/AOT_stimuli/pictures/1478_fw.png	295.43951535224915	1.0477344989776611
154	235.67507910728455	response	0	k		152.0	/experiments/knapen_AOT/AOT_stimuli/pictures/1478_fw.png	296.4731333255768	
155	235.68919563293457	picture	0		194	153.0	/experiments/knapen_AOT/AOT_stimuli/pictures/2089_fw.png	296.4872498512268	1.6272587776184082
155	237.30046916007996	response	0	j		153.0	/experiments/knapen_AOT/AOT_stimuli/pictures/2089_fw.png	298.0985233783722	
156	237.31645441055298	picture	0		85	154.0	/experiments/knapen_AOT/AOT_stimuli/pictures/0593_fw.png	298.1145086288452	0.716808557510376
156	238.0166471004486	response	0	k		154.0	/experiments/knapen_AOT/AOT_stimuli/pictures/0593_fw.png	298.81470131874084	
157	238.03326296806335	picture	0		83	155.0	/experiments/knapen_AOT/AOT_stimuli/pictures/1540_fw.png	298.8313171863556	0.6998908519744873
157	238.7166886329651	response	0	k		155.0	/experiments/knapen_AOT/AOT_stimuli/pictures/1540_fw.png	299.5147428512573	
158	238.73315382003784	picture	0		94	156.0	/experiments/knapen_AOT/AOT_stimuli/pictures/1725_fw.png	299.5312080383301	0.7916882038116455
158	239.50102925300598	response	0	k		156.0	/experiments/knapen_AOT/AOT_stimuli/pictures/1725_fw.png	300.2990834712982	
159	239.5248420238495	picture	0		129	157.0	/experiments/knapen_AOT/AOT_stimuli/pictures/2175_fw.png	300.3228962421417	1.080967903137207
159	240.59169054031372	response	0	j		157.0	/experiments/knapen_AOT/AOT_stimuli/pictures/2175_fw.png	301.38974475860596	
160	240.6058099269867	picture	0		104	158.0	/experiments/knapen_AOT/AOT_stimuli/pictures/1027_fw.png	301.40386414527893	0.8773601055145264
160	241.46688222885132	response	0	j		158.0	/experiments/knapen_AOT/AOT_stimuli/pictures/1027_fw.png	302.26493644714355	
161	241.48317003250122	picture	0		144	159.0	/experiments/knapen_AOT/AOT_stimuli/pictures/2176_fw.png	302.28122425079346	1.208348035812378
161	242.6762571334839	response	0	k		159.0	/experiments/knapen_AOT/AOT_stimuli/pictures/2176_fw.png	303.4743113517761	
162	242.6915180683136	picture	0		243	160.0	/experiments/knapen_AOT/AOT_stimuli/pictures/0277_fw.png	303.48957228660583	2.0253868103027344
162	244.70849514007568	response	0	k		160.0	/experiments/knapen_AOT/AOT_stimuli/pictures/0277_fw.png	305.5065493583679	
163	244.71690487861633	picture	0		198	161.0	/experiments/knapen_AOT/AOT_stimuli/pictures/1110_fw.png	305.51495909690857	1.652820348739624
163	246.35852980613708	response	0	k		161.0	/experiments/knapen_AOT/AOT_stimuli/pictures/1110_fw.png	307.1565840244293	
164	246.36972522735596	picture	0		97	162.0	/experiments/knapen_AOT/AOT_stimuli/pictures/0071_fw.png	307.1677794456482	0.8055384159088135
164	247.1668405532837	response	0	k		162.0	/experiments/knapen_AOT/AOT_stimuli/pictures/0071_fw.png	307.9648947715759	
165	247.17526364326477	picture	0		110	163.0	/experiments/knapen_AOT/AOT_stimuli/pictures/1193_fw.png	307.973317861557	0.9166927337646484
165	248.08342504501343	response	0	j		163.0	/experiments/knapen_AOT/AOT_stimuli/pictures/1193_fw.png	308.88147926330566	
166	248.09195637702942	picture	0		237	164.0	/experiments/knapen_AOT/AOT_stimuli/pictures/0139_fw.png	308.89001059532166	1.9829835891723633
166	250.05850648880005	response	0	j		164.0	/experiments/knapen_AOT/AOT_stimuli/pictures/0139_fw.png	310.8565607070923	
167	250.07493996620178	picture	0		92	165.0	/experiments/knapen_AOT/AOT_stimuli/pictures/0508_fw.png	310.872994184494	0.7670168876647949
167	250.8335826396942	response	0	k		165.0	/experiments/knapen_AOT/AOT_stimuli/pictures/0508_fw.png	311.63163685798645	
168	250.84195685386658	picture	0		130	166.0	/experiments/knapen_AOT/AOT_stimuli/pictures/1279_fw.png	311.6400110721588	1.0913646221160889
168	251.9170835018158	response	0	k		166.0	/experiments/knapen_AOT/AOT_stimuli/pictures/1279_fw.png	312.71513772010803	
169	251.93332147598267	picture	0		118	167.0	/experiments/knapen_AOT/AOT_stimuli/pictures/1842_fw.png	312.7313756942749	0.985065221786499
169	252.90847086906433	response	0	k		167.0	/experiments/knapen_AOT/AOT_stimuli/pictures/1842_fw.png	313.70652508735657	
170	252.91838669776917	picture	0		153	168.0	/experiments/knapen_AOT/AOT_stimuli/pictures/0012_fw.png	313.7164409160614	1.2778756618499756
170	254.1835434436798	response	0	k		168.0	/experiments/knapen_AOT/AOT_stimuli/pictures/0012_fw.png	314.98159766197205	
171	254.19626235961914	picture	0		140	169.0	/experiments/knapen_AOT/AOT_stimuli/pictures/1146_fw.png	314.9943165779114	1.178760051727295
171	255.35866570472717	response	0	k		169.0	/experiments/knapen_AOT/AOT_stimuli/pictures/1146_fw.png	316.1567199230194	
172	255.37502241134644	picture	0		237	170.0	/experiments/knapen_AOT/AOT_stimuli/pictures/1009_fw.png	316.1730766296387	1.9809064865112305
172	257.34207248687744	response	0	k		170.0	/experiments/knapen_AOT/AOT_stimuli/pictures/1009_fw.png	318.1401267051697	
173	257.35592889785767	picture	0		320	171.0	/experiments/knapen_AOT/AOT_stimuli/pictures/0848_fw.png	318.1539831161499	2.6774823665618896
173	260.01703453063965	response	0	k		171.0	/experiments/knapen_AOT/AOT_stimuli/pictures/0848_fw.png	320.8150887489319	
174	260.03341126441956	picture	0		125	172.0	/experiments/knapen_AOT/AOT_stimuli/pictures/1488_fw.png	320.8314654827118	1.0500099658966064
174	261.06722617149353	response	0	k		172.0	/experiments/knapen_AOT/AOT_stimuli/pictures/1488_fw.png	321.86528038978577	
175	261.08342123031616	picture	0		69	173.0	/experiments/knapen_AOT/AOT_stimuli/pictures/0014_fw.png	321.8814754486084	0.5833573341369629
175	261.65046644210815	response	0	k		173.0	/experiments/knapen_AOT/AOT_stimuli/pictures/0014_fw.png	322.4485206604004	
176	261.6667785644531	picture	0		140	174.0	/experiments/knapen_AOT/AOT_stimuli/pictures/1669_fw.png	322.46483278274536	1.1683361530303955
176	262.82537865638733	response	0	k		174.0	/experiments/knapen_AOT/AOT_stimuli/pictures/1669_fw.png	323.62343287467957	
177	262.8351147174835	picture	0		248	175.0	/experiments/knapen_AOT/AOT_stimuli/pictures/1285_fw.png	323.63316893577576	2.073457956314087
177	264.8856656551361	response	0	k		175.0	/experiments/knapen_AOT/AOT_stimuli/pictures/1285_fw.png	325.68371987342834	
178	264.9085726737976	picture	0		237	176.0	/experiments/knapen_AOT/AOT_stimuli/pictures/1666_fw.png	325.70662689208984	1.9833436012268066
178	266.86859345436096	response	0	k		176.0	/experiments/knapen_AOT/AOT_stimuli/pictures/1666_fw.png	327.6666476726532	
179	266.8919162750244	picture	0		189	177.0	/experiments/knapen_AOT/AOT_stimuli/pictures/2140_fw.png	327.68997049331665	1.5832667350769043
179	268.45883417129517	response	0	k		177.0	/experiments/knapen_AOT/AOT_stimuli/pictures/2140_fw.png	329.2568883895874	
180	268.4751830101013	picture	0		179	178.0	/experiments/knapen_AOT/AOT_stimuli/pictures/0193_fw.png	329.27323722839355	1.5000150203704834
180	269.95872616767883	response	0	k		178.0	/experiments/knapen_AOT/AOT_stimuli/pictures/0193_fw.png	330.75678038597107	
181	269.9751980304718	picture	0		199	179.0	/experiments/knapen_AOT/AOT_stimuli/pictures/0696_fw.png	330.77325224876404	1.6666769981384277
181	271.625652551651	response	0	k		179.0	/experiments/knapen_AOT/AOT_stimuli/pictures/0696_fw.png	332.42370676994324	
182	271.64187502861023	picture	0		200	180.0	/experiments/knapen_AOT/AOT_stimuli/pictures/1047_fw.png	332.43992924690247	1.675025463104248
182	273.3011784553528	response	0	k		180.0	/experiments/knapen_AOT/AOT_stimuli/pictures/1047_fw.png	334.099232673645	
183	273.3169004917145	picture	0		92	181.0	/experiments/knapen_AOT/AOT_stimuli/pictures/0301_fw.png	334.1149547100067	0.7682950496673584
183	274.07544016838074	response	0	j		181.0	/experiments/knapen_AOT/AOT_stimuli/pictures/0301_fw.png	334.873494386673	
184	274.08519554138184	picture	0		133	182.0	/experiments/knapen_AOT/AOT_stimuli/pictures/1062_fw.png	334.8832497596741	1.1111416816711426
184	275.1838524341583	response	0	k		182.0	/experiments/knapen_AOT/AOT_stimuli/pictures/1062_fw.png	335.98190665245056	
185	275.196337223053	picture	0		94	183.0	/experiments/knapen_AOT/AOT_stimuli/pictures/1361_fw.png	335.9943914413452	0.7874186038970947
185	275.96752071380615	response	0	j		183.0	/experiments/knapen_AOT/AOT_stimuli/pictures/1361_fw.png	336.7655749320984	
186	275.9837558269501	picture	0		134	184.0	/experiments/knapen_AOT/AOT_stimuli/pictures/0645_fw.png	336.7818100452423	1.1248631477355957
186	277.09266996383667	response	0	k		184.0	/experiments/knapen_AOT/AOT_stimuli/pictures/0645_fw.png	337.8907241821289	
187	277.10861897468567	picture	0		122	185.0	/experiments/knapen_AOT/AOT_stimuli/pictures/0756_fw.png	337.9066731929779	1.0182690620422363
187	278.11712551116943	response	0	k		185.0	/experiments/knapen_AOT/AOT_stimuli/pictures/0756_fw.png	338.91517972946167	
188	278.1268880367279	picture	0		150	186.0	/experiments/knapen_AOT/AOT_stimuli/pictures/0644_fw.png	338.92494225502014	1.2569665908813477
188	279.3675374984741	response	0	k		186.0	/experiments/knapen_AOT/AOT_stimuli/pictures/0644_fw.png	340.16559171676636	
189	279.38385462760925	picture	0		88	187.0	/experiments/knapen_AOT/AOT_stimuli/pictures/0923_fw.png	340.1819088459015	0.7414579391479492
189	280.1090450286865	response	0	j		187.0	/experiments/knapen_AOT/AOT_stimuli/pictures/0923_fw.png	340.90709924697876	
190	280.1253125667572	picture	0		98	188.0	/experiments/knapen_AOT/AOT_stimuli/pictures/1251_fw.png	340.92336678504944	0.8250362873077393
190	280.93388962745667	response	0	j		188.0	/experiments/knapen_AOT/AOT_stimuli/pictures/1251_fw.png	341.7319438457489	
191	280.95034885406494	picture	0		316	189.0	/experiments/knapen_AOT/AOT_stimuli/pictures/2073_fw.png	341.7484030723572	2.6417109966278076
191	283.57583832740784	response	0	j		189.0	/experiments/knapen_AOT/AOT_stimuli/pictures/2073_fw.png	344.3738925457001	
192	283.59205985069275	picture	0		154	190.0	/experiments/knapen_AOT/AOT_stimuli/pictures/2039_fw.png	344.390114068985	1.28486967086792
192	284.86733984947205	response	0	k		190.0	/experiments/knapen_AOT/AOT_stimuli/pictures/2039_fw.png	345.6653940677643	
193	284.87692952156067	picture	0		104	191.0	/experiments/knapen_AOT/AOT_stimuli/pictures/1495_fw.png	345.6749837398529	0.8734750747680664
193	285.7340130805969	response	0	j		191.0	/experiments/knapen_AOT/AOT_stimuli/pictures/1495_fw.png	346.53206729888916	
194	285.75040459632874	picture	0		91	192.0	/experiments/knapen_AOT/AOT_stimuli/pictures/0458_fw.png	346.548458814621	0.7668051719665527
194	286.50076174736023	response	0	k		192.0	/experiments/knapen_AOT/AOT_stimuli/pictures/0458_fw.png	347.29881596565247	
195	286.5172097682953	picture	0		600	193.0	/experiments/knapen_AOT/AOT_stimuli/pictures/1739_fw.png	347.3152639865875	5.008286476135254
195	291.50917506217957	response	0	k		193.0	/experiments/knapen_AOT/AOT_stimuli/pictures/1739_fw.png	352.3072292804718	
196	291.52549624443054	picture	0		86	194.0	/experiments/knapen_AOT/AOT_stimuli/pictures/0075_fw.png	352.3235504627228	0.719550371170044
196	292.23409152030945	response	0	j		194.0	/experiments/knapen_AOT/AOT_stimuli/pictures/0075_fw.png	353.0321457386017	
197	292.2450466156006	picture	0		89	195.0	/experiments/knapen_AOT/AOT_stimuli/pictures/0965_fw.png	353.0431008338928	0.7471108436584473
197	292.975821018219	response	0	k		195.0	/experiments/knapen_AOT/AOT_stimuli/pictures/0965_fw.png	353.77387523651123	
198	292.99215745925903	picture	0		180	196.0	/experiments/knapen_AOT/AOT_stimuli/pictures/0346_fw.png	353.79021167755127	1.5083751678466797
198	294.4778046607971	response	0	k		196.0	/experiments/knapen_AOT/AOT_stimuli/pictures/0346_fw.png	355.27585887908936	
199	294.5005326271057	picture	0		533	197.0	/experiments/knapen_AOT/AOT_stimuli/pictures/0429_fw.png	355.29858684539795	4.450014114379883
199	298.93430948257446	response	0	j		197.0	/experiments/knapen_AOT/AOT_stimuli/pictures/0429_fw.png	359.7323637008667	
200	298.9505467414856	picture	0		82	198.0	/experiments/knapen_AOT/AOT_stimuli/pictures/0501_fw.png	359.74860095977783	0.6916830539703369
200	299.62599062919617	response	0	k		198.0	/experiments/knapen_AOT/AOT_stimuli/pictures/0501_fw.png	360.4240448474884	
201	299.64222979545593	picture	0		97	199.0	/experiments/knapen_AOT/AOT_stimuli/pictures/0997_fw.png	360.44028401374817	0.8166823387145996
201	300.4424273967743	response	0	j		199.0	/experiments/knapen_AOT/AOT_stimuli/pictures/0997_fw.png	361.2404816150665	
202	300.45891213417053	picture	0		188	200.0	/experiments/knapen_AOT/AOT_stimuli/pictures/1453_fw.png	361.25696635246277	1.5750057697296143
202	302.0175738334656	response	0	k		200.0	/experiments/knapen_AOT/AOT_stimuli/pictures/1453_fw.png	362.8156280517578	
203	302.03391790390015	picture	0		135	201.0	/experiments/knapen_AOT/AOT_stimuli/pictures/0871_fw.png	362.8319721221924	1.1278717517852783
203	303.1507852077484	response	0	k		201.0	/experiments/knapen_AOT/AOT_stimuli/pictures/0871_fw.png	363.94883942604065	
204	303.1617896556854	picture	0		72	202.0	/experiments/knapen_AOT/AOT_stimuli/pictures/1544_fw.png	363.95984387397766	0.6056065559387207
204	303.75114369392395	response	0	j		202.0	/experiments/knapen_AOT/AOT_stimuli/pictures/1544_fw.png	364.5491979122162	
205	303.76739621162415	picture	0		244	203.0	/experiments/knapen_AOT/AOT_stimuli/pictures/0125_fw.png	364.5654504299164	2.041799783706665
205	305.7924659252167	response	0	j		203.0	/experiments/knapen_AOT/AOT_stimuli/pictures/0125_fw.png	366.5905201435089	
206	305.8091959953308	picture	0		148	204.0	/experiments/knapen_AOT/AOT_stimuli/pictures/1387_fw.png	366.60725021362305	1.2345612049102783
206	307.03426790237427	response	0	k		204.0	/experiments/knapen_AOT/AOT_stimuli/pictures/1387_fw.png	367.8323221206665	
207	307.0437572002411	picture	0		126	205.0	/experiments/knapen_AOT/AOT_stimuli/pictures/1816_fw.png	367.8418114185333	1.0569112300872803
207	308.07788014411926	response	0	k		205.0	/experiments/knapen_AOT/AOT_stimuli/pictures/1816_fw.png	368.8759343624115	
208	308.10066843032837	picture	0		165	206.0	/experiments/knapen_AOT/AOT_stimuli/pictures/0884_fw.png	368.8987226486206	1.3833625316619873
208	309.46127581596375	response	0	k		206.0	/experiments/knapen_AOT/AOT_stimuli/pictures/0884_fw.png	370.259330034256	
209	309.48403096199036	picture	0		90	207.0	/experiments/knapen_AOT/AOT_stimuli/pictures/0140_fw.png	370.2820851802826	0.7583508491516113
209	310.2259862422943	response	0	j		207.0	/experiments/knapen_AOT/AOT_stimuli/pictures/0140_fw.png	371.02404046058655	
210	310.24238181114197	picture	0		152	208.0	/experiments/knapen_AOT/AOT_stimuli/pictures/1616_fw.png	371.0404360294342	1.275071144104004
210	311.5008981227875	response	0	k		208.0	/experiments/knapen_AOT/AOT_stimuli/pictures/1616_fw.png	372.2989523410797	
211	311.517452955246	picture	0		139	209.0	/experiments/knapen_AOT/AOT_stimuli/pictures/1926_fw.png	372.3155071735382	1.1667537689208984
211	312.667688369751	response	0	k		209.0	/experiments/knapen_AOT/AOT_stimuli/pictures/1926_fw.png	373.4657425880432	
212	312.68420672416687	picture	0		103	210.0	/experiments/knapen_AOT/AOT_stimuli/pictures/0039_fw.png	373.4822609424591	0.866732120513916
212	313.5346169471741	response	0	k		210.0	/experiments/knapen_AOT/AOT_stimuli/pictures/0039_fw.png	374.3326711654663	
213	313.5509388446808	picture	0		134	211.0	/experiments/knapen_AOT/AOT_stimuli/pictures/0941_fw.png	374.348993062973	1.124983310699463
213	314.6529493331909	response	0	j		211.0	/experiments/knapen_AOT/AOT_stimuli/pictures/0941_fw.png	375.45100355148315	
214	314.67592215538025	picture	0		123	212.0	/experiments/knapen_AOT/AOT_stimuli/pictures/0917_fw.png	375.4739763736725	1.0276191234588623
214	315.69261026382446	response	0	k		212.0	/experiments/knapen_AOT/AOT_stimuli/pictures/0917_fw.png	376.4906644821167	
215	315.7035412788391	picture	0		92	213.0	/experiments/knapen_AOT/AOT_stimuli/pictures/0890_fw.png	376.50159549713135	0.772376298904419
215	316.4594032764435	response	0	k		213.0	/experiments/knapen_AOT/AOT_stimuli/pictures/0890_fw.png	377.2574574947357	
216	316.47591757774353	picture	0		132	214.0	/experiments/knapen_AOT/AOT_stimuli/pictures/0787_fw.png	377.27397179603577	1.108203649520874
216	317.5677146911621	response	0	k		214.0	/experiments/knapen_AOT/AOT_stimuli/pictures/0787_fw.png	378.36576890945435	
217	317.5841212272644	picture	0		88	215.0	/experiments/knapen_AOT/AOT_stimuli/pictures/1119_fw.png	378.38217544555664	0.7416815757751465
217	318.30967807769775	response	0	j		215.0	/experiments/knapen_AOT/AOT_stimuli/pictures/1119_fw.png	379.10773229599	
218	318.32580280303955	picture	0		129	216.0	/experiments/knapen_AOT/AOT_stimuli/pictures/1676_fw.png	379.1238570213318	1.0833427906036377
218	319.39268922805786	response	0	k		216.0	/experiments/knapen_AOT/AOT_stimuli/pictures/1676_fw.png	380.1907434463501	
219	319.4091455936432	picture	0		83	217.0	/experiments/knapen_AOT/AOT_stimuli/pictures/1785_fw.png	380.2071998119354	0.7001307010650635
219	320.09302139282227	response	0	j		217.0	/experiments/knapen_AOT/AOT_stimuli/pictures/1785_fw.png	380.8910756111145	
220	320.10927629470825	picture	0		103	218.0	/experiments/knapen_AOT/AOT_stimuli/pictures/0406_fw.png	380.9073305130005	0.8582262992858887
220	320.95935344696045	response	0	j		218.0	/experiments/knapen_AOT/AOT_stimuli/pictures/0406_fw.png	381.7574076652527	
221	320.96750259399414	picture	0		124	219.0	/experiments/knapen_AOT/AOT_stimuli/pictures/0019_fw.png	381.7655568122864	1.0417373180389404
221	321.99282336235046	response	0	j		219.0	/experiments/knapen_AOT/AOT_stimuli/pictures/0019_fw.png	382.7908775806427	
222	322.0092399120331	picture	0		120	220.0	/experiments/knapen_AOT/AOT_stimuli/pictures/1415_fw.png	382.8072941303253	1.0082783699035645
222	323.00107526779175	response	0	j		220.0	/experiments/knapen_AOT/AOT_stimuli/pictures/1415_fw.png	383.799129486084	
223	323.01751828193665	picture	0		115	221.0	/experiments/knapen_AOT/AOT_stimuli/pictures/0204_fw.png	383.8155725002289	0.9667797088623047
223	323.9679298400879	response	0	k		221.0	/experiments/knapen_AOT/AOT_stimuli/pictures/0204_fw.png	384.7659840583801	
224	323.98429799079895	picture	0		120	222.0	/experiments/knapen_AOT/AOT_stimuli/pictures/1375_fw.png	384.7823522090912	1.008253574371338
224	324.97605180740356	response	0	j		222.0	/experiments/knapen_AOT/AOT_stimuli/pictures/1375_fw.png	385.7741060256958	
225	324.9925515651703	picture	0		123	223.0	/experiments/knapen_AOT/AOT_stimuli/pictures/0335_fw.png	385.7906057834625	1.0333702564239502
225	326.0095520019531	response	0	k		223.0	/experiments/knapen_AOT/AOT_stimuli/pictures/0335_fw.png	386.80760622024536	
226	326.02592182159424	picture	0		116	224.0	/experiments/knapen_AOT/AOT_stimuli/pictures/2144_fw.png	386.8239760398865	0.9693713188171387
226	326.98442101478577	response	0	j		224.0	/experiments/knapen_AOT/AOT_stimuli/pictures/2144_fw.png	387.782475233078	
227	326.9952931404114	picture	0		114	225.0	/experiments/knapen_AOT/AOT_stimuli/pictures/2065_fw.png	387.7933473587036	0.9515068531036377
227	327.9345097541809	response	0	j		225.0	/experiments/knapen_AOT/AOT_stimuli/pictures/2065_fw.png	388.73256397247314	
228	327.946799993515	picture	0		107	226.0	/experiments/knapen_AOT/AOT_stimuli/pictures/0762_fw.png	388.74485421180725	0.8957920074462891
228	328.826208114624	response	0	j		226.0	/experiments/knapen_AOT/AOT_stimuli/pictures/0762_fw.png	389.62426233291626	
229	328.8425920009613	picture	0		126	227.0	/experiments/knapen_AOT/AOT_stimuli/pictures/0899_fw.png	389.64064621925354	1.0583655834197998
229	329.8847506046295	response	0	k		227.0	/experiments/knapen_AOT/AOT_stimuli/pictures/0899_fw.png	390.68280482292175	
230	329.9009575843811	picture	0		457	228.0	/experiments/knapen_AOT/AOT_stimuli/pictures/2063_fw.png	390.69901180267334	3.816683292388916
230	333.7011423110962	response	0	k		228.0	/experiments/knapen_AOT/AOT_stimuli/pictures/2063_fw.png	394.4991965293884	
231	333.71764087677	picture	0		103	229.0	/experiments/knapen_AOT/AOT_stimuli/pictures/1643_fw.png	394.51569509506226	0.8667843341827393
231	334.56798005104065	response	0	j		229.0	/experiments/knapen_AOT/AOT_stimuli/pictures/1643_fw.png	395.3660342693329	
232	334.58442521095276	picture	0		99	230.0	/experiments/knapen_AOT/AOT_stimuli/pictures/1727_fw.png	395.382479429245	0.8276064395904541
232	335.40115094184875	response	0	k		230.0	/experiments/knapen_AOT/AOT_stimuli/pictures/1727_fw.png	396.199205160141	
233	335.4120316505432	picture	0		137	231.0	/experiments/knapen_AOT/AOT_stimuli/pictures/1136_fw.png	396.21008586883545	1.1389577388763428
233	336.5428795814514	response	0	k		231.0	/experiments/knapen_AOT/AOT_stimuli/pictures/1136_fw.png	397.34093379974365	
234	336.55098938941956	picture	0		147	232.0	/experiments/knapen_AOT/AOT_stimuli/pictures/0337_fw.png	397.3490436077118	1.23360276222229
234	337.76804637908936	response	0	k		232.0	/experiments/knapen_AOT/AOT_stimuli/pictures/0337_fw.png	398.5661005973816	
235	337.78459215164185	picture	0		95	233.0	/experiments/knapen_AOT/AOT_stimuli/pictures/1581_fw.png	398.5826463699341	0.7998037338256836
235	338.56800603866577	response	0	k		233.0	/experiments/knapen_AOT/AOT_stimuli/pictures/1581_fw.png	399.366060256958	
236	338.58439588546753	picture	0		90	234.0	/experiments/knapen_AOT/AOT_stimuli/pictures/1363_fw.png	399.38245010375977	0.7512555122375488
236	339.3262438774109	response	0	j		234.0	/experiments/knapen_AOT/AOT_stimuli/pictures/1363_fw.png	400.1242980957031	
237	339.3356513977051	picture	0		175	235.0	/experiments/knapen_AOT/AOT_stimuli/pictures/1585_fw.png	400.1337056159973	1.4654161930084229
237	340.78466296195984	response	0	k		235.0	/experiments/knapen_AOT/AOT_stimuli/pictures/1585_fw.png	401.5827171802521	
238	340.8010675907135	picture	0		108	236.0	/experiments/knapen_AOT/AOT_stimuli/pictures/1802_fw.png	401.59912180900574	0.9085264205932617
238	341.69330382347107	response	0	j		236.0	/experiments/knapen_AOT/AOT_stimuli/pictures/1802_fw.png	402.4913580417633	
239	341.70959401130676	picture	0		130	237.0	/experiments/knapen_AOT/AOT_stimuli/pictures/1409_fw.png	402.507648229599	1.0917651653289795
239	342.7848017215729	response	0	j		237.0	/experiments/knapen_AOT/AOT_stimuli/pictures/1409_fw.png	403.5828559398651	
240	342.80135917663574	picture	0		188	238.0	/experiments/knapen_AOT/AOT_stimuli/pictures/1116_fw.png	403.599413394928	1.574824333190918
240	344.35956954956055	response	0	j		238.0	/experiments/knapen_AOT/AOT_stimuli/pictures/1116_fw.png	405.1576237678528	
241	344.37618350982666	picture	0		107	239.0	/experiments/knapen_AOT/AOT_stimuli/pictures/1527_fw.png	405.1742377281189	0.8999340534210205
241	345.2596900463104	response	0	k		239.0	/experiments/knapen_AOT/AOT_stimuli/pictures/1527_fw.png	406.05774426460266	
242	345.2761175632477	picture	0		84	240.0	/experiments/knapen_AOT/AOT_stimuli/pictures/0569_fw.png	406.0741717815399	0.7084596157073975
242	345.9680600166321	response	0	j		240.0	/experiments/knapen_AOT/AOT_stimuli/pictures/0569_fw.png	406.7661142349243	
243	345.9845771789551	picture	0		112	241.0	/experiments/knapen_AOT/AOT_stimuli/pictures/0954_fw.png	406.7826313972473	0.9415907859802246
243	346.91001892089844	response	0	j		241.0	/experiments/knapen_AOT/AOT_stimuli/pictures/0954_fw.png	407.7080731391907	
244	346.9261679649353	picture	0		321	242.0	/experiments/knapen_AOT/AOT_stimuli/pictures/0122_fw.png	407.72422218322754	2.683337450027466
244	349.59302377700806	response	0	j		242.0	/experiments/knapen_AOT/AOT_stimuli/pictures/0122_fw.png	410.3910779953003	
245	349.60950541496277	picture	0		139	243.0	/experiments/knapen_AOT/AOT_stimuli/pictures/0284_fw.png	410.407559633255	1.1666977405548096
245	350.7598373889923	response	0	k		243.0	/experiments/knapen_AOT/AOT_stimuli/pictures/0284_fw.png	411.55789160728455	
246	350.7762031555176	picture	0		155	244.0	/experiments/knapen_AOT/AOT_stimuli/pictures/1458_fw.png	411.5742573738098	1.3000202178955078
246	352.0534267425537	response	0	k		244.0	/experiments/knapen_AOT/AOT_stimuli/pictures/1458_fw.png	412.85148096084595	
247	352.0762233734131	picture	0		103	245.0	/experiments/knapen_AOT/AOT_stimuli/pictures/0812_fw.png	412.8742775917053	0.8638322353363037
247	352.9264395236969	response	0	k		245.0	/experiments/knapen_AOT/AOT_stimuli/pictures/0812_fw.png	413.72449374198914	
248	352.9400556087494	picture	0		132	246.0	/experiments/knapen_AOT/AOT_stimuli/pictures/1317_fw.png	413.7381098270416	1.1112520694732666
248	354.03510093688965	response	0	j		246.0	/experiments/knapen_AOT/AOT_stimuli/pictures/1317_fw.png	414.8331551551819	
249	354.05130767822266	picture	0		107	247.0	/experiments/knapen_AOT/AOT_stimuli/pictures/1273_fw.png	414.8493618965149	0.9000687599182129
249	354.93500804901123	response	0	k		247.0	/experiments/knapen_AOT/AOT_stimuli/pictures/1273_fw.png	415.73306226730347	
250	354.95137643814087	picture	0		90	248.0	/experiments/knapen_AOT/AOT_stimuli/pictures/1022_fw.png	415.7494306564331	0.7582223415374756
250	355.69328355789185	response	0	j		248.0	/experiments/knapen_AOT/AOT_stimuli/pictures/1022_fw.png	416.4913377761841	
251	355.70959877967834	picture	0		98	249.0	/experiments/knapen_AOT/AOT_stimuli/pictures/1740_fw.png	416.5076529979706	0.825007438659668
251	356.5183322429657	response	0	j		249.0	/experiments/knapen_AOT/AOT_stimuli/pictures/1740_fw.png	417.31638646125793	
252	356.534606218338	picture	0		108	250.0	/experiments/knapen_AOT/AOT_stimuli/pictures/0937_fw.png	417.33266043663025	0.9083449840545654
252	357.4265122413635	response	0	k		250.0	/experiments/knapen_AOT/AOT_stimuli/pictures/0937_fw.png	418.22456645965576	
253	357.4429512023926	picture	0		340	251.0	/experiments/knapen_AOT/AOT_stimuli/pictures/0872_fw.png	418.2410054206848	2.841806650161743
253	360.26858162879944	response	0	j		251.0	/experiments/knapen_AOT/AOT_stimuli/pictures/0872_fw.png	421.0666358470917	
254	360.2847578525543	picture	0		103	252.0	/experiments/knapen_AOT/AOT_stimuli/pictures/1765_fw.png	421.08281207084656	0.8666489124298096
254	361.1352138519287	response	0	k		252.0	/experiments/knapen_AOT/AOT_stimuli/pictures/1765_fw.png	421.93326807022095	
255	361.15140676498413	picture	0		92	253.0	/experiments/knapen_AOT/AOT_stimuli/pictures/1389_fw.png	421.94946098327637	0.7749621868133545
255	361.90996646881104	response	0	j		253.0	/experiments/knapen_AOT/AOT_stimuli/pictures/1389_fw.png	422.70802068710327	
256	361.9263689517975	picture	0		86	254.0	/experiments/knapen_AOT/AOT_stimuli/pictures/1550_fw.png	422.7244231700897	0.7249605655670166
256	362.6349148750305	response	0	j		254.0	/experiments/knapen_AOT/AOT_stimuli/pictures/1550_fw.png	423.43296909332275	
257	362.6513295173645	picture	0		405	255.0	/experiments/knapen_AOT/AOT_stimuli/pictures/0137_fw.png	423.44938373565674	3.383554697036743
257	366.01828813552856	response	0	k		255.0	/experiments/knapen_AOT/AOT_stimuli/pictures/0137_fw.png	426.8163423538208	
258	366.03488421440125	picture	0		96	256.0	/experiments/knapen_AOT/AOT_stimuli/pictures/0252_fw.png	426.8329384326935	0.8081784248352051
258	366.82688307762146	response	0	k		256.0	/experiments/knapen_AOT/AOT_stimuli/pictures/0252_fw.png	427.6249372959137	
259	366.84306263923645	picture	0		96	257.0	/experiments/knapen_AOT/AOT_stimuli/pictures/1421_fw.png	427.6411168575287	0.808372974395752
259	367.6349878311157	response	0	j		257.0	/experiments/knapen_AOT/AOT_stimuli/pictures/1421_fw.png	428.43304204940796	
260	367.6514356136322	picture	0		102	258.0	/experiments/knapen_AOT/AOT_stimuli/pictures/1054_fw.png	428.44948983192444	0.8583173751831055
260	368.49335837364197	response	0	k		258.0	/experiments/knapen_AOT/AOT_stimuli/pictures/1054_fw.png	429.2914125919342	
261	368.5097529888153	picture	0		185	259.0	/experiments/knapen_AOT/AOT_stimuli/pictures/1055_fw.png	429.30780720710754	1.5500380992889404
261	370.04349088668823	response	0	j		259.0	/experiments/knapen_AOT/AOT_stimuli/pictures/1055_fw.png	430.84154510498047	
262	370.05979108810425	picture	0		88	260.0	/experiments/knapen_AOT/AOT_stimuli/pictures/0314_fw.png	430.8578453063965	0.7344324588775635
262	370.785089969635	response	0	k		260.0	/experiments/knapen_AOT/AOT_stimuli/pictures/0314_fw.png	431.58314418792725	
263	370.7942235469818	picture	0		246	261.0	/experiments/knapen_AOT/AOT_stimuli/pictures/0835_fw.png	431.59227776527405	2.0573689937591553
263	372.83501839637756	response	0	k		261.0	/experiments/knapen_AOT/AOT_stimuli/pictures/0835_fw.png	433.6330726146698	
264	372.85159254074097	picture	0		205	262.0	/experiments/knapen_AOT/AOT_stimuli/pictures/0963_fw.png	433.6496467590332	1.7167339324951172
264	374.55200362205505	response	0	k		262.0	/experiments/knapen_AOT/AOT_stimuli/pictures/0963_fw.png	435.3500578403473	
265	374.5683264732361	picture	0		126	263.0	/experiments/knapen_AOT/AOT_stimuli/pictures/1687_fw.png	435.3663806915283	1.058417797088623
265	375.6103038787842	response	0	k		263.0	/experiments/knapen_AOT/AOT_stimuli/pictures/1687_fw.png	436.4083580970764	
266	375.6267442703247	picture	0		122	264.0	/experiments/knapen_AOT/AOT_stimuli/pictures/1252_fw.png	436.42479848861694	1.0216901302337646
266	376.628701210022	response	0	j		264.0	/experiments/knapen_AOT/AOT_stimuli/pictures/1252_fw.png	437.4267554283142	
267	376.6484344005585	picture	0		122	265.0	/experiments/knapen_AOT/AOT_stimuli/pictures/1219_fw.png	437.4464886188507	1.0208275318145752
267	377.6600501537323	response	0	j		265.0	/experiments/knapen_AOT/AOT_stimuli/pictures/1219_fw.png	438.45810437202454	
268	377.66926193237305	picture	0		90	266.0	/experiments/knapen_AOT/AOT_stimuli/pictures/1940_fw.png	438.4673161506653	0.757279634475708
268	378.41020798683167	response	0	j		266.0	/experiments/knapen_AOT/AOT_stimuli/pictures/1940_fw.png	439.2082622051239	
269	378.42654156684875	picture	0		232	267.0	/experiments/knapen_AOT/AOT_stimuli/pictures/1454_fw.png	439.224595785141	1.9418420791625977
269	380.35172486305237	response	0	k		267.0	/experiments/knapen_AOT/AOT_stimuli/pictures/1454_fw.png	441.1497790813446	
270	380.36838364601135	picture	0		102	268.0	/experiments/knapen_AOT/AOT_stimuli/pictures/0297_fw.png	441.1664378643036	0.858283519744873
270	381.21037006378174	response	0	k		268.0	/experiments/knapen_AOT/AOT_stimuli/pictures/0297_fw.png	442.008424282074	
271	381.2266671657562	picture	0		130	269.0	/experiments/knapen_AOT/AOT_stimuli/pictures/1821_fw.png	442.02472138404846	1.091583251953125
271	382.30172991752625	response	0	k		269.0	/experiments/knapen_AOT/AOT_stimuli/pictures/1821_fw.png	443.0997841358185	
272	382.31825041770935	picture	0		194	270.0	/experiments/knapen_AOT/AOT_stimuli/pictures/0219_fw.png	443.1163046360016	1.6250648498535156
272	383.92713499069214	response	0	k		270.0	/experiments/knapen_AOT/AOT_stimuli/pictures/0219_fw.png	444.7251892089844	
273	383.94331526756287	picture	0		130	271.0	/experiments/knapen_AOT/AOT_stimuli/pictures/1941_fw.png	444.7413694858551	1.0916540622711182
273	385.0184836387634	response	0	k		271.0	/experiments/knapen_AOT/AOT_stimuli/pictures/1941_fw.png	445.81653785705566	
274	385.034969329834	picture	0		118	272.0	/experiments/knapen_AOT/AOT_stimuli/pictures/1378_fw.png	445.8330235481262	0.991722822189331
274	386.0104570388794	response	0	k		272.0	/experiments/knapen_AOT/AOT_stimuli/pictures/1378_fw.png	446.80851125717163	
275	386.0266921520233	picture	0		140	273.0	/experiments/knapen_AOT/AOT_stimuli/pictures/0340_fw.png	446.82474637031555	1.170412540435791
275	387.185161113739	response	0	k		273.0	/experiments/knapen_AOT/AOT_stimuli/pictures/0340_fw.png	447.98321533203125	
276	387.1971046924591	picture	0		173	274.0	/experiments/knapen_AOT/AOT_stimuli/pictures/1972_fw.png	447.99515891075134	1.446312427520752
276	388.62681245803833	response	0	k		274.0	/experiments/knapen_AOT/AOT_stimuli/pictures/1972_fw.png	449.42486667633057	
277	388.64341711997986	picture	0		118	275.0	/experiments/knapen_AOT/AOT_stimuli/pictures/1025_fw.png	449.4414713382721	0.9842565059661865
277	389.6185393333435	response	0	j		275.0	/experiments/knapen_AOT/AOT_stimuli/pictures/1025_fw.png	450.41659355163574	
278	389.62767362594604	picture	0		144	276.0	/experiments/knapen_AOT/AOT_stimuli/pictures/0767_fw.png	450.4257278442383	1.2073614597320557
278	390.81854009628296	response	0	k		276.0	/experiments/knapen_AOT/AOT_stimuli/pictures/0767_fw.png	451.6165943145752	
279	390.8350350856781	picture	0		131	277.0	/experiments/knapen_AOT/AOT_stimuli/pictures/1278_fw.png	451.63308930397034	1.1000289916992188
279	391.91893553733826	response	0	k		277.0	/experiments/knapen_AOT/AOT_stimuli/pictures/1278_fw.png	452.7169897556305	
280	391.9350640773773	picture	0		129	278.0	/experiments/knapen_AOT/AOT_stimuli/pictures/0414_fw.png	452.73311829566956	1.0833942890167236
280	393.0029900074005	response	0	j		278.0	/experiments/knapen_AOT/AOT_stimuli/pictures/0414_fw.png	453.80104422569275	
281	393.01845836639404	picture	0		107	279.0	/experiments/knapen_AOT/AOT_stimuli/pictures/0426_fw.png	453.8165125846863	0.8999435901641846
281	393.9020085334778	response	0	k		279.0	/experiments/knapen_AOT/AOT_stimuli/pictures/0426_fw.png	454.70006275177	
282	393.9184019565582	picture	0		92	280.0	/experiments/knapen_AOT/AOT_stimuli/pictures/1680_fw.png	454.71645617485046	0.7751250267028809
282	394.67697381973267	response	0	j		280.0	/experiments/knapen_AOT/AOT_stimuli/pictures/1680_fw.png	455.4750280380249	
283	394.6935269832611	picture	0		307	281.0	/experiments/knapen_AOT/AOT_stimuli/pictures/1657_fw.png	455.49158120155334	2.5666399002075195
283	397.2438609600067	response	0	k		281.0	/experiments/knapen_AOT/AOT_stimuli/pictures/1657_fw.png	458.04191517829895	
284	397.2601668834686	picture	0		85	282.0	/experiments/knapen_AOT/AOT_stimuli/pictures/2015_fw.png	458.05822110176086	0.7167220115661621
284	397.9604229927063	response	0	k		282.0	/experiments/knapen_AOT/AOT_stimuli/pictures/2015_fw.png	458.75847721099854	
285	397.9768888950348	picture	0		121	283.0	/experiments/knapen_AOT/AOT_stimuli/pictures/2127_fw.png	458.774943113327	1.0165820121765137
285	398.9770064353943	response	0	k		283.0	/experiments/knapen_AOT/AOT_stimuli/pictures/2127_fw.png	459.7750606536865	
286	398.9934709072113	picture	0		92	284.0	/experiments/knapen_AOT/AOT_stimuli/pictures/1968_fw.png	459.79152512550354	0.7750024795532227
286	399.7521450519562	response	0	k		284.0	/experiments/knapen_AOT/AOT_stimuli/pictures/1968_fw.png	460.5501992702484	
287	399.7684733867645	picture	0		126	285.0	/experiments/knapen_AOT/AOT_stimuli/pictures/0731_fw.png	460.56652760505676	1.058546781539917
287	400.8104729652405	response	0	j		285.0	/experiments/knapen_AOT/AOT_stimuli/pictures/0731_fw.png	461.6085271835327	
288	400.82702016830444	picture	0		93	286.0	/experiments/knapen_AOT/AOT_stimuli/pictures/1770_fw.png	461.6250743865967	0.7832989692687988
288	401.5940251350403	response	0	j		286.0	/experiments/knapen_AOT/AOT_stimuli/pictures/1770_fw.png	462.3920793533325	
289	401.61031913757324	picture	0		111	287.0	/experiments/knapen_AOT/AOT_stimuli/pictures/0594_fw.png	462.4083733558655	0.9332160949707031
289	402.5274603366852	response	0	k		287.0	/experiments/knapen_AOT/AOT_stimuli/pictures/0594_fw.png	463.3255145549774	
290	402.54353523254395	picture	0		123	288.0	/experiments/knapen_AOT/AOT_stimuli/pictures/0473_fw.png	463.3415894508362	1.0334596633911133
290	403.56050753593445	response	0	k		288.0	/experiments/knapen_AOT/AOT_stimuli/pictures/0473_fw.png	464.3585617542267	
291	403.57699489593506	picture	0		191	289.0	/experiments/knapen_AOT/AOT_stimuli/pictures/1452_fw.png	464.3750491142273	1.5999951362609863
291	405.1607196331024	response	0	k		289.0	/experiments/knapen_AOT/AOT_stimuli/pictures/1452_fw.png	465.95877385139465	
292	405.17699003219604	picture	0		122	290.0	/experiments/knapen_AOT/AOT_stimuli/pictures/0743_fw.png	465.9750442504883	1.0248832702636719
292	406.1855056285858	response	0	k		290.0	/experiments/knapen_AOT/AOT_stimuli/pictures/0743_fw.png	466.98355984687805	
293	406.2018733024597	picture	0		87	291.0	/experiments/knapen_AOT/AOT_stimuli/pictures/1476_fw.png	466.99992752075195	0.7334120273590088
293	406.91907787323	response	0	j		291.0	/experiments/knapen_AOT/AOT_stimuli/pictures/1476_fw.png	467.7171320915222	
294	406.9352853298187	picture	0		168	292.0	/experiments/knapen_AOT/AOT_stimuli/pictures/0844_fw.png	467.73333954811096	1.408277988433838
294	408.3271837234497	response	0	k		292.0	/experiments/knapen_AOT/AOT_stimuli/pictures/0844_fw.png	469.12523794174194	
295	408.34356331825256	picture	0		83	293.0	/experiments/knapen_AOT/AOT_stimuli/pictures/1632_fw.png	469.1416175365448	0.7000689506530762
295	409.02718210220337	response	0	j		293.0	/experiments/knapen_AOT/AOT_stimuli/pictures/1632_fw.png	469.8252363204956	
296	409.04363226890564	picture	0		123	294.0	/experiments/knapen_AOT/AOT_stimuli/pictures/1817_fw.png	469.8416864871979	1.0334124565124512
296	410.0607635974884	response	0	k		294.0	/experiments/knapen_AOT/AOT_stimuli/pictures/1817_fw.png	470.85881781578064	
297	410.0770447254181	picture	0		314	295.0	/experiments/knapen_AOT/AOT_stimuli/pictures/1625_fw.png	470.8750989437103	2.62491512298584
297	412.68574619293213	response	0	k		295.0	/experiments/knapen_AOT/AOT_stimuli/pictures/1625_fw.png	473.48380041122437	
298	412.70195984840393	picture	0		212	296.0	/experiments/knapen_AOT/AOT_stimuli/pictures/1467_fw.png	473.50001406669617	1.766664981842041
298	414.4532287120819	response	0	j		296.0	/experiments/knapen_AOT/AOT_stimuli/pictures/1467_fw.png	475.25128293037415	
299	414.468624830246	picture	0		101	297.0	/experiments/knapen_AOT/AOT_stimuli/pictures/2107_fw.png	475.2666790485382	0.850142240524292
299	415.3026349544525	response	0	k		297.0	/experiments/knapen_AOT/AOT_stimuli/pictures/2107_fw.png	476.10068917274475	
300	415.31876707077026	picture	0		137	298.0	/experiments/knapen_AOT/AOT_stimuli/pictures/1420_fw.png	476.1168212890625	1.1424357891082764
300	416.4453682899475	response	0	k		298.0	/experiments/knapen_AOT/AOT_stimuli/pictures/1420_fw.png	477.24342250823975	
301	416.46120285987854	picture	0		120	299.0	/experiments/knapen_AOT/AOT_stimuli/pictures/1989_fw.png	477.2592570781708	1.007570505142212
301	417.4524030685425	response	0	k		299.0	/experiments/knapen_AOT/AOT_stimuli/pictures/1989_fw.png	478.2504572868347	
302	417.46877336502075	picture	0		123	300.0	/experiments/knapen_AOT/AOT_stimuli/pictures/2022_fw.png	478.266827583313	1.0332930088043213
302	418.48579120635986	response	0	k		300.0	/experiments/knapen_AOT/AOT_stimuli/pictures/2022_fw.png	479.2838454246521	
303	418.5020663738251	picture	0		342	301.0	/experiments/knapen_AOT/AOT_stimuli/pictures/1832_fw.png	479.3001205921173	2.85499906539917
303	421.34405303001404	response	0	k		301.0	/experiments/knapen_AOT/AOT_stimuli/pictures/1832_fw.png	482.1421072483063	
304	421.35706543922424	picture	0		128	302.0	/experiments/knapen_AOT/AOT_stimuli/pictures/0538_fw.png	482.1551196575165	1.0700271129608154
304	422.4107406139374	response	0	k		302.0	/experiments/knapen_AOT/AOT_stimuli/pictures/0538_fw.png	483.2087948322296	
305	422.42709255218506	picture	0		95	303.0	/experiments/knapen_AOT/AOT_stimuli/pictures/1384_fw.png	483.2251467704773	0.799997091293335
305	423.21066093444824	response	0	j		303.0	/experiments/knapen_AOT/AOT_stimuli/pictures/1384_fw.png	484.0087151527405	
306	423.2270896434784	picture	0		226	304.0	/experiments/knapen_AOT/AOT_stimuli/pictures/1408_fw.png	484.02514386177063	1.8917045593261719
306	425.1026360988617	response	0	j		304.0	/experiments/knapen_AOT/AOT_stimuli/pictures/1408_fw.png	485.90069031715393	
307	425.11879420280457	picture	0		101	305.0	/experiments/knapen_AOT/AOT_stimuli/pictures/1641_fw.png	485.9168484210968	0.8500068187713623
307	425.95230174064636	response	0	k		305.0	/experiments/knapen_AOT/AOT_stimuli/pictures/1641_fw.png	486.7503559589386	
308	425.9688010215759	picture	0		93	306.0	/experiments/knapen_AOT/AOT_stimuli/pictures/1938_fw.png	486.76685523986816	0.7771928310394287
308	426.73557567596436	response	0	k		306.0	/experiments/knapen_AOT/AOT_stimuli/pictures/1938_fw.png	487.5336298942566	
309	426.74599385261536	picture	0		90	307.0	/experiments/knapen_AOT/AOT_stimuli/pictures/0986_fw.png	487.5440480709076	0.7500021457672119
309	427.48559045791626	response	0	j		307.0	/experiments/knapen_AOT/AOT_stimuli/pictures/0986_fw.png	488.2836446762085	
310	427.49599599838257	picture	0		113	308.0	/experiments/knapen_AOT/AOT_stimuli/pictures/1424_fw.png	488.2940502166748	0.9478168487548828
310	428.4273340702057	response	0	j		308.0	/experiments/knapen_AOT/AOT_stimuli/pictures/1424_fw.png	489.2253882884979	
311	428.44381284713745	picture	0		162	309.0	/experiments/knapen_AOT/AOT_stimuli/pictures/1123_fw.png	489.2418670654297	1.3584933280944824
311	429.7857859134674	response	0	k		309.0	/experiments/knapen_AOT/AOT_stimuli/pictures/1123_fw.png	490.58384013175964	
312	429.80230617523193	picture	0		111	310.0	/experiments/knapen_AOT/AOT_stimuli/pictures/0585_fw.png	490.60036039352417	0.9333059787750244
312	430.7189929485321	response	0	j		310.0	/experiments/knapen_AOT/AOT_stimuli/pictures/0585_fw.png	491.51704716682434	
313	430.73561215400696	picture	0		163	311.0	/experiments/knapen_AOT/AOT_stimuli/pictures/0638_fw.png	491.5336663722992	1.366713285446167
313	432.0857689380646	response	0	k		311.0	/experiments/knapen_AOT/AOT_stimuli/pictures/0638_fw.png	492.8838231563568	
314	432.1023254394531	picture	0		150	312.0	/experiments/knapen_AOT/AOT_stimuli/pictures/1779_fw.png	492.90037965774536	1.2582440376281738
314	433.344202041626	response	0	k		312.0	/experiments/knapen_AOT/AOT_stimuli/pictures/1779_fw.png	494.1422562599182	
315	433.3605694770813	picture	0		84	313.0	/experiments/knapen_AOT/AOT_stimuli/pictures/1490_fw.png	494.15862369537354	0.708327054977417
315	434.04627776145935	response	0	j		313.0	/experiments/knapen_AOT/AOT_stimuli/pictures/1490_fw.png	494.8443319797516	
316	434.0688965320587	picture	0		175	314.0	/experiments/knapen_AOT/AOT_stimuli/pictures/0318_fw.png	494.86695075035095	1.4667904376983643
316	435.5192801952362	response	0	k		314.0	/experiments/knapen_AOT/AOT_stimuli/pictures/0318_fw.png	496.31733441352844	
317	435.5356869697571	picture	0		97	315.0	/experiments/knapen_AOT/AOT_stimuli/pictures/1342_fw.png	496.3337411880493	0.8166189193725586
317	436.33615255355835	response	0	j		315.0	/experiments/knapen_AOT/AOT_stimuli/pictures/1342_fw.png	497.1342067718506	
318	436.35230588912964	picture	0		175	316.0	/experiments/knapen_AOT/AOT_stimuli/pictures/1917_fw.png	497.1503601074219	1.4666335582733154
318	437.8029191493988	response	0	k		316.0	/experiments/knapen_AOT/AOT_stimuli/pictures/1917_fw.png	498.60097336769104	
319	437.81893944740295	picture	0		175	317.0	/experiments/knapen_AOT/AOT_stimuli/pictures/1889_fw.png	498.6169936656952	1.466752290725708
319	439.2695064544678	response	0	k		317.0	/experiments/knapen_AOT/AOT_stimuli/pictures/1889_fw.png	500.06756067276	
320	439.28569173812866	picture	0		92	318.0	/experiments/knapen_AOT/AOT_stimuli/pictures/0009_fw.png	500.0837459564209	0.775052547454834
320	440.03714179992676	response	0	k		318.0	/experiments/knapen_AOT/AOT_stimuli/pictures/0009_fw.png	500.835196018219	
321	440.0607442855835	picture	0		118	319.0	/experiments/knapen_AOT/AOT_stimuli/pictures/0626_fw.png	500.85879850387573	0.9839489459991455
321	441.0296700000763	response	0	k		319.0	/experiments/knapen_AOT/AOT_stimuli/pictures/0626_fw.png	501.82772421836853	
322	441.04469323158264	picture	0		95	320.0	/experiments/knapen_AOT/AOT_stimuli/pictures/0114_fw.png	501.8427474498749	0.7993009090423584
322	441.82773995399475	response	0	k		320.0	/experiments/knapen_AOT/AOT_stimuli/pictures/0114_fw.png	502.625794172287	
323	441.843994140625	picture	0		79	321.0	/experiments/knapen_AOT/AOT_stimuli/pictures/0144_fw.png	502.64204835891724	0.6590492725372314
323	442.4942762851715	response	0	j		321.0	/experiments/knapen_AOT/AOT_stimuli/pictures/0144_fw.png	503.29233050346375	
324	442.50304341316223	picture	0		139	322.0	/experiments/knapen_AOT/AOT_stimuli/pictures/1474_fw.png	503.30109763145447	1.165975570678711
324	443.6452260017395	response	0	k		322.0	/experiments/knapen_AOT/AOT_stimuli/pictures/1474_fw.png	504.44328022003174	
325	443.66901898384094	picture	0		318	323.0	/experiments/knapen_AOT/AOT_stimuli/pictures/1199_fw.png	504.4670732021332	2.6583614349365234
325	446.3108763694763	response	0	k		323.0	/experiments/knapen_AOT/AOT_stimuli/pictures/1199_fw.png	507.10893058776855	
326	446.32738041877747	picture	0		103	324.0	/experiments/knapen_AOT/AOT_stimuli/pictures/0440_fw.png	507.1254346370697	0.8668882846832275
326	447.1778676509857	response	0	k		324.0	/experiments/knapen_AOT/AOT_stimuli/pictures/0440_fw.png	507.97592186927795	
327	447.1942687034607	picture	0		94	325.0	/experiments/knapen_AOT/AOT_stimuli/pictures/0051_fw.png	507.99232292175293	0.7916014194488525
327	447.9692916870117	response	0	k		325.0	/experiments/knapen_AOT/AOT_stimuli/pictures/0051_fw.png	508.76734590530396	
328	447.98587012290955	picture	0		125	326.0	/experiments/knapen_AOT/AOT_stimuli/pictures/0582_fw.png	508.7839243412018	1.0498709678649902
328	449.0192759037018	response	0	k		326.0	/experiments/knapen_AOT/AOT_stimuli/pictures/0582_fw.png	509.817330121994	
329	449.03574109077454	picture	0		137	327.0	/experiments/knapen_AOT/AOT_stimuli/pictures/1983_fw.png	509.8337953090668	1.1501226425170898
329	450.169401884079	response	0	j		327.0	/experiments/knapen_AOT/AOT_stimuli/pictures/1983_fw.png	510.9674561023712	
330	450.1858637332916	picture	0		99	328.0	/experiments/knapen_AOT/AOT_stimuli/pictures/0453_fw.png	510.98391795158386	0.8332569599151611
330	451.0026032924652	response	0	k		328.0	/experiments/knapen_AOT/AOT_stimuli/pictures/0453_fw.png	511.80065751075745	
331	451.0191206932068	picture	0		112	329.0	/experiments/knapen_AOT/AOT_stimuli/pictures/0103_fw.png	511.817174911499	0.9416837692260742
331	451.94430327415466	response	0	k		329.0	/experiments/knapen_AOT/AOT_stimuli/pictures/0103_fw.png	512.7423574924469	
332	451.96080446243286	picture	0		90	330.0	/experiments/knapen_AOT/AOT_stimuli/pictures/0171_fw.png	512.7588586807251	0.7506463527679443
332	452.70272278785706	response	0	j		330.0	/experiments/knapen_AOT/AOT_stimuli/pictures/0171_fw.png	513.5007770061493	
333	452.7114508152008	picture	0		237	331.0	/experiments/knapen_AOT/AOT_stimuli/pictures/0279_fw.png	513.509505033493	1.9826960563659668
333	454.6776568889618	response	0	k		331.0	/experiments/knapen_AOT/AOT_stimuli/pictures/0279_fw.png	515.475711107254	
334	454.6941468715668	picture	0		164	332.0	/experiments/knapen_AOT/AOT_stimuli/pictures/0581_fw.png	515.492201089859	1.3714993000030518
334	456.0450601577759	response	0	k		332.0	/experiments/knapen_AOT/AOT_stimuli/pictures/0581_fw.png	516.8431143760681	
335	456.0656461715698	picture	0		179	333.0	/experiments/knapen_AOT/AOT_stimuli/pictures/1313_fw.png	516.8637003898621	1.5036101341247559
335	457.5527970790863	response	0	k		333.0	/experiments/knapen_AOT/AOT_stimuli/pictures/1313_fw.png	518.3508512973785	
336	457.5692563056946	picture	0		87	334.0	/experiments/knapen_AOT/AOT_stimuli/pictures/0863_fw.png	518.3673105239868	0.7332699298858643
336	458.28618121147156	response	0	j		334.0	/experiments/knapen_AOT/AOT_stimuli/pictures/0863_fw.png	519.0842354297638	
337	458.30252623558044	picture	0		302	335.0	/experiments/knapen_AOT/AOT_stimuli/pictures/1833_fw.png	519.1005804538727	2.520094871520996
337	460.80485486984253	response	0	k		335.0	/experiments/knapen_AOT/AOT_stimuli/pictures/1833_fw.png	521.6029090881348	
338	460.82262110710144	picture	0		320	336.0	/experiments/knapen_AOT/AOT_stimuli/pictures/0210_fw.png	521.6206753253937	2.671656608581543
338	463.47783637046814	response	0	j		336.0	/experiments/knapen_AOT/AOT_stimuli/pictures/0210_fw.png	524.2758905887604	
339	463.494277715683	picture	0		140	337.0	/experiments/knapen_AOT/AOT_stimuli/pictures/1056_fw.png	524.2923319339752	1.1750366687774658
339	464.65322518348694	response	0	j		337.0	/experiments/knapen_AOT/AOT_stimuli/pictures/1056_fw.png	525.4512794017792	
340	464.66931438446045	picture	0		217	338.0	/experiments/knapen_AOT/AOT_stimuli/pictures/0480_fw.png	525.4673686027527	1.813178300857544
340	466.4696545600891	response	0	k		338.0	/experiments/knapen_AOT/AOT_stimuli/pictures/0480_fw.png	527.2677087783813	
341	466.482492685318	picture	0		103	339.0	/experiments/knapen_AOT/AOT_stimuli/pictures/1231_fw.png	527.2805469036102	0.870152473449707
341	467.3361442089081	response	0	j		339.0	/experiments/knapen_AOT/AOT_stimuli/pictures/1231_fw.png	528.1341984272003	
342	467.3526451587677	picture	0		289	340.0	/experiments/knapen_AOT/AOT_stimuli/pictures/0249_fw.png	528.1506993770599	2.4167399406433105
342	469.75284695625305	response	0	j		340.0	/experiments/knapen_AOT/AOT_stimuli/pictures/0249_fw.png	530.5509011745453	
343	469.769385099411	picture	0		80	341.0	/experiments/knapen_AOT/AOT_stimuli/pictures/1300_fw.png	530.5674393177032	0.6714234352111816
343	470.42093992233276	response	0	k		341.0	/experiments/knapen_AOT/AOT_stimuli/pictures/1300_fw.png	531.218994140625	
344	470.4408085346222	picture	0		113	342.0	/experiments/knapen_AOT/AOT_stimuli/pictures/0763_fw.png	531.2388627529144	0.9453766345977783
344	471.36986899375916	response	0	j		342.0	/experiments/knapen_AOT/AOT_stimuli/pictures/0763_fw.png	532.1679232120514	
345	471.38618516921997	picture	0		116	343.0	/experiments/knapen_AOT/AOT_stimuli/pictures/0486_fw.png	532.1842393875122	0.9748456478118896
345	472.3447120189667	response	0	j		343.0	/experiments/knapen_AOT/AOT_stimuli/pictures/0486_fw.png	533.1427662372589	
346	472.36103081703186	picture	0		181	344.0	/experiments/knapen_AOT/AOT_stimuli/pictures/1355_fw.png	533.1590850353241	1.516695261001587
346	473.8612813949585	response	0	k		344.0	/experiments/knapen_AOT/AOT_stimuli/pictures/1355_fw.png	534.6593356132507	
347	473.87772607803345	picture	0		519	345.0	/experiments/knapen_AOT/AOT_stimuli/pictures/1909_fw.png	534.6757802963257	4.326967000961304
347	478.19460558891296	response	0	j		345.0	/experiments/knapen_AOT/AOT_stimuli/pictures/1909_fw.png	538.9926598072052	
348	478.20469307899475	picture	0		99	346.0	/experiments/knapen_AOT/AOT_stimuli/pictures/1637_fw.png	539.002747297287	0.8263888359069824
348	479.01961064338684	response	0	j		346.0	/experiments/knapen_AOT/AOT_stimuli/pictures/1637_fw.png	539.8176648616791	
349	479.03108191490173	picture	0		101	347.0	/experiments/knapen_AOT/AOT_stimuli/pictures/1232_fw.png	539.829136133194	0.8467228412628174
349	479.86163568496704	response	0	k		347.0	/experiments/knapen_AOT/AOT_stimuli/pictures/1232_fw.png	540.6596899032593	
350	479.87780475616455	picture	0		187	348.0	/experiments/knapen_AOT/AOT_stimuli/pictures/1988_fw.png	540.6758589744568	1.5630366802215576
350	481.4280993938446	response	0	k		348.0	/experiments/knapen_AOT/AOT_stimuli/pictures/1988_fw.png	542.2261536121368	
351	481.4408414363861	picture	0		300	349.0	/experiments/knapen_AOT/AOT_stimuli/pictures/2108_fw.png	542.2388956546783	2.5121378898620605
351	483.93673825263977	response	0	k		349.0	/experiments/knapen_AOT/AOT_stimuli/pictures/2108_fw.png	544.734792470932	
352	483.95297932624817	picture	0		76	350.0	/experiments/knapen_AOT/AOT_stimuli/pictures/1810_fw.png	544.7510335445404	0.641533613204956
352	484.57822012901306	response	0	k		350.0	/experiments/knapen_AOT/AOT_stimuli/pictures/1810_fw.png	545.3762743473053	
353	484.5945129394531	picture	0		133	351.0	/experiments/knapen_AOT/AOT_stimuli/pictures/0707_fw.png	545.3925671577454	1.1102299690246582
353	485.69476222991943	response	0	k		351.0	/experiments/knapen_AOT/AOT_stimuli/pictures/0707_fw.png	546.4928164482117	
354	485.7047429084778	picture	0		141	352.0	/experiments/knapen_AOT/AOT_stimuli/pictures/0671_fw.png	546.50279712677	1.1816694736480713
354	486.87000584602356	response	0	k		352.0	/experiments/knapen_AOT/AOT_stimuli/pictures/0671_fw.png	547.6680600643158	
355	486.88641238212585	picture	0		399	353.0	/experiments/knapen_AOT/AOT_stimuli/pictures/0897_fw.png	547.6844666004181	3.333268165588379
355	490.2031047344208	response	0	k		353.0	/experiments/knapen_AOT/AOT_stimuli/pictures/0897_fw.png	551.001158952713	
356	490.21968054771423	picture	0		88	354.0	/experiments/knapen_AOT/AOT_stimuli/pictures/0478_fw.png	551.0177347660065	0.7351009845733643
356	490.9449038505554	response	0	j		354.0	/experiments/knapen_AOT/AOT_stimuli/pictures/0478_fw.png	551.7429580688477	
357	490.9547815322876	picture	0		136	355.0	/experiments/knapen_AOT/AOT_stimuli/pictures/1952_fw.png	551.7528357505798	1.1399509906768799
357	492.07828974723816	response	0	k		355.0	/experiments/knapen_AOT/AOT_stimuli/pictures/1952_fw.png	552.8763439655304	
358	492.0947325229645	picture	0		366	356.0	/experiments/knapen_AOT/AOT_stimuli/pictures/1399_fw.png	552.8927867412567	3.0583560466766357
358	495.13684701919556	response	0	j		356.0	/experiments/knapen_AOT/AOT_stimuli/pictures/1399_fw.png	555.9349012374878	
359	495.1530885696411	picture	0		76	357.0	/experiments/knapen_AOT/AOT_stimuli/pictures/1491_fw.png	555.9511427879333	0.6416635513305664
359	495.7783100605011	response	0	k		357.0	/experiments/knapen_AOT/AOT_stimuli/pictures/1491_fw.png	556.5763642787933	
360	495.7947521209717	picture	0		120	358.0	/experiments/knapen_AOT/AOT_stimuli/pictures/1631_fw.png	556.5928063392639	1.0082604885101318
360	496.78652906417847	response	0	j		358.0	/experiments/knapen_AOT/AOT_stimuli/pictures/1631_fw.png	557.5845832824707	
361	496.8030126094818	picture	0		119	359.0	/experiments/knapen_AOT/AOT_stimuli/pictures/0320_fw.png	557.601066827774	1.0129375457763672
361	497.78661465644836	response	0	j		359.0	/experiments/knapen_AOT/AOT_stimuli/pictures/0320_fw.png	558.5846688747406	
362	497.8159501552582	stim	0		466			558.6140043735504	3.8960306644439697
362	501.69571471214294	response	0	space				562.4937689304352	
