trial_nr	onset	event_type	phase	response	nr_frames	picture_index	picture_file	onset_abs	duration
0	0.20829200744628906	stim	0		611			134.11355996131897	5.111154079437256
0	5.300173044204712	response	0	space				139.2054409980774	
2	5.319446086883545	picture	0		139	0.0	/experiments/knapen_AOT/AOT_stimuli/pictures/0149_fw.png	139.22471404075623	1.1673188209533691
2	6.472245931625366	response	0	k		0.0	/experiments/knapen_AOT/AOT_stimuli/pictures/0149_fw.png	140.37751388549805	
3	6.486764907836914	picture	0		119	1.0	/experiments/knapen_AOT/AOT_stimuli/pictures/0245_fw.png	140.3920328617096	0.9993481636047363
3	7.475093126296997	response	0	k		1.0	/experiments/knapen_AOT/AOT_stimuli/pictures/0245_fw.png	141.38036108016968	
4	7.48611307144165	picture	0		104	2.0	/experiments/knapen_AOT/AOT_stimuli/pictures/0864_fw.png	141.39138102531433	0.8682129383087158
4	8.34174394607544	response	0	j		2.0	/experiments/knapen_AOT/AOT_stimuli/pictures/0864_fw.png	142.24701189994812	
5	8.354326009750366	picture	0		96	3.0	/experiments/knapen_AOT/AOT_stimuli/pictures/0208_fw.png	142.25959396362305	0.8332140445709229
5	9.175089120864868	response	0	k		3.0	/experiments/knapen_AOT/AOT_stimuli/pictures/0208_fw.png	143.08035707473755	
6	9.187540054321289	picture	0		96	4.0	/experiments/knapen_AOT/AOT_stimuli/pictures/1717_fw.png	143.09280800819397	0.7986240386962891
6	9.975067138671875	response	0	j		4.0	/experiments/knapen_AOT/AOT_stimuli/pictures/1717_fw.png	143.88033509254456	
7	9.986164093017578	picture	0		91	5.0	/experiments/knapen_AOT/AOT_stimuli/pictures/0471_fw.png	143.89143204689026	0.7569448947906494
7	10.733508110046387	response	0	j		5.0	/experiments/knapen_AOT/AOT_stimuli/pictures/0471_fw.png	144.63877606391907	
8	10.743108987808228	picture	0		99	6.0	/experiments/knapen_AOT/AOT_stimuli/pictures/0264_fw.png	144.6483769416809	0.8263959884643555
8	11.558413982391357	response	0	k		6.0	/experiments/knapen_AOT/AOT_stimuli/pictures/0264_fw.png	145.46368193626404	
9	11.569504976272583	picture	0		100	7.0	/experiments/knapen_AOT/AOT_stimuli/pictures/1009_fw.png	145.47477293014526	0.833320140838623
9	12.391763925552368	response	0	k		7.0	/experiments/knapen_AOT/AOT_stimuli/pictures/1009_fw.png	146.29703187942505	
10	12.402825117111206	picture	0		107	8.0	/experiments/knapen_AOT/AOT_stimuli/pictures/1779_fw.png	146.3080930709839	0.88889479637146
10	13.28353500366211	response	0	k		8.0	/experiments/knapen_AOT/AOT_stimuli/pictures/1779_fw.png	147.1888029575348	
11	13.291719913482666	picture	0		105	9.0	/experiments/knapen_AOT/AOT_stimuli/pictures/1446_fw.png	147.19698786735535	0.874981164932251
11	14.15847396850586	response	0	k		9.0	/experiments/knapen_AOT/AOT_stimuli/pictures/1446_fw.png	148.06374192237854	
12	14.166701078414917	picture	0		130	10.0	/experiments/knapen_AOT/AOT_stimuli/pictures/1734_fw.png	148.0719690322876	1.0833828449249268
12	15.241919040679932	response	0	k		10.0	/experiments/knapen_AOT/AOT_stimuli/pictures/1734_fw.png	149.1471869945526	
13	15.250083923339844	picture	0		109	11.0	/experiments/knapen_AOT/AOT_stimuli/pictures/1102_fw.png	149.15535187721252	0.9097230434417725
13	16.150164127349854	response	0	j		11.0	/experiments/knapen_AOT/AOT_stimuli/pictures/1102_fw.png	150.05543208122253	
14	16.159806966781616	picture	0		83	12.0	/experiments/knapen_AOT/AOT_stimuli/pictures/0967_fw.png	150.0650749206543	0.6944539546966553
14	16.841938018798828	response	0	j		12.0	/experiments/knapen_AOT/AOT_stimuli/pictures/0967_fw.png	150.7472059726715	
15	16.85426092147827	picture	0		105	13.0	/experiments/knapen_AOT/AOT_stimuli/pictures/1562_fw.png	150.75952887535095	0.8750190734863281
15	17.716789960861206	response	0	k		13.0	/experiments/knapen_AOT/AOT_stimuli/pictures/1562_fw.png	151.6220579147339	
16	17.7292799949646	picture	0		91	14.0	/experiments/knapen_AOT/AOT_stimuli/pictures/1636_fw.png	151.63454794883728	0.7569310665130615
16	18.475189924240112	response	0	k		14.0	/experiments/knapen_AOT/AOT_stimuli/pictures/1636_fw.png	152.3804578781128	
17	18.48621106147766	picture	0		102	15.0	/experiments/knapen_AOT/AOT_stimuli/pictures/0172_fw.png	152.39147901535034	0.8472089767456055
17	19.325212001800537	response	0	k		15.0	/experiments/knapen_AOT/AOT_stimuli/pictures/0172_fw.png	153.23047995567322	
18	19.333420038223267	picture	0		106	16.0	/experiments/knapen_AOT/AOT_stimuli/pictures/1358_fw.png	153.23868799209595	0.8889498710632324
18	20.2086980342865	response	0	k		16.0	/experiments/knapen_AOT/AOT_stimuli/pictures/1358_fw.png	154.11396598815918	
19	20.2223699092865	picture	0		119	17.0	/experiments/knapen_AOT/AOT_stimuli/pictures/0587_fw.png	154.12763786315918	0.9943671226501465
19	21.208620071411133	response	0	k		17.0	/experiments/knapen_AOT/AOT_stimuli/pictures/0587_fw.png	155.1138880252838	
20	21.216737031936646	picture	0		180	18.0	/experiments/knapen_AOT/AOT_stimuli/pictures/0117_fw.png	155.12200498580933	1.500040054321289
20	22.701884031295776	response	0	k		18.0	/experiments/knapen_AOT/AOT_stimuli/pictures/0117_fw.png	156.60715198516846	
21	22.716777086257935	picture	0		96	19.0	/experiments/knapen_AOT/AOT_stimuli/pictures/0464_fw.png	156.62204504013062	0.8042340278625488
21	23.50861406326294	response	0	k		19.0	/experiments/knapen_AOT/AOT_stimuli/pictures/0464_fw.png	157.41388201713562	
22	23.521011114120483	picture	0		106	20.0	/experiments/knapen_AOT/AOT_stimuli/pictures/1218_fw.png	157.42627906799316	0.8819358348846436
22	24.3920419216156	response	0	k		20.0	/experiments/knapen_AOT/AOT_stimuli/pictures/1218_fw.png	158.29730987548828	
23	24.402946949005127	picture	0		98	21.0	/experiments/knapen_AOT/AOT_stimuli/pictures/1946_fw.png	158.3082149028778	0.8194210529327393
23	25.20878791809082	response	0	j		21.0	/experiments/knapen_AOT/AOT_stimuli/pictures/1946_fw.png	159.1140558719635	
24	25.222368001937866	picture	0		108	22.0	/experiments/knapen_AOT/AOT_stimuli/pictures/0531_fw.png	159.12763595581055	0.9028670787811279
24	26.11695098876953	response	0	k		22.0	/experiments/knapen_AOT/AOT_stimuli/pictures/0531_fw.png	160.0222189426422	
25	26.125235080718994	picture	0		96	23.0	/experiments/knapen_AOT/AOT_stimuli/pictures/0787_fw.png	160.03050303459167	0.8054649829864502
25	26.9169659614563	response	0	j		23.0	/experiments/knapen_AOT/AOT_stimuli/pictures/0787_fw.png	160.82223391532898	
26	26.930700063705444	picture	0		108	24.0	/experiments/knapen_AOT/AOT_stimuli/pictures/1032_fw.png	160.83596801757812	0.9028060436248779
26	27.825382947921753	response	0	k		24.0	/experiments/knapen_AOT/AOT_stimuli/pictures/1032_fw.png	161.73065090179443	
27	27.833506107330322	picture	0		125	25.0	/experiments/knapen_AOT/AOT_stimuli/pictures/0193_fw.png	161.738774061203	1.041754961013794
27	28.867046117782593	response	0	j		25.0	/experiments/knapen_AOT/AOT_stimuli/pictures/0193_fw.png	162.77231407165527	
28	28.875261068344116	picture	0		94	26.0	/experiments/knapen_AOT/AOT_stimuli/pictures/0475_fw.png	162.7805290222168	0.7848460674285889
28	29.650416135787964	response	0	j		26.0	/experiments/knapen_AOT/AOT_stimuli/pictures/0475_fw.png	163.55568408966064	
29	29.660107135772705	picture	0		106	27.0	/experiments/knapen_AOT/AOT_stimuli/pictures/0023_fw.png	163.56537508964539	0.8818879127502441
29	30.533695936203003	response	0	j		27.0	/experiments/knapen_AOT/AOT_stimuli/pictures/0023_fw.png	164.43896389007568	
30	30.54199504852295	picture	0		93	28.0	/experiments/knapen_AOT/AOT_stimuli/pictures/0008_fw.png	164.44726300239563	0.7776820659637451
30	31.308645009994507	response	0	j		28.0	/experiments/knapen_AOT/AOT_stimuli/pictures/0008_fw.png	165.2139129638672	
31	31.319677114486694	picture	0		109	29.0	/experiments/knapen_AOT/AOT_stimuli/pictures/1320_fw.png	165.22494506835938	0.909700870513916
31	32.217127084732056	response	0	k		29.0	/experiments/knapen_AOT/AOT_stimuli/pictures/1320_fw.png	166.12239503860474	
32	32.22937798500061	picture	0		141	30.0	/experiments/knapen_AOT/AOT_stimuli/pictures/1096_fw.png	166.1346459388733	1.173651933670044
32	33.3921959400177	response	0	k		30.0	/experiments/knapen_AOT/AOT_stimuli/pictures/1096_fw.png	167.29746389389038	
33	33.403029918670654	picture	0		86	31.0	/experiments/knapen_AOT/AOT_stimuli/pictures/0667_fw.png	167.30829787254333	0.7153210639953613
33	34.10865592956543	response	0	j		31.0	/experiments/knapen_AOT/AOT_stimuli/pictures/0667_fw.png	168.0139238834381	
34	34.118350982666016	picture	0		132	32.0	/experiments/knapen_AOT/AOT_stimuli/pictures/1175_fw.png	168.0236189365387	1.1040899753570557
34	35.20874309539795	response	0	k		32.0	/experiments/knapen_AOT/AOT_stimuli/pictures/1175_fw.png	169.11401104927063	
35	35.22244095802307	picture	0		198	33.0	/experiments/knapen_AOT/AOT_stimuli/pictures/0936_fw.png	169.12770891189575	1.6528410911560059
35	36.860312938690186	response	0	k		33.0	/experiments/knapen_AOT/AOT_stimuli/pictures/0936_fw.png	170.76558089256287	
36	36.87528204917908	picture	0		175	34.0	/experiments/knapen_AOT/AOT_stimuli/pictures/0162_fw.png	170.78055000305176	1.4583768844604492
36	38.325531005859375	response	0	k		34.0	/experiments/knapen_AOT/AOT_stimuli/pictures/0162_fw.png	172.23079895973206	
37	38.333658933639526	picture	0		102	35.0	/experiments/knapen_AOT/AOT_stimuli/pictures/0893_fw.png	172.2389268875122	0.8540911674499512
37	39.17557191848755	response	0	j		35.0	/experiments/knapen_AOT/AOT_stimuli/pictures/0893_fw.png	173.08083987236023	
38	39.18775010108948	picture	0		132	36.0	/experiments/knapen_AOT/AOT_stimuli/pictures/0088_fw.png	173.09301805496216	1.0972440242767334
38	40.26880097389221	response	0	j		36.0	/experiments/knapen_AOT/AOT_stimuli/pictures/0088_fw.png	174.1740689277649	
39	40.28499412536621	picture	0		121	37.0	/experiments/knapen_AOT/AOT_stimuli/pictures/1863_fw.png	174.1902620792389	1.0070068836212158
39	41.27716302871704	response	0	j		37.0	/experiments/knapen_AOT/AOT_stimuli/pictures/1863_fw.png	175.18243098258972	
40	41.29200100898743	picture	0		114	38.0	/experiments/knapen_AOT/AOT_stimuli/pictures/1498_fw.png	175.1972689628601	0.9513790607452393
40	42.233859062194824	response	0	k		38.0	/experiments/knapen_AOT/AOT_stimuli/pictures/1498_fw.png	176.1391270160675	
41	42.243380069732666	picture	0		90	39.0	/experiments/knapen_AOT/AOT_stimuli/pictures/0719_fw.png	176.14864802360535	0.750018835067749
41	42.98391103744507	response	0	j		39.0	/experiments/knapen_AOT/AOT_stimuli/pictures/0719_fw.png	176.88917899131775	
42	42.993398904800415	picture	0		89	40.0	/experiments/knapen_AOT/AOT_stimuli/pictures/1690_fw.png	176.8986668586731	0.7430250644683838
42	43.725510120391846	response	0	j		40.0	/experiments/knapen_AOT/AOT_stimuli/pictures/1690_fw.png	177.63077807426453	
43	43.7364239692688	picture	0		90	41.0	/experiments/knapen_AOT/AOT_stimuli/pictures/1696_fw.png	177.64169192314148	0.7499899864196777
43	44.468791007995605	response	0	j		41.0	/experiments/knapen_AOT/AOT_stimuli/pictures/1696_fw.png	178.3740589618683	
44	44.48641395568848	picture	0		114	42.0	/experiments/knapen_AOT/AOT_stimuli/pictures/1440_fw.png	178.39168190956116	0.9514081478118896
44	45.42559003829956	response	0	k		42.0	/experiments/knapen_AOT/AOT_stimuli/pictures/1440_fw.png	179.33085799217224	
45	45.437822103500366	picture	0		93	43.0	/experiments/knapen_AOT/AOT_stimuli/pictures/1806_fw.png	179.34309005737305	0.7709248065948486
45	46.200576066970825	response	0	j		43.0	/experiments/knapen_AOT/AOT_stimuli/pictures/1806_fw.png	180.1058440208435	
46	46.208746910095215	picture	0		104	44.0	/experiments/knapen_AOT/AOT_stimuli/pictures/1332_fw.png	180.1140148639679	0.8680331707000732
46	47.060555934906006	response	0	j		44.0	/experiments/knapen_AOT/AOT_stimuli/pictures/1332_fw.png	180.9658238887787	
47	47.07678008079529	picture	0		92	45.0	/experiments/knapen_AOT/AOT_stimuli/pictures/1301_fw.png	180.98204803466797	0.7708950042724609
47	47.83386993408203	response	0	j		45.0	/experiments/knapen_AOT/AOT_stimuli/pictures/1301_fw.png	181.7391378879547	
48	47.84767508506775	picture	0		96	46.0	/experiments/knapen_AOT/AOT_stimuli/pictures/0026_fw.png	181.75294303894043	0.8332839012145996
48	48.66080403327942	response	0	j		46.0	/experiments/knapen_AOT/AOT_stimuli/pictures/0026_fw.png	182.5660719871521	
49	48.68095898628235	picture	0		90	47.0	/experiments/knapen_AOT/AOT_stimuli/pictures/2038_fw.png	182.58622694015503	0.7569320201873779
49	49.42569899559021	response	0	k		47.0	/experiments/knapen_AOT/AOT_stimuli/pictures/2038_fw.png	183.3309669494629	
50	49.43789100646973	picture	0		95	48.0	/experiments/knapen_AOT/AOT_stimuli/pictures/1289_fw.png	183.3431589603424	0.7916309833526611
50	50.21737813949585	response	0	k		48.0	/experiments/knapen_AOT/AOT_stimuli/pictures/1289_fw.png	184.12264609336853	
51	50.22952198982239	picture	0		85	49.0	/experiments/knapen_AOT/AOT_stimuli/pictures/1632_fw.png	184.13478994369507	0.7083380222320557
51	50.925605058670044	response	0	j		49.0	/experiments/knapen_AOT/AOT_stimuli/pictures/1632_fw.png	184.83087301254272	
52	50.93786001205444	picture	0		204	50.0	/experiments/knapen_AOT/AOT_stimuli/pictures/0811_fw.png	184.84312796592712	1.7014060020446777
52	52.625669956207275	response	0	j		50.0	/experiments/knapen_AOT/AOT_stimuli/pictures/0811_fw.png	186.53093791007996	
53	52.63926601409912	picture	0		98	51.0	/experiments/knapen_AOT/AOT_stimuli/pictures/2159_fw.png	186.5445339679718	0.8195359706878662
53	53.4439160823822	response	0	k		51.0	/experiments/knapen_AOT/AOT_stimuli/pictures/2159_fw.png	187.34918403625488	
54	53.45880198478699	picture	0		101	52.0	/experiments/knapen_AOT/AOT_stimuli/pictures/1461_fw.png	187.36406993865967	0.8471689224243164
54	54.292304039001465	response	0	j		52.0	/experiments/knapen_AOT/AOT_stimuli/pictures/1461_fw.png	188.19757199287415	
55	54.305970907211304	picture	0		114	53.0	/experiments/knapen_AOT/AOT_stimuli/pictures/1994_fw.png	188.21123886108398	0.9529240131378174
55	55.244044065475464	response	0	j		53.0	/experiments/knapen_AOT/AOT_stimuli/pictures/1994_fw.png	189.14931201934814	
56	55.25889492034912	picture	0		84	54.0	/experiments/knapen_AOT/AOT_stimuli/pictures/2149_fw.png	189.1641628742218	0.6999549865722656
56	55.95071601867676	response	0	j		54.0	/experiments/knapen_AOT/AOT_stimuli/pictures/2149_fw.png	189.85598397254944	
57	55.95884990692139	picture	0		101	55.0	/experiments/knapen_AOT/AOT_stimuli/pictures/2076_fw.png	189.86411786079407	0.8416831493377686
57	56.79233407974243	response	0	j		55.0	/experiments/knapen_AOT/AOT_stimuli/pictures/2076_fw.png	190.6976020336151	
58	56.800533056259155	picture	0		98	56.0	/experiments/knapen_AOT/AOT_stimuli/pictures/0655_fw.png	190.70580101013184	0.8179519176483154
58	57.609029054641724	response	0	j		56.0	/experiments/knapen_AOT/AOT_stimuli/pictures/0655_fw.png	191.5142970085144	
59	57.61848497390747	picture	0		92	57.0	/experiments/knapen_AOT/AOT_stimuli/pictures/1137_fw.png	191.52375292778015	0.7708220481872559
59	58.3756890296936	response	0	k		57.0	/experiments/knapen_AOT/AOT_stimuli/pictures/1137_fw.png	192.28095698356628	
60	58.38930702209473	picture	0		98	58.0	/experiments/knapen_AOT/AOT_stimuli/pictures/0840_fw.png	192.2945749759674	0.8195900917053223
60	59.200846910476685	response	0	j		58.0	/experiments/knapen_AOT/AOT_stimuli/pictures/0840_fw.png	193.10611486434937	
61	59.20889711380005	picture	0		95	59.0	/experiments/knapen_AOT/AOT_stimuli/pictures/1764_fw.png	193.11416506767273	0.7916789054870605
61	59.99256896972656	response	0	k		59.0	/experiments/knapen_AOT/AOT_stimuli/pictures/1764_fw.png	193.89783692359924	
62	60.00057601928711	picture	0		96	60.0	/experiments/knapen_AOT/AOT_stimuli/pictures/0632_fw.png	193.9058439731598	0.8055369853973389
62	60.79241609573364	response	0	k		60.0	/experiments/knapen_AOT/AOT_stimuli/pictures/0632_fw.png	194.69768404960632	
63	60.80611300468445	picture	0		97	61.0	/experiments/knapen_AOT/AOT_stimuli/pictures/1171_fw.png	194.71138095855713	0.8124110698699951
63	61.60908913612366	response	0	k		61.0	/experiments/knapen_AOT/AOT_stimuli/pictures/1171_fw.png	195.51435708999634	
64	61.61852407455444	picture	0		102	62.0	/experiments/knapen_AOT/AOT_stimuli/pictures/1455_fw.png	195.52379202842712	0.8541638851165771
64	62.452537059783936	response	0	k		62.0	/experiments/knapen_AOT/AOT_stimuli/pictures/1455_fw.png	196.35780501365662	
65	62.47268795967102	picture	0		97	63.0	/experiments/knapen_AOT/AOT_stimuli/pictures/1280_fw.png	196.3779559135437	0.8126621246337891
65	63.27576994895935	response	0	j		63.0	/experiments/knapen_AOT/AOT_stimuli/pictures/1280_fw.png	197.18103790283203	
66	63.28535008430481	picture	0		88	64.0	/experiments/knapen_AOT/AOT_stimuli/pictures/0384_fw.png	197.1906180381775	0.7360138893127441
66	64.00908398628235	response	0	j		64.0	/experiments/knapen_AOT/AOT_stimuli/pictures/0384_fw.png	197.91435194015503	
67	64.02136397361755	picture	0		155	65.0	/experiments/knapen_AOT/AOT_stimuli/pictures/1051_fw.png	197.92663192749023	1.2916181087493896
67	65.3008041381836	response	0	j		65.0	/experiments/knapen_AOT/AOT_stimuli/pictures/1051_fw.png	199.20607209205627	
68	65.31298208236694	picture	0		100	66.0	/experiments/knapen_AOT/AOT_stimuli/pictures/1165_fw.png	199.21825003623962	0.8377218246459961
68	66.13414907455444	response	0	j		66.0	/experiments/knapen_AOT/AOT_stimuli/pictures/1165_fw.png	200.03941702842712	
69	66.15070390701294	picture	0		88	67.0	/experiments/knapen_AOT/AOT_stimuli/pictures/0878_fw.png	200.05597186088562	0.7386641502380371
69	66.87577104568481	response	0	j		67.0	/experiments/knapen_AOT/AOT_stimuli/pictures/0878_fw.png	200.7810389995575	
70	66.88936805725098	picture	0		171	68.0	/experiments/knapen_AOT/AOT_stimuli/pictures/0685_fw.png	200.79463601112366	1.4305839538574219
70	68.30919694900513	response	0	j		68.0	/experiments/knapen_AOT/AOT_stimuli/pictures/0685_fw.png	202.2144649028778	
71	68.3199520111084	picture	0		92	69.0	/experiments/knapen_AOT/AOT_stimuli/pictures/1637_fw.png	202.22521996498108	0.7640500068664551
71	69.07600092887878	response	0	k		69.0	/experiments/knapen_AOT/AOT_stimuli/pictures/1637_fw.png	202.98126888275146	
72	69.08400201797485	picture	0		112	70.0	/experiments/knapen_AOT/AOT_stimuli/pictures/1082_fw.png	202.98926997184753	0.9373509883880615
72	70.00926804542542	response	0	j		70.0	/experiments/knapen_AOT/AOT_stimuli/pictures/1082_fw.png	203.9145359992981	
73	70.02135300636292	picture	0		231	71.0	/experiments/knapen_AOT/AOT_stimuli/pictures/0517_fw.png	203.9266209602356	1.9236581325531006
73	71.9342610836029	response	0	k		71.0	/experiments/knapen_AOT/AOT_stimuli/pictures/0517_fw.png	205.8395290374756	
74	71.94501113891602	picture	0		100	72.0	/experiments/knapen_AOT/AOT_stimuli/pictures/1286_fw.png	205.8502790927887	0.8333017826080322
74	72.76757311820984	response	0	k		72.0	/experiments/knapen_AOT/AOT_stimuli/pictures/1286_fw.png	206.67284107208252	
75	72.77831292152405	picture	0		94	73.0	/experiments/knapen_AOT/AOT_stimuli/pictures/2045_fw.png	206.68358087539673	0.7847402095794678
75	73.55100893974304	response	0	j		73.0	/experiments/knapen_AOT/AOT_stimuli/pictures/2045_fw.png	207.45627689361572	
76	73.56305313110352	picture	0		205	74.0	/experiments/knapen_AOT/AOT_stimuli/pictures/1798_fw.png	207.4683210849762	1.708345890045166
76	75.25244903564453	response	0	k		74.0	/experiments/knapen_AOT/AOT_stimuli/pictures/1798_fw.png	209.1577169895172	
77	75.27139902114868	picture	0		110	75.0	/experiments/knapen_AOT/AOT_stimuli/pictures/1911_fw.png	209.17666697502136	0.9166669845581055
77	76.17609691619873	response	0	j		75.0	/experiments/knapen_AOT/AOT_stimuli/pictures/1911_fw.png	210.0813648700714	
78	76.18806600570679	picture	0		143	76.0	/experiments/knapen_AOT/AOT_stimuli/pictures/0679_fw.png	210.09333395957947	1.1877140998840332
78	77.36783409118652	response	0	k		76.0	/experiments/knapen_AOT/AOT_stimuli/pictures/0679_fw.png	211.2731020450592	
79	77.37578010559082	picture	0		95	77.0	/experiments/knapen_AOT/AOT_stimuli/pictures/0113_fw.png	211.2810480594635	0.791679859161377
79	78.15934109687805	response	0	j		77.0	/experiments/knapen_AOT/AOT_stimuli/pictures/0113_fw.png	212.06460905075073	
80	78.1674599647522	picture	0		113	78.0	/experiments/knapen_AOT/AOT_stimuli/pictures/1522_fw.png	212.07272791862488	0.9442629814147949
80	79.1010811328888	response	0	j		78.0	/experiments/knapen_AOT/AOT_stimuli/pictures/1522_fw.png	213.00634908676147	
81	79.11172294616699	picture	0		94	79.0	/experiments/knapen_AOT/AOT_stimuli/pictures/0704_fw.png	213.01699090003967	0.7847201824188232
81	79.88430905342102	response	0	j		79.0	/experiments/knapen_AOT/AOT_stimuli/pictures/0704_fw.png	213.7895770072937	
82	79.89644312858582	picture	0		110	80.0	/experiments/knapen_AOT/AOT_stimuli/pictures/1260_fw.png	213.8017110824585	0.9166929721832275
82	80.80114102363586	response	0	k		80.0	/experiments/knapen_AOT/AOT_stimuli/pictures/1260_fw.png	214.70640897750854	
83	80.81313610076904	picture	0		110	81.0	/experiments/knapen_AOT/AOT_stimuli/pictures/0366_fw.png	214.71840405464172	0.9166908264160156
83	81.71768093109131	response	0	k		81.0	/experiments/knapen_AOT/AOT_stimuli/pictures/0366_fw.png	215.622948884964	
84	81.72982692718506	picture	0		100	82.0	/experiments/knapen_AOT/AOT_stimuli/pictures/1164_fw.png	215.63509488105774	0.8333730697631836
84	82.55118012428284	response	0	k		82.0	/experiments/knapen_AOT/AOT_stimuli/pictures/1164_fw.png	216.45644807815552	
85	82.56319999694824	picture	0		108	83.0	/experiments/knapen_AOT/AOT_stimuli/pictures/1792_fw.png	216.46846795082092	0.8960261344909668
85	83.4442789554596	response	0	k		83.0	/experiments/knapen_AOT/AOT_stimuli/pictures/1792_fw.png	217.34954690933228	
86	83.45922613143921	picture	0		95	84.0	/experiments/knapen_AOT/AOT_stimuli/pictures/1352_fw.png	217.3644940853119	0.7916867733001709
86	84.23591303825378	response	0	j		84.0	/experiments/knapen_AOT/AOT_stimuli/pictures/1352_fw.png	218.14118099212646	
87	84.25091290473938	picture	0		124	85.0	/experiments/knapen_AOT/AOT_stimuli/pictures/0490_fw.png	218.15618085861206	1.0344531536102295
87	85.2762041091919	response	0	j		85.0	/experiments/knapen_AOT/AOT_stimuli/pictures/0490_fw.png	219.18147206306458	
88	85.28536605834961	picture	0		145	86.0	/experiments/knapen_AOT/AOT_stimuli/pictures/0052_fw.png	219.1906340122223	1.2083919048309326
88	86.48448491096497	response	0	k		86.0	/experiments/knapen_AOT/AOT_stimuli/pictures/0052_fw.png	220.38975286483765	
89	86.49375796318054	picture	0		96	87.0	/experiments/knapen_AOT/AOT_stimuli/pictures/1022_fw.png	220.39902591705322	0.7988929748535156
89	87.28445291519165	response	0	k		87.0	/experiments/knapen_AOT/AOT_stimuli/pictures/1022_fw.png	221.18972086906433	
90	87.29265093803406	picture	0		100	88.0	/experiments/knapen_AOT/AOT_stimuli/pictures/2120_fw.png	221.19791889190674	0.8332991600036621
90	88.1178970336914	response	0	j		88.0	/experiments/knapen_AOT/AOT_stimuli/pictures/2120_fw.png	222.0231649875641	
91	88.12595009803772	picture	0		101	89.0	/experiments/knapen_AOT/AOT_stimuli/pictures/0192_fw.png	222.0312180519104	0.8469369411468506
91	88.95942997932434	response	0	j		89.0	/experiments/knapen_AOT/AOT_stimuli/pictures/0192_fw.png	222.86469793319702	
92	88.97288703918457	picture	0		369	90.0	/experiments/knapen_AOT/AOT_stimuli/pictures/1572_fw.png	222.87815499305725	3.08339786529541
92	92.03611707687378	response	0	k		90.0	/experiments/knapen_AOT/AOT_stimuli/pictures/1572_fw.png	225.94138503074646	
93	92.05628490447998	picture	0		139	91.0	/experiments/knapen_AOT/AOT_stimuli/pictures/0595_fw.png	225.96155285835266	1.1875731945037842
93	93.22790193557739	response	0	j		91.0	/experiments/knapen_AOT/AOT_stimuli/pictures/0595_fw.png	227.13316988945007	
94	93.24385809898376	picture	0		95	92.0	/experiments/knapen_AOT/AOT_stimuli/pictures/1123_fw.png	227.14912605285645	0.7915928363800049
94	94.01957297325134	response	0	j		92.0	/experiments/knapen_AOT/AOT_stimuli/pictures/1123_fw.png	227.92484092712402	
95	94.03545093536377	picture	0		96	93.0	/experiments/knapen_AOT/AOT_stimuli/pictures/1482_fw.png	227.94071888923645	0.7989020347595215
95	94.81967806816101	response	0	j		93.0	/experiments/knapen_AOT/AOT_stimuli/pictures/1482_fw.png	228.7249460220337	
96	94.83435297012329	picture	0		96	94.0	/experiments/knapen_AOT/AOT_stimuli/pictures/1008_fw.png	228.73962092399597	0.805279016494751
96	95.61956191062927	response	0	j		94.0	/experiments/knapen_AOT/AOT_stimuli/pictures/1008_fw.png	229.52482986450195	
97	95.63963198661804	picture	0		97	95.0	/experiments/knapen_AOT/AOT_stimuli/pictures/0953_fw.png	229.54489994049072	0.8126630783081055
97	96.4361081123352	response	0	k		95.0	/experiments/knapen_AOT/AOT_stimuli/pictures/0953_fw.png	230.34137606620789	
98	96.45229506492615	picture	0		101	96.0	/experiments/knapen_AOT/AOT_stimuli/pictures/1680_fw.png	230.35756301879883	0.8405518531799316
98	97.28455901145935	response	0	k		96.0	/experiments/knapen_AOT/AOT_stimuli/pictures/1680_fw.png	231.18982696533203	
99	97.29284691810608	picture	0		102	97.0	/experiments/knapen_AOT/AOT_stimuli/pictures/0804_fw.png	231.19811487197876	0.8537499904632568
99	98.13455700874329	response	0	k		97.0	/experiments/knapen_AOT/AOT_stimuli/pictures/0804_fw.png	232.03982496261597	
100	98.14659690856934	picture	0		101	98.0	/experiments/knapen_AOT/AOT_stimuli/pictures/1583_fw.png	232.05186486244202	0.8403069972991943
100	98.97638201713562	response	0	j		98.0	/experiments/knapen_AOT/AOT_stimuli/pictures/1583_fw.png	232.8816499710083	
101	98.98690390586853	picture	0		103	99.0	/experiments/knapen_AOT/AOT_stimuli/pictures/0933_fw.png	232.8921718597412	0.861091136932373
101	99.83462905883789	response	0	k		99.0	/experiments/knapen_AOT/AOT_stimuli/pictures/0933_fw.png	233.73989701271057	
102	99.8479950428009	picture	0		95	100.0	/experiments/knapen_AOT/AOT_stimuli/pictures/0542_fw.png	233.75326299667358	0.7986049652099609
102	100.62792706489563	response	0	j		100.0	/experiments/knapen_AOT/AOT_stimuli/pictures/0542_fw.png	234.5331950187683	
103	100.64660000801086	picture	0		113	101.0	/experiments/knapen_AOT/AOT_stimuli/pictures/0521_fw.png	234.55186796188354	0.9378659725189209
103	101.57647705078125	response	0	j		101.0	/experiments/knapen_AOT/AOT_stimuli/pictures/0521_fw.png	235.48174500465393	
104	101.58446598052979	picture	0		118	102.0	/experiments/knapen_AOT/AOT_stimuli/pictures/0815_fw.png	235.48973393440247	0.9858100414276123
104	102.55967307090759	response	0	j		102.0	/experiments/knapen_AOT/AOT_stimuli/pictures/0815_fw.png	236.46494102478027	
105	102.5702760219574	picture	0		102	103.0	/experiments/knapen_AOT/AOT_stimuli/pictures/0360_fw.png	236.47554397583008	0.8476688861846924
105	103.40294098854065	response	0	k		103.0	/experiments/knapen_AOT/AOT_stimuli/pictures/0360_fw.png	237.30820894241333	
106	103.41794490814209	picture	0		108	104.0	/experiments/knapen_AOT/AOT_stimuli/pictures/1346_fw.png	237.32321286201477	0.9023270606994629
106	104.30974006652832	response	0	k		104.0	/experiments/knapen_AOT/AOT_stimuli/pictures/1346_fw.png	238.215008020401	
107	104.32027196884155	picture	0		93	105.0	/experiments/knapen_AOT/AOT_stimuli/pictures/1223_fw.png	238.22553992271423	0.7777841091156006
107	105.08464694023132	response	0	j		105.0	/experiments/knapen_AOT/AOT_stimuli/pictures/1223_fw.png	238.989914894104	
108	105.09805607795715	picture	0		119	106.0	/experiments/knapen_AOT/AOT_stimuli/pictures/1126_fw.png	239.00332403182983	1.0000100135803223
108	106.08464503288269	response	0	k		106.0	/experiments/knapen_AOT/AOT_stimuli/pictures/1126_fw.png	239.98991298675537	
109	106.09806609153748	picture	0		107	107.0	/experiments/knapen_AOT/AOT_stimuli/pictures/1419_fw.png	240.00333404541016	0.8959610462188721
109	106.98480892181396	response	0	j		107.0	/experiments/knapen_AOT/AOT_stimuli/pictures/1419_fw.png	240.89007687568665	
110	106.99402713775635	picture	0		99	108.0	/experiments/knapen_AOT/AOT_stimuli/pictures/0118_fw.png	240.89929509162903	0.8262748718261719
110	107.8030059337616	response	0	k		108.0	/experiments/knapen_AOT/AOT_stimuli/pictures/0118_fw.png	241.70827388763428	
111	107.82030200958252	picture	0		96	109.0	/experiments/knapen_AOT/AOT_stimuli/pictures/0222_fw.png	241.7255699634552	0.7987499237060547
111	108.60301995277405	response	0	j		109.0	/experiments/knapen_AOT/AOT_stimuli/pictures/0222_fw.png	242.50828790664673	
112	108.61905193328857	picture	0		202	110.0	/experiments/knapen_AOT/AOT_stimuli/pictures/0666_fw.png	242.52431988716125	1.6873700618743896
112	110.29319190979004	response	0	j		110.0	/experiments/knapen_AOT/AOT_stimuli/pictures/0666_fw.png	244.19845986366272	
113	110.30642199516296	picture	0		82	111.0	/experiments/knapen_AOT/AOT_stimuli/pictures/1511_fw.png	244.21168994903564	0.6876330375671387
113	110.98480200767517	response	0	k		111.0	/experiments/knapen_AOT/AOT_stimuli/pictures/1511_fw.png	244.89006996154785	
114	110.9940550327301	picture	0		110	112.0	/experiments/knapen_AOT/AOT_stimuli/pictures/1884_fw.png	244.89932298660278	0.9166390895843506
114	111.9015839099884	response	0	k		112.0	/experiments/knapen_AOT/AOT_stimuli/pictures/1884_fw.png	245.80685186386108	
115	111.91069412231445	picture	0		110	113.0	/experiments/knapen_AOT/AOT_stimuli/pictures/0082_fw.png	245.81596207618713	0.9166679382324219
115	112.81141901016235	response	0	k		113.0	/experiments/knapen_AOT/AOT_stimuli/pictures/0082_fw.png	246.71668696403503	
116	112.82736206054688	picture	0		91	114.0	/experiments/knapen_AOT/AOT_stimuli/pictures/1046_fw.png	246.73263001441956	0.7573390007019043
116	113.57660508155823	response	0	j		114.0	/experiments/knapen_AOT/AOT_stimuli/pictures/1046_fw.png	247.4818730354309	
117	113.58470106124878	picture	0		87	115.0	/experiments/knapen_AOT/AOT_stimuli/pictures/0752_fw.png	247.48996901512146	0.7286899089813232
117	114.30160403251648	response	0	j		115.0	/experiments/knapen_AOT/AOT_stimuli/pictures/0752_fw.png	248.20687198638916	
118	114.3133909702301	picture	0		91	116.0	/experiments/knapen_AOT/AOT_stimuli/pictures/0882_fw.png	248.21865892410278	0.7569379806518555
118	115.0599250793457	response	0	j		116.0	/experiments/knapen_AOT/AOT_stimuli/pictures/0882_fw.png	248.96519303321838	
119	115.07032895088196	picture	0		146	117.0	/experiments/knapen_AOT/AOT_stimuli/pictures/1570_fw.png	248.97559690475464	1.2153489589691162
119	116.27657794952393	response	0	j		117.0	/experiments/knapen_AOT/AOT_stimuli/pictures/1570_fw.png	250.1818459033966	
120	116.28567790985107	picture	0		184	118.0	/experiments/knapen_AOT/AOT_stimuli/pictures/0759_fw.png	250.19094586372375	1.534675121307373
120	117.80323910713196	response	0	k		118.0	/experiments/knapen_AOT/AOT_stimuli/pictures/0759_fw.png	251.70850706100464	
121	117.82035303115845	picture	0		114	119.0	/experiments/knapen_AOT/AOT_stimuli/pictures/1066_fw.png	251.72562098503113	0.9514200687408447
121	118.75994205474854	response	0	k		119.0	/experiments/knapen_AOT/AOT_stimuli/pictures/1066_fw.png	252.66521000862122	
122	118.77177309989929	picture	0		100	120.0	/experiments/knapen_AOT/AOT_stimuli/pictures/1891_fw.png	252.67704105377197	0.8333559036254883
122	119.5864429473877	response	0	k		120.0	/experiments/knapen_AOT/AOT_stimuli/pictures/1891_fw.png	253.49171090126038	
123	119.60512900352478	picture	0		118	121.0	/experiments/knapen_AOT/AOT_stimuli/pictures/1757_fw.png	253.51039695739746	0.9797210693359375
123	120.57663798332214	response	0	j		121.0	/experiments/knapen_AOT/AOT_stimuli/pictures/1757_fw.png	254.48190593719482	
124	120.58485007286072	picture	0		112	122.0	/experiments/knapen_AOT/AOT_stimuli/pictures/1220_fw.png	254.4901180267334	0.9369468688964844
124	121.51000499725342	response	0	j		122.0	/experiments/knapen_AOT/AOT_stimuli/pictures/1220_fw.png	255.4152729511261	
125	121.5217969417572	picture	0		104	123.0	/experiments/knapen_AOT/AOT_stimuli/pictures/1193_fw.png	255.42706489562988	0.8680460453033447
125	122.37664198875427	response	0	k		123.0	/experiments/knapen_AOT/AOT_stimuli/pictures/1193_fw.png	256.28190994262695	
126	122.38984298706055	picture	0		98	124.0	/experiments/knapen_AOT/AOT_stimuli/pictures/1742_fw.png	256.2951109409332	0.8263869285583496
126	123.19493913650513	response	0	j		124.0	/experiments/knapen_AOT/AOT_stimuli/pictures/1742_fw.png	257.1002070903778	
127	123.2162299156189	picture	0		115	125.0	/experiments/knapen_AOT/AOT_stimuli/pictures/0993_fw.png	257.1214978694916	0.9653060436248779
127	124.16832113265991	response	0	j		125.0	/experiments/knapen_AOT/AOT_stimuli/pictures/0993_fw.png	258.0735890865326	
128	124.18153595924377	picture	0		90	126.0	/experiments/knapen_AOT/AOT_stimuli/pictures/0318_fw.png	258.08680391311646	0.7569341659545898
128	124.92673802375793	response	0	j		126.0	/experiments/knapen_AOT/AOT_stimuli/pictures/0318_fw.png	258.8320059776306	
129	124.93847012519836	picture	0		116	127.0	/experiments/knapen_AOT/AOT_stimuli/pictures/0650_fw.png	258.84373807907104	0.9652848243713379
129	125.89331793785095	response	0	k		127.0	/experiments/knapen_AOT/AOT_stimuli/pictures/0650_fw.png	259.79858589172363	
130	125.9037549495697	picture	0		170	128.0	/experiments/knapen_AOT/AOT_stimuli/pictures/1202_fw.png	259.8090229034424	1.4166991710662842
130	127.3100700378418	response	0	k		128.0	/experiments/knapen_AOT/AOT_stimuli/pictures/1202_fw.png	261.2153379917145	
131	127.32045412063599	picture	0		93	129.0	/experiments/knapen_AOT/AOT_stimuli/pictures/0527_fw.png	261.22572207450867	0.7778809070587158
131	128.085058927536	response	0	k		129.0	/experiments/knapen_AOT/AOT_stimuli/pictures/0527_fw.png	261.9903268814087	
132	128.0983350276947	picture	0		94	130.0	/experiments/knapen_AOT/AOT_stimuli/pictures/1628_fw.png	262.0036029815674	0.791558027267456
132	128.87684392929077	response	0	j		130.0	/experiments/knapen_AOT/AOT_stimuli/pictures/1628_fw.png	262.78211188316345	
133	128.88989305496216	picture	0		127	131.0	/experiments/knapen_AOT/AOT_stimuli/pictures/1012_fw.png	262.79516100883484	1.0625360012054443
133	129.9434940814972	response	0	k		131.0	/experiments/knapen_AOT/AOT_stimuli/pictures/1012_fw.png	263.8487620353699	
134	129.9524290561676	picture	0		100	132.0	/experiments/knapen_AOT/AOT_stimuli/pictures/2059_fw.png	263.8576970100403	0.8334779739379883
134	130.76988911628723	response	0	j		132.0	/experiments/knapen_AOT/AOT_stimuli/pictures/2059_fw.png	264.6751570701599	
135	130.7859070301056	picture	0		122	133.0	/experiments/knapen_AOT/AOT_stimuli/pictures/0720_fw.png	264.69117498397827	1.0206809043884277
135	131.78675293922424	response	0	k		133.0	/experiments/knapen_AOT/AOT_stimuli/pictures/0720_fw.png	265.6920208930969	
136	131.80658793449402	picture	0		95	134.0	/experiments/knapen_AOT/AOT_stimuli/pictures/1862_fw.png	265.7118558883667	0.7986819744110107
136	132.5868661403656	response	0	j		134.0	/experiments/knapen_AOT/AOT_stimuli/pictures/1862_fw.png	266.4921340942383	
137	132.60526990890503	picture	0		110	135.0	/experiments/knapen_AOT/AOT_stimuli/pictures/0631_fw.png	266.5105378627777	0.9380090236663818
137	133.5351619720459	response	0	j		135.0	/experiments/knapen_AOT/AOT_stimuli/pictures/0631_fw.png	267.4404299259186	
138	133.5432789325714	picture	0		98	136.0	/experiments/knapen_AOT/AOT_stimuli/pictures/1130_fw.png	267.4485468864441	0.8189060688018799
138	134.35177206993103	response	0	j		136.0	/experiments/knapen_AOT/AOT_stimuli/pictures/1130_fw.png	268.2570400238037	
139	134.3621850013733	picture	0		119	137.0	/experiments/knapen_AOT/AOT_stimuli/pictures/0001_fw.png	268.267452955246	0.9930469989776611
139	135.343416929245	response	0	k		137.0	/experiments/knapen_AOT/AOT_stimuli/pictures/0001_fw.png	269.2486848831177	
140	135.35523200035095	picture	0		97	138.0	/experiments/knapen_AOT/AOT_stimuli/pictures/2084_fw.png	269.26049995422363	0.8055739402770996
140	136.15183401107788	response	0	k		138.0	/experiments/knapen_AOT/AOT_stimuli/pictures/2084_fw.png	270.05710196495056	
141	136.16080594062805	picture	0		89	139.0	/experiments/knapen_AOT/AOT_stimuli/pictures/0822_fw.png	270.06607389450073	0.7432131767272949
141	136.89344310760498	response	0	j		139.0	/experiments/knapen_AOT/AOT_stimuli/pictures/0822_fw.png	270.79871106147766	
142	136.90401911735535	picture	0		106	140.0	/experiments/knapen_AOT/AOT_stimuli/pictures/0064_fw.png	270.809287071228	0.8819169998168945
142	137.77011108398438	response	0	j		140.0	/experiments/knapen_AOT/AOT_stimuli/pictures/0064_fw.png	271.67537903785706	
143	137.78593611717224	picture	0		97	141.0	/experiments/knapen_AOT/AOT_stimuli/pictures/0572_fw.png	271.6912040710449	0.8123779296875
143	138.57840204238892	response	0	k		141.0	/experiments/knapen_AOT/AOT_stimuli/pictures/0572_fw.png	272.4836699962616	
144	138.59831404685974	picture	0		107	142.0	/experiments/knapen_AOT/AOT_stimuli/pictures/2061_fw.png	272.5035820007324	0.895880937576294
144	139.48522901535034	response	0	k		142.0	/experiments/knapen_AOT/AOT_stimuli/pictures/2061_fw.png	273.390496969223	
145	139.49419498443604	picture	0		98	143.0	/experiments/knapen_AOT/AOT_stimuli/pictures/1769_fw.png	273.3994629383087	0.8195240497589111
145	140.3018889427185	response	0	k		143.0	/experiments/knapen_AOT/AOT_stimuli/pictures/1769_fw.png	274.2071568965912	
146	140.31371903419495	picture	0		101	144.0	/experiments/knapen_AOT/AOT_stimuli/pictures/0554_fw.png	274.2189869880676	0.8401730060577393
146	141.14342713356018	response	0	k		144.0	/experiments/knapen_AOT/AOT_stimuli/pictures/0554_fw.png	275.04869508743286	
147	141.15389204025269	picture	0		107	145.0	/experiments/knapen_AOT/AOT_stimuli/pictures/0054_fw.png	275.05915999412537	0.8894829750061035
147	142.03525590896606	response	0	k		145.0	/experiments/knapen_AOT/AOT_stimuli/pictures/0054_fw.png	275.94052386283875	
148	142.0433750152588	picture	0		94	146.0	/experiments/knapen_AOT/AOT_stimuli/pictures/0954_fw.png	275.94864296913147	0.7841899394989014
148	142.8184790611267	response	0	k		146.0	/experiments/knapen_AOT/AOT_stimuli/pictures/0954_fw.png	276.7237470149994	
149	142.8275649547577	picture	0		98	147.0	/experiments/knapen_AOT/AOT_stimuli/pictures/0098_fw.png	276.73283290863037	0.8194601535797119
149	143.63528990745544	response	0	j		147.0	/experiments/knapen_AOT/AOT_stimuli/pictures/0098_fw.png	277.5405578613281	
150	143.6470251083374	picture	0		95	148.0	/experiments/knapen_AOT/AOT_stimuli/pictures/1581_fw.png	277.5522930622101	0.7917330265045166
150	144.42685103416443	response	0	j		148.0	/experiments/knapen_AOT/AOT_stimuli/pictures/1581_fw.png	278.3321189880371	
151	144.43875813484192	picture	0		464	149.0	/experiments/knapen_AOT/AOT_stimuli/pictures/0702_fw.png	278.3440260887146	3.8679778575897217
151	148.29357409477234	response	0	k		149.0	/experiments/knapen_AOT/AOT_stimuli/pictures/0702_fw.png	282.198842048645	
152	148.30673599243164	picture	0		82	150.0	/experiments/knapen_AOT/AOT_stimuli/pictures/1398_fw.png	282.2120039463043	0.6875669956207275
152	148.98544096946716	response	0	j		150.0	/experiments/knapen_AOT/AOT_stimuli/pictures/1398_fw.png	282.89070892333984	
153	148.99430298805237	picture	0		124	151.0	/experiments/knapen_AOT/AOT_stimuli/pictures/0049_fw.png	282.89957094192505	1.0346601009368896
153	150.01854801177979	response	0	k		151.0	/experiments/knapen_AOT/AOT_stimuli/pictures/0049_fw.png	283.92381596565247	
154	150.02896308898926	picture	0		106	152.0	/experiments/knapen_AOT/AOT_stimuli/pictures/0710_fw.png	283.93423104286194	0.8820500373840332
154	150.90201210975647	response	0	j		152.0	/experiments/knapen_AOT/AOT_stimuli/pictures/0710_fw.png	284.80728006362915	
155	150.9110131263733	picture	0		98	153.0	/experiments/knapen_AOT/AOT_stimuli/pictures/1338_fw.png	284.816281080246	0.8193469047546387
155	151.71859192848206	response	0	j		153.0	/experiments/knapen_AOT/AOT_stimuli/pictures/1338_fw.png	285.62385988235474	
156	151.73036003112793	picture	0		86	154.0	/experiments/knapen_AOT/AOT_stimuli/pictures/0831_fw.png	285.6356279850006	0.7153890132904053
156	152.43540406227112	response	0	j		154.0	/experiments/knapen_AOT/AOT_stimuli/pictures/0831_fw.png	286.3406720161438	
157	152.44574904441833	picture	0		87	155.0	/experiments/knapen_AOT/AOT_stimuli/pictures/1986_fw.png	286.351016998291	0.7227540016174316
157	153.1537230014801	response	0	j		155.0	/experiments/knapen_AOT/AOT_stimuli/pictures/1986_fw.png	287.0589909553528	
158	153.16850304603577	picture	0		106	156.0	/experiments/knapen_AOT/AOT_stimuli/pictures/0995_fw.png	287.07377099990845	0.888293981552124
158	154.04361391067505	response	0	j		156.0	/experiments/knapen_AOT/AOT_stimuli/pictures/0995_fw.png	287.94888186454773	
159	154.0567970275879	picture	0		100	157.0	/experiments/knapen_AOT/AOT_stimuli/pictures/1088_fw.png	287.96206498146057	0.8402559757232666
159	154.8854820728302	response	0	j		157.0	/experiments/knapen_AOT/AOT_stimuli/pictures/1088_fw.png	288.7907500267029	
160	154.89705300331116	picture	0		219	158.0	/experiments/knapen_AOT/AOT_stimuli/pictures/1647_fw.png	288.80232095718384	1.8264050483703613
160	156.71043610572815	response	0	k		158.0	/experiments/knapen_AOT/AOT_stimuli/pictures/1647_fw.png	290.61570405960083	
161	156.72345805168152	picture	0		112	159.0	/experiments/knapen_AOT/AOT_stimuli/pictures/2158_fw.png	290.6287260055542	0.9375269412994385
161	157.65214705467224	response	0	j		159.0	/experiments/knapen_AOT/AOT_stimuli/pictures/2158_fw.png	291.5574150085449	
162	157.66098499298096	picture	0		100	160.0	/experiments/knapen_AOT/AOT_stimuli/pictures/0349_fw.png	291.56625294685364	0.8333959579467773
162	158.48547291755676	response	0	k		160.0	/experiments/knapen_AOT/AOT_stimuli/pictures/0349_fw.png	292.39074087142944	
163	158.49438095092773	picture	0		105	161.0	/experiments/knapen_AOT/AOT_stimuli/pictures/1807_fw.png	292.3996489048004	0.8750050067901611
163	159.353688955307	response	0	j		161.0	/experiments/knapen_AOT/AOT_stimuli/pictures/1807_fw.png	293.2589569091797	
164	159.3693859577179	picture	0		87	162.0	/experiments/knapen_AOT/AOT_stimuli/pictures/0588_fw.png	293.2746539115906	0.7291040420532227
164	160.0854880809784	response	0	j		162.0	/experiments/knapen_AOT/AOT_stimuli/pictures/0588_fw.png	293.9907560348511	
165	160.09848999977112	picture	0		101	163.0	/experiments/knapen_AOT/AOT_stimuli/pictures/0523_fw.png	294.0037579536438	0.8472681045532227
165	160.93545603752136	response	0	k		163.0	/experiments/knapen_AOT/AOT_stimuli/pictures/0523_fw.png	294.84072399139404	
166	160.94575810432434	picture	0		109	164.0	/experiments/knapen_AOT/AOT_stimuli/pictures/1038_fw.png	294.851026058197	0.9096899032592773
166	161.84377098083496	response	0	k		164.0	/experiments/knapen_AOT/AOT_stimuli/pictures/1038_fw.png	295.74903893470764	
167	161.85544800758362	picture	0		102	165.0	/experiments/knapen_AOT/AOT_stimuli/pictures/0892_fw.png	295.7607159614563	0.8472480773925781
167	162.6937780380249	response	0	k		165.0	/experiments/knapen_AOT/AOT_stimuli/pictures/0892_fw.png	296.5990459918976	
168	162.7026960849762	picture	0		96	166.0	/experiments/knapen_AOT/AOT_stimuli/pictures/0095_fw.png	296.6079640388489	0.8076319694519043
168	163.49384212493896	response	0	k		166.0	/experiments/knapen_AOT/AOT_stimuli/pictures/0095_fw.png	297.39911007881165	
169	163.5103280544281	picture	0		98	167.0	/experiments/knapen_AOT/AOT_stimuli/pictures/1539_fw.png	297.4155960083008	0.8173708915710449
169	164.31885695457458	response	0	j		167.0	/experiments/knapen_AOT/AOT_stimuli/pictures/1539_fw.png	298.22412490844727	
170	164.32769894599915	picture	0		103	168.0	/experiments/knapen_AOT/AOT_stimuli/pictures/1943_fw.png	298.2329668998718	0.8611931800842285
170	165.17707991600037	response	0	k		168.0	/experiments/knapen_AOT/AOT_stimuli/pictures/1943_fw.png	299.08234786987305	
171	165.18889212608337	picture	0		93	169.0	/experiments/knapen_AOT/AOT_stimuli/pictures/1370_fw.png	299.09416007995605	0.7776827812194824
171	165.94535398483276	response	0	k		169.0	/experiments/knapen_AOT/AOT_stimuli/pictures/1370_fw.png	299.85062193870544	
172	165.96657490730286	picture	0		107	170.0	/experiments/knapen_AOT/AOT_stimuli/pictures/1978_fw.png	299.87184286117554	0.8958802223205566
172	166.8522801399231	response	0	k		170.0	/experiments/knapen_AOT/AOT_stimuli/pictures/1978_fw.png	300.7575480937958	
173	166.8624551296234	picture	0		108	171.0	/experiments/knapen_AOT/AOT_stimuli/pictures/1809_fw.png	300.7677230834961	0.9027769565582275
173	167.74603509902954	response	0	k		171.0	/experiments/knapen_AOT/AOT_stimuli/pictures/1809_fw.png	301.6513030529022	
174	167.76523208618164	picture	0		88	172.0	/experiments/knapen_AOT/AOT_stimuli/pictures/0405_fw.png	301.6705000400543	0.7430360317230225
174	168.49464106559753	response	0	j		172.0	/experiments/knapen_AOT/AOT_stimuli/pictures/0405_fw.png	302.3999090194702	
175	168.50826811790466	picture	0		98	173.0	/experiments/knapen_AOT/AOT_stimuli/pictures/0275_fw.png	302.41353607177734	0.819544792175293
175	169.3188509941101	response	0	k		173.0	/experiments/knapen_AOT/AOT_stimuli/pictures/0275_fw.png	303.2241189479828	
176	169.32781291007996	picture	0		180	174.0	/experiments/knapen_AOT/AOT_stimuli/pictures/1322_fw.png	303.23308086395264	1.4999949932098389
176	170.81886792182922	response	0	k		174.0	/experiments/knapen_AOT/AOT_stimuli/pictures/1322_fw.png	304.7241358757019	
177	170.8278079032898	picture	0		111	175.0	/experiments/knapen_AOT/AOT_stimuli/pictures/0760_fw.png	304.7330758571625	0.9305000305175781
177	171.7371211051941	response	0	j		175.0	/experiments/knapen_AOT/AOT_stimuli/pictures/0760_fw.png	305.6423890590668	
178	171.75830793380737	picture	0		158	176.0	/experiments/knapen_AOT/AOT_stimuli/pictures/0669_fw.png	305.66357588768005	1.3195171356201172
178	173.06891107559204	response	0	k		176.0	/experiments/knapen_AOT/AOT_stimuli/pictures/0669_fw.png	306.9741790294647	
179	173.0778250694275	picture	0		109	177.0	/experiments/knapen_AOT/AOT_stimuli/pictures/2034_fw.png	306.98309302330017	0.9096648693084717
179	173.9773509502411	response	0	k		177.0	/experiments/knapen_AOT/AOT_stimuli/pictures/2034_fw.png	307.88261890411377	
180	173.98748993873596	picture	0		249	178.0	/experiments/knapen_AOT/AOT_stimuli/pictures/1720_fw.png	307.89275789260864	2.0764081478118896
180	176.05238008499146	response	0	j		178.0	/experiments/knapen_AOT/AOT_stimuli/pictures/1720_fw.png	309.95764803886414	
181	176.06389808654785	picture	0		99	179.0	/experiments/knapen_AOT/AOT_stimuli/pictures/1363_fw.png	309.96916604042053	0.8264000415802002
181	176.8773250579834	response	0	k		179.0	/experiments/knapen_AOT/AOT_stimuli/pictures/1363_fw.png	310.7825930118561	
182	176.89029812812805	picture	0		95	180.0	/experiments/knapen_AOT/AOT_stimuli/pictures/0934_fw.png	310.79556608200073	0.791801929473877
182	177.66901803016663	response	0	j		180.0	/experiments/knapen_AOT/AOT_stimuli/pictures/0934_fw.png	311.5742859840393	
183	177.68210005760193	picture	0		87	181.0	/experiments/knapen_AOT/AOT_stimuli/pictures/0460_fw.png	311.5873680114746	0.7568478584289551
183	178.427472114563	response	0	j		181.0	/experiments/knapen_AOT/AOT_stimuli/pictures/0460_fw.png	312.33274006843567	
184	178.43894791603088	picture	0		227	182.0	/experiments/knapen_AOT/AOT_stimuli/pictures/0668_fw.png	312.34421586990356	1.8889060020446777
184	180.31903505325317	response	0	j		182.0	/experiments/knapen_AOT/AOT_stimuli/pictures/0668_fw.png	314.22430300712585	
185	180.32785391807556	picture	0		112	183.0	/experiments/knapen_AOT/AOT_stimuli/pictures/1005_fw.png	314.23312187194824	0.9375090599060059
185	181.2524869441986	response	0	j		183.0	/experiments/knapen_AOT/AOT_stimuli/pictures/1005_fw.png	315.1577548980713	
186	181.26536297798157	picture	0		94	184.0	/experiments/knapen_AOT/AOT_stimuli/pictures/1791_fw.png	315.17063093185425	0.7916519641876221
186	182.04405903816223	response	0	j		184.0	/experiments/knapen_AOT/AOT_stimuli/pictures/1791_fw.png	315.9493269920349	
187	182.0570149421692	picture	0		107	185.0	/experiments/knapen_AOT/AOT_stimuli/pictures/0042_fw.png	315.96228289604187	0.8958771228790283
187	182.93733096122742	response	0	j		185.0	/experiments/knapen_AOT/AOT_stimuli/pictures/0042_fw.png	316.8425989151001	
188	182.95289206504822	picture	0		96	186.0	/experiments/knapen_AOT/AOT_stimuli/pictures/1397_fw.png	316.8581600189209	0.8055200576782227
188	183.74458813667297	response	0	j		186.0	/experiments/knapen_AOT/AOT_stimuli/pictures/1397_fw.png	317.64985609054565	
189	183.75841212272644	picture	0		96	187.0	/experiments/knapen_AOT/AOT_stimuli/pictures/0767_fw.png	317.6636800765991	0.8055508136749268
189	184.55242800712585	response	0	k		187.0	/experiments/knapen_AOT/AOT_stimuli/pictures/0767_fw.png	318.45769596099854	
190	184.56396293640137	picture	0		95	188.0	/experiments/knapen_AOT/AOT_stimuli/pictures/0584_fw.png	318.46923089027405	0.791733980178833
190	185.33735013008118	response	0	k		188.0	/experiments/knapen_AOT/AOT_stimuli/pictures/0584_fw.png	319.24261808395386	
191	185.3556969165802	picture	0		90	189.0	/experiments/knapen_AOT/AOT_stimuli/pictures/1192_fw.png	319.2609648704529	0.7499890327453613
191	186.0941231250763	response	0	j		189.0	/experiments/knapen_AOT/AOT_stimuli/pictures/1192_fw.png	319.999391078949	
192	186.10568594932556	picture	0		93	190.0	/experiments/knapen_AOT/AOT_stimuli/pictures/0016_fw.png	320.01095390319824	0.7799930572509766
192	186.8697190284729	response	0	k		190.0	/experiments/knapen_AOT/AOT_stimuli/pictures/0016_fw.png	320.7749869823456	
193	186.88567900657654	picture	0		86	191.0	/experiments/knapen_AOT/AOT_stimuli/pictures/0220_fw.png	320.7909469604492	0.7199759483337402
193	187.59416604042053	response	0	j		191.0	/experiments/knapen_AOT/AOT_stimuli/pictures/0220_fw.png	321.4994339942932	
194	187.60565495491028	picture	0		88	192.0	/experiments/knapen_AOT/AOT_stimuli/pictures/1871_fw.png	321.51092290878296	0.7383191585540771
194	188.32071208953857	response	0	j		192.0	/experiments/knapen_AOT/AOT_stimuli/pictures/1871_fw.png	322.22598004341125	
195	188.34397411346436	picture	0		89	193.0	/experiments/knapen_AOT/AOT_stimuli/pictures/0616_fw.png	322.24924206733704	0.7478268146514893
195	189.07815599441528	response	0	j		193.0	/experiments/knapen_AOT/AOT_stimuli/pictures/0616_fw.png	322.98342394828796	
196	189.09180092811584	picture	0		98	194.0	/experiments/knapen_AOT/AOT_stimuli/pictures/1073_fw.png	322.9970688819885	0.8194441795349121
196	189.90248012542725	response	0	j		194.0	/experiments/knapen_AOT/AOT_stimuli/pictures/1073_fw.png	323.8077480792999	
197	189.91124510765076	picture	0		101	195.0	/experiments/knapen_AOT/AOT_stimuli/pictures/0945_fw.png	323.81651306152344	0.8495039939880371
197	190.74472999572754	response	0	k		195.0	/experiments/knapen_AOT/AOT_stimuli/pictures/0945_fw.png	324.6499979496002	
198	190.7607491016388	picture	0		91	196.0	/experiments/knapen_AOT/AOT_stimuli/pictures/1611_fw.png	324.6660170555115	0.7666349411010742
198	191.5108699798584	response	0	j		196.0	/experiments/knapen_AOT/AOT_stimuli/pictures/1611_fw.png	325.4161379337311	
199	191.52738404273987	picture	0		112	197.0	/experiments/knapen_AOT/AOT_stimuli/pictures/0145_fw.png	325.43265199661255	0.9416720867156982
199	192.45313096046448	response	0	k		197.0	/experiments/knapen_AOT/AOT_stimuli/pictures/0145_fw.png	326.35839891433716	
200	192.46905612945557	picture	0		146	198.0	/experiments/knapen_AOT/AOT_stimuli/pictures/0724_fw.png	326.37432408332825	1.220005989074707
200	193.67752194404602	response	0	k		198.0	/experiments/knapen_AOT/AOT_stimuli/pictures/0724_fw.png	327.5827898979187	
201	193.68906211853027	picture	0		99	199.0	/experiments/knapen_AOT/AOT_stimuli/pictures/2168_fw.png	327.59433007240295	0.8263850212097168
201	194.49628901481628	response	0	k		199.0	/experiments/knapen_AOT/AOT_stimuli/pictures/2168_fw.png	328.40155696868896	
202	194.51544713974	picture	0		85	200.0	/experiments/knapen_AOT/AOT_stimuli/pictures/1677_fw.png	328.42071509361267	0.7083518505096436
202	195.2109889984131	response	0	j		200.0	/experiments/knapen_AOT/AOT_stimuli/pictures/1677_fw.png	329.11625695228577	
203	195.22379899024963	picture	0		93	201.0	/experiments/knapen_AOT/AOT_stimuli/pictures/2049_fw.png	329.1290669441223	0.7708461284637451
203	195.98600506782532	response	0	j		201.0	/experiments/knapen_AOT/AOT_stimuli/pictures/2049_fw.png	329.891273021698	
204	195.99464511871338	picture	0		136	202.0	/experiments/knapen_AOT/AOT_stimuli/pictures/0541_fw.png	329.89991307258606	1.1388678550720215
204	197.1125991344452	response	0	j		202.0	/experiments/knapen_AOT/AOT_stimuli/pictures/0541_fw.png	331.01786708831787	
205	197.1335129737854	picture	0		177	203.0	/experiments/knapen_AOT/AOT_stimuli/pictures/0636_fw.png	331.0387809276581	1.4791879653930664
205	198.6025619506836	response	0	k		203.0	/experiments/knapen_AOT/AOT_stimuli/pictures/0636_fw.png	332.5078299045563	
206	198.61270093917847	picture	0		122	204.0	/experiments/knapen_AOT/AOT_stimuli/pictures/0289_fw.png	332.51796889305115	1.020920991897583
206	199.61990308761597	response	0	k		204.0	/experiments/knapen_AOT/AOT_stimuli/pictures/0289_fw.png	333.52517104148865	
207	199.63362193107605	picture	0		107	205.0	/experiments/knapen_AOT/AOT_stimuli/pictures/1732_fw.png	333.53888988494873	0.8957970142364502
207	200.51265001296997	response	0	k		205.0	/experiments/knapen_AOT/AOT_stimuli/pictures/1732_fw.png	334.41791796684265	
208	200.5294189453125	picture	0		98	206.0	/experiments/knapen_AOT/AOT_stimuli/pictures/2126_fw.png	334.4346868991852	0.8194839954376221
208	201.33614993095398	response	0	j		206.0	/experiments/knapen_AOT/AOT_stimuli/pictures/2126_fw.png	335.24141788482666	
209	201.34890294075012	picture	0		92	207.0	/experiments/knapen_AOT/AOT_stimuli/pictures/2124_fw.png	335.2541708946228	0.7708621025085449
209	202.10413599014282	response	0	j		207.0	/experiments/knapen_AOT/AOT_stimuli/pictures/2124_fw.png	336.0094039440155	
210	202.11976504325867	picture	0		96	208.0	/experiments/knapen_AOT/AOT_stimuli/pictures/0658_fw.png	336.02503299713135	0.8055000305175781
210	202.90415501594543	response	0	k		208.0	/experiments/knapen_AOT/AOT_stimuli/pictures/0658_fw.png	336.8094229698181	
211	202.92526507377625	picture	0		95	209.0	/experiments/knapen_AOT/AOT_stimuli/pictures/0287_fw.png	336.8305330276489	0.7986738681793213
211	203.7047939300537	response	0	k		209.0	/experiments/knapen_AOT/AOT_stimuli/pictures/0287_fw.png	337.6100618839264	
212	203.72393894195557	picture	0		89	210.0	/experiments/knapen_AOT/AOT_stimuli/pictures/1205_fw.png	337.62920689582825	0.7499570846557617
212	204.46115803718567	response	0	j		210.0	/experiments/knapen_AOT/AOT_stimuli/pictures/1205_fw.png	338.36642599105835	
213	204.47389602661133	picture	0		96	211.0	/experiments/knapen_AOT/AOT_stimuli/pictures/0689_fw.png	338.379163980484	0.8036789894104004
213	205.26116299629211	response	0	k		211.0	/experiments/knapen_AOT/AOT_stimuli/pictures/0689_fw.png	339.1664309501648	
214	205.27757501602173	picture	0		93	212.0	/experiments/knapen_AOT/AOT_stimuli/pictures/1110_fw.png	339.1828429698944	0.779670000076294
214	206.04437804222107	response	0	k		212.0	/experiments/knapen_AOT/AOT_stimuli/pictures/1110_fw.png	339.94964599609375	
215	206.05724501609802	picture	0		100	213.0	/experiments/knapen_AOT/AOT_stimuli/pictures/1387_fw.png	339.9625129699707	0.8402349948883057
215	206.88619804382324	response	0	k		213.0	/experiments/knapen_AOT/AOT_stimuli/pictures/1387_fw.png	340.7914659976959	
216	206.89748001098633	picture	0		100	214.0	/experiments/knapen_AOT/AOT_stimuli/pictures/2093_fw.png	340.802747964859	0.8333530426025391
216	207.71272110939026	response	0	j		214.0	/experiments/knapen_AOT/AOT_stimuli/pictures/2093_fw.png	341.61798906326294	
217	207.73083305358887	picture	0		90	215.0	/experiments/knapen_AOT/AOT_stimuli/pictures/1723_fw.png	341.63610100746155	0.7500119209289551
217	208.46944308280945	response	0	k		215.0	/experiments/knapen_AOT/AOT_stimuli/pictures/1723_fw.png	342.37471103668213	
218	208.48084497451782	picture	0		104	216.0	/experiments/knapen_AOT/AOT_stimuli/pictures/1674_fw.png	342.3861129283905	0.8680980205535889
218	209.33603310585022	response	0	k		216.0	/experiments/knapen_AOT/AOT_stimuli/pictures/1674_fw.png	343.2413010597229	
219	209.3489429950714	picture	0		99	217.0	/experiments/knapen_AOT/AOT_stimuli/pictures/1755_fw.png	343.2542109489441	0.8263890743255615
219	210.1615240573883	response	0	k		217.0	/experiments/knapen_AOT/AOT_stimuli/pictures/1755_fw.png	344.066792011261	
220	210.17533206939697	picture	0		110	218.0	/experiments/knapen_AOT/AOT_stimuli/pictures/0004_fw.png	344.08060002326965	0.9273879528045654
220	211.079833984375	response	0	j		218.0	/experiments/knapen_AOT/AOT_stimuli/pictures/0004_fw.png	344.9851019382477	
221	211.10272002220154	picture	0		109	219.0	/experiments/knapen_AOT/AOT_stimuli/pictures/0159_fw.png	345.0079879760742	0.9128808975219727
221	212.00275206565857	response	0	k		219.0	/experiments/knapen_AOT/AOT_stimuli/pictures/0159_fw.png	345.90802001953125	
222	212.0156009197235	picture	0		122	220.0	/experiments/knapen_AOT/AOT_stimuli/pictures/0409_fw.png	345.9208688735962	1.0138781070709229
222	213.0194821357727	response	0	k		220.0	/experiments/knapen_AOT/AOT_stimuli/pictures/0409_fw.png	346.9247500896454	
223	213.02947902679443	picture	0		159	221.0	/experiments/knapen_AOT/AOT_stimuli/pictures/2176_fw.png	346.9347469806671	1.3264579772949219
223	214.34448909759521	response	0	k		221.0	/experiments/knapen_AOT/AOT_stimuli/pictures/2176_fw.png	348.2497570514679	
224	214.35593700408936	picture	0		96	222.0	/experiments/knapen_AOT/AOT_stimuli/pictures/1609_fw.png	348.26120495796204	0.798577070236206
224	215.14449501037598	response	0	k		222.0	/experiments/knapen_AOT/AOT_stimuli/pictures/1609_fw.png	349.04976296424866	
225	215.15451407432556	picture	0		102	223.0	/experiments/knapen_AOT/AOT_stimuli/pictures/1173_fw.png	349.05978202819824	0.8541450500488281
225	215.99499702453613	response	0	k		223.0	/experiments/knapen_AOT/AOT_stimuli/pictures/1173_fw.png	349.9002649784088	
226	216.0086591243744	picture	0		92	224.0	/experiments/knapen_AOT/AOT_stimuli/pictures/0218_fw.png	349.91392707824707	0.7986459732055664
226	216.79449796676636	response	0	j		224.0	/experiments/knapen_AOT/AOT_stimuli/pictures/0218_fw.png	350.69976592063904	
227	216.80730509757996	picture	0		89	225.0	/experiments/knapen_AOT/AOT_stimuli/pictures/0606_fw.png	350.71257305145264	0.7431068420410156
227	217.53656792640686	response	0	k		225.0	/experiments/knapen_AOT/AOT_stimuli/pictures/0606_fw.png	351.44183588027954	
228	217.55041193962097	picture	0		117	226.0	/experiments/knapen_AOT/AOT_stimuli/pictures/1407_fw.png	351.45567989349365	0.9791131019592285
228	218.51285409927368	response	0	j		226.0	/experiments/knapen_AOT/AOT_stimuli/pictures/1407_fw.png	352.41812205314636	
229	218.5295250415802	picture	0		96	227.0	/experiments/knapen_AOT/AOT_stimuli/pictures/1865_fw.png	352.4347929954529	0.7986788749694824
229	219.31964993476868	response	0	k		227.0	/experiments/knapen_AOT/AOT_stimuli/pictures/1865_fw.png	353.22491788864136	
230	219.32820391654968	picture	0		91	228.0	/experiments/knapen_AOT/AOT_stimuli/pictures/1427_fw.png	353.23347187042236	0.7638590335845947
230	220.078360080719	response	0	k		228.0	/experiments/knapen_AOT/AOT_stimuli/pictures/1427_fw.png	353.9836280345917	
231	220.09206295013428	picture	0		100	229.0	/experiments/knapen_AOT/AOT_stimuli/pictures/1328_fw.png	353.99733090400696	0.8402700424194336
231	220.91959810256958	response	0	k		229.0	/experiments/knapen_AOT/AOT_stimuli/pictures/1328_fw.png	354.82486605644226	
232	220.9323329925537	picture	0		94	230.0	/experiments/knapen_AOT/AOT_stimuli/pictures/0418_fw.png	354.8376009464264	0.787114143371582
232	221.69613790512085	response	0	k		230.0	/experiments/knapen_AOT/AOT_stimuli/pictures/0418_fw.png	355.60140585899353	
233	221.7194471359253	picture	0		94	231.0	/experiments/knapen_AOT/AOT_stimuli/pictures/1657_fw.png	355.624715089798	0.7833600044250488
233	222.48803997039795	response	0	k		231.0	/experiments/knapen_AOT/AOT_stimuli/pictures/1657_fw.png	356.39330792427063	
234	222.50280714035034	picture	0		99	232.0	/experiments/knapen_AOT/AOT_stimuli/pictures/1635_fw.png	356.408075094223	0.8255069255828857
234	223.31288695335388	response	0	j		232.0	/experiments/knapen_AOT/AOT_stimuli/pictures/1635_fw.png	357.21815490722656	
235	223.32831406593323	picture	0		299	233.0	/experiments/knapen_AOT/AOT_stimuli/pictures/0383_fw.png	357.2335820198059	2.493043899536133
235	225.8114149570465	response	0	k		233.0	/experiments/knapen_AOT/AOT_stimuli/pictures/0383_fw.png	359.7166829109192	
236	225.82135796546936	picture	0		102	234.0	/experiments/knapen_AOT/AOT_stimuli/pictures/0487_fw.png	359.72662591934204	0.8540761470794678
236	226.66162204742432	response	0	k		234.0	/experiments/knapen_AOT/AOT_stimuli/pictures/0487_fw.png	360.566890001297	
237	226.67543411254883	picture	0		92	235.0	/experiments/knapen_AOT/AOT_stimuli/pictures/1783_fw.png	360.5807020664215	0.7709059715270996
237	227.4364550113678	response	0	j		235.0	/experiments/knapen_AOT/AOT_stimuli/pictures/1783_fw.png	361.3417229652405	
238	227.44634008407593	picture	0		86	236.0	/experiments/knapen_AOT/AOT_stimuli/pictures/0661_fw.png	361.3516080379486	0.7151968479156494
238	228.15297198295593	response	0	k		236.0	/experiments/knapen_AOT/AOT_stimuli/pictures/0661_fw.png	362.0582399368286	
239	228.16153693199158	picture	0		91	237.0	/experiments/knapen_AOT/AOT_stimuli/pictures/1036_fw.png	362.06680488586426	0.7639820575714111
239	228.90451502799988	response	0	k		237.0	/experiments/knapen_AOT/AOT_stimuli/pictures/1036_fw.png	362.80978298187256	
240	228.925518989563	picture	0		122	238.0	/experiments/knapen_AOT/AOT_stimuli/pictures/1738_fw.png	362.83078694343567	1.0209131240844727
240	229.93646693229675	response	0	j		238.0	/experiments/knapen_AOT/AOT_stimuli/pictures/1738_fw.png	363.84173488616943	
241	229.94643211364746	picture	0		96	239.0	/experiments/knapen_AOT/AOT_stimuli/pictures/0169_fw.png	363.85170006752014	0.7984919548034668
241	230.73639798164368	response	0	k		239.0	/experiments/knapen_AOT/AOT_stimuli/pictures/0169_fw.png	364.64166593551636	
242	230.74492406845093	picture	0		143	240.0	/experiments/knapen_AOT/AOT_stimuli/pictures/0157_fw.png	364.6501920223236	1.194455862045288
242	231.92805695533752	response	0	k		240.0	/experiments/knapen_AOT/AOT_stimuli/pictures/0157_fw.png	365.8333249092102	
243	231.93937993049622	picture	0		124	241.0	/experiments/knapen_AOT/AOT_stimuli/pictures/1582_fw.png	365.8446478843689	1.0385510921478271
243	232.961501121521	response	0	j		241.0	/experiments/knapen_AOT/AOT_stimuli/pictures/1582_fw.png	366.8667690753937	
244	232.97793102264404	picture	0		118	242.0	/experiments/knapen_AOT/AOT_stimuli/pictures/1641_fw.png	366.8831989765167	0.9892499446868896
244	233.953449010849	response	0	k		242.0	/experiments/knapen_AOT/AOT_stimuli/pictures/1641_fw.png	367.8587169647217	
245	233.96718096733093	picture	0		110	243.0	/experiments/knapen_AOT/AOT_stimuli/pictures/0316_fw.png	367.8724489212036	0.923598051071167
245	234.87157106399536	response	0	k		243.0	/experiments/knapen_AOT/AOT_stimuli/pictures/0316_fw.png	368.77683901786804	
246	234.8907790184021	picture	0		89	244.0	/experiments/knapen_AOT/AOT_stimuli/pictures/1226_fw.png	368.7960469722748	0.7430369853973389
246	235.62002396583557	response	0	k		244.0	/experiments/knapen_AOT/AOT_stimuli/pictures/1226_fw.png	369.52529191970825	
247	235.63381600379944	picture	0		92	245.0	/experiments/knapen_AOT/AOT_stimuli/pictures/0509_fw.png	369.5390839576721	0.7708959579467773
247	236.39489603042603	response	0	j		245.0	/experiments/knapen_AOT/AOT_stimuli/pictures/0509_fw.png	370.3001639842987	
248	236.40471196174622	picture	0		89	246.0	/experiments/knapen_AOT/AOT_stimuli/pictures/0187_fw.png	370.3099799156189	0.7430140972137451
248	237.13646006584167	response	0	j		246.0	/experiments/knapen_AOT/AOT_stimuli/pictures/0187_fw.png	371.04172801971436	
249	237.14772605895996	picture	0		98	247.0	/experiments/knapen_AOT/AOT_stimuli/pictures/1556_fw.png	371.05299401283264	0.8194589614868164
249	237.9533851146698	response	0	j		247.0	/experiments/knapen_AOT/AOT_stimuli/pictures/1556_fw.png	371.8586530685425	
250	237.96718502044678	picture	0		87	248.0	/experiments/knapen_AOT/AOT_stimuli/pictures/0160_fw.png	371.87245297431946	0.7292220592498779
250	238.67967700958252	response	0	k		248.0	/experiments/knapen_AOT/AOT_stimuli/pictures/0160_fw.png	372.5849449634552	
251	238.69640707969666	picture	0		81	249.0	/experiments/knapen_AOT/AOT_stimuli/pictures/0045_fw.png	372.60167503356934	0.6736068725585938
251	239.36151504516602	response	0	k		249.0	/experiments/knapen_AOT/AOT_stimuli/pictures/0045_fw.png	373.2667829990387	
252	239.37001395225525	picture	0		303	250.0	/experiments/knapen_AOT/AOT_stimuli/pictures/0191_fw.png	373.27528190612793	2.5277581214904785
252	241.8797731399536	response	0	j		250.0	/experiments/knapen_AOT/AOT_stimuli/pictures/0191_fw.png	375.7850410938263	
253	241.89777207374573	picture	0		94	251.0	/experiments/knapen_AOT/AOT_stimuli/pictures/1808_fw.png	375.8030400276184	0.7886300086975098
253	242.6632809638977	response	0	j		251.0	/experiments/knapen_AOT/AOT_stimuli/pictures/1808_fw.png	376.5685489177704	
254	242.68640208244324	picture	0		94	252.0	/experiments/knapen_AOT/AOT_stimuli/pictures/0697_fw.png	376.5916700363159	0.7877719402313232
254	243.45497512817383	response	0	j		252.0	/experiments/knapen_AOT/AOT_stimuli/pictures/0697_fw.png	377.3602430820465	
255	243.47417402267456	picture	0		86	253.0	/experiments/knapen_AOT/AOT_stimuli/pictures/1140_fw.png	377.37944197654724	0.7152841091156006
255	244.1782579421997	response	0	j		253.0	/experiments/knapen_AOT/AOT_stimuli/pictures/1140_fw.png	378.0835258960724	
256	244.18945813179016	picture	0		90	254.0	/experiments/knapen_AOT/AOT_stimuli/pictures/0329_fw.png	378.09472608566284	0.7500119209289551
256	244.92818903923035	response	0	j		254.0	/experiments/knapen_AOT/AOT_stimuli/pictures/0329_fw.png	378.833456993103	
257	244.93947005271912	picture	0		98	255.0	/experiments/knapen_AOT/AOT_stimuli/pictures/1670_fw.png	378.8447380065918	0.8194849491119385
257	245.74511194229126	response	0	j		255.0	/experiments/knapen_AOT/AOT_stimuli/pictures/1670_fw.png	379.65037989616394	
258	245.75895500183105	picture	0		106	256.0	/experiments/knapen_AOT/AOT_stimuli/pictures/0270_fw.png	379.66422295570374	0.8941590785980225
258	246.63660097122192	response	0	k		256.0	/experiments/knapen_AOT/AOT_stimuli/pictures/0270_fw.png	380.5418689250946	
259	246.65311408042908	picture	0		112	257.0	/experiments/knapen_AOT/AOT_stimuli/pictures/1683_fw.png	380.55838203430176	0.9391908645629883
259	247.57847094535828	response	0	j		257.0	/experiments/knapen_AOT/AOT_stimuli/pictures/1683_fw.png	381.48373889923096	
260	247.59230494499207	picture	0		94	258.0	/experiments/knapen_AOT/AOT_stimuli/pictures/0444_fw.png	381.49757289886475	0.7917120456695557
260	248.37013792991638	response	0	k		258.0	/experiments/knapen_AOT/AOT_stimuli/pictures/0444_fw.png	382.27540588378906	
261	248.38401699066162	picture	0		101	259.0	/experiments/knapen_AOT/AOT_stimuli/pictures/2131_fw.png	382.2892849445343	0.8471541404724121
261	249.22010898590088	response	0	k		259.0	/experiments/knapen_AOT/AOT_stimuli/pictures/2131_fw.png	383.12537693977356	
262	249.23117113113403	picture	0		96	260.0	/experiments/knapen_AOT/AOT_stimuli/pictures/0372_fw.png	383.1364390850067	0.7987968921661377
262	250.02013111114502	response	0	j		260.0	/experiments/knapen_AOT/AOT_stimuli/pictures/0372_fw.png	383.9253990650177	
263	250.02996802330017	picture	0		111	261.0	/experiments/knapen_AOT/AOT_stimuli/pictures/0367_fw.png	383.93523597717285	0.9234209060668945
263	250.94505190849304	response	0	j		261.0	/experiments/knapen_AOT/AOT_stimuli/pictures/0367_fw.png	384.8503198623657	
264	250.95338892936707	picture	0		92	262.0	/experiments/knapen_AOT/AOT_stimuli/pictures/1600_fw.png	384.85865688323975	0.7748081684112549
264	251.71173691749573	response	0	k		262.0	/experiments/knapen_AOT/AOT_stimuli/pictures/1600_fw.png	385.6170048713684	
265	251.72819709777832	picture	0		93	263.0	/experiments/knapen_AOT/AOT_stimuli/pictures/1048_fw.png	385.633465051651	0.7808058261871338
265	252.49517393112183	response	0	k		263.0	/experiments/knapen_AOT/AOT_stimuli/pictures/1048_fw.png	386.4004418849945	
266	252.50900292396545	picture	0		89	264.0	/experiments/knapen_AOT/AOT_stimuli/pictures/0274_fw.png	386.41427087783813	0.7499861717224121
266	253.24522805213928	response	0	k		264.0	/experiments/knapen_AOT/AOT_stimuli/pictures/0274_fw.png	387.15049600601196	
267	253.25898909568787	picture	0		93	265.0	/experiments/knapen_AOT/AOT_stimuli/pictures/0809_fw.png	387.16425704956055	0.7777879238128662
267	254.0283739566803	response	0	k		265.0	/experiments/knapen_AOT/AOT_stimuli/pictures/0809_fw.png	387.933641910553	
268	254.03677701950073	picture	0		300	266.0	/experiments/knapen_AOT/AOT_stimuli/pictures/0047_fw.png	387.9420449733734	2.4999659061431885
268	256.5284059047699	response	0	j		266.0	/experiments/knapen_AOT/AOT_stimuli/pictures/0047_fw.png	390.4336738586426	
269	256.5367429256439	picture	0		109	267.0	/experiments/knapen_AOT/AOT_stimuli/pictures/0890_fw.png	390.4420108795166	0.909771203994751
269	257.43671703338623	response	0	k		267.0	/experiments/knapen_AOT/AOT_stimuli/pictures/0890_fw.png	391.3419849872589	
270	257.4465141296387	picture	0		118	268.0	/experiments/knapen_AOT/AOT_stimuli/pictures/0807_fw.png	391.35178208351135	0.9861428737640381
270	258.420166015625	response	0	k		268.0	/experiments/knapen_AOT/AOT_stimuli/pictures/0807_fw.png	392.3254339694977	
271	258.4326570034027	picture	0		83	269.0	/experiments/knapen_AOT/AOT_stimuli/pictures/1758_fw.png	392.3379249572754	0.7222030162811279
271	259.14505410194397	response	0	k		269.0	/experiments/knapen_AOT/AOT_stimuli/pictures/1758_fw.png	393.05032205581665	
272	259.15486001968384	picture	0		381	270.0	/experiments/knapen_AOT/AOT_stimuli/pictures/1182_fw.png	393.0601279735565	3.1735970973968506
272	262.3202929496765	response	0	k		270.0	/experiments/knapen_AOT/AOT_stimuli/pictures/1182_fw.png	396.2255609035492	
273	262.3284571170807	picture	0		94	271.0	/experiments/knapen_AOT/AOT_stimuli/pictures/0158_fw.png	396.23372507095337	0.7848517894744873
273	263.10346007347107	response	0	j		271.0	/experiments/knapen_AOT/AOT_stimuli/pictures/0158_fw.png	397.00872802734375	
274	263.1133089065552	picture	0		97	272.0	/experiments/knapen_AOT/AOT_stimuli/pictures/0603_fw.png	397.01857686042786	0.8124191761016846
274	263.91191601753235	response	0	k		272.0	/experiments/knapen_AOT/AOT_stimuli/pictures/0603_fw.png	397.81718397140503	
275	263.92572808265686	picture	0		94	273.0	/experiments/knapen_AOT/AOT_stimuli/pictures/1965_fw.png	397.83099603652954	0.7916829586029053
275	264.70359206199646	response	0	k		273.0	/experiments/knapen_AOT/AOT_stimuli/pictures/1965_fw.png	398.60886001586914	
276	264.71741104125977	picture	0		96	274.0	/experiments/knapen_AOT/AOT_stimuli/pictures/1349_fw.png	398.62267899513245	0.8109660148620605
276	265.5118100643158	response	0	k		274.0	/experiments/knapen_AOT/AOT_stimuli/pictures/1349_fw.png	399.4170780181885	
277	265.5283770561218	picture	0		116	275.0	/experiments/knapen_AOT/AOT_stimuli/pictures/0044_fw.png	399.4336450099945	0.9668128490447998
277	266.4869029521942	response	0	k		275.0	/experiments/knapen_AOT/AOT_stimuli/pictures/0044_fw.png	400.3921709060669	
278	266.4951899051666	picture	0		156	276.0	/experiments/knapen_AOT/AOT_stimuli/pictures/1441_fw.png	400.4004578590393	1.3055830001831055
278	267.7869930267334	response	0	k		276.0	/experiments/knapen_AOT/AOT_stimuli/pictures/1441_fw.png	401.6922609806061	
279	267.80077290534973	picture	0		121	277.0	/experiments/knapen_AOT/AOT_stimuli/pictures/1575_fw.png	401.7060408592224	1.0138871669769287
279	268.8035569190979	response	0	k		277.0	/experiments/knapen_AOT/AOT_stimuli/pictures/1575_fw.png	402.7088248729706	
280	268.81466007232666	picture	0		95	278.0	/experiments/knapen_AOT/AOT_stimuli/pictures/1841_fw.png	402.71992802619934	0.7971789836883545
280	269.5953640937805	response	0	j		278.0	/experiments/knapen_AOT/AOT_stimuli/pictures/1841_fw.png	403.5006320476532	
281	269.611839056015	picture	0		88	279.0	/experiments/knapen_AOT/AOT_stimuli/pictures/0978_fw.png	403.5171070098877	0.7375719547271729
281	270.3369951248169	response	0	j		279.0	/experiments/knapen_AOT/AOT_stimuli/pictures/0978_fw.png	404.2422630786896	
282	270.3494110107422	picture	0		99	280.0	/experiments/knapen_AOT/AOT_stimuli/pictures/1673_fw.png	404.25467896461487	0.8264470100402832
282	271.16201090812683	response	0	k		280.0	/experiments/knapen_AOT/AOT_stimuli/pictures/1673_fw.png	405.0672788619995	
283	271.17585802078247	picture	0		94	281.0	/experiments/knapen_AOT/AOT_stimuli/pictures/1273_fw.png	405.08112597465515	0.7916209697723389
283	271.95364904403687	response	0	j		281.0	/experiments/knapen_AOT/AOT_stimuli/pictures/1273_fw.png	405.85891699790955	
284	271.9674789905548	picture	0		89	282.0	/experiments/knapen_AOT/AOT_stimuli/pictures/1528_fw.png	405.8727469444275	0.7499971389770508
284	272.7036609649658	response	0	j		282.0	/experiments/knapen_AOT/AOT_stimuli/pictures/1528_fw.png	406.6089289188385	
285	272.71747612953186	picture	0		86	283.0	/experiments/knapen_AOT/AOT_stimuli/pictures/0970_fw.png	406.62274408340454	0.722221851348877
285	273.4286251068115	response	0	j		283.0	/experiments/knapen_AOT/AOT_stimuli/pictures/0970_fw.png	407.3338930606842	
286	273.43969798088074	picture	0		148	284.0	/experiments/knapen_AOT/AOT_stimuli/pictures/0617_fw.png	407.3449659347534	1.2361199855804443
286	274.6551151275635	response	0	j		284.0	/experiments/knapen_AOT/AOT_stimuli/pictures/0617_fw.png	408.56038308143616	
287	274.6758179664612	picture	0		101	285.0	/experiments/knapen_AOT/AOT_stimuli/pictures/0406_fw.png	408.58108592033386	0.8472990989685059
287	275.5120289325714	response	0	k		285.0	/experiments/knapen_AOT/AOT_stimuli/pictures/0406_fw.png	409.4172968864441	
288	275.5231170654297	picture	0		113	286.0	/experiments/knapen_AOT/AOT_stimuli/pictures/1626_fw.png	409.42838501930237	0.9443759918212891
288	276.4470160007477	response	0	k		286.0	/experiments/knapen_AOT/AOT_stimuli/pictures/1626_fw.png	410.35228395462036	
289	276.467493057251	picture	0		143	287.0	/experiments/knapen_AOT/AOT_stimuli/pictures/1151_fw.png	410.37276101112366	1.1945099830627441
289	277.64693903923035	response	0	k		287.0	/experiments/knapen_AOT/AOT_stimuli/pictures/1151_fw.png	411.552206993103	
290	277.6620030403137	picture	0		104	288.0	/experiments/knapen_AOT/AOT_stimuli/pictures/1147_fw.png	411.5672709941864	0.8681719303131104
290	278.52040004730225	response	0	k		288.0	/experiments/knapen_AOT/AOT_stimuli/pictures/1147_fw.png	412.4256680011749	
291	278.53017497062683	picture	0		99	289.0	/experiments/knapen_AOT/AOT_stimuli/pictures/0686_fw.png	412.4354429244995	0.8262419700622559
291	279.3454370498657	response	0	j		289.0	/experiments/knapen_AOT/AOT_stimuli/pictures/0686_fw.png	413.2507050037384	
292	279.3564169406891	picture	0		88	290.0	/experiments/knapen_AOT/AOT_stimuli/pictures/0148_fw.png	413.26168489456177	0.7362082004547119
292	280.0787489414215	response	0	k		290.0	/experiments/knapen_AOT/AOT_stimuli/pictures/0148_fw.png	413.9840168952942	
293	280.0926251411438	picture	0		88	291.0	/experiments/knapen_AOT/AOT_stimuli/pictures/0522_fw.png	413.9978930950165	0.7359898090362549
293	280.82046914100647	response	0	k		291.0	/experiments/knapen_AOT/AOT_stimuli/pictures/0522_fw.png	414.72573709487915	
294	280.82861495018005	picture	0		220	292.0	/experiments/knapen_AOT/AOT_stimuli/pictures/1316_fw.png	414.73388290405273	1.8334009647369385
294	282.64715003967285	response	0	j		292.0	/experiments/knapen_AOT/AOT_stimuli/pictures/1316_fw.png	416.55241799354553	
295	282.662015914917	picture	0		82	293.0	/experiments/knapen_AOT/AOT_stimuli/pictures/1839_fw.png	416.5672838687897	0.6916401386260986
295	283.33716201782227	response	0	j		293.0	/experiments/knapen_AOT/AOT_stimuli/pictures/1839_fw.png	417.24242997169495	
296	283.3536560535431	picture	0		85	294.0	/experiments/knapen_AOT/AOT_stimuli/pictures/0914_fw.png	417.25892400741577	0.7112259864807129
296	284.04708099365234	response	0	k		294.0	/experiments/knapen_AOT/AOT_stimuli/pictures/0914_fw.png	417.952348947525	
297	284.0648820400238	picture	0		128	295.0	/experiments/knapen_AOT/AOT_stimuli/pictures/0841_fw.png	417.9701499938965	1.0693659782409668
297	285.120530128479	response	0	j		295.0	/experiments/knapen_AOT/AOT_stimuli/pictures/0841_fw.png	419.0257980823517	
298	285.13424801826477	picture	0		116	296.0	/experiments/knapen_AOT/AOT_stimuli/pictures/0116_fw.png	419.03951597213745	0.9722158908843994
298	286.09549713134766	response	0	j		296.0	/experiments/knapen_AOT/AOT_stimuli/pictures/0116_fw.png	420.00076508522034	
299	286.10646390914917	picture	0		106	297.0	/experiments/knapen_AOT/AOT_stimuli/pictures/1062_fw.png	420.01173186302185	0.881972074508667
299	286.9788610935211	response	0	k		297.0	/experiments/knapen_AOT/AOT_stimuli/pictures/1062_fw.png	420.8841290473938	
300	286.98843598365784	picture	0		98	298.0	/experiments/knapen_AOT/AOT_stimuli/pictures/2058_fw.png	420.8937039375305	0.8194680213928223
300	287.79561710357666	response	0	j		298.0	/experiments/knapen_AOT/AOT_stimuli/pictures/2058_fw.png	421.70088505744934	
301	287.80790400505066	picture	0		109	299.0	/experiments/knapen_AOT/AOT_stimuli/pictures/0837_fw.png	421.71317195892334	0.9097239971160889
301	288.7039370536804	response	0	j		299.0	/experiments/knapen_AOT/AOT_stimuli/pictures/0837_fw.png	422.6092050075531	
302	288.71762800216675	picture	0		90	300.0	/experiments/knapen_AOT/AOT_stimuli/pictures/1659_fw.png	422.62289595603943	0.7569611072540283
302	289.4621379375458	response	0	j		300.0	/experiments/knapen_AOT/AOT_stimuli/pictures/1659_fw.png	423.36740589141846	
303	289.4745891094208	picture	0		114	301.0	/experiments/knapen_AOT/AOT_stimuli/pictures/0199_fw.png	423.37985706329346	0.9541559219360352
303	290.41224193573	response	0	j		301.0	/experiments/knapen_AOT/AOT_stimuli/pictures/0199_fw.png	424.31750988960266	
304	290.4287450313568	picture	0		86	302.0	/experiments/knapen_AOT/AOT_stimuli/pictures/0574_fw.png	424.3340129852295	0.7194728851318359
304	291.13717699050903	response	0	k		302.0	/experiments/knapen_AOT/AOT_stimuli/pictures/0574_fw.png	425.0424449443817	
305	291.14821791648865	picture	0		85	303.0	/experiments/knapen_AOT/AOT_stimuli/pictures/1545_fw.png	425.0534858703613	0.7083032131195068
305	291.83878111839294	response	0	j		303.0	/experiments/knapen_AOT/AOT_stimuli/pictures/1545_fw.png	425.7440490722656	
306	291.85652112960815	picture	0		96	304.0	/experiments/knapen_AOT/AOT_stimuli/pictures/0373_fw.png	425.76178908348083	0.7986528873443604
306	292.6386630535126	response	0	k		304.0	/experiments/knapen_AOT/AOT_stimuli/pictures/0373_fw.png	426.54393100738525	
307	292.6551740169525	picture	0		106	305.0	/experiments/knapen_AOT/AOT_stimuli/pictures/1037_fw.png	426.5604419708252	0.8902499675750732
307	293.5289809703827	response	0	k		305.0	/experiments/knapen_AOT/AOT_stimuli/pictures/1037_fw.png	427.43424892425537	
308	293.5454239845276	picture	0		146	306.0	/experiments/knapen_AOT/AOT_stimuli/pictures/1892_fw.png	427.45069193840027	1.2209100723266602
308	294.7540099620819	response	0	j		306.0	/experiments/knapen_AOT/AOT_stimuli/pictures/1892_fw.png	428.6592779159546	
309	294.76633405685425	picture	0		106	307.0	/experiments/knapen_AOT/AOT_stimuli/pictures/1966_fw.png	428.67160201072693	0.8819599151611328
309	295.63057708740234	response	0	j		307.0	/experiments/knapen_AOT/AOT_stimuli/pictures/1966_fw.png	429.535845041275	
310	295.6482939720154	picture	0		160	308.0	/experiments/knapen_AOT/AOT_stimuli/pictures/0391_fw.png	429.55356192588806	1.3333289623260498
310	296.97062492370605	response	0	j		308.0	/experiments/knapen_AOT/AOT_stimuli/pictures/0391_fw.png	430.87589287757874	
311	296.98162293434143	picture	0		89	309.0	/experiments/knapen_AOT/AOT_stimuli/pictures/0633_fw.png	430.8868908882141	0.7430851459503174
311	297.7122781276703	response	0	k		309.0	/experiments/knapen_AOT/AOT_stimuli/pictures/0633_fw.png	431.61754608154297	
312	297.72470808029175	picture	0		102	310.0	/experiments/knapen_AOT/AOT_stimuli/pictures/0139_fw.png	431.62997603416443	0.847235918045044
312	298.5622889995575	response	0	k		310.0	/experiments/knapen_AOT/AOT_stimuli/pictures/0139_fw.png	432.4675569534302	
313	298.5719439983368	picture	0		99	311.0	/experiments/knapen_AOT/AOT_stimuli/pictures/0573_fw.png	432.4772119522095	0.8262999057769775
313	299.3872799873352	response	0	j		311.0	/experiments/knapen_AOT/AOT_stimuli/pictures/0573_fw.png	433.2925479412079	
314	299.39824390411377	picture	0		88	312.0	/experiments/knapen_AOT/AOT_stimuli/pictures/0144_fw.png	433.30351185798645	0.7569961547851562
314	300.14561891555786	response	0	j		312.0	/experiments/knapen_AOT/AOT_stimuli/pictures/0144_fw.png	434.05088686943054	
315	300.1552400588989	picture	0		117	313.0	/experiments/knapen_AOT/AOT_stimuli/pictures/1768_fw.png	434.0605080127716	0.9791419506072998
315	301.1206409931183	response	0	k		313.0	/experiments/knapen_AOT/AOT_stimuli/pictures/1768_fw.png	435.02590894699097	
316	301.1343820095062	picture	0		84	314.0	/experiments/knapen_AOT/AOT_stimuli/pictures/0246_fw.png	435.0396499633789	0.7083621025085449
316	301.82236099243164	response	0	k		314.0	/experiments/knapen_AOT/AOT_stimuli/pictures/0246_fw.png	435.7276289463043	
317	301.84274411201477	picture	0		82	315.0	/experiments/knapen_AOT/AOT_stimuli/pictures/0448_fw.png	435.74801206588745	0.6874728202819824
317	302.52071809768677	response	0	j		315.0	/experiments/knapen_AOT/AOT_stimuli/pictures/0448_fw.png	436.42598605155945	
318	302.53021693229675	picture	0		91	316.0	/experiments/knapen_AOT/AOT_stimuli/pictures/1345_fw.png	436.43548488616943	0.7569701671600342
318	303.2790689468384	response	0	k		316.0	/experiments/knapen_AOT/AOT_stimuli/pictures/1345_fw.png	437.18433690071106	
319	303.2871870994568	picture	0		283	317.0	/experiments/knapen_AOT/AOT_stimuli/pictures/0073_fw.png	437.19245505332947	2.361116886138916
319	305.63743805885315	response	0	j		317.0	/experiments/knapen_AOT/AOT_stimuli/pictures/0073_fw.png	439.54270601272583	
320	305.6483039855957	picture	0		100	318.0	/experiments/knapen_AOT/AOT_stimuli/pictures/0510_fw.png	439.5535719394684	0.8333721160888672
320	306.47073006629944	response	0	k		318.0	/experiments/knapen_AOT/AOT_stimuli/pictures/0510_fw.png	440.3759980201721	
321	306.48167610168457	picture	0		103	319.0	/experiments/knapen_AOT/AOT_stimuli/pictures/2013_fw.png	440.38694405555725	0.8610949516296387
321	307.32912492752075	response	0	j		319.0	/experiments/knapen_AOT/AOT_stimuli/pictures/2013_fw.png	441.23439288139343	
322	307.3427710533142	picture	0		143	320.0	/experiments/knapen_AOT/AOT_stimuli/pictures/1208_fw.png	441.2480390071869	1.1944868564605713
322	308.52920508384705	response	0	k		320.0	/experiments/knapen_AOT/AOT_stimuli/pictures/1208_fw.png	442.4344730377197	
323	308.5372579097748	picture	0		106	321.0	/experiments/knapen_AOT/AOT_stimuli/pictures/1377_fw.png	442.44252586364746	0.8888580799102783
323	309.4057869911194	response	0	j		321.0	/experiments/knapen_AOT/AOT_stimuli/pictures/1377_fw.png	443.31105494499207	
324	309.42611598968506	picture	0		129	322.0	/experiments/knapen_AOT/AOT_stimuli/pictures/1558_fw.png	443.33138394355774	1.083348035812378
324	310.49575209617615	response	0	k		322.0	/experiments/knapen_AOT/AOT_stimuli/pictures/1558_fw.png	444.4010200500488	
325	310.50946402549744	picture	0		244	323.0	/experiments/knapen_AOT/AOT_stimuli/pictures/1729_fw.png	444.4147319793701	2.041680097579956
325	312.53745198249817	response	0	k		323.0	/experiments/knapen_AOT/AOT_stimuli/pictures/1729_fw.png	446.44271993637085	
326	312.5511441230774	picture	0		91	324.0	/experiments/knapen_AOT/AOT_stimuli/pictures/1722_fw.png	446.4564120769501	0.7639329433441162
326	313.30428194999695	response	0	j		324.0	/experiments/knapen_AOT/AOT_stimuli/pictures/1722_fw.png	447.20954990386963	
327	313.3150770664215	picture	0		137	325.0	/experiments/knapen_AOT/AOT_stimuli/pictures/0488_fw.png	447.2203450202942	1.1389260292053223
327	314.44593811035156	response	0	k		325.0	/experiments/knapen_AOT/AOT_stimuli/pictures/0488_fw.png	448.35120606422424	
328	314.45400309562683	picture	0		86	326.0	/experiments/knapen_AOT/AOT_stimuli/pictures/0152_fw.png	448.3592710494995	0.72216796875
328	315.16247510910034	response	0	k		326.0	/experiments/knapen_AOT/AOT_stimuli/pictures/0152_fw.png	449.067743062973	
329	315.17617106437683	picture	0		97	327.0	/experiments/knapen_AOT/AOT_stimuli/pictures/0989_fw.png	449.0814390182495	0.8126249313354492
329	315.979208946228	response	0	j		327.0	/experiments/knapen_AOT/AOT_stimuli/pictures/0989_fw.png	449.8844769001007	
330	315.9887959957123	picture	0		124	328.0	/experiments/knapen_AOT/AOT_stimuli/pictures/0202_fw.png	449.89406394958496	1.0346050262451172
330	317.0058720111847	response	0	k		328.0	/experiments/knapen_AOT/AOT_stimuli/pictures/0202_fw.png	450.9111399650574	
331	317.0234010219574	picture	0		239	329.0	/experiments/knapen_AOT/AOT_stimuli/pictures/2104_fw.png	450.9286689758301	1.9930610656738281
331	318.9974880218506	response	0	j		329.0	/experiments/knapen_AOT/AOT_stimuli/pictures/2104_fw.png	452.90275597572327	
332	319.0164620876312	picture	0		99	330.0	/experiments/knapen_AOT/AOT_stimuli/pictures/1007_fw.png	452.9217300415039	0.8264310359954834
332	319.82917308807373	response	0	k		330.0	/experiments/knapen_AOT/AOT_stimuli/pictures/1007_fw.png	453.7344410419464	
333	319.8428931236267	picture	0		140	331.0	/experiments/knapen_AOT/AOT_stimuli/pictures/0167_fw.png	453.7481610774994	1.1735999584197998
333	320.9975371360779	response	0	j		331.0	/experiments/knapen_AOT/AOT_stimuli/pictures/0167_fw.png	454.90280508995056	
334	321.0164930820465	picture	0		101	332.0	/experiments/knapen_AOT/AOT_stimuli/pictures/1234_fw.png	454.9217610359192	0.8459839820861816
334	321.84603810310364	response	0	j		332.0	/experiments/knapen_AOT/AOT_stimuli/pictures/1234_fw.png	455.7513060569763	
335	321.8624770641327	picture	0		115	333.0	/experiments/knapen_AOT/AOT_stimuli/pictures/1471_fw.png	455.76774501800537	0.959709882736206
335	322.80593395233154	response	0	k		333.0	/experiments/knapen_AOT/AOT_stimuli/pictures/1471_fw.png	456.7112019062042	
336	322.8221869468689	picture	0		111	334.0	/experiments/knapen_AOT/AOT_stimuli/pictures/0288_fw.png	456.7274549007416	0.9320220947265625
336	323.73761010169983	response	0	j		334.0	/experiments/knapen_AOT/AOT_stimuli/pictures/0288_fw.png	457.6428780555725	
337	323.75420904159546	picture	0		92	335.0	/experiments/knapen_AOT/AOT_stimuli/pictures/0011_fw.png	457.65947699546814	0.7692470550537109
337	324.51261806488037	response	0	j		335.0	/experiments/knapen_AOT/AOT_stimuli/pictures/0011_fw.png	458.41788601875305	
338	324.52345609664917	picture	0		94	336.0	/experiments/knapen_AOT/AOT_stimuli/pictures/1832_fw.png	458.42872405052185	0.7847719192504883
338	325.2960970401764	response	0	j		336.0	/experiments/knapen_AOT/AOT_stimuli/pictures/1832_fw.png	459.2013649940491	
339	325.30822801589966	picture	0		98	337.0	/experiments/knapen_AOT/AOT_stimuli/pictures/1623_fw.png	459.21349596977234	0.8126130104064941
339	326.1126480102539	response	0	j		337.0	/experiments/knapen_AOT/AOT_stimuli/pictures/1623_fw.png	460.0179159641266	
340	326.12084102630615	picture	0		100	338.0	/experiments/knapen_AOT/AOT_stimuli/pictures/0348_fw.png	460.02610898017883	0.8417050838470459
340	326.9461250305176	response	0	k		338.0	/experiments/knapen_AOT/AOT_stimuli/pictures/0348_fw.png	460.85139298439026	
341	326.9625461101532	picture	0		93	339.0	/experiments/knapen_AOT/AOT_stimuli/pictures/0714_fw.png	460.8678140640259	0.7763888835906982
341	327.729455947876	response	0	k		339.0	/experiments/knapen_AOT/AOT_stimuli/pictures/0714_fw.png	461.63472390174866	
342	327.7389349937439	picture	0		94	340.0	/experiments/knapen_AOT/AOT_stimuli/pictures/0126_fw.png	461.6442029476166	0.7903280258178711
342	328.5127110481262	response	0	k		340.0	/experiments/knapen_AOT/AOT_stimuli/pictures/0126_fw.png	462.4179790019989	
343	328.52926301956177	picture	0		91	341.0	/experiments/knapen_AOT/AOT_stimuli/pictures/1565_fw.png	462.43453097343445	0.7582719326019287
343	329.2794740200043	response	0	k		341.0	/experiments/knapen_AOT/AOT_stimuli/pictures/1565_fw.png	463.18474197387695	
344	329.2875349521637	picture	0		92	342.0	/experiments/knapen_AOT/AOT_stimuli/pictures/0292_fw.png	463.1928029060364	0.7707281112670898
344	330.0460810661316	response	0	j		342.0	/experiments/knapen_AOT/AOT_stimuli/pictures/0292_fw.png	463.9513490200043	
345	330.0582630634308	picture	0		94	343.0	/experiments/knapen_AOT/AOT_stimuli/pictures/1934_fw.png	463.96353101730347	0.7847168445587158
345	330.82935404777527	response	0	j		343.0	/experiments/knapen_AOT/AOT_stimuli/pictures/1934_fw.png	464.73462200164795	
346	330.8429799079895	picture	0		118	344.0	/experiments/knapen_AOT/AOT_stimuli/pictures/1050_fw.png	464.7482478618622	0.9862852096557617
346	331.8210370540619	response	0	k		344.0	/experiments/knapen_AOT/AOT_stimuli/pictures/1050_fw.png	465.72630500793457	
347	331.82926511764526	picture	0		121	345.0	/experiments/knapen_AOT/AOT_stimuli/pictures/1737_fw.png	465.73453307151794	1.0137410163879395
347	332.82937002182007	response	0	j		345.0	/experiments/knapen_AOT/AOT_stimuli/pictures/1737_fw.png	466.73463797569275	
348	332.8430061340332	picture	0		92	346.0	/experiments/knapen_AOT/AOT_stimuli/pictures/0792_fw.png	466.7482740879059	0.7709310054779053
348	333.59773898124695	response	0	j		346.0	/experiments/knapen_AOT/AOT_stimuli/pictures/0792_fw.png	467.50300693511963	
349	333.6139371395111	picture	0		271	347.0	/experiments/knapen_AOT/AOT_stimuli/pictures/1875_fw.png	467.5192050933838	2.265453815460205
349	335.8628189563751	response	0	k		347.0	/experiments/knapen_AOT/AOT_stimuli/pictures/1875_fw.png	469.7680869102478	
350	335.8793909549713	picture	0		145	348.0	/experiments/knapen_AOT/AOT_stimuli/pictures/0155_fw.png	469.784658908844	1.2166450023651123
350	337.07945013046265	response	0	j		348.0	/experiments/knapen_AOT/AOT_stimuli/pictures/0155_fw.png	470.9847180843353	
351	337.0960359573364	picture	0		87	349.0	/experiments/knapen_AOT/AOT_stimuli/pictures/1248_fw.png	471.0013039112091	0.7333090305328369
351	337.8127610683441	response	0	j		349.0	/experiments/knapen_AOT/AOT_stimuli/pictures/1248_fw.png	471.7180290222168	
352	337.82934498786926	picture	0		118	350.0	/experiments/knapen_AOT/AOT_stimuli/pictures/1163_fw.png	471.73461294174194	0.985969066619873
352	338.7978219985962	response	0	k		350.0	/experiments/knapen_AOT/AOT_stimuli/pictures/1163_fw.png	472.7030899524689	
353	338.81531405448914	picture	0		135	351.0	/experiments/knapen_AOT/AOT_stimuli/pictures/0410_fw.png	472.7205820083618	1.1250529289245605
353	339.92962193489075	response	0	k		351.0	/experiments/knapen_AOT/AOT_stimuli/pictures/0410_fw.png	473.8348898887634	
354	339.9403669834137	picture	0		100	352.0	/experiments/knapen_AOT/AOT_stimuli/pictures/0794_fw.png	473.8456349372864	0.8473479747772217
354	340.7628381252289	response	0	j		352.0	/experiments/knapen_AOT/AOT_stimuli/pictures/0794_fw.png	474.66810607910156	
355	340.7877149581909	picture	0		92	353.0	/experiments/knapen_AOT/AOT_stimuli/pictures/1270_fw.png	474.6929829120636	0.775109052658081
355	341.54633712768555	response	0	j		353.0	/experiments/knapen_AOT/AOT_stimuli/pictures/1270_fw.png	475.4516050815582	
356	341.562824010849	picture	0		112	354.0	/experiments/knapen_AOT/AOT_stimuli/pictures/0545_fw.png	475.4680919647217	0.9538750648498535
356	342.50465393066406	response	0	j		354.0	/experiments/knapen_AOT/AOT_stimuli/pictures/0545_fw.png	476.40992188453674	
357	342.51669907569885	picture	0		218	355.0	/experiments/knapen_AOT/AOT_stimuli/pictures/1186_fw.png	476.42196702957153	1.8127100467681885
357	344.3213300704956	response	0	k		355.0	/experiments/knapen_AOT/AOT_stimuli/pictures/1186_fw.png	478.2265980243683	
358	344.32940912246704	picture	0		99	356.0	/experiments/knapen_AOT/AOT_stimuli/pictures/0077_fw.png	478.2346770763397	0.8262228965759277
358	345.1463429927826	response	0	j		356.0	/experiments/knapen_AOT/AOT_stimuli/pictures/0077_fw.png	479.0516109466553	
359	345.15563201904297	picture	0		92	357.0	/experiments/knapen_AOT/AOT_stimuli/pictures/0645_fw.png	479.06089997291565	0.770780086517334
359	345.9128670692444	response	0	j		357.0	/experiments/knapen_AOT/AOT_stimuli/pictures/0645_fw.png	479.81813502311707	
360	345.9264121055603	picture	0		100	358.0	/experiments/knapen_AOT/AOT_stimuli/pictures/1802_fw.png	479.831680059433	0.840324878692627
360	346.7546000480652	response	0	k		358.0	/experiments/knapen_AOT/AOT_stimuli/pictures/1802_fw.png	480.65986800193787	
361	346.76673698425293	picture	0		101	359.0	/experiments/knapen_AOT/AOT_stimuli/pictures/1640_fw.png	480.6720049381256	0.8402500152587891
361	347.59624195098877	response	0	k		359.0	/experiments/knapen_AOT/AOT_stimuli/pictures/1640_fw.png	481.50150990486145	
362	347.6069869995117	stim	0		479			481.5122549533844	4.01078200340271
362	351.5981020927429	response	0	space				485.5033700466156	
