trial_nr	onset	event_type	phase	response	nr_frames	picture_index	picture_file	onset_abs	duration
0	0.16670703887939453	stim	0		510			63.844995975494385	4.270825386047363
0	4.416964292526245	response	0	space				68.09525322914124	
2	4.437532424926758	picture	0		318	0.0	/experiments/Knapen_AOT/AOT_stimuli/pictures/2088_fw.png	68.11582136154175	2.677762746810913
2	7.090406179428101	response	0	k		0.0	/experiments/Knapen_AOT/AOT_stimuli/pictures/2088_fw.png	70.76869511604309	
3	7.115295171737671	picture	0		92	1.0	/experiments/Knapen_AOT/AOT_stimuli/pictures/1645_fw.png	70.79358410835266	0.7737619876861572
3	7.875115633010864	response	0	k		1.0	/experiments/Knapen_AOT/AOT_stimuli/pictures/1645_fw.png	71.55340456962585	
4	7.889057159423828	picture	0		73	2.0	/experiments/Knapen_AOT/AOT_stimuli/pictures/1417_fw.png	71.56734609603882	0.6191895008087158
4	8.49184536933899	response	0	j		2.0	/experiments/Knapen_AOT/AOT_stimuli/pictures/1417_fw.png	72.17013430595398	
5	8.508246660232544	picture	0		74	3.0	/experiments/Knapen_AOT/AOT_stimuli/pictures/1816_fw.png	72.18653559684753	0.6169025897979736
5	9.116774320602417	response	0	j		3.0	/experiments/Knapen_AOT/AOT_stimuli/pictures/1816_fw.png	72.79506325721741	
6	9.125149250030518	picture	0		62	4.0	/experiments/Knapen_AOT/AOT_stimuli/pictures/1686_fw.png	72.80343818664551	0.524791955947876
6	9.63348913192749	response	0	j		4.0	/experiments/Knapen_AOT/AOT_stimuli/pictures/1686_fw.png	73.31177806854248	
7	9.649941205978394	picture	0		111	5.0	/experiments/Knapen_AOT/AOT_stimuli/pictures/1103_fw.png	73.32823014259338	0.9333813190460205
7	10.567143201828003	response	0	k		5.0	/experiments/Knapen_AOT/AOT_stimuli/pictures/1103_fw.png	74.245432138443	
8	10.583322525024414	picture	0		85	6.0	/experiments/Knapen_AOT/AOT_stimuli/pictures/0027_fw.png	74.2616114616394	0.7084858417510986
8	11.283507347106934	response	0	j		6.0	/experiments/Knapen_AOT/AOT_stimuli/pictures/0027_fw.png	74.96179628372192	
9	11.291808366775513	picture	0		205	7.0	/experiments/Knapen_AOT/AOT_stimuli/pictures/1051_fw.png	74.9700973033905	1.7082464694976807
9	12.991865873336792	response	0	k		7.0	/experiments/Knapen_AOT/AOT_stimuli/pictures/1051_fw.png	76.67015480995178	
10	13.000054836273193	picture	0		156	8.0	/experiments/Knapen_AOT/AOT_stimuli/pictures/1760_fw.png	76.67834377288818	1.3056957721710205
10	14.291885614395142	response	0	j		8.0	/experiments/Knapen_AOT/AOT_stimuli/pictures/1760_fw.png	77.97017455101013	
11	14.305750608444214	picture	0		155	9.0	/experiments/Knapen_AOT/AOT_stimuli/pictures/2104_fw.png	77.9840395450592	1.302624225616455
11	15.591898202896118	response	0	k		9.0	/experiments/Knapen_AOT/AOT_stimuli/pictures/2104_fw.png	79.27018713951111	
12	15.608374834060669	picture	0		79	10.0	/experiments/Knapen_AOT/AOT_stimuli/pictures/0990_fw.png	79.28666377067566	0.6666698455810547
12	16.258562326431274	response	0	j		10.0	/experiments/Knapen_AOT/AOT_stimuli/pictures/0990_fw.png	79.93685126304626	
13	16.275044679641724	picture	0		72	11.0	/experiments/Knapen_AOT/AOT_stimuli/pictures/1954_fw.png	79.95333361625671	0.6001317501068115
13	16.86686062812805	response	0	j		11.0	/experiments/Knapen_AOT/AOT_stimuli/pictures/1954_fw.png	80.54514956474304	
14	16.875176429748535	picture	0		82	12.0	/experiments/Knapen_AOT/AOT_stimuli/pictures/2144_fw.png	80.55346536636353	0.6875452995300293
14	17.550368070602417	response	0	k		12.0	/experiments/Knapen_AOT/AOT_stimuli/pictures/2144_fw.png	81.22865700721741	
15	17.562721729278564	picture	0		99	13.0	/experiments/Knapen_AOT/AOT_stimuli/pictures/0585_fw.png	81.24101066589355	0.8289992809295654
15	18.36893057823181	response	0	k		13.0	/experiments/Knapen_AOT/AOT_stimuli/pictures/0585_fw.png	82.0472195148468	
16	18.39172101020813	picture	0		79	14.0	/experiments/Knapen_AOT/AOT_stimuli/pictures/0862_fw.png	82.07000994682312	0.6640405654907227
16	19.041897535324097	response	0	j		14.0	/experiments/Knapen_AOT/AOT_stimuli/pictures/0862_fw.png	82.72018647193909	
17	19.055761575698853	picture	0		207	15.0	/experiments/Knapen_AOT/AOT_stimuli/pictures/1394_fw.png	82.73405051231384	1.729081392288208
17	20.768918752670288	response	0	k		15.0	/experiments/Knapen_AOT/AOT_stimuli/pictures/1394_fw.png	84.44720768928528	
18	20.78484296798706	picture	0		583	16.0	/experiments/Knapen_AOT/AOT_stimuli/pictures/1021_fw.png	84.46313190460205	4.865329742431641
18	25.63372492790222	response	0	j		16.0	/experiments/Knapen_AOT/AOT_stimuli/pictures/1021_fw.png	89.31201386451721	
19	25.6501727104187	picture	0		202	17.0	/experiments/Knapen_AOT/AOT_stimuli/pictures/1976_fw.png	89.32846164703369	1.6916594505310059
19	27.325400829315186	response	0	k		17.0	/experiments/Knapen_AOT/AOT_stimuli/pictures/1976_fw.png	91.00368976593018	
20	27.341832160949707	picture	0		80	18.0	/experiments/Knapen_AOT/AOT_stimuli/pictures/1849_fw.png	91.0201210975647	0.6723518371582031
20	28.00044345855713	response	0	j		18.0	/experiments/Knapen_AOT/AOT_stimuli/pictures/1849_fw.png	91.67873239517212	
21	28.01418399810791	picture	0		62	19.0	/experiments/Knapen_AOT/AOT_stimuli/pictures/0202_fw.png	91.6924729347229	0.5276849269866943
21	28.52538275718689	response	0	j		19.0	/experiments/Knapen_AOT/AOT_stimuli/pictures/0202_fw.png	92.20367169380188	
22	28.541868925094604	picture	0		78	20.0	/experiments/Knapen_AOT/AOT_stimuli/pictures/1130_fw.png	92.2201578617096	0.6529381275177002
22	29.18369698524475	response	0	j		20.0	/experiments/Knapen_AOT/AOT_stimuli/pictures/1130_fw.png	92.86198592185974	
23	29.194807052612305	picture	0		81	21.0	/experiments/Knapen_AOT/AOT_stimuli/pictures/0916_fw.png	92.8730959892273	0.6735951900482178
23	29.858699560165405	response	0	j		21.0	/experiments/Knapen_AOT/AOT_stimuli/pictures/0916_fw.png	93.5369884967804	
24	29.868402242660522	picture	0		94	22.0	/experiments/Knapen_AOT/AOT_stimuli/pictures/0350_fw.png	93.54669117927551	0.7901127338409424
24	30.642048358917236	response	0	j		22.0	/experiments/Knapen_AOT/AOT_stimuli/pictures/0350_fw.png	94.32033729553223	
25	30.658514976501465	picture	0		84	23.0	/experiments/Knapen_AOT/AOT_stimuli/pictures/1143_fw.png	94.33680391311646	0.7084095478057861
25	31.35080051422119	response	0	k		23.0	/experiments/Knapen_AOT/AOT_stimuli/pictures/1143_fw.png	95.02908945083618	
26	31.36692452430725	picture	0		157	24.0	/experiments/Knapen_AOT/AOT_stimuli/pictures/1060_fw.png	95.04521346092224	1.3139941692352295
26	32.66726517677307	response	0	k		24.0	/experiments/Knapen_AOT/AOT_stimuli/pictures/1060_fw.png	96.34555411338806	
27	32.68091869354248	picture	0		124	25.0	/experiments/Knapen_AOT/AOT_stimuli/pictures/1814_fw.png	96.35920763015747	1.0416114330291748
27	33.708842277526855	response	0	j		25.0	/experiments/Knapen_AOT/AOT_stimuli/pictures/1814_fw.png	97.38713121414185	
28	33.722530126571655	picture	0		75	26.0	/experiments/Knapen_AOT/AOT_stimuli/pictures/0958_fw.png	97.40081906318665	0.6319582462310791
28	34.342055559158325	response	0	j		26.0	/experiments/Knapen_AOT/AOT_stimuli/pictures/0958_fw.png	98.02034449577332	
29	34.354488372802734	picture	0		89	27.0	/experiments/Knapen_AOT/AOT_stimuli/pictures/2110_fw.png	98.03277730941772	0.7457926273345947
29	35.083985805511475	response	0	k		27.0	/experiments/Knapen_AOT/AOT_stimuli/pictures/2110_fw.png	98.76227474212646	
30	35.10028100013733	picture	0		102	28.0	/experiments/Knapen_AOT/AOT_stimuli/pictures/0655_fw.png	98.77856993675232	0.8584275245666504
30	35.942052364349365	response	0	j		28.0	/experiments/Knapen_AOT/AOT_stimuli/pictures/0655_fw.png	99.62034130096436	
31	35.95870852470398	picture	0		252	29.0	/experiments/Knapen_AOT/AOT_stimuli/pictures/0673_fw.png	99.63699746131897	2.108253002166748
31	38.05040907859802	response	0	k		29.0	/experiments/Knapen_AOT/AOT_stimuli/pictures/0673_fw.png	101.72869801521301	
32	38.06696152687073	picture	0		98	30.0	/experiments/Knapen_AOT/AOT_stimuli/pictures/1255_fw.png	101.74525046348572	0.8223025798797607
32	38.875537633895874	response	0	k		30.0	/experiments/Knapen_AOT/AOT_stimuli/pictures/1255_fw.png	102.55382657051086	
33	38.88926410675049	picture	0		74	31.0	/experiments/Knapen_AOT/AOT_stimuli/pictures/0371_fw.png	102.56755304336548	0.6250169277191162
33	39.500590324401855	response	0	j		31.0	/experiments/Knapen_AOT/AOT_stimuli/pictures/0371_fw.png	103.17887926101685	
34	39.514281034469604	picture	0		123	32.0	/experiments/Knapen_AOT/AOT_stimuli/pictures/0276_fw.png	103.1925699710846	1.0278208255767822
34	40.53375840187073	response	0	k		32.0	/experiments/Knapen_AOT/AOT_stimuli/pictures/0276_fw.png	104.21204733848572	
35	40.54210186004639	picture	0		80	33.0	/experiments/Knapen_AOT/AOT_stimuli/pictures/0465_fw.png	104.22039079666138	0.6666743755340576
35	41.200517416000366	response	0	j		33.0	/experiments/Knapen_AOT/AOT_stimuli/pictures/0465_fw.png	104.87880635261536	
36	41.208776235580444	picture	0		70	34.0	/experiments/Knapen_AOT/AOT_stimuli/pictures/2014_fw.png	104.88706517219543	0.5915563106536865
36	41.783867835998535	response	0	j		34.0	/experiments/Knapen_AOT/AOT_stimuli/pictures/2014_fw.png	105.46215677261353	
37	41.80033254623413	picture	0		69	35.0	/experiments/Knapen_AOT/AOT_stimuli/pictures/0235_fw.png	105.47862148284912	0.5833480358123779
37	42.36079788208008	response	0	j		35.0	/experiments/Knapen_AOT/AOT_stimuli/pictures/0235_fw.png	106.03908681869507	
38	42.38368058204651	picture	0		81	36.0	/experiments/Knapen_AOT/AOT_stimuli/pictures/2050_fw.png	106.0619695186615	0.6834192276000977
38	43.0504846572876	response	0	j		36.0	/experiments/Knapen_AOT/AOT_stimuli/pictures/2050_fw.png	106.72877359390259	
39	43.067099809646606	picture	0		153	37.0	/experiments/Knapen_AOT/AOT_stimuli/pictures/2055_fw.png	106.7453887462616	1.2833003997802734
39	44.33394002914429	response	0	j		37.0	/experiments/Knapen_AOT/AOT_stimuli/pictures/2055_fw.png	108.01222896575928	
40	44.35040020942688	picture	0		93	38.0	/experiments/Knapen_AOT/AOT_stimuli/pictures/0136_fw.png	108.02868914604187	0.7832999229431152
40	45.11866593360901	response	0	k		38.0	/experiments/Knapen_AOT/AOT_stimuli/pictures/0136_fw.png	108.796954870224	
41	45.133700132369995	picture	0		74	39.0	/experiments/Knapen_AOT/AOT_stimuli/pictures/1390_fw.png	108.81198906898499	0.6167690753936768
41	45.74216103553772	response	0	j		39.0	/experiments/Knapen_AOT/AOT_stimuli/pictures/1390_fw.png	109.42044997215271	
42	45.75046920776367	picture	0		149	40.0	/experiments/Knapen_AOT/AOT_stimuli/pictures/1574_fw.png	109.42875814437866	1.2500152587890625
42	46.98391103744507	response	0	k		40.0	/experiments/Knapen_AOT/AOT_stimuli/pictures/1574_fw.png	110.66219997406006	
43	47.000484466552734	picture	0		69	41.0	/experiments/Knapen_AOT/AOT_stimuli/pictures/0228_fw.png	110.67877340316772	0.5763633251190186
43	47.567492961883545	response	0	j		41.0	/experiments/Knapen_AOT/AOT_stimuli/pictures/0228_fw.png	111.24578189849854	
44	47.57684779167175	picture	0		115	42.0	/experiments/Knapen_AOT/AOT_stimuli/pictures/1884_fw.png	111.25513672828674	0.9654943943023682
44	48.525678396224976	response	0	k		42.0	/experiments/Knapen_AOT/AOT_stimuli/pictures/1884_fw.png	112.20396733283997	
45	48.54234218597412	picture	0		78	43.0	/experiments/Knapen_AOT/AOT_stimuli/pictures/0755_fw.png	112.22063112258911	0.6525437831878662
45	49.18397569656372	response	0	j		43.0	/experiments/Knapen_AOT/AOT_stimuli/pictures/0755_fw.png	112.86226463317871	
46	49.19488596916199	picture	0		94	44.0	/experiments/Knapen_AOT/AOT_stimuli/pictures/2058_fw.png	112.87317490577698	0.7846989631652832
46	49.95968294143677	response	0	j		44.0	/experiments/Knapen_AOT/AOT_stimuli/pictures/2058_fw.png	113.63797187805176	
47	49.97958493232727	picture	0		91	45.0	/experiments/Knapen_AOT/AOT_stimuli/pictures/0384_fw.png	113.65787386894226	0.7625536918640137
47	50.72563076019287	response	0	j		45.0	/experiments/Knapen_AOT/AOT_stimuli/pictures/0384_fw.png	114.40391969680786	
48	50.742138624191284	picture	0		108	46.0	/experiments/Knapen_AOT/AOT_stimuli/pictures/0163_fw.png	114.42042756080627	0.9041247367858887
48	51.633948802948	response	0	k		46.0	/experiments/Knapen_AOT/AOT_stimuli/pictures/0163_fw.png	115.31223773956299	
49	51.64626336097717	picture	0		7	47.0	/experiments/Knapen_AOT/AOT_stimuli/pictures/1604_fw.png	115.32455229759216	0.0554807186126709
49	51.69231581687927	response	0	j		47.0	/experiments/Knapen_AOT/AOT_stimuli/pictures/1604_fw.png	115.37060475349426	
50	51.701744079589844	picture	0		377	48.0	/experiments/Knapen_AOT/AOT_stimuli/pictures/1357_fw.png	115.38003301620483	3.148773670196533
50	54.834192514419556	response	0	j		48.0	/experiments/Knapen_AOT/AOT_stimuli/pictures/1357_fw.png	118.51248145103455	
51	54.85051774978638	picture	0		122	49.0	/experiments/Knapen_AOT/AOT_stimuli/pictures/1999_fw.png	118.52880668640137	1.025017499923706
51	55.85901927947998	response	0	k		49.0	/experiments/Knapen_AOT/AOT_stimuli/pictures/1999_fw.png	119.53730821609497	
52	55.87553524971008	picture	0		137	50.0	/experiments/Knapen_AOT/AOT_stimuli/pictures/0095_fw.png	119.55382418632507	1.1457509994506836
52	57.009192943573	response	0	k		50.0	/experiments/Knapen_AOT/AOT_stimuli/pictures/0095_fw.png	120.68748188018799	
53	57.02128624916077	picture	0		192	51.0	/experiments/Knapen_AOT/AOT_stimuli/pictures/0641_fw.png	120.69957518577576	1.5971643924713135
53	58.609020709991455	response	0	k		51.0	/experiments/Knapen_AOT/AOT_stimuli/pictures/0641_fw.png	122.28730964660645	
54	58.61845064163208	picture	0		81	52.0	/experiments/Knapen_AOT/AOT_stimuli/pictures/0988_fw.png	122.29673957824707	0.6821112632751465
54	59.284037351608276	response	0	j		52.0	/experiments/Knapen_AOT/AOT_stimuli/pictures/0988_fw.png	122.96232628822327	
55	59.30056190490723	picture	0		105	53.0	/experiments/Knapen_AOT/AOT_stimuli/pictures/0562_fw.png	122.97885084152222	0.8805012702941895
55	60.15981125831604	response	0	k		53.0	/experiments/Knapen_AOT/AOT_stimuli/pictures/0562_fw.png	123.83810019493103	
56	60.181063175201416	picture	0		95	54.0	/experiments/Knapen_AOT/AOT_stimuli/pictures/0906_fw.png	123.8593521118164	0.8028895854949951
56	60.96079730987549	response	0	j		54.0	/experiments/Knapen_AOT/AOT_stimuli/pictures/0906_fw.png	124.63908624649048	
57	60.98395276069641	picture	0		95	55.0	/experiments/Knapen_AOT/AOT_stimuli/pictures/0896_fw.png	124.6622416973114	0.7943663597106934
57	61.76747798919678	response	0	j		55.0	/experiments/Knapen_AOT/AOT_stimuli/pictures/0896_fw.png	125.44576692581177	
58	61.778319120407104	picture	0		111	56.0	/experiments/Knapen_AOT/AOT_stimuli/pictures/1296_fw.png	125.4566080570221	0.9236049652099609
58	62.69244408607483	response	0	j		56.0	/experiments/Knapen_AOT/AOT_stimuli/pictures/1296_fw.png	126.37073302268982	
59	62.701924085617065	picture	0		97	57.0	/experiments/Knapen_AOT/AOT_stimuli/pictures/0761_fw.png	126.38021302223206	0.815363883972168
59	63.5007700920105	response	0	j		57.0	/experiments/Knapen_AOT/AOT_stimuli/pictures/0761_fw.png	127.17905902862549	
60	63.51728796958923	picture	0		104	58.0	/experiments/Knapen_AOT/AOT_stimuli/pictures/1637_fw.png	127.19557690620422	0.8749980926513672
60	64.3759286403656	response	0	k		58.0	/experiments/Knapen_AOT/AOT_stimuli/pictures/1637_fw.png	128.0542175769806	
61	64.3922860622406	picture	0		125	59.0	/experiments/Knapen_AOT/AOT_stimuli/pictures/1449_fw.png	128.0705749988556	1.0500719547271729
61	65.42581748962402	response	0	k		59.0	/experiments/Knapen_AOT/AOT_stimuli/pictures/1449_fw.png	129.104106426239	
62	65.44235801696777	picture	0		87	60.0	/experiments/Knapen_AOT/AOT_stimuli/pictures/0964_fw.png	129.12064695358276	0.7333180904388428
62	66.15933346748352	response	0	k		60.0	/experiments/Knapen_AOT/AOT_stimuli/pictures/0964_fw.png	129.8376224040985	
63	66.17567610740662	picture	0		78	61.0	/experiments/Knapen_AOT/AOT_stimuli/pictures/0115_fw.png	129.8539650440216	0.6513333320617676
63	66.81750726699829	response	0	k		61.0	/experiments/Knapen_AOT/AOT_stimuli/pictures/0115_fw.png	130.49579620361328	
64	66.82700943946838	picture	0		111	62.0	/experiments/Knapen_AOT/AOT_stimuli/pictures/1944_fw.png	130.50529837608337	0.9236397743225098
64	67.74245595932007	response	0	j		62.0	/experiments/Knapen_AOT/AOT_stimuli/pictures/1944_fw.png	131.42074489593506	
65	67.7506492137909	picture	0		115	63.0	/experiments/Knapen_AOT/AOT_stimuli/pictures/0656_fw.png	131.42893815040588	0.9583303928375244
65	68.70086860656738	response	0	k		63.0	/experiments/Knapen_AOT/AOT_stimuli/pictures/0656_fw.png	132.37915754318237	
66	68.70897960662842	picture	0		203	64.0	/experiments/Knapen_AOT/AOT_stimuli/pictures/0859_fw.png	132.3872685432434	1.7000906467437744
66	70.39249587059021	response	0	k		64.0	/experiments/Knapen_AOT/AOT_stimuli/pictures/0859_fw.png	134.0707848072052	
67	70.40907025337219	picture	0		83	65.0	/experiments/Knapen_AOT/AOT_stimuli/pictures/2162_fw.png	134.08735918998718	0.6999650001525879
67	71.0924940109253	response	0	j		65.0	/experiments/Knapen_AOT/AOT_stimuli/pictures/2162_fw.png	134.77078294754028	
68	71.10903525352478	picture	0		89	66.0	/experiments/Knapen_AOT/AOT_stimuli/pictures/1156_fw.png	134.78732419013977	0.7457387447357178
68	71.84255075454712	response	0	j		66.0	/experiments/Knapen_AOT/AOT_stimuli/pictures/1156_fw.png	135.5208396911621	
69	71.8547739982605	picture	0		183	67.0	/experiments/Knapen_AOT/AOT_stimuli/pictures/0131_fw.png	135.5330629348755	1.5209343433380127
69	73.367751121521	response	0	k		67.0	/experiments/Knapen_AOT/AOT_stimuli/pictures/0131_fw.png	137.046040058136	
70	73.37570834159851	picture	0		83	68.0	/experiments/Knapen_AOT/AOT_stimuli/pictures/0790_fw.png	137.0539972782135	0.6943337917327881
70	74.05924940109253	response	0	j		68.0	/experiments/Knapen_AOT/AOT_stimuli/pictures/0790_fw.png	137.73753833770752	
71	74.0700421333313	picture	0		109	69.0	/experiments/Knapen_AOT/AOT_stimuli/pictures/1593_fw.png	137.7483310699463	0.9097912311553955
71	74.96760678291321	response	0	k		69.0	/experiments/Knapen_AOT/AOT_stimuli/pictures/1593_fw.png	138.6458957195282	
72	74.9798333644867	picture	0		127	70.0	/experiments/Knapen_AOT/AOT_stimuli/pictures/1617_fw.png	138.65812230110168	1.0625824928283691
72	76.0259120464325	response	0	k		70.0	/experiments/Knapen_AOT/AOT_stimuli/pictures/1617_fw.png	139.70420098304749	
73	76.04241585731506	picture	0		87	71.0	/experiments/Knapen_AOT/AOT_stimuli/pictures/0910_fw.png	139.72070479393005	0.7290434837341309
73	76.75195240974426	response	0	k		71.0	/experiments/Knapen_AOT/AOT_stimuli/pictures/0910_fw.png	140.43024134635925	
74	76.7714593410492	picture	0		319	72.0	/experiments/Knapen_AOT/AOT_stimuli/pictures/0804_fw.png	140.44974827766418	2.6596808433532715
74	79.41758990287781	response	0	j		72.0	/experiments/Knapen_AOT/AOT_stimuli/pictures/0804_fw.png	143.0958788394928	
75	79.43114018440247	picture	0		80	73.0	/experiments/Knapen_AOT/AOT_stimuli/pictures/0496_fw.png	143.10942912101746	0.6780509948730469
75	80.09267544746399	response	0	j		73.0	/experiments/Knapen_AOT/AOT_stimuli/pictures/0496_fw.png	143.77096438407898	
76	80.10919117927551	picture	0		72	74.0	/experiments/Knapen_AOT/AOT_stimuli/pictures/1217_fw.png	143.7874801158905	0.6083035469055176
76	80.70105791091919	response	0	j		74.0	/experiments/Knapen_AOT/AOT_stimuli/pictures/1217_fw.png	144.37934684753418	
77	80.71749472618103	picture	0		128	75.0	/experiments/Knapen_AOT/AOT_stimuli/pictures/1911_fw.png	144.39578366279602	1.0749986171722412
77	81.77598857879639	response	0	j		75.0	/experiments/Knapen_AOT/AOT_stimuli/pictures/1911_fw.png	145.45427751541138	
78	81.79249334335327	picture	0		81	76.0	/experiments/Knapen_AOT/AOT_stimuli/pictures/1993_fw.png	145.47078227996826	0.6833748817443848
78	82.45949912071228	response	0	j		76.0	/experiments/Knapen_AOT/AOT_stimuli/pictures/1993_fw.png	146.13778805732727	
79	82.47586822509766	picture	0		78	77.0	/experiments/Knapen_AOT/AOT_stimuli/pictures/1176_fw.png	146.15415716171265	0.6499636173248291
79	83.11765623092651	response	0	j		77.0	/experiments/Knapen_AOT/AOT_stimuli/pictures/1176_fw.png	146.7959451675415	
80	83.12583184242249	picture	0		89	78.0	/experiments/Knapen_AOT/AOT_stimuli/pictures/0688_fw.png	146.80412077903748	0.7500219345092773
80	83.85948443412781	response	0	k		78.0	/experiments/Knapen_AOT/AOT_stimuli/pictures/0688_fw.png	147.5377733707428	
81	83.87585377693176	picture	0		102	79.0	/experiments/Knapen_AOT/AOT_stimuli/pictures/1091_fw.png	147.55414271354675	0.8540463447570801
81	84.71769881248474	response	0	j		79.0	/experiments/Knapen_AOT/AOT_stimuli/pictures/1091_fw.png	148.39598774909973	
82	84.72990012168884	picture	0		95	80.0	/experiments/Knapen_AOT/AOT_stimuli/pictures/2108_fw.png	148.40818905830383	0.7916200160980225
82	85.50934386253357	response	0	j		80.0	/experiments/Knapen_AOT/AOT_stimuli/pictures/2108_fw.png	149.18763279914856	
83	85.52152013778687	picture	0		119	81.0	/experiments/Knapen_AOT/AOT_stimuli/pictures/0003_fw.png	149.19980907440186	0.9930589199066162
83	86.50102806091309	response	0	k		81.0	/experiments/Knapen_AOT/AOT_stimuli/pictures/0003_fw.png	150.17931699752808	
84	86.51457905769348	picture	0		103	82.0	/experiments/Knapen_AOT/AOT_stimuli/pictures/0312_fw.png	150.19286799430847	0.8613121509552002
84	87.36775326728821	response	0	k		82.0	/experiments/Knapen_AOT/AOT_stimuli/pictures/0312_fw.png	151.0460422039032	
85	87.37589120864868	picture	0		112	83.0	/experiments/Knapen_AOT/AOT_stimuli/pictures/1559_fw.png	151.05418014526367	0.941718578338623
85	88.30128312110901	response	0	j		83.0	/experiments/Knapen_AOT/AOT_stimuli/pictures/1559_fw.png	151.979572057724	
86	88.3176097869873	picture	0		127	84.0	/experiments/Knapen_AOT/AOT_stimuli/pictures/0178_fw.png	151.9958987236023	1.0650873184204102
86	89.36773157119751	response	0	j		84.0	/experiments/Knapen_AOT/AOT_stimuli/pictures/0178_fw.png	153.0460205078125	
87	89.38269710540771	picture	0		74	85.0	/experiments/Knapen_AOT/AOT_stimuli/pictures/0376_fw.png	153.0609860420227	0.6182284355163574
87	89.99280667304993	response	0	j		85.0	/experiments/Knapen_AOT/AOT_stimuli/pictures/0376_fw.png	153.67109560966492	
88	90.00092554092407	picture	0		82	86.0	/experiments/Knapen_AOT/AOT_stimuli/pictures/1986_fw.png	153.67921447753906	0.6873273849487305
88	90.67614412307739	response	0	j		86.0	/experiments/Knapen_AOT/AOT_stimuli/pictures/1986_fw.png	154.35443305969238	
89	90.6882529258728	picture	0		73	87.0	/experiments/Knapen_AOT/AOT_stimuli/pictures/0435_fw.png	154.3665418624878	0.6043434143066406
89	91.28450107574463	response	0	j		87.0	/experiments/Knapen_AOT/AOT_stimuli/pictures/0435_fw.png	154.96279001235962	
90	91.29259634017944	picture	0		83	88.0	/experiments/Knapen_AOT/AOT_stimuli/pictures/1715_fw.png	154.97088527679443	0.694394588470459
90	91.97615504264832	response	0	j		88.0	/experiments/Knapen_AOT/AOT_stimuli/pictures/1715_fw.png	155.6544439792633	
91	91.9869909286499	picture	0		83	89.0	/experiments/Knapen_AOT/AOT_stimuli/pictures/0942_fw.png	155.6652798652649	0.6973450183868408
91	92.66776609420776	response	0	j		89.0	/experiments/Knapen_AOT/AOT_stimuli/pictures/0942_fw.png	156.34605503082275	
92	92.68433594703674	picture	0		113	90.0	/experiments/Knapen_AOT/AOT_stimuli/pictures/0635_fw.png	156.36262488365173	0.9416196346282959
92	93.61778163909912	response	0	j		90.0	/experiments/Knapen_AOT/AOT_stimuli/pictures/0635_fw.png	157.2960705757141	
93	93.62595558166504	picture	0		101	91.0	/experiments/Knapen_AOT/AOT_stimuli/pictures/0589_fw.png	157.30424451828003	0.8500618934631348
93	94.45946526527405	response	0	j		91.0	/experiments/Knapen_AOT/AOT_stimuli/pictures/0589_fw.png	158.13775420188904	
94	94.47601747512817	picture	0		120	92.0	/experiments/Knapen_AOT/AOT_stimuli/pictures/0141_fw.png	158.15430641174316	1.0083692073822021
94	95.46785640716553	response	0	k		92.0	/experiments/Knapen_AOT/AOT_stimuli/pictures/0141_fw.png	159.14614534378052	
95	95.48438668251038	picture	0		139	93.0	/experiments/Knapen_AOT/AOT_stimuli/pictures/0719_fw.png	159.16267561912537	1.162273645401001
95	96.6344964504242	response	0	j		93.0	/experiments/Knapen_AOT/AOT_stimuli/pictures/0719_fw.png	160.31278538703918	
96	96.64666032791138	picture	0		179	94.0	/experiments/Knapen_AOT/AOT_stimuli/pictures/1797_fw.png	160.32494926452637	1.4929325580596924
96	98.12621068954468	response	0	j		94.0	/experiments/Knapen_AOT/AOT_stimuli/pictures/1797_fw.png	161.80449962615967	
97	98.13959288597107	picture	0		107	95.0	/experiments/Knapen_AOT/AOT_stimuli/pictures/1919_fw.png	161.81788182258606	0.8959336280822754
97	99.02619338035583	response	0	k		95.0	/experiments/Knapen_AOT/AOT_stimuli/pictures/1919_fw.png	162.70448231697083	
98	99.03552651405334	picture	0		263	96.0	/experiments/Knapen_AOT/AOT_stimuli/pictures/0267_fw.png	162.71381545066833	2.1943464279174805
98	101.21788930892944	response	0	j		96.0	/experiments/Knapen_AOT/AOT_stimuli/pictures/0267_fw.png	164.89617824554443	
99	101.22987294197083	picture	0		86	97.0	/experiments/Knapen_AOT/AOT_stimuli/pictures/1290_fw.png	164.90816187858582	0.7212429046630859
99	101.93454766273499	response	0	j		97.0	/experiments/Knapen_AOT/AOT_stimuli/pictures/1290_fw.png	165.61283659934998	
100	101.95111584663391	picture	0		143	98.0	/experiments/Knapen_AOT/AOT_stimuli/pictures/1183_fw.png	165.6294047832489	1.2000799179077148
100	103.13461399078369	response	0	k		98.0	/experiments/Knapen_AOT/AOT_stimuli/pictures/1183_fw.png	166.81290292739868	
101	103.15119576454163	picture	0		112	99.0	/experiments/Knapen_AOT/AOT_stimuli/pictures/1732_fw.png	166.82948470115662	0.9415905475616455
101	104.07626962661743	response	0	k		99.0	/experiments/Knapen_AOT/AOT_stimuli/pictures/1732_fw.png	167.75455856323242	
102	104.09278631210327	picture	0		104	100.0	/experiments/Knapen_AOT/AOT_stimuli/pictures/1280_fw.png	167.77107524871826	0.8750400543212891
102	104.951495885849	response	0	j		100.0	/experiments/Knapen_AOT/AOT_stimuli/pictures/1280_fw.png	168.629784822464	
103	104.96782636642456	picture	0		96	101.0	/experiments/Knapen_AOT/AOT_stimuli/pictures/1691_fw.png	168.64611530303955	0.8083441257476807
103	105.7595784664154	response	0	j		101.0	/experiments/Knapen_AOT/AOT_stimuli/pictures/1691_fw.png	169.4378674030304	
104	105.77617049217224	picture	0		103	102.0	/experiments/Knapen_AOT/AOT_stimuli/pictures/1354_fw.png	169.45445942878723	0.8666503429412842
104	106.62628173828125	response	0	j		102.0	/experiments/Knapen_AOT/AOT_stimuli/pictures/1354_fw.png	170.30457067489624	
105	106.64282083511353	picture	0		69	103.0	/experiments/Knapen_AOT/AOT_stimuli/pictures/1532_fw.png	170.32110977172852	0.5833687782287598
105	107.20964789390564	response	0	j		103.0	/experiments/Knapen_AOT/AOT_stimuli/pictures/1532_fw.png	170.88793683052063	
106	107.22618961334229	picture	0		85	104.0	/experiments/Knapen_AOT/AOT_stimuli/pictures/1539_fw.png	170.90447854995728	0.7166271209716797
106	107.92636322975159	response	0	j		104.0	/experiments/Knapen_AOT/AOT_stimuli/pictures/1539_fw.png	171.60465216636658	
107	107.94281673431396	picture	0		86	105.0	/experiments/Knapen_AOT/AOT_stimuli/pictures/0429_fw.png	171.62110567092896	0.7250361442565918
107	108.6513888835907	response	0	k		105.0	/experiments/Knapen_AOT/AOT_stimuli/pictures/0429_fw.png	172.3296778202057	
108	108.66785287857056	picture	0		132	106.0	/experiments/Knapen_AOT/AOT_stimuli/pictures/1311_fw.png	172.34614181518555	1.1083314418792725
108	109.75964999198914	response	0	k		106.0	/experiments/Knapen_AOT/AOT_stimuli/pictures/1311_fw.png	173.43793892860413	
109	109.77618432044983	picture	0		90	107.0	/experiments/Knapen_AOT/AOT_stimuli/pictures/0920_fw.png	173.45447325706482	0.7583534717559814
109	110.51808905601501	response	0	k		107.0	/experiments/Knapen_AOT/AOT_stimuli/pictures/0920_fw.png	174.19637799263	
110	110.53453779220581	picture	0		107	108.0	/experiments/Knapen_AOT/AOT_stimuli/pictures/1595_fw.png	174.2128267288208	0.8969109058380127
110	111.4180154800415	response	0	j		108.0	/experiments/Knapen_AOT/AOT_stimuli/pictures/1595_fw.png	175.0963044166565	
111	111.43144869804382	picture	0		333	109.0	/experiments/Knapen_AOT/AOT_stimuli/pictures/2042_fw.png	175.1097376346588	2.784677028656006
111	114.20163369178772	response	0	k		109.0	/experiments/Knapen_AOT/AOT_stimuli/pictures/2042_fw.png	177.8799226284027	
112	114.21612572669983	picture	0		159	110.0	/experiments/Knapen_AOT/AOT_stimuli/pictures/1081_fw.png	177.89441466331482	1.3351435661315918
112	115.53476071357727	response	0	j		110.0	/experiments/Knapen_AOT/AOT_stimuli/pictures/1081_fw.png	179.21304965019226	
113	115.55126929283142	picture	0		145	111.0	/experiments/Knapen_AOT/AOT_stimuli/pictures/1776_fw.png	179.2295582294464	1.2135417461395264
113	116.74500918388367	response	0	j		111.0	/experiments/Knapen_AOT/AOT_stimuli/pictures/1776_fw.png	180.42329812049866	
114	116.76481103897095	picture	0		139	112.0	/experiments/Knapen_AOT/AOT_stimuli/pictures/1034_fw.png	180.44309997558594	1.1666886806488037
114	117.91806697845459	response	0	k		112.0	/experiments/Knapen_AOT/AOT_stimuli/pictures/1034_fw.png	181.59635591506958	
115	117.93149971961975	picture	0		105	113.0	/experiments/Knapen_AOT/AOT_stimuli/pictures/1649_fw.png	181.60978865623474	0.886512279510498
115	118.80143404006958	response	0	k		113.0	/experiments/Knapen_AOT/AOT_stimuli/pictures/1649_fw.png	182.47972297668457	
116	118.81801199913025	picture	0		88	114.0	/experiments/Knapen_AOT/AOT_stimuli/pictures/1165_fw.png	182.49630093574524	0.7385222911834717
116	119.54313158988953	response	0	j		114.0	/experiments/Knapen_AOT/AOT_stimuli/pictures/1165_fw.png	183.22142052650452	
117	119.55653429031372	picture	0		129	115.0	/experiments/Knapen_AOT/AOT_stimuli/pictures/1571_fw.png	183.2348232269287	1.0865015983581543
117	120.626455783844	response	0	k		115.0	/experiments/Knapen_AOT/AOT_stimuli/pictures/1571_fw.png	184.30474472045898	
118	120.64303588867188	picture	0		515	116.0	/experiments/Knapen_AOT/AOT_stimuli/pictures/0904_fw.png	184.32132482528687	4.295346260070801
118	124.92676615715027	response	0	j		116.0	/experiments/Knapen_AOT/AOT_stimuli/pictures/0904_fw.png	188.60505509376526	
119	124.93838214874268	picture	0		107	117.0	/experiments/Knapen_AOT/AOT_stimuli/pictures/0241_fw.png	188.61667108535767	0.9046850204467773
119	125.82652878761292	response	0	k		117.0	/experiments/Knapen_AOT/AOT_stimuli/pictures/0241_fw.png	189.5048177242279	
120	125.84306716918945	picture	0		131	118.0	/experiments/Knapen_AOT/AOT_stimuli/pictures/1107_fw.png	189.52135610580444	1.1000702381134033
120	126.92654633522034	response	0	k		118.0	/experiments/Knapen_AOT/AOT_stimuli/pictures/1107_fw.png	190.60483527183533	
121	126.94313740730286	picture	0		109	119.0	/experiments/Knapen_AOT/AOT_stimuli/pictures/1850_fw.png	190.62142634391785	0.9166507720947266
121	127.84338188171387	response	0	j		119.0	/experiments/Knapen_AOT/AOT_stimuli/pictures/1850_fw.png	191.52167081832886	
122	127.85978817939758	picture	0		240	120.0	/experiments/Knapen_AOT/AOT_stimuli/pictures/1552_fw.png	191.53807711601257	2.0083389282226562
122	129.8515739440918	response	0	k		120.0	/experiments/Knapen_AOT/AOT_stimuli/pictures/1552_fw.png	193.5298628807068	
123	129.86812710762024	picture	0		121	121.0	/experiments/Knapen_AOT/AOT_stimuli/pictures/0769_fw.png	193.54641604423523	1.01483154296875
123	130.8682734966278	response	0	k		121.0	/experiments/Knapen_AOT/AOT_stimuli/pictures/0769_fw.png	194.5465624332428	
124	130.882958650589	picture	0		151	122.0	/experiments/Knapen_AOT/AOT_stimuli/pictures/1761_fw.png	194.56124758720398	1.2685370445251465
124	132.13497686386108	response	0	j		122.0	/experiments/Knapen_AOT/AOT_stimuli/pictures/1761_fw.png	195.81326580047607	
125	132.15149569511414	picture	0		114	123.0	/experiments/Knapen_AOT/AOT_stimuli/pictures/1062_fw.png	195.82978463172913	0.9583175182342529
125	133.0935025215149	response	0	k		123.0	/experiments/Knapen_AOT/AOT_stimuli/pictures/1062_fw.png	196.77179145812988	
126	133.1098132133484	picture	0		128	124.0	/experiments/Knapen_AOT/AOT_stimuli/pictures/1113_fw.png	196.78810214996338	1.0717976093292236
126	134.16828322410583	response	0	k		124.0	/experiments/Knapen_AOT/AOT_stimuli/pictures/1113_fw.png	197.84657216072083	
127	134.1816108226776	picture	0		97	125.0	/experiments/Knapen_AOT/AOT_stimuli/pictures/0993_fw.png	197.8598997592926	0.8124942779541016
127	134.9849636554718	response	0	j		125.0	/experiments/Knapen_AOT/AOT_stimuli/pictures/0993_fw.png	198.6632525920868	
128	134.9941051006317	picture	0		103	126.0	/experiments/Knapen_AOT/AOT_stimuli/pictures/0983_fw.png	198.6723940372467	0.8611016273498535
128	135.84334564208984	response	0	k		126.0	/experiments/Knapen_AOT/AOT_stimuli/pictures/0983_fw.png	199.52163457870483	
129	135.85520672798157	picture	0		162	127.0	/experiments/Knapen_AOT/AOT_stimuli/pictures/0250_fw.png	199.53349566459656	1.3471298217773438
129	137.19335341453552	response	0	k		127.0	/experiments/Knapen_AOT/AOT_stimuli/pictures/0250_fw.png	200.8716423511505	
130	137.2023365497589	picture	0		76	128.0	/experiments/Knapen_AOT/AOT_stimuli/pictures/1030_fw.png	200.8806254863739	0.6409122943878174
130	137.82671999931335	response	0	j		128.0	/experiments/Knapen_AOT/AOT_stimuli/pictures/1030_fw.png	201.50500893592834	
131	137.84324884414673	picture	0		200	129.0	/experiments/Knapen_AOT/AOT_stimuli/pictures/0491_fw.png	201.52153778076172	1.6750054359436035
131	139.50168657302856	response	0	k		129.0	/experiments/Knapen_AOT/AOT_stimuli/pictures/0491_fw.png	203.17997550964355	
132	139.51825428009033	picture	0		97	130.0	/experiments/Knapen_AOT/AOT_stimuli/pictures/1054_fw.png	203.19654321670532	0.8166587352752686
132	140.31842231750488	response	0	k		130.0	/experiments/Knapen_AOT/AOT_stimuli/pictures/1054_fw.png	203.99671125411987	
133	140.3349130153656	picture	0		75	131.0	/experiments/Knapen_AOT/AOT_stimuli/pictures/0778_fw.png	204.0132019519806	0.6333599090576172
133	140.95261478424072	response	0	j		131.0	/experiments/Knapen_AOT/AOT_stimuli/pictures/0778_fw.png	204.6309037208557	
134	140.96827292442322	picture	0		85	132.0	/experiments/Knapen_AOT/AOT_stimuli/pictures/1483_fw.png	204.6465618610382	0.7133848667144775
134	141.6684262752533	response	0	j		132.0	/experiments/Knapen_AOT/AOT_stimuli/pictures/1483_fw.png	205.3467152118683	
135	141.6816577911377	picture	0		72	133.0	/experiments/Knapen_AOT/AOT_stimuli/pictures/0328_fw.png	205.35994672775269	0.6116042137145996
135	142.27674961090088	response	0	j		133.0	/experiments/Knapen_AOT/AOT_stimuli/pictures/0328_fw.png	205.95503854751587	
136	142.2932620048523	picture	0		85	134.0	/experiments/Knapen_AOT/AOT_stimuli/pictures/2111_fw.png	205.97155094146729	0.7166953086853027
136	142.99351859092712	response	0	j		134.0	/experiments/Knapen_AOT/AOT_stimuli/pictures/2111_fw.png	206.67180752754211	
137	143.0099573135376	picture	0		66	135.0	/experiments/Knapen_AOT/AOT_stimuli/pictures/1887_fw.png	206.6882462501526	0.5536553859710693
137	143.55176782608032	response	0	j		135.0	/experiments/Knapen_AOT/AOT_stimuli/pictures/1887_fw.png	207.2300567626953	
138	143.56361269950867	picture	0		113	136.0	/experiments/Knapen_AOT/AOT_stimuli/pictures/1468_fw.png	207.24190163612366	0.9463729858398438
138	144.49340319633484	response	0	j		136.0	/experiments/Knapen_AOT/AOT_stimuli/pictures/1468_fw.png	208.17169213294983	
139	144.5099856853485	picture	0		97	137.0	/experiments/Knapen_AOT/AOT_stimuli/pictures/0197_fw.png	208.1882746219635	0.810584306716919
139	145.31010818481445	response	0	k		137.0	/experiments/Knapen_AOT/AOT_stimuli/pictures/0197_fw.png	208.98839712142944	
140	145.32056999206543	picture	0		201	138.0	/experiments/Knapen_AOT/AOT_stimuli/pictures/1939_fw.png	208.99885892868042	1.6811003684997559
140	146.98515605926514	response	0	k		138.0	/experiments/Knapen_AOT/AOT_stimuli/pictures/1939_fw.png	210.66344499588013	
141	147.00167036056519	picture	0		90	139.0	/experiments/Knapen_AOT/AOT_stimuli/pictures/1077_fw.png	210.67995929718018	0.7583451271057129
141	147.7360372543335	response	0	k		139.0	/experiments/Knapen_AOT/AOT_stimuli/pictures/1077_fw.png	211.4143261909485	
142	147.7600154876709	picture	0		92	140.0	/experiments/Knapen_AOT/AOT_stimuli/pictures/1594_fw.png	211.4383044242859	0.7750372886657715
142	148.51866102218628	response	0	j		140.0	/experiments/Knapen_AOT/AOT_stimuli/pictures/1594_fw.png	212.19694995880127	
143	148.53505277633667	picture	0		102	141.0	/experiments/Knapen_AOT/AOT_stimuli/pictures/1737_fw.png	212.21334171295166	0.8550536632537842
143	149.37684774398804	response	0	k		141.0	/experiments/Knapen_AOT/AOT_stimuli/pictures/1737_fw.png	213.05513668060303	
144	149.39010643959045	picture	0		121	142.0	/experiments/Knapen_AOT/AOT_stimuli/pictures/1264_fw.png	213.06839537620544	1.0199449062347412
144	150.3935260772705	response	0	j		142.0	/experiments/Knapen_AOT/AOT_stimuli/pictures/1264_fw.png	214.0718150138855	
145	150.4100513458252	picture	0		106	143.0	/experiments/Knapen_AOT/AOT_stimuli/pictures/1457_fw.png	214.08834028244019	0.889716386795044
145	151.28517866134644	response	0	k		143.0	/experiments/Knapen_AOT/AOT_stimuli/pictures/1457_fw.png	214.96346759796143	
146	151.29976773262024	picture	0		99	144.0	/experiments/Knapen_AOT/AOT_stimuli/pictures/0146_fw.png	214.97805666923523	0.8352982997894287
146	152.11851620674133	response	0	k		144.0	/experiments/Knapen_AOT/AOT_stimuli/pictures/0146_fw.png	215.79680514335632	
147	152.13506603240967	picture	0		82	145.0	/experiments/Knapen_AOT/AOT_stimuli/pictures/1563_fw.png	215.81335496902466	0.824993371963501
147	152.9474139213562	response	0	k		145.0	/experiments/Knapen_AOT/AOT_stimuli/pictures/1563_fw.png	216.6257028579712	
148	152.96005940437317	picture	0		72	146.0	/experiments/Knapen_AOT/AOT_stimuli/pictures/0338_fw.png	216.63834834098816	0.6083407402038574
148	153.55193305015564	response	0	j		146.0	/experiments/Knapen_AOT/AOT_stimuli/pictures/0338_fw.png	217.23022198677063	
149	153.56840014457703	picture	0		175	147.0	/experiments/Knapen_AOT/AOT_stimuli/pictures/1400_fw.png	217.24668908119202	1.4674997329711914
149	155.0186026096344	response	0	k		147.0	/experiments/Knapen_AOT/AOT_stimuli/pictures/1400_fw.png	218.6968915462494	
150	155.03589987754822	picture	0		89	148.0	/experiments/Knapen_AOT/AOT_stimuli/pictures/0337_fw.png	218.7141888141632	0.7431530952453613
150	155.76869368553162	response	0	k		148.0	/experiments/Knapen_AOT/AOT_stimuli/pictures/0337_fw.png	219.4469826221466	
151	155.77905297279358	picture	0		163	149.0	/experiments/Knapen_AOT/AOT_stimuli/pictures/1557_fw.png	219.45734190940857	1.360996961593628
151	157.12696933746338	response	0	k		149.0	/experiments/Knapen_AOT/AOT_stimuli/pictures/1557_fw.png	220.80525827407837	
152	157.1400499343872	picture	0		113	150.0	/experiments/Knapen_AOT/AOT_stimuli/pictures/1177_fw.png	220.8183388710022	0.9534275531768799
152	158.0770342350006	response	0	j		150.0	/experiments/Knapen_AOT/AOT_stimuli/pictures/1177_fw.png	221.7553231716156	
153	158.0934774875641	picture	0		71	151.0	/experiments/Knapen_AOT/AOT_stimuli/pictures/0231_fw.png	221.77176642417908	0.6000173091888428
153	158.677152633667	response	0	j		151.0	/experiments/Knapen_AOT/AOT_stimuli/pictures/0231_fw.png	222.35544157028198	
154	158.69349479675293	picture	0		123	152.0	/experiments/Knapen_AOT/AOT_stimuli/pictures/1676_fw.png	222.37178373336792	1.029970407485962
154	159.7103328704834	response	0	k		152.0	/experiments/Knapen_AOT/AOT_stimuli/pictures/1676_fw.png	223.3886218070984	
155	159.7234652042389	picture	0		100	153.0	/experiments/Knapen_AOT/AOT_stimuli/pictures/0776_fw.png	223.40175414085388	0.8402550220489502
155	160.55204963684082	response	0	k		153.0	/experiments/Knapen_AOT/AOT_stimuli/pictures/0776_fw.png	224.2303385734558	
156	160.56372022628784	picture	0		259	154.0	/experiments/Knapen_AOT/AOT_stimuli/pictures/1466_fw.png	224.24200916290283	2.1596553325653076
156	162.71037554740906	response	0	k		154.0	/experiments/Knapen_AOT/AOT_stimuli/pictures/1466_fw.png	226.38866448402405	
157	162.72337555885315	picture	0		96	155.0	/experiments/Knapen_AOT/AOT_stimuli/pictures/1445_fw.png	226.40166449546814	0.8057339191436768
157	163.51870155334473	response	0	k		155.0	/experiments/Knapen_AOT/AOT_stimuli/pictures/1445_fw.png	227.19699048995972	
158	163.52910947799683	picture	0		94	156.0	/experiments/Knapen_AOT/AOT_stimuli/pictures/0787_fw.png	227.20739841461182	0.7846801280975342
158	164.30205941200256	response	0	k		156.0	/experiments/Knapen_AOT/AOT_stimuli/pictures/0787_fw.png	227.98034834861755	
159	164.31378960609436	picture	0		173	157.0	/experiments/Knapen_AOT/AOT_stimuli/pictures/1105_fw.png	227.99207854270935	1.4443581104278564
159	165.73624682426453	response	0	k		157.0	/experiments/Knapen_AOT/AOT_stimuli/pictures/1105_fw.png	229.41453576087952	
160	165.75814771652222	picture	0		92	158.0	/experiments/Knapen_AOT/AOT_stimuli/pictures/0882_fw.png	229.4364366531372	0.7779009342193604
160	166.51876640319824	response	0	k		158.0	/experiments/Knapen_AOT/AOT_stimuli/pictures/0882_fw.png	230.19705533981323	
161	166.53604865074158	picture	0		96	159.0	/experiments/Knapen_AOT/AOT_stimuli/pictures/0120_fw.png	230.21433758735657	0.805504322052002
161	167.3198525905609	response	0	k		159.0	/experiments/Knapen_AOT/AOT_stimuli/pictures/0120_fw.png	230.9981415271759	
162	167.34155297279358	picture	0		81	160.0	/experiments/Knapen_AOT/AOT_stimuli/pictures/0198_fw.png	231.01984190940857	0.6854071617126465
162	168.01048612594604	response	0	j		160.0	/experiments/Knapen_AOT/AOT_stimuli/pictures/0198_fw.png	231.68877506256104	
163	168.02696013450623	picture	0		164	161.0	/experiments/Knapen_AOT/AOT_stimuli/pictures/1007_fw.png	231.70524907112122	1.3700792789459229
163	169.3854796886444	response	0	k		161.0	/experiments/Knapen_AOT/AOT_stimuli/pictures/1007_fw.png	233.0637686252594	
164	169.39703941345215	picture	0		77	162.0	/experiments/Knapen_AOT/AOT_stimuli/pictures/0914_fw.png	233.07532835006714	0.6465616226196289
164	170.02713298797607	response	0	j		162.0	/experiments/Knapen_AOT/AOT_stimuli/pictures/0914_fw.png	233.70542192459106	
165	170.04360103607178	picture	0		115	163.0	/experiments/Knapen_AOT/AOT_stimuli/pictures/1575_fw.png	233.72188997268677	0.9646856784820557
165	170.99383091926575	response	0	j		163.0	/experiments/Knapen_AOT/AOT_stimuli/pictures/1575_fw.png	234.67211985588074	
166	171.00828671455383	picture	0		89	164.0	/experiments/Knapen_AOT/AOT_stimuli/pictures/1966_fw.png	234.68657565116882	0.752021312713623
166	171.7443494796753	response	0	j		164.0	/experiments/Knapen_AOT/AOT_stimuli/pictures/1966_fw.png	235.42263841629028	
167	171.76030802726746	picture	0		105	165.0	/experiments/Knapen_AOT/AOT_stimuli/pictures/2160_fw.png	235.43859696388245	0.879948616027832
167	172.62716341018677	response	0	k		165.0	/experiments/Knapen_AOT/AOT_stimuli/pictures/2160_fw.png	236.30545234680176	
168	172.6402566432953	picture	0		100	166.0	/experiments/Knapen_AOT/AOT_stimuli/pictures/1535_fw.png	236.31854557991028	0.8402419090270996
168	173.4688320159912	response	0	k		166.0	/experiments/Knapen_AOT/AOT_stimuli/pictures/1535_fw.png	237.1471209526062	
169	173.4804985523224	picture	0		82	167.0	/experiments/Knapen_AOT/AOT_stimuli/pictures/1829_fw.png	237.15878748893738	0.6805567741394043
169	174.1521394252777	response	0	j		167.0	/experiments/Knapen_AOT/AOT_stimuli/pictures/1829_fw.png	237.8304283618927	
170	174.1610553264618	picture	0		98	168.0	/experiments/Knapen_AOT/AOT_stimuli/pictures/1926_fw.png	237.83934426307678	0.8194994926452637
170	174.96881794929504	response	0	j		168.0	/experiments/Knapen_AOT/AOT_stimuli/pictures/1926_fw.png	238.64710688591003	
171	174.98055481910706	picture	0		107	169.0	/experiments/Knapen_AOT/AOT_stimuli/pictures/0326_fw.png	238.65884375572205	0.8964738845825195
171	175.86054253578186	response	0	k		169.0	/experiments/Knapen_AOT/AOT_stimuli/pictures/0326_fw.png	239.53883147239685	
172	175.87702870368958	picture	0		82	170.0	/experiments/Knapen_AOT/AOT_stimuli/pictures/0691_fw.png	239.55531764030457	0.691718339920044
172	176.55218625068665	response	0	j		170.0	/experiments/Knapen_AOT/AOT_stimuli/pictures/0691_fw.png	240.23047518730164	
173	176.56874704360962	picture	0		118	171.0	/experiments/Knapen_AOT/AOT_stimuli/pictures/0201_fw.png	240.2470359802246	0.9916360378265381
173	177.54383969306946	response	0	k		171.0	/experiments/Knapen_AOT/AOT_stimuli/pictures/0201_fw.png	241.22212862968445	
174	177.56038308143616	picture	0		176	172.0	/experiments/Knapen_AOT/AOT_stimuli/pictures/1603_fw.png	241.23867201805115	1.4750537872314453
174	179.01889729499817	response	0	k		172.0	/experiments/Knapen_AOT/AOT_stimuli/pictures/1603_fw.png	242.69718623161316	
175	179.0354368686676	picture	0		113	173.0	/experiments/Knapen_AOT/AOT_stimuli/pictures/1358_fw.png	242.7137258052826	0.9500679969787598
175	179.96890687942505	response	0	k		173.0	/experiments/Knapen_AOT/AOT_stimuli/pictures/1358_fw.png	243.64719581604004	
176	179.98550486564636	picture	0		71	174.0	/experiments/Knapen_AOT/AOT_stimuli/pictures/1507_fw.png	243.66379380226135	0.5999045372009277
176	180.56889700889587	response	0	j		174.0	/experiments/Knapen_AOT/AOT_stimuli/pictures/1507_fw.png	244.24718594551086	
177	180.5854094028473	picture	0		73	175.0	/experiments/Knapen_AOT/AOT_stimuli/pictures/0104_fw.png	244.26369833946228	0.6167120933532715
177	181.18563151359558	response	0	j		175.0	/experiments/Knapen_AOT/AOT_stimuli/pictures/0104_fw.png	244.86392045021057	
178	181.20212149620056	picture	0		107	176.0	/experiments/Knapen_AOT/AOT_stimuli/pictures/1720_fw.png	244.88041043281555	0.9000022411346436
178	182.08557891845703	response	0	k		176.0	/experiments/Knapen_AOT/AOT_stimuli/pictures/1720_fw.png	245.76386785507202	
179	182.1021237373352	picture	0		70	177.0	/experiments/Knapen_AOT/AOT_stimuli/pictures/1668_fw.png	245.7804126739502	0.59171462059021
179	182.6772654056549	response	0	j		177.0	/experiments/Knapen_AOT/AOT_stimuli/pictures/1668_fw.png	246.3555543422699	
180	182.69383835792542	picture	0		68	178.0	/experiments/Knapen_AOT/AOT_stimuli/pictures/1964_fw.png	246.3721272945404	0.5750117301940918
180	183.25226759910583	response	0	j		178.0	/experiments/Knapen_AOT/AOT_stimuli/pictures/1964_fw.png	246.93055653572083	
181	183.2688500881195	picture	0		152	179.0	/experiments/Knapen_AOT/AOT_stimuli/pictures/0748_fw.png	246.9471390247345	1.267242431640625
181	184.5272674560547	response	0	k		179.0	/experiments/Knapen_AOT/AOT_stimuli/pictures/0748_fw.png	248.20555639266968	
182	184.53609251976013	picture	0		103	180.0	/experiments/Knapen_AOT/AOT_stimuli/pictures/1346_fw.png	248.21438145637512	0.8611352443695068
182	185.3856656551361	response	0	j		180.0	/experiments/Knapen_AOT/AOT_stimuli/pictures/1346_fw.png	249.0639545917511	
183	185.39722776412964	picture	0		127	181.0	/experiments/Knapen_AOT/AOT_stimuli/pictures/1671_fw.png	249.07551670074463	1.0632734298706055
183	186.44392895698547	response	0	k		181.0	/experiments/Knapen_AOT/AOT_stimuli/pictures/1671_fw.png	250.12221789360046	
184	186.46050119400024	picture	0		127	182.0	/experiments/Knapen_AOT/AOT_stimuli/pictures/0106_fw.png	250.13879013061523	1.0666792392730713
184	187.51062297821045	response	0	k		182.0	/experiments/Knapen_AOT/AOT_stimuli/pictures/0106_fw.png	251.18891191482544	
185	187.52718043327332	picture	0		78	183.0	/experiments/Knapen_AOT/AOT_stimuli/pictures/1195_fw.png	251.2054693698883	0.6548631191253662
185	188.16896629333496	response	0	j		183.0	/experiments/Knapen_AOT/AOT_stimuli/pictures/1195_fw.png	251.84725522994995	
186	188.18204355239868	picture	0		142	184.0	/experiments/Knapen_AOT/AOT_stimuli/pictures/0597_fw.png	251.86033248901367	1.1951613426208496
186	189.3607521057129	response	0	j		184.0	/experiments/Knapen_AOT/AOT_stimuli/pictures/0597_fw.png	253.03904104232788	
187	189.37720489501953	picture	0		101	185.0	/experiments/Knapen_AOT/AOT_stimuli/pictures/0632_fw.png	253.05549383163452	0.8500339984893799
187	190.21064853668213	response	0	j		185.0	/experiments/Knapen_AOT/AOT_stimuli/pictures/0632_fw.png	253.88893747329712	
188	190.2272388935089	picture	0		119	186.0	/experiments/Knapen_AOT/AOT_stimuli/pictures/0026_fw.png	253.9055278301239	1.000025749206543
188	191.21076941490173	response	0	j		186.0	/experiments/Knapen_AOT/AOT_stimuli/pictures/0026_fw.png	254.88905835151672	
189	191.22726464271545	picture	0		129	187.0	/experiments/Knapen_AOT/AOT_stimuli/pictures/1050_fw.png	254.90555357933044	1.0833055973052979
189	192.2941493988037	response	0	j		187.0	/experiments/Knapen_AOT/AOT_stimuli/pictures/1050_fw.png	255.9724383354187	
190	192.31057024002075	picture	0		108	188.0	/experiments/Knapen_AOT/AOT_stimuli/pictures/0930_fw.png	255.98885917663574	0.9083459377288818
190	193.2025773525238	response	0	k		188.0	/experiments/Knapen_AOT/AOT_stimuli/pictures/0930_fw.png	256.8808662891388	
191	193.21891617774963	picture	0		110	189.0	/experiments/Knapen_AOT/AOT_stimuli/pictures/1391_fw.png	256.8972051143646	0.9214696884155273
191	194.11977624893188	response	0	k		189.0	/experiments/Knapen_AOT/AOT_stimuli/pictures/1391_fw.png	257.7980651855469	
192	194.14038586616516	picture	0		200	190.0	/experiments/Knapen_AOT/AOT_stimuli/pictures/2150_fw.png	257.81867480278015	1.6703300476074219
192	195.79406213760376	response	0	j		190.0	/experiments/Knapen_AOT/AOT_stimuli/pictures/2150_fw.png	259.47235107421875	
193	195.81071591377258	picture	0		78	191.0	/experiments/Knapen_AOT/AOT_stimuli/pictures/0533_fw.png	259.4890048503876	0.6561801433563232
193	196.45246696472168	response	0	j		191.0	/experiments/Knapen_AOT/AOT_stimuli/pictures/0533_fw.png	260.13075590133667	
194	196.4668960571289	picture	0		77	192.0	/experiments/Knapen_AOT/AOT_stimuli/pictures/0738_fw.png	260.1451849937439	0.6520769596099854
194	197.1024775505066	response	0	j		192.0	/experiments/Knapen_AOT/AOT_stimuli/pictures/0738_fw.png	260.7807664871216	
195	197.1189730167389	picture	0		87	193.0	/experiments/Knapen_AOT/AOT_stimuli/pictures/1584_fw.png	260.7972619533539	0.7297463417053223
195	197.83575439453125	response	0	j		193.0	/experiments/Knapen_AOT/AOT_stimuli/pictures/1584_fw.png	261.51404333114624	
196	197.8487193584442	picture	0		106	194.0	/experiments/Knapen_AOT/AOT_stimuli/pictures/2064_fw.png	261.5270082950592	0.8952691555023193
196	198.71984791755676	response	0	k		194.0	/experiments/Knapen_AOT/AOT_stimuli/pictures/2064_fw.png	262.39813685417175	
197	198.74398851394653	picture	0		156	195.0	/experiments/Knapen_AOT/AOT_stimuli/pictures/1204_fw.png	262.4222774505615	1.3083596229553223
197	200.0357837677002	response	0	j		195.0	/experiments/Knapen_AOT/AOT_stimuli/pictures/1204_fw.png	263.7140727043152	
198	200.05234813690186	picture	0		104	196.0	/experiments/Knapen_AOT/AOT_stimuli/pictures/1238_fw.png	263.73063707351685	0.872849702835083
198	200.91082906723022	response	0	j		196.0	/experiments/Knapen_AOT/AOT_stimuli/pictures/1238_fw.png	264.5891180038452	
199	200.92519783973694	picture	0		108	197.0	/experiments/Knapen_AOT/AOT_stimuli/pictures/1082_fw.png	264.60348677635193	0.9104931354522705
199	201.81916427612305	response	0	k		197.0	/experiments/Knapen_AOT/AOT_stimuli/pictures/1082_fw.png	265.49745321273804	
200	201.8356909751892	picture	0		331	198.0	/experiments/Knapen_AOT/AOT_stimuli/pictures/0257_fw.png	265.5139799118042	2.7667267322540283
200	204.58585000038147	response	0	j		198.0	/experiments/Knapen_AOT/AOT_stimuli/pictures/0257_fw.png	268.26413893699646	
201	204.60241770744324	picture	0		651	199.0	/experiments/Knapen_AOT/AOT_stimuli/pictures/0056_fw.png	268.2807066440582	5.433453559875488
201	210.01925897598267	response	0	k		199.0	/experiments/Knapen_AOT/AOT_stimuli/pictures/0056_fw.png	273.69754791259766	
202	210.03587126731873	picture	0		432	200.0	/experiments/Knapen_AOT/AOT_stimuli/pictures/0702_fw.png	273.7141602039337	3.6045949459075928
202	213.62762641906738	response	0	j		200.0	/experiments/Knapen_AOT/AOT_stimuli/pictures/0702_fw.png	277.3059153556824	
203	213.64046621322632	picture	0		71	201.0	/experiments/Knapen_AOT/AOT_stimuli/pictures/1511_fw.png	277.3187551498413	0.6037330627441406
203	214.22771883010864	response	0	j		201.0	/experiments/Knapen_AOT/AOT_stimuli/pictures/1511_fw.png	277.90600776672363	
204	214.24419927597046	picture	0		95	202.0	/experiments/Knapen_AOT/AOT_stimuli/pictures/1462_fw.png	277.92248821258545	0.7999751567840576
204	215.02762985229492	response	0	k		202.0	/experiments/Knapen_AOT/AOT_stimuli/pictures/1462_fw.png	278.7059187889099	
205	215.04417443275452	picture	0		123	203.0	/experiments/Knapen_AOT/AOT_stimuli/pictures/1710_fw.png	278.7224633693695	1.0269122123718262
205	216.0610089302063	response	0	k		203.0	/experiments/Knapen_AOT/AOT_stimuli/pictures/1710_fw.png	279.7392978668213	
206	216.07108664512634	picture	0		122	204.0	/experiments/Knapen_AOT/AOT_stimuli/pictures/0851_fw.png	279.74937558174133	1.0231292247772217
206	217.077702999115	response	0	k		204.0	/experiments/Knapen_AOT/AOT_stimuli/pictures/0851_fw.png	280.75599193573	
207	217.09421586990356	picture	0		96	205.0	/experiments/Knapen_AOT/AOT_stimuli/pictures/0631_fw.png	280.77250480651855	0.8083539009094238
207	217.88612055778503	response	0	k		205.0	/experiments/Knapen_AOT/AOT_stimuli/pictures/0631_fw.png	281.5644094944	
208	217.902569770813	picture	0		125	206.0	/experiments/Knapen_AOT/AOT_stimuli/pictures/0041_fw.png	281.580858707428	1.043579339981079
208	218.9362235069275	response	0	k		206.0	/experiments/Knapen_AOT/AOT_stimuli/pictures/0041_fw.png	282.6145124435425	
209	218.94614911079407	picture	0		102	207.0	/experiments/Knapen_AOT/AOT_stimuli/pictures/2122_fw.png	282.62443804740906	0.8564448356628418
209	219.78610944747925	response	0	k		207.0	/experiments/Knapen_AOT/AOT_stimuli/pictures/2122_fw.png	283.46439838409424	
210	219.8025939464569	picture	0		89	208.0	/experiments/Knapen_AOT/AOT_stimuli/pictures/1312_fw.png	283.4808828830719	0.7476890087127686
210	220.53606510162354	response	0	j		208.0	/experiments/Knapen_AOT/AOT_stimuli/pictures/1312_fw.png	284.2143540382385	
211	220.55028295516968	picture	0		117	209.0	/experiments/Knapen_AOT/AOT_stimuli/pictures/2136_fw.png	284.22857189178467	0.9856634140014648
211	221.51214718818665	response	0	k		209.0	/experiments/Knapen_AOT/AOT_stimuli/pictures/2136_fw.png	285.19043612480164	
212	221.53594636917114	picture	0		87	210.0	/experiments/Knapen_AOT/AOT_stimuli/pictures/0664_fw.png	285.21423530578613	0.7296154499053955
212	222.25273752212524	response	0	k		210.0	/experiments/Knapen_AOT/AOT_stimuli/pictures/0664_fw.png	285.93102645874023	
213	222.26556181907654	picture	0		141	211.0	/experiments/Knapen_AOT/AOT_stimuli/pictures/1285_fw.png	285.9438507556915	1.1736557483673096
213	223.4277949333191	response	0	k		211.0	/experiments/Knapen_AOT/AOT_stimuli/pictures/1285_fw.png	287.1060838699341	
214	223.43921756744385	picture	0		76	212.0	/experiments/Knapen_AOT/AOT_stimuli/pictures/0925_fw.png	287.11750650405884	0.6384375095367432
214	224.06116199493408	response	0	j		212.0	/experiments/Knapen_AOT/AOT_stimuli/pictures/0925_fw.png	287.7394509315491	
215	224.0776550769806	picture	0		83	213.0	/experiments/Knapen_AOT/AOT_stimuli/pictures/1446_fw.png	287.7559440135956	0.7000064849853516
215	224.7611780166626	response	0	j		213.0	/experiments/Knapen_AOT/AOT_stimuli/pictures/1446_fw.png	288.4394669532776	
216	224.77766156196594	picture	0		99	214.0	/experiments/Knapen_AOT/AOT_stimuli/pictures/0212_fw.png	288.45595049858093	0.8333468437194824
216	225.59449982643127	response	0	k		214.0	/experiments/Knapen_AOT/AOT_stimuli/pictures/0212_fw.png	289.27278876304626	
217	225.61100840568542	picture	0		105	215.0	/experiments/Knapen_AOT/AOT_stimuli/pictures/0461_fw.png	289.2892973423004	0.8833456039428711
217	226.4779131412506	response	0	k		215.0	/experiments/Knapen_AOT/AOT_stimuli/pictures/0461_fw.png	290.1562020778656	
218	226.4943540096283	picture	0		121	216.0	/experiments/Knapen_AOT/AOT_stimuli/pictures/0359_fw.png	290.1726429462433	1.016686201095581
218	227.49453210830688	response	0	k		216.0	/experiments/Knapen_AOT/AOT_stimuli/pictures/0359_fw.png	291.1728210449219	
219	227.51104021072388	picture	0		111	217.0	/experiments/Knapen_AOT/AOT_stimuli/pictures/0361_fw.png	291.18932914733887	0.9333322048187256
219	228.42784094810486	response	0	k		217.0	/experiments/Knapen_AOT/AOT_stimuli/pictures/0361_fw.png	292.10612988471985	
220	228.4443724155426	picture	0		299	218.0	/experiments/Knapen_AOT/AOT_stimuli/pictures/1895_fw.png	292.1226613521576	2.4947822093963623
220	230.9279146194458	response	0	k		218.0	/experiments/Knapen_AOT/AOT_stimuli/pictures/1895_fw.png	294.6062035560608	
221	230.93915462493896	picture	0		106	219.0	/experiments/Knapen_AOT/AOT_stimuli/pictures/1017_fw.png	294.61744356155396	0.8885848522186279
221	231.81128549575806	response	0	k		219.0	/experiments/Knapen_AOT/AOT_stimuli/pictures/1017_fw.png	295.48957443237305	
222	231.8277394771576	picture	0		151	220.0	/experiments/Knapen_AOT/AOT_stimuli/pictures/0008_fw.png	295.5060284137726	1.2666869163513184
222	233.07833695411682	response	0	k		220.0	/experiments/Knapen_AOT/AOT_stimuli/pictures/0008_fw.png	296.7566258907318	
223	233.0944263935089	picture	0		93	221.0	/experiments/Knapen_AOT/AOT_stimuli/pictures/0396_fw.png	296.7727153301239	0.7833292484283447
223	233.86128306388855	response	0	j		221.0	/experiments/Knapen_AOT/AOT_stimuli/pictures/0396_fw.png	297.53957200050354	
224	233.87775564193726	picture	0		96	222.0	/experiments/Knapen_AOT/AOT_stimuli/pictures/0360_fw.png	297.55604457855225	0.8046088218688965
224	234.66954636573792	response	0	j		222.0	/experiments/Knapen_AOT/AOT_stimuli/pictures/0360_fw.png	298.3478353023529	
225	234.68236446380615	picture	0		113	223.0	/experiments/Knapen_AOT/AOT_stimuli/pictures/1509_fw.png	298.36065340042114	0.9537897109985352
225	235.6195695400238	response	0	k		223.0	/experiments/Knapen_AOT/AOT_stimuli/pictures/1509_fw.png	299.2978584766388	
226	235.6361541748047	picture	0		104	224.0	/experiments/Knapen_AOT/AOT_stimuli/pictures/1047_fw.png	299.3144431114197	0.8725669384002686
226	236.49460196495056	response	0	k		224.0	/experiments/Knapen_AOT/AOT_stimuli/pictures/1047_fw.png	300.17289090156555	
227	236.50872111320496	picture	0		110	225.0	/experiments/Knapen_AOT/AOT_stimuli/pictures/1990_fw.png	300.18701004981995	0.9274299144744873
227	237.41959476470947	response	0	k		225.0	/experiments/Knapen_AOT/AOT_stimuli/pictures/1990_fw.png	301.09788370132446	
228	237.43615102767944	picture	0		84	226.0	/experiments/Knapen_AOT/AOT_stimuli/pictures/1069_fw.png	301.11443996429443	0.7083299160003662
228	238.12054753303528	response	0	j		226.0	/experiments/Knapen_AOT/AOT_stimuli/pictures/1069_fw.png	301.79883646965027	
229	238.1444809436798	picture	0		119	227.0	/experiments/Knapen_AOT/AOT_stimuli/pictures/2167_fw.png	301.8227698802948	0.996222734451294
229	239.1279182434082	response	0	j		227.0	/experiments/Knapen_AOT/AOT_stimuli/pictures/2167_fw.png	302.8062071800232	
230	239.1407036781311	picture	0		95	228.0	/experiments/Knapen_AOT/AOT_stimuli/pictures/1683_fw.png	302.8189926147461	0.7916767597198486
230	239.91205954551697	response	0	k		228.0	/experiments/Knapen_AOT/AOT_stimuli/pictures/1683_fw.png	303.59034848213196	
231	239.93238043785095	picture	0		74	229.0	/experiments/Knapen_AOT/AOT_stimuli/pictures/0989_fw.png	303.61066937446594	0.624997615814209
231	240.5446436405182	response	0	j		229.0	/experiments/Knapen_AOT/AOT_stimuli/pictures/0989_fw.png	304.2229325771332	
232	240.55737805366516	picture	0		131	230.0	/experiments/Knapen_AOT/AOT_stimuli/pictures/2012_fw.png	304.23566699028015	1.095461130142212
232	241.6363844871521	response	0	j		230.0	/experiments/Knapen_AOT/AOT_stimuli/pictures/2012_fw.png	305.3146734237671	
233	241.65283918380737	picture	0		70	231.0	/experiments/Knapen_AOT/AOT_stimuli/pictures/0922_fw.png	305.33112812042236	0.5917067527770996
233	242.22813510894775	response	0	j		231.0	/experiments/Knapen_AOT/AOT_stimuli/pictures/0922_fw.png	305.90642404556274	
234	242.24454593658447	picture	0		77	232.0	/experiments/Knapen_AOT/AOT_stimuli/pictures/1533_fw.png	305.92283487319946	0.6461591720581055
234	242.87802958488464	response	0	j		232.0	/experiments/Knapen_AOT/AOT_stimuli/pictures/1533_fw.png	306.55631852149963	
235	242.89070510864258	picture	0		132	233.0	/experiments/Knapen_AOT/AOT_stimuli/pictures/2023_fw.png	306.56899404525757	1.0972704887390137
235	243.97806119918823	response	0	k		233.0	/experiments/Knapen_AOT/AOT_stimuli/pictures/2023_fw.png	307.6563501358032	
236	243.9879755973816	picture	0		73	234.0	/experiments/Knapen_AOT/AOT_stimuli/pictures/0613_fw.png	307.6662645339966	0.6111230850219727
236	244.58635354042053	response	0	j		234.0	/experiments/Knapen_AOT/AOT_stimuli/pictures/0613_fw.png	308.2646424770355	
237	244.59909868240356	picture	0		97	235.0	/experiments/Knapen_AOT/AOT_stimuli/pictures/1728_fw.png	308.27738761901855	0.8121426105499268
237	245.39475393295288	response	0	k		235.0	/experiments/Knapen_AOT/AOT_stimuli/pictures/1728_fw.png	309.07304286956787	
238	245.4112412929535	picture	0		86	236.0	/experiments/Knapen_AOT/AOT_stimuli/pictures/0081_fw.png	309.0895302295685	0.7250106334686279
238	246.1199028491974	response	0	j		236.0	/experiments/Knapen_AOT/AOT_stimuli/pictures/0081_fw.png	309.7981917858124	
239	246.13625192642212	picture	0		97	237.0	/experiments/Knapen_AOT/AOT_stimuli/pictures/0015_fw.png	309.8145408630371	0.816702127456665
239	246.93650150299072	response	0	j		237.0	/experiments/Knapen_AOT/AOT_stimuli/pictures/0015_fw.png	310.6147904396057	
240	246.95295405387878	picture	0		77	238.0	/experiments/Knapen_AOT/AOT_stimuli/pictures/0552_fw.png	310.6312429904938	0.6500101089477539
240	247.58637857437134	response	0	j		238.0	/experiments/Knapen_AOT/AOT_stimuli/pictures/0552_fw.png	311.2646675109863	
241	247.60296416282654	picture	0		70	239.0	/experiments/Knapen_AOT/AOT_stimuli/pictures/1694_fw.png	311.2812530994415	0.5916335582733154
241	248.17813420295715	response	0	j		239.0	/experiments/Knapen_AOT/AOT_stimuli/pictures/1694_fw.png	311.85642313957214	
242	248.19459772109985	picture	0		100	240.0	/experiments/Knapen_AOT/AOT_stimuli/pictures/1405_fw.png	311.87288665771484	0.8416924476623535
242	249.01974511146545	response	0	j		240.0	/experiments/Knapen_AOT/AOT_stimuli/pictures/1405_fw.png	312.69803404808044	
243	249.0362901687622	picture	0		134	241.0	/experiments/Knapen_AOT/AOT_stimuli/pictures/0332_fw.png	312.7145791053772	1.1250426769256592
243	250.14476871490479	response	0	k		241.0	/experiments/Knapen_AOT/AOT_stimuli/pictures/0332_fw.png	313.8230576515198	
244	250.16133284568787	picture	0		98	242.0	/experiments/Knapen_AOT/AOT_stimuli/pictures/0427_fw.png	313.83962178230286	0.8250513076782227
244	250.96985125541687	response	0	j		242.0	/experiments/Knapen_AOT/AOT_stimuli/pictures/0427_fw.png	314.64814019203186	
245	250.9863841533661	picture	0		99	243.0	/experiments/Knapen_AOT/AOT_stimuli/pictures/0820_fw.png	314.6646730899811	0.8332757949829102
245	251.80318570137024	response	0	k		243.0	/experiments/Knapen_AOT/AOT_stimuli/pictures/0820_fw.png	315.48147463798523	
246	251.819659948349	picture	0		86	244.0	/experiments/Knapen_AOT/AOT_stimuli/pictures/0956_fw.png	315.497948884964	0.7249908447265625
246	252.52818250656128	response	0	j		244.0	/experiments/Knapen_AOT/AOT_stimuli/pictures/0956_fw.png	316.20647144317627	
247	252.54465079307556	picture	0		139	245.0	/experiments/Knapen_AOT/AOT_stimuli/pictures/2035_fw.png	316.22293972969055	1.1667020320892334
247	253.69484496116638	response	0	k		245.0	/experiments/Knapen_AOT/AOT_stimuli/pictures/2035_fw.png	317.3731338977814	
248	253.7113528251648	picture	0		97	246.0	/experiments/Knapen_AOT/AOT_stimuli/pictures/1763_fw.png	317.3896417617798	0.8166589736938477
248	254.5051121711731	response	0	k		246.0	/experiments/Knapen_AOT/AOT_stimuli/pictures/1763_fw.png	318.1834011077881	
249	254.52801179885864	picture	0		89	247.0	/experiments/Knapen_AOT/AOT_stimuli/pictures/1670_fw.png	318.20630073547363	0.7500066757202148
249	255.2615041732788	response	0	j		247.0	/experiments/Knapen_AOT/AOT_stimuli/pictures/1670_fw.png	318.9397931098938	
250	255.27801847457886	picture	0		89	248.0	/experiments/Knapen_AOT/AOT_stimuli/pictures/0708_fw.png	318.95630741119385	0.7447354793548584
250	256.0114994049072	response	0	k		248.0	/experiments/Knapen_AOT/AOT_stimuli/pictures/0708_fw.png	319.6897883415222	
251	256.0227539539337	picture	0		80	249.0	/experiments/Knapen_AOT/AOT_stimuli/pictures/0881_fw.png	319.7010428905487	0.6666855812072754
251	256.67816042900085	response	0	j		249.0	/experiments/Knapen_AOT/AOT_stimuli/pictures/0881_fw.png	320.35644936561584	
252	256.689439535141	picture	0		82	250.0	/experiments/Knapen_AOT/AOT_stimuli/pictures/0199_fw.png	320.367728471756	0.6886274814605713
252	257.36164236068726	response	0	j		250.0	/experiments/Knapen_AOT/AOT_stimuli/pictures/0199_fw.png	321.03993129730225	
253	257.37806701660156	picture	0		91	251.0	/experiments/Knapen_AOT/AOT_stimuli/pictures/0385_fw.png	321.05635595321655	0.7667214870452881
253	258.1282277107239	response	0	k		251.0	/experiments/Knapen_AOT/AOT_stimuli/pictures/0385_fw.png	321.80651664733887	
254	258.14478850364685	picture	0		12	252.0	/experiments/Knapen_AOT/AOT_stimuli/pictures/0554_fw.png	321.82307744026184	0.10828447341918945
254	258.23655676841736	response	0	k		252.0	/experiments/Knapen_AOT/AOT_stimuli/pictures/0554_fw.png	321.91484570503235	
255	258.25307297706604	picture	0		257	253.0	/experiments/Knapen_AOT/AOT_stimuli/pictures/0346_fw.png	321.93136191368103	2.1500911712646484
255	260.38657116889954	response	0	j		253.0	/experiments/Knapen_AOT/AOT_stimuli/pictures/0346_fw.png	324.0648601055145	
256	260.4031641483307	picture	0		65	254.0	/experiments/Knapen_AOT/AOT_stimuli/pictures/0999_fw.png	324.0814530849457	0.5499527454376221
256	260.9366750717163	response	0	j		254.0	/experiments/Knapen_AOT/AOT_stimuli/pictures/0999_fw.png	324.6149640083313	
257	260.9531168937683	picture	0		517	255.0	/experiments/Knapen_AOT/AOT_stimuli/pictures/0981_fw.png	324.6314058303833	4.31671404838562
257	265.2532682418823	response	0	k		255.0	/experiments/Knapen_AOT/AOT_stimuli/pictures/0981_fw.png	328.9315571784973	
258	265.26983094215393	picture	0		117	256.0	/experiments/Knapen_AOT/AOT_stimuli/pictures/0161_fw.png	328.9481198787689	0.9833555221557617
258	266.23666739463806	response	0	k		256.0	/experiments/Knapen_AOT/AOT_stimuli/pictures/0161_fw.png	329.91495633125305	
259	266.2531864643097	picture	0		82	257.0	/experiments/Knapen_AOT/AOT_stimuli/pictures/1768_fw.png	329.9314754009247	0.6916706562042236
259	266.92835211753845	response	0	j		257.0	/experiments/Knapen_AOT/AOT_stimuli/pictures/1768_fw.png	330.60664105415344	
260	266.9448571205139	picture	0		133	258.0	/experiments/Knapen_AOT/AOT_stimuli/pictures/1116_fw.png	330.6231460571289	1.116694450378418
260	268.0449733734131	response	0	k		258.0	/experiments/Knapen_AOT/AOT_stimuli/pictures/1116_fw.png	331.7232623100281	
261	268.06155157089233	picture	0		110	259.0	/experiments/Knapen_AOT/AOT_stimuli/pictures/1823_fw.png	331.7398405075073	0.9249775409698486
261	268.9700014591217	response	0	k		259.0	/experiments/Knapen_AOT/AOT_stimuli/pictures/1823_fw.png	332.6482903957367	
262	268.9865291118622	picture	0		112	260.0	/experiments/Knapen_AOT/AOT_stimuli/pictures/1778_fw.png	332.6648180484772	0.9391422271728516
262	269.9040274620056	response	0	j		260.0	/experiments/Knapen_AOT/AOT_stimuli/pictures/1778_fw.png	333.5823163986206	
263	269.92567133903503	picture	0		107	261.0	/experiments/Knapen_AOT/AOT_stimuli/pictures/1831_fw.png	333.60396027565	0.902559757232666
263	270.81168842315674	response	0	j		261.0	/experiments/Knapen_AOT/AOT_stimuli/pictures/1831_fw.png	334.48997735977173	
264	270.8282310962677	picture	0		89	262.0	/experiments/Knapen_AOT/AOT_stimuli/pictures/0292_fw.png	334.5065200328827	0.7500054836273193
264	271.5617263317108	response	0	k		262.0	/experiments/Knapen_AOT/AOT_stimuli/pictures/0292_fw.png	335.2400152683258	
265	271.578236579895	picture	0		96	263.0	/experiments/Knapen_AOT/AOT_stimuli/pictures/0264_fw.png	335.25652551651	0.8083395957946777
265	272.37080454826355	response	0	k		263.0	/experiments/Knapen_AOT/AOT_stimuli/pictures/0264_fw.png	336.04909348487854	
266	272.3865761756897	picture	0		90	264.0	/experiments/Knapen_AOT/AOT_stimuli/pictures/0442_fw.png	336.0648651123047	0.7543966770172119
266	273.12840151786804	response	0	j		264.0	/experiments/Knapen_AOT/AOT_stimuli/pictures/0442_fw.png	336.80669045448303	
267	273.1409728527069	picture	0		119	265.0	/experiments/Knapen_AOT/AOT_stimuli/pictures/1530_fw.png	336.8192617893219	1.0000009536743164
267	274.1284203529358	response	0	j		265.0	/experiments/Knapen_AOT/AOT_stimuli/pictures/1530_fw.png	337.8067092895508	
268	274.1409738063812	picture	0		106	266.0	/experiments/Knapen_AOT/AOT_stimuli/pictures/0516_fw.png	337.8192627429962	0.8872992992401123
268	275.0117356777191	response	0	k		266.0	/experiments/Knapen_AOT/AOT_stimuli/pictures/0516_fw.png	338.6900246143341	
269	275.02827310562134	picture	0		130	267.0	/experiments/Knapen_AOT/AOT_stimuli/pictures/0013_fw.png	338.7065620422363	1.084972858428955
269	276.09635400772095	response	0	k		267.0	/experiments/Knapen_AOT/AOT_stimuli/pictures/0013_fw.png	339.77464294433594	
270	276.1132459640503	picture	0		306	268.0	/experiments/Knapen_AOT/AOT_stimuli/pictures/0162_fw.png	339.7915349006653	2.5567588806152344
270	278.65346121788025	response	0	k		268.0	/experiments/Knapen_AOT/AOT_stimuli/pictures/0162_fw.png	342.33175015449524	
271	278.6700048446655	picture	0		128	269.0	/experiments/Knapen_AOT/AOT_stimuli/pictures/1854_fw.png	342.3482937812805	1.068242073059082
271	279.7285192012787	response	0	k		269.0	/experiments/Knapen_AOT/AOT_stimuli/pictures/1854_fw.png	343.4068081378937	
272	279.7382469177246	picture	0		93	270.0	/experiments/Knapen_AOT/AOT_stimuli/pictures/1636_fw.png	343.4165358543396	0.7777848243713379
272	280.4959394931793	response	0	k		270.0	/experiments/Knapen_AOT/AOT_stimuli/pictures/1636_fw.png	344.1742284297943	
273	280.51603174209595	picture	0		77	271.0	/experiments/Knapen_AOT/AOT_stimuli/pictures/1935_fw.png	344.19432067871094	0.6456773281097412
273	281.1452205181122	response	0	j		271.0	/experiments/Knapen_AOT/AOT_stimuli/pictures/1935_fw.png	344.8235094547272	
274	281.1617090702057	picture	0		153	272.0	/experiments/Knapen_AOT/AOT_stimuli/pictures/1638_fw.png	344.8399980068207	1.2833476066589355
274	282.42855191230774	response	0	j		272.0	/experiments/Knapen_AOT/AOT_stimuli/pictures/1638_fw.png	346.10684084892273	
275	282.4450566768646	picture	0		108	273.0	/experiments/Knapen_AOT/AOT_stimuli/pictures/0066_fw.png	346.1233456134796	0.9083585739135742
275	283.3368272781372	response	0	j		273.0	/experiments/Knapen_AOT/AOT_stimuli/pictures/0066_fw.png	347.0151162147522	
276	283.3534152507782	picture	0		303	274.0	/experiments/Knapen_AOT/AOT_stimuli/pictures/1987_fw.png	347.0317041873932	2.5334293842315674
276	285.87024879455566	response	0	k		274.0	/experiments/Knapen_AOT/AOT_stimuli/pictures/1987_fw.png	349.54853773117065	
277	285.88684463500977	picture	0		212	275.0	/experiments/Knapen_AOT/AOT_stimuli/pictures/1004_fw.png	349.56513357162476	1.7750070095062256
277	287.64524817466736	response	0	k		275.0	/experiments/Knapen_AOT/AOT_stimuli/pictures/1004_fw.png	351.32353711128235	
278	287.661851644516	picture	0		209	276.0	/experiments/Knapen_AOT/AOT_stimuli/pictures/0281_fw.png	351.340140581131	1.7499916553497314
278	289.3952672481537	response	0	k		276.0	/experiments/Knapen_AOT/AOT_stimuli/pictures/0281_fw.png	353.0735561847687	
279	289.4118432998657	picture	0		114	277.0	/experiments/Knapen_AOT/AOT_stimuli/pictures/0288_fw.png	353.0901322364807	0.9583070278167725
279	290.3536252975464	response	0	j		277.0	/experiments/Knapen_AOT/AOT_stimuli/pictures/0288_fw.png	354.0319142341614	
280	290.3701503276825	picture	0		115	278.0	/experiments/Knapen_AOT/AOT_stimuli/pictures/1029_fw.png	354.0484392642975	0.9666740894317627
280	291.3202865123749	response	0	k		278.0	/experiments/Knapen_AOT/AOT_stimuli/pictures/1029_fw.png	354.99857544898987	
281	291.33682441711426	picture	0		129	279.0	/experiments/Knapen_AOT/AOT_stimuli/pictures/1162_fw.png	355.01511335372925	1.0833628177642822
281	292.4036316871643	response	0	j		279.0	/experiments/Knapen_AOT/AOT_stimuli/pictures/1162_fw.png	356.0819206237793	
282	292.42018723487854	picture	0		88	280.0	/experiments/Knapen_AOT/AOT_stimuli/pictures/1254_fw.png	356.09847617149353	0.7418608665466309
282	293.14532351493835	response	0	k		280.0	/experiments/Knapen_AOT/AOT_stimuli/pictures/1254_fw.png	356.82361245155334	
283	293.16204810142517	picture	0		127	281.0	/experiments/Knapen_AOT/AOT_stimuli/pictures/1472_fw.png	356.84033703804016	1.0623764991760254
283	294.21202182769775	response	0	k		281.0	/experiments/Knapen_AOT/AOT_stimuli/pictures/1472_fw.png	357.89031076431274	
284	294.2244246006012	picture	0		137	282.0	/experiments/Knapen_AOT/AOT_stimuli/pictures/1440_fw.png	357.9027135372162	1.1458966732025146
284	295.3538899421692	response	0	k		282.0	/experiments/Knapen_AOT/AOT_stimuli/pictures/1440_fw.png	359.0321788787842	
285	295.3703212738037	picture	0		87	283.0	/experiments/Knapen_AOT/AOT_stimuli/pictures/1619_fw.png	359.0486102104187	0.7332484722137451
285	296.086998462677	response	0	j		283.0	/experiments/Knapen_AOT/AOT_stimuli/pictures/1619_fw.png	359.765287399292	
286	296.10356974601746	picture	0		91	284.0	/experiments/Knapen_AOT/AOT_stimuli/pictures/0262_fw.png	359.78185868263245	0.7667696475982666
286	296.85379934310913	response	0	j		284.0	/experiments/Knapen_AOT/AOT_stimuli/pictures/0262_fw.png	360.5320882797241	
287	296.8703393936157	picture	0		101	285.0	/experiments/Knapen_AOT/AOT_stimuli/pictures/1766_fw.png	360.5486283302307	0.8499016761779785
287	297.69612407684326	response	0	j		285.0	/experiments/Knapen_AOT/AOT_stimuli/pictures/1766_fw.png	361.37441301345825	
288	297.7202410697937	picture	0		303	286.0	/experiments/Knapen_AOT/AOT_stimuli/pictures/0047_fw.png	361.3985300064087	2.533388376235962
288	300.23707008361816	response	0	k		286.0	/experiments/Knapen_AOT/AOT_stimuli/pictures/0047_fw.png	363.91535902023315	
289	300.25362944602966	picture	0		86	287.0	/experiments/Knapen_AOT/AOT_stimuli/pictures/1622_fw.png	363.93191838264465	0.7249853610992432
289	300.96204447746277	response	0	k		287.0	/experiments/Knapen_AOT/AOT_stimuli/pictures/1622_fw.png	364.64033341407776	
290	300.9786148071289	picture	0		218	288.0	/experiments/Knapen_AOT/AOT_stimuli/pictures/0258_fw.png	364.6569037437439	1.8250253200531006
290	302.787086725235	response	0	k		288.0	/experiments/Knapen_AOT/AOT_stimuli/pictures/0258_fw.png	366.46537566185	
291	302.803640127182	picture	0		112	289.0	/experiments/Knapen_AOT/AOT_stimuli/pictures/1481_fw.png	366.481929063797	0.9417662620544434
291	303.72877621650696	response	0	k		289.0	/experiments/Knapen_AOT/AOT_stimuli/pictures/1481_fw.png	367.40706515312195	
292	303.74540638923645	picture	0		95	290.0	/experiments/Knapen_AOT/AOT_stimuli/pictures/0475_fw.png	367.42369532585144	0.7999353408813477
292	304.5287744998932	response	0	k		290.0	/experiments/Knapen_AOT/AOT_stimuli/pictures/0475_fw.png	368.2070634365082	
293	304.5453417301178	picture	0		142	291.0	/experiments/Knapen_AOT/AOT_stimuli/pictures/1465_fw.png	368.2236306667328	1.1916661262512207
293	305.72051787376404	response	0	j		291.0	/experiments/Knapen_AOT/AOT_stimuli/pictures/1465_fw.png	369.398806810379	
294	305.737007856369	picture	0		106	292.0	/experiments/Knapen_AOT/AOT_stimuli/pictures/1033_fw.png	369.415296792984	0.8917074203491211
294	306.6121382713318	response	0	k		292.0	/experiments/Knapen_AOT/AOT_stimuli/pictures/1033_fw.png	370.2904272079468	
295	306.62871527671814	picture	0		108	293.0	/experiments/Knapen_AOT/AOT_stimuli/pictures/1015_fw.png	370.30700421333313	0.9083981513977051
295	307.520476102829	response	0	k		293.0	/experiments/Knapen_AOT/AOT_stimuli/pictures/1015_fw.png	371.19876503944397	
296	307.53711342811584	picture	0		100	294.0	/experiments/Knapen_AOT/AOT_stimuli/pictures/2089_fw.png	371.21540236473083	0.8415987491607666
296	308.36214876174927	response	0	k		294.0	/experiments/Knapen_AOT/AOT_stimuli/pictures/2089_fw.png	372.04043769836426	
297	308.3787121772766	picture	0		136	295.0	/experiments/Knapen_AOT/AOT_stimuli/pictures/1897_fw.png	372.0570011138916	1.1417503356933594
297	309.4964277744293	response	0	k		295.0	/experiments/Knapen_AOT/AOT_stimuli/pictures/1897_fw.png	373.1747167110443	
298	309.52046251296997	picture	0		95	296.0	/experiments/Knapen_AOT/AOT_stimuli/pictures/0214_fw.png	373.19875144958496	0.7999379634857178
298	310.29626178741455	response	0	j		296.0	/experiments/Knapen_AOT/AOT_stimuli/pictures/0214_fw.png	373.97455072402954	
299	310.3204004764557	picture	0		107	297.0	/experiments/Knapen_AOT/AOT_stimuli/pictures/1064_fw.png	373.9986894130707	0.9000301361083984
299	311.2040410041809	response	0	j		297.0	/experiments/Knapen_AOT/AOT_stimuli/pictures/1064_fw.png	374.8823299407959	
300	311.2204306125641	picture	0		103	298.0	/experiments/Knapen_AOT/AOT_stimuli/pictures/1459_fw.png	374.8987195491791	0.8666708469390869
300	312.07056760787964	response	0	k		298.0	/experiments/Knapen_AOT/AOT_stimuli/pictures/1459_fw.png	375.74885654449463	
301	312.0871014595032	picture	0		95	299.0	/experiments/Knapen_AOT/AOT_stimuli/pictures/0171_fw.png	375.76539039611816	0.8000037670135498
301	312.8706433773041	response	0	k		299.0	/experiments/Knapen_AOT/AOT_stimuli/pictures/0171_fw.png	376.54893231391907	
302	312.8871052265167	picture	0		81	300.0	/experiments/Knapen_AOT/AOT_stimuli/pictures/0824_fw.png	376.5653941631317	0.6833369731903076
302	313.55427384376526	response	0	j		300.0	/experiments/Knapen_AOT/AOT_stimuli/pictures/0824_fw.png	377.23256278038025	
303	313.57044219970703	picture	0		102	301.0	/experiments/Knapen_AOT/AOT_stimuli/pictures/1180_fw.png	377.248731136322	0.8583412170410156
303	314.41230511665344	response	0	j		301.0	/experiments/Knapen_AOT/AOT_stimuli/pictures/1180_fw.png	378.09059405326843	
304	314.42878341674805	picture	0		91	302.0	/experiments/Knapen_AOT/AOT_stimuli/pictures/2020_fw.png	378.10707235336304	0.7666568756103516
304	315.17920541763306	response	0	k		302.0	/experiments/Knapen_AOT/AOT_stimuli/pictures/2020_fw.png	378.85749435424805	
305	315.1954402923584	picture	0		109	303.0	/experiments/Knapen_AOT/AOT_stimuli/pictures/1275_fw.png	378.8737292289734	0.9167473316192627
305	316.08825850486755	response	0	k		303.0	/experiments/Knapen_AOT/AOT_stimuli/pictures/1275_fw.png	379.76654744148254	
306	316.11218762397766	picture	0		83	304.0	/experiments/Knapen_AOT/AOT_stimuli/pictures/2151_fw.png	379.79047656059265	0.7000343799591064
306	316.7955985069275	response	0	k		304.0	/experiments/Knapen_AOT/AOT_stimuli/pictures/2151_fw.png	380.4738874435425	
307	316.81222200393677	picture	0		119	305.0	/experiments/Knapen_AOT/AOT_stimuli/pictures/1869_fw.png	380.49051094055176	1.0000741481781006
307	317.7956237792969	response	0	k		305.0	/experiments/Knapen_AOT/AOT_stimuli/pictures/1869_fw.png	381.47391271591187	
308	317.81229615211487	picture	0		90	306.0	/experiments/Knapen_AOT/AOT_stimuli/pictures/0699_fw.png	381.49058508872986	0.7582123279571533
308	318.5540728569031	response	0	k		306.0	/experiments/Knapen_AOT/AOT_stimuli/pictures/0699_fw.png	382.23236179351807	
309	318.570508480072	picture	0		148	307.0	/experiments/Knapen_AOT/AOT_stimuli/pictures/0367_fw.png	382.248797416687	1.241715669631958
309	319.7956876754761	response	0	k		307.0	/experiments/Knapen_AOT/AOT_stimuli/pictures/0367_fw.png	383.47397661209106	
310	319.812224149704	picture	0		77	308.0	/experiments/Knapen_AOT/AOT_stimuli/pictures/0458_fw.png	383.49051308631897	0.6499700546264648
310	320.4459300041199	response	0	k		308.0	/experiments/Knapen_AOT/AOT_stimuli/pictures/0458_fw.png	384.12421894073486	
311	320.46219420433044	picture	0		105	309.0	/experiments/Knapen_AOT/AOT_stimuli/pictures/0960_fw.png	384.14048314094543	0.8805077075958252
311	321.3290424346924	response	0	k		309.0	/experiments/Knapen_AOT/AOT_stimuli/pictures/0960_fw.png	385.0073313713074	
312	321.34270191192627	picture	0		91	310.0	/experiments/Knapen_AOT/AOT_stimuli/pictures/1705_fw.png	385.02099084854126	0.7638695240020752
312	322.08829641342163	response	0	j		310.0	/experiments/Knapen_AOT/AOT_stimuli/pictures/1705_fw.png	385.7665853500366	
313	322.10657143592834	picture	0		109	311.0	/experiments/Knapen_AOT/AOT_stimuli/pictures/0331_fw.png	385.78486037254333	0.9140007495880127
313	323.004008769989	response	0	k		311.0	/experiments/Knapen_AOT/AOT_stimuli/pictures/0331_fw.png	386.682297706604	
314	323.02057218551636	picture	0		101	312.0	/experiments/Knapen_AOT/AOT_stimuli/pictures/0484_fw.png	386.69886112213135	0.8499748706817627
314	323.8539991378784	response	0	k		312.0	/experiments/Knapen_AOT/AOT_stimuli/pictures/0484_fw.png	387.5322880744934	
315	323.8705470561981	picture	0		119	313.0	/experiments/Knapen_AOT/AOT_stimuli/pictures/1115_fw.png	387.5488359928131	1.000067949295044
315	324.85402631759644	response	0	k		313.0	/experiments/Knapen_AOT/AOT_stimuli/pictures/1115_fw.png	388.5323152542114	
316	324.87061500549316	picture	0		107	314.0	/experiments/Knapen_AOT/AOT_stimuli/pictures/0560_fw.png	388.54890394210815	0.8999624252319336
316	325.7540879249573	response	0	k		314.0	/experiments/Knapen_AOT/AOT_stimuli/pictures/0560_fw.png	389.43237686157227	
317	325.7705774307251	picture	0		101	315.0	/experiments/Knapen_AOT/AOT_stimuli/pictures/0571_fw.png	389.4488663673401	0.8500106334686279
317	326.6040313243866	response	0	k		315.0	/experiments/Knapen_AOT/AOT_stimuli/pictures/0571_fw.png	390.2823202610016	
318	326.6205880641937	picture	0		129	316.0	/experiments/Knapen_AOT/AOT_stimuli/pictures/2046_fw.png	390.2988770008087	1.083343267440796
318	327.68762969970703	response	0	k		316.0	/experiments/Knapen_AOT/AOT_stimuli/pictures/2046_fw.png	391.365918636322	
319	327.7039313316345	picture	0		161	317.0	/experiments/Knapen_AOT/AOT_stimuli/pictures/1213_fw.png	391.3822202682495	1.3500726222991943
319	329.0374639034271	response	0	j		317.0	/experiments/Knapen_AOT/AOT_stimuli/pictures/1213_fw.png	392.7157528400421	
320	329.0540039539337	picture	0		99	318.0	/experiments/Knapen_AOT/AOT_stimuli/pictures/0764_fw.png	392.7322928905487	0.8333408832550049
320	329.8708097934723	response	0	j		318.0	/experiments/Knapen_AOT/AOT_stimuli/pictures/0764_fw.png	393.5490987300873	
321	329.8873448371887	picture	0		86	319.0	/experiments/Knapen_AOT/AOT_stimuli/pictures/0006_fw.png	393.5656337738037	0.7249765396118164
321	330.5958094596863	response	0	j		319.0	/experiments/Knapen_AOT/AOT_stimuli/pictures/0006_fw.png	394.27409839630127	
322	330.61232137680054	picture	0		76	320.0	/experiments/Knapen_AOT/AOT_stimuli/pictures/0499_fw.png	394.2906103134155	0.6416797637939453
322	331.2374951839447	response	0	j		320.0	/experiments/Knapen_AOT/AOT_stimuli/pictures/0499_fw.png	394.9157841205597	
323	331.2540011405945	picture	0		91	321.0	/experiments/Knapen_AOT/AOT_stimuli/pictures/1378_fw.png	394.9322900772095	0.7666840553283691
323	332.0041573047638	response	0	k		321.0	/experiments/Knapen_AOT/AOT_stimuli/pictures/1378_fw.png	395.6824462413788	
324	332.02068519592285	picture	0		84	322.0	/experiments/Knapen_AOT/AOT_stimuli/pictures/1009_fw.png	395.69897413253784	0.7083346843719482
324	332.71259021759033	response	0	k		322.0	/experiments/Knapen_AOT/AOT_stimuli/pictures/1009_fw.png	396.3908791542053	
325	332.7290198802948	picture	0		123	323.0	/experiments/Knapen_AOT/AOT_stimuli/pictures/1208_fw.png	396.4073088169098	1.033362627029419
325	333.7458350658417	response	0	k		323.0	/experiments/Knapen_AOT/AOT_stimuli/pictures/1208_fw.png	397.42412400245667	
326	333.7623825073242	picture	0		126	324.0	/experiments/Knapen_AOT/AOT_stimuli/pictures/1865_fw.png	397.4406714439392	1.05833101272583
326	334.8041977882385	response	0	j		324.0	/experiments/Knapen_AOT/AOT_stimuli/pictures/1865_fw.png	398.4824867248535	
327	334.82071352005005	picture	0		88	325.0	/experiments/Knapen_AOT/AOT_stimuli/pictures/0924_fw.png	398.49900245666504	0.741666316986084
327	335.54582834243774	response	0	k		325.0	/experiments/Knapen_AOT/AOT_stimuli/pictures/0924_fw.png	399.22411727905273	
328	335.56237983703613	picture	0		114	326.0	/experiments/Knapen_AOT/AOT_stimuli/pictures/1858_fw.png	399.2406687736511	0.9584228992462158
328	336.4978406429291	response	0	j		326.0	/experiments/Knapen_AOT/AOT_stimuli/pictures/1858_fw.png	400.17612957954407	
329	336.52080273628235	picture	0		115	327.0	/experiments/Knapen_AOT/AOT_stimuli/pictures/0352_fw.png	400.19909167289734	0.9666075706481934
329	337.46455812454224	response	0	k		327.0	/experiments/Knapen_AOT/AOT_stimuli/pictures/0352_fw.png	401.1428470611572	
330	337.48741030693054	picture	0		121	328.0	/experiments/Knapen_AOT/AOT_stimuli/pictures/2049_fw.png	401.16569924354553	1.0166740417480469
330	338.48143124580383	response	0	k		328.0	/experiments/Knapen_AOT/AOT_stimuli/pictures/2049_fw.png	402.1597201824188	
331	338.5040843486786	picture	0		87	329.0	/experiments/Knapen_AOT/AOT_stimuli/pictures/1744_fw.png	402.1823732852936	0.733363151550293
331	339.22098422050476	response	0	k		329.0	/experiments/Knapen_AOT/AOT_stimuli/pictures/1744_fw.png	402.89927315711975	
332	339.2374475002289	picture	0		110	330.0	/experiments/Knapen_AOT/AOT_stimuli/pictures/1974_fw.png	402.9157364368439	0.9249916076660156
332	340.14595794677734	response	0	j		330.0	/experiments/Knapen_AOT/AOT_stimuli/pictures/1974_fw.png	403.82424688339233	
333	340.1624391078949	picture	0		71	331.0	/experiments/Knapen_AOT/AOT_stimuli/pictures/1517_fw.png	403.8407280445099	0.6000452041625977
333	340.74589014053345	response	0	j		331.0	/experiments/Knapen_AOT/AOT_stimuli/pictures/1517_fw.png	404.42417907714844	
334	340.7624843120575	picture	0		84	332.0	/experiments/Knapen_AOT/AOT_stimuli/pictures/0805_fw.png	404.4407732486725	0.7083702087402344
334	341.45425724983215	response	0	j		332.0	/experiments/Knapen_AOT/AOT_stimuli/pictures/0805_fw.png	405.13254618644714	
335	341.47085452079773	picture	0		156	333.0	/experiments/Knapen_AOT/AOT_stimuli/pictures/1298_fw.png	405.1491434574127	1.3082776069641113
335	342.7626371383667	response	0	k		333.0	/experiments/Knapen_AOT/AOT_stimuli/pictures/1298_fw.png	406.4409260749817	
336	342.77913212776184	picture	0		79	334.0	/experiments/Knapen_AOT/AOT_stimuli/pictures/0200_fw.png	406.45742106437683	0.660926342010498
336	343.4292838573456	response	0	j		334.0	/experiments/Knapen_AOT/AOT_stimuli/pictures/0200_fw.png	407.10757279396057	
337	343.44005846977234	picture	0		90	335.0	/experiments/Knapen_AOT/AOT_stimuli/pictures/0938_fw.png	407.11834740638733	0.7557761669158936
337	344.1793203353882	response	0	j		335.0	/experiments/Knapen_AOT/AOT_stimuli/pictures/0938_fw.png	407.8576092720032	
338	344.19583463668823	picture	0		126	336.0	/experiments/Knapen_AOT/AOT_stimuli/pictures/1431_fw.png	407.8741235733032	1.0583457946777344
338	345.2376182079315	response	0	j		336.0	/experiments/Knapen_AOT/AOT_stimuli/pictures/1431_fw.png	408.9159071445465	
339	345.25418043136597	picture	0		104	337.0	/experiments/Knapen_AOT/AOT_stimuli/pictures/0100_fw.png	408.93246936798096	0.8750355243682861
339	346.11264634132385	response	0	j		337.0	/experiments/Knapen_AOT/AOT_stimuli/pictures/0100_fw.png	409.79093527793884	
340	346.12921595573425	picture	0		80	338.0	/experiments/Knapen_AOT/AOT_stimuli/pictures/1942_fw.png	409.80750489234924	0.6720089912414551
340	346.7876682281494	response	0	j		338.0	/experiments/Knapen_AOT/AOT_stimuli/pictures/1942_fw.png	410.4659571647644	
341	346.8012249469757	picture	0		79	339.0	/experiments/Knapen_AOT/AOT_stimuli/pictures/1169_fw.png	410.4795138835907	0.6696352958679199
341	347.45435547828674	response	0	j		339.0	/experiments/Knapen_AOT/AOT_stimuli/pictures/1169_fw.png	411.13264441490173	
342	347.4708602428436	picture	0		229	340.0	/experiments/Knapen_AOT/AOT_stimuli/pictures/1221_fw.png	411.1491491794586	1.9167039394378662
342	349.3710207939148	response	0	k		340.0	/experiments/Knapen_AOT/AOT_stimuli/pictures/1221_fw.png	413.0493097305298	
343	349.3875641822815	picture	0		81	341.0	/experiments/Knapen_AOT/AOT_stimuli/pictures/2149_fw.png	413.0658531188965	0.6775791645050049
343	350.05437707901	response	0	j		341.0	/experiments/Knapen_AOT/AOT_stimuli/pictures/2149_fw.png	413.732666015625	
344	350.0651433467865	picture	0		112	342.0	/experiments/Knapen_AOT/AOT_stimuli/pictures/0587_fw.png	413.7434322834015	0.9391353130340576
344	350.9876961708069	response	0	j		342.0	/experiments/Knapen_AOT/AOT_stimuli/pictures/0587_fw.png	414.6659851074219	
345	351.00427865982056	picture	0		96	343.0	/experiments/Knapen_AOT/AOT_stimuli/pictures/1134_fw.png	414.68256759643555	0.8082973957061768
345	351.79604268074036	response	0	k		343.0	/experiments/Knapen_AOT/AOT_stimuli/pictures/1134_fw.png	415.47433161735535	
346	351.81257605552673	picture	0		102	344.0	/experiments/Knapen_AOT/AOT_stimuli/pictures/1805_fw.png	415.4908649921417	0.8583552837371826
346	352.65441489219666	response	0	j		344.0	/experiments/Knapen_AOT/AOT_stimuli/pictures/1805_fw.png	416.33270382881165	
347	352.6709313392639	picture	0		100	345.0	/experiments/Knapen_AOT/AOT_stimuli/pictures/0647_fw.png	416.3492202758789	0.8386869430541992
347	353.48863458633423	response	0	j		345.0	/experiments/Knapen_AOT/AOT_stimuli/pictures/0647_fw.png	417.1669235229492	
348	353.5096182823181	picture	0		89	346.0	/experiments/Knapen_AOT/AOT_stimuli/pictures/0290_fw.png	417.1879072189331	0.7530097961425781
348	354.2462692260742	response	0	j		346.0	/experiments/Knapen_AOT/AOT_stimuli/pictures/0290_fw.png	417.9245581626892	
349	354.2626280784607	picture	0		100	347.0	/experiments/Knapen_AOT/AOT_stimuli/pictures/0572_fw.png	417.9409170150757	0.8416604995727539
349	355.08023405075073	response	0	j		347.0	/experiments/Knapen_AOT/AOT_stimuli/pictures/0572_fw.png	418.7585229873657	
350	355.10428857803345	picture	0		98	348.0	/experiments/Knapen_AOT/AOT_stimuli/pictures/0928_fw.png	418.78257751464844	0.825028657913208
350	355.9127902984619	response	0	k		348.0	/experiments/Knapen_AOT/AOT_stimuli/pictures/0928_fw.png	419.5910792350769	
351	355.92931723594666	picture	0		83	349.0	/experiments/Knapen_AOT/AOT_stimuli/pictures/1587_fw.png	419.60760617256165	0.6999919414520264
351	356.61281967163086	response	0	j		349.0	/experiments/Knapen_AOT/AOT_stimuli/pictures/1587_fw.png	420.29110860824585	
352	356.6293091773987	picture	0		126	350.0	/experiments/Knapen_AOT/AOT_stimuli/pictures/1651_fw.png	420.3075981140137	1.058354139328003
352	357.6711184978485	response	0	j		350.0	/experiments/Knapen_AOT/AOT_stimuli/pictures/1651_fw.png	421.3494074344635	
353	357.6876633167267	picture	0		107	351.0	/experiments/Knapen_AOT/AOT_stimuli/pictures/2147_fw.png	421.3659522533417	0.9000303745269775
353	358.5711591243744	response	0	k		351.0	/experiments/Knapen_AOT/AOT_stimuli/pictures/2147_fw.png	422.2494480609894	
354	358.58769369125366	picture	0		135	352.0	/experiments/Knapen_AOT/AOT_stimuli/pictures/1068_fw.png	422.26598262786865	1.1333422660827637
354	359.7045588493347	response	0	k		352.0	/experiments/Knapen_AOT/AOT_stimuli/pictures/1068_fw.png	423.3828477859497	
355	359.7210359573364	picture	0		86	353.0	/experiments/Knapen_AOT/AOT_stimuli/pictures/1992_fw.png	423.3993248939514	0.7250232696533203
355	360.4295253753662	response	0	j		353.0	/experiments/Knapen_AOT/AOT_stimuli/pictures/1992_fw.png	424.1078143119812	
356	360.44605922698975	picture	0		165	354.0	/experiments/Knapen_AOT/AOT_stimuli/pictures/1061_fw.png	424.12434816360474	1.3834197521209717
356	361.81288862228394	response	0	k		354.0	/experiments/Knapen_AOT/AOT_stimuli/pictures/1061_fw.png	425.4911775588989	
357	361.8294789791107	picture	0		118	355.0	/experiments/Knapen_AOT/AOT_stimuli/pictures/0049_fw.png	425.5077679157257	0.9915816783905029
357	362.80460238456726	response	0	k		355.0	/experiments/Knapen_AOT/AOT_stimuli/pictures/0049_fw.png	426.48289132118225	
358	362.8210606575012	picture	0		106	356.0	/experiments/Knapen_AOT/AOT_stimuli/pictures/0434_fw.png	426.4993495941162	0.8916816711425781
358	363.69643473625183	response	0	k		356.0	/experiments/Knapen_AOT/AOT_stimuli/pictures/0434_fw.png	427.3747236728668	
359	363.7127423286438	picture	0		119	357.0	/experiments/Knapen_AOT/AOT_stimuli/pictures/1998_fw.png	427.3910312652588	1.0000309944152832
359	364.68890023231506	response	0	k		357.0	/experiments/Knapen_AOT/AOT_stimuli/pictures/1998_fw.png	428.36718916893005	
360	364.7127733230591	picture	0		83	358.0	/experiments/Knapen_AOT/AOT_stimuli/pictures/1321_fw.png	428.3910622596741	0.699984073638916
360	365.39625811576843	response	0	j		358.0	/experiments/Knapen_AOT/AOT_stimuli/pictures/1321_fw.png	429.0745470523834	
361	365.412757396698	picture	0		100	359.0	/experiments/Knapen_AOT/AOT_stimuli/pictures/2082_fw.png	429.091046333313	0.8416752815246582
361	366.237890958786	response	0	j		359.0	/experiments/Knapen_AOT/AOT_stimuli/pictures/2082_fw.png	429.916179895401	
362	366.25443267822266	stim	0		428			429.93272161483765	3.57956862449646
362	367.2885127067566	response	0	k				430.9668016433716	
362	369.8190288543701	response	0	space				433.4973177909851	
