trial_nr	onset	event_type	phase	response	nr_frames	picture_index	picture_file	onset_abs	duration
0	0.17448902130126953	stim	0		512			64.09941911697388	4.283758163452148
0	4.441563129425049	response	0	space				68.36649322509766	
2	4.458247184753418	picture	0		163	0.0	/experiments/Knapen_AOT/AOT_stimuli/pictures/2010_fw.png	68.38317728042603	1.37618088722229
2	5.814587593078613	response	0	j		0.0	/experiments/Knapen_AOT/AOT_stimuli/pictures/2010_fw.png	69.73951768875122	
3	5.834428071975708	picture	0		112	1.0	/experiments/Knapen_AOT/AOT_stimuli/pictures/1981_fw.png	69.75935816764832	0.9433674812316895
3	6.766421556472778	response	0	k		1.0	/experiments/Knapen_AOT/AOT_stimuli/pictures/1981_fw.png	70.69135165214539	
4	6.7777955532073975	picture	0		75	2.0	/experiments/Knapen_AOT/AOT_stimuli/pictures/2092_fw.png	70.70272564888	0.6251485347747803
4	7.391393184661865	response	0	j		2.0	/experiments/Knapen_AOT/AOT_stimuli/pictures/2092_fw.png	71.31632328033447	
5	7.402944087982178	picture	0		102	3.0	/experiments/Knapen_AOT/AOT_stimuli/pictures/1788_fw.png	71.32787418365479	0.8549566268920898
5	8.2413809299469	response	0	k		3.0	/experiments/Knapen_AOT/AOT_stimuli/pictures/1788_fw.png	72.1663110256195	
6	8.257900714874268	picture	0		98	4.0	/experiments/Knapen_AOT/AOT_stimuli/pictures/1907_fw.png	72.18283081054688	0.8185138702392578
6	9.066422700881958	response	0	j		4.0	/experiments/Knapen_AOT/AOT_stimuli/pictures/1907_fw.png	72.99135279655457	
7	9.076414585113525	picture	0		155	5.0	/experiments/Knapen_AOT/AOT_stimuli/pictures/1203_fw.png	73.00134468078613	1.291762351989746
7	10.358203887939453	response	0	k		5.0	/experiments/Knapen_AOT/AOT_stimuli/pictures/1203_fw.png	74.28313398361206	
8	10.368176937103271	picture	0		88	6.0	/experiments/Knapen_AOT/AOT_stimuli/pictures/0529_fw.png	74.29310703277588	0.736041784286499
8	11.083977222442627	response	0	k		6.0	/experiments/Knapen_AOT/AOT_stimuli/pictures/0529_fw.png	75.00890731811523	
9	11.10421872138977	picture	0		70	7.0	/experiments/Knapen_AOT/AOT_stimuli/pictures/0275_fw.png	75.02914881706238	0.5833921432495117
9	11.66791582107544	response	0	j		7.0	/experiments/Knapen_AOT/AOT_stimuli/pictures/0275_fw.png	75.59284591674805	
10	11.687610864639282	picture	0		73	8.0	/experiments/Knapen_AOT/AOT_stimuli/pictures/1139_fw.png	75.61254096031189	0.6203188896179199
10	12.284225940704346	response	0	j		8.0	/experiments/Knapen_AOT/AOT_stimuli/pictures/1139_fw.png	76.20915603637695	
11	12.307929754257202	picture	0		238	9.0	/experiments/Knapen_AOT/AOT_stimuli/pictures/1333_fw.png	76.23285984992981	1.9837126731872559
11	14.275903940200806	response	0	k		9.0	/experiments/Knapen_AOT/AOT_stimuli/pictures/1333_fw.png	78.20083403587341	
12	14.291642427444458	picture	0		110	10.0	/experiments/Knapen_AOT/AOT_stimuli/pictures/0801_fw.png	78.21657252311707	0.9246389865875244
12	15.199839115142822	response	0	j		10.0	/experiments/Knapen_AOT/AOT_stimuli/pictures/0801_fw.png	79.12476921081543	
13	15.216281414031982	picture	0		170	11.0	/experiments/Knapen_AOT/AOT_stimuli/pictures/1261_fw.png	79.14121150970459	1.4166874885559082
13	16.624855041503906	response	0	j		11.0	/experiments/Knapen_AOT/AOT_stimuli/pictures/1261_fw.png	80.54978513717651	
14	16.63296890258789	picture	0		115	12.0	/experiments/Knapen_AOT/AOT_stimuli/pictures/1854_fw.png	80.5578989982605	0.9667019844055176
14	17.583434343338013	response	0	k		12.0	/experiments/Knapen_AOT/AOT_stimuli/pictures/1854_fw.png	81.50836443901062	
15	17.599670886993408	picture	0		77	13.0	/experiments/Knapen_AOT/AOT_stimuli/pictures/1721_fw.png	81.52460098266602	0.6500561237335205
15	18.233369827270508	response	0	j		13.0	/experiments/Knapen_AOT/AOT_stimuli/pictures/1721_fw.png	82.15829992294312	
16	18.24972701072693	picture	0		80	14.0	/experiments/Knapen_AOT/AOT_stimuli/pictures/1820_fw.png	82.17465710639954	0.6750180721282959
16	18.908204317092896	response	0	j		14.0	/experiments/Knapen_AOT/AOT_stimuli/pictures/1820_fw.png	82.8331344127655	
17	18.924745082855225	picture	0		91	15.0	/experiments/Knapen_AOT/AOT_stimuli/pictures/1265_fw.png	82.84967517852783	0.7629034519195557
17	19.66734552383423	response	0	j		15.0	/experiments/Knapen_AOT/AOT_stimuli/pictures/1265_fw.png	83.59227561950684	
18	19.68764853477478	picture	0		143	16.0	/experiments/Knapen_AOT/AOT_stimuli/pictures/0810_fw.png	83.61257863044739	1.2013962268829346
18	20.868284463882446	response	0	k		16.0	/experiments/Knapen_AOT/AOT_stimuli/pictures/0810_fw.png	84.79321455955505	
19	20.889044761657715	picture	0		121	17.0	/experiments/Knapen_AOT/AOT_stimuli/pictures/0411_fw.png	84.81397485733032	1.018989086151123
19	21.891601085662842	response	0	k		17.0	/experiments/Knapen_AOT/AOT_stimuli/pictures/0411_fw.png	85.81653118133545	
20	21.908033847808838	picture	0		84	18.0	/experiments/Knapen_AOT/AOT_stimuli/pictures/2154_fw.png	85.83296394348145	0.703223705291748
20	22.59995746612549	response	0	k		18.0	/experiments/Knapen_AOT/AOT_stimuli/pictures/2154_fw.png	86.5248875617981	
21	22.611257553100586	picture	0		92	19.0	/experiments/Knapen_AOT/AOT_stimuli/pictures/0046_fw.png	86.5361876487732	0.7638731002807617
21	23.366631984710693	response	0	k		19.0	/experiments/Knapen_AOT/AOT_stimuli/pictures/0046_fw.png	87.2915620803833	
22	23.375130653381348	picture	0		86	20.0	/experiments/Knapen_AOT/AOT_stimuli/pictures/1471_fw.png	87.30006074905396	0.724602222442627
22	24.083821535110474	response	0	j		20.0	/experiments/Knapen_AOT/AOT_stimuli/pictures/1471_fw.png	88.00875163078308	
23	24.099732875823975	picture	0		162	21.0	/experiments/Knapen_AOT/AOT_stimuli/pictures/2124_fw.png	88.02466297149658	1.3516831398010254
23	25.441574335098267	response	0	k		21.0	/experiments/Knapen_AOT/AOT_stimuli/pictures/2124_fw.png	89.36650443077087	
24	25.451416015625	picture	0		186	22.0	/experiments/Knapen_AOT/AOT_stimuli/pictures/0157_fw.png	89.37634611129761	1.5486083030700684
24	26.991629600524902	response	0	k		22.0	/experiments/Knapen_AOT/AOT_stimuli/pictures/0157_fw.png	90.91655969619751	
25	27.00002431869507	picture	0		108	23.0	/experiments/Knapen_AOT/AOT_stimuli/pictures/0621_fw.png	90.92495441436768	0.9080772399902344
25	27.891928911209106	response	0	j		23.0	/experiments/Knapen_AOT/AOT_stimuli/pictures/0621_fw.png	91.81685900688171	
26	27.908101558685303	picture	0		80	24.0	/experiments/Knapen_AOT/AOT_stimuli/pictures/0578_fw.png	91.83303165435791	0.6684474945068359
26	28.566688060760498	response	0	j		24.0	/experiments/Knapen_AOT/AOT_stimuli/pictures/0578_fw.png	92.4916181564331	
27	28.57654905319214	picture	0		87	25.0	/experiments/Knapen_AOT/AOT_stimuli/pictures/1902_fw.png	92.50147914886475	0.7291667461395264
27	29.291656494140625	response	0	j		25.0	/experiments/Knapen_AOT/AOT_stimuli/pictures/1902_fw.png	93.21658658981323	
28	29.305715799331665	picture	0		118	26.0	/experiments/Knapen_AOT/AOT_stimuli/pictures/0527_fw.png	93.23064589500427	0.9940657615661621
28	30.283584594726562	response	0	k		26.0	/experiments/Knapen_AOT/AOT_stimuli/pictures/0527_fw.png	94.20851469039917	
29	30.299781560897827	picture	0		137	27.0	/experiments/Knapen_AOT/AOT_stimuli/pictures/0350_fw.png	94.22471165657043	1.144822120666504
29	31.43333148956299	response	0	j		27.0	/experiments/Knapen_AOT/AOT_stimuli/pictures/0350_fw.png	95.3582615852356	
30	31.44460368156433	picture	0		230	28.0	/experiments/Knapen_AOT/AOT_stimuli/pictures/1555_fw.png	95.36953377723694	1.9165897369384766
30	33.35002040863037	response	0	j		28.0	/experiments/Knapen_AOT/AOT_stimuli/pictures/1555_fw.png	97.27495050430298	
31	33.36119341850281	picture	0		112	29.0	/experiments/Knapen_AOT/AOT_stimuli/pictures/1761_fw.png	97.28612351417542	0.9306645393371582
31	34.276111125946045	response	0	k		29.0	/experiments/Knapen_AOT/AOT_stimuli/pictures/1761_fw.png	98.20104122161865	
32	34.291857957839966	picture	0		129	30.0	/experiments/Knapen_AOT/AOT_stimuli/pictures/0535_fw.png	98.21678805351257	1.0763649940490723
32	35.35835647583008	response	0	j		30.0	/experiments/Knapen_AOT/AOT_stimuli/pictures/0535_fw.png	99.28328657150269	
33	35.36822295188904	picture	0		72	31.0	/experiments/Knapen_AOT/AOT_stimuli/pictures/1034_fw.png	99.29315304756165	0.6066460609436035
33	35.95847535133362	response	0	j		31.0	/experiments/Knapen_AOT/AOT_stimuli/pictures/1034_fw.png	99.88340544700623	
34	35.97486901283264	picture	0		80	32.0	/experiments/Knapen_AOT/AOT_stimuli/pictures/0920_fw.png	99.89979910850525	0.6711938381195068
34	36.633376598358154	response	0	j		32.0	/experiments/Knapen_AOT/AOT_stimuli/pictures/0920_fw.png	100.55830669403076	
35	36.64606285095215	picture	0		92	33.0	/experiments/Knapen_AOT/AOT_stimuli/pictures/1810_fw.png	100.57099294662476	0.7638635635375977
35	37.400086879730225	response	0	k		33.0	/experiments/Knapen_AOT/AOT_stimuli/pictures/1810_fw.png	101.32501697540283	
36	37.409926414489746	picture	0		86	34.0	/experiments/Knapen_AOT/AOT_stimuli/pictures/2048_fw.png	101.33485651016235	0.7152676582336426
36	38.11677432060242	response	0	k		34.0	/experiments/Knapen_AOT/AOT_stimuli/pictures/2048_fw.png	102.04170441627502	
37	38.12519407272339	picture	0		84	35.0	/experiments/Knapen_AOT/AOT_stimuli/pictures/1228_fw.png	102.050124168396	0.7014281749725342
37	38.81681561470032	response	0	k		35.0	/experiments/Knapen_AOT/AOT_stimuli/pictures/1228_fw.png	102.74174571037292	
38	38.82662224769592	picture	0		65	36.0	/experiments/Knapen_AOT/AOT_stimuli/pictures/1401_fw.png	102.75155234336853	0.5482876300811768
38	39.3584349155426	response	0	j		36.0	/experiments/Knapen_AOT/AOT_stimuli/pictures/1401_fw.png	103.28336501121521	
39	39.3749098777771	picture	0		86	37.0	/experiments/Knapen_AOT/AOT_stimuli/pictures/1190_fw.png	103.2998399734497	0.7166380882263184
39	40.075812578201294	response	0	j		37.0	/experiments/Knapen_AOT/AOT_stimuli/pictures/1190_fw.png	104.0007426738739	
40	40.09154796600342	picture	0		123	38.0	/experiments/Knapen_AOT/AOT_stimuli/pictures/1430_fw.png	104.01647806167603	1.0333964824676514
40	41.10849475860596	response	0	j		38.0	/experiments/Knapen_AOT/AOT_stimuli/pictures/1430_fw.png	105.03342485427856	
41	41.12494444847107	picture	0		79	39.0	/experiments/Knapen_AOT/AOT_stimuli/pictures/1868_fw.png	105.04987454414368	0.666703462600708
41	41.77533316612244	response	0	j		39.0	/experiments/Knapen_AOT/AOT_stimuli/pictures/1868_fw.png	105.70026326179504	
42	41.79164791107178	picture	0		90	40.0	/experiments/Knapen_AOT/AOT_stimuli/pictures/0926_fw.png	105.71657800674438	0.7502689361572266
42	42.53342914581299	response	0	j		40.0	/experiments/Knapen_AOT/AOT_stimuli/pictures/0926_fw.png	106.4583592414856	
43	42.541916847229004	picture	0		82	41.0	/experiments/Knapen_AOT/AOT_stimuli/pictures/0930_fw.png	106.46684694290161	0.6874673366546631
43	43.2167763710022	response	0	j		41.0	/experiments/Knapen_AOT/AOT_stimuli/pictures/0930_fw.png	107.1417064666748	
44	43.22938418388367	picture	0		91	42.0	/experiments/Knapen_AOT/AOT_stimuli/pictures/1825_fw.png	107.15431427955627	0.7622191905975342
44	43.975117683410645	response	0	k		42.0	/experiments/Knapen_AOT/AOT_stimuli/pictures/1825_fw.png	107.90004777908325	
45	43.9916033744812	picture	0		84	43.0	/experiments/Knapen_AOT/AOT_stimuli/pictures/0243_fw.png	107.91653347015381	0.7030594348907471
45	44.68352460861206	response	0	k		43.0	/experiments/Knapen_AOT/AOT_stimuli/pictures/0243_fw.png	108.60845470428467	
46	44.69466280937195	picture	0		87	44.0	/experiments/Knapen_AOT/AOT_stimuli/pictures/0716_fw.png	108.61959290504456	0.7222659587860107
46	45.40850520133972	response	0	j		44.0	/experiments/Knapen_AOT/AOT_stimuli/pictures/0716_fw.png	109.33343529701233	
47	45.41692876815796	picture	0		84	45.0	/experiments/Knapen_AOT/AOT_stimuli/pictures/0741_fw.png	109.34185886383057	0.7080459594726562
47	46.10858368873596	response	0	j		45.0	/experiments/Knapen_AOT/AOT_stimuli/pictures/0741_fw.png	110.03351378440857	
48	46.124974727630615	picture	0		99	46.0	/experiments/Knapen_AOT/AOT_stimuli/pictures/0970_fw.png	110.04990482330322	0.8266732692718506
48	46.94182562828064	response	0	k		46.0	/experiments/Knapen_AOT/AOT_stimuli/pictures/0970_fw.png	110.86675572395325	
49	46.951647996902466	picture	0		80	47.0	/experiments/Knapen_AOT/AOT_stimuli/pictures/0771_fw.png	110.87657809257507	0.6667275428771973
49	47.60857653617859	response	0	j		47.0	/experiments/Knapen_AOT/AOT_stimuli/pictures/0771_fw.png	111.5335066318512	
50	47.61837553977966	picture	0		121	48.0	/experiments/Knapen_AOT/AOT_stimuli/pictures/1188_fw.png	111.54330563545227	1.0069053173065186
50	48.616872787475586	response	0	j		48.0	/experiments/Knapen_AOT/AOT_stimuli/pictures/1188_fw.png	112.5418028831482	
51	48.62528085708618	picture	0		112	49.0	/experiments/Knapen_AOT/AOT_stimuli/pictures/0235_fw.png	112.55021095275879	0.9374856948852539
51	49.55023145675659	response	0	k		49.0	/experiments/Knapen_AOT/AOT_stimuli/pictures/0235_fw.png	113.4751615524292	
52	49.562766551971436	picture	0		121	50.0	/experiments/Knapen_AOT/AOT_stimuli/pictures/0504_fw.png	113.48769664764404	1.0069732666015625
52	50.55857276916504	response	0	j		50.0	/experiments/Knapen_AOT/AOT_stimuli/pictures/0504_fw.png	114.48350286483765	
53	50.569739818573	picture	0		100	51.0	/experiments/Knapen_AOT/AOT_stimuli/pictures/0317_fw.png	114.4946699142456	0.8334050178527832
53	51.39190936088562	response	0	j		51.0	/experiments/Knapen_AOT/AOT_stimuli/pictures/0317_fw.png	115.31683945655823	
54	51.40314483642578	picture	0		79	52.0	/experiments/Knapen_AOT/AOT_stimuli/pictures/0697_fw.png	115.32807493209839	0.6596457958221436
54	52.05025577545166	response	0	j		52.0	/experiments/Knapen_AOT/AOT_stimuli/pictures/0697_fw.png	115.97518587112427	
55	52.062790632247925	picture	0		81	53.0	/experiments/Knapen_AOT/AOT_stimuli/pictures/1557_fw.png	115.98772072792053	0.6735873222351074
55	52.72525334358215	response	0	j		53.0	/experiments/Knapen_AOT/AOT_stimuli/pictures/1557_fw.png	116.65018343925476	
56	52.73637795448303	picture	0		102	54.0	/experiments/Knapen_AOT/AOT_stimuli/pictures/1795_fw.png	116.66130805015564	0.8472628593444824
56	53.5752329826355	response	0	k		54.0	/experiments/Knapen_AOT/AOT_stimuli/pictures/1795_fw.png	117.5001630783081	
57	53.583640813827515	picture	0		99	55.0	/experiments/Knapen_AOT/AOT_stimuli/pictures/1751_fw.png	117.50857090950012	0.8264133930206299
57	54.400357723236084	response	0	j		55.0	/experiments/Knapen_AOT/AOT_stimuli/pictures/1751_fw.png	118.32528781890869	
58	54.410054206848145	picture	0		104	56.0	/experiments/Knapen_AOT/AOT_stimuli/pictures/1590_fw.png	118.33498430252075	0.8680882453918457
58	55.26699447631836	response	0	k		56.0	/experiments/Knapen_AOT/AOT_stimuli/pictures/1590_fw.png	119.19192457199097	
59	55.27814245223999	picture	0		76	57.0	/experiments/Knapen_AOT/AOT_stimuli/pictures/0192_fw.png	119.2030725479126	0.6318914890289307
59	55.90038728713989	response	0	j		57.0	/experiments/Knapen_AOT/AOT_stimuli/pictures/0192_fw.png	119.8253173828125	
60	55.91003394126892	picture	0		101	58.0	/experiments/Knapen_AOT/AOT_stimuli/pictures/1193_fw.png	119.83496403694153	0.848374605178833
60	56.741926431655884	response	0	k		58.0	/experiments/Knapen_AOT/AOT_stimuli/pictures/1193_fw.png	120.66685652732849	
61	56.758408546447754	picture	0		83	59.0	/experiments/Knapen_AOT/AOT_stimuli/pictures/1108_fw.png	120.68333864212036	0.7000765800476074
61	57.44210648536682	response	0	j		59.0	/experiments/Knapen_AOT/AOT_stimuli/pictures/1108_fw.png	121.36703658103943	
62	57.45848512649536	picture	0		123	60.0	/experiments/Knapen_AOT/AOT_stimuli/pictures/1933_fw.png	121.38341522216797	1.027939796447754
62	58.47551941871643	response	0	j		60.0	/experiments/Knapen_AOT/AOT_stimuli/pictures/1933_fw.png	122.40044951438904	
63	58.486424922943115	picture	0		107	61.0	/experiments/Knapen_AOT/AOT_stimuli/pictures/1703_fw.png	122.41135501861572	0.8970363140106201
63	59.36700630187988	response	0	j		61.0	/experiments/Knapen_AOT/AOT_stimuli/pictures/1703_fw.png	123.29193639755249	
64	59.383461236953735	picture	0		142	62.0	/experiments/Knapen_AOT/AOT_stimuli/pictures/0602_fw.png	123.30839133262634	1.191666603088379
64	60.55879878997803	response	0	k		62.0	/experiments/Knapen_AOT/AOT_stimuli/pictures/0602_fw.png	124.48372888565063	
65	60.575127840042114	picture	0		142	63.0	/experiments/Knapen_AOT/AOT_stimuli/pictures/0993_fw.png	124.50005793571472	1.1890976428985596
65	61.750338315963745	response	0	k		63.0	/experiments/Knapen_AOT/AOT_stimuli/pictures/0993_fw.png	125.67526841163635	
66	61.764225482940674	picture	0		96	64.0	/experiments/Knapen_AOT/AOT_stimuli/pictures/0236_fw.png	125.68915557861328	0.8109500408172607
66	62.55870246887207	response	0	k		64.0	/experiments/Knapen_AOT/AOT_stimuli/pictures/0236_fw.png	126.48363256454468	
67	62.575175523757935	picture	0		109	65.0	/experiments/Knapen_AOT/AOT_stimuli/pictures/2057_fw.png	126.50010561943054	0.9166936874389648
67	63.467997550964355	response	0	k		65.0	/experiments/Knapen_AOT/AOT_stimuli/pictures/2057_fw.png	127.39292764663696	
68	63.4918692111969	picture	0		87	66.0	/experiments/Knapen_AOT/AOT_stimuli/pictures/2096_fw.png	127.4167993068695	0.7307496070861816
68	64.20870637893677	response	0	k		66.0	/experiments/Knapen_AOT/AOT_stimuli/pictures/2096_fw.png	128.13363647460938	
69	64.22261881828308	picture	0		115	67.0	/experiments/Knapen_AOT/AOT_stimuli/pictures/1079_fw.png	128.1475489139557	0.9693098068237305
69	65.17535209655762	response	0	j		67.0	/experiments/Knapen_AOT/AOT_stimuli/pictures/1079_fw.png	129.10028219223022	
70	65.19192862510681	picture	0		76	68.0	/experiments/Knapen_AOT/AOT_stimuli/pictures/1915_fw.png	129.11685872077942	0.6416373252868652
70	65.81725597381592	response	0	j		68.0	/experiments/Knapen_AOT/AOT_stimuli/pictures/1915_fw.png	129.74218606948853	
71	65.83356595039368	picture	0		140	69.0	/experiments/Knapen_AOT/AOT_stimuli/pictures/0375_fw.png	129.75849604606628	1.1668028831481934
71	66.99209833145142	response	0	k		69.0	/experiments/Knapen_AOT/AOT_stimuli/pictures/0375_fw.png	130.91702842712402	
72	67.00036883354187	picture	0		547	70.0	/experiments/Knapen_AOT/AOT_stimuli/pictures/0820_fw.png	130.92529892921448	4.562450885772705
72	71.55044317245483	response	0	k		70.0	/experiments/Knapen_AOT/AOT_stimuli/pictures/0820_fw.png	135.47537326812744	
73	71.56281971931458	picture	0		108	71.0	/experiments/Knapen_AOT/AOT_stimuli/pictures/0541_fw.png	135.48774981498718	0.9041118621826172
73	72.45070338249207	response	0	k		71.0	/experiments/Knapen_AOT/AOT_stimuli/pictures/0541_fw.png	136.37563347816467	
74	72.46693158149719	picture	0		88	72.0	/experiments/Knapen_AOT/AOT_stimuli/pictures/2079_fw.png	136.3918616771698	0.7418360710144043
74	73.19230914115906	response	0	k		72.0	/experiments/Knapen_AOT/AOT_stimuli/pictures/2079_fw.png	137.11723923683167	
75	73.2087676525116	picture	0		129	73.0	/experiments/Knapen_AOT/AOT_stimuli/pictures/1467_fw.png	137.1336977481842	1.083202838897705
75	74.268869638443	response	0	k		73.0	/experiments/Knapen_AOT/AOT_stimuli/pictures/1467_fw.png	138.1937997341156	
76	74.2919704914093	picture	0		183	74.0	/experiments/Knapen_AOT/AOT_stimuli/pictures/1858_fw.png	138.2169005870819	1.5333521366119385
76	75.80879020690918	response	0	k		74.0	/experiments/Knapen_AOT/AOT_stimuli/pictures/1858_fw.png	139.7337203025818	
77	75.82532262802124	picture	0		90	75.0	/experiments/Knapen_AOT/AOT_stimuli/pictures/0638_fw.png	139.75025272369385	0.7515137195587158
77	76.56720209121704	response	0	j		75.0	/experiments/Knapen_AOT/AOT_stimuli/pictures/0638_fw.png	140.49213218688965	
78	76.57683634757996	picture	0		121	76.0	/experiments/Knapen_AOT/AOT_stimuli/pictures/0672_fw.png	140.50176644325256	1.0070018768310547
78	77.57550096511841	response	0	k		76.0	/experiments/Knapen_AOT/AOT_stimuli/pictures/0672_fw.png	141.50043106079102	
79	77.58383822441101	picture	0		81	77.0	/experiments/Knapen_AOT/AOT_stimuli/pictures/0007_fw.png	141.50876832008362	0.68052077293396
79	78.25053310394287	response	0	j		77.0	/experiments/Knapen_AOT/AOT_stimuli/pictures/0007_fw.png	142.17546319961548	
80	78.26435899734497	picture	0		89	78.0	/experiments/Knapen_AOT/AOT_stimuli/pictures/2104_fw.png	142.18928909301758	0.7500309944152832
80	79.00052833557129	response	0	k		78.0	/experiments/Knapen_AOT/AOT_stimuli/pictures/2104_fw.png	142.9254584312439	
81	79.01438999176025	picture	0		85	79.0	/experiments/Knapen_AOT/AOT_stimuli/pictures/0065_fw.png	142.93932008743286	0.7152843475341797
81	79.71722435951233	response	0	j		79.0	/experiments/Knapen_AOT/AOT_stimuli/pictures/0065_fw.png	143.64215445518494	
82	79.72967433929443	picture	0		108	80.0	/experiments/Knapen_AOT/AOT_stimuli/pictures/0966_fw.png	143.65460443496704	0.9096660614013672
82	80.62562394142151	response	0	k		80.0	/experiments/Knapen_AOT/AOT_stimuli/pictures/0966_fw.png	144.55055403709412	
83	80.6393404006958	picture	0		174	81.0	/experiments/Knapen_AOT/AOT_stimuli/pictures/1487_fw.png	144.5642704963684	1.4582784175872803
83	82.08394002914429	response	0	j		81.0	/experiments/Knapen_AOT/AOT_stimuli/pictures/1487_fw.png	146.0088701248169	
84	82.09761881828308	picture	0		114	82.0	/experiments/Knapen_AOT/AOT_stimuli/pictures/0026_fw.png	146.0225489139557	0.9611220359802246
84	83.0423858165741	response	0	j		82.0	/experiments/Knapen_AOT/AOT_stimuli/pictures/0026_fw.png	146.9673159122467	
85	83.0587408542633	picture	0		189	83.0	/experiments/Knapen_AOT/AOT_stimuli/pictures/2034_fw.png	146.9836709499359	1.580561637878418
85	84.62559795379639	response	0	k		83.0	/experiments/Knapen_AOT/AOT_stimuli/pictures/2034_fw.png	148.550528049469	
86	84.63930249214172	picture	0		79	84.0	/experiments/Knapen_AOT/AOT_stimuli/pictures/2084_fw.png	148.56423258781433	0.6694483757019043
86	85.29242157936096	response	0	j		84.0	/experiments/Knapen_AOT/AOT_stimuli/pictures/2084_fw.png	149.21735167503357	
87	85.30875086784363	picture	0		106	85.0	/experiments/Knapen_AOT/AOT_stimuli/pictures/0533_fw.png	149.23368096351624	0.8862380981445312
87	86.18402123451233	response	0	k		85.0	/experiments/Knapen_AOT/AOT_stimuli/pictures/0533_fw.png	150.10895133018494	
88	86.19498896598816	picture	0		107	86.0	/experiments/Knapen_AOT/AOT_stimuli/pictures/2009_fw.png	150.11991906166077	0.8971035480499268
88	87.0689685344696	response	0	j		86.0	/experiments/Knapen_AOT/AOT_stimuli/pictures/2009_fw.png	150.9938986301422	
89	87.09209251403809	picture	0		131	87.0	/experiments/Knapen_AOT/AOT_stimuli/pictures/0550_fw.png	151.0170226097107	1.0959084033966064
89	88.17564225196838	response	0	k		87.0	/experiments/Knapen_AOT/AOT_stimuli/pictures/0550_fw.png	152.100572347641	
90	88.18800091743469	picture	0		73	88.0	/experiments/Knapen_AOT/AOT_stimuli/pictures/0858_fw.png	152.1129310131073	0.6124594211578369
90	88.7840518951416	response	0	j		88.0	/experiments/Knapen_AOT/AOT_stimuli/pictures/0858_fw.png	152.7089819908142	
91	88.80046033859253	picture	0		473	89.0	/experiments/Knapen_AOT/AOT_stimuli/pictures/1878_fw.png	152.72539043426514	3.94303035736084
91	92.73403882980347	response	0	k		89.0	/experiments/Knapen_AOT/AOT_stimuli/pictures/1878_fw.png	156.65896892547607	
92	92.74349069595337	picture	0		107	90.0	/experiments/Knapen_AOT/AOT_stimuli/pictures/0084_fw.png	156.66842079162598	0.8986806869506836
92	93.62582159042358	response	0	k		90.0	/experiments/Knapen_AOT/AOT_stimuli/pictures/0084_fw.png	157.5507516860962	
93	93.64217138290405	picture	0		91	91.0	/experiments/Knapen_AOT/AOT_stimuli/pictures/1641_fw.png	157.56710147857666	0.7611615657806396
93	94.3924446105957	response	0	j		91.0	/experiments/Knapen_AOT/AOT_stimuli/pictures/1641_fw.png	158.3173747062683	
94	94.40333294868469	picture	0		90	92.0	/experiments/Knapen_AOT/AOT_stimuli/pictures/2155_fw.png	158.3282630443573	0.7499799728393555
94	95.14244055747986	response	0	k		92.0	/experiments/Knapen_AOT/AOT_stimuli/pictures/2155_fw.png	159.06737065315247	
95	95.15331292152405	picture	0		125	93.0	/experiments/Knapen_AOT/AOT_stimuli/pictures/1827_fw.png	159.07824301719666	1.0472655296325684
95	96.18407368659973	response	0	k		93.0	/experiments/Knapen_AOT/AOT_stimuli/pictures/1827_fw.png	160.10900378227234	
96	96.20057845115662	picture	0		73	94.0	/experiments/Knapen_AOT/AOT_stimuli/pictures/1862_fw.png	160.12550854682922	0.6124842166900635
96	96.80076026916504	response	0	j		94.0	/experiments/Knapen_AOT/AOT_stimuli/pictures/1862_fw.png	160.72569036483765	
97	96.81306266784668	picture	0		350	95.0	/experiments/Knapen_AOT/AOT_stimuli/pictures/1520_fw.png	160.7379927635193	2.920846700668335
97	99.71749806404114	response	0	k		95.0	/experiments/Knapen_AOT/AOT_stimuli/pictures/1520_fw.png	163.64242815971375	
98	99.73390936851501	picture	0		104	96.0	/experiments/Knapen_AOT/AOT_stimuli/pictures/1849_fw.png	163.65883946418762	0.8708791732788086
98	100.59247589111328	response	0	k		96.0	/experiments/Knapen_AOT/AOT_stimuli/pictures/1849_fw.png	164.5174059867859	
99	100.60478854179382	picture	0		105	97.0	/experiments/Knapen_AOT/AOT_stimuli/pictures/1781_fw.png	164.52971863746643	0.8791639804840088
99	101.46765565872192	response	0	k		97.0	/experiments/Knapen_AOT/AOT_stimuli/pictures/1781_fw.png	165.39258575439453	
100	101.48395252227783	picture	0		132	98.0	/experiments/Knapen_AOT/AOT_stimuli/pictures/0683_fw.png	165.40888261795044	1.1001896858215332
100	102.57577395439148	response	0	k		98.0	/experiments/Knapen_AOT/AOT_stimuli/pictures/0683_fw.png	166.5007040500641	
101	102.58414220809937	picture	0		84	99.0	/experiments/Knapen_AOT/AOT_stimuli/pictures/0752_fw.png	166.50907230377197	0.7011451721191406
101	103.27581882476807	response	0	j		99.0	/experiments/Knapen_AOT/AOT_stimuli/pictures/0752_fw.png	167.20074892044067	
102	103.2852873802185	picture	0		144	100.0	/experiments/Knapen_AOT/AOT_stimuli/pictures/0053_fw.png	167.2102174758911	1.207014560699463
102	104.4760308265686	response	0	j		100.0	/experiments/Knapen_AOT/AOT_stimuli/pictures/0053_fw.png	168.4009609222412	
103	104.49230194091797	picture	0		82	101.0	/experiments/Knapen_AOT/AOT_stimuli/pictures/1634_fw.png	168.41723203659058	0.6916654109954834
103	105.16757822036743	response	0	j		101.0	/experiments/Knapen_AOT/AOT_stimuli/pictures/1634_fw.png	169.09250831604004	
104	105.18396735191345	picture	0		132	102.0	/experiments/Knapen_AOT/AOT_stimuli/pictures/1949_fw.png	169.10889744758606	1.1013638973236084
104	106.27589201927185	response	0	j		102.0	/experiments/Knapen_AOT/AOT_stimuli/pictures/1949_fw.png	170.20082211494446	
105	106.28533124923706	picture	0		167	103.0	/experiments/Knapen_AOT/AOT_stimuli/pictures/0195_fw.png	170.21026134490967	1.3987278938293457
105	107.66029620170593	response	0	j		103.0	/experiments/Knapen_AOT/AOT_stimuli/pictures/0195_fw.png	171.58522629737854	
106	107.6840591430664	picture	0		93	104.0	/experiments/Knapen_AOT/AOT_stimuli/pictures/0518_fw.png	171.608989238739	0.774996280670166
106	108.44420766830444	response	0	k		104.0	/experiments/Knapen_AOT/AOT_stimuli/pictures/0518_fw.png	172.36913776397705	
107	108.45905542373657	picture	0		82	105.0	/experiments/Knapen_AOT/AOT_stimuli/pictures/0766_fw.png	172.38398551940918	0.6917078495025635
107	109.13419246673584	response	0	j		105.0	/experiments/Knapen_AOT/AOT_stimuli/pictures/0766_fw.png	173.05912256240845	
108	109.15076327323914	picture	0		85	106.0	/experiments/Knapen_AOT/AOT_stimuli/pictures/0468_fw.png	173.07569336891174	0.710984468460083
108	109.84418797492981	response	0	k		106.0	/experiments/Knapen_AOT/AOT_stimuli/pictures/0468_fw.png	173.76911807060242	
109	109.86174774169922	picture	0		84	107.0	/experiments/Knapen_AOT/AOT_stimuli/pictures/1780_fw.png	173.78667783737183	0.705636739730835
109	110.55089473724365	response	0	j		107.0	/experiments/Knapen_AOT/AOT_stimuli/pictures/1780_fw.png	174.47582483291626	
110	110.56738448143005	picture	0		179	108.0	/experiments/Knapen_AOT/AOT_stimuli/pictures/1758_fw.png	174.49231457710266	1.500002384185791
110	112.05093622207642	response	0	j		108.0	/experiments/Knapen_AOT/AOT_stimuli/pictures/1758_fw.png	175.97586631774902	
111	112.06738686561584	picture	0		84	109.0	/experiments/Knapen_AOT/AOT_stimuli/pictures/1873_fw.png	175.99231696128845	0.7041006088256836
111	112.75925278663635	response	0	j		109.0	/experiments/Knapen_AOT/AOT_stimuli/pictures/1873_fw.png	176.68418288230896	
112	112.77148747444153	picture	0		90	110.0	/experiments/Knapen_AOT/AOT_stimuli/pictures/0147_fw.png	176.69641757011414	0.754265308380127
112	113.50929307937622	response	0	k		110.0	/experiments/Knapen_AOT/AOT_stimuli/pictures/0147_fw.png	177.43422317504883	
113	113.52575278282166	picture	0		92	111.0	/experiments/Knapen_AOT/AOT_stimuli/pictures/1233_fw.png	177.45068287849426	0.7749829292297363
113	114.28426504135132	response	0	k		111.0	/experiments/Knapen_AOT/AOT_stimuli/pictures/1233_fw.png	178.20919513702393	
114	114.30073571205139	picture	0		99	112.0	/experiments/Knapen_AOT/AOT_stimuli/pictures/0595_fw.png	178.225665807724	0.8249893188476562
114	115.11766743659973	response	0	k		112.0	/experiments/Knapen_AOT/AOT_stimuli/pictures/0595_fw.png	179.04259753227234	
115	115.12572503089905	picture	0		105	113.0	/experiments/Knapen_AOT/AOT_stimuli/pictures/1767_fw.png	179.05065512657166	0.8833715915679932
115	115.99262356758118	response	0	j		113.0	/experiments/Knapen_AOT/AOT_stimuli/pictures/1767_fw.png	179.91755366325378	
116	116.00909662246704	picture	0		92	114.0	/experiments/Knapen_AOT/AOT_stimuli/pictures/0794_fw.png	179.93402671813965	0.7693474292755127
116	116.76769304275513	response	0	k		114.0	/experiments/Knapen_AOT/AOT_stimuli/pictures/0794_fw.png	180.69262313842773	
117	116.77844405174255	picture	0		118	115.0	/experiments/Knapen_AOT/AOT_stimuli/pictures/1859_fw.png	180.70337414741516	0.9890258312225342
117	117.7510392665863	response	0	k		115.0	/experiments/Knapen_AOT/AOT_stimuli/pictures/1859_fw.png	181.6759693622589	
118	117.76746988296509	picture	0		88	116.0	/experiments/Knapen_AOT/AOT_stimuli/pictures/1070_fw.png	181.6923999786377	0.7416620254516602
118	118.49266338348389	response	0	j		116.0	/experiments/Knapen_AOT/AOT_stimuli/pictures/1070_fw.png	182.4175934791565	
119	118.50913190841675	picture	0		92	117.0	/experiments/Knapen_AOT/AOT_stimuli/pictures/0012_fw.png	182.43406200408936	0.7693231105804443
119	119.26030015945435	response	0	j		117.0	/experiments/Knapen_AOT/AOT_stimuli/pictures/0012_fw.png	183.18523025512695	
120	119.27845501899719	picture	0		171	118.0	/experiments/Knapen_AOT/AOT_stimuli/pictures/0964_fw.png	183.2033851146698	1.4235401153564453
120	120.69300556182861	response	0	k		118.0	/experiments/Knapen_AOT/AOT_stimuli/pictures/0964_fw.png	184.61793565750122	
121	120.70199513435364	picture	0		77	119.0	/experiments/Knapen_AOT/AOT_stimuli/pictures/0254_fw.png	184.62692523002625	0.6488454341888428
121	121.33482313156128	response	0	j		119.0	/experiments/Knapen_AOT/AOT_stimuli/pictures/0254_fw.png	185.2597532272339	
122	121.35084056854248	picture	0		93	120.0	/experiments/Knapen_AOT/AOT_stimuli/pictures/1138_fw.png	185.2757706642151	0.7749617099761963
122	122.11770987510681	response	0	k		120.0	/experiments/Knapen_AOT/AOT_stimuli/pictures/1138_fw.png	186.04263997077942	
123	122.12580227851868	picture	0		140	121.0	/experiments/Knapen_AOT/AOT_stimuli/pictures/0567_fw.png	186.05073237419128	1.16668701171875
123	123.28459239006042	response	0	k		121.0	/experiments/Knapen_AOT/AOT_stimuli/pictures/0567_fw.png	187.20952248573303	
124	123.29248929023743	picture	0		112	122.0	/experiments/Knapen_AOT/AOT_stimuli/pictures/1414_fw.png	187.21741938591003	0.9417095184326172
124	124.21769142150879	response	0	j		122.0	/experiments/Knapen_AOT/AOT_stimuli/pictures/1414_fw.png	188.1426215171814	
125	124.23419880867004	picture	0		87	123.0	/experiments/Knapen_AOT/AOT_stimuli/pictures/1382_fw.png	188.15912890434265	0.7249710559844971
125	124.9511444568634	response	0	k		123.0	/experiments/Knapen_AOT/AOT_stimuli/pictures/1382_fw.png	188.876074552536	
126	124.95916986465454	picture	0		102	124.0	/experiments/Knapen_AOT/AOT_stimuli/pictures/0262_fw.png	188.88409996032715	0.8541674613952637
126	125.80111074447632	response	0	j		124.0	/experiments/Knapen_AOT/AOT_stimuli/pictures/0262_fw.png	189.72604084014893	
127	125.8133373260498	picture	0		96	125.0	/experiments/Knapen_AOT/AOT_stimuli/pictures/1992_fw.png	189.7382674217224	0.7985661029815674
127	126.6012544631958	response	0	k		125.0	/experiments/Knapen_AOT/AOT_stimuli/pictures/1992_fw.png	190.5261845588684	
128	126.61190342903137	picture	0		113	126.0	/experiments/Knapen_AOT/AOT_stimuli/pictures/1295_fw.png	190.53683352470398	0.9473202228546143
128	127.54274797439575	response	0	k		126.0	/experiments/Knapen_AOT/AOT_stimuli/pictures/1295_fw.png	191.46767807006836	
129	127.55922365188599	picture	0		130	127.0	/experiments/Knapen_AOT/AOT_stimuli/pictures/0383_fw.png	191.4841537475586	1.0916736125946045
129	128.63446760177612	response	0	k		127.0	/experiments/Knapen_AOT/AOT_stimuli/pictures/0383_fw.png	192.55939769744873	
130	128.6508972644806	picture	0		151	128.0	/experiments/Knapen_AOT/AOT_stimuli/pictures/0424_fw.png	192.5758273601532	1.2595674991607666
130	129.9011585712433	response	0	k		128.0	/experiments/Knapen_AOT/AOT_stimuli/pictures/0424_fw.png	193.8260886669159	
131	129.91046476364136	picture	0		135	129.0	/experiments/Knapen_AOT/AOT_stimuli/pictures/2070_fw.png	193.83539485931396	1.125028133392334
131	131.02616691589355	response	0	k		129.0	/experiments/Knapen_AOT/AOT_stimuli/pictures/2070_fw.png	194.95109701156616	
132	131.0354928970337	picture	0		80	130.0	/experiments/Knapen_AOT/AOT_stimuli/pictures/1084_fw.png	194.9604229927063	0.6737773418426514
132	131.69279646873474	response	0	j		130.0	/experiments/Knapen_AOT/AOT_stimuli/pictures/1084_fw.png	195.61772656440735	
133	131.70927023887634	picture	0		89	131.0	/experiments/Knapen_AOT/AOT_stimuli/pictures/1446_fw.png	195.63420033454895	0.7428827285766602
133	132.43576169013977	response	0	k		131.0	/experiments/Knapen_AOT/AOT_stimuli/pictures/1446_fw.png	196.36069178581238	
134	132.452152967453	picture	0		77	132.0	/experiments/Knapen_AOT/AOT_stimuli/pictures/0457_fw.png	196.3770830631256	0.6458499431610107
134	133.0844714641571	response	0	j		132.0	/experiments/Knapen_AOT/AOT_stimuli/pictures/0457_fw.png	197.0094015598297	
135	133.098002910614	picture	0		152	133.0	/experiments/Knapen_AOT/AOT_stimuli/pictures/0047_fw.png	197.02293300628662	1.2708663940429688
135	134.35963559150696	response	0	k		133.0	/experiments/Knapen_AOT/AOT_stimuli/pictures/0047_fw.png	198.28456568717957	
136	134.36886930465698	picture	0		104	134.0	/experiments/Knapen_AOT/AOT_stimuli/pictures/0706_fw.png	198.2937994003296	0.8749880790710449
136	135.22622418403625	response	0	k		134.0	/experiments/Knapen_AOT/AOT_stimuli/pictures/0706_fw.png	199.15115427970886	
137	135.24385738372803	picture	0		82	135.0	/experiments/Knapen_AOT/AOT_stimuli/pictures/1087_fw.png	199.16878747940063	0.6874761581420898
137	135.9178442955017	response	0	j		135.0	/experiments/Knapen_AOT/AOT_stimuli/pictures/1087_fw.png	199.84277439117432	
138	135.93133354187012	picture	0		86	136.0	/experiments/Knapen_AOT/AOT_stimuli/pictures/0850_fw.png	199.85626363754272	0.7222583293914795
138	136.6429362297058	response	0	k		136.0	/experiments/Knapen_AOT/AOT_stimuli/pictures/0850_fw.png	200.56786632537842	
139	136.6535918712616	picture	0		342	137.0	/experiments/Knapen_AOT/AOT_stimuli/pictures/1089_fw.png	200.5785219669342	2.8558006286621094
139	139.492915391922	response	0	j		137.0	/experiments/Knapen_AOT/AOT_stimuli/pictures/1089_fw.png	203.4178454875946	
140	139.5093924999237	picture	0		86	138.0	/experiments/Knapen_AOT/AOT_stimuli/pictures/1066_fw.png	203.4343225955963	0.7205967903137207
140	140.21788477897644	response	0	j		138.0	/experiments/Knapen_AOT/AOT_stimuli/pictures/1066_fw.png	204.14281487464905	
141	140.22998929023743	picture	0		261	139.0	/experiments/Knapen_AOT/AOT_stimuli/pictures/2091_fw.png	204.15491938591003	2.1794350147247314
141	142.39294171333313	response	0	j		139.0	/experiments/Knapen_AOT/AOT_stimuli/pictures/2091_fw.png	206.31787180900574	
142	142.40942430496216	picture	0		96	140.0	/experiments/Knapen_AOT/AOT_stimuli/pictures/0301_fw.png	206.33435440063477	0.7999958992004395
142	143.20123720169067	response	0	k		140.0	/experiments/Knapen_AOT/AOT_stimuli/pictures/0301_fw.png	207.12616729736328	
143	143.2094202041626	picture	0		103	141.0	/experiments/Knapen_AOT/AOT_stimuli/pictures/1675_fw.png	207.1343502998352	0.8609199523925781
143	144.05233001708984	response	0	k		141.0	/experiments/Knapen_AOT/AOT_stimuli/pictures/1675_fw.png	207.97726011276245	
144	144.07034015655518	picture	0		80	142.0	/experiments/Knapen_AOT/AOT_stimuli/pictures/1905_fw.png	207.99527025222778	0.6666228771209717
144	144.7263355255127	response	0	j		142.0	/experiments/Knapen_AOT/AOT_stimuli/pictures/1905_fw.png	208.6512656211853	
145	144.73696303367615	picture	0		95	143.0	/experiments/Knapen_AOT/AOT_stimuli/pictures/2061_fw.png	208.66189312934875	0.7974824905395508
145	145.51814889907837	response	0	j		143.0	/experiments/Knapen_AOT/AOT_stimuli/pictures/2061_fw.png	209.44307899475098	
146	145.5344455242157	picture	0		107	144.0	/experiments/Knapen_AOT/AOT_stimuli/pictures/0832_fw.png	209.4593756198883	0.9000189304351807
146	146.41796374320984	response	0	k		144.0	/experiments/Knapen_AOT/AOT_stimuli/pictures/0832_fw.png	210.34289383888245	
147	146.43446445465088	picture	0		255	145.0	/experiments/Knapen_AOT/AOT_stimuli/pictures/0996_fw.png	210.3593945503235	2.128858804702759
147	148.5513460636139	response	0	j		145.0	/experiments/Knapen_AOT/AOT_stimuli/pictures/0996_fw.png	212.4762761592865	
148	148.56332325935364	picture	0		86	146.0	/experiments/Knapen_AOT/AOT_stimuli/pictures/2137_fw.png	212.48825335502625	0.7211868762969971
148	149.26800966262817	response	0	j		146.0	/experiments/Knapen_AOT/AOT_stimuli/pictures/2137_fw.png	213.19293975830078	
149	149.28451013565063	picture	0		117	147.0	/experiments/Knapen_AOT/AOT_stimuli/pictures/0296_fw.png	213.20944023132324	0.9802508354187012
149	150.24406099319458	response	0	k		147.0	/experiments/Knapen_AOT/AOT_stimuli/pictures/0296_fw.png	214.1689910888672	
150	150.26476097106934	picture	0		86	148.0	/experiments/Knapen_AOT/AOT_stimuli/pictures/1991_fw.png	214.18969106674194	0.7223153114318848
150	150.9763560295105	response	0	k		148.0	/experiments/Knapen_AOT/AOT_stimuli/pictures/1991_fw.png	214.9012861251831	
151	150.98707628250122	picture	0		81	149.0	/experiments/Knapen_AOT/AOT_stimuli/pictures/0321_fw.png	214.91200637817383	0.8058433532714844
151	151.781311750412	response	0	j		149.0	/experiments/Knapen_AOT/AOT_stimuli/pictures/0321_fw.png	215.7062418460846	
152	151.7929196357727	picture	0		98	150.0	/experiments/Knapen_AOT/AOT_stimuli/pictures/1908_fw.png	215.7178497314453	0.8250110149383545
152	152.6013503074646	response	0	k		150.0	/experiments/Knapen_AOT/AOT_stimuli/pictures/1908_fw.png	216.5262804031372	
153	152.61793065071106	picture	0		525	151.0	/experiments/Knapen_AOT/AOT_stimuli/pictures/1556_fw.png	216.54286074638367	4.38330602645874
153	156.98467350006104	response	0	k		151.0	/experiments/Knapen_AOT/AOT_stimuli/pictures/1556_fw.png	220.90960359573364	
154	157.0012366771698	picture	0		345	152.0	/experiments/Knapen_AOT/AOT_stimuli/pictures/1548_fw.png	220.9261667728424	2.8750030994415283
154	159.86806869506836	response	0	j		152.0	/experiments/Knapen_AOT/AOT_stimuli/pictures/1548_fw.png	223.79299879074097	
155	159.87623977661133	picture	0		92	153.0	/experiments/Knapen_AOT/AOT_stimuli/pictures/1776_fw.png	223.80116987228394	0.7750370502471924
155	160.6347234249115	response	0	k		153.0	/experiments/Knapen_AOT/AOT_stimuli/pictures/1776_fw.png	224.5596535205841	
156	160.65127682685852	picture	0		132	154.0	/experiments/Knapen_AOT/AOT_stimuli/pictures/0898_fw.png	224.57620692253113	1.1083810329437256
156	161.743066072464	response	0	j		154.0	/experiments/Knapen_AOT/AOT_stimuli/pictures/0898_fw.png	225.6679961681366	
157	161.75965785980225	picture	0		84	155.0	/experiments/Knapen_AOT/AOT_stimuli/pictures/0105_fw.png	225.68458795547485	0.70831298828125
157	162.44396567344666	response	0	j		155.0	/experiments/Knapen_AOT/AOT_stimuli/pictures/0105_fw.png	226.36889576911926	
158	162.4679708480835	picture	0		124	156.0	/experiments/Knapen_AOT/AOT_stimuli/pictures/1018_fw.png	226.3929009437561	1.0333302021026611
158	163.4931037425995	response	0	k		156.0	/experiments/Knapen_AOT/AOT_stimuli/pictures/1018_fw.png	227.4180338382721	
159	163.50130105018616	picture	0		91	157.0	/experiments/Knapen_AOT/AOT_stimuli/pictures/1768_fw.png	227.42623114585876	0.763669490814209
159	164.24403738975525	response	0	k		157.0	/experiments/Knapen_AOT/AOT_stimuli/pictures/1768_fw.png	228.16896748542786	
160	164.26497054100037	picture	0		141	158.0	/experiments/Knapen_AOT/AOT_stimuli/pictures/0972_fw.png	228.18990063667297	1.1804711818695068
160	165.43488788604736	response	0	k		158.0	/experiments/Knapen_AOT/AOT_stimuli/pictures/0972_fw.png	229.35981798171997	
161	165.44544172286987	picture	0		74	159.0	/experiments/Knapen_AOT/AOT_stimuli/pictures/1566_fw.png	229.37037181854248	0.6180567741394043
161	166.044020652771	response	0	j		159.0	/experiments/Knapen_AOT/AOT_stimuli/pictures/1566_fw.png	229.9689507484436	
162	166.06349849700928	picture	0		106	160.0	/experiments/Knapen_AOT/AOT_stimuli/pictures/1019_fw.png	229.98842859268188	0.8888676166534424
162	166.94313406944275	response	0	k		160.0	/experiments/Knapen_AOT/AOT_stimuli/pictures/1019_fw.png	230.86806416511536	
163	166.95236611366272	picture	0		98	161.0	/experiments/Knapen_AOT/AOT_stimuli/pictures/1462_fw.png	230.87729620933533	0.8194339275360107
163	167.75982332229614	response	0	k		161.0	/experiments/Knapen_AOT/AOT_stimuli/pictures/1462_fw.png	231.68475341796875	
164	167.77180004119873	picture	0		172	162.0	/experiments/Knapen_AOT/AOT_stimuli/pictures/1319_fw.png	231.69673013687134	1.4379024505615234
164	169.19318461418152	response	0	k		162.0	/experiments/Knapen_AOT/AOT_stimuli/pictures/1319_fw.png	233.11811470985413	
165	169.20970249176025	picture	0		77	163.0	/experiments/Knapen_AOT/AOT_stimuli/pictures/2103_fw.png	233.13463258743286	0.6454617977142334
165	169.83586263656616	response	0	j		163.0	/experiments/Knapen_AOT/AOT_stimuli/pictures/2103_fw.png	233.76079273223877	
166	169.8551642894745	picture	0		153	164.0	/experiments/Knapen_AOT/AOT_stimuli/pictures/0496_fw.png	233.7800943851471	1.279573678970337
166	171.1181960105896	response	0	k		164.0	/experiments/Knapen_AOT/AOT_stimuli/pictures/0496_fw.png	235.0431261062622	
167	171.13473796844482	picture	0		78	165.0	/experiments/Knapen_AOT/AOT_stimuli/pictures/1580_fw.png	235.05966806411743	0.6583623886108398
167	171.7765121459961	response	0	j		165.0	/experiments/Knapen_AOT/AOT_stimuli/pictures/1580_fw.png	235.7014422416687	
168	171.79310035705566	picture	0		157	166.0	/experiments/Knapen_AOT/AOT_stimuli/pictures/0129_fw.png	235.71803045272827	1.3166542053222656
168	173.09324598312378	response	0	k		166.0	/experiments/Knapen_AOT/AOT_stimuli/pictures/0129_fw.png	237.0181760787964	
169	173.10975456237793	picture	0		90	167.0	/experiments/Knapen_AOT/AOT_stimuli/pictures/0185_fw.png	237.03468465805054	0.7524113655090332
169	173.85168838500977	response	0	j		167.0	/experiments/Knapen_AOT/AOT_stimuli/pictures/0185_fw.png	237.77661848068237	
170	173.86216592788696	picture	0		82	168.0	/experiments/Knapen_AOT/AOT_stimuli/pictures/0904_fw.png	237.78709602355957	0.6892678737640381
170	174.53492140769958	response	0	j		168.0	/experiments/Knapen_AOT/AOT_stimuli/pictures/0904_fw.png	238.4598515033722	
171	174.551433801651	picture	0		130	169.0	/experiments/Knapen_AOT/AOT_stimuli/pictures/0786_fw.png	238.4763638973236	1.0885140895843506
171	175.62665343284607	response	0	k		169.0	/experiments/Knapen_AOT/AOT_stimuli/pictures/0786_fw.png	239.55158352851868	
172	175.63994789123535	picture	0		115	170.0	/experiments/Knapen_AOT/AOT_stimuli/pictures/0387_fw.png	239.56487798690796	0.9652862548828125
172	176.59326219558716	response	0	j		170.0	/experiments/Knapen_AOT/AOT_stimuli/pictures/0387_fw.png	240.51819229125977	
173	176.60523414611816	picture	0		103	171.0	/experiments/Knapen_AOT/AOT_stimuli/pictures/1943_fw.png	240.53016424179077	0.8545324802398682
173	177.45188355445862	response	0	j		171.0	/experiments/Knapen_AOT/AOT_stimuli/pictures/1943_fw.png	241.37681365013123	
174	177.45976662635803	picture	0		111	172.0	/experiments/Knapen_AOT/AOT_stimuli/pictures/1402_fw.png	241.38469672203064	0.9302041530609131
174	178.37660813331604	response	0	k		172.0	/experiments/Knapen_AOT/AOT_stimuli/pictures/1402_fw.png	242.30153822898865	
175	178.38997077941895	picture	0		84	173.0	/experiments/Knapen_AOT/AOT_stimuli/pictures/1478_fw.png	242.31490087509155	0.7082953453063965
175	179.0849392414093	response	0	j		173.0	/experiments/Knapen_AOT/AOT_stimuli/pictures/1478_fw.png	243.0098693370819	
176	179.09826612472534	picture	0		102	174.0	/experiments/Knapen_AOT/AOT_stimuli/pictures/0821_fw.png	243.02319622039795	0.8542816638946533
176	179.94327354431152	response	0	j		174.0	/experiments/Knapen_AOT/AOT_stimuli/pictures/0821_fw.png	243.86820363998413	
177	179.95254778862	picture	0		87	175.0	/experiments/Knapen_AOT/AOT_stimuli/pictures/1793_fw.png	243.8774778842926	0.7290740013122559
177	180.66828441619873	response	0	j		175.0	/experiments/Knapen_AOT/AOT_stimuli/pictures/1793_fw.png	244.59321451187134	
178	180.68162178993225	picture	0		107	176.0	/experiments/Knapen_AOT/AOT_stimuli/pictures/0336_fw.png	244.60655188560486	0.8958358764648438
178	181.5683400630951	response	0	k		176.0	/experiments/Knapen_AOT/AOT_stimuli/pictures/0336_fw.png	245.4932701587677	
179	181.5774576663971	picture	0		71	177.0	/experiments/Knapen_AOT/AOT_stimuli/pictures/1920_fw.png	245.5023877620697	0.5906980037689209
179	182.1599977016449	response	0	j		177.0	/experiments/Knapen_AOT/AOT_stimuli/pictures/1920_fw.png	246.0849277973175	
180	182.16815567016602	picture	0		78	178.0	/experiments/Knapen_AOT/AOT_stimuli/pictures/0690_fw.png	246.09308576583862	0.652371883392334
180	182.81006956100464	response	0	j		178.0	/experiments/Knapen_AOT/AOT_stimuli/pictures/0690_fw.png	246.73499965667725	
181	182.82052755355835	picture	0		89	179.0	/experiments/Knapen_AOT/AOT_stimuli/pictures/1640_fw.png	246.74545764923096	0.7476541996002197
181	183.55167293548584	response	0	k		179.0	/experiments/Knapen_AOT/AOT_stimuli/pictures/1640_fw.png	247.47660303115845	
182	183.56818175315857	picture	0		113	180.0	/experiments/Knapen_AOT/AOT_stimuli/pictures/1359_fw.png	247.49311184883118	0.9468069076538086
182	184.50165247917175	response	0	k		180.0	/experiments/Knapen_AOT/AOT_stimuli/pictures/1359_fw.png	248.42658257484436	
183	184.51498866081238	picture	0		88	181.0	/experiments/Knapen_AOT/AOT_stimuli/pictures/0838_fw.png	248.43991875648499	0.744896411895752
183	185.2362403869629	response	0	k		181.0	/experiments/Knapen_AOT/AOT_stimuli/pictures/0838_fw.png	249.1611704826355	
184	185.25988507270813	picture	0		97	182.0	/experiments/Knapen_AOT/AOT_stimuli/pictures/0036_fw.png	249.18481516838074	0.8106589317321777
184	186.06012320518494	response	0	k		182.0	/experiments/Knapen_AOT/AOT_stimuli/pictures/0036_fw.png	249.98505330085754	
185	186.0705440044403	picture	0		112	183.0	/experiments/Knapen_AOT/AOT_stimuli/pictures/1698_fw.png	249.99547410011292	0.939359188079834
185	186.99346804618835	response	0	k		183.0	/experiments/Knapen_AOT/AOT_stimuli/pictures/1698_fw.png	250.91839814186096	
186	187.00990319252014	picture	0		116	184.0	/experiments/Knapen_AOT/AOT_stimuli/pictures/2017_fw.png	250.93483328819275	0.9749953746795654
186	187.96844696998596	response	0	k		184.0	/experiments/Knapen_AOT/AOT_stimuli/pictures/2017_fw.png	251.89337706565857	
187	187.9848985671997	picture	0		85	185.0	/experiments/Knapen_AOT/AOT_stimuli/pictures/1582_fw.png	251.90982866287231	0.7106635570526123
187	188.68516540527344	response	0	j		185.0	/experiments/Knapen_AOT/AOT_stimuli/pictures/1582_fw.png	252.61009550094604	
188	188.69556212425232	picture	0		93	186.0	/experiments/Knapen_AOT/AOT_stimuli/pictures/1934_fw.png	252.62049221992493	0.7778167724609375
188	189.46007442474365	response	0	k		186.0	/experiments/Knapen_AOT/AOT_stimuli/pictures/1934_fw.png	253.38500452041626	
189	189.47337889671326	picture	0		93	187.0	/experiments/Knapen_AOT/AOT_stimuli/pictures/1267_fw.png	253.39830899238586	0.7781968116760254
189	190.23596668243408	response	0	k		187.0	/experiments/Knapen_AOT/AOT_stimuli/pictures/1267_fw.png	254.1608967781067	
190	190.25157570838928	picture	0		111	188.0	/experiments/Knapen_AOT/AOT_stimuli/pictures/1386_fw.png	254.1765058040619	0.9301090240478516
190	191.16838097572327	response	0	k		188.0	/experiments/Knapen_AOT/AOT_stimuli/pictures/1386_fw.png	255.09331107139587	
191	191.18168473243713	picture	0		89	189.0	/experiments/Knapen_AOT/AOT_stimuli/pictures/0871_fw.png	255.10661482810974	0.7533295154571533
191	191.91839742660522	response	0	k		189.0	/experiments/Knapen_AOT/AOT_stimuli/pictures/0871_fw.png	255.84332752227783	
192	191.9350142478943	picture	0		195	190.0	/experiments/Knapen_AOT/AOT_stimuli/pictures/0028_fw.png	255.8599443435669	1.633406400680542
192	193.55180740356445	response	0	k		190.0	/experiments/Knapen_AOT/AOT_stimuli/pictures/0028_fw.png	257.47673749923706	
193	193.56842064857483	picture	0		91	191.0	/experiments/Knapen_AOT/AOT_stimuli/pictures/1683_fw.png	257.49335074424744	0.7591521739959717
193	194.31843519210815	response	0	k		191.0	/experiments/Knapen_AOT/AOT_stimuli/pictures/1683_fw.png	258.24336528778076	
194	194.3275728225708	picture	0		95	192.0	/experiments/Knapen_AOT/AOT_stimuli/pictures/1822_fw.png	258.2525029182434	0.7916364669799805
194	195.11018991470337	response	0	j		192.0	/experiments/Knapen_AOT/AOT_stimuli/pictures/1822_fw.png	259.035120010376	
195	195.11920928955078	picture	0		243	193.0	/experiments/Knapen_AOT/AOT_stimuli/pictures/1691_fw.png	259.0441393852234	2.0276989936828613
195	197.1351420879364	response	0	k		193.0	/experiments/Knapen_AOT/AOT_stimuli/pictures/1691_fw.png	261.060072183609	
196	197.14690828323364	picture	0		121	194.0	/experiments/Knapen_AOT/AOT_stimuli/pictures/1801_fw.png	261.07183837890625	1.0131416320800781
196	198.14352178573608	response	0	j		194.0	/experiments/Knapen_AOT/AOT_stimuli/pictures/1801_fw.png	262.0684518814087	
197	198.16004991531372	picture	0		114	195.0	/experiments/Knapen_AOT/AOT_stimuli/pictures/1358_fw.png	262.0849800109863	0.9522292613983154
197	199.10185027122498	response	0	j		195.0	/experiments/Knapen_AOT/AOT_stimuli/pictures/1358_fw.png	263.0267803668976	
198	199.11227917671204	picture	0		133	196.0	/experiments/Knapen_AOT/AOT_stimuli/pictures/1450_fw.png	263.03720927238464	1.1144404411315918
198	200.21019649505615	response	0	k		196.0	/experiments/Knapen_AOT/AOT_stimuli/pictures/1450_fw.png	264.13512659072876	
199	200.22671961784363	picture	0		83	197.0	/experiments/Knapen_AOT/AOT_stimuli/pictures/0149_fw.png	264.15164971351624	0.7000172138214111
199	200.9102439880371	response	0	k		197.0	/experiments/Knapen_AOT/AOT_stimuli/pictures/0149_fw.png	264.8351740837097	
200	200.92673683166504	picture	0		84	198.0	/experiments/Knapen_AOT/AOT_stimuli/pictures/1537_fw.png	264.85166692733765	0.6999666690826416
200	201.61858582496643	response	0	j		198.0	/experiments/Knapen_AOT/AOT_stimuli/pictures/1537_fw.png	265.54351592063904	
201	201.62670350074768	picture	0		208	199.0	/experiments/Knapen_AOT/AOT_stimuli/pictures/0070_fw.png	265.5516335964203	1.7355239391326904
201	203.35188937187195	response	0	k		199.0	/experiments/Knapen_AOT/AOT_stimuli/pictures/0070_fw.png	267.27681946754456	
202	203.36222743988037	picture	0		110	200.0	/experiments/Knapen_AOT/AOT_stimuli/pictures/0739_fw.png	267.287157535553	0.9229531288146973
202	204.26862120628357	response	0	j		200.0	/experiments/Knapen_AOT/AOT_stimuli/pictures/0739_fw.png	268.1935513019562	
203	204.28518056869507	picture	0		91	201.0	/experiments/Knapen_AOT/AOT_stimuli/pictures/1167_fw.png	268.2101106643677	0.7666122913360596
203	205.02810955047607	response	0	j		201.0	/experiments/Knapen_AOT/AOT_stimuli/pictures/1167_fw.png	268.9530396461487	
204	205.05179286003113	picture	0		90	202.0	/experiments/Knapen_AOT/AOT_stimuli/pictures/0464_fw.png	268.97672295570374	0.7583608627319336
204	205.79366302490234	response	0	k		202.0	/experiments/Knapen_AOT/AOT_stimuli/pictures/0464_fw.png	269.71859312057495	
205	205.81015372276306	picture	0		204	203.0	/experiments/Knapen_AOT/AOT_stimuli/pictures/1308_fw.png	269.73508381843567	1.7083146572113037
205	207.5019726753235	response	0	k		203.0	/experiments/Knapen_AOT/AOT_stimuli/pictures/1308_fw.png	271.4269027709961	
206	207.51846837997437	picture	0		84	204.0	/experiments/Knapen_AOT/AOT_stimuli/pictures/1141_fw.png	271.443398475647	0.7083475589752197
206	208.21025729179382	response	0	k		204.0	/experiments/Knapen_AOT/AOT_stimuli/pictures/1141_fw.png	272.13518738746643	
207	208.22681593894958	picture	0		123	205.0	/experiments/Knapen_AOT/AOT_stimuli/pictures/0005_fw.png	272.1517460346222	1.0313398838043213
207	209.2437605857849	response	0	k		205.0	/experiments/Knapen_AOT/AOT_stimuli/pictures/0005_fw.png	273.1686906814575	
208	209.2581558227539	picture	0		76	206.0	/experiments/Knapen_AOT/AOT_stimuli/pictures/0158_fw.png	273.1830859184265	0.6389589309692383
208	209.8853280544281	response	0	j		206.0	/experiments/Knapen_AOT/AOT_stimuli/pictures/0158_fw.png	273.8102581501007	
209	209.89711475372314	picture	0		89	207.0	/experiments/Knapen_AOT/AOT_stimuli/pictures/0090_fw.png	273.82204484939575	0.7463853359222412
209	210.62024569511414	response	0	k		207.0	/experiments/Knapen_AOT/AOT_stimuli/pictures/0090_fw.png	274.54517579078674	
210	210.64350008964539	picture	0		90	208.0	/experiments/Knapen_AOT/AOT_stimuli/pictures/1301_fw.png	274.568430185318	0.7583539485931396
210	211.38531637191772	response	0	j		208.0	/experiments/Knapen_AOT/AOT_stimuli/pictures/1301_fw.png	275.31024646759033	
211	211.40185403823853	picture	0		85	209.0	/experiments/Knapen_AOT/AOT_stimuli/pictures/2077_fw.png	275.32678413391113	0.7166743278503418
211	212.10203742980957	response	0	j		209.0	/experiments/Knapen_AOT/AOT_stimuli/pictures/2077_fw.png	276.0269675254822	
212	212.11852836608887	picture	0		94	210.0	/experiments/Knapen_AOT/AOT_stimuli/pictures/0016_fw.png	276.0434584617615	0.7855124473571777
212	212.8937599658966	response	0	k		210.0	/experiments/Knapen_AOT/AOT_stimuli/pictures/0016_fw.png	276.8186900615692	
213	212.90404081344604	picture	0		124	211.0	/experiments/Knapen_AOT/AOT_stimuli/pictures/2129_fw.png	276.82897090911865	1.0395033359527588
213	213.92723751068115	response	0	j		211.0	/experiments/Knapen_AOT/AOT_stimuli/pictures/2129_fw.png	277.85216760635376	
214	213.9435441493988	picture	0		473	212.0	/experiments/Knapen_AOT/AOT_stimuli/pictures/0566_fw.png	277.8684742450714	3.9500489234924316
214	217.8770453929901	response	0	j		212.0	/experiments/Knapen_AOT/AOT_stimuli/pictures/0566_fw.png	281.8019754886627	
215	217.89359307289124	picture	0		88	213.0	/experiments/Knapen_AOT/AOT_stimuli/pictures/1807_fw.png	281.81852316856384	0.739652156829834
215	218.61878514289856	response	0	k		213.0	/experiments/Knapen_AOT/AOT_stimuli/pictures/1807_fw.png	282.54371523857117	
216	218.63324522972107	picture	0		81	214.0	/experiments/Knapen_AOT/AOT_stimuli/pictures/0385_fw.png	282.5581753253937	0.685359001159668
216	219.30215692520142	response	0	j		214.0	/experiments/Knapen_AOT/AOT_stimuli/pictures/0385_fw.png	283.227087020874	
217	219.31860423088074	picture	0		138	215.0	/experiments/Knapen_AOT/AOT_stimuli/pictures/1501_fw.png	283.24353432655334	1.1584079265594482
217	220.4603786468506	response	0	k		215.0	/experiments/Knapen_AOT/AOT_stimuli/pictures/1501_fw.png	284.3853087425232	
218	220.47701215744019	picture	0		116	216.0	/experiments/Knapen_AOT/AOT_stimuli/pictures/0931_fw.png	284.4019422531128	0.9687387943267822
218	221.4288740158081	response	0	k		216.0	/experiments/Knapen_AOT/AOT_stimuli/pictures/0931_fw.png	285.3538041114807	
219	221.44575095176697	picture	0		100	217.0	/experiments/Knapen_AOT/AOT_stimuli/pictures/1880_fw.png	285.3706810474396	0.8333353996276855
219	222.26881742477417	response	0	k		217.0	/experiments/Knapen_AOT/AOT_stimuli/pictures/1880_fw.png	286.1937475204468	
220	222.27908635139465	picture	0		96	218.0	/experiments/Knapen_AOT/AOT_stimuli/pictures/1731_fw.png	286.20401644706726	0.7986197471618652
220	223.06876230239868	response	0	j		218.0	/experiments/Knapen_AOT/AOT_stimuli/pictures/1731_fw.png	286.9936923980713	
221	223.07770609855652	picture	0		91	219.0	/experiments/Knapen_AOT/AOT_stimuli/pictures/0870_fw.png	287.0026361942291	0.7659580707550049
221	223.82711553573608	response	0	j		219.0	/experiments/Knapen_AOT/AOT_stimuli/pictures/0870_fw.png	287.7520456314087	
222	223.84366416931152	picture	0		117	220.0	/experiments/Knapen_AOT/AOT_stimuli/pictures/2041_fw.png	287.76859426498413	0.9771161079406738
222	224.8104763031006	response	0	k		220.0	/experiments/Knapen_AOT/AOT_stimuli/pictures/2041_fw.png	288.7354063987732	
223	224.8207802772522	picture	0		77	221.0	/experiments/Knapen_AOT/AOT_stimuli/pictures/0164_fw.png	288.7457103729248	0.6479012966156006
223	225.45291662216187	response	0	j		221.0	/experiments/Knapen_AOT/AOT_stimuli/pictures/0164_fw.png	289.3778467178345	
224	225.4686815738678	picture	0		72	222.0	/experiments/Knapen_AOT/AOT_stimuli/pictures/1352_fw.png	289.3936116695404	0.6022138595581055
224	226.06054210662842	response	0	j		222.0	/experiments/Knapen_AOT/AOT_stimuli/pictures/1352_fw.png	289.985472202301	
225	226.0708954334259	picture	0		98	223.0	/experiments/Knapen_AOT/AOT_stimuli/pictures/0977_fw.png	289.9958255290985	0.8193564414978027
225	226.87715315818787	response	0	k		223.0	/experiments/Knapen_AOT/AOT_stimuli/pictures/0977_fw.png	290.8020832538605	
226	226.8902518749237	picture	0		73	224.0	/experiments/Knapen_AOT/AOT_stimuli/pictures/1374_fw.png	290.8151819705963	0.6041557788848877
226	227.48555779457092	response	0	j		224.0	/experiments/Knapen_AOT/AOT_stimuli/pictures/1374_fw.png	291.41048789024353	
227	227.4944076538086	picture	0		87	225.0	/experiments/Knapen_AOT/AOT_stimuli/pictures/1869_fw.png	291.4193377494812	0.7292182445526123
227	228.2105188369751	response	0	j		225.0	/experiments/Knapen_AOT/AOT_stimuli/pictures/1869_fw.png	292.1354489326477	
228	228.2236258983612	picture	0		86	226.0	/experiments/Knapen_AOT/AOT_stimuli/pictures/0043_fw.png	292.1485559940338	0.7152292728424072
228	228.92719054222107	response	0	j		226.0	/experiments/Knapen_AOT/AOT_stimuli/pictures/0043_fw.png	292.8521206378937	
229	228.9388551712036	picture	0		137	227.0	/experiments/Knapen_AOT/AOT_stimuli/pictures/0285_fw.png	292.8637852668762	1.1465580463409424
229	230.06912875175476	response	0	k		227.0	/experiments/Knapen_AOT/AOT_stimuli/pictures/0285_fw.png	293.99405884742737	
230	230.08541321754456	picture	0		100	228.0	/experiments/Knapen_AOT/AOT_stimuli/pictures/0256_fw.png	294.01034331321716	0.8395719528198242
230	230.91058468818665	response	0	k		228.0	/experiments/Knapen_AOT/AOT_stimuli/pictures/0256_fw.png	294.83551478385925	
231	230.92498517036438	picture	0		86	229.0	/experiments/Knapen_AOT/AOT_stimuli/pictures/2157_fw.png	294.849915266037	0.722236156463623
231	231.62833714485168	response	0	j		229.0	/experiments/Knapen_AOT/AOT_stimuli/pictures/2157_fw.png	295.5532672405243	
232	231.647221326828	picture	0		74	230.0	/experiments/Knapen_AOT/AOT_stimuli/pictures/1282_fw.png	295.5721514225006	0.6215288639068604
232	232.25219559669495	response	0	j		230.0	/experiments/Knapen_AOT/AOT_stimuli/pictures/1282_fw.png	296.17712569236755	
233	232.26875019073486	picture	0		131	231.0	/experiments/Knapen_AOT/AOT_stimuli/pictures/1116_fw.png	296.19368028640747	1.0937447547912598
233	233.3523428440094	response	0	j		231.0	/experiments/Knapen_AOT/AOT_stimuli/pictures/1116_fw.png	297.277272939682	
234	233.36249494552612	picture	0		104	232.0	/experiments/Knapen_AOT/AOT_stimuli/pictures/1249_fw.png	297.28742504119873	0.868107795715332
234	234.21176648139954	response	0	k		232.0	/experiments/Knapen_AOT/AOT_stimuli/pictures/1249_fw.png	298.13669657707214	
235	234.23060274124146	picture	0		73	233.0	/experiments/Knapen_AOT/AOT_stimuli/pictures/1877_fw.png	298.15553283691406	0.6110913753509521
235	234.81987166404724	response	0	j		233.0	/experiments/Knapen_AOT/AOT_stimuli/pictures/1877_fw.png	298.74480175971985	
236	234.8416941165924	picture	0		91	234.0	/experiments/Knapen_AOT/AOT_stimuli/pictures/0441_fw.png	298.766624212265	0.7638981342315674
236	235.59393405914307	response	0	j		234.0	/experiments/Knapen_AOT/AOT_stimuli/pictures/0441_fw.png	299.5188641548157	
237	235.60559225082397	picture	0		230	235.0	/experiments/Knapen_AOT/AOT_stimuli/pictures/1929_fw.png	299.5305223464966	1.916560411453247
237	237.5106074810028	response	0	k		235.0	/experiments/Knapen_AOT/AOT_stimuli/pictures/1929_fw.png	301.4355375766754	
238	237.52215266227722	picture	0		79	236.0	/experiments/Knapen_AOT/AOT_stimuli/pictures/1952_fw.png	301.44708275794983	0.6598522663116455
238	238.1689646244049	response	0	k		236.0	/experiments/Knapen_AOT/AOT_stimuli/pictures/1952_fw.png	302.0938947200775	
239	238.18200492858887	picture	0		94	237.0	/experiments/Knapen_AOT/AOT_stimuli/pictures/1658_fw.png	302.1069350242615	0.7868716716766357
239	238.95240831375122	response	0	k		237.0	/experiments/Knapen_AOT/AOT_stimuli/pictures/1658_fw.png	302.8773384094238	
240	238.9688766002655	picture	0		96	238.0	/experiments/Knapen_AOT/AOT_stimuli/pictures/2095_fw.png	302.8938066959381	0.8082940578460693
240	239.76068925857544	response	0	k		238.0	/experiments/Knapen_AOT/AOT_stimuli/pictures/2095_fw.png	303.68561935424805	
241	239.77717065811157	picture	0		85	239.0	/experiments/Knapen_AOT/AOT_stimuli/pictures/0103_fw.png	303.7021007537842	0.7103877067565918
241	240.4773235321045	response	0	j		239.0	/experiments/Knapen_AOT/AOT_stimuli/pictures/0103_fw.png	304.4022536277771	
242	240.48755836486816	picture	0		101	240.0	/experiments/Knapen_AOT/AOT_stimuli/pictures/0162_fw.png	304.41248846054077	0.8479492664337158
242	241.3190038204193	response	0	j		240.0	/experiments/Knapen_AOT/AOT_stimuli/pictures/0162_fw.png	305.2439339160919	
243	241.33550763130188	picture	0		79	241.0	/experiments/Knapen_AOT/AOT_stimuli/pictures/1174_fw.png	305.2604377269745	0.6666796207427979
243	241.98579216003418	response	0	j		241.0	/experiments/Knapen_AOT/AOT_stimuli/pictures/1174_fw.png	305.9107222557068	
244	242.00218725204468	picture	0		78	242.0	/experiments/Knapen_AOT/AOT_stimuli/pictures/0178_fw.png	305.9271173477173	0.658348798751831
244	242.6442413330078	response	0	j		242.0	/experiments/Knapen_AOT/AOT_stimuli/pictures/0178_fw.png	306.5691714286804	
245	242.6605360507965	picture	0		124	243.0	/experiments/Knapen_AOT/AOT_stimuli/pictures/2011_fw.png	306.5854661464691	1.0353789329528809
245	243.68567848205566	response	0	k		243.0	/experiments/Knapen_AOT/AOT_stimuli/pictures/2011_fw.png	307.61060857772827	
246	243.6959149837494	picture	0		108	244.0	/experiments/Knapen_AOT/AOT_stimuli/pictures/0367_fw.png	307.620845079422	0.9027767181396484
246	244.58566737174988	response	0	j		244.0	/experiments/Knapen_AOT/AOT_stimuli/pictures/0367_fw.png	308.5105974674225	
247	244.59869170188904	picture	0		173	245.0	/experiments/Knapen_AOT/AOT_stimuli/pictures/1803_fw.png	308.52362179756165	1.4535577297210693
247	246.0289978981018	response	0	k		245.0	/experiments/Knapen_AOT/AOT_stimuli/pictures/1803_fw.png	309.9539279937744	
248	246.0522494316101	picture	0		128	246.0	/experiments/Knapen_AOT/AOT_stimuli/pictures/0918_fw.png	309.9771795272827	1.0672862529754639
248	247.11069130897522	response	0	k		246.0	/experiments/Knapen_AOT/AOT_stimuli/pictures/0918_fw.png	311.0356214046478	
249	247.11953568458557	picture	0		78	247.0	/experiments/Knapen_AOT/AOT_stimuli/pictures/0845_fw.png	311.0444657802582	0.6528363227844238
249	247.76076579093933	response	0	j		247.0	/experiments/Knapen_AOT/AOT_stimuli/pictures/0845_fw.png	311.68569588661194	
250	247.77237200737	picture	0		114	248.0	/experiments/Knapen_AOT/AOT_stimuli/pictures/0609_fw.png	311.6973021030426	0.9513330459594727
250	248.71071672439575	response	0	j		248.0	/experiments/Knapen_AOT/AOT_stimuli/pictures/0609_fw.png	312.63564682006836	
251	248.72370505332947	picture	0		94	249.0	/experiments/Knapen_AOT/AOT_stimuli/pictures/0775_fw.png	312.6486351490021	0.7953341007232666
251	249.50243163108826	response	0	k		249.0	/experiments/Knapen_AOT/AOT_stimuli/pictures/0775_fw.png	313.42736172676086	
252	249.51903915405273	picture	0		70	250.0	/experiments/Knapen_AOT/AOT_stimuli/pictures/1039_fw.png	313.44396924972534	0.586622953414917
252	250.09414720535278	response	0	j		250.0	/experiments/Knapen_AOT/AOT_stimuli/pictures/1039_fw.png	314.0190773010254	
253	250.10566210746765	picture	0		258	251.0	/experiments/Knapen_AOT/AOT_stimuli/pictures/1080_fw.png	314.03059220314026	2.15500545501709
253	252.24414587020874	response	0	k		251.0	/experiments/Knapen_AOT/AOT_stimuli/pictures/1080_fw.png	316.16907596588135	
254	252.26066756248474	picture	0		102	252.0	/experiments/Knapen_AOT/AOT_stimuli/pictures/0319_fw.png	316.18559765815735	0.8583424091339111
254	253.10254979133606	response	0	k		252.0	/experiments/Knapen_AOT/AOT_stimuli/pictures/0319_fw.png	317.02747988700867	
255	253.11900997161865	picture	0		92	253.0	/experiments/Knapen_AOT/AOT_stimuli/pictures/0379_fw.png	317.04394006729126	0.7749991416931152
255	253.87748503684998	response	0	k		253.0	/experiments/Knapen_AOT/AOT_stimuli/pictures/0379_fw.png	317.8024151325226	
256	253.89400911331177	picture	0		124	254.0	/experiments/Knapen_AOT/AOT_stimuli/pictures/1493_fw.png	317.8189392089844	1.0380609035491943
256	254.91915321350098	response	0	k		254.0	/experiments/Knapen_AOT/AOT_stimuli/pictures/1493_fw.png	318.8440833091736	
257	254.93207001686096	picture	0		120	255.0	/experiments/Knapen_AOT/AOT_stimuli/pictures/1676_fw.png	318.85700011253357	1.011960506439209
257	255.92750144004822	response	0	j		255.0	/experiments/Knapen_AOT/AOT_stimuli/pictures/1676_fw.png	319.8524315357208	
258	255.94403052330017	picture	0		139	256.0	/experiments/Knapen_AOT/AOT_stimuli/pictures/1022_fw.png	319.8689606189728	1.1617131233215332
258	257.09419989585876	response	0	k		256.0	/experiments/Knapen_AOT/AOT_stimuli/pictures/1022_fw.png	321.0191299915314	
259	257.1057436466217	picture	0		220	257.0	/experiments/Knapen_AOT/AOT_stimuli/pictures/1856_fw.png	321.0306737422943	1.8383328914642334
259	258.92754006385803	response	0	j		257.0	/experiments/Knapen_AOT/AOT_stimuli/pictures/1856_fw.png	322.85247015953064	
260	258.94407653808594	picture	0		99	258.0	/experiments/Knapen_AOT/AOT_stimuli/pictures/0666_fw.png	322.86900663375854	0.8333752155303955
260	259.7609510421753	response	0	k		258.0	/experiments/Knapen_AOT/AOT_stimuli/pictures/0666_fw.png	323.6858811378479	
261	259.77745175361633	picture	0		95	259.0	/experiments/Knapen_AOT/AOT_stimuli/pictures/0934_fw.png	323.70238184928894	0.7999637126922607
261	260.5610067844391	response	0	k		259.0	/experiments/Knapen_AOT/AOT_stimuli/pictures/0934_fw.png	324.4859368801117	
262	260.5774154663086	picture	0		127	260.0	/experiments/Knapen_AOT/AOT_stimuli/pictures/1753_fw.png	324.5023455619812	1.0631089210510254
262	261.6203329563141	response	0	k		260.0	/experiments/Knapen_AOT/AOT_stimuli/pictures/1753_fw.png	325.5452630519867	
263	261.6405243873596	picture	0		108	261.0	/experiments/Knapen_AOT/AOT_stimuli/pictures/1186_fw.png	325.5654544830322	0.9119291305541992
263	262.53591418266296	response	0	k		261.0	/experiments/Knapen_AOT/AOT_stimuli/pictures/1186_fw.png	326.46084427833557	
264	262.5524535179138	picture	0		102	262.0	/experiments/Knapen_AOT/AOT_stimuli/pictures/1961_fw.png	326.4773836135864	0.8519012928009033
264	263.3942279815674	response	0	k		262.0	/experiments/Knapen_AOT/AOT_stimuli/pictures/1961_fw.png	327.31915807724	
265	263.4043548107147	picture	0		78	263.0	/experiments/Knapen_AOT/AOT_stimuli/pictures/0783_fw.png	327.32928490638733	0.6565124988555908
265	264.04432344436646	response	0	j		263.0	/experiments/Knapen_AOT/AOT_stimuli/pictures/0783_fw.png	327.96925354003906	
266	264.0608673095703	picture	0		74	264.0	/experiments/Knapen_AOT/AOT_stimuli/pictures/0168_fw.png	327.9857974052429	0.6212897300720215
266	264.66926527023315	response	0	j		264.0	/experiments/Knapen_AOT/AOT_stimuli/pictures/0168_fw.png	328.59419536590576	
267	264.68215703964233	picture	0		302	265.0	/experiments/Knapen_AOT/AOT_stimuli/pictures/0876_fw.png	328.60708713531494	2.5204150676727295
267	267.1859612464905	response	0	k		265.0	/experiments/Knapen_AOT/AOT_stimuli/pictures/0876_fw.png	331.1108913421631	
268	267.20257210731506	picture	0		112	266.0	/experiments/Knapen_AOT/AOT_stimuli/pictures/0163_fw.png	331.12750220298767	0.9416046142578125
268	268.1276412010193	response	0	k		266.0	/experiments/Knapen_AOT/AOT_stimuli/pictures/0163_fw.png	332.0525712966919	
269	268.1441767215729	picture	0		80	267.0	/experiments/Knapen_AOT/AOT_stimuli/pictures/1800_fw.png	332.0691068172455	0.6750297546386719
269	268.802695274353	response	0	j		267.0	/experiments/Knapen_AOT/AOT_stimuli/pictures/1800_fw.png	332.72762537002563	
270	268.81920647621155	picture	0		89	268.0	/experiments/Knapen_AOT/AOT_stimuli/pictures/1320_fw.png	332.74413657188416	0.749974250793457
270	269.5526907444	response	0	k		268.0	/experiments/Knapen_AOT/AOT_stimuli/pictures/1320_fw.png	333.47762084007263	
271	269.569180727005	picture	0		86	269.0	/experiments/Knapen_AOT/AOT_stimuli/pictures/0430_fw.png	333.4941108226776	0.7171673774719238
271	270.2776668071747	response	0	j		269.0	/experiments/Knapen_AOT/AOT_stimuli/pictures/0430_fw.png	334.2025969028473	
272	270.28634810447693	picture	0		97	270.0	/experiments/Knapen_AOT/AOT_stimuli/pictures/1955_fw.png	334.21127820014954	0.812628984451294
272	271.08597350120544	response	0	k		270.0	/experiments/Knapen_AOT/AOT_stimuli/pictures/1955_fw.png	335.01090359687805	
273	271.0989770889282	picture	0		113	271.0	/experiments/Knapen_AOT/AOT_stimuli/pictures/0645_fw.png	335.02390718460083	0.9535632133483887
273	272.0365252494812	response	0	k		271.0	/experiments/Knapen_AOT/AOT_stimuli/pictures/0645_fw.png	335.9614553451538	
274	272.0525403022766	picture	0		90	272.0	/experiments/Knapen_AOT/AOT_stimuli/pictures/1040_fw.png	335.9774703979492	0.7583696842193604
274	272.7943260669708	response	0	j		272.0	/experiments/Knapen_AOT/AOT_stimuli/pictures/1040_fw.png	336.71925616264343	
275	272.810909986496	picture	0		73	273.0	/experiments/Knapen_AOT/AOT_stimuli/pictures/1509_fw.png	336.7358400821686	0.616671085357666
275	273.4110960960388	response	0	j		273.0	/experiments/Knapen_AOT/AOT_stimuli/pictures/1509_fw.png	337.3360261917114	
276	273.42758107185364	picture	0		103	274.0	/experiments/Knapen_AOT/AOT_stimuli/pictures/1617_fw.png	337.35251116752625	0.8666477203369141
276	274.27769136428833	response	0	k		274.0	/experiments/Knapen_AOT/AOT_stimuli/pictures/1617_fw.png	338.20262145996094	
277	274.29422879219055	picture	0		91	275.0	/experiments/Knapen_AOT/AOT_stimuli/pictures/0698_fw.png	338.21915888786316	0.7667346000671387
277	275.0443618297577	response	0	k		275.0	/experiments/Knapen_AOT/AOT_stimuli/pictures/0698_fw.png	338.9692919254303	
278	275.0609633922577	picture	0		101	276.0	/experiments/Knapen_AOT/AOT_stimuli/pictures/1220_fw.png	338.9858934879303	0.8499698638916016
278	275.8944137096405	response	0	k		276.0	/experiments/Knapen_AOT/AOT_stimuli/pictures/1220_fw.png	339.8193438053131	
279	275.9109332561493	picture	0		182	277.0	/experiments/Knapen_AOT/AOT_stimuli/pictures/1647_fw.png	339.8358633518219	1.5211875438690186
279	277.41199135780334	response	0	k		277.0	/experiments/Knapen_AOT/AOT_stimuli/pictures/1647_fw.png	341.33692145347595	
280	277.4321208000183	picture	0		75	278.0	/experiments/Knapen_AOT/AOT_stimuli/pictures/0665_fw.png	341.3570508956909	0.6251120567321777
280	278.0444314479828	response	0	k		278.0	/experiments/Knapen_AOT/AOT_stimuli/pictures/0665_fw.png	341.9693615436554	
281	278.0572328567505	picture	0		103	279.0	/experiments/Knapen_AOT/AOT_stimuli/pictures/1614_fw.png	341.9821629524231	0.8620491027832031
281	278.9027564525604	response	0	k		279.0	/experiments/Knapen_AOT/AOT_stimuli/pictures/1614_fw.png	342.82768654823303	
282	278.9192819595337	picture	0		180	280.0	/experiments/Knapen_AOT/AOT_stimuli/pictures/0334_fw.png	342.8442120552063	1.5083661079406738
282	280.4111204147339	response	0	j		280.0	/experiments/Knapen_AOT/AOT_stimuli/pictures/0334_fw.png	344.3360505104065	
283	280.42764806747437	picture	0		97	281.0	/experiments/Knapen_AOT/AOT_stimuli/pictures/2027_fw.png	344.352578163147	0.8167052268981934
283	281.22801446914673	response	0	j		281.0	/experiments/Knapen_AOT/AOT_stimuli/pictures/2027_fw.png	345.15294456481934	
284	281.24435329437256	picture	0		90	282.0	/experiments/Knapen_AOT/AOT_stimuli/pictures/0218_fw.png	345.16928339004517	0.758298397064209
284	281.9861059188843	response	0	k		282.0	/experiments/Knapen_AOT/AOT_stimuli/pictures/0218_fw.png	345.9110360145569	
285	282.00265169143677	picture	0		99	283.0	/experiments/Knapen_AOT/AOT_stimuli/pictures/1207_fw.png	345.9275817871094	0.8254246711730957
285	282.8121473789215	response	0	k		283.0	/experiments/Knapen_AOT/AOT_stimuli/pictures/1207_fw.png	346.7370774745941	
286	282.82807636260986	picture	0		136	284.0	/experiments/Knapen_AOT/AOT_stimuli/pictures/0677_fw.png	346.75300645828247	1.141310453414917
286	283.95281171798706	response	0	k		284.0	/experiments/Knapen_AOT/AOT_stimuli/pictures/0677_fw.png	347.87774181365967	
287	283.9693868160248	picture	0		95	285.0	/experiments/Knapen_AOT/AOT_stimuli/pictures/1258_fw.png	347.8943169116974	0.7962400913238525
287	284.75282168388367	response	0	j		285.0	/experiments/Knapen_AOT/AOT_stimuli/pictures/1258_fw.png	348.6777517795563	
288	284.76562690734863	picture	0		148	286.0	/experiments/Knapen_AOT/AOT_stimuli/pictures/0388_fw.png	348.69055700302124	1.2431015968322754
288	285.99453473091125	response	0	j		286.0	/experiments/Knapen_AOT/AOT_stimuli/pictures/0388_fw.png	349.91946482658386	
289	286.0087285041809	picture	0		100	287.0	/experiments/Knapen_AOT/AOT_stimuli/pictures/0072_fw.png	349.9336585998535	0.8440499305725098
289	286.83616828918457	response	0	j		287.0	/experiments/Knapen_AOT/AOT_stimuli/pictures/0072_fw.png	350.7610983848572	
290	286.8527784347534	picture	0		87	288.0	/experiments/Knapen_AOT/AOT_stimuli/pictures/0507_fw.png	350.777708530426	0.7332673072814941
290	287.5695147514343	response	0	j		288.0	/experiments/Knapen_AOT/AOT_stimuli/pictures/0507_fw.png	351.49444484710693	
291	287.5860457420349	picture	0		85	289.0	/experiments/Knapen_AOT/AOT_stimuli/pictures/0108_fw.png	351.5109758377075	0.7143073081970215
291	288.2862238883972	response	0	j		289.0	/experiments/Knapen_AOT/AOT_stimuli/pictures/0108_fw.png	352.2111539840698	
292	288.30035305023193	picture	0		80	290.0	/experiments/Knapen_AOT/AOT_stimuli/pictures/0670_fw.png	352.22528314590454	0.6773936748504639
292	288.96119022369385	response	0	j		290.0	/experiments/Knapen_AOT/AOT_stimuli/pictures/0670_fw.png	352.88612031936646	
293	288.9777467250824	picture	0		76	291.0	/experiments/Knapen_AOT/AOT_stimuli/pictures/1693_fw.png	352.902676820755	0.6416881084442139
293	289.6033775806427	response	0	j		291.0	/experiments/Knapen_AOT/AOT_stimuli/pictures/1693_fw.png	353.5283076763153	
294	289.6194348335266	picture	0		76	292.0	/experiments/Knapen_AOT/AOT_stimuli/pictures/2123_fw.png	353.5443649291992	0.6392667293548584
294	290.24462127685547	response	0	j		292.0	/experiments/Knapen_AOT/AOT_stimuli/pictures/2123_fw.png	354.1695513725281	
295	290.25870156288147	picture	0		124	293.0	/experiments/Knapen_AOT/AOT_stimuli/pictures/1826_fw.png	354.1836316585541	1.0441009998321533
295	291.2862424850464	response	0	j		293.0	/experiments/Knapen_AOT/AOT_stimuli/pictures/1826_fw.png	355.211172580719	
296	291.3028025627136	picture	0		84	294.0	/experiments/Knapen_AOT/AOT_stimuli/pictures/0395_fw.png	355.22773265838623	0.7082998752593994
296	291.9945967197418	response	0	j		294.0	/experiments/Knapen_AOT/AOT_stimuli/pictures/0395_fw.png	355.91952681541443	
297	292.011102437973	picture	0		196	295.0	/experiments/Knapen_AOT/AOT_stimuli/pictures/1165_fw.png	355.93603253364563	1.6363980770111084
297	293.63628244400024	response	0	k		295.0	/experiments/Knapen_AOT/AOT_stimuli/pictures/1165_fw.png	357.56121253967285	
298	293.64750051498413	picture	0		85	296.0	/experiments/Knapen_AOT/AOT_stimuli/pictures/2031_fw.png	357.57243061065674	0.7136199474334717
298	294.34462308883667	response	0	j		296.0	/experiments/Knapen_AOT/AOT_stimuli/pictures/2031_fw.png	358.2695531845093	
299	294.3611204624176	picture	0		86	297.0	/experiments/Knapen_AOT/AOT_stimuli/pictures/1995_fw.png	358.2860505580902	0.7170076370239258
299	295.06966948509216	response	0	j		297.0	/experiments/Knapen_AOT/AOT_stimuli/pictures/1995_fw.png	358.99459958076477	
300	295.0781280994415	picture	0		86	298.0	/experiments/Knapen_AOT/AOT_stimuli/pictures/2052_fw.png	359.00305819511414	0.7222681045532227
300	295.7863070964813	response	0	k		298.0	/experiments/Knapen_AOT/AOT_stimuli/pictures/2052_fw.png	359.71123719215393	
301	295.80039620399475	picture	0		104	299.0	/experiments/Knapen_AOT/AOT_stimuli/pictures/1764_fw.png	359.72532629966736	0.8774590492248535
301	296.6615319252014	response	0	k		299.0	/experiments/Knapen_AOT/AOT_stimuli/pictures/1764_fw.png	360.586462020874	
302	296.6778552532196	picture	0		82	300.0	/experiments/Knapen_AOT/AOT_stimuli/pictures/0282_fw.png	360.6027853488922	0.6916656494140625
302	297.3530743122101	response	0	k		300.0	/experiments/Knapen_AOT/AOT_stimuli/pictures/0282_fw.png	361.2780044078827	
303	297.36952090263367	picture	0		103	301.0	/experiments/Knapen_AOT/AOT_stimuli/pictures/0806_fw.png	361.2944509983063	0.8666770458221436
303	298.21200370788574	response	0	j		301.0	/experiments/Knapen_AOT/AOT_stimuli/pictures/0806_fw.png	362.13693380355835	
304	298.2361979484558	picture	0		86	302.0	/experiments/Knapen_AOT/AOT_stimuli/pictures/1871_fw.png	362.1611280441284	0.7249720096588135
304	298.94475650787354	response	0	k		302.0	/experiments/Knapen_AOT/AOT_stimuli/pictures/1871_fw.png	362.86968660354614	
305	298.9611699581146	picture	0		80	303.0	/experiments/Knapen_AOT/AOT_stimuli/pictures/0559_fw.png	362.88610005378723	0.6725735664367676
305	299.61206436157227	response	0	k		303.0	/experiments/Knapen_AOT/AOT_stimuli/pictures/0559_fw.png	363.5369944572449	
306	299.6337435245514	picture	0		216	304.0	/experiments/Knapen_AOT/AOT_stimuli/pictures/1004_fw.png	363.558673620224	1.8108646869659424
306	301.4280517101288	response	0	k		304.0	/experiments/Knapen_AOT/AOT_stimuli/pictures/1004_fw.png	365.3529818058014	
307	301.44460821151733	picture	0		82	305.0	/experiments/Knapen_AOT/AOT_stimuli/pictures/0743_fw.png	365.36953830718994	0.6916260719299316
307	302.119686126709	response	0	j		305.0	/experiments/Knapen_AOT/AOT_stimuli/pictures/0743_fw.png	366.0446162223816	
308	302.13623428344727	picture	0		210	306.0	/experiments/Knapen_AOT/AOT_stimuli/pictures/0060_fw.png	366.0611643791199	1.754392385482788
308	303.87805819511414	response	0	j		306.0	/experiments/Knapen_AOT/AOT_stimuli/pictures/0060_fw.png	367.80298829078674	
309	303.89062666893005	picture	0		89	307.0	/experiments/Knapen_AOT/AOT_stimuli/pictures/1864_fw.png	367.81555676460266	0.7456293106079102
309	304.6198375225067	response	0	k		307.0	/experiments/Knapen_AOT/AOT_stimuli/pictures/1864_fw.png	368.5447676181793	
310	304.63625597953796	picture	0		122	308.0	/experiments/Knapen_AOT/AOT_stimuli/pictures/1812_fw.png	368.56118607521057	1.0183582305908203
310	305.644846200943	response	0	j		308.0	/experiments/Knapen_AOT/AOT_stimuli/pictures/1812_fw.png	369.5697762966156	
311	305.6546142101288	picture	0		115	309.0	/experiments/Knapen_AOT/AOT_stimuli/pictures/1387_fw.png	369.5795443058014	0.9649951457977295
311	306.6031701564789	response	0	k		309.0	/experiments/Knapen_AOT/AOT_stimuli/pictures/1387_fw.png	370.5281002521515	
312	306.6196093559265	picture	0		87	310.0	/experiments/Knapen_AOT/AOT_stimuli/pictures/0980_fw.png	370.5445394515991	0.7333471775054932
312	307.3364143371582	response	0	k		310.0	/experiments/Knapen_AOT/AOT_stimuli/pictures/0980_fw.png	371.2613444328308	
313	307.352956533432	picture	0		96	311.0	/experiments/Knapen_AOT/AOT_stimuli/pictures/0534_fw.png	371.2778866291046	0.8083343505859375
313	308.14503479003906	response	0	k		311.0	/experiments/Knapen_AOT/AOT_stimuli/pictures/0534_fw.png	372.06996488571167	
314	308.16129088401794	picture	0		108	312.0	/experiments/Knapen_AOT/AOT_stimuli/pictures/1020_fw.png	372.08622097969055	0.9084177017211914
314	309.0531392097473	response	0	j		312.0	/experiments/Knapen_AOT/AOT_stimuli/pictures/1020_fw.png	372.9780693054199	
315	309.06970858573914	picture	0		97	313.0	/experiments/Knapen_AOT/AOT_stimuli/pictures/0390_fw.png	372.99463868141174	0.8140945434570312
315	309.8697831630707	response	0	k		313.0	/experiments/Knapen_AOT/AOT_stimuli/pictures/0390_fw.png	373.7947132587433	
316	309.88380312919617	picture	0		89	314.0	/experiments/Knapen_AOT/AOT_stimuli/pictures/0404_fw.png	373.8087332248688	0.7500076293945312
316	310.61986231803894	response	0	j		314.0	/experiments/Knapen_AOT/AOT_stimuli/pictures/0404_fw.png	374.54479241371155	
317	310.6338107585907	picture	0		84	315.0	/experiments/Knapen_AOT/AOT_stimuli/pictures/0241_fw.png	374.5587408542633	0.7108583450317383
317	311.32821702957153	response	0	j		315.0	/experiments/Knapen_AOT/AOT_stimuli/pictures/0241_fw.png	375.25314712524414	
318	311.34466910362244	picture	0		81	316.0	/experiments/Knapen_AOT/AOT_stimuli/pictures/0839_fw.png	375.26959919929504	0.6780507564544678
318	312.0041630268097	response	0	j		316.0	/experiments/Knapen_AOT/AOT_stimuli/pictures/0839_fw.png	375.9290931224823	
319	312.0227198600769	picture	0		98	317.0	/experiments/Knapen_AOT/AOT_stimuli/pictures/0171_fw.png	375.9476499557495	0.8219819068908691
319	312.82820296287537	response	0	k		317.0	/experiments/Knapen_AOT/AOT_stimuli/pictures/0171_fw.png	376.753133058548	
320	312.8447017669678	picture	0		114	318.0	/experiments/Knapen_AOT/AOT_stimuli/pictures/1681_fw.png	376.7696318626404	0.955801248550415
320	313.786518573761	response	0	k		318.0	/experiments/Knapen_AOT/AOT_stimuli/pictures/1681_fw.png	377.7114486694336	
321	313.8005030155182	picture	0		93	319.0	/experiments/Knapen_AOT/AOT_stimuli/pictures/1603_fw.png	377.7254331111908	0.7859151363372803
321	314.5698673725128	response	0	k		319.0	/experiments/Knapen_AOT/AOT_stimuli/pictures/1603_fw.png	378.4947974681854	
322	314.58641815185547	picture	0		105	320.0	/experiments/Knapen_AOT/AOT_stimuli/pictures/1965_fw.png	378.5113482475281	0.8807525634765625
322	315.45319962501526	response	0	k		320.0	/experiments/Knapen_AOT/AOT_stimuli/pictures/1965_fw.png	379.37812972068787	
323	315.46717071533203	picture	0		110	321.0	/experiments/Knapen_AOT/AOT_stimuli/pictures/1298_fw.png	379.39210081100464	0.9236443042755127
323	316.37823510169983	response	0	k		321.0	/experiments/Knapen_AOT/AOT_stimuli/pictures/1298_fw.png	380.30316519737244	
324	316.39081501960754	picture	0		84	322.0	/experiments/Knapen_AOT/AOT_stimuli/pictures/1371_fw.png	380.31574511528015	0.703916072845459
324	317.078488111496	response	0	j		322.0	/experiments/Knapen_AOT/AOT_stimuli/pictures/1371_fw.png	381.0034182071686	
325	317.094731092453	picture	0		87	323.0	/experiments/Knapen_AOT/AOT_stimuli/pictures/2067_fw.png	381.0196611881256	0.7266018390655518
325	317.80439043045044	response	0	j		323.0	/experiments/Knapen_AOT/AOT_stimuli/pictures/2067_fw.png	381.72932052612305	
326	317.82133293151855	picture	0		92	324.0	/experiments/Knapen_AOT/AOT_stimuli/pictures/1164_fw.png	381.74626302719116	0.7708721160888672
326	318.578248500824	response	0	j		324.0	/experiments/Knapen_AOT/AOT_stimuli/pictures/1164_fw.png	382.5031785964966	
327	318.5922050476074	picture	0		101	325.0	/experiments/Knapen_AOT/AOT_stimuli/pictures/0593_fw.png	382.51713514328003	0.8525424003601074
327	319.42827558517456	response	0	k		325.0	/experiments/Knapen_AOT/AOT_stimuli/pictures/0593_fw.png	383.35320568084717	
328	319.44474744796753	picture	0		85	326.0	/experiments/Knapen_AOT/AOT_stimuli/pictures/1435_fw.png	383.36967754364014	0.7099552154541016
328	320.1449100971222	response	0	j		326.0	/experiments/Knapen_AOT/AOT_stimuli/pictures/1435_fw.png	384.0698401927948	
329	320.15470266342163	picture	0		90	327.0	/experiments/Knapen_AOT/AOT_stimuli/pictures/0445_fw.png	384.07963275909424	0.7500011920928955
329	320.8949463367462	response	0	k		327.0	/experiments/Knapen_AOT/AOT_stimuli/pictures/0445_fw.png	384.8198764324188	
330	320.9047038555145	picture	0		93	328.0	/experiments/Knapen_AOT/AOT_stimuli/pictures/0903_fw.png	384.82963395118713	0.7778007984161377
330	321.66991329193115	response	0	j		328.0	/experiments/Knapen_AOT/AOT_stimuli/pictures/0903_fw.png	385.59484338760376	
331	321.68250465393066	picture	0		160	329.0	/experiments/Knapen_AOT/AOT_stimuli/pictures/0209_fw.png	385.60743474960327	1.3401777744293213
331	323.0040924549103	response	0	j		329.0	/experiments/Knapen_AOT/AOT_stimuli/pictures/0209_fw.png	386.9290225505829	
332	323.02268242836	picture	0		83	330.0	/experiments/Knapen_AOT/AOT_stimuli/pictures/1247_fw.png	386.9476125240326	0.6945297718048096
332	323.703311920166	response	0	j		330.0	/experiments/Knapen_AOT/AOT_stimuli/pictures/1247_fw.png	387.6282420158386	
333	323.7172122001648	picture	0		83	331.0	/experiments/Knapen_AOT/AOT_stimuli/pictures/0141_fw.png	387.6421422958374	0.7025785446166992
333	324.3961374759674	response	0	k		331.0	/experiments/Knapen_AOT/AOT_stimuli/pictures/0141_fw.png	388.32106757164	
334	324.4197907447815	picture	0		90	332.0	/experiments/Knapen_AOT/AOT_stimuli/pictures/1639_fw.png	388.3447208404541	0.7583870887756348
334	325.16168212890625	response	0	k		332.0	/experiments/Knapen_AOT/AOT_stimuli/pictures/1639_fw.png	389.08661222457886	
335	325.17817783355713	picture	0		145	333.0	/experiments/Knapen_AOT/AOT_stimuli/pictures/0722_fw.png	389.10310792922974	1.2167022228240967
335	326.3783106803894	response	0	k		333.0	/experiments/Knapen_AOT/AOT_stimuli/pictures/0722_fw.png	390.303240776062	
336	326.3948800563812	picture	0		84	334.0	/experiments/Knapen_AOT/AOT_stimuli/pictures/0134_fw.png	390.31981015205383	0.7043390274047852
336	327.0866131782532	response	0	k		334.0	/experiments/Knapen_AOT/AOT_stimuli/pictures/0134_fw.png	391.0115432739258	
337	327.099219083786	picture	0		81	335.0	/experiments/Knapen_AOT/AOT_stimuli/pictures/1001_fw.png	391.0241491794586	0.6873853206634521
337	327.76999592781067	response	0	j		335.0	/experiments/Knapen_AOT/AOT_stimuli/pictures/1001_fw.png	391.6949260234833	
338	327.78660440444946	picture	0		100	336.0	/experiments/Knapen_AOT/AOT_stimuli/pictures/1735_fw.png	391.71153450012207	0.8415727615356445
338	328.60412669181824	response	0	k		336.0	/experiments/Knapen_AOT/AOT_stimuli/pictures/1735_fw.png	392.52905678749084	
339	328.6281771659851	picture	0		103	337.0	/experiments/Knapen_AOT/AOT_stimuli/pictures/1284_fw.png	392.5531072616577	0.8667292594909668
339	329.47834753990173	response	0	k		337.0	/experiments/Knapen_AOT/AOT_stimuli/pictures/1284_fw.png	393.40327763557434	
340	329.4949064254761	picture	0		78	338.0	/experiments/Knapen_AOT/AOT_stimuli/pictures/1260_fw.png	393.4198365211487	0.6529669761657715
340	330.1366949081421	response	0	j		338.0	/experiments/Knapen_AOT/AOT_stimuli/pictures/1260_fw.png	394.0616250038147	
341	330.14787340164185	picture	0		141	339.0	/experiments/Knapen_AOT/AOT_stimuli/pictures/0274_fw.png	394.07280349731445	1.1805086135864258
341	331.31181263923645	response	0	j		339.0	/experiments/Knapen_AOT/AOT_stimuli/pictures/0274_fw.png	395.23674273490906	
342	331.32838201522827	picture	0		113	340.0	/experiments/Knapen_AOT/AOT_stimuli/pictures/1243_fw.png	395.2533121109009	0.9498589038848877
342	332.26173210144043	response	0	k		340.0	/experiments/Knapen_AOT/AOT_stimuli/pictures/1243_fw.png	396.18666219711304	
343	332.27824091911316	picture	0		85	341.0	/experiments/Knapen_AOT/AOT_stimuli/pictures/0625_fw.png	396.20317101478577	0.716667652130127
343	332.9784243106842	response	0	j		341.0	/experiments/Knapen_AOT/AOT_stimuli/pictures/0625_fw.png	396.9033544063568	
344	332.9949085712433	picture	0		84	342.0	/experiments/Knapen_AOT/AOT_stimuli/pictures/0417_fw.png	396.9198386669159	0.708458662033081
344	333.6867780685425	response	0	j		342.0	/experiments/Knapen_AOT/AOT_stimuli/pictures/0417_fw.png	397.6117081642151	
345	333.70336723327637	picture	0		70	343.0	/experiments/Knapen_AOT/AOT_stimuli/pictures/0758_fw.png	397.628297328949	0.591576337814331
345	334.278493642807	response	0	j		343.0	/experiments/Knapen_AOT/AOT_stimuli/pictures/0758_fw.png	398.2034237384796	
346	334.2949435710907	picture	0		87	344.0	/experiments/Knapen_AOT/AOT_stimuli/pictures/0594_fw.png	398.2198736667633	0.727928638458252
346	335.0040547847748	response	0	k		344.0	/experiments/Knapen_AOT/AOT_stimuli/pictures/0594_fw.png	398.9289848804474	
347	335.02287220954895	picture	0		119	345.0	/experiments/Knapen_AOT/AOT_stimuli/pictures/1447_fw.png	398.94780230522156	0.9931590557098389
347	335.9961829185486	response	0	j		345.0	/experiments/Knapen_AOT/AOT_stimuli/pictures/1447_fw.png	399.9211130142212	
348	336.0160312652588	picture	0		163	346.0	/experiments/Knapen_AOT/AOT_stimuli/pictures/0280_fw.png	399.9409613609314	1.3706040382385254
348	337.370121717453	response	0	j		346.0	/experiments/Knapen_AOT/AOT_stimuli/pictures/0280_fw.png	401.2950518131256	
349	337.3866353034973	picture	0		136	347.0	/experiments/Knapen_AOT/AOT_stimuli/pictures/0386_fw.png	401.3115653991699	1.1362965106964111
349	338.51180839538574	response	0	j		347.0	/experiments/Knapen_AOT/AOT_stimuli/pictures/0386_fw.png	402.43673849105835	
350	338.5229318141937	picture	0		99	348.0	/experiments/Knapen_AOT/AOT_stimuli/pictures/1938_fw.png	402.44786190986633	0.8263542652130127
350	339.33680748939514	response	0	k		348.0	/experiments/Knapen_AOT/AOT_stimuli/pictures/1938_fw.png	403.26173758506775	
351	339.34928607940674	picture	0		202	349.0	/experiments/Knapen_AOT/AOT_stimuli/pictures/0001_fw.png	403.27421617507935	1.6874253749847412
351	341.02012300491333	response	0	j		349.0	/experiments/Knapen_AOT/AOT_stimuli/pictures/0001_fw.png	404.94505310058594	
352	341.0367114543915	picture	0		95	350.0	/experiments/Knapen_AOT/AOT_stimuli/pictures/0326_fw.png	404.9616415500641	0.7999899387359619
352	341.82015109062195	response	0	j		350.0	/experiments/Knapen_AOT/AOT_stimuli/pictures/0326_fw.png	405.74508118629456	
353	341.83670139312744	picture	0		103	351.0	/experiments/Knapen_AOT/AOT_stimuli/pictures/1723_fw.png	405.76163148880005	0.8667142391204834
353	342.68691396713257	response	0	j		351.0	/experiments/Knapen_AOT/AOT_stimuli/pictures/1723_fw.png	406.6118440628052	
354	342.7034156322479	picture	0		83	352.0	/experiments/Knapen_AOT/AOT_stimuli/pictures/0819_fw.png	406.62834572792053	0.699955940246582
354	343.38687801361084	response	0	j		352.0	/experiments/Knapen_AOT/AOT_stimuli/pictures/0819_fw.png	407.31180810928345	
355	343.4033715724945	picture	0		136	353.0	/experiments/Knapen_AOT/AOT_stimuli/pictures/0572_fw.png	407.3283016681671	1.1416687965393066
355	344.52852606773376	response	0	j		353.0	/experiments/Knapen_AOT/AOT_stimuli/pictures/0572_fw.png	408.4534561634064	
356	344.5450403690338	picture	0		118	354.0	/experiments/Knapen_AOT/AOT_stimuli/pictures/1522_fw.png	408.4699704647064	0.9917776584625244
356	345.5201952457428	response	0	k		354.0	/experiments/Knapen_AOT/AOT_stimuli/pictures/1522_fw.png	409.4451253414154	
357	345.53681802749634	picture	0		1333	355.0	/experiments/Knapen_AOT/AOT_stimuli/pictures/0050_fw.png	409.46174812316895	11.116823673248291
357	356.63704228401184	response	0	k		355.0	/experiments/Knapen_AOT/AOT_stimuli/pictures/0050_fw.png	420.56197237968445	
358	356.65364170074463	picture	0		93	356.0	/experiments/Knapen_AOT/AOT_stimuli/pictures/0352_fw.png	420.57857179641724	0.7832126617431641
358	357.4205439090729	response	0	k		356.0	/experiments/Knapen_AOT/AOT_stimuli/pictures/0352_fw.png	421.3454740047455	
359	357.4368543624878	picture	0		81	357.0	/experiments/Knapen_AOT/AOT_stimuli/pictures/0695_fw.png	421.3617844581604	0.6834821701049805
359	358.1036961078644	response	0	k		357.0	/experiments/Knapen_AOT/AOT_stimuli/pictures/0695_fw.png	422.028626203537	
360	358.1203365325928	picture	0		83	358.0	/experiments/Knapen_AOT/AOT_stimuli/pictures/0482_fw.png	422.0452666282654	0.6998627185821533
360	358.80400133132935	response	0	k		358.0	/experiments/Knapen_AOT/AOT_stimuli/pictures/0482_fw.png	422.72893142700195	
361	358.8201992511749	picture	0		98	359.0	/experiments/Knapen_AOT/AOT_stimuli/pictures/1685_fw.png	422.74512934684753	0.8250303268432617
361	359.6286931037903	response	0	j		359.0	/experiments/Knapen_AOT/AOT_stimuli/pictures/1685_fw.png	423.5536231994629	
362	359.6452295780182	stim	0		292			423.5701596736908	2.4536218643188477
362	362.0788621902466	response	0	space				426.0037922859192	
