trial_nr	onset	event_type	phase	response	nr_frames	picture_index	picture_file	onset_abs	duration
0	0.20838093757629395	stim	0		604			260.18401980400085	5.118596076965332
0	5.257744073867798	response	0	space				265.23338294029236	
2	5.326977014541626	picture	0		192	0.0	/experiments/knapen_AOT/AOT_stimuli/pictures/1881_fw.png	265.3026158809662	1.6314821243286133
2	6.916871070861816	response	0	j		0.0	/experiments/knapen_AOT/AOT_stimuli/pictures/1881_fw.png	266.8925099372864	
3	6.958459138870239	picture	0		108	1.0	/experiments/knapen_AOT/AOT_stimuli/pictures/0599_fw.png	266.9340980052948	0.9250459671020508
3	7.850137948989868	response	0	k		1.0	/experiments/knapen_AOT/AOT_stimuli/pictures/0599_fw.png	267.82577681541443	
4	7.88350510597229	picture	0		91	2.0	/experiments/knapen_AOT/AOT_stimuli/pictures/0501_fw.png	267.85914397239685	0.8180780410766602
4	8.633512020111084	response	0	k		2.0	/experiments/knapen_AOT/AOT_stimuli/pictures/0501_fw.png	268.60915088653564	
5	8.70158314704895	picture	0		94	3.0	/experiments/knapen_AOT/AOT_stimuli/pictures/1946_fw.png	268.6772220134735	0.826448917388916
5	9.475255012512207	response	0	j		3.0	/experiments/knapen_AOT/AOT_stimuli/pictures/1946_fw.png	269.45089387893677	
6	9.528032064437866	picture	0		88	4.0	/experiments/knapen_AOT/AOT_stimuli/pictures/1326_fw.png	269.5036709308624	0.7803270816802979
6	10.250343084335327	response	0	j		4.0	/experiments/knapen_AOT/AOT_stimuli/pictures/1326_fw.png	270.2259819507599	
7	10.308359146118164	picture	0		92	5.0	/experiments/knapen_AOT/AOT_stimuli/pictures/0014_fw.png	270.2839980125427	0.8168590068817139
7	11.066890954971313	response	0	k		5.0	/experiments/knapen_AOT/AOT_stimuli/pictures/0014_fw.png	271.0425298213959	
8	11.125218152999878	picture	0		81	6.0	/experiments/knapen_AOT/AOT_stimuli/pictures/1257_fw.png	271.10085701942444	0.7248258590698242
8	11.792050123214722	response	0	j		6.0	/experiments/knapen_AOT/AOT_stimuli/pictures/1257_fw.png	271.7676889896393	
9	11.850044012069702	picture	0		113	7.0	/experiments/knapen_AOT/AOT_stimuli/pictures/1753_fw.png	271.82568287849426	0.9750320911407471
9	12.776731967926025	response	0	j		7.0	/experiments/knapen_AOT/AOT_stimuli/pictures/1753_fw.png	272.7523708343506	
10	12.82507610321045	picture	0		114	8.0	/experiments/knapen_AOT/AOT_stimuli/pictures/2022_fw.png	272.800714969635	0.9806718826293945
10	13.760196924209595	response	0	j		8.0	/experiments/knapen_AOT/AOT_stimuli/pictures/2022_fw.png	273.73583579063416	
11	13.805747985839844	picture	0		96	9.0	/experiments/knapen_AOT/AOT_stimuli/pictures/1388_fw.png	273.7813868522644	0.8527600765228271
11	14.600206136703491	response	0	k		9.0	/experiments/knapen_AOT/AOT_stimuli/pictures/1388_fw.png	274.57584500312805	
12	14.658508062362671	picture	0		86	10.0	/experiments/knapen_AOT/AOT_stimuli/pictures/0526_fw.png	274.63414692878723	0.7584819793701172
12	15.360321044921875	response	0	j		10.0	/experiments/knapen_AOT/AOT_stimuli/pictures/0526_fw.png	275.33595991134644	
13	15.416990041732788	picture	0		112	11.0	/experiments/knapen_AOT/AOT_stimuli/pictures/2024_fw.png	275.39262890815735	0.9747700691223145
13	16.341957092285156	response	0	j		11.0	/experiments/knapen_AOT/AOT_stimuli/pictures/2024_fw.png	276.3175959587097	
14	16.391760110855103	picture	0		101	12.0	/experiments/knapen_AOT/AOT_stimuli/pictures/2150_fw.png	276.36739897727966	0.8723328113555908
14	17.225266933441162	response	0	j		12.0	/experiments/knapen_AOT/AOT_stimuli/pictures/2150_fw.png	277.2009057998657	
15	17.264092922210693	picture	0		144	13.0	/experiments/knapen_AOT/AOT_stimuli/pictures/1278_fw.png	277.23973178863525	1.2292311191558838
15	18.45882296562195	response	0	k		13.0	/experiments/knapen_AOT/AOT_stimuli/pictures/1278_fw.png	278.4344618320465	
16	18.493324041366577	picture	0		88	14.0	/experiments/knapen_AOT/AOT_stimuli/pictures/0709_fw.png	278.46896290779114	0.7777290344238281
16	19.217020988464355	response	0	j		14.0	/experiments/knapen_AOT/AOT_stimuli/pictures/0709_fw.png	279.1926598548889	
17	19.271053075790405	picture	0		95	15.0	/experiments/knapen_AOT/AOT_stimuli/pictures/0333_fw.png	279.24669194221497	0.8374919891357422
17	20.050419092178345	response	0	k		15.0	/experiments/knapen_AOT/AOT_stimuli/pictures/0333_fw.png	280.0260579586029	
18	20.108545064926147	picture	0		125	16.0	/experiments/knapen_AOT/AOT_stimuli/pictures/1918_fw.png	280.0841839313507	1.0832860469818115
18	21.1419620513916	response	0	k		16.0	/experiments/knapen_AOT/AOT_stimuli/pictures/1918_fw.png	281.11760091781616	
19	21.19183111190796	picture	0		90	17.0	/experiments/knapen_AOT/AOT_stimuli/pictures/1331_fw.png	281.1674699783325	0.7750518321990967
19	21.93366813659668	response	0	k		17.0	/experiments/knapen_AOT/AOT_stimuli/pictures/1331_fw.png	281.90930700302124	
20	21.966882944107056	picture	0		95	18.0	/experiments/knapen_AOT/AOT_stimuli/pictures/0980_fw.png	281.9425218105316	0.8180930614471436
20	22.743536949157715	response	0	j		18.0	/experiments/knapen_AOT/AOT_stimuli/pictures/0980_fw.png	282.7191758155823	
21	22.7849760055542	picture	0		76	19.0	/experiments/knapen_AOT/AOT_stimuli/pictures/0160_fw.png	282.76061487197876	0.659796953201294
21	23.40879201889038	response	0	j		19.0	/experiments/knapen_AOT/AOT_stimuli/pictures/0160_fw.png	283.38443088531494	
22	23.444772958755493	picture	0		75	20.0	/experiments/knapen_AOT/AOT_stimuli/pictures/0078_fw.png	283.42041182518005	0.6665811538696289
22	24.058658123016357	response	0	k		20.0	/experiments/knapen_AOT/AOT_stimuli/pictures/0078_fw.png	284.0342969894409	
23	24.111354112625122	picture	0		86	21.0	/experiments/knapen_AOT/AOT_stimuli/pictures/0917_fw.png	284.0869929790497	0.7501568794250488
23	24.81701397895813	response	0	j		21.0	/experiments/knapen_AOT/AOT_stimuli/pictures/0917_fw.png	284.7926528453827	
24	24.86151099205017	picture	0		70	22.0	/experiments/knapen_AOT/AOT_stimuli/pictures/0879_fw.png	284.83714985847473	0.6319260597229004
24	25.43374514579773	response	0	k		22.0	/experiments/knapen_AOT/AOT_stimuli/pictures/0879_fw.png	285.4093840122223	
25	25.49343705177307	picture	0		120	23.0	/experiments/knapen_AOT/AOT_stimuli/pictures/1228_fw.png	285.46907591819763	1.041550874710083
25	26.483765125274658	response	0	j		23.0	/experiments/knapen_AOT/AOT_stimuli/pictures/1228_fw.png	286.4594039916992	
26	26.534987926483154	picture	0		102	24.0	/experiments/knapen_AOT/AOT_stimuli/pictures/0391_fw.png	286.5106267929077	0.8749949932098389
26	27.368637084960938	response	0	k		24.0	/experiments/knapen_AOT/AOT_stimuli/pictures/0391_fw.png	287.3442759513855	
27	27.409982919692993	picture	0		154	25.0	/experiments/knapen_AOT/AOT_stimuli/pictures/0108_fw.png	287.38562178611755	1.3333940505981445
27	28.683762073516846	response	0	j		25.0	/experiments/knapen_AOT/AOT_stimuli/pictures/0108_fw.png	288.6594009399414	
28	28.743376970291138	picture	0		114	26.0	/experiments/knapen_AOT/AOT_stimuli/pictures/0454_fw.png	288.7190158367157	0.9735679626464844
28	29.68377709388733	response	0	j		26.0	/experiments/knapen_AOT/AOT_stimuli/pictures/0454_fw.png	289.6594159603119	
29	29.716944932937622	picture	0		79	27.0	/experiments/knapen_AOT/AOT_stimuli/pictures/1465_fw.png	289.6925837993622	0.6861400604248047
29	30.360307931900024	response	0	k		27.0	/experiments/knapen_AOT/AOT_stimuli/pictures/1465_fw.png	290.3359467983246	
30	30.403084993362427	picture	0		85	28.0	/experiments/knapen_AOT/AOT_stimuli/pictures/1290_fw.png	290.378723859787	0.7569680213928223
30	31.100441932678223	response	0	k		28.0	/experiments/knapen_AOT/AOT_stimuli/pictures/1290_fw.png	291.0760807991028	
31	31.16005301475525	picture	0		108	29.0	/experiments/knapen_AOT/AOT_stimuli/pictures/0806_fw.png	291.1356918811798	0.9237959384918213
31	32.050596952438354	response	0	j		29.0	/experiments/knapen_AOT/AOT_stimuli/pictures/0806_fw.png	292.0262358188629	
32	32.08384895324707	picture	0		84	30.0	/experiments/knapen_AOT/AOT_stimuli/pictures/0781_fw.png	292.05948781967163	0.7291750907897949
32	32.76893496513367	response	0	k		30.0	/experiments/knapen_AOT/AOT_stimuli/pictures/0781_fw.png	292.7445738315582	
33	32.813024044036865	picture	0		86	31.0	/experiments/knapen_AOT/AOT_stimuli/pictures/1056_fw.png	292.7886629104614	0.7373700141906738
33	33.51711702346802	response	0	k		31.0	/experiments/knapen_AOT/AOT_stimuli/pictures/1056_fw.png	293.4927558898926	
34	33.55039405822754	picture	0		85	32.0	/experiments/knapen_AOT/AOT_stimuli/pictures/1904_fw.png	293.5260329246521	0.7624990940093994
34	34.25061011314392	response	0	k		32.0	/experiments/knapen_AOT/AOT_stimuli/pictures/1904_fw.png	294.2262489795685	
35	34.31289315223694	picture	0		108	33.0	/experiments/knapen_AOT/AOT_stimuli/pictures/0434_fw.png	294.2885320186615	0.937471866607666
35	35.20063614845276	response	0	k		33.0	/experiments/knapen_AOT/AOT_stimuli/pictures/0434_fw.png	295.1762750148773	
36	35.250365018844604	picture	0		76	34.0	/experiments/knapen_AOT/AOT_stimuli/pictures/1519_fw.png	295.22600388526917	0.6813700199127197
36	35.8757119178772	response	0	j		34.0	/experiments/knapen_AOT/AOT_stimuli/pictures/1519_fw.png	295.85135078430176	
37	35.931735038757324	picture	0		86	35.0	/experiments/knapen_AOT/AOT_stimuli/pictures/1132_fw.png	295.9073739051819	0.7770459651947021
37	36.66724514961243	response	0	j		35.0	/experiments/knapen_AOT/AOT_stimuli/pictures/1132_fw.png	296.642884016037	
38	36.708781003952026	picture	0		83	36.0	/experiments/knapen_AOT/AOT_stimuli/pictures/0643_fw.png	296.6844198703766	0.7012519836425781
38	37.39215803146362	response	0	j		36.0	/experiments/knapen_AOT/AOT_stimuli/pictures/0643_fw.png	297.3677968978882	
39	37.410032987594604	picture	0		80	37.0	/experiments/knapen_AOT/AOT_stimuli/pictures/0818_fw.png	297.38567185401917	0.6945819854736328
39	38.06717300415039	response	0	k		37.0	/experiments/knapen_AOT/AOT_stimuli/pictures/0818_fw.png	298.04281187057495	
40	38.10461497306824	picture	0		102	38.0	/experiments/knapen_AOT/AOT_stimuli/pictures/2033_fw.png	298.0802538394928	0.8791429996490479
40	38.93582797050476	response	0	k		38.0	/experiments/knapen_AOT/AOT_stimuli/pictures/2033_fw.png	298.9114668369293	
41	38.983757972717285	picture	0		87	39.0	/experiments/knapen_AOT/AOT_stimuli/pictures/0714_fw.png	298.95939683914185	0.7874240875244141
41	39.70060110092163	response	0	k		39.0	/experiments/knapen_AOT/AOT_stimuli/pictures/0714_fw.png	299.6762399673462	
42	39.7711820602417	picture	0		91	40.0	/experiments/knapen_AOT/AOT_stimuli/pictures/0707_fw.png	299.74682092666626	0.7959098815917969
42	40.517208099365234	response	0	k		40.0	/experiments/knapen_AOT/AOT_stimuli/pictures/0707_fw.png	300.4928469657898	
43	40.567091941833496	picture	0		95	41.0	/experiments/knapen_AOT/AOT_stimuli/pictures/2130_fw.png	300.54273080825806	0.8430111408233643
43	41.3438560962677	response	0	k		41.0	/experiments/knapen_AOT/AOT_stimuli/pictures/2130_fw.png	301.31949496269226	
44	41.41010308265686	picture	0		75	42.0	/experiments/knapen_AOT/AOT_stimuli/pictures/1600_fw.png	301.3857419490814	0.6529219150543213
44	42.0255811214447	response	0	j		42.0	/experiments/knapen_AOT/AOT_stimuli/pictures/1600_fw.png	302.00121998786926	
45	42.06302499771118	picture	0		80	43.0	/experiments/knapen_AOT/AOT_stimuli/pictures/0127_fw.png	302.03866386413574	0.687485933303833
45	42.71725106239319	response	0	k		43.0	/experiments/knapen_AOT/AOT_stimuli/pictures/0127_fw.png	302.69288992881775	
46	42.750510931015015	picture	0		90	44.0	/experiments/knapen_AOT/AOT_stimuli/pictures/1608_fw.png	302.7261497974396	0.777662992477417
46	43.49226212501526	response	0	k		44.0	/experiments/knapen_AOT/AOT_stimuli/pictures/1608_fw.png	303.4679009914398	
47	43.52817392349243	picture	0		88	45.0	/experiments/knapen_AOT/AOT_stimuli/pictures/1527_fw.png	303.503812789917	0.7848031520843506
47	44.25066804885864	response	0	k		45.0	/experiments/knapen_AOT/AOT_stimuli/pictures/1527_fw.png	304.2263069152832	
48	44.31297707557678	picture	0		99	46.0	/experiments/knapen_AOT/AOT_stimuli/pictures/1678_fw.png	304.28861594200134	0.8626279830932617
48	45.12562608718872	response	0	j		46.0	/experiments/knapen_AOT/AOT_stimuli/pictures/1678_fw.png	305.1012649536133	
49	45.175605058670044	picture	0		70	47.0	/experiments/knapen_AOT/AOT_stimuli/pictures/1957_fw.png	305.1512439250946	0.637470006942749
49	45.744019985198975	response	0	j		47.0	/experiments/knapen_AOT/AOT_stimuli/pictures/1957_fw.png	305.71965885162354	
50	45.81307506561279	picture	0		78	48.0	/experiments/knapen_AOT/AOT_stimuli/pictures/0008_fw.png	305.78871393203735	0.6958310604095459
50	46.45081901550293	response	0	j		48.0	/experiments/knapen_AOT/AOT_stimuli/pictures/0008_fw.png	306.4264578819275	
51	46.50890612602234	picture	0		73	49.0	/experiments/knapen_AOT/AOT_stimuli/pictures/2002_fw.png	306.4845449924469	0.6373958587646484
51	47.10899615287781	response	0	k		49.0	/experiments/knapen_AOT/AOT_stimuli/pictures/2002_fw.png	307.08463501930237	
52	47.14630198478699	picture	0		226	50.0	/experiments/knapen_AOT/AOT_stimuli/pictures/0826_fw.png	307.12194085121155	1.9304420948028564
52	49.01736807823181	response	0	k		50.0	/experiments/knapen_AOT/AOT_stimuli/pictures/0826_fw.png	308.9930069446564	
53	49.076744079589844	picture	0		91	51.0	/experiments/knapen_AOT/AOT_stimuli/pictures/1636_fw.png	309.0523829460144	0.8072030544281006
53	49.82567000389099	response	0	j		51.0	/experiments/knapen_AOT/AOT_stimuli/pictures/1636_fw.png	309.80130887031555	
54	49.883947134017944	picture	0		106	52.0	/experiments/knapen_AOT/AOT_stimuli/pictures/2084_fw.png	309.8595860004425	0.9333269596099854
54	50.75226306915283	response	0	j		52.0	/experiments/knapen_AOT/AOT_stimuli/pictures/2084_fw.png	310.7279019355774	
55	50.81727409362793	picture	0		81	53.0	/experiments/knapen_AOT/AOT_stimuli/pictures/1002_fw.png	310.7929129600525	0.7179019451141357
55	51.48410701751709	response	0	k		53.0	/experiments/knapen_AOT/AOT_stimuli/pictures/1002_fw.png	311.45974588394165	
56	51.535176038742065	picture	0		109	54.0	/experiments/knapen_AOT/AOT_stimuli/pictures/0892_fw.png	311.5108149051666	0.9404149055480957
56	52.434139013290405	response	0	j		54.0	/experiments/knapen_AOT/AOT_stimuli/pictures/0892_fw.png	312.40977787971497	
57	52.47559094429016	picture	0		92	55.0	/experiments/knapen_AOT/AOT_stimuli/pictures/1106_fw.png	312.4512298107147	0.79575514793396
57	53.23408913612366	response	0	j		55.0	/experiments/knapen_AOT/AOT_stimuli/pictures/1106_fw.png	313.2097280025482	
58	53.27134609222412	picture	0		111	56.0	/experiments/knapen_AOT/AOT_stimuli/pictures/1493_fw.png	313.2469849586487	1.1042499542236328
58	54.17733907699585	response	0	k		56.0	/experiments/knapen_AOT/AOT_stimuli/pictures/1493_fw.png	314.1529779434204	
59	54.375596046447754	picture	0		88	57.0	/experiments/knapen_AOT/AOT_stimuli/pictures/0425_fw.png	314.3512349128723	0.763861894607544
59	55.10074710845947	response	0	j		57.0	/experiments/knapen_AOT/AOT_stimuli/pictures/0425_fw.png	315.07638597488403	
60	55.1394579410553	picture	0		84	58.0	/experiments/knapen_AOT/AOT_stimuli/pictures/0314_fw.png	315.11509680747986	0.7291531562805176
60	55.834080934524536	response	0	k		58.0	/experiments/knapen_AOT/AOT_stimuli/pictures/0314_fw.png	315.8097198009491	
61	55.868611097335815	picture	0		72	59.0	/experiments/knapen_AOT/AOT_stimuli/pictures/0436_fw.png	315.8442499637604	0.6320168972015381
61	56.459161043167114	response	0	j		59.0	/experiments/knapen_AOT/AOT_stimuli/pictures/0436_fw.png	316.4347999095917	
62	56.50062799453735	picture	0		103	60.0	/experiments/knapen_AOT/AOT_stimuli/pictures/1737_fw.png	316.4762668609619	0.8750269412994385
62	57.34406113624573	response	0	j		60.0	/experiments/knapen_AOT/AOT_stimuli/pictures/1737_fw.png	317.3197000026703	
63	57.37565493583679	picture	0		73	61.0	/experiments/knapen_AOT/AOT_stimuli/pictures/0137_fw.png	317.35129380226135	0.6387970447540283
63	57.9758939743042	response	0	j		61.0	/experiments/knapen_AOT/AOT_stimuli/pictures/0137_fw.png	317.95153284072876	
64	58.01445198059082	picture	0		88	62.0	/experiments/knapen_AOT/AOT_stimuli/pictures/1206_fw.png	317.9900908470154	0.7639069557189941
64	58.74253702163696	response	0	k		62.0	/experiments/knapen_AOT/AOT_stimuli/pictures/1206_fw.png	318.7181758880615	
65	58.778358936309814	picture	0		108	63.0	/experiments/knapen_AOT/AOT_stimuli/pictures/0216_fw.png	318.7539978027344	0.9390661716461182
65	59.6674439907074	response	0	k		63.0	/experiments/knapen_AOT/AOT_stimuli/pictures/0216_fw.png	319.64308285713196	
66	59.71742510795593	picture	0		97	64.0	/experiments/knapen_AOT/AOT_stimuli/pictures/1097_fw.png	319.6930639743805	0.8595278263092041
66	60.51748609542847	response	0	k		64.0	/experiments/knapen_AOT/AOT_stimuli/pictures/1097_fw.png	320.493124961853	
67	60.57695293426514	picture	0		90	65.0	/experiments/knapen_AOT/AOT_stimuli/pictures/1161_fw.png	320.5525918006897	0.7987401485443115
67	61.3175151348114	response	0	k		65.0	/experiments/knapen_AOT/AOT_stimuli/pictures/1161_fw.png	321.29315400123596	
68	61.37569308280945	picture	0		135	66.0	/experiments/knapen_AOT/AOT_stimuli/pictures/0011_fw.png	321.351331949234	1.1583490371704102
68	62.49265193939209	response	0	k		66.0	/experiments/knapen_AOT/AOT_stimuli/pictures/0011_fw.png	322.46829080581665	
69	62.53404211997986	picture	0		192	67.0	/experiments/knapen_AOT/AOT_stimuli/pictures/2179_fw.png	322.5096809864044	1.653899908065796
69	64.12585306167603	response	0	k		67.0	/experiments/knapen_AOT/AOT_stimuli/pictures/2179_fw.png	324.1014919281006	
70	64.18794202804565	picture	0		81	68.0	/experiments/knapen_AOT/AOT_stimuli/pictures/2134_fw.png	324.1635808944702	0.7223939895629883
70	64.85087203979492	response	0	j		68.0	/experiments/knapen_AOT/AOT_stimuli/pictures/2134_fw.png	324.8265109062195	
71	64.91033601760864	picture	0		119	69.0	/experiments/knapen_AOT/AOT_stimuli/pictures/0976_fw.png	324.8859748840332	1.0415899753570557
71	65.8925359249115	response	0	k		69.0	/experiments/knapen_AOT/AOT_stimuli/pictures/0976_fw.png	325.86817479133606	
72	65.9519259929657	picture	0		87	70.0	/experiments/knapen_AOT/AOT_stimuli/pictures/1670_fw.png	325.92756485939026	0.7430541515350342
72	66.6675329208374	response	0	j		70.0	/experiments/knapen_AOT/AOT_stimuli/pictures/1670_fw.png	326.64317178726196	
73	66.69498014450073	picture	0		80	71.0	/experiments/knapen_AOT/AOT_stimuli/pictures/0159_fw.png	326.6706190109253	0.6807498931884766
73	67.34431505203247	response	0	j		71.0	/experiments/knapen_AOT/AOT_stimuli/pictures/0159_fw.png	327.31995391845703	
74	67.37573003768921	picture	0		94	72.0	/experiments/knapen_AOT/AOT_stimuli/pictures/0904_fw.png	327.35136890411377	0.812330961227417
74	68.14418196678162	response	0	k		72.0	/experiments/knapen_AOT/AOT_stimuli/pictures/0904_fw.png	328.1198208332062	
75	68.18806099891663	picture	0		94	73.0	/experiments/knapen_AOT/AOT_stimuli/pictures/0437_fw.png	328.1636998653412	0.8210511207580566
75	68.9526059627533	response	0	j		73.0	/experiments/knapen_AOT/AOT_stimuli/pictures/0437_fw.png	328.92824482917786	
76	69.00911211967468	picture	0		104	74.0	/experiments/knapen_AOT/AOT_stimuli/pictures/1952_fw.png	328.98475098609924	0.9167189598083496
76	69.86761713027954	response	0	k		74.0	/experiments/knapen_AOT/AOT_stimuli/pictures/1952_fw.png	329.8432559967041	
77	69.92583107948303	picture	0		113	75.0	/experiments/knapen_AOT/AOT_stimuli/pictures/0699_fw.png	329.9014699459076	0.9833729267120361
77	70.85929203033447	response	0	k		75.0	/experiments/knapen_AOT/AOT_stimuli/pictures/0699_fw.png	330.83493089675903	
78	70.90920400619507	picture	0		154	76.0	/experiments/knapen_AOT/AOT_stimuli/pictures/0079_fw.png	330.88484287261963	1.3166530132293701
78	72.17792201042175	response	0	j		76.0	/experiments/knapen_AOT/AOT_stimuli/pictures/0079_fw.png	332.1535608768463	
79	72.22585701942444	picture	0		92	77.0	/experiments/knapen_AOT/AOT_stimuli/pictures/2103_fw.png	332.201495885849	0.7957139015197754
79	72.9842779636383	response	0	k		77.0	/experiments/knapen_AOT/AOT_stimuli/pictures/2103_fw.png	332.95991683006287	
80	73.02157092094421	picture	0		112	78.0	/experiments/knapen_AOT/AOT_stimuli/pictures/0681_fw.png	332.9972097873688	0.9792490005493164
80	73.94269895553589	response	0	j		78.0	/experiments/knapen_AOT/AOT_stimuli/pictures/0681_fw.png	333.91833782196045	
81	74.00081992149353	picture	0		105	79.0	/experiments/knapen_AOT/AOT_stimuli/pictures/0546_fw.png	333.9764587879181	0.9250361919403076
81	74.86765813827515	response	0	k		79.0	/experiments/knapen_AOT/AOT_stimuli/pictures/0546_fw.png	334.8432970046997	
82	74.92585611343384	picture	0		102	80.0	/experiments/knapen_AOT/AOT_stimuli/pictures/2045_fw.png	334.9014949798584	0.8942158222198486
82	75.76104497909546	response	0	k		80.0	/experiments/knapen_AOT/AOT_stimuli/pictures/2045_fw.png	335.73668384552	
83	75.82007193565369	picture	0		81	81.0	/experiments/knapen_AOT/AOT_stimuli/pictures/1927_fw.png	335.79571080207825	0.7153890132904053
83	76.4843361377716	response	0	k		81.0	/experiments/knapen_AOT/AOT_stimuli/pictures/1927_fw.png	336.45997500419617	
84	76.53546094894409	picture	0		83	82.0	/experiments/knapen_AOT/AOT_stimuli/pictures/0841_fw.png	336.51109981536865	0.7153949737548828
84	77.21771502494812	response	0	j		82.0	/experiments/knapen_AOT/AOT_stimuli/pictures/0841_fw.png	337.1933538913727	
85	77.25085592269897	picture	0		106	83.0	/experiments/knapen_AOT/AOT_stimuli/pictures/1307_fw.png	337.22649478912354	0.9096121788024902
85	78.12599897384644	response	0	k		83.0	/experiments/knapen_AOT/AOT_stimuli/pictures/1307_fw.png	338.101637840271	
86	78.16046810150146	picture	0		96	84.0	/experiments/knapen_AOT/AOT_stimuli/pictures/1025_fw.png	338.136106967926	0.8404128551483154
86	78.94415712356567	response	0	k		84.0	/experiments/knapen_AOT/AOT_stimuli/pictures/1025_fw.png	338.91979598999023	
87	79.00088095664978	picture	0		77	85.0	/experiments/knapen_AOT/AOT_stimuli/pictures/1852_fw.png	338.97651982307434	0.6834521293640137
87	79.63444805145264	response	0	k		85.0	/experiments/knapen_AOT/AOT_stimuli/pictures/1852_fw.png	339.6100869178772	
88	79.6843330860138	picture	0		94	86.0	/experiments/knapen_AOT/AOT_stimuli/pictures/0633_fw.png	339.65997195243835	0.809459924697876
88	80.45938110351562	response	0	j		86.0	/experiments/knapen_AOT/AOT_stimuli/pictures/0633_fw.png	340.4350199699402	
89	80.49379301071167	picture	0		85	87.0	/experiments/knapen_AOT/AOT_stimuli/pictures/0223_fw.png	340.46943187713623	0.7405750751495361
89	81.19277215003967	response	0	k		87.0	/experiments/knapen_AOT/AOT_stimuli/pictures/0223_fw.png	341.16841101646423	
90	81.2343680858612	picture	0		73	88.0	/experiments/knapen_AOT/AOT_stimuli/pictures/2149_fw.png	341.21000695228577	0.634458065032959
90	81.83437299728394	response	0	j		88.0	/experiments/knapen_AOT/AOT_stimuli/pictures/2149_fw.png	341.8100118637085	
91	81.86882615089417	picture	0		107	89.0	/experiments/knapen_AOT/AOT_stimuli/pictures/1985_fw.png	341.8444650173187	0.9097409248352051
91	82.74437999725342	response	0	j		89.0	/experiments/knapen_AOT/AOT_stimuli/pictures/1985_fw.png	342.720018863678	
92	82.77856707572937	picture	0		78	90.0	/experiments/knapen_AOT/AOT_stimuli/pictures/0929_fw.png	342.75420594215393	0.6734879016876221
92	83.41773915290833	response	0	k		90.0	/experiments/knapen_AOT/AOT_stimuli/pictures/0929_fw.png	343.3933780193329	
93	83.45205497741699	picture	0		74	91.0	/experiments/knapen_AOT/AOT_stimuli/pictures/2040_fw.png	343.42769384384155	0.6458630561828613
93	84.05949711799622	response	0	j		91.0	/experiments/knapen_AOT/AOT_stimuli/pictures/2040_fw.png	344.0351359844208	
94	84.09791803359985	picture	0		75	92.0	/experiments/knapen_AOT/AOT_stimuli/pictures/1528_fw.png	344.0735569000244	0.6614100933074951
94	84.71810603141785	response	0	j		92.0	/experiments/knapen_AOT/AOT_stimuli/pictures/1528_fw.png	344.6937448978424	
95	84.75932812690735	picture	0		117	93.0	/experiments/knapen_AOT/AOT_stimuli/pictures/0293_fw.png	344.7349669933319	1.0332980155944824
95	85.72610592842102	response	0	j		93.0	/experiments/knapen_AOT/AOT_stimuli/pictures/0293_fw.png	345.7017447948456	
96	85.79262614250183	picture	0		84	94.0	/experiments/knapen_AOT/AOT_stimuli/pictures/0378_fw.png	345.7682650089264	0.7500138282775879
96	86.48451900482178	response	0	j		94.0	/experiments/knapen_AOT/AOT_stimuli/pictures/0378_fw.png	346.46015787124634	
97	86.54263997077942	picture	0		93	95.0	/experiments/knapen_AOT/AOT_stimuli/pictures/1207_fw.png	346.518278837204	0.8053581714630127
97	87.30959892272949	response	0	k		95.0	/experiments/knapen_AOT/AOT_stimuli/pictures/1207_fw.png	347.28523778915405	
98	87.34799814224243	picture	0		90	96.0	/experiments/knapen_AOT/AOT_stimuli/pictures/1264_fw.png	347.323637008667	0.7779958248138428
98	88.09294199943542	response	0	k		96.0	/experiments/knapen_AOT/AOT_stimuli/pictures/1264_fw.png	348.06858086586	
99	88.12599396705627	picture	0		117	97.0	/experiments/knapen_AOT/AOT_stimuli/pictures/2043_fw.png	348.10163283348083	1.0416710376739502
99	89.1095700263977	response	0	j		97.0	/experiments/knapen_AOT/AOT_stimuli/pictures/2043_fw.png	349.08520889282227	
100	89.16766500473022	picture	0		86	98.0	/experiments/knapen_AOT/AOT_stimuli/pictures/1785_fw.png	349.1433038711548	0.7667670249938965
100	89.87615513801575	response	0	k		98.0	/experiments/knapen_AOT/AOT_stimuli/pictures/1785_fw.png	349.8517940044403	
101	89.93443202972412	picture	0		105	99.0	/experiments/knapen_AOT/AOT_stimuli/pictures/0671_fw.png	349.9100708961487	0.9250490665435791
101	90.80120015144348	response	0	k		99.0	/experiments/knapen_AOT/AOT_stimuli/pictures/0671_fw.png	350.77683901786804	
102	90.8594810962677	picture	0		81	100.0	/experiments/knapen_AOT/AOT_stimuli/pictures/0340_fw.png	350.83511996269226	0.7176430225372314
102	91.5261881351471	response	0	k		100.0	/experiments/knapen_AOT/AOT_stimuli/pictures/0340_fw.png	351.50182700157166	
103	91.57712411880493	picture	0		83	101.0	/experiments/knapen_AOT/AOT_stimuli/pictures/2076_fw.png	351.5527629852295	0.7155749797821045
103	92.25967907905579	response	0	j		101.0	/experiments/knapen_AOT/AOT_stimuli/pictures/2076_fw.png	352.23531794548035	
104	92.29269909858704	picture	0		78	102.0	/experiments/knapen_AOT/AOT_stimuli/pictures/0866_fw.png	352.2683379650116	0.6803328990936279
104	92.93452310562134	response	0	j		102.0	/experiments/knapen_AOT/AOT_stimuli/pictures/0866_fw.png	352.9101619720459	
105	92.97303199768066	picture	0		80	103.0	/experiments/knapen_AOT/AOT_stimuli/pictures/0735_fw.png	352.9486708641052	0.7197611331939697
105	93.63467407226562	response	0	j		103.0	/experiments/knapen_AOT/AOT_stimuli/pictures/0735_fw.png	353.6103129386902	
106	93.69279313087463	picture	0		88	104.0	/experiments/knapen_AOT/AOT_stimuli/pictures/0253_fw.png	353.6684319972992	0.9249999523162842
106	94.41790795326233	response	0	j		104.0	/experiments/knapen_AOT/AOT_stimuli/pictures/0253_fw.png	354.3935468196869	
107	94.61779308319092	picture	0		85	105.0	/experiments/knapen_AOT/AOT_stimuli/pictures/1802_fw.png	354.5934319496155	0.7582838535308838
107	95.3179919719696	response	0	j		105.0	/experiments/knapen_AOT/AOT_stimuli/pictures/1802_fw.png	355.29363083839417	
108	95.3760769367218	picture	0		90	106.0	/experiments/knapen_AOT/AOT_stimuli/pictures/1796_fw.png	355.35171580314636	0.7916820049285889
108	96.11799097061157	response	0	j		106.0	/experiments/knapen_AOT/AOT_stimuli/pictures/1796_fw.png	356.09362983703613	
109	96.16775894165039	picture	0		85	107.0	/experiments/knapen_AOT/AOT_stimuli/pictures/0308_fw.png	356.14339780807495	0.7358920574188232
109	96.86795997619629	response	0	j		107.0	/experiments/knapen_AOT/AOT_stimuli/pictures/0308_fw.png	356.84359884262085	
110	96.90365099906921	picture	0		86	108.0	/experiments/knapen_AOT/AOT_stimuli/pictures/0494_fw.png	356.8792898654938	0.7429821491241455
110	97.60960602760315	response	0	j		108.0	/experiments/knapen_AOT/AOT_stimuli/pictures/0494_fw.png	357.5852448940277	
111	97.64663314819336	picture	0		94	109.0	/experiments/knapen_AOT/AOT_stimuli/pictures/1963_fw.png	357.6222720146179	0.8055129051208496
111	98.41793012619019	response	0	j		109.0	/experiments/knapen_AOT/AOT_stimuli/pictures/1963_fw.png	358.39356899261475	
112	98.45214605331421	picture	0		88	110.0	/experiments/knapen_AOT/AOT_stimuli/pictures/1825_fw.png	358.42778491973877	0.7824158668518066
112	99.16971206665039	response	0	j		110.0	/experiments/knapen_AOT/AOT_stimuli/pictures/1825_fw.png	359.14535093307495	
113	99.23456192016602	picture	0		80	111.0	/experiments/knapen_AOT/AOT_stimuli/pictures/0684_fw.png	359.2102007865906	0.7037501335144043
113	99.89296507835388	response	0	j		111.0	/experiments/knapen_AOT/AOT_stimuli/pictures/0684_fw.png	359.86860394477844	
114	99.93831205368042	picture	0		198	112.0	/experiments/knapen_AOT/AOT_stimuli/pictures/0977_fw.png	359.913950920105	1.6879448890686035
114	101.56960606575012	response	0	k		112.0	/experiments/knapen_AOT/AOT_stimuli/pictures/0977_fw.png	361.5452449321747	
115	101.62625694274902	picture	0		109	113.0	/experiments/knapen_AOT/AOT_stimuli/pictures/1148_fw.png	361.6018958091736	0.937082052230835
115	102.5263180732727	response	0	j		113.0	/experiments/knapen_AOT/AOT_stimuli/pictures/1148_fw.png	362.50195693969727	
116	102.56333899497986	picture	0		89	114.0	/experiments/knapen_AOT/AOT_stimuli/pictures/1900_fw.png	362.5389778614044	0.763836145401001
116	103.29298400878906	response	0	k		114.0	/experiments/knapen_AOT/AOT_stimuli/pictures/1900_fw.png	363.2686228752136	
117	103.32717514038086	picture	0		83	115.0	/experiments/knapen_AOT/AOT_stimuli/pictures/1224_fw.png	363.3028140068054	0.7323517799377441
117	104.00970792770386	response	0	j		115.0	/experiments/knapen_AOT/AOT_stimuli/pictures/1224_fw.png	363.9853467941284	
118	104.0595269203186	picture	0		79	116.0	/experiments/knapen_AOT/AOT_stimuli/pictures/0005_fw.png	364.03516578674316	0.7122440338134766
118	104.70969200134277	response	0	j		116.0	/experiments/knapen_AOT/AOT_stimuli/pictures/0005_fw.png	364.68533086776733	
119	104.77177095413208	picture	0		85	117.0	/experiments/knapen_AOT/AOT_stimuli/pictures/1787_fw.png	364.74740982055664	0.7569220066070557
119	105.46806812286377	response	0	k		117.0	/experiments/knapen_AOT/AOT_stimuli/pictures/1787_fw.png	365.44370698928833	
120	105.52869296073914	picture	0		79	118.0	/experiments/knapen_AOT/AOT_stimuli/pictures/0553_fw.png	365.5043318271637	0.7059500217437744
120	106.17026805877686	response	0	j		118.0	/experiments/knapen_AOT/AOT_stimuli/pictures/0553_fw.png	366.1459069252014	
121	106.23464298248291	picture	0		89	119.0	/experiments/knapen_AOT/AOT_stimuli/pictures/0694_fw.png	366.21028184890747	0.7665970325469971
121	106.96130013465881	response	0	j		119.0	/experiments/knapen_AOT/AOT_stimuli/pictures/0694_fw.png	366.9369390010834	
122	107.00124001502991	picture	0		95	120.0	/experiments/knapen_AOT/AOT_stimuli/pictures/1821_fw.png	366.97687888145447	0.819087028503418
122	107.78473591804504	response	0	j		120.0	/experiments/knapen_AOT/AOT_stimuli/pictures/1821_fw.png	367.7603747844696	
123	107.82032704353333	picture	0		77	121.0	/experiments/knapen_AOT/AOT_stimuli/pictures/0936_fw.png	367.7959659099579	0.6666250228881836
123	108.45141696929932	response	0	k		121.0	/experiments/knapen_AOT/AOT_stimuli/pictures/0936_fw.png	368.4270558357239	
124	108.48695206642151	picture	0		87	122.0	/experiments/knapen_AOT/AOT_stimuli/pictures/1114_fw.png	368.46259093284607	0.7500369548797607
124	109.20144295692444	response	0	k		122.0	/experiments/knapen_AOT/AOT_stimuli/pictures/1114_fw.png	369.177081823349	
125	109.23698902130127	picture	0		77	123.0	/experiments/knapen_AOT/AOT_stimuli/pictures/2133_fw.png	369.21262788772583	0.6666769981384277
125	109.86808514595032	response	0	j		123.0	/experiments/knapen_AOT/AOT_stimuli/pictures/2133_fw.png	369.8437240123749	
126	109.9036660194397	picture	0		75	124.0	/experiments/knapen_AOT/AOT_stimuli/pictures/0605_fw.png	369.87930488586426	0.673630952835083
126	110.51809000968933	response	0	k		124.0	/experiments/knapen_AOT/AOT_stimuli/pictures/0605_fw.png	370.4937288761139	
127	110.57729697227478	picture	0		69	125.0	/experiments/knapen_AOT/AOT_stimuli/pictures/1667_fw.png	370.55293583869934	0.6250650882720947
127	111.13661694526672	response	0	j		125.0	/experiments/knapen_AOT/AOT_stimuli/pictures/1667_fw.png	371.1122558116913	
128	111.20236206054688	picture	0		83	126.0	/experiments/knapen_AOT/AOT_stimuli/pictures/0737_fw.png	371.17800092697144	0.715595006942749
128	111.88479995727539	response	0	k		126.0	/experiments/knapen_AOT/AOT_stimuli/pictures/0737_fw.png	371.86043882369995	
129	111.91795706748962	picture	0		81	127.0	/experiments/knapen_AOT/AOT_stimuli/pictures/2117_fw.png	371.8935959339142	0.7010738849639893
129	112.58476114273071	response	0	k		127.0	/experiments/knapen_AOT/AOT_stimuli/pictures/2117_fw.png	372.5604000091553	
130	112.61903095245361	picture	0		85	128.0	/experiments/knapen_AOT/AOT_stimuli/pictures/2154_fw.png	372.5946698188782	0.7360281944274902
130	113.31812310218811	response	0	j		128.0	/experiments/knapen_AOT/AOT_stimuli/pictures/2154_fw.png	373.29376196861267	
131	113.3550591468811	picture	0		89	129.0	/experiments/knapen_AOT/AOT_stimuli/pictures/0414_fw.png	373.33069801330566	0.7849209308624268
131	114.08480215072632	response	0	j		129.0	/experiments/knapen_AOT/AOT_stimuli/pictures/0414_fw.png	374.0604410171509	
132	114.13998007774353	picture	0		101	130.0	/experiments/knapen_AOT/AOT_stimuli/pictures/1338_fw.png	374.1156189441681	0.8956539630889893
132	114.96983098983765	response	0	j		130.0	/experiments/knapen_AOT/AOT_stimuli/pictures/1338_fw.png	374.9454698562622	
133	115.03563404083252	picture	0		88	131.0	/experiments/knapen_AOT/AOT_stimuli/pictures/0517_fw.png	375.0112729072571	0.7823929786682129
133	115.75314497947693	response	0	k		131.0	/experiments/knapen_AOT/AOT_stimuli/pictures/0517_fw.png	375.7287838459015	
134	115.81802701950073	picture	0		78	132.0	/experiments/knapen_AOT/AOT_stimuli/pictures/0581_fw.png	375.7936658859253	0.69999098777771
134	116.45985102653503	response	0	k		132.0	/experiments/knapen_AOT/AOT_stimuli/pictures/0581_fw.png	376.4354898929596	
135	116.51801800727844	picture	0		88	133.0	/experiments/knapen_AOT/AOT_stimuli/pictures/2145_fw.png	376.493656873703	0.7607290744781494
135	117.2431800365448	response	0	k		133.0	/experiments/knapen_AOT/AOT_stimuli/pictures/2145_fw.png	377.21881890296936	
136	117.27874708175659	picture	0		85	134.0	/experiments/knapen_AOT/AOT_stimuli/pictures/1988_fw.png	377.25438594818115	0.7361018657684326
136	117.96973204612732	response	0	j		134.0	/experiments/knapen_AOT/AOT_stimuli/pictures/1988_fw.png	377.9453709125519	
137	118.01484894752502	picture	0		93	135.0	/experiments/knapen_AOT/AOT_stimuli/pictures/1367_fw.png	377.9904878139496	0.8366460800170898
137	118.7849109172821	response	0	j		135.0	/experiments/knapen_AOT/AOT_stimuli/pictures/1367_fw.png	378.76054978370667	
138	118.85149502754211	picture	0		80	136.0	/experiments/knapen_AOT/AOT_stimuli/pictures/0666_fw.png	378.8271338939667	0.7165660858154297
138	119.50994896888733	response	0	k		136.0	/experiments/knapen_AOT/AOT_stimuli/pictures/0666_fw.png	379.4855878353119	
139	119.56806111335754	picture	0		87	137.0	/experiments/knapen_AOT/AOT_stimuli/pictures/1416_fw.png	379.5436999797821	0.7666988372802734
139	120.28496098518372	response	0	j		137.0	/experiments/knapen_AOT/AOT_stimuli/pictures/1416_fw.png	380.2605998516083	
140	120.33475995063782	picture	0		79	138.0	/experiments/knapen_AOT/AOT_stimuli/pictures/1022_fw.png	380.3103988170624	0.7000391483306885
140	120.97807693481445	response	0	k		138.0	/experiments/knapen_AOT/AOT_stimuli/pictures/1022_fw.png	380.953715801239	
141	121.0347990989685	picture	0		205	139.0	/experiments/knapen_AOT/AOT_stimuli/pictures/1125_fw.png	381.01043796539307	1.7369580268859863
141	122.73499703407288	response	0	k		139.0	/experiments/knapen_AOT/AOT_stimuli/pictures/1125_fw.png	382.71063590049744	
142	122.77175712585449	picture	0		105	140.0	/experiments/knapen_AOT/AOT_stimuli/pictures/0657_fw.png	382.74739599227905	0.9130568504333496
142	123.63501811027527	response	0	k		140.0	/experiments/knapen_AOT/AOT_stimuli/pictures/0657_fw.png	383.61065697669983	
143	123.68481397628784	picture	0		69	141.0	/experiments/knapen_AOT/AOT_stimuli/pictures/0797_fw.png	383.6604528427124	0.6333611011505127
143	124.25169491767883	response	0	j		141.0	/experiments/knapen_AOT/AOT_stimuli/pictures/0797_fw.png	384.2273337841034	
144	124.31817507743835	picture	0		81	142.0	/experiments/knapen_AOT/AOT_stimuli/pictures/1138_fw.png	384.2938139438629	0.7249538898468018
144	124.97821712493896	response	0	j		142.0	/experiments/knapen_AOT/AOT_stimuli/pictures/1138_fw.png	384.9538559913635	
145	125.04312896728516	picture	0		73	143.0	/experiments/knapen_AOT/AOT_stimuli/pictures/1011_fw.png	385.0187678337097	0.6592681407928467
145	125.64333510398865	response	0	j		143.0	/experiments/knapen_AOT/AOT_stimuli/pictures/1011_fw.png	385.6189739704132	
146	125.702397108078	picture	0		88	144.0	/experiments/knapen_AOT/AOT_stimuli/pictures/0654_fw.png	385.67803597450256	0.7658998966217041
146	126.42666292190552	response	0	j		144.0	/experiments/knapen_AOT/AOT_stimuli/pictures/0654_fw.png	386.4023017883301	
147	126.4682970046997	picture	0		81	145.0	/experiments/knapen_AOT/AOT_stimuli/pictures/1268_fw.png	386.44393587112427	0.7082400321960449
147	127.13504600524902	response	0	k		145.0	/experiments/knapen_AOT/AOT_stimuli/pictures/1268_fw.png	387.1106848716736	
148	127.17653703689575	picture	0		76	146.0	/experiments/knapen_AOT/AOT_stimuli/pictures/1170_fw.png	387.1521759033203	0.6667079925537109
148	127.80174708366394	response	0	k		146.0	/experiments/knapen_AOT/AOT_stimuli/pictures/1170_fw.png	387.7773859500885	
149	127.84324502944946	picture	0		82	147.0	/experiments/knapen_AOT/AOT_stimuli/pictures/0203_fw.png	387.818883895874	0.716623067855835
149	128.5183789730072	response	0	k		147.0	/experiments/knapen_AOT/AOT_stimuli/pictures/0203_fw.png	388.49401783943176	
150	128.5598680973053	picture	0		81	148.0	/experiments/knapen_AOT/AOT_stimuli/pictures/0762_fw.png	388.53550696372986	0.7168140411376953
150	129.2266550064087	response	0	j		148.0	/experiments/knapen_AOT/AOT_stimuli/pictures/0762_fw.png	389.20229387283325	
151	129.276682138443	picture	0		98	149.0	/experiments/knapen_AOT/AOT_stimuli/pictures/1239_fw.png	389.25232100486755	0.8701989650726318
151	130.08502507209778	response	0	k		149.0	/experiments/knapen_AOT/AOT_stimuli/pictures/1239_fw.png	390.06066393852234	
152	130.14688110351562	picture	0		86	150.0	/experiments/knapen_AOT/AOT_stimuli/pictures/0104_fw.png	390.1225199699402	0.7630410194396973
152	130.85168194770813	response	0	k		150.0	/experiments/knapen_AOT/AOT_stimuli/pictures/0104_fw.png	390.8273208141327	
153	130.90992212295532	picture	0		112	151.0	/experiments/knapen_AOT/AOT_stimuli/pictures/1907_fw.png	390.8855609893799	0.9591319561004639
153	131.83500814437866	response	0	k		151.0	/experiments/knapen_AOT/AOT_stimuli/pictures/1907_fw.png	391.8106470108032	
154	131.8690540790558	picture	0		84	152.0	/experiments/knapen_AOT/AOT_stimuli/pictures/0913_fw.png	391.84469294548035	0.724186897277832
154	132.55355215072632	response	0	k		152.0	/experiments/knapen_AOT/AOT_stimuli/pictures/0913_fw.png	392.5291910171509	
155	132.59324097633362	picture	0		97	153.0	/experiments/knapen_AOT/AOT_stimuli/pictures/1542_fw.png	392.5688798427582	0.8385100364685059
155	133.3935329914093	response	0	j		153.0	/experiments/knapen_AOT/AOT_stimuli/pictures/1542_fw.png	393.36917185783386	
156	133.43175101280212	picture	0		98	154.0	/experiments/knapen_AOT/AOT_stimuli/pictures/1303_fw.png	393.4073898792267	0.8470759391784668
156	134.24344611167908	response	0	j		154.0	/experiments/knapen_AOT/AOT_stimuli/pictures/1303_fw.png	394.21908497810364	
157	134.2788269519806	picture	0		88	155.0	/experiments/knapen_AOT/AOT_stimuli/pictures/0588_fw.png	394.25446581840515	0.847769021987915
157	135.0017819404602	response	0	j		155.0	/experiments/knapen_AOT/AOT_stimuli/pictures/0588_fw.png	394.97742080688477	
158	135.1265959739685	picture	0		108	156.0	/experiments/knapen_AOT/AOT_stimuli/pictures/1053_fw.png	395.10223484039307	0.9509141445159912
158	136.01851296424866	response	0	j		156.0	/experiments/knapen_AOT/AOT_stimuli/pictures/1053_fw.png	395.9941518306732	
159	136.0775101184845	picture	0		96	157.0	/experiments/knapen_AOT/AOT_stimuli/pictures/1350_fw.png	396.05314898490906	0.8263928890228271
159	136.86855912208557	response	0	k		157.0	/experiments/knapen_AOT/AOT_stimuli/pictures/1350_fw.png	396.84419798851013	
160	136.90390300750732	picture	0		90	158.0	/experiments/knapen_AOT/AOT_stimuli/pictures/0274_fw.png	396.8795418739319	0.7778301239013672
160	137.64341711997986	response	0	k		158.0	/experiments/knapen_AOT/AOT_stimuli/pictures/0274_fw.png	397.6190559864044	
161	137.6817331314087	picture	0		120	159.0	/experiments/knapen_AOT/AOT_stimuli/pictures/1832_fw.png	397.65737199783325	1.036606788635254
161	138.6684980392456	response	0	k		159.0	/experiments/knapen_AOT/AOT_stimuli/pictures/1832_fw.png	398.64413690567017	
162	138.71833992004395	picture	0		93	160.0	/experiments/knapen_AOT/AOT_stimuli/pictures/2015_fw.png	398.6939787864685	0.8500401973724365
162	139.51026606559753	response	0	j		160.0	/experiments/knapen_AOT/AOT_stimuli/pictures/2015_fw.png	399.4859049320221	
163	139.56838011741638	picture	0		123	161.0	/experiments/knapen_AOT/AOT_stimuli/pictures/1555_fw.png	399.54401898384094	1.0749878883361816
163	140.57849407196045	response	0	k		161.0	/experiments/knapen_AOT/AOT_stimuli/pictures/1555_fw.png	400.554132938385	
164	140.64336800575256	picture	0		83	162.0	/experiments/knapen_AOT/AOT_stimuli/pictures/1509_fw.png	400.6190068721771	0.7416579723358154
164	141.3269021511078	response	0	j		162.0	/experiments/knapen_AOT/AOT_stimuli/pictures/1509_fw.png	401.30254101753235	
165	141.38502597808838	picture	0		91	163.0	/experiments/knapen_AOT/AOT_stimuli/pictures/1347_fw.png	401.36066484451294	0.7833809852600098
165	142.135174036026	response	0	k		163.0	/experiments/knapen_AOT/AOT_stimuli/pictures/1347_fw.png	402.11081290245056	
166	142.1684069633484	picture	0		88	164.0	/experiments/knapen_AOT/AOT_stimuli/pictures/1124_fw.png	402.14404582977295	0.7634110450744629
166	142.89352011680603	response	0	k		164.0	/experiments/knapen_AOT/AOT_stimuli/pictures/1124_fw.png	402.8691589832306	
167	142.93181800842285	picture	0		166	165.0	/experiments/knapen_AOT/AOT_stimuli/pictures/0399_fw.png	402.9074568748474	1.4372811317443848
167	144.3102400302887	response	0	k		165.0	/experiments/knapen_AOT/AOT_stimuli/pictures/0399_fw.png	404.28587889671326	
168	144.36909914016724	picture	0		83	166.0	/experiments/knapen_AOT/AOT_stimuli/pictures/1463_fw.png	404.3447380065918	0.7409968376159668
168	145.05200505256653	response	0	k		166.0	/experiments/knapen_AOT/AOT_stimuli/pictures/1463_fw.png	405.0276439189911	
169	145.1100959777832	picture	0		98	167.0	/experiments/knapen_AOT/AOT_stimuli/pictures/0863_fw.png	405.08573484420776	0.8666341304779053
169	145.91864705085754	response	0	k		167.0	/experiments/knapen_AOT/AOT_stimuli/pictures/0863_fw.png	405.8942859172821	
170	145.9767301082611	picture	0		70	168.0	/experiments/knapen_AOT/AOT_stimuli/pictures/1553_fw.png	405.95236897468567	0.6356339454650879
170	146.5452389717102	response	0	j		168.0	/experiments/knapen_AOT/AOT_stimuli/pictures/1553_fw.png	406.52087783813477	
171	146.6123640537262	picture	0		89	169.0	/experiments/knapen_AOT/AOT_stimuli/pictures/0719_fw.png	406.58800292015076	0.7727298736572266
171	147.343740940094	response	0	j		169.0	/experiments/knapen_AOT/AOT_stimuli/pictures/0719_fw.png	407.31937980651855	
172	147.38509392738342	picture	0		87	170.0	/experiments/knapen_AOT/AOT_stimuli/pictures/0803_fw.png	407.360732793808	0.9083201885223389
172	148.1019139289856	response	0	k		170.0	/experiments/knapen_AOT/AOT_stimuli/pictures/0803_fw.png	408.07755279541016	
173	148.29341411590576	picture	0		80	171.0	/experiments/knapen_AOT/AOT_stimuli/pictures/0341_fw.png	408.2690529823303	0.7167239189147949
173	148.94509100914001	response	0	k		171.0	/experiments/knapen_AOT/AOT_stimuli/pictures/0341_fw.png	408.9207298755646	
174	149.01013803482056	picture	0		70	172.0	/experiments/knapen_AOT/AOT_stimuli/pictures/0029_fw.png	408.9857769012451	0.6249771118164062
174	149.58522510528564	response	0	j		172.0	/experiments/knapen_AOT/AOT_stimuli/pictures/0029_fw.png	409.5608639717102	
175	149.63511514663696	picture	0		97	173.0	/experiments/knapen_AOT/AOT_stimuli/pictures/0847_fw.png	409.6107540130615	0.8590619564056396
175	150.43524599075317	response	0	k		173.0	/experiments/knapen_AOT/AOT_stimuli/pictures/0847_fw.png	410.41088485717773	
176	150.4941771030426	picture	0		85	174.0	/experiments/knapen_AOT/AOT_stimuli/pictures/1983_fw.png	410.46981596946716	0.757727861404419
176	151.1936149597168	response	0	j		174.0	/experiments/knapen_AOT/AOT_stimuli/pictures/1983_fw.png	411.16925382614136	
177	151.25190496444702	picture	0		83	175.0	/experiments/knapen_AOT/AOT_stimuli/pictures/1467_fw.png	411.2275438308716	0.7249701023101807
177	151.9352810382843	response	0	k		175.0	/experiments/knapen_AOT/AOT_stimuli/pictures/1467_fw.png	411.91091990470886	
178	151.9768750667572	picture	0		89	176.0	/experiments/knapen_AOT/AOT_stimuli/pictures/0927_fw.png	411.95251393318176	0.7750139236450195
178	152.71030592918396	response	0	j		176.0	/experiments/knapen_AOT/AOT_stimuli/pictures/0927_fw.png	412.6859447956085	
179	152.75188899040222	picture	0		91	177.0	/experiments/knapen_AOT/AOT_stimuli/pictures/1214_fw.png	412.7275278568268	0.7840840816497803
179	153.50202894210815	response	0	k		177.0	/experiments/knapen_AOT/AOT_stimuli/pictures/1214_fw.png	413.4776678085327	
180	153.535973072052	picture	0		85	178.0	/experiments/knapen_AOT/AOT_stimuli/pictures/1770_fw.png	413.51161193847656	0.7575578689575195
180	154.2352809906006	response	0	j		178.0	/experiments/knapen_AOT/AOT_stimuli/pictures/1770_fw.png	414.21091985702515	
181	154.29353094100952	picture	0		75	179.0	/experiments/knapen_AOT/AOT_stimuli/pictures/2071_fw.png	414.2691698074341	0.6799850463867188
181	154.91041803359985	response	0	k		179.0	/experiments/knapen_AOT/AOT_stimuli/pictures/2071_fw.png	414.8860569000244	
182	154.97351598739624	picture	0		75	180.0	/experiments/knapen_AOT/AOT_stimuli/pictures/1599_fw.png	414.9491548538208	0.6533370018005371
182	155.57863903045654	response	0	j		180.0	/experiments/knapen_AOT/AOT_stimuli/pictures/1599_fw.png	415.5542778968811	
183	155.62685298919678	picture	0		92	181.0	/experiments/knapen_AOT/AOT_stimuli/pictures/0267_fw.png	415.60249185562134	0.8119471073150635
183	156.3853521347046	response	0	j		181.0	/experiments/knapen_AOT/AOT_stimuli/pictures/0267_fw.png	416.36099100112915	
184	156.43880009651184	picture	0		80	182.0	/experiments/knapen_AOT/AOT_stimuli/pictures/0044_fw.png	416.4144389629364	0.6804330348968506
184	157.09385895729065	response	0	k		182.0	/experiments/knapen_AOT/AOT_stimuli/pictures/0044_fw.png	417.0694978237152	
185	157.1192331314087	picture	0		83	183.0	/experiments/knapen_AOT/AOT_stimuli/pictures/0186_fw.png	417.09487199783325	0.7159810066223145
185	157.8020360469818	response	0	k		183.0	/experiments/knapen_AOT/AOT_stimuli/pictures/0186_fw.png	417.7776749134064	
186	157.835214138031	picture	0		80	184.0	/experiments/knapen_AOT/AOT_stimuli/pictures/0192_fw.png	417.81085300445557	0.6937708854675293
186	158.4937720298767	response	0	j		184.0	/experiments/knapen_AOT/AOT_stimuli/pictures/0192_fw.png	418.46941089630127	
187	158.52898502349854	picture	0		93	185.0	/experiments/knapen_AOT/AOT_stimuli/pictures/1498_fw.png	418.5046238899231	0.7987239360809326
187	159.2938950061798	response	0	k		185.0	/experiments/knapen_AOT/AOT_stimuli/pictures/1498_fw.png	419.26953387260437	
188	159.32770895957947	picture	0		100	186.0	/experiments/knapen_AOT/AOT_stimuli/pictures/1871_fw.png	419.303347826004	0.8680720329284668
188	160.14557600021362	response	0	j		186.0	/experiments/knapen_AOT/AOT_stimuli/pictures/1871_fw.png	420.1212148666382	
189	160.19578099250793	picture	0		90	187.0	/experiments/knapen_AOT/AOT_stimuli/pictures/1719_fw.png	420.1714198589325	0.7776319980621338
189	160.93547201156616	response	0	k		187.0	/experiments/knapen_AOT/AOT_stimuli/pictures/1719_fw.png	420.9111108779907	
190	160.97341299057007	picture	0		87	188.0	/experiments/knapen_AOT/AOT_stimuli/pictures/1301_fw.png	420.94905185699463	0.7638471126556396
190	161.69387102127075	response	0	j		188.0	/experiments/knapen_AOT/AOT_stimuli/pictures/1301_fw.png	421.6695098876953	
191	161.7372601032257	picture	0		81	189.0	/experiments/knapen_AOT/AOT_stimuli/pictures/0194_fw.png	421.71289896965027	0.7063720226287842
191	162.4021599292755	response	0	k		189.0	/experiments/knapen_AOT/AOT_stimuli/pictures/0194_fw.png	422.3777987957001	
192	162.4436321258545	picture	0		87	190.0	/experiments/knapen_AOT/AOT_stimuli/pictures/1939_fw.png	422.41927099227905	0.7583439350128174
192	163.15374994277954	response	0	j		190.0	/experiments/knapen_AOT/AOT_stimuli/pictures/1939_fw.png	423.1293888092041	
193	163.2019760608673	picture	0		102	191.0	/experiments/knapen_AOT/AOT_stimuli/pictures/0320_fw.png	423.17761492729187	0.8964669704437256
193	164.04390692710876	response	0	k		191.0	/experiments/knapen_AOT/AOT_stimuli/pictures/0320_fw.png	424.0195457935333	
194	164.09844303131104	picture	0		74	192.0	/experiments/knapen_AOT/AOT_stimuli/pictures/0891_fw.png	424.0740818977356	0.6735780239105225
194	164.71055006980896	response	0	j		192.0	/experiments/knapen_AOT/AOT_stimuli/pictures/0891_fw.png	424.6861889362335	
195	164.77202105522156	picture	0		76	193.0	/experiments/knapen_AOT/AOT_stimuli/pictures/1079_fw.png	424.7476599216461	0.6805839538574219
195	165.39390397071838	response	0	k		193.0	/experiments/knapen_AOT/AOT_stimuli/pictures/1079_fw.png	425.36954283714294	
196	165.45260500907898	picture	0		103	194.0	/experiments/knapen_AOT/AOT_stimuli/pictures/0932_fw.png	425.42824387550354	0.8910930156707764
196	166.3021960258484	response	0	j		194.0	/experiments/knapen_AOT/AOT_stimuli/pictures/0932_fw.png	426.27783489227295	
197	166.34369802474976	picture	0		98	195.0	/experiments/knapen_AOT/AOT_stimuli/pictures/2164_fw.png	426.3193368911743	0.841641902923584
197	167.14547204971313	response	0	k		195.0	/experiments/knapen_AOT/AOT_stimuli/pictures/2164_fw.png	427.1211109161377	
198	167.18533992767334	picture	0		88	196.0	/experiments/knapen_AOT/AOT_stimuli/pictures/1674_fw.png	427.1609787940979	0.7604591846466064
198	167.91107892990112	response	0	j		196.0	/experiments/knapen_AOT/AOT_stimuli/pictures/1674_fw.png	427.8867177963257	
199	167.94579911231995	picture	0		80	197.0	/experiments/knapen_AOT/AOT_stimuli/pictures/0910_fw.png	427.9214379787445	0.6943328380584717
199	168.60222792625427	response	0	j		197.0	/experiments/knapen_AOT/AOT_stimuli/pictures/0910_fw.png	428.57786679267883	
200	168.64013195037842	picture	0		93	198.0	/experiments/knapen_AOT/AOT_stimuli/pictures/1298_fw.png	428.615770816803	0.8333351612091064
200	169.41108512878418	response	0	j		198.0	/experiments/knapen_AOT/AOT_stimuli/pictures/1298_fw.png	429.38672399520874	
201	169.47346711158752	picture	0		75	199.0	/experiments/knapen_AOT/AOT_stimuli/pictures/0233_fw.png	429.4491059780121	0.6735689640045166
201	170.09397912025452	response	0	j		199.0	/experiments/knapen_AOT/AOT_stimuli/pictures/0233_fw.png	430.0696179866791	
202	170.14703607559204	picture	0		97	200.0	/experiments/knapen_AOT/AOT_stimuli/pictures/1848_fw.png	430.1226749420166	0.8472299575805664
202	170.94400691986084	response	0	k		200.0	/experiments/knapen_AOT/AOT_stimuli/pictures/1848_fw.png	430.9196457862854	
203	170.9942660331726	picture	0		118	201.0	/experiments/knapen_AOT/AOT_stimuli/pictures/1845_fw.png	430.96990489959717	1.0138969421386719
203	171.96216797828674	response	0	k		201.0	/experiments/knapen_AOT/AOT_stimuli/pictures/1845_fw.png	431.9378068447113	
204	172.00816297531128	picture	0		67	202.0	/experiments/knapen_AOT/AOT_stimuli/pictures/1425_fw.png	431.98380184173584	0.5903010368347168
204	172.5537929534912	response	0	j		202.0	/experiments/knapen_AOT/AOT_stimuli/pictures/1425_fw.png	432.52943181991577	
205	172.598464012146	picture	0		79	203.0	/experiments/knapen_AOT/AOT_stimuli/pictures/1686_fw.png	432.57410287857056	0.6735949516296387
205	173.244530916214	response	0	k		203.0	/experiments/knapen_AOT/AOT_stimuli/pictures/1686_fw.png	433.22016978263855	
206	173.27205896377563	picture	0		79	204.0	/experiments/knapen_AOT/AOT_stimuli/pictures/1300_fw.png	433.2476978302002	0.7083351612091064
206	173.9190230369568	response	0	k		204.0	/experiments/knapen_AOT/AOT_stimuli/pictures/1300_fw.png	433.89466190338135	
207	173.98039412498474	picture	0		97	205.0	/experiments/knapen_AOT/AOT_stimuli/pictures/1050_fw.png	433.9560329914093	0.8333740234375
207	174.77053904533386	response	0	k		205.0	/experiments/knapen_AOT/AOT_stimuli/pictures/1050_fw.png	434.7461779117584	
208	174.81376814842224	picture	0		75	206.0	/experiments/knapen_AOT/AOT_stimuli/pictures/1522_fw.png	434.7894070148468	0.6550359725952148
208	175.42726302146912	response	0	j		206.0	/experiments/knapen_AOT/AOT_stimuli/pictures/1522_fw.png	435.4029018878937	
209	175.46880412101746	picture	0		80	207.0	/experiments/knapen_AOT/AOT_stimuli/pictures/1327_fw.png	435.444442987442	0.7000210285186768
209	176.12726306915283	response	0	k		207.0	/experiments/knapen_AOT/AOT_stimuli/pictures/1327_fw.png	436.1029019355774	
210	176.16882514953613	picture	0		99	208.0	/experiments/knapen_AOT/AOT_stimuli/pictures/0765_fw.png	436.1444640159607	0.8602778911590576
210	176.97887992858887	response	0	j		208.0	/experiments/knapen_AOT/AOT_stimuli/pictures/0765_fw.png	436.9545187950134	
211	177.0291030406952	picture	0		90	209.0	/experiments/knapen_AOT/AOT_stimuli/pictures/1935_fw.png	437.00474190711975	0.7777450084686279
211	177.76219201087952	response	0	k		209.0	/experiments/knapen_AOT/AOT_stimuli/pictures/1935_fw.png	437.7378308773041	
212	177.80684804916382	picture	0		81	210.0	/experiments/knapen_AOT/AOT_stimuli/pictures/1772_fw.png	437.7824869155884	0.7083110809326172
212	178.47730112075806	response	0	k		210.0	/experiments/knapen_AOT/AOT_stimuli/pictures/1772_fw.png	438.4529399871826	
213	178.51515913009644	picture	0		80	211.0	/experiments/knapen_AOT/AOT_stimuli/pictures/0231_fw.png	438.490797996521	0.7203388214111328
213	179.1706120967865	response	0	k		211.0	/experiments/knapen_AOT/AOT_stimuli/pictures/0231_fw.png	439.14625096321106	
214	179.23549795150757	picture	0		92	212.0	/experiments/knapen_AOT/AOT_stimuli/pictures/0729_fw.png	439.21113681793213	0.8166730403900146
214	179.99448800086975	response	0	j		212.0	/experiments/knapen_AOT/AOT_stimuli/pictures/0729_fw.png	439.9701268672943	
215	180.05217099189758	picture	0		75	213.0	/experiments/knapen_AOT/AOT_stimuli/pictures/1951_fw.png	440.02780985832214	0.6789441108703613
215	180.66903114318848	response	0	k		213.0	/experiments/knapen_AOT/AOT_stimuli/pictures/1951_fw.png	440.64467000961304	
216	180.73111510276794	picture	0		82	214.0	/experiments/knapen_AOT/AOT_stimuli/pictures/0444_fw.png	440.7067539691925	0.756342887878418
216	181.42745900154114	response	0	k		214.0	/experiments/knapen_AOT/AOT_stimuli/pictures/0444_fw.png	441.4030978679657	
217	181.48745799064636	picture	0		100	215.0	/experiments/knapen_AOT/AOT_stimuli/pictures/0990_fw.png	441.4630968570709	0.8610861301422119
217	182.3107259273529	response	0	j		215.0	/experiments/knapen_AOT/AOT_stimuli/pictures/0990_fw.png	442.28636479377747	
218	182.34854412078857	picture	0		183	216.0	/experiments/knapen_AOT/AOT_stimuli/pictures/0621_fw.png	442.32418298721313	1.5555329322814941
218	183.8695409297943	response	0	k		216.0	/experiments/knapen_AOT/AOT_stimuli/pictures/0621_fw.png	443.8451797962189	
219	183.90407705307007	picture	0		218	217.0	/experiments/knapen_AOT/AOT_stimuli/pictures/1619_fw.png	443.87971591949463	1.8403809070587158
219	185.7107720375061	response	0	k		217.0	/experiments/knapen_AOT/AOT_stimuli/pictures/1619_fw.png	445.68641090393066	
220	185.74445796012878	picture	0		111	218.0	/experiments/knapen_AOT/AOT_stimuli/pictures/0133_fw.png	445.72009682655334	0.9578430652618408
220	186.6612160205841	response	0	k		218.0	/experiments/knapen_AOT/AOT_stimuli/pictures/0133_fw.png	446.63685488700867	
221	186.70230102539062	picture	0		107	219.0	/experiments/knapen_AOT/AOT_stimuli/pictures/0541_fw.png	446.6779398918152	0.924954891204834
221	187.58573698997498	response	0	k		219.0	/experiments/knapen_AOT/AOT_stimuli/pictures/0541_fw.png	447.56137585639954	
222	187.62725591659546	picture	0		83	220.0	/experiments/knapen_AOT/AOT_stimuli/pictures/1502_fw.png	447.60289478302	0.7282540798187256
222	188.31079697608948	response	0	j		220.0	/experiments/knapen_AOT/AOT_stimuli/pictures/1502_fw.png	448.28643584251404	
223	188.35550999641418	picture	0		76	221.0	/experiments/knapen_AOT/AOT_stimuli/pictures/0995_fw.png	448.33114886283875	0.6634550094604492
223	188.97757506370544	response	0	k		221.0	/experiments/knapen_AOT/AOT_stimuli/pictures/0995_fw.png	448.95321393013	
224	189.01896500587463	picture	0		85	222.0	/experiments/knapen_AOT/AOT_stimuli/pictures/0096_fw.png	448.9946038722992	0.7393209934234619
224	189.7191801071167	response	0	k		222.0	/experiments/knapen_AOT/AOT_stimuli/pictures/0096_fw.png	449.69481897354126	
225	189.7582859992981	picture	0		79	223.0	/experiments/knapen_AOT/AOT_stimuli/pictures/1676_fw.png	449.73392486572266	0.7023849487304688
225	190.41119694709778	response	0	j		223.0	/experiments/knapen_AOT/AOT_stimuli/pictures/1676_fw.png	450.38683581352234	
226	190.46067094802856	picture	0		135	224.0	/experiments/knapen_AOT/AOT_stimuli/pictures/0811_fw.png	450.4363098144531	1.1666650772094727
226	191.57787203788757	response	0	j		224.0	/experiments/knapen_AOT/AOT_stimuli/pictures/0811_fw.png	451.55351090431213	
227	191.62733602523804	picture	0		84	225.0	/experiments/knapen_AOT/AOT_stimuli/pictures/0802_fw.png	451.6029748916626	0.7250618934631348
227	192.3191819190979	response	0	j		225.0	/experiments/knapen_AOT/AOT_stimuli/pictures/0802_fw.png	452.29482078552246	
228	192.35239791870117	picture	0		99	226.0	/experiments/knapen_AOT/AOT_stimuli/pictures/1046_fw.png	452.32803678512573	0.8851380348205566
228	193.16290712356567	response	0	j		226.0	/experiments/knapen_AOT/AOT_stimuli/pictures/1046_fw.png	453.13854598999023	
229	193.23753595352173	picture	0		70	227.0	/experiments/knapen_AOT/AOT_stimuli/pictures/1127_fw.png	453.2131748199463	0.6319010257720947
229	193.81091713905334	response	0	j		227.0	/experiments/knapen_AOT/AOT_stimuli/pictures/1127_fw.png	453.7865560054779	
230	193.86943697929382	picture	0		77	228.0	/experiments/knapen_AOT/AOT_stimuli/pictures/1419_fw.png	453.8450758457184	0.6944489479064941
230	194.5026159286499	response	0	j		228.0	/experiments/knapen_AOT/AOT_stimuli/pictures/1419_fw.png	454.47825479507446	
231	194.56388592720032	picture	0		92	229.0	/experiments/knapen_AOT/AOT_stimuli/pictures/0954_fw.png	454.5395247936249	0.805584192276001
231	195.31921195983887	response	0	k		229.0	/experiments/knapen_AOT/AOT_stimuli/pictures/0954_fw.png	455.2948508262634	
232	195.36947011947632	picture	0		80	230.0	/experiments/knapen_AOT/AOT_stimuli/pictures/1902_fw.png	455.3451089859009	0.7162380218505859
232	196.02764010429382	response	0	k		230.0	/experiments/knapen_AOT/AOT_stimuli/pictures/1902_fw.png	456.0032789707184	
233	196.0857081413269	picture	0		96	231.0	/experiments/knapen_AOT/AOT_stimuli/pictures/0500_fw.png	456.06134700775146	0.8254008293151855
233	196.87766814231873	response	0	j		231.0	/experiments/knapen_AOT/AOT_stimuli/pictures/0500_fw.png	456.8533070087433	
234	196.9111089706421	picture	0		100	232.0	/experiments/knapen_AOT/AOT_stimuli/pictures/1949_fw.png	456.88674783706665	0.8611299991607666
234	197.7360200881958	response	0	k		232.0	/experiments/knapen_AOT/AOT_stimuli/pictures/1949_fw.png	457.71165895462036	
235	197.77223896980286	picture	0		177	233.0	/experiments/knapen_AOT/AOT_stimuli/pictures/1829_fw.png	457.7478778362274	1.5218379497528076
235	199.23597407341003	response	0	j		233.0	/experiments/knapen_AOT/AOT_stimuli/pictures/1829_fw.png	459.2116129398346	
236	199.29407691955566	picture	0		80	234.0	/experiments/knapen_AOT/AOT_stimuli/pictures/1520_fw.png	459.2697157859802	0.7004170417785645
236	199.9459080696106	response	0	k		234.0	/experiments/knapen_AOT/AOT_stimuli/pictures/1520_fw.png	459.92154693603516	
237	199.99449396133423	picture	0		84	235.0	/experiments/knapen_AOT/AOT_stimuli/pictures/1068_fw.png	459.9701328277588	0.750007152557373
237	200.68598413467407	response	0	j		235.0	/experiments/knapen_AOT/AOT_stimuli/pictures/1068_fw.png	460.66162300109863	
238	200.7445011138916	picture	0		111	236.0	/experiments/knapen_AOT/AOT_stimuli/pictures/0246_fw.png	460.72013998031616	0.9746949672698975
238	201.66128492355347	response	0	j		236.0	/experiments/knapen_AOT/AOT_stimuli/pictures/0246_fw.png	461.636923789978	
239	201.7191960811615	picture	0		81	237.0	/experiments/knapen_AOT/AOT_stimuli/pictures/1191_fw.png	461.69483494758606	0.7058830261230469
239	202.38597702980042	response	0	j		237.0	/experiments/knapen_AOT/AOT_stimuli/pictures/1191_fw.png	462.361615896225	
240	202.42507910728455	picture	0		71	238.0	/experiments/knapen_AOT/AOT_stimuli/pictures/1585_fw.png	462.4007179737091	0.6274099349975586
240	203.01104307174683	response	0	k		238.0	/experiments/knapen_AOT/AOT_stimuli/pictures/1585_fw.png	462.9866819381714	
241	203.0524890422821	picture	0		86	239.0	/experiments/knapen_AOT/AOT_stimuli/pictures/0077_fw.png	463.02812790870667	0.766679048538208
241	203.75427198410034	response	0	k		239.0	/experiments/knapen_AOT/AOT_stimuli/pictures/0077_fw.png	463.7299108505249	
242	203.8191680908203	picture	0		87	240.0	/experiments/knapen_AOT/AOT_stimuli/pictures/1424_fw.png	463.7948069572449	0.7749810218811035
242	204.53634595870972	response	0	j		240.0	/experiments/knapen_AOT/AOT_stimuli/pictures/1424_fw.png	464.5119848251343	
243	204.59414911270142	picture	0		94	241.0	/experiments/knapen_AOT/AOT_stimuli/pictures/1679_fw.png	464.569787979126	0.8333718776702881
243	205.3697030544281	response	0	k		241.0	/experiments/knapen_AOT/AOT_stimuli/pictures/1679_fw.png	465.34534192085266	
244	205.4275209903717	picture	0		95	242.0	/experiments/knapen_AOT/AOT_stimuli/pictures/1690_fw.png	465.40315985679626	0.8334181308746338
244	206.21105813980103	response	0	j		242.0	/experiments/knapen_AOT/AOT_stimuli/pictures/1690_fw.png	466.1866970062256	
245	206.26093912124634	picture	0		91	243.0	/experiments/knapen_AOT/AOT_stimuli/pictures/1666_fw.png	466.2365779876709	0.7892289161682129
245	207.01104402542114	response	0	k		243.0	/experiments/knapen_AOT/AOT_stimuli/pictures/1666_fw.png	466.9866828918457	
246	207.05016803741455	picture	0		87	244.0	/experiments/knapen_AOT/AOT_stimuli/pictures/1909_fw.png	467.0258069038391	0.7568628787994385
246	207.76257300376892	response	0	k		244.0	/experiments/knapen_AOT/AOT_stimuli/pictures/1909_fw.png	467.7382118701935	
247	207.807030916214	picture	0		192	245.0	/experiments/knapen_AOT/AOT_stimuli/pictures/0390_fw.png	467.78266978263855	1.6250181198120117
247	209.394376039505	response	0	j		245.0	/experiments/knapen_AOT/AOT_stimuli/pictures/0390_fw.png	469.37001490592957	
248	209.432049036026	picture	0		158	246.0	/experiments/knapen_AOT/AOT_stimuli/pictures/1996_fw.png	469.40768790245056	1.345560073852539
248	210.73616409301758	response	0	k		246.0	/experiments/knapen_AOT/AOT_stimuli/pictures/1996_fw.png	470.71180295944214	
249	210.77760910987854	picture	0		92	247.0	/experiments/knapen_AOT/AOT_stimuli/pictures/1365_fw.png	470.7532479763031	0.8000278472900391
249	211.53635001182556	response	0	j		247.0	/experiments/knapen_AOT/AOT_stimuli/pictures/1365_fw.png	471.5119888782501	
250	211.57763695716858	picture	0		82	248.0	/experiments/knapen_AOT/AOT_stimuli/pictures/0457_fw.png	471.55327582359314	0.7082610130310059
250	212.25288796424866	response	0	j		248.0	/experiments/knapen_AOT/AOT_stimuli/pictures/0457_fw.png	472.2285268306732	
251	212.28589797019958	picture	0		78	249.0	/experiments/knapen_AOT/AOT_stimuli/pictures/0898_fw.png	472.26153683662415	0.6750431060791016
251	212.92776203155518	response	0	k		249.0	/experiments/knapen_AOT/AOT_stimuli/pictures/0898_fw.png	472.90340089797974	
252	212.9609410762787	picture	0		77	250.0	/experiments/knapen_AOT/AOT_stimuli/pictures/1715_fw.png	472.93657994270325	0.666766881942749
252	213.59448194503784	response	0	j		250.0	/experiments/knapen_AOT/AOT_stimuli/pictures/1715_fw.png	473.5701208114624	
253	213.62770795822144	picture	0		92	251.0	/experiments/knapen_AOT/AOT_stimuli/pictures/0594_fw.png	473.603346824646	0.8182699680328369
253	214.37926411628723	response	0	j		251.0	/experiments/knapen_AOT/AOT_stimuli/pictures/0594_fw.png	474.3549029827118	
254	214.44597792625427	picture	0		84	252.0	/experiments/knapen_AOT/AOT_stimuli/pictures/2097_fw.png	474.42161679267883	0.7399811744689941
254	215.13622903823853	response	0	j		252.0	/experiments/knapen_AOT/AOT_stimuli/pictures/2097_fw.png	475.1118679046631	
255	215.18595910072327	picture	0		86	253.0	/experiments/knapen_AOT/AOT_stimuli/pictures/0206_fw.png	475.1615979671478	0.7669909000396729
255	215.8945391178131	response	0	j		253.0	/experiments/knapen_AOT/AOT_stimuli/pictures/0206_fw.png	475.87017798423767	
256	215.95295000076294	picture	0		89	254.0	/experiments/knapen_AOT/AOT_stimuli/pictures/0221_fw.png	475.9285888671875	0.7747390270233154
256	216.68628907203674	response	0	j		254.0	/experiments/knapen_AOT/AOT_stimuli/pictures/0221_fw.png	476.6619279384613	
257	216.72768902778625	picture	0		84	255.0	/experiments/knapen_AOT/AOT_stimuli/pictures/1063_fw.png	476.7033278942108	0.72524094581604
257	217.4194860458374	response	0	k		255.0	/experiments/knapen_AOT/AOT_stimuli/pictures/1063_fw.png	477.39512491226196	
258	217.4529299736023	picture	0		93	256.0	/experiments/knapen_AOT/AOT_stimuli/pictures/0947_fw.png	477.42856884002686	0.8055579662322998
258	218.21955108642578	response	0	k		256.0	/experiments/knapen_AOT/AOT_stimuli/pictures/0947_fw.png	478.19518995285034	
259	218.2584879398346	picture	0		77	257.0	/experiments/knapen_AOT/AOT_stimuli/pictures/0713_fw.png	478.23412680625916	0.7608602046966553
259	218.89447712898254	response	0	k		257.0	/experiments/knapen_AOT/AOT_stimuli/pictures/0713_fw.png	478.8701159954071	
260	219.01934814453125	picture	0		146	258.0	/experiments/knapen_AOT/AOT_stimuli/pictures/1017_fw.png	478.9949870109558	1.266662836074829
260	220.22795009613037	response	0	j		258.0	/experiments/knapen_AOT/AOT_stimuli/pictures/1017_fw.png	480.20358896255493	
261	220.28601098060608	picture	0		93	259.0	/experiments/knapen_AOT/AOT_stimuli/pictures/0949_fw.png	480.26164984703064	0.8267030715942383
261	221.05296206474304	response	0	j		259.0	/experiments/knapen_AOT/AOT_stimuli/pictures/0949_fw.png	481.0286009311676	
262	221.11271405220032	picture	0		72	260.0	/experiments/knapen_AOT/AOT_stimuli/pictures/1035_fw.png	481.0883529186249	0.6483380794525146
262	221.70314598083496	response	0	k		260.0	/experiments/knapen_AOT/AOT_stimuli/pictures/1035_fw.png	481.6787848472595	
263	221.76105213165283	picture	0		122	261.0	/experiments/knapen_AOT/AOT_stimuli/pictures/1878_fw.png	481.7366909980774	1.0461609363555908
263	222.7629361152649	response	0	k		261.0	/experiments/knapen_AOT/AOT_stimuli/pictures/1878_fw.png	482.73857498168945	
264	222.80721306800842	picture	0		142	262.0	/experiments/knapen_AOT/AOT_stimuli/pictures/2087_fw.png	482.782851934433	1.3471579551696777
264	223.97799706459045	response	0	k		262.0	/experiments/knapen_AOT/AOT_stimuli/pictures/2087_fw.png	483.953635931015	
265	224.1543710231781	picture	0		84	263.0	/experiments/knapen_AOT/AOT_stimuli/pictures/1225_fw.png	484.13000988960266	0.8265619277954102
265	224.844584941864	response	0	j		263.0	/experiments/knapen_AOT/AOT_stimuli/pictures/1225_fw.png	484.8202238082886	
266	224.9809329509735	picture	0		180	264.0	/experiments/knapen_AOT/AOT_stimuli/pictures/0393_fw.png	484.95657181739807	1.548464059829712
266	226.46960401535034	response	0	j		264.0	/experiments/knapen_AOT/AOT_stimuli/pictures/0393_fw.png	486.4452428817749	
267	226.52939701080322	picture	0		88	265.0	/experiments/knapen_AOT/AOT_stimuli/pictures/2014_fw.png	486.5050358772278	0.7569420337677002
267	227.25297093391418	response	0	k		265.0	/experiments/knapen_AOT/AOT_stimuli/pictures/2014_fw.png	487.22860980033875	
268	227.28633904457092	picture	0		111	266.0	/experiments/knapen_AOT/AOT_stimuli/pictures/0046_fw.png	487.2619779109955	0.9515230655670166
268	228.20312404632568	response	0	k		266.0	/experiments/knapen_AOT/AOT_stimuli/pictures/0046_fw.png	488.17876291275024	
269	228.23786211013794	picture	0		91	267.0	/experiments/knapen_AOT/AOT_stimuli/pictures/0726_fw.png	488.2135009765625	0.8065979480743408
269	228.9862539768219	response	0	j		267.0	/experiments/knapen_AOT/AOT_stimuli/pictures/0726_fw.png	488.96189284324646	
270	229.04446005821228	picture	0		89	268.0	/experiments/knapen_AOT/AOT_stimuli/pictures/0306_fw.png	489.02009892463684	0.7917299270629883
270	229.77803993225098	response	0	j		268.0	/experiments/knapen_AOT/AOT_stimuli/pictures/0306_fw.png	489.75367879867554	
271	229.83618998527527	picture	0		86	269.0	/experiments/knapen_AOT/AOT_stimuli/pictures/1450_fw.png	489.81182885169983	0.7666070461273193
271	230.53800201416016	response	0	j		269.0	/experiments/knapen_AOT/AOT_stimuli/pictures/1450_fw.png	490.5136408805847	
272	230.6027970314026	picture	0		170	270.0	/experiments/knapen_AOT/AOT_stimuli/pictures/1981_fw.png	490.57843589782715	1.4544520378112793
272	232.01132893562317	response	0	j		270.0	/experiments/knapen_AOT/AOT_stimuli/pictures/1981_fw.png	491.98696780204773	
273	232.05724906921387	picture	0		89	271.0	/experiments/knapen_AOT/AOT_stimuli/pictures/1898_fw.png	492.0328879356384	0.7706389427185059
273	232.78647112846375	response	0	k		271.0	/experiments/knapen_AOT/AOT_stimuli/pictures/1898_fw.png	492.7621099948883	
274	232.82788801193237	picture	0		87	272.0	/experiments/knapen_AOT/AOT_stimuli/pictures/1055_fw.png	492.80352687835693	0.750154972076416
274	233.53804206848145	response	0	k		272.0	/experiments/knapen_AOT/AOT_stimuli/pictures/1055_fw.png	493.513680934906	
275	233.5780429840088	picture	0		103	273.0	/experiments/knapen_AOT/AOT_stimuli/pictures/0861_fw.png	493.55368185043335	0.9081659317016602
275	234.428081035614	response	0	k		273.0	/experiments/knapen_AOT/AOT_stimuli/pictures/0861_fw.png	494.4037199020386	
276	234.48620891571045	picture	0		169	274.0	/experiments/knapen_AOT/AOT_stimuli/pictures/0974_fw.png	494.461847782135	1.4391071796417236
276	235.88648200035095	response	0	k		274.0	/experiments/knapen_AOT/AOT_stimuli/pictures/0974_fw.png	495.8621208667755	
277	235.92531609535217	picture	0		89	275.0	/experiments/knapen_AOT/AOT_stimuli/pictures/1717_fw.png	495.90095496177673	0.7708899974822998
277	236.66157412528992	response	0	k		275.0	/experiments/knapen_AOT/AOT_stimuli/pictures/1717_fw.png	496.6372129917145	
278	236.69620609283447	picture	0		110	276.0	/experiments/knapen_AOT/AOT_stimuli/pictures/0697_fw.png	496.67184495925903	0.9483518600463867
278	237.60307002067566	response	0	j		276.0	/experiments/knapen_AOT/AOT_stimuli/pictures/0697_fw.png	497.5787088871002	
279	237.64455795288086	picture	0		90	277.0	/experiments/knapen_AOT/AOT_stimuli/pictures/2060_fw.png	497.6201968193054	0.780771017074585
279	238.38636207580566	response	0	j		277.0	/experiments/knapen_AOT/AOT_stimuli/pictures/2060_fw.png	498.3620009422302	
280	238.42532896995544	picture	0		73	278.0	/experiments/knapen_AOT/AOT_stimuli/pictures/1344_fw.png	498.40096783638	0.6609220504760742
280	239.02820897102356	response	0	j		278.0	/experiments/knapen_AOT/AOT_stimuli/pictures/1344_fw.png	499.0038478374481	
281	239.08625102043152	picture	0		115	279.0	/experiments/knapen_AOT/AOT_stimuli/pictures/0622_fw.png	499.0618898868561	1.0083661079406738
281	240.03655695915222	response	0	k		279.0	/experiments/knapen_AOT/AOT_stimuli/pictures/0622_fw.png	500.0121958255768	
282	240.0946171283722	picture	0		91	280.0	/experiments/knapen_AOT/AOT_stimuli/pictures/2081_fw.png	500.07025599479675	0.8098888397216797
282	240.84479594230652	response	0	k		280.0	/experiments/knapen_AOT/AOT_stimuli/pictures/2081_fw.png	500.8204348087311	
283	240.90450596809387	picture	0		78	281.0	/experiments/knapen_AOT/AOT_stimuli/pictures/1139_fw.png	500.88014483451843	0.698436975479126
283	241.53823399543762	response	0	k		281.0	/experiments/knapen_AOT/AOT_stimuli/pictures/1139_fw.png	501.5138728618622	
284	241.602942943573	picture	0		91	282.0	/experiments/knapen_AOT/AOT_stimuli/pictures/1447_fw.png	501.57858180999756	0.791715145111084
284	242.34641194343567	response	0	k		282.0	/experiments/knapen_AOT/AOT_stimuli/pictures/1447_fw.png	502.32205080986023	
285	242.39465808868408	picture	0		84	283.0	/experiments/knapen_AOT/AOT_stimuli/pictures/1648_fw.png	502.37029695510864	0.733299970626831
285	243.08658599853516	response	0	k		283.0	/experiments/knapen_AOT/AOT_stimuli/pictures/1648_fw.png	503.0622248649597	
286	243.1279580593109	picture	0		91	284.0	/experiments/knapen_AOT/AOT_stimuli/pictures/2165_fw.png	503.1035969257355	0.7974190711975098
286	243.8781349658966	response	0	k		284.0	/experiments/knapen_AOT/AOT_stimuli/pictures/2165_fw.png	503.85377383232117	
287	243.92537713050842	picture	0		96	285.0	/experiments/knapen_AOT/AOT_stimuli/pictures/1232_fw.png	503.901015996933	0.8526029586791992
287	244.71983695030212	response	0	k		285.0	/experiments/knapen_AOT/AOT_stimuli/pictures/1232_fw.png	504.6954758167267	
288	244.77798008918762	picture	0		102	286.0	/experiments/knapen_AOT/AOT_stimuli/pictures/0876_fw.png	504.7536189556122	0.9000248908996582
288	245.61993193626404	response	0	j		286.0	/experiments/knapen_AOT/AOT_stimuli/pictures/0876_fw.png	505.5955708026886	
289	245.67800498008728	picture	0		83	287.0	/experiments/knapen_AOT/AOT_stimuli/pictures/1540_fw.png	505.65364384651184	0.7417211532592773
289	246.35479402542114	response	0	k		287.0	/experiments/knapen_AOT/AOT_stimuli/pictures/1540_fw.png	506.3304328918457	
290	246.41972613334656	picture	0		85	288.0	/experiments/knapen_AOT/AOT_stimuli/pictures/0061_fw.png	506.3953649997711	0.749985933303833
290	247.1366159915924	response	0	k		288.0	/experiments/knapen_AOT/AOT_stimuli/pictures/0061_fw.png	507.11225485801697	
291	247.1697120666504	picture	0		144	289.0	/experiments/knapen_AOT/AOT_stimuli/pictures/1810_fw.png	507.14535093307495	1.2333118915557861
291	248.3549931049347	response	0	k		289.0	/experiments/knapen_AOT/AOT_stimuli/pictures/1810_fw.png	508.33063197135925	
292	248.40302395820618	picture	0		82	290.0	/experiments/knapen_AOT/AOT_stimuli/pictures/0144_fw.png	508.37866282463074	0.7334480285644531
292	249.07831001281738	response	0	k		290.0	/experiments/knapen_AOT/AOT_stimuli/pictures/0144_fw.png	509.05394887924194	
293	249.13647198677063	picture	0		80	291.0	/experiments/knapen_AOT/AOT_stimuli/pictures/0743_fw.png	509.1121108531952	0.7083499431610107
293	249.79490494728088	response	0	j		291.0	/experiments/knapen_AOT/AOT_stimuli/pictures/0743_fw.png	509.77054381370544	
294	249.84482192993164	picture	0		89	292.0	/experiments/knapen_AOT/AOT_stimuli/pictures/0256_fw.png	509.8204607963562	0.7832632064819336
294	250.57142996788025	response	0	j		292.0	/experiments/knapen_AOT/AOT_stimuli/pictures/0256_fw.png	510.5470688343048	
295	250.62808513641357	picture	0		147	293.0	/experiments/knapen_AOT/AOT_stimuli/pictures/0123_fw.png	510.60372400283813	1.2499868869781494
295	251.84492802619934	response	0	k		293.0	/experiments/knapen_AOT/AOT_stimuli/pictures/0123_fw.png	511.8205668926239	
296	251.87807202339172	picture	0		85	294.0	/experiments/knapen_AOT/AOT_stimuli/pictures/1240_fw.png	511.8537108898163	0.7348439693450928
296	252.57835912704468	response	0	j		294.0	/experiments/knapen_AOT/AOT_stimuli/pictures/1240_fw.png	512.5539979934692	
297	252.61291599273682	picture	0		102	295.0	/experiments/knapen_AOT/AOT_stimuli/pictures/1604_fw.png	512.5885548591614	0.8818619251251221
297	253.45341110229492	response	0	k		295.0	/experiments/knapen_AOT/AOT_stimuli/pictures/1604_fw.png	513.4290499687195	
298	253.49477791786194	picture	0		81	296.0	/experiments/knapen_AOT/AOT_stimuli/pictures/0637_fw.png	513.4704167842865	0.7223260402679443
298	254.15488409996033	response	0	j		296.0	/experiments/knapen_AOT/AOT_stimuli/pictures/0637_fw.png	514.1305229663849	
299	254.21710395812988	picture	0		73	297.0	/experiments/knapen_AOT/AOT_stimuli/pictures/1064_fw.png	514.1927428245544	0.6610109806060791
299	254.81995701789856	response	0	k		297.0	/experiments/knapen_AOT/AOT_stimuli/pictures/1064_fw.png	514.7955958843231	
300	254.87811493873596	picture	0		77	298.0	/experiments/knapen_AOT/AOT_stimuli/pictures/2163_fw.png	514.8537538051605	0.6931650638580322
300	255.5117371082306	response	0	k		298.0	/experiments/knapen_AOT/AOT_stimuli/pictures/2163_fw.png	515.4873759746552	
301	255.571280002594	picture	0		82	299.0	/experiments/knapen_AOT/AOT_stimuli/pictures/0066_fw.png	515.5469188690186	0.723595142364502
301	256.2450170516968	response	0	k		299.0	/experiments/knapen_AOT/AOT_stimuli/pictures/0066_fw.png	516.2206559181213	
302	256.2948751449585	picture	0		82	300.0	/experiments/knapen_AOT/AOT_stimuli/pictures/0118_fw.png	516.270514011383	0.7165989875793457
302	256.9633779525757	response	0	k		300.0	/experiments/knapen_AOT/AOT_stimuli/pictures/0118_fw.png	516.9390168190002	
303	257.01147413253784	picture	0		126	301.0	/experiments/knapen_AOT/AOT_stimuli/pictures/1018_fw.png	516.9871129989624	1.080725908279419
303	258.0534119606018	response	0	k		301.0	/experiments/knapen_AOT/AOT_stimuli/pictures/1018_fw.png	518.0290508270264	
304	258.09220004081726	picture	0		112	302.0	/experiments/knapen_AOT/AOT_stimuli/pictures/1166_fw.png	518.0678389072418	0.9859869480133057
304	259.0200619697571	response	0	k		302.0	/experiments/knapen_AOT/AOT_stimuli/pictures/1166_fw.png	518.9957008361816	
305	259.07818698883057	picture	0		74	303.0	/experiments/knapen_AOT/AOT_stimuli/pictures/1103_fw.png	519.0538258552551	0.6597919464111328
305	259.68686509132385	response	0	j		303.0	/experiments/knapen_AOT/AOT_stimuli/pictures/1103_fw.png	519.6625039577484	
306	259.7379789352417	picture	0		104	304.0	/experiments/knapen_AOT/AOT_stimuli/pictures/1146_fw.png	519.7136178016663	0.9167001247406006
306	260.5950491428375	response	0	k		304.0	/experiments/knapen_AOT/AOT_stimuli/pictures/1146_fw.png	520.5706880092621	
307	260.6546790599823	picture	0		197	305.0	/experiments/knapen_AOT/AOT_stimuli/pictures/0394_fw.png	520.6303179264069	1.665212869644165
307	262.2868890762329	response	0	k		305.0	/experiments/knapen_AOT/AOT_stimuli/pictures/0394_fw.png	522.2625279426575	
308	262.31989192962646	picture	0		137	306.0	/experiments/knapen_AOT/AOT_stimuli/pictures/1626_fw.png	522.295530796051	1.2167119979858398
308	263.4535491466522	response	0	j		306.0	/experiments/knapen_AOT/AOT_stimuli/pictures/1626_fw.png	523.4291880130768	
309	263.5366039276123	picture	0		89	307.0	/experiments/knapen_AOT/AOT_stimuli/pictures/1310_fw.png	523.5122427940369	0.7916951179504395
309	264.27008605003357	response	0	k		307.0	/experiments/knapen_AOT/AOT_stimuli/pictures/1310_fw.png	524.2457249164581	
310	264.32829904556274	picture	0		103	308.0	/experiments/knapen_AOT/AOT_stimuli/pictures/0477_fw.png	524.3039379119873	0.899960994720459
310	265.1716160774231	response	0	j		308.0	/experiments/knapen_AOT/AOT_stimuli/pictures/0477_fw.png	525.1472549438477	
311	265.2282600402832	picture	0		79	309.0	/experiments/knapen_AOT/AOT_stimuli/pictures/0973_fw.png	525.2038989067078	0.7111508846282959
311	265.87841391563416	response	0	k		309.0	/experiments/knapen_AOT/AOT_stimuli/pictures/0973_fw.png	525.8540527820587	
312	265.9394109249115	picture	0		89	310.0	/experiments/knapen_AOT/AOT_stimuli/pictures/0028_fw.png	525.9150497913361	0.7847239971160889
312	266.6701600551605	response	0	j		310.0	/experiments/knapen_AOT/AOT_stimuli/pictures/0028_fw.png	526.6457989215851	
313	266.7241349220276	picture	0		88	311.0	/experiments/knapen_AOT/AOT_stimuli/pictures/1641_fw.png	526.6997737884521	0.7708301544189453
313	267.453537940979	response	0	j		311.0	/experiments/knapen_AOT/AOT_stimuli/pictures/1641_fw.png	527.4291768074036	
314	267.49496507644653	picture	0		87	312.0	/experiments/knapen_AOT/AOT_stimuli/pictures/0365_fw.png	527.4706039428711	0.9097309112548828
314	268.2117669582367	response	0	k		312.0	/experiments/knapen_AOT/AOT_stimuli/pictures/0365_fw.png	528.1874058246613	
315	268.4046959877014	picture	0		79	313.0	/experiments/knapen_AOT/AOT_stimuli/pictures/0385_fw.png	528.380334854126	0.7069809436798096
315	269.05347204208374	response	0	k		313.0	/experiments/knapen_AOT/AOT_stimuli/pictures/0385_fw.png	529.0291109085083	
316	269.1116769313812	picture	0		172	314.0	/experiments/knapen_AOT/AOT_stimuli/pictures/0105_fw.png	529.0873157978058	1.4833111763000488
316	270.5369539260864	response	0	j		314.0	/experiments/knapen_AOT/AOT_stimuli/pictures/0105_fw.png	530.512592792511	
317	270.5949881076813	picture	0		77	315.0	/experiments/knapen_AOT/AOT_stimuli/pictures/1489_fw.png	530.5706269741058	0.6848058700561523
317	271.22849798202515	response	0	k		315.0	/experiments/knapen_AOT/AOT_stimuli/pictures/1489_fw.png	531.2041368484497	
318	271.2797939777374	picture	0		101	316.0	/experiments/knapen_AOT/AOT_stimuli/pictures/1398_fw.png	531.255432844162	0.8735730648040771
318	272.1120080947876	response	0	k		316.0	/experiments/knapen_AOT/AOT_stimuli/pictures/1398_fw.png	532.0876469612122	
319	272.1533670425415	picture	0		96	317.0	/experiments/knapen_AOT/AOT_stimuli/pictures/1517_fw.png	532.1290059089661	0.8277568817138672
319	272.93847608566284	response	0	k		317.0	/experiments/knapen_AOT/AOT_stimuli/pictures/1517_fw.png	532.9141149520874	
320	272.98112392425537	picture	0		74	318.0	/experiments/knapen_AOT/AOT_stimuli/pictures/1920_fw.png	532.9567627906799	0.6472551822662354
320	273.58678793907166	response	0	j		318.0	/experiments/knapen_AOT/AOT_stimuli/pictures/1920_fw.png	533.5624268054962	
321	273.6283791065216	picture	0		91	319.0	/experiments/knapen_AOT/AOT_stimuli/pictures/2174_fw.png	533.6040179729462	0.800001859664917
321	274.37175607681274	response	0	j		319.0	/experiments/knapen_AOT/AOT_stimuli/pictures/2174_fw.png	534.3473949432373	
322	274.4283809661865	picture	0		79	320.0	/experiments/knapen_AOT/AOT_stimuli/pictures/0728_fw.png	534.4040198326111	0.7083461284637451
322	275.0785450935364	response	0	k		320.0	/experiments/knapen_AOT/AOT_stimuli/pictures/0728_fw.png	535.0541839599609	
323	275.13672709465027	picture	0		109	321.0	/experiments/knapen_AOT/AOT_stimuli/pictures/0439_fw.png	535.1123659610748	0.9500420093536377
323	276.0369939804077	response	0	j		321.0	/experiments/knapen_AOT/AOT_stimuli/pictures/0439_fw.png	536.0126328468323	
324	276.0867691040039	picture	0		90	322.0	/experiments/knapen_AOT/AOT_stimuli/pictures/1955_fw.png	536.0624079704285	0.783289909362793
324	276.82856607437134	response	0	j		322.0	/experiments/knapen_AOT/AOT_stimuli/pictures/1955_fw.png	536.8042049407959	
325	276.8700590133667	picture	0		72	323.0	/experiments/knapen_AOT/AOT_stimuli/pictures/0620_fw.png	536.8456978797913	0.6250400543212891
325	277.4620039463043	response	0	j		323.0	/experiments/knapen_AOT/AOT_stimuli/pictures/0620_fw.png	537.4376428127289	
326	277.495099067688	picture	0		86	324.0	/experiments/knapen_AOT/AOT_stimuli/pictures/1092_fw.png	537.4707379341125	0.7501840591430664
326	278.20358300209045	response	0	j		324.0	/experiments/knapen_AOT/AOT_stimuli/pictures/1092_fw.png	538.179221868515	
327	278.24528312683105	picture	0		88	325.0	/experiments/knapen_AOT/AOT_stimuli/pictures/0344_fw.png	538.2209219932556	0.7845828533172607
327	278.9636480808258	response	0	k		325.0	/experiments/knapen_AOT/AOT_stimuli/pictures/0344_fw.png	538.9392869472504	
328	279.0298659801483	picture	0		85	326.0	/experiments/knapen_AOT/AOT_stimuli/pictures/1550_fw.png	539.0055048465729	0.7570080757141113
328	279.72860312461853	response	0	j		326.0	/experiments/knapen_AOT/AOT_stimuli/pictures/1550_fw.png	539.7042419910431	
329	279.7868740558624	picture	0		89	327.0	/experiments/knapen_AOT/AOT_stimuli/pictures/0556_fw.png	539.762512922287	0.7846429347991943
329	280.52039313316345	response	0	k		327.0	/experiments/knapen_AOT/AOT_stimuli/pictures/0556_fw.png	540.496031999588	
330	280.5715169906616	picture	0		86	328.0	/experiments/knapen_AOT/AOT_stimuli/pictures/0440_fw.png	540.5471558570862	0.7735860347747803
330	281.27864599227905	response	0	j		328.0	/experiments/knapen_AOT/AOT_stimuli/pictures/0440_fw.png	541.2542848587036	
331	281.3451030254364	picture	0		104	329.0	/experiments/knapen_AOT/AOT_stimuli/pictures/1761_fw.png	541.320741891861	0.9002349376678467
331	282.20360493659973	response	0	j		329.0	/experiments/knapen_AOT/AOT_stimuli/pictures/1761_fw.png	542.1792438030243	
332	282.24533796310425	picture	0		107	330.0	/experiments/knapen_AOT/AOT_stimuli/pictures/1355_fw.png	542.2209768295288	0.9248249530792236
332	283.1286630630493	response	0	k		330.0	/experiments/knapen_AOT/AOT_stimuli/pictures/1355_fw.png	543.1043019294739	
333	283.1701629161835	picture	0		96	331.0	/experiments/knapen_AOT/AOT_stimuli/pictures/1186_fw.png	543.145801782608	0.8583300113677979
333	283.95516204833984	response	0	j		331.0	/experiments/knapen_AOT/AOT_stimuli/pictures/1186_fw.png	543.9308009147644	
334	284.02849292755127	picture	0		127	332.0	/experiments/knapen_AOT/AOT_stimuli/pictures/1474_fw.png	544.0041317939758	1.10835599899292
334	285.07870507240295	response	0	j		332.0	/experiments/knapen_AOT/AOT_stimuli/pictures/1474_fw.png	545.0543439388275	
335	285.1368489265442	picture	0		141	333.0	/experiments/knapen_AOT/AOT_stimuli/pictures/1147_fw.png	545.1124877929688	1.2250452041625977
335	286.3037369251251	response	0	k		333.0	/experiments/knapen_AOT/AOT_stimuli/pictures/1147_fw.png	546.2793757915497	
336	286.3618941307068	picture	0		74	334.0	/experiments/knapen_AOT/AOT_stimuli/pictures/1306_fw.png	546.3375329971313	0.6471939086914062
336	286.96370911598206	response	0	k		334.0	/experiments/knapen_AOT/AOT_stimuli/pictures/1306_fw.png	546.9393479824066	
337	287.0090880393982	picture	0		88	335.0	/experiments/knapen_AOT/AOT_stimuli/pictures/1340_fw.png	546.9847269058228	0.7638099193572998
337	287.73714995384216	response	0	j		335.0	/experiments/knapen_AOT/AOT_stimuli/pictures/1340_fw.png	547.7127888202667	
338	287.7728979587555	picture	0		86	336.0	/experiments/knapen_AOT/AOT_stimuli/pictures/0909_fw.png	547.74853682518	0.7389709949493408
338	288.478698015213	response	0	k		336.0	/experiments/knapen_AOT/AOT_stimuli/pictures/0909_fw.png	548.4543368816376	
339	288.51186895370483	picture	0		86	337.0	/experiments/knapen_AOT/AOT_stimuli/pictures/0213_fw.png	548.4875078201294	0.7471861839294434
339	289.22041606903076	response	0	k		337.0	/experiments/knapen_AOT/AOT_stimuli/pictures/0213_fw.png	549.1960549354553	
340	289.2590551376343	picture	0		76	338.0	/experiments/knapen_AOT/AOT_stimuli/pictures/0462_fw.png	549.2346940040588	0.6875298023223877
340	289.8871669769287	response	0	j		338.0	/experiments/knapen_AOT/AOT_stimuli/pictures/0462_fw.png	549.8628058433533	
341	289.94658493995667	picture	0		95	339.0	/experiments/knapen_AOT/AOT_stimuli/pictures/1774_fw.png	549.9222238063812	0.8333351612091064
341	290.7287359237671	response	0	j		339.0	/experiments/knapen_AOT/AOT_stimuli/pictures/1774_fw.png	550.7043747901917	
342	290.77992010116577	picture	0		90	340.0	/experiments/knapen_AOT/AOT_stimuli/pictures/0504_fw.png	550.7555589675903	0.7986509799957275
342	291.52053594589233	response	0	j		340.0	/experiments/knapen_AOT/AOT_stimuli/pictures/0504_fw.png	551.4961748123169	
343	291.5785710811615	picture	0		83	341.0	/experiments/knapen_AOT/AOT_stimuli/pictures/0305_fw.png	551.5542099475861	0.7251279354095459
343	292.2621879577637	response	0	j		341.0	/experiments/knapen_AOT/AOT_stimuli/pictures/0305_fw.png	552.2378268241882	
344	292.30369901657104	picture	0		71	342.0	/experiments/knapen_AOT/AOT_stimuli/pictures/0158_fw.png	552.2793378829956	0.6249721050262451
344	292.8872449398041	response	0	j		342.0	/experiments/knapen_AOT/AOT_stimuli/pictures/0158_fw.png	552.8628838062286	
345	292.9286711215973	picture	0		102	343.0	/experiments/knapen_AOT/AOT_stimuli/pictures/0724_fw.png	552.9043099880219	0.8790328502655029
345	293.7637929916382	response	0	j		343.0	/experiments/knapen_AOT/AOT_stimuli/pictures/0724_fw.png	553.7394318580627	
346	293.8077039718628	picture	0		78	344.0	/experiments/knapen_AOT/AOT_stimuli/pictures/2124_fw.png	553.7833428382874	0.7042651176452637
346	294.4455671310425	response	0	k		344.0	/experiments/knapen_AOT/AOT_stimuli/pictures/2124_fw.png	554.421205997467	
347	294.51196908950806	picture	0		82	345.0	/experiments/knapen_AOT/AOT_stimuli/pictures/0129_fw.png	554.4876079559326	0.7263720035552979
347	295.1870701313019	response	0	j		345.0	/experiments/knapen_AOT/AOT_stimuli/pictures/0129_fw.png	555.1627089977264	
348	295.23834109306335	picture	0		73	346.0	/experiments/knapen_AOT/AOT_stimuli/pictures/1007_fw.png	555.2139799594879	0.6570799350738525
348	295.837121963501	response	0	j		346.0	/experiments/knapen_AOT/AOT_stimuli/pictures/1007_fw.png	555.8127608299255	
349	295.8954210281372	picture	0		108	347.0	/experiments/knapen_AOT/AOT_stimuli/pictures/2153_fw.png	555.8710598945618	0.9261829853057861
349	296.7870991230011	response	0	j		347.0	/experiments/knapen_AOT/AOT_stimuli/pictures/2153_fw.png	556.7627379894257	
350	296.821604013443	picture	0		79	348.0	/experiments/knapen_AOT/AOT_stimuli/pictures/1205_fw.png	556.7972428798676	0.6904051303863525
350	297.4706029891968	response	0	k		348.0	/experiments/knapen_AOT/AOT_stimuli/pictures/1205_fw.png	557.4462418556213	
351	297.51200914382935	picture	0		94	349.0	/experiments/knapen_AOT/AOT_stimuli/pictures/0700_fw.png	557.4876480102539	0.8167519569396973
351	298.28717708587646	response	0	k		349.0	/experiments/knapen_AOT/AOT_stimuli/pictures/0700_fw.png	558.262815952301	
352	298.32876110076904	picture	0		93	350.0	/experiments/knapen_AOT/AOT_stimuli/pictures/0744_fw.png	558.3043999671936	0.8261740207672119
352	299.0955741405487	response	0	k		350.0	/experiments/knapen_AOT/AOT_stimuli/pictures/0744_fw.png	559.0712130069733	
353	299.15493512153625	picture	0		128	351.0	/experiments/knapen_AOT/AOT_stimuli/pictures/1143_fw.png	559.1305739879608	1.1071338653564453
353	300.2122211456299	response	0	j		351.0	/experiments/knapen_AOT/AOT_stimuli/pictures/1143_fw.png	560.1878600120544	
354	300.2620689868927	picture	0		170	352.0	/experiments/knapen_AOT/AOT_stimuli/pictures/0527_fw.png	560.2377078533173	1.4693820476531982
354	301.6706659793854	response	0	j		352.0	/experiments/knapen_AOT/AOT_stimuli/pictures/0527_fw.png	561.6463048458099	
355	301.7314510345459	picture	0		135	353.0	/experiments/knapen_AOT/AOT_stimuli/pictures/2090_fw.png	561.7070899009705	1.1527290344238281
355	302.8457260131836	response	0	k		353.0	/experiments/knapen_AOT/AOT_stimuli/pictures/2090_fw.png	562.8213648796082	
356	302.8841800689697	picture	0		88	354.0	/experiments/knapen_AOT/AOT_stimuli/pictures/0503_fw.png	562.8598189353943	0.7862348556518555
356	303.6289460659027	response	0	k		354.0	/experiments/knapen_AOT/AOT_stimuli/pictures/0503_fw.png	563.6045849323273	
357	303.6704149246216	picture	0		70	355.0	/experiments/knapen_AOT/AOT_stimuli/pictures/1933_fw.png	563.6460537910461	0.6373372077941895
357	304.2455999851227	response	0	j		355.0	/experiments/knapen_AOT/AOT_stimuli/pictures/1933_fw.png	564.2212388515472	
358	304.30775213241577	picture	0		86	356.0	/experiments/knapen_AOT/AOT_stimuli/pictures/0922_fw.png	564.2833909988403	0.7638869285583496
358	305.01222705841064	response	0	k		356.0	/experiments/knapen_AOT/AOT_stimuli/pictures/0922_fw.png	564.9878659248352	
359	305.0716390609741	picture	0		83	357.0	/experiments/knapen_AOT/AOT_stimuli/pictures/1051_fw.png	565.0472779273987	0.7404708862304688
359	305.7470180988312	response	0	j		357.0	/experiments/knapen_AOT/AOT_stimuli/pictures/1051_fw.png	565.7226569652557	
360	305.8121099472046	picture	0		76	358.0	/experiments/knapen_AOT/AOT_stimuli/pictures/0480_fw.png	565.7877488136292	0.6763441562652588
360	306.4373049736023	response	0	j		358.0	/experiments/knapen_AOT/AOT_stimuli/pictures/0480_fw.png	566.4129438400269	
361	306.48845410346985	picture	0		90	359.0	/experiments/knapen_AOT/AOT_stimuli/pictures/0257_fw.png	566.4640929698944	0.7820730209350586
361	307.2289569377899	response	0	k		359.0	/experiments/knapen_AOT/AOT_stimuli/pictures/0257_fw.png	567.2045958042145	
362	307.2705271244049	stim	0		862			567.2461659908295	7.225181818008423
362	308.3039779663086	response	0	k				568.2796168327332	
362	308.4955401420593	response	0	k				568.4711790084839	
362	314.4538609981537	response	0	space				574.4294998645782	
