trial_nr	onset	event_type	phase	response	nr_frames	picture_index	picture_file	onset_abs	duration
0	0.15015196800231934	stim	0		692			175.82072496414185	5.7911951541900635
0	5.916357040405273	response	0	space				181.5869300365448	
2	5.941347122192383	picture	0		146	0.0	/experiments/knapen_aot/AOT/AOT_stimuli/pictures/1582_fw.png	181.6119201183319	1.2248969078063965
2	7.1539599895477295	response	0	k		0.0	/experiments/knapen_aot/AOT/AOT_stimuli/pictures/1582_fw.png	182.82453298568726	
3	7.166244029998779	picture	0		120	1.0	/experiments/knapen_aot/AOT/AOT_stimuli/pictures/1689_fw.png	182.8368170261383	1.0042800903320312
3	8.158061981201172	response	0	k		1.0	/experiments/knapen_aot/AOT/AOT_stimuli/pictures/1689_fw.png	183.8286349773407	
4	8.17052412033081	picture	0		128	2.0	/experiments/knapen_aot/AOT/AOT_stimuli/pictures/1646_fw.png	183.84109711647034	1.063349962234497
4	9.224683046340942	response	0	k		2.0	/experiments/knapen_aot/AOT/AOT_stimuli/pictures/1646_fw.png	184.89525604248047	
5	9.233874082565308	picture	0		135	3.0	/experiments/knapen_aot/AOT/AOT_stimuli/pictures/1789_fw.png	184.90444707870483	1.1249659061431885
5	10.349679946899414	response	0	k		3.0	/experiments/knapen_aot/AOT/AOT_stimuli/pictures/1789_fw.png	186.02025294303894	
6	10.358839988708496	picture	0		95	4.0	/experiments/knapen_aot/AOT/AOT_stimuli/pictures/0284_fw.png	186.02941298484802	0.7916171550750732
6	11.141366958618164	response	0	j		4.0	/experiments/knapen_aot/AOT/AOT_stimuli/pictures/0284_fw.png	186.8119399547577	
7	11.15045714378357	picture	0		93	5.0	/experiments/knapen_aot/AOT/AOT_stimuli/pictures/1188_fw.png	186.8210301399231	0.7769827842712402
7	11.909613132476807	response	0	k		5.0	/experiments/knapen_aot/AOT/AOT_stimuli/pictures/1188_fw.png	187.58018612861633	
8	11.92743992805481	picture	0		81	6.0	/experiments/knapen_aot/AOT/AOT_stimuli/pictures/0233_fw.png	187.59801292419434	0.6736431121826172
8	12.591324090957642	response	0	k		6.0	/experiments/knapen_aot/AOT/AOT_stimuli/pictures/0233_fw.png	188.26189708709717	
9	12.601083040237427	picture	0		81	7.0	/experiments/knapen_aot/AOT/AOT_stimuli/pictures/0423_fw.png	188.27165603637695	0.6743199825286865
9	13.266350984573364	response	0	j		7.0	/experiments/knapen_aot/AOT/AOT_stimuli/pictures/0423_fw.png	188.9369239807129	
10	13.275403022766113	picture	0		101	8.0	/experiments/knapen_aot/AOT/AOT_stimuli/pictures/2050_fw.png	188.94597601890564	0.8491439819335938
10	14.101381063461304	response	0	k		8.0	/experiments/knapen_aot/AOT/AOT_stimuli/pictures/2050_fw.png	189.77195405960083	
11	14.124547004699707	picture	0		97	9.0	/experiments/knapen_aot/AOT/AOT_stimuli/pictures/0715_fw.png	189.79512000083923	0.8098220825195312
11	14.924662113189697	response	0	k		9.0	/experiments/knapen_aot/AOT/AOT_stimuli/pictures/0715_fw.png	190.59523510932922	
12	14.934369087219238	picture	0		97	10.0	/experiments/knapen_aot/AOT/AOT_stimuli/pictures/1661_fw.png	190.60494208335876	0.8124830722808838
12	15.73384714126587	response	0	j		10.0	/experiments/knapen_aot/AOT/AOT_stimuli/pictures/1661_fw.png	191.4044201374054	
13	15.746852159500122	picture	0		95	11.0	/experiments/knapen_aot/AOT/AOT_stimuli/pictures/2125_fw.png	191.41742515563965	0.7986798286437988
13	16.532948970794678	response	0	j		11.0	/experiments/knapen_aot/AOT/AOT_stimuli/pictures/2125_fw.png	192.2035219669342	
14	16.54553198814392	picture	0		108	12.0	/experiments/knapen_aot/AOT/AOT_stimuli/pictures/1978_fw.png	192.21610498428345	0.896507978439331
14	17.43302893638611	response	0	j		12.0	/experiments/knapen_aot/AOT/AOT_stimuli/pictures/1978_fw.png	193.10360193252563	
15	17.442039966583252	picture	0		226	13.0	/experiments/knapen_aot/AOT/AOT_stimuli/pictures/0517_fw.png	193.11261296272278	1.888077974319458
15	19.3163640499115	response	0	j		13.0	/experiments/knapen_aot/AOT/AOT_stimuli/pictures/0517_fw.png	194.98693704605103	
16	19.33011794090271	picture	0		92	14.0	/experiments/knapen_aot/AOT/AOT_stimuli/pictures/0321_fw.png	195.00069093704224	0.7708690166473389
16	20.084577083587646	response	0	j		14.0	/experiments/knapen_aot/AOT/AOT_stimuli/pictures/0321_fw.png	195.75515007972717	
17	20.10098695755005	picture	0		119	15.0	/experiments/knapen_aot/AOT/AOT_stimuli/pictures/0346_fw.png	195.77155995368958	0.9930901527404785
17	21.076344966888428	response	0	k		15.0	/experiments/knapen_aot/AOT/AOT_stimuli/pictures/0346_fw.png	196.74691796302795	
18	21.094077110290527	picture	0		81	16.0	/experiments/knapen_aot/AOT/AOT_stimuli/pictures/1150_fw.png	196.76465010643005	0.6735689640045166
18	21.757921934127808	response	0	j		16.0	/experiments/knapen_aot/AOT/AOT_stimuli/pictures/1150_fw.png	197.42849493026733	
19	21.767646074295044	picture	0		98	17.0	/experiments/knapen_aot/AOT/AOT_stimuli/pictures/0777_fw.png	197.43821907043457	0.8194270133972168
19	22.574726104736328	response	0	k		17.0	/experiments/knapen_aot/AOT/AOT_stimuli/pictures/0777_fw.png	198.24529910087585	
20	22.58707308769226	picture	0		79	18.0	/experiments/knapen_aot/AOT/AOT_stimuli/pictures/1597_fw.png	198.2576460838318	0.6624510288238525
20	23.233790159225464	response	0	j		18.0	/experiments/knapen_aot/AOT/AOT_stimuli/pictures/1597_fw.png	198.904363155365	
21	23.249524116516113	picture	0		124	19.0	/experiments/knapen_aot/AOT/AOT_stimuli/pictures/0373_fw.png	198.92009711265564	1.04168701171875
21	24.268033027648926	response	0	k		19.0	/experiments/knapen_aot/AOT/AOT_stimuli/pictures/0373_fw.png	199.93860602378845	
22	24.291211128234863	picture	0		133	20.0	/experiments/knapen_aot/AOT/AOT_stimuli/pictures/0386_fw.png	199.9617841243744	1.109112024307251
22	25.391345977783203	response	0	j		20.0	/experiments/knapen_aot/AOT/AOT_stimuli/pictures/0386_fw.png	201.06191897392273	
23	25.400323152542114	picture	0		173	21.0	/experiments/knapen_aot/AOT/AOT_stimuli/pictures/2099_fw.png	201.07089614868164	1.443664789199829
23	26.832953929901123	response	0	k		21.0	/experiments/knapen_aot/AOT/AOT_stimuli/pictures/2099_fw.png	202.50352692604065	
24	26.843987941741943	picture	0		85	22.0	/experiments/knapen_aot/AOT/AOT_stimuli/pictures/0585_fw.png	202.51456093788147	0.7083392143249512
24	27.541319131851196	response	0	j		22.0	/experiments/knapen_aot/AOT/AOT_stimuli/pictures/0585_fw.png	203.21189212799072	
25	27.552327156066895	picture	0		99	23.0	/experiments/knapen_aot/AOT/AOT_stimuli/pictures/0587_fw.png	203.22290015220642	0.8263609409332275
25	28.36628007888794	response	0	j		23.0	/experiments/knapen_aot/AOT/AOT_stimuli/pictures/0587_fw.png	204.03685307502747	
26	28.378688097000122	picture	0		132	24.0	/experiments/knapen_aot/AOT/AOT_stimuli/pictures/1195_fw.png	204.04926109313965	1.097247838973999
26	29.4596951007843	response	0	k		24.0	/experiments/knapen_aot/AOT/AOT_stimuli/pictures/1195_fw.png	205.13026809692383	
27	29.47593593597412	picture	0		124	25.0	/experiments/knapen_aot/AOT/AOT_stimuli/pictures/0474_fw.png	205.14650893211365	1.0346720218658447
27	30.499638080596924	response	0	k		25.0	/experiments/knapen_aot/AOT/AOT_stimuli/pictures/0474_fw.png	206.17021107673645	
28	30.510607957839966	picture	0		157	26.0	/experiments/knapen_aot/AOT/AOT_stimuli/pictures/2071_fw.png	206.1811809539795	1.3055570125579834
28	31.807918071746826	response	0	k		26.0	/experiments/knapen_aot/AOT/AOT_stimuli/pictures/2071_fw.png	207.47849106788635	
29	31.81616497039795	picture	0		95	27.0	/experiments/knapen_aot/AOT/AOT_stimuli/pictures/0305_fw.png	207.48673796653748	0.7999961376190186
29	32.59972095489502	response	0	j		27.0	/experiments/knapen_aot/AOT/AOT_stimuli/pictures/0305_fw.png	208.27029395103455	
30	32.61616110801697	picture	0		117	28.0	/experiments/knapen_aot/AOT/AOT_stimuli/pictures/0512_fw.png	208.2867341041565	0.9916460514068604
30	33.58291506767273	response	0	j		28.0	/experiments/knapen_aot/AOT/AOT_stimuli/pictures/0512_fw.png	209.25348806381226	
31	33.60780715942383	picture	0		208	29.0	/experiments/knapen_aot/AOT/AOT_stimuli/pictures/0660_fw.png	209.27838015556335	1.74165678024292
31	35.332903146743774	response	0	k		29.0	/experiments/knapen_aot/AOT/AOT_stimuli/pictures/0660_fw.png	211.0034761428833	
32	35.34946393966675	picture	0		484	30.0	/experiments/knapen_aot/AOT/AOT_stimuli/pictures/0396_fw.png	211.02003693580627	4.041650056838989
32	39.37457299232483	response	0	k		30.0	/experiments/knapen_aot/AOT/AOT_stimuli/pictures/0396_fw.png	215.04514598846436	
33	39.39111399650574	picture	0		141	31.0	/experiments/knapen_aot/AOT/AOT_stimuli/pictures/1101_fw.png	215.06168699264526	1.1749660968780518
33	40.557915925979614	response	0	k		31.0	/experiments/knapen_aot/AOT/AOT_stimuli/pictures/1101_fw.png	216.22848892211914	
34	40.56608009338379	picture	0		99	32.0	/experiments/knapen_aot/AOT/AOT_stimuli/pictures/1962_fw.png	216.23665308952332	0.8333609104156494
34	41.38305997848511	response	0	k		32.0	/experiments/knapen_aot/AOT/AOT_stimuli/pictures/1962_fw.png	217.05363297462463	
35	41.39944100379944	picture	0		86	33.0	/experiments/knapen_aot/AOT/AOT_stimuli/pictures/0813_fw.png	217.07001399993896	0.7222020626068115
35	42.10781502723694	response	0	j		33.0	/experiments/knapen_aot/AOT/AOT_stimuli/pictures/0813_fw.png	217.77838802337646	
36	42.12164306640625	picture	0		142	34.0	/experiments/knapen_aot/AOT/AOT_stimuli/pictures/2027_fw.png	217.79221606254578	1.1874990463256836
36	43.29955005645752	response	0	k		34.0	/experiments/knapen_aot/AOT/AOT_stimuli/pictures/2027_fw.png	218.97012305259705	
37	43.309142112731934	picture	0		117	35.0	/experiments/knapen_aot/AOT/AOT_stimuli/pictures/0612_fw.png	218.97971510887146	0.9791128635406494
37	44.267935037612915	response	0	k		35.0	/experiments/knapen_aot/AOT/AOT_stimuli/pictures/0612_fw.png	219.93850803375244	
38	44.28825497627258	picture	0		135	36.0	/experiments/knapen_aot/AOT/AOT_stimuli/pictures/0700_fw.png	219.9588279724121	1.1319279670715332
38	45.40788292884827	response	0	k		36.0	/experiments/knapen_aot/AOT/AOT_stimuli/pictures/0700_fw.png	221.0784559249878	
39	45.420182943344116	picture	0		212	37.0	/experiments/knapen_aot/AOT/AOT_stimuli/pictures/0255_fw.png	221.09075593948364	1.7638680934906006
39	47.1745719909668	response	0	j		37.0	/experiments/knapen_aot/AOT/AOT_stimuli/pictures/0255_fw.png	222.84514498710632	
40	47.18405103683472	picture	0		115	38.0	/experiments/knapen_aot/AOT/AOT_stimuli/pictures/0801_fw.png	222.85462403297424	0.958388090133667
40	48.132806062698364	response	0	k		38.0	/experiments/knapen_aot/AOT/AOT_stimuli/pictures/0801_fw.png	223.8033790588379	
41	48.142439126968384	picture	0		143	39.0	/experiments/knapen_aot/AOT/AOT_stimuli/pictures/0632_fw.png	223.8130121231079	1.1986439228057861
41	49.32451796531677	response	0	k		39.0	/experiments/knapen_aot/AOT/AOT_stimuli/pictures/0632_fw.png	224.9950909614563	
42	49.34108304977417	picture	0		102	40.0	/experiments/knapen_aot/AOT/AOT_stimuli/pictures/0026_fw.png	225.0116560459137	0.8583080768585205
42	50.18285799026489	response	0	k		40.0	/experiments/knapen_aot/AOT/AOT_stimuli/pictures/0026_fw.png	225.85343098640442	
43	50.19939112663269	picture	0		208	41.0	/experiments/knapen_aot/AOT/AOT_stimuli/pictures/1167_fw.png	225.86996412277222	1.7345988750457764
43	51.924500942230225	response	0	k		41.0	/experiments/knapen_aot/AOT/AOT_stimuli/pictures/1167_fw.png	227.59507393836975	
44	51.93399000167847	picture	0		140	42.0	/experiments/knapen_aot/AOT/AOT_stimuli/pictures/2152_fw.png	227.604562997818	1.1667821407318115
44	53.091208934783936	response	0	k		42.0	/experiments/knapen_aot/AOT/AOT_stimuli/pictures/2152_fw.png	228.76178193092346	
45	53.10077214241028	picture	0		190	43.0	/experiments/knapen_aot/AOT/AOT_stimuli/pictures/1334_fw.png	228.7713451385498	1.5832200050354004
45	54.66784906387329	response	0	j		43.0	/experiments/knapen_aot/AOT/AOT_stimuli/pictures/1334_fw.png	230.33842206001282	
46	54.68399214744568	picture	0		98	44.0	/experiments/knapen_aot/AOT/AOT_stimuli/pictures/0248_fw.png	230.3545651435852	0.8194599151611328
46	55.48445105552673	response	0	k		44.0	/experiments/knapen_aot/AOT/AOT_stimuli/pictures/0248_fw.png	231.15502405166626	
47	55.50345206260681	picture	0		106	45.0	/experiments/knapen_aot/AOT/AOT_stimuli/pictures/1800_fw.png	231.17402505874634	0.8819139003753662
47	56.374470949172974	response	0	j		45.0	/experiments/knapen_aot/AOT/AOT_stimuli/pictures/1800_fw.png	232.0450439453125	
48	56.38536596298218	picture	0		100	46.0	/experiments/knapen_aot/AOT/AOT_stimuli/pictures/1462_fw.png	232.0559389591217	0.8332960605621338
48	57.207879066467285	response	0	j		46.0	/experiments/knapen_aot/AOT/AOT_stimuli/pictures/1462_fw.png	232.8784520626068	
49	57.21866202354431	picture	0		130	47.0	/experiments/knapen_aot/AOT/AOT_stimuli/pictures/0448_fw.png	232.88923501968384	1.0833239555358887
49	58.2911319732666	response	0	k		47.0	/experiments/knapen_aot/AOT/AOT_stimuli/pictures/0448_fw.png	233.96170496940613	
50	58.3019859790802	picture	0		115	48.0	/experiments/knapen_aot/AOT/AOT_stimuli/pictures/0996_fw.png	233.97255897521973	0.9584600925445557
50	59.2494900226593	response	0	k		48.0	/experiments/knapen_aot/AOT/AOT_stimuli/pictures/0996_fw.png	234.92006301879883	
51	59.260446071624756	picture	0		127	49.0	/experiments/knapen_aot/AOT/AOT_stimuli/pictures/0299_fw.png	234.93101906776428	1.063896894454956
51	60.307852029800415	response	0	k		49.0	/experiments/knapen_aot/AOT/AOT_stimuli/pictures/0299_fw.png	235.97842502593994	
52	60.32434296607971	picture	0		89	50.0	/experiments/knapen_aot/AOT/AOT_stimuli/pictures/1872_fw.png	235.99491596221924	0.7499790191650391
52	61.05117702484131	response	0	j		50.0	/experiments/knapen_aot/AOT/AOT_stimuli/pictures/1872_fw.png	236.72175002098083	
53	61.07432198524475	picture	0		98	51.0	/experiments/knapen_aot/AOT/AOT_stimuli/pictures/1250_fw.png	236.74489498138428	0.8179559707641602
53	61.88293099403381	response	0	k		51.0	/experiments/knapen_aot/AOT/AOT_stimuli/pictures/1250_fw.png	237.55350399017334	
54	61.89227795600891	picture	0		130	52.0	/experiments/knapen_aot/AOT/AOT_stimuli/pictures/1370_fw.png	237.56285095214844	1.09033203125
54	62.96609306335449	response	0	k		52.0	/experiments/knapen_aot/AOT/AOT_stimuli/pictures/1370_fw.png	238.63666605949402	
55	62.98260998725891	picture	0		107	53.0	/experiments/knapen_aot/AOT/AOT_stimuli/pictures/2144_fw.png	238.65318298339844	0.8957569599151611
55	63.85943603515625	response	0	k		53.0	/experiments/knapen_aot/AOT/AOT_stimuli/pictures/2144_fw.png	239.53000903129578	
56	63.87836694717407	picture	0		118	54.0	/experiments/knapen_aot/AOT/AOT_stimuli/pictures/0905_fw.png	239.5489399433136	0.9793050289154053
56	64.84945392608643	response	0	k		54.0	/experiments/knapen_aot/AOT/AOT_stimuli/pictures/0905_fw.png	240.52002692222595	
57	64.85767197608948	picture	0		346	55.0	/experiments/knapen_aot/AOT/AOT_stimuli/pictures/0876_fw.png	240.528244972229	2.8916540145874023
57	67.7326979637146	response	0	k		55.0	/experiments/knapen_aot/AOT/AOT_stimuli/pictures/0876_fw.png	243.40327095985413	
58	67.74932599067688	picture	0		117	56.0	/experiments/knapen_aot/AOT/AOT_stimuli/pictures/0113_fw.png	243.4198989868164	0.9762940406799316
58	68.71613097190857	response	0	j		56.0	/experiments/knapen_aot/AOT/AOT_stimuli/pictures/0113_fw.png	244.3867039680481	
59	68.72562003135681	picture	0		202	57.0	/experiments/knapen_aot/AOT/AOT_stimuli/pictures/1444_fw.png	244.39619302749634	1.6903629302978516
59	70.39952898025513	response	0	j		57.0	/experiments/knapen_aot/AOT/AOT_stimuli/pictures/1444_fw.png	246.07010197639465	
60	70.41598296165466	picture	0		97	58.0	/experiments/knapen_aot/AOT/AOT_stimuli/pictures/1100_fw.png	246.0865559577942	0.8166830539703369
60	71.21617293357849	response	0	j		58.0	/experiments/knapen_aot/AOT/AOT_stimuli/pictures/1100_fw.png	246.88674592971802	
61	71.232666015625	picture	0		127	59.0	/experiments/knapen_aot/AOT/AOT_stimuli/pictures/1621_fw.png	246.90323901176453	1.0666289329528809
61	72.27598214149475	response	0	j		59.0	/experiments/knapen_aot/AOT/AOT_stimuli/pictures/1621_fw.png	247.94655513763428	
62	72.29929494857788	picture	0		198	60.0	/experiments/knapen_aot/AOT/AOT_stimuli/pictures/0734_fw.png	247.9698679447174	1.6584360599517822
62	73.94110703468323	response	0	j		60.0	/experiments/knapen_aot/AOT/AOT_stimuli/pictures/0734_fw.png	249.61168003082275	
63	73.95773100852966	picture	0		160	61.0	/experiments/knapen_aot/AOT/AOT_stimuli/pictures/0331_fw.png	249.6283040046692	1.3371789455413818
63	75.2826931476593	response	0	k		61.0	/experiments/knapen_aot/AOT/AOT_stimuli/pictures/0331_fw.png	250.95326614379883	
64	75.29490995407104	picture	0		103	62.0	/experiments/knapen_aot/AOT/AOT_stimuli/pictures/0614_fw.png	250.96548295021057	0.8543970584869385
64	76.14107894897461	response	0	j		62.0	/experiments/knapen_aot/AOT/AOT_stimuli/pictures/0614_fw.png	251.81165194511414	
65	76.14930701255798	picture	0		111	63.0	/experiments/knapen_aot/AOT/AOT_stimuli/pictures/0744_fw.png	251.8198800086975	0.9303100109100342
65	77.05925011634827	response	0	j		63.0	/experiments/knapen_aot/AOT/AOT_stimuli/pictures/0744_fw.png	252.7298231124878	
66	77.07961702346802	picture	0		169	64.0	/experiments/knapen_aot/AOT/AOT_stimuli/pictures/2111_fw.png	252.75019001960754	1.4279730319976807
66	78.482666015625	response	0	k		64.0	/experiments/knapen_aot/AOT/AOT_stimuli/pictures/2111_fw.png	254.15323901176453	
67	78.5075900554657	picture	0		278	65.0	/experiments/knapen_aot/AOT/AOT_stimuli/pictures/0600_fw.png	254.17816305160522	2.32499098777771
67	80.81605100631714	response	0	k		65.0	/experiments/knapen_aot/AOT/AOT_stimuli/pictures/0600_fw.png	256.48662400245667	
68	80.83258104324341	picture	0		97	66.0	/experiments/knapen_aot/AOT/AOT_stimuli/pictures/2107_fw.png	256.50315403938293	0.8249709606170654
68	81.63272094726562	response	0	j		66.0	/experiments/knapen_aot/AOT/AOT_stimuli/pictures/2107_fw.png	257.30329394340515	
69	81.65755200386047	picture	0		140	67.0	/experiments/knapen_aot/AOT/AOT_stimuli/pictures/2161_fw.png	257.328125	1.1750531196594238
69	82.81602001190186	response	0	k		67.0	/experiments/knapen_aot/AOT/AOT_stimuli/pictures/2161_fw.png	258.4865930080414	
70	82.8326051235199	picture	0		89	68.0	/experiments/knapen_aot/AOT/AOT_stimuli/pictures/0459_fw.png	258.5031781196594	0.7469749450683594
70	83.56606101989746	response	0	j		68.0	/experiments/knapen_aot/AOT/AOT_stimuli/pictures/0459_fw.png	259.236634016037	
71	83.57958006858826	picture	0		167	69.0	/experiments/knapen_aot/AOT/AOT_stimuli/pictures/0627_fw.png	259.2501530647278	1.4029879570007324
71	84.96600008010864	response	0	j		69.0	/experiments/knapen_aot/AOT/AOT_stimuli/pictures/0627_fw.png	260.63657307624817	
72	84.98256802558899	picture	0		115	70.0	/experiments/knapen_aot/AOT/AOT_stimuli/pictures/0261_fw.png	260.6531410217285	0.9666590690612793
72	85.93268203735352	response	0	k		70.0	/experiments/knapen_aot/AOT/AOT_stimuli/pictures/0261_fw.png	261.60325503349304	
73	85.94922709465027	picture	0		102	71.0	/experiments/knapen_aot/AOT/AOT_stimuli/pictures/1724_fw.png	261.6198000907898	0.8583340644836426
73	86.79100108146667	response	0	k		71.0	/experiments/knapen_aot/AOT/AOT_stimuli/pictures/1724_fw.png	262.4615740776062	
74	86.80756115913391	picture	0		116	72.0	/experiments/knapen_aot/AOT/AOT_stimuli/pictures/0165_fw.png	262.47813415527344	0.9749917984008789
74	87.76602506637573	response	0	k		72.0	/experiments/knapen_aot/AOT/AOT_stimuli/pictures/0165_fw.png	263.43659806251526	
75	87.78255295753479	picture	0		96	73.0	/experiments/knapen_aot/AOT/AOT_stimuli/pictures/0951_fw.png	263.4531259536743	0.8039531707763672
75	88.57435202598572	response	0	j		73.0	/experiments/knapen_aot/AOT/AOT_stimuli/pictures/0951_fw.png	264.24492502212524	
76	88.58650612831116	picture	0		99	74.0	/experiments/knapen_aot/AOT/AOT_stimuli/pictures/0767_fw.png	264.2570791244507	0.829373836517334
76	89.39940309524536	response	0	j		74.0	/experiments/knapen_aot/AOT/AOT_stimuli/pictures/0767_fw.png	265.0699760913849	
77	89.41587996482849	picture	0		113	75.0	/experiments/knapen_aot/AOT/AOT_stimuli/pictures/2130_fw.png	265.086452960968	0.9499759674072266
77	90.35076904296875	response	0	k		75.0	/experiments/knapen_aot/AOT/AOT_stimuli/pictures/2130_fw.png	266.0213420391083	
78	90.36585593223572	picture	0		112	76.0	/experiments/knapen_aot/AOT/AOT_stimuli/pictures/0956_fw.png	266.03642892837524	0.9429671764373779
78	91.29101514816284	response	0	j		76.0	/experiments/knapen_aot/AOT/AOT_stimuli/pictures/0956_fw.png	266.96158814430237	
79	91.3088231086731	picture	0		123	77.0	/experiments/knapen_aot/AOT/AOT_stimuli/pictures/1711_fw.png	266.9793961048126	1.0320239067077637
79	92.3243191242218	response	0	j		77.0	/experiments/knapen_aot/AOT/AOT_stimuli/pictures/1711_fw.png	267.9948921203613	
80	92.34084701538086	picture	0		130	78.0	/experiments/knapen_aot/AOT/AOT_stimuli/pictures/1148_fw.png	268.0114200115204	1.0858449935913086
80	93.41600799560547	response	0	j		78.0	/experiments/knapen_aot/AOT/AOT_stimuli/pictures/1148_fw.png	269.086580991745	
81	93.42669200897217	picture	0		135	79.0	/experiments/knapen_aot/AOT/AOT_stimuli/pictures/0652_fw.png	269.0972650051117	1.1307799816131592
81	94.54104709625244	response	0	k		79.0	/experiments/knapen_aot/AOT/AOT_stimuli/pictures/0652_fw.png	270.21162009239197	
82	94.55747199058533	picture	0		94	80.0	/experiments/knapen_aot/AOT/AOT_stimuli/pictures/0671_fw.png	270.22804498672485	0.800011157989502
82	95.33263802528381	response	0	j		80.0	/experiments/knapen_aot/AOT/AOT_stimuli/pictures/0671_fw.png	271.00321102142334	
83	95.35748314857483	picture	0		88	81.0	/experiments/knapen_aot/AOT/AOT_stimuli/pictures/0514_fw.png	271.02805614471436	0.7417459487915039
83	96.08282113075256	response	0	j		81.0	/experiments/knapen_aot/AOT/AOT_stimuli/pictures/0514_fw.png	271.7533941268921	
84	96.09922909736633	picture	0		157	82.0	/experiments/knapen_aot/AOT/AOT_stimuli/pictures/0470_fw.png	271.76980209350586	1.3135490417480469
84	97.39397501945496	response	0	k		82.0	/experiments/knapen_aot/AOT/AOT_stimuli/pictures/0470_fw.png	273.0645480155945	
85	97.41277813911438	picture	0		106	83.0	/experiments/knapen_aot/AOT/AOT_stimuli/pictures/0240_fw.png	273.0833511352539	0.8947420120239258
85	98.29095506668091	response	0	k		83.0	/experiments/knapen_aot/AOT/AOT_stimuli/pictures/0240_fw.png	273.96152806282043	
86	98.3075201511383	picture	0		103	84.0	/experiments/knapen_aot/AOT/AOT_stimuli/pictures/0978_fw.png	273.97809314727783	0.8666539192199707
86	99.15768909454346	response	0	k		84.0	/experiments/knapen_aot/AOT/AOT_stimuli/pictures/0978_fw.png	274.828262090683	
87	99.17417407035828	picture	0		157	85.0	/experiments/knapen_aot/AOT/AOT_stimuli/pictures/1677_fw.png	274.8447470664978	1.3166658878326416
87	100.47576212882996	response	0	k		85.0	/experiments/knapen_aot/AOT/AOT_stimuli/pictures/1677_fw.png	276.1463351249695	
88	100.49083995819092	picture	0		116	86.0	/experiments/knapen_aot/AOT/AOT_stimuli/pictures/1768_fw.png	276.16141295433044	0.9704489707946777
88	101.4426920413971	response	0	j		86.0	/experiments/knapen_aot/AOT/AOT_stimuli/pictures/1768_fw.png	277.1132650375366	
89	101.4612889289856	picture	0		103	87.0	/experiments/knapen_aot/AOT/AOT_stimuli/pictures/1465_fw.png	277.1318619251251	0.8712000846862793
89	102.30894494056702	response	0	j		87.0	/experiments/knapen_aot/AOT/AOT_stimuli/pictures/1465_fw.png	277.97951793670654	
90	102.33248901367188	picture	0		87	88.0	/experiments/knapen_aot/AOT/AOT_stimuli/pictures/0993_fw.png	278.0030620098114	0.7333221435546875
90	103.04253602027893	response	0	j		88.0	/experiments/knapen_aot/AOT/AOT_stimuli/pictures/0993_fw.png	278.71310901641846	
91	103.06581115722656	picture	0		108	89.0	/experiments/knapen_aot/AOT/AOT_stimuli/pictures/1050_fw.png	278.7363841533661	0.9083378314971924
91	103.95762705802917	response	0	k		89.0	/experiments/knapen_aot/AOT/AOT_stimuli/pictures/1050_fw.png	279.6282000541687	
92	103.97414898872375	picture	0		134	90.0	/experiments/knapen_aot/AOT/AOT_stimuli/pictures/0249_fw.png	279.6447219848633	1.124925136566162
92	105.08263897895813	response	0	k		90.0	/experiments/knapen_aot/AOT/AOT_stimuli/pictures/0249_fw.png	280.75321197509766	
93	105.09907412528992	picture	0		110	91.0	/experiments/knapen_aot/AOT/AOT_stimuli/pictures/1068_fw.png	280.76964712142944	0.9180169105529785
93	106.0076539516449	response	0	k		91.0	/experiments/knapen_aot/AOT/AOT_stimuli/pictures/1068_fw.png	281.6782269477844	
94	106.0170910358429	picture	0		98	92.0	/experiments/knapen_aot/AOT/AOT_stimuli/pictures/0507_fw.png	281.6876640319824	0.8321399688720703
94	106.8177421092987	response	0	j		92.0	/experiments/knapen_aot/AOT/AOT_stimuli/pictures/0507_fw.png	282.48831510543823	
95	106.84923100471497	picture	0		99	93.0	/experiments/knapen_aot/AOT/AOT_stimuli/pictures/0957_fw.png	282.5198040008545	0.8273911476135254
95	107.65922093391418	response	0	j		93.0	/experiments/knapen_aot/AOT/AOT_stimuli/pictures/0957_fw.png	283.3297939300537	
96	107.67662215232849	picture	0		180	94.0	/experiments/knapen_aot/AOT/AOT_stimuli/pictures/0119_fw.png	283.347195148468	1.4999029636383057
96	109.16590809822083	response	0	k		94.0	/experiments/knapen_aot/AOT/AOT_stimuli/pictures/0119_fw.png	284.83648109436035	
97	109.1765251159668	picture	0		137	95.0	/experiments/knapen_aot/AOT/AOT_stimuli/pictures/1379_fw.png	284.8470981121063	1.1476478576660156
97	110.30905294418335	response	0	j		95.0	/experiments/knapen_aot/AOT/AOT_stimuli/pictures/1379_fw.png	285.9796259403229	
98	110.32417297363281	picture	0		85	96.0	/experiments/knapen_aot/AOT/AOT_stimuli/pictures/2005_fw.png	285.99474596977234	0.7134301662445068
98	111.01881909370422	response	0	k		96.0	/experiments/knapen_aot/AOT/AOT_stimuli/pictures/2005_fw.png	286.68939208984375	
99	111.03760313987732	picture	0		89	97.0	/experiments/knapen_aot/AOT/AOT_stimuli/pictures/0174_fw.png	286.70817613601685	0.7499799728393555
99	111.7742371559143	response	0	j		97.0	/experiments/knapen_aot/AOT/AOT_stimuli/pictures/0174_fw.png	287.44481015205383	
100	111.78758311271667	picture	0		238	98.0	/experiments/knapen_aot/AOT/AOT_stimuli/pictures/0661_fw.png	287.4581561088562	1.9949619770050049
100	113.76587200164795	response	0	k		98.0	/experiments/knapen_aot/AOT/AOT_stimuli/pictures/0661_fw.png	289.4364449977875	
101	113.78254508972168	picture	0		101	99.0	/experiments/knapen_aot/AOT/AOT_stimuli/pictures/1213_fw.png	289.4531180858612	0.8522589206695557
101	114.61589813232422	response	0	j		99.0	/experiments/knapen_aot/AOT/AOT_stimuli/pictures/1213_fw.png	290.28647112846375	
102	114.63480401039124	picture	0		94	100.0	/experiments/knapen_aot/AOT/AOT_stimuli/pictures/1780_fw.png	290.30537700653076	0.7892861366271973
102	115.40764212608337	response	0	j		100.0	/experiments/knapen_aot/AOT/AOT_stimuli/pictures/1780_fw.png	291.0782151222229	
103	115.42409014701843	picture	0		92	101.0	/experiments/knapen_aot/AOT/AOT_stimuli/pictures/2159_fw.png	291.09466314315796	0.7749769687652588
103	116.18381404876709	response	0	j		101.0	/experiments/knapen_aot/AOT/AOT_stimuli/pictures/2159_fw.png	291.8543870449066	
104	116.19906711578369	picture	0		118	102.0	/experiments/knapen_aot/AOT/AOT_stimuli/pictures/1965_fw.png	291.8696401119232	0.991663932800293
104	117.17429304122925	response	0	j		102.0	/experiments/knapen_aot/AOT/AOT_stimuli/pictures/1965_fw.png	292.8448660373688	
105	117.19073104858398	picture	0		138	103.0	/experiments/knapen_aot/AOT/AOT_stimuli/pictures/0549_fw.png	292.8613040447235	1.1523280143737793
105	118.33253812789917	response	0	k		103.0	/experiments/knapen_aot/AOT/AOT_stimuli/pictures/0549_fw.png	294.0031111240387	
106	118.34305906295776	picture	0		99	104.0	/experiments/knapen_aot/AOT/AOT_stimuli/pictures/2001_fw.png	294.0136320590973	0.8263940811157227
106	119.1574821472168	response	0	k		104.0	/experiments/knapen_aot/AOT/AOT_stimuli/pictures/2001_fw.png	294.8280551433563	
107	119.16945314407349	picture	0		95	105.0	/experiments/knapen_aot/AOT/AOT_stimuli/pictures/1550_fw.png	294.840026140213	0.7962830066680908
107	119.94919109344482	response	0	j		105.0	/experiments/knapen_aot/AOT/AOT_stimuli/pictures/1550_fw.png	295.61976408958435	
108	119.96573615074158	picture	0		113	106.0	/experiments/knapen_aot/AOT/AOT_stimuli/pictures/1115_fw.png	295.6363091468811	0.9467668533325195
108	120.89925503730774	response	0	j		106.0	/experiments/knapen_aot/AOT/AOT_stimuli/pictures/1115_fw.png	296.56982803344727	
109	120.9125030040741	picture	0		138	107.0	/experiments/knapen_aot/AOT/AOT_stimuli/pictures/2116_fw.png	296.5830760002136	1.161600112915039
109	122.05083203315735	response	0	j		107.0	/experiments/knapen_aot/AOT/AOT_stimuli/pictures/2116_fw.png	297.7214050292969	
110	122.07410311698914	picture	0		176	108.0	/experiments/knapen_aot/AOT/AOT_stimuli/pictures/1493_fw.png	297.74467611312866	1.4703149795532227
110	123.53252506256104	response	0	j		108.0	/experiments/knapen_aot/AOT/AOT_stimuli/pictures/1493_fw.png	299.20309805870056	
111	123.54441809654236	picture	0		96	109.0	/experiments/knapen_aot/AOT/AOT_stimuli/pictures/1464_fw.png	299.2149910926819	0.7986209392547607
111	124.33248805999756	response	0	j		109.0	/experiments/knapen_aot/AOT/AOT_stimuli/pictures/1464_fw.png	300.0030610561371	
112	124.34303903579712	picture	0		113	110.0	/experiments/knapen_aot/AOT/AOT_stimuli/pictures/2063_fw.png	300.01361203193665	0.9445030689239502
112	125.2742280960083	response	0	j		110.0	/experiments/knapen_aot/AOT/AOT_stimuli/pictures/2063_fw.png	300.9448010921478	
113	125.28754210472107	picture	0		123	111.0	/experiments/knapen_aot/AOT/AOT_stimuli/pictures/1267_fw.png	300.9581151008606	1.0364890098571777
113	126.30861616134644	response	0	j		111.0	/experiments/knapen_aot/AOT/AOT_stimuli/pictures/1267_fw.png	301.97918915748596	
114	126.32403111457825	picture	0		25	112.0	/experiments/knapen_aot/AOT/AOT_stimuli/pictures/1224_fw.png	301.9946041107178	0.213392972946167
114	126.52412915229797	response	0	j		112.0	/experiments/knapen_aot/AOT/AOT_stimuli/pictures/1224_fw.png	302.1947021484375	
115	126.53742408752441	picture	0		140	113.0	/experiments/knapen_aot/AOT/AOT_stimuli/pictures/2059_fw.png	302.20799708366394	1.178278923034668
115	127.69919300079346	response	0	k		113.0	/experiments/knapen_aot/AOT/AOT_stimuli/pictures/2059_fw.png	303.369765996933	
116	127.71570301055908	picture	0		157	114.0	/experiments/knapen_aot/AOT/AOT_stimuli/pictures/0082_fw.png	303.3862760066986	1.316681146621704
116	129.00924015045166	response	0	j		114.0	/experiments/knapen_aot/AOT/AOT_stimuli/pictures/0082_fw.png	304.6798131465912	
117	129.0323841571808	picture	0		118	115.0	/experiments/knapen_aot/AOT/AOT_stimuli/pictures/0216_fw.png	304.7029571533203	0.9916439056396484
117	130.0074679851532	response	0	j		115.0	/experiments/knapen_aot/AOT/AOT_stimuli/pictures/0216_fw.png	305.6780409812927	
118	130.02402806282043	picture	0		242	116.0	/experiments/knapen_aot/AOT/AOT_stimuli/pictures/0703_fw.png	305.69460105895996	2.0203139781951904
118	132.02564096450806	response	0	j		116.0	/experiments/knapen_aot/AOT/AOT_stimuli/pictures/0703_fw.png	307.6962139606476	
119	132.04434204101562	picture	0		131	117.0	/experiments/knapen_aot/AOT/AOT_stimuli/pictures/1427_fw.png	307.71491503715515	1.0902979373931885
119	133.12413215637207	response	0	k		117.0	/experiments/knapen_aot/AOT/AOT_stimuli/pictures/1427_fw.png	308.7947051525116	
120	133.1346399784088	picture	0		124	118.0	/experiments/knapen_aot/AOT/AOT_stimuli/pictures/0402_fw.png	308.80521297454834	1.0393471717834473
120	134.1574809551239	response	0	k		118.0	/experiments/knapen_aot/AOT/AOT_stimuli/pictures/0402_fw.png	309.8280539512634	
121	134.17398715019226	picture	0		82	119.0	/experiments/knapen_aot/AOT/AOT_stimuli/pictures/1269_fw.png	309.8445601463318	0.6916918754577637
121	134.8424379825592	response	0	j		119.0	/experiments/knapen_aot/AOT/AOT_stimuli/pictures/1269_fw.png	310.51301097869873	
122	134.86567902565002	picture	0		114	120.0	/experiments/knapen_aot/AOT/AOT_stimuli/pictures/0285_fw.png	310.53625202178955	0.9583420753479004
122	135.808531999588	response	0	j		120.0	/experiments/knapen_aot/AOT/AOT_stimuli/pictures/0285_fw.png	311.47910499572754	
123	135.82402110099792	picture	0		425	121.0	/experiments/knapen_aot/AOT/AOT_stimuli/pictures/0264_fw.png	311.49459409713745	3.553668975830078
123	139.357439994812	response	0	k		121.0	/experiments/knapen_aot/AOT/AOT_stimuli/pictures/0264_fw.png	315.02801299095154	
124	139.377690076828	picture	0		111	122.0	/experiments/knapen_aot/AOT/AOT_stimuli/pictures/1037_fw.png	315.04826307296753	0.9235539436340332
124	140.29078793525696	response	0	k		122.0	/experiments/knapen_aot/AOT/AOT_stimuli/pictures/1037_fw.png	315.9613609313965	
125	140.30124402046204	picture	0		107	123.0	/experiments/knapen_aot/AOT/AOT_stimuli/pictures/0295_fw.png	315.97181701660156	0.8977401256561279
125	141.18353009223938	response	0	k		123.0	/experiments/knapen_aot/AOT/AOT_stimuli/pictures/0295_fw.png	316.8541030883789	
126	141.19898414611816	picture	0		152	124.0	/experiments/knapen_aot/AOT/AOT_stimuli/pictures/0975_fw.png	316.8695571422577	1.274979829788208
126	142.45741295814514	response	0	k		124.0	/experiments/knapen_aot/AOT/AOT_stimuli/pictures/0975_fw.png	318.12798595428467	
127	142.47396397590637	picture	0		102	125.0	/experiments/knapen_aot/AOT/AOT_stimuli/pictures/0269_fw.png	318.1445369720459	0.8550491333007812
127	143.31578016281128	response	0	k		125.0	/experiments/knapen_aot/AOT/AOT_stimuli/pictures/0269_fw.png	318.9863531589508	
128	143.32901310920715	picture	0		105	126.0	/experiments/knapen_aot/AOT/AOT_stimuli/pictures/1592_fw.png	318.9995861053467	0.8818538188934326
128	144.1991629600525	response	0	j		126.0	/experiments/knapen_aot/AOT/AOT_stimuli/pictures/1592_fw.png	319.869735956192	
129	144.2108669281006	picture	0		118	127.0	/experiments/knapen_aot/AOT/AOT_stimuli/pictures/1842_fw.png	319.8814399242401	0.988192081451416
129	145.18346214294434	response	0	j		127.0	/experiments/knapen_aot/AOT/AOT_stimuli/pictures/1842_fw.png	320.85403513908386	
130	145.199059009552	picture	0		180	128.0	/experiments/knapen_aot/AOT/AOT_stimuli/pictures/0716_fw.png	320.8696320056915	1.508329153060913
130	146.69078993797302	response	0	j		128.0	/experiments/knapen_aot/AOT/AOT_stimuli/pictures/0716_fw.png	322.36136293411255	
131	146.70738816261292	picture	0		111	129.0	/experiments/knapen_aot/AOT/AOT_stimuli/pictures/0382_fw.png	322.37796115875244	0.9271328449249268
131	147.61750411987305	response	0	k		129.0	/experiments/knapen_aot/AOT/AOT_stimuli/pictures/0382_fw.png	323.2880771160126	
132	147.63452100753784	picture	0		199	130.0	/experiments/knapen_aot/AOT/AOT_stimuli/pictures/0222_fw.png	323.30509400367737	1.6596510410308838
132	149.28230595588684	response	0	k		130.0	/experiments/knapen_aot/AOT/AOT_stimuli/pictures/0222_fw.png	324.95287895202637	
133	149.29417204856873	picture	0		110	131.0	/experiments/knapen_aot/AOT/AOT_stimuli/pictures/0127_fw.png	324.96474504470825	0.9166750907897949
133	150.19905614852905	response	0	j		131.0	/experiments/knapen_aot/AOT/AOT_stimuli/pictures/0127_fw.png	325.8696291446686	
134	150.21084713935852	picture	0		190	132.0	/experiments/knapen_aot/AOT/AOT_stimuli/pictures/1319_fw.png	325.88142013549805	1.583284854888916
134	151.78239703178406	response	0	j		132.0	/experiments/knapen_aot/AOT/AOT_stimuli/pictures/1319_fw.png	327.4529700279236	
135	151.79413199424744	picture	0		115	133.0	/experiments/knapen_aot/AOT/AOT_stimuli/pictures/0572_fw.png	327.46470499038696	0.9583320617675781
135	152.74069905281067	response	0	k		133.0	/experiments/knapen_aot/AOT/AOT_stimuli/pictures/0572_fw.png	328.4112720489502	
136	152.75246405601501	picture	0		109	134.0	/experiments/knapen_aot/AOT/AOT_stimuli/pictures/1384_fw.png	328.42303705215454	0.9097440242767334
136	153.6490581035614	response	0	k		134.0	/experiments/knapen_aot/AOT/AOT_stimuli/pictures/1384_fw.png	329.3196310997009	
137	153.66220808029175	picture	0		119	135.0	/experiments/knapen_aot/AOT/AOT_stimuli/pictures/1282_fw.png	329.3327810764313	1.0000278949737549
137	154.64901494979858	response	0	k		135.0	/experiments/knapen_aot/AOT/AOT_stimuli/pictures/1282_fw.png	330.3195879459381	
138	154.6622359752655	picture	0		84	136.0	/experiments/knapen_aot/AOT/AOT_stimuli/pictures/1905_fw.png	330.33280897140503	0.7117071151733398
138	155.35739612579346	response	0	j		136.0	/experiments/knapen_aot/AOT/AOT_stimuli/pictures/1905_fw.png	331.027969121933	
139	155.37394309043884	picture	0		136	137.0	/experiments/knapen_aot/AOT/AOT_stimuli/pictures/1984_fw.png	331.04451608657837	1.1354608535766602
139	156.49906015396118	response	0	k		137.0	/experiments/knapen_aot/AOT/AOT_stimuli/pictures/1984_fw.png	332.1696331501007	
140	156.5094039440155	picture	0		135	138.0	/experiments/knapen_aot/AOT/AOT_stimuli/pictures/0368_fw.png	332.17997694015503	1.1249971389770508
140	157.6174280643463	response	0	j		138.0	/experiments/knapen_aot/AOT/AOT_stimuli/pictures/0368_fw.png	333.28800106048584	
141	157.63440108299255	picture	0		121	139.0	/experiments/knapen_aot/AOT/AOT_stimuli/pictures/0711_fw.png	333.3049740791321	1.0071978569030762
141	158.6257791519165	response	0	k		139.0	/experiments/knapen_aot/AOT/AOT_stimuli/pictures/0711_fw.png	334.29635214805603	
142	158.64159893989563	picture	0		117	140.0	/experiments/knapen_aot/AOT/AOT_stimuli/pictures/0596_fw.png	334.31217193603516	0.978891134262085
142	159.60174798965454	response	0	k		140.0	/experiments/knapen_aot/AOT/AOT_stimuli/pictures/0596_fw.png	335.27232098579407	
143	159.62049007415771	picture	0		130	141.0	/experiments/knapen_aot/AOT/AOT_stimuli/pictures/0641_fw.png	335.29106307029724	1.0902509689331055
143	160.69903898239136	response	0	k		141.0	/experiments/knapen_aot/AOT/AOT_stimuli/pictures/0641_fw.png	336.3696119785309	
144	160.71074104309082	picture	0		106	142.0	/experiments/knapen_aot/AOT/AOT_stimuli/pictures/2077_fw.png	336.38131403923035	0.8881289958953857
144	161.582435131073	response	0	j		142.0	/experiments/knapen_aot/AOT/AOT_stimuli/pictures/2077_fw.png	337.2530081272125	
145	161.5988700389862	picture	0		122	143.0	/experiments/knapen_aot/AOT/AOT_stimuli/pictures/1634_fw.png	337.26944303512573	1.021662950515747
145	162.6016240119934	response	0	k		143.0	/experiments/knapen_aot/AOT/AOT_stimuli/pictures/1634_fw.png	338.27219700813293	
146	162.62053298950195	picture	0		96	144.0	/experiments/knapen_aot/AOT/AOT_stimuli/pictures/1672_fw.png	338.2911059856415	0.8117179870605469
146	163.40903115272522	response	0	j		144.0	/experiments/knapen_aot/AOT/AOT_stimuli/pictures/1672_fw.png	339.07960414886475	
147	163.4322509765625	picture	0		104	145.0	/experiments/knapen_aot/AOT/AOT_stimuli/pictures/1484_fw.png	339.102823972702	0.868800163269043
147	164.29071807861328	response	0	j		145.0	/experiments/knapen_aot/AOT/AOT_stimuli/pictures/1484_fw.png	339.9612910747528	
148	164.30105113983154	picture	0		127	146.0	/experiments/knapen_aot/AOT/AOT_stimuli/pictures/0628_fw.png	339.97162413597107	1.0645098686218262
148	165.35006713867188	response	0	k		146.0	/experiments/knapen_aot/AOT/AOT_stimuli/pictures/0628_fw.png	341.0206401348114	
149	165.36556100845337	picture	0		111	147.0	/experiments/knapen_aot/AOT/AOT_stimuli/pictures/0286_fw.png	341.0361340045929	0.9284889698028564
149	166.2823760509491	response	0	k		147.0	/experiments/knapen_aot/AOT/AOT_stimuli/pictures/0286_fw.png	341.9529490470886	
150	166.29404997825623	picture	0		134	148.0	/experiments/knapen_aot/AOT/AOT_stimuli/pictures/1745_fw.png	341.96462297439575	1.1181490421295166
150	167.39331603050232	response	0	k		148.0	/experiments/knapen_aot/AOT/AOT_stimuli/pictures/1745_fw.png	343.06388902664185	
151	167.41219902038574	picture	0		124	149.0	/experiments/knapen_aot/AOT/AOT_stimuli/pictures/1214_fw.png	343.08277201652527	1.0416910648345947
151	168.4406599998474	response	0	j		149.0	/experiments/knapen_aot/AOT/AOT_stimuli/pictures/1214_fw.png	344.11123299598694	
152	168.45389008522034	picture	0		123	150.0	/experiments/knapen_aot/AOT/AOT_stimuli/pictures/0038_fw.png	344.12446308135986	1.036679983139038
152	169.47506594657898	response	0	k		150.0	/experiments/knapen_aot/AOT/AOT_stimuli/pictures/0038_fw.png	345.1456389427185	
153	169.49057006835938	picture	0		95	151.0	/experiments/knapen_aot/AOT/AOT_stimuli/pictures/1176_fw.png	345.1611430644989	0.7964918613433838
153	170.2739930152893	response	0	j		151.0	/experiments/knapen_aot/AOT/AOT_stimuli/pictures/1176_fw.png	345.94456601142883	
154	170.28706192970276	picture	0		114	152.0	/experiments/knapen_aot/AOT/AOT_stimuli/pictures/1826_fw.png	345.9576349258423	0.9534680843353271
154	171.225084066391	response	0	j		152.0	/experiments/knapen_aot/AOT/AOT_stimuli/pictures/1826_fw.png	346.8956570625305	
155	171.2405300140381	picture	0		191	153.0	/experiments/knapen_aot/AOT/AOT_stimuli/pictures/1737_fw.png	346.9111030101776	1.595181941986084
155	172.8171820640564	response	0	k		153.0	/experiments/knapen_aot/AOT/AOT_stimuli/pictures/1737_fw.png	348.4877550601959	
156	172.83571195602417	picture	0		112	154.0	/experiments/knapen_aot/AOT/AOT_stimuli/pictures/0270_fw.png	348.5062849521637	0.9308240413665771
156	173.75735712051392	response	0	j		154.0	/experiments/knapen_aot/AOT/AOT_stimuli/pictures/0270_fw.png	349.42793011665344	
157	173.76653599739075	picture	0		90	155.0	/experiments/knapen_aot/AOT/AOT_stimuli/pictures/1938_fw.png	349.4371089935303	0.7499799728393555
157	174.50736093521118	response	0	j		155.0	/experiments/knapen_aot/AOT/AOT_stimuli/pictures/1938_fw.png	350.1779339313507	
158	174.5165159702301	picture	0		102	156.0	/experiments/knapen_aot/AOT/AOT_stimuli/pictures/1380_fw.png	350.18708896636963	0.8573160171508789
158	175.35728812217712	response	0	j		156.0	/experiments/knapen_aot/AOT/AOT_stimuli/pictures/1380_fw.png	351.02786111831665	
159	175.37383198738098	picture	0		134	157.0	/experiments/knapen_aot/AOT/AOT_stimuli/pictures/0771_fw.png	351.0444049835205	1.1250290870666504
159	176.48233914375305	response	0	j		157.0	/experiments/knapen_aot/AOT/AOT_stimuli/pictures/0771_fw.png	352.1529121398926	
160	176.49886107444763	picture	0		101	158.0	/experiments/knapen_aot/AOT/AOT_stimuli/pictures/0377_fw.png	352.16943407058716	0.8437089920043945
160	177.33231115341187	response	0	j		158.0	/experiments/knapen_aot/AOT/AOT_stimuli/pictures/0377_fw.png	353.0028841495514	
161	177.34257006645203	picture	0		110	159.0	/experiments/knapen_aot/AOT/AOT_stimuli/pictures/1519_fw.png	353.01314306259155	0.9166390895843506
161	178.24895405769348	response	0	j		159.0	/experiments/knapen_aot/AOT/AOT_stimuli/pictures/1519_fw.png	353.919527053833	
162	178.25920915603638	picture	0		186	160.0	/experiments/knapen_aot/AOT/AOT_stimuli/pictures/0765_fw.png	353.9297821521759	1.548597812652588
162	179.79225707054138	response	0	k		160.0	/experiments/knapen_aot/AOT/AOT_stimuli/pictures/0765_fw.png	355.4628300666809	
163	179.80780696868896	picture	0		72	161.0	/experiments/knapen_aot/AOT/AOT_stimuli/pictures/0143_fw.png	355.4783799648285	0.6041619777679443
163	180.3932421207428	response	0	j		161.0	/experiments/knapen_aot/AOT/AOT_stimuli/pictures/0143_fw.png	356.0638151168823	
164	180.4119689464569	picture	0		159	162.0	/experiments/knapen_aot/AOT/AOT_stimuli/pictures/2058_fw.png	356.08254194259644	1.3332781791687012
164	181.7322859764099	response	0	j		162.0	/experiments/knapen_aot/AOT/AOT_stimuli/pictures/2058_fw.png	357.40285897254944	
165	181.7452471256256	picture	0		183	163.0	/experiments/knapen_aot/AOT/AOT_stimuli/pictures/0242_fw.png	357.41582012176514	1.537221908569336
165	183.26616311073303	response	0	j		163.0	/experiments/knapen_aot/AOT/AOT_stimuli/pictures/0242_fw.png	358.93673610687256	
166	183.28246903419495	picture	0		150	164.0	/experiments/knapen_aot/AOT/AOT_stimuli/pictures/0411_fw.png	358.9530420303345	1.2580699920654297
166	184.52394700050354	response	0	k		164.0	/experiments/knapen_aot/AOT/AOT_stimuli/pictures/0411_fw.png	360.19451999664307	
167	184.54053902626038	picture	0		113	165.0	/experiments/knapen_aot/AOT/AOT_stimuli/pictures/2141_fw.png	360.2111120223999	0.9499020576477051
167	185.47488808631897	response	0	k		165.0	/experiments/knapen_aot/AOT/AOT_stimuli/pictures/2141_fw.png	361.1454610824585	
168	185.49044108390808	picture	0		127	166.0	/experiments/knapen_aot/AOT/AOT_stimuli/pictures/1577_fw.png	361.1610140800476	1.0667319297790527
168	186.540668964386	response	0	k		166.0	/experiments/knapen_aot/AOT/AOT_stimuli/pictures/1577_fw.png	362.2112419605255	
169	186.55717301368713	picture	0		129	167.0	/experiments/knapen_aot/AOT/AOT_stimuli/pictures/0214_fw.png	362.22774600982666	1.0833449363708496
169	187.6239800453186	response	0	k		167.0	/experiments/knapen_aot/AOT/AOT_stimuli/pictures/0214_fw.png	363.29455304145813	
170	187.64051795005798	picture	0		104	168.0	/experiments/knapen_aot/AOT/AOT_stimuli/pictures/0539_fw.png	363.3110909461975	0.8686079978942871
170	188.49895906448364	response	0	j		168.0	/experiments/knapen_aot/AOT/AOT_stimuli/pictures/0539_fw.png	364.16953206062317	
171	188.50912594795227	picture	0		116	169.0	/experiments/knapen_aot/AOT/AOT_stimuli/pictures/0229_fw.png	364.1796989440918	0.9730210304260254
171	189.46559596061707	response	0	k		169.0	/experiments/knapen_aot/AOT/AOT_stimuli/pictures/0229_fw.png	365.1361689567566	
172	189.4821469783783	picture	0		109	170.0	/experiments/knapen_aot/AOT/AOT_stimuli/pictures/0005_fw.png	365.1527199745178	0.9091751575469971
172	190.3822419643402	response	0	j		170.0	/experiments/knapen_aot/AOT/AOT_stimuli/pictures/0005_fw.png	366.05281496047974	
173	190.3913221359253	picture	0		150	171.0	/experiments/knapen_aot/AOT/AOT_stimuli/pictures/1276_fw.png	366.0618951320648	1.2499868869781494
173	191.63218212127686	response	0	j		171.0	/experiments/knapen_aot/AOT/AOT_stimuli/pictures/1276_fw.png	367.3027551174164	
174	191.64130902290344	picture	0		168	172.0	/experiments/knapen_aot/AOT/AOT_stimuli/pictures/1194_fw.png	367.31188201904297	1.4074819087982178
174	193.03223395347595	response	0	j		172.0	/experiments/knapen_aot/AOT/AOT_stimuli/pictures/1194_fw.png	368.7028069496155	
175	193.04879093170166	picture	0		99	173.0	/experiments/knapen_aot/AOT/AOT_stimuli/pictures/2100_fw.png	368.7193639278412	0.8283340930938721
175	193.8655560016632	response	0	j		173.0	/experiments/knapen_aot/AOT/AOT_stimuli/pictures/2100_fw.png	369.53612899780273	
176	193.87712502479553	picture	0		116	174.0	/experiments/knapen_aot/AOT/AOT_stimuli/pictures/1136_fw.png	369.54769802093506	0.9652800559997559
176	194.83222699165344	response	0	k		174.0	/experiments/knapen_aot/AOT/AOT_stimuli/pictures/1136_fw.png	370.50279998779297	
177	194.8424050807953	picture	0		110	175.0	/experiments/knapen_aot/AOT/AOT_stimuli/pictures/1376_fw.png	370.5129780769348	0.9167530536651611
177	195.74892401695251	response	0	k		175.0	/experiments/knapen_aot/AOT/AOT_stimuli/pictures/1376_fw.png	371.41949701309204	
178	195.75915813446045	picture	0		100	176.0	/experiments/knapen_aot/AOT/AOT_stimuli/pictures/1622_fw.png	371.4297311306	0.8395638465881348
178	196.57564616203308	response	0	j		176.0	/experiments/knapen_aot/AOT/AOT_stimuli/pictures/1622_fw.png	372.2462191581726	
179	196.59872198104858	picture	0		102	177.0	/experiments/knapen_aot/AOT/AOT_stimuli/pictures/1273_fw.png	372.2692949771881	0.858361005783081
179	197.44054698944092	response	0	k		177.0	/experiments/knapen_aot/AOT/AOT_stimuli/pictures/1273_fw.png	373.11111998558044	
180	197.45708298683167	picture	0		90	178.0	/experiments/knapen_aot/AOT/AOT_stimuli/pictures/0451_fw.png	373.1276559829712	0.7583701610565186
180	198.19225406646729	response	0	j		178.0	/experiments/knapen_aot/AOT/AOT_stimuli/pictures/0451_fw.png	373.8628270626068	
181	198.21545314788818	picture	0		89	179.0	/experiments/knapen_aot/AOT/AOT_stimuli/pictures/1034_fw.png	373.8860261440277	0.7499649524688721
181	198.94890213012695	response	0	k		179.0	/experiments/knapen_aot/AOT/AOT_stimuli/pictures/1034_fw.png	374.6194751262665	
182	198.96541810035706	picture	0		160	180.0	/experiments/knapen_aot/AOT/AOT_stimuli/pictures/0177_fw.png	374.6359910964966	1.3352580070495605
182	200.29054403305054	response	0	j		180.0	/experiments/knapen_aot/AOT/AOT_stimuli/pictures/0177_fw.png	375.96111702919006	
183	200.30067610740662	picture	0		136	181.0	/experiments/knapen_aot/AOT/AOT_stimuli/pictures/0943_fw.png	375.97124910354614	1.132262945175171
183	201.42384099960327	response	0	j		181.0	/experiments/knapen_aot/AOT/AOT_stimuli/pictures/0943_fw.png	377.0944139957428	
184	201.4329390525818	picture	0		94	182.0	/experiments/knapen_aot/AOT/AOT_stimuli/pictures/1362_fw.png	377.1035120487213	0.7907869815826416
184	202.20063304901123	response	0	j		182.0	/experiments/knapen_aot/AOT/AOT_stimuli/pictures/1362_fw.png	377.87120604515076	
185	202.22372603416443	picture	0		109	183.0	/experiments/knapen_aot/AOT/AOT_stimuli/pictures/0021_fw.png	377.89429903030396	0.9102509021759033
185	203.1238739490509	response	0	j		183.0	/experiments/knapen_aot/AOT/AOT_stimuli/pictures/0021_fw.png	378.79444694519043	
186	203.13397693634033	picture	0		182	184.0	/experiments/knapen_aot/AOT/AOT_stimuli/pictures/1305_fw.png	378.80454993247986	1.5315420627593994
186	204.64884614944458	response	0	k		184.0	/experiments/knapen_aot/AOT/AOT_stimuli/pictures/1305_fw.png	380.3194191455841	
187	204.66551899909973	picture	0		102	185.0	/experiments/knapen_aot/AOT/AOT_stimuli/pictures/0353_fw.png	380.33609199523926	0.8582630157470703
187	205.50722098350525	response	0	j		185.0	/experiments/knapen_aot/AOT/AOT_stimuli/pictures/0353_fw.png	381.1777939796448	
188	205.5237820148468	picture	0		160	186.0	/experiments/knapen_aot/AOT/AOT_stimuli/pictures/2138_fw.png	381.1943550109863	1.3415799140930176
188	206.84969305992126	response	0	k		186.0	/experiments/knapen_aot/AOT/AOT_stimuli/pictures/2138_fw.png	382.5202660560608	
189	206.86536192893982	picture	0		87	187.0	/experiments/knapen_aot/AOT/AOT_stimuli/pictures/1760_fw.png	382.53593492507935	0.7270610332489014
189	207.5756230354309	response	0	j		187.0	/experiments/knapen_aot/AOT/AOT_stimuli/pictures/1760_fw.png	383.24619603157043	
190	207.59242296218872	picture	0		304	188.0	/experiments/knapen_aot/AOT/AOT_stimuli/pictures/1013_fw.png	383.26299595832825	2.539668083190918
190	210.1155309677124	response	0	k		188.0	/experiments/knapen_aot/AOT/AOT_stimuli/pictures/1013_fw.png	385.78610396385193	
191	210.13209104537964	picture	0		80	189.0	/experiments/knapen_aot/AOT/AOT_stimuli/pictures/0687_fw.png	385.80266404151917	0.6685140132904053
191	210.78388214111328	response	0	j		189.0	/experiments/knapen_aot/AOT/AOT_stimuli/pictures/0687_fw.png	386.4544551372528	
192	210.80060505867004	picture	0		78	190.0	/experiments/knapen_aot/AOT/AOT_stimuli/pictures/0689_fw.png	386.47117805480957	0.652738094329834
192	211.44050693511963	response	0	j		190.0	/experiments/knapen_aot/AOT/AOT_stimuli/pictures/0689_fw.png	387.11107993125916	
193	211.45334315299988	picture	0		97	191.0	/experiments/knapen_aot/AOT/AOT_stimuli/pictures/0759_fw.png	387.1239161491394	0.8056387901306152
193	212.24883699417114	response	0	j		191.0	/experiments/knapen_aot/AOT/AOT_stimuli/pictures/0759_fw.png	387.91940999031067	
194	212.2589819431305	picture	0		115	192.0	/experiments/knapen_aot/AOT/AOT_stimuli/pictures/1557_fw.png	387.92955493927	0.9582409858703613
194	213.20059204101562	response	0	j		192.0	/experiments/knapen_aot/AOT/AOT_stimuli/pictures/1557_fw.png	388.87116503715515	
195	213.21722292900085	picture	0		98	193.0	/experiments/knapen_aot/AOT/AOT_stimuli/pictures/0681_fw.png	388.8877959251404	0.8231461048126221
195	214.02380895614624	response	0	j		193.0	/experiments/knapen_aot/AOT/AOT_stimuli/pictures/0681_fw.png	389.69438195228577	
196	214.04036903381348	picture	0		107	194.0	/experiments/knapen_aot/AOT/AOT_stimuli/pictures/0884_fw.png	389.710942029953	0.9000749588012695
196	214.92384314537048	response	0	j		194.0	/experiments/knapen_aot/AOT/AOT_stimuli/pictures/0884_fw.png	390.59441614151	
197	214.94044399261475	picture	0		282	195.0	/experiments/knapen_aot/AOT/AOT_stimuli/pictures/0505_fw.png	390.6110169887543	2.358238935470581
197	217.2822630405426	response	0	k		195.0	/experiments/knapen_aot/AOT/AOT_stimuli/pictures/0505_fw.png	392.95283603668213	
198	217.29868292808533	picture	0		112	196.0	/experiments/knapen_aot/AOT/AOT_stimuli/pictures/2124_fw.png	392.96925592422485	0.9416370391845703
198	218.2246699333191	response	0	k		196.0	/experiments/knapen_aot/AOT/AOT_stimuli/pictures/2124_fw.png	393.8952429294586	
199	218.2403199672699	picture	0		117	197.0	/experiments/knapen_aot/AOT/AOT_stimuli/pictures/0883_fw.png	393.9108929634094	0.9768161773681641
199	219.20709609985352	response	0	k		197.0	/experiments/knapen_aot/AOT/AOT_stimuli/pictures/0883_fw.png	394.87766909599304	
200	219.21713614463806	picture	0		81	198.0	/experiments/knapen_aot/AOT/AOT_stimuli/pictures/0553_fw.png	394.8877091407776	0.6815159320831299
200	219.88213515281677	response	0	j		198.0	/experiments/knapen_aot/AOT/AOT_stimuli/pictures/0553_fw.png	395.5527081489563	
201	219.8986520767212	picture	0		107	199.0	/experiments/knapen_aot/AOT/AOT_stimuli/pictures/1799_fw.png	395.5692250728607	0.9000198841094971
201	220.77555513381958	response	0	j		199.0	/experiments/knapen_aot/AOT/AOT_stimuli/pictures/1799_fw.png	396.4461281299591	
202	220.7986719608307	picture	0		84	200.0	/experiments/knapen_aot/AOT/AOT_stimuli/pictures/2145_fw.png	396.4692449569702	0.7032079696655273
202	221.49040412902832	response	0	j		200.0	/experiments/knapen_aot/AOT/AOT_stimuli/pictures/2145_fw.png	397.16097712516785	
203	221.50187993049622	picture	0		89	201.0	/experiments/knapen_aot/AOT/AOT_stimuli/pictures/0179_fw.png	397.17245292663574	0.7431280612945557
203	222.2320909500122	response	0	j		201.0	/experiments/knapen_aot/AOT/AOT_stimuli/pictures/0179_fw.png	397.90266394615173	
204	222.24500799179077	picture	0		119	202.0	/experiments/knapen_aot/AOT/AOT_stimuli/pictures/1705_fw.png	397.9155809879303	0.9953639507293701
204	223.22480607032776	response	0	k		202.0	/experiments/knapen_aot/AOT/AOT_stimuli/pictures/1705_fw.png	398.8953790664673	
205	223.24037194252014	picture	0		103	203.0	/experiments/knapen_aot/AOT/AOT_stimuli/pictures/0674_fw.png	398.91094493865967	0.8591811656951904
205	224.0904619693756	response	0	k		203.0	/experiments/knapen_aot/AOT/AOT_stimuli/pictures/0674_fw.png	399.76103496551514	
206	224.09955310821533	picture	0		147	204.0	/experiments/knapen_aot/AOT/AOT_stimuli/pictures/0735_fw.png	399.77012610435486	1.2324409484863281
206	225.31551504135132	response	0	j		204.0	/experiments/knapen_aot/AOT/AOT_stimuli/pictures/0735_fw.png	400.98608803749084	
207	225.33199405670166	picture	0		140	205.0	/experiments/knapen_aot/AOT/AOT_stimuli/pictures/0859_fw.png	401.0025670528412	1.1751720905303955
207	226.49049711227417	response	0	k		205.0	/experiments/knapen_aot/AOT/AOT_stimuli/pictures/0859_fw.png	402.1610701084137	
208	226.50716614723206	picture	0		126	206.0	/experiments/knapen_aot/AOT/AOT_stimuli/pictures/1548_fw.png	402.1777391433716	1.0581579208374023
208	227.54880499839783	response	0	k		206.0	/experiments/knapen_aot/AOT/AOT_stimuli/pictures/1548_fw.png	403.21937799453735	
209	227.56532406806946	picture	0		105	207.0	/experiments/knapen_aot/AOT/AOT_stimuli/pictures/0583_fw.png	403.235897064209	0.8832979202270508
209	228.43292593955994	response	0	k		207.0	/experiments/knapen_aot/AOT/AOT_stimuli/pictures/0583_fw.png	404.10349893569946	
210	228.4486219882965	picture	0		109	208.0	/experiments/knapen_aot/AOT/AOT_stimuli/pictures/1079_fw.png	404.11919498443604	0.916633129119873
210	229.34964895248413	response	0	k		208.0	/experiments/knapen_aot/AOT/AOT_stimuli/pictures/1079_fw.png	405.02022194862366	
211	229.36525511741638	picture	0		79	209.0	/experiments/knapen_aot/AOT/AOT_stimuli/pictures/1843_fw.png	405.0358281135559	0.6667718887329102
211	230.0164020061493	response	0	j		209.0	/experiments/knapen_aot/AOT/AOT_stimuli/pictures/1843_fw.png	405.6869750022888	
212	230.0320270061493	picture	0		103	210.0	/experiments/knapen_aot/AOT/AOT_stimuli/pictures/0897_fw.png	405.7026000022888	0.8666441440582275
212	230.88231706619263	response	0	k		210.0	/experiments/knapen_aot/AOT/AOT_stimuli/pictures/0897_fw.png	406.55289006233215	
213	230.89867115020752	picture	0		109	211.0	/experiments/knapen_aot/AOT/AOT_stimuli/pictures/0952_fw.png	406.56924414634705	0.9165987968444824
213	231.798810005188	response	0	k		211.0	/experiments/knapen_aot/AOT/AOT_stimuli/pictures/0952_fw.png	407.4693830013275	
214	231.815269947052	picture	0		117	212.0	/experiments/knapen_aot/AOT/AOT_stimuli/pictures/1041_fw.png	407.4858429431915	0.9781551361083984
214	232.775563955307	response	0	k		212.0	/experiments/knapen_aot/AOT/AOT_stimuli/pictures/1041_fw.png	408.44613695144653	
215	232.7934250831604	picture	0		159	213.0	/experiments/knapen_aot/AOT/AOT_stimuli/pictures/0274_fw.png	408.4639980792999	1.3302109241485596
215	234.10712313652039	response	0	k		213.0	/experiments/knapen_aot/AOT/AOT_stimuli/pictures/0274_fw.png	409.7776961326599	
216	234.12363600730896	picture	0		106	214.0	/experiments/knapen_aot/AOT/AOT_stimuli/pictures/0736_fw.png	409.7942090034485	0.8850560188293457
216	234.9919309616089	response	0	k		214.0	/experiments/knapen_aot/AOT/AOT_stimuli/pictures/0736_fw.png	410.6625039577484	
217	235.0086920261383	picture	0		108	215.0	/experiments/knapen_aot/AOT/AOT_stimuli/pictures/1614_fw.png	410.67926502227783	0.9065971374511719
217	235.89878296852112	response	0	k		215.0	/experiments/knapen_aot/AOT/AOT_stimuli/pictures/1614_fw.png	411.56935596466064	
218	235.91528916358948	picture	0		271	216.0	/experiments/knapen_aot/AOT/AOT_stimuli/pictures/1605_fw.png	411.585862159729	2.266603946685791
218	238.15865802764893	response	0	k		216.0	/experiments/knapen_aot/AOT/AOT_stimuli/pictures/1605_fw.png	413.82923102378845	
219	238.18189311027527	picture	0		270	217.0	/experiments/knapen_aot/AOT/AOT_stimuli/pictures/1718_fw.png	413.8524661064148	2.2583978176116943
219	240.4237151145935	response	0	j		217.0	/experiments/knapen_aot/AOT/AOT_stimuli/pictures/1718_fw.png	416.09428811073303	
220	240.44029092788696	picture	0		87	218.0	/experiments/knapen_aot/AOT/AOT_stimuli/pictures/0041_fw.png	416.1108639240265	0.7281601428985596
220	241.15047907829285	response	0	k		218.0	/experiments/knapen_aot/AOT/AOT_stimuli/pictures/0041_fw.png	416.8210520744324	
221	241.16845107078552	picture	0		114	219.0	/experiments/knapen_aot/AOT/AOT_stimuli/pictures/1268_fw.png	416.83902406692505	0.9551620483398438
221	242.10708904266357	response	0	k		219.0	/experiments/knapen_aot/AOT/AOT_stimuli/pictures/1268_fw.png	417.7776620388031	
222	242.12361311912537	picture	0		125	220.0	/experiments/knapen_aot/AOT/AOT_stimuli/pictures/0832_fw.png	417.7941861152649	1.0446908473968506
222	243.150563955307	response	0	k		220.0	/experiments/knapen_aot/AOT/AOT_stimuli/pictures/0832_fw.png	418.82113695144653	
223	243.16830396652222	picture	0		82	221.0	/experiments/knapen_aot/AOT/AOT_stimuli/pictures/1295_fw.png	418.83887696266174	0.688647985458374
223	243.8403811454773	response	0	k		221.0	/experiments/knapen_aot/AOT/AOT_stimuli/pictures/1295_fw.png	419.5109541416168	
224	243.8569519519806	picture	0		90	222.0	/experiments/knapen_aot/AOT/AOT_stimuli/pictures/0385_fw.png	419.5275249481201	0.7583041191101074
224	244.59901213645935	response	0	j		222.0	/experiments/knapen_aot/AOT/AOT_stimuli/pictures/0385_fw.png	420.2695851325989	
225	244.6152560710907	picture	0		106	223.0	/experiments/knapen_aot/AOT/AOT_stimuli/pictures/0581_fw.png	420.2858290672302	0.8863339424133301
225	245.49033999443054	response	0	k		223.0	/experiments/knapen_aot/AOT/AOT_stimuli/pictures/0581_fw.png	421.16091299057007	
226	245.50159001350403	picture	0		110	224.0	/experiments/knapen_aot/AOT/AOT_stimuli/pictures/0194_fw.png	421.17216300964355	0.9219861030578613
226	246.40705394744873	response	0	k		224.0	/experiments/knapen_aot/AOT/AOT_stimuli/pictures/0194_fw.png	422.07762694358826	
227	246.4235761165619	picture	0		130	225.0	/experiments/knapen_aot/AOT/AOT_stimuli/pictures/0414_fw.png	422.0941491127014	1.0919020175933838
227	247.49864792823792	response	0	k		225.0	/experiments/knapen_aot/AOT/AOT_stimuli/pictures/0414_fw.png	423.16922092437744	
228	247.51547813415527	picture	0		115	226.0	/experiments/knapen_aot/AOT/AOT_stimuli/pictures/2121_fw.png	423.1860511302948	0.9667098522186279
228	248.46539402008057	response	0	j		226.0	/experiments/knapen_aot/AOT/AOT_stimuli/pictures/2121_fw.png	424.1359670162201	
229	248.4821879863739	picture	0		130	227.0	/experiments/knapen_aot/AOT/AOT_stimuli/pictures/1714_fw.png	424.1527609825134	1.091766119003296
229	249.55015301704407	response	0	j		227.0	/experiments/knapen_aot/AOT/AOT_stimuli/pictures/1714_fw.png	425.2207260131836	
230	249.5739541053772	picture	0		98	228.0	/experiments/knapen_aot/AOT/AOT_stimuli/pictures/1600_fw.png	425.2445271015167	0.8246309757232666
230	250.37515711784363	response	0	j		228.0	/experiments/knapen_aot/AOT/AOT_stimuli/pictures/1600_fw.png	426.04573011398315	
231	250.39858508110046	picture	0		99	229.0	/experiments/knapen_aot/AOT/AOT_stimuli/pictures/0694_fw.png	426.06915807724	0.8333249092102051
231	251.21529698371887	response	0	j		229.0	/experiments/knapen_aot/AOT/AOT_stimuli/pictures/0694_fw.png	426.8858699798584	
232	251.23190999031067	picture	0		128	230.0	/experiments/knapen_aot/AOT/AOT_stimuli/pictures/0375_fw.png	426.9024829864502	1.0750081539154053
232	252.29034614562988	response	0	k		230.0	/experiments/knapen_aot/AOT/AOT_stimuli/pictures/0375_fw.png	427.9609191417694	
233	252.30691814422607	picture	0		96	231.0	/experiments/knapen_aot/AOT/AOT_stimuli/pictures/0713_fw.png	427.9774911403656	0.8083209991455078
233	253.0988850593567	response	0	k		231.0	/experiments/knapen_aot/AOT/AOT_stimuli/pictures/0713_fw.png	428.7694580554962	
234	253.11523914337158	picture	0		92	232.0	/experiments/knapen_aot/AOT/AOT_stimuli/pictures/0397_fw.png	428.7858121395111	0.7682738304138184
234	253.87362599372864	response	0	k		232.0	/experiments/knapen_aot/AOT/AOT_stimuli/pictures/0397_fw.png	429.54419898986816	
235	253.8835129737854	picture	0		110	233.0	/experiments/knapen_aot/AOT/AOT_stimuli/pictures/0702_fw.png	429.5540859699249	0.9166641235351562
235	254.79026198387146	response	0	k		233.0	/experiments/knapen_aot/AOT/AOT_stimuli/pictures/0702_fw.png	430.460834980011	
236	254.80017709732056	picture	0		117	234.0	/experiments/knapen_aot/AOT/AOT_stimuli/pictures/1127_fw.png	430.4707500934601	0.9817109107971191
236	255.7586510181427	response	0	k		234.0	/experiments/knapen_aot/AOT/AOT_stimuli/pictures/1127_fw.png	431.4292240142822	
237	255.78188800811768	picture	0		109	235.0	/experiments/knapen_aot/AOT/AOT_stimuli/pictures/1335_fw.png	431.4524610042572	0.9167220592498779
237	256.6821961402893	response	0	k		235.0	/experiments/knapen_aot/AOT/AOT_stimuli/pictures/1335_fw.png	432.35276913642883	
238	256.69861006736755	picture	0		89	236.0	/experiments/knapen_aot/AOT/AOT_stimuli/pictures/0330_fw.png	432.3691830635071	0.7499408721923828
238	257.4321620464325	response	0	j		236.0	/experiments/knapen_aot/AOT/AOT_stimuli/pictures/0330_fw.png	433.102735042572	
239	257.44855093955994	picture	0		98	237.0	/experiments/knapen_aot/AOT/AOT_stimuli/pictures/1280_fw.png	433.11912393569946	0.8168320655822754
239	258.2569510936737	response	0	k		237.0	/experiments/knapen_aot/AOT/AOT_stimuli/pictures/1280_fw.png	433.92752408981323	
240	258.2653830051422	picture	0		83	238.0	/experiments/knapen_aot/AOT/AOT_stimuli/pictures/2068_fw.png	433.93595600128174	0.694486141204834
240	258.9486401081085	response	0	j		238.0	/experiments/knapen_aot/AOT/AOT_stimuli/pictures/2068_fw.png	434.61921310424805	
241	258.95986914634705	picture	0		108	239.0	/experiments/knapen_aot/AOT/AOT_stimuli/pictures/1026_fw.png	434.6304421424866	0.9053459167480469
241	259.8488130569458	response	0	j		239.0	/experiments/knapen_aot/AOT/AOT_stimuli/pictures/1026_fw.png	435.5193860530853	
242	259.8652150630951	picture	0		126	240.0	/experiments/knapen_aot/AOT/AOT_stimuli/pictures/1886_fw.png	435.5357880592346	1.052927017211914
242	260.90704011917114	response	0	k		240.0	/experiments/knapen_aot/AOT/AOT_stimuli/pictures/1886_fw.png	436.57761311531067	
243	260.918142080307	picture	0		111	241.0	/experiments/knapen_aot/AOT/AOT_stimuli/pictures/1794_fw.png	436.58871507644653	0.9236180782318115
243	261.8319499492645	response	0	k		241.0	/experiments/knapen_aot/AOT/AOT_stimuli/pictures/1794_fw.png	437.50252294540405	
244	261.8417601585388	picture	0		109	242.0	/experiments/knapen_aot/AOT/AOT_stimuli/pictures/0481_fw.png	437.51233315467834	0.915111780166626
244	262.74034810066223	response	0	j		242.0	/experiments/knapen_aot/AOT/AOT_stimuli/pictures/0481_fw.png	438.41092109680176	
245	262.75687193870544	picture	0		122	243.0	/experiments/knapen_aot/AOT/AOT_stimuli/pictures/1233_fw.png	438.42744493484497	1.022491216659546
245	263.75848507881165	response	0	k		243.0	/experiments/knapen_aot/AOT/AOT_stimuli/pictures/1233_fw.png	439.4290580749512	
246	263.779363155365	picture	0		109	244.0	/experiments/knapen_aot/AOT/AOT_stimuli/pictures/1077_fw.png	439.4499361515045	0.9168248176574707
246	264.6821391582489	response	0	j		244.0	/experiments/knapen_aot/AOT/AOT_stimuli/pictures/1077_fw.png	440.3527121543884	
247	264.69618797302246	picture	0		116	245.0	/experiments/knapen_aot/AOT/AOT_stimuli/pictures/2155_fw.png	440.366760969162	0.9776411056518555
247	265.65695810317993	response	0	k		245.0	/experiments/knapen_aot/AOT/AOT_stimuli/pictures/2155_fw.png	441.32753109931946	
248	265.6738290786743	picture	0		114	246.0	/experiments/knapen_aot/AOT/AOT_stimuli/pictures/0590_fw.png	441.34440207481384	0.958021879196167
248	266.6152889728546	response	0	k		246.0	/experiments/knapen_aot/AOT/AOT_stimuli/pictures/0590_fw.png	442.28586196899414	
249	266.6318509578705	picture	0		119	247.0	/experiments/knapen_aot/AOT/AOT_stimuli/pictures/1306_fw.png	442.30242395401	0.9946081638336182
249	267.61524200439453	response	0	k		247.0	/experiments/knapen_aot/AOT/AOT_stimuli/pictures/1306_fw.png	443.28581500053406	
250	267.6264591217041	picture	0		110	248.0	/experiments/knapen_aot/AOT/AOT_stimuli/pictures/1512_fw.png	443.2970321178436	0.9166598320007324
250	268.5318560600281	response	0	j		248.0	/experiments/knapen_aot/AOT/AOT_stimuli/pictures/1512_fw.png	444.2024290561676	
251	268.54311895370483	picture	0		160	249.0	/experiments/knapen_aot/AOT/AOT_stimuli/pictures/1447_fw.png	444.21369194984436	1.3333141803741455
251	269.8652551174164	response	0	j		249.0	/experiments/knapen_aot/AOT/AOT_stimuli/pictures/1447_fw.png	445.5358281135559	
252	269.876433134079	picture	0		93	250.0	/experiments/knapen_aot/AOT/AOT_stimuli/pictures/1134_fw.png	445.5470061302185	0.7778439521789551
252	270.64039301872253	response	0	j		250.0	/experiments/knapen_aot/AOT/AOT_stimuli/pictures/1134_fw.png	446.31096601486206	
253	270.65427708625793	picture	0		122	251.0	/experiments/knapen_aot/AOT/AOT_stimuli/pictures/1988_fw.png	446.32485008239746	1.0275418758392334
253	271.6652629375458	response	0	k		251.0	/experiments/knapen_aot/AOT/AOT_stimuli/pictures/1988_fw.png	447.3358359336853	
254	271.68181896209717	picture	0		118	252.0	/experiments/knapen_aot/AOT/AOT_stimuli/pictures/0347_fw.png	447.3523919582367	0.991671085357666
254	272.6568720340729	response	0	k		252.0	/experiments/knapen_aot/AOT/AOT_stimuli/pictures/0347_fw.png	448.3274450302124	
255	272.67349004745483	picture	0		124	253.0	/experiments/knapen_aot/AOT/AOT_stimuli/pictures/1993_fw.png	448.34406304359436	1.0416738986968994
255	273.69858407974243	response	0	k		253.0	/experiments/knapen_aot/AOT/AOT_stimuli/pictures/1993_fw.png	449.36915707588196	
256	273.71516394615173	picture	0		95	254.0	/experiments/knapen_aot/AOT/AOT_stimuli/pictures/1486_fw.png	449.38573694229126	0.7931079864501953
256	274.4985611438751	response	0	j		254.0	/experiments/knapen_aot/AOT/AOT_stimuli/pictures/1486_fw.png	450.16913414001465	
257	274.50827193260193	picture	0		101	255.0	/experiments/knapen_aot/AOT/AOT_stimuli/pictures/1697_fw.png	450.17884492874146	0.840266227722168
257	275.3402190208435	response	0	k		255.0	/experiments/knapen_aot/AOT/AOT_stimuli/pictures/1697_fw.png	451.01079201698303	
258	275.3485381603241	picture	0		155	256.0	/experiments/knapen_aot/AOT/AOT_stimuli/pictures/0582_fw.png	451.0191111564636	1.2916858196258545
258	276.6318509578705	response	0	k		256.0	/experiments/knapen_aot/AOT/AOT_stimuli/pictures/0582_fw.png	452.30242395401	
259	276.64022397994995	picture	0		113	257.0	/experiments/knapen_aot/AOT/AOT_stimuli/pictures/1266_fw.png	452.3107969760895	0.9444441795349121
259	277.56667304039	response	0	j		257.0	/experiments/knapen_aot/AOT/AOT_stimuli/pictures/1266_fw.png	453.23724603652954	
260	277.58466815948486	picture	0		142	258.0	/experiments/knapen_aot/AOT/AOT_stimuli/pictures/1766_fw.png	453.2552411556244	1.1805148124694824
260	278.75007700920105	response	0	j		258.0	/experiments/knapen_aot/AOT/AOT_stimuli/pictures/1766_fw.png	454.4206500053406	
261	278.76518297195435	picture	0		134	259.0	/experiments/knapen_aot/AOT/AOT_stimuli/pictures/1707_fw.png	454.4357559680939	1.1249539852142334
261	279.8735570907593	response	0	j		259.0	/experiments/knapen_aot/AOT/AOT_stimuli/pictures/1707_fw.png	455.5441300868988	
262	279.8901369571686	picture	0		128	260.0	/experiments/knapen_aot/AOT/AOT_stimuli/pictures/1116_fw.png	455.5607099533081	1.0695340633392334
262	280.94182300567627	response	0	j		260.0	/experiments/knapen_aot/AOT/AOT_stimuli/pictures/1116_fw.png	456.6123960018158	
263	280.9596710205078	picture	0		111	261.0	/experiments/knapen_aot/AOT/AOT_stimuli/pictures/1583_fw.png	456.63024401664734	0.9304261207580566
263	281.87352108955383	response	0	k		261.0	/experiments/knapen_aot/AOT/AOT_stimuli/pictures/1583_fw.png	457.54409408569336	
264	281.89009714126587	picture	0		112	262.0	/experiments/knapen_aot/AOT/AOT_stimuli/pictures/1638_fw.png	457.5606701374054	0.9416699409484863
264	282.8151910305023	response	0	k		262.0	/experiments/knapen_aot/AOT/AOT_stimuli/pictures/1638_fw.png	458.48576402664185	
265	282.83176708221436	picture	0		162	263.0	/experiments/knapen_aot/AOT/AOT_stimuli/pictures/0337_fw.png	458.5023400783539	1.3583340644836426
265	284.17353200912476	response	0	k		263.0	/experiments/knapen_aot/AOT/AOT_stimuli/pictures/0337_fw.png	459.8441050052643	
266	284.190101146698	picture	0		121	264.0	/experiments/knapen_aot/AOT/AOT_stimuli/pictures/0433_fw.png	459.8606741428375	1.0166499614715576
266	285.1902720928192	response	0	k		264.0	/experiments/knapen_aot/AOT/AOT_stimuli/pictures/0433_fw.png	460.86084508895874	
267	285.20675110816956	picture	0		118	265.0	/experiments/knapen_aot/AOT/AOT_stimuli/pictures/1454_fw.png	460.8773241043091	0.9917080402374268
267	286.1819109916687	response	0	j		265.0	/experiments/knapen_aot/AOT/AOT_stimuli/pictures/1454_fw.png	461.8524839878082	
268	286.198459148407	picture	0		100	266.0	/experiments/knapen_aot/AOT/AOT_stimuli/pictures/0498_fw.png	461.8690321445465	0.8416810035705566
268	287.0234670639038	response	0	k		266.0	/experiments/knapen_aot/AOT/AOT_stimuli/pictures/0498_fw.png	462.69404006004333	
269	287.04014015197754	picture	0		115	267.0	/experiments/knapen_aot/AOT/AOT_stimuli/pictures/0924_fw.png	462.71071314811707	0.9666697978973389
269	287.99016308784485	response	0	k		267.0	/experiments/knapen_aot/AOT/AOT_stimuli/pictures/0924_fw.png	463.6607360839844	
270	288.0068099498749	picture	0		92	268.0	/experiments/knapen_aot/AOT/AOT_stimuli/pictures/0960_fw.png	463.6773829460144	0.7749412059783936
270	288.7651791572571	response	0	j		268.0	/experiments/knapen_aot/AOT/AOT_stimuli/pictures/0960_fw.png	464.4357521533966	
271	288.78175115585327	picture	0		110	269.0	/experiments/knapen_aot/AOT/AOT_stimuli/pictures/0593_fw.png	464.4523241519928	0.9208498001098633
271	289.6901559829712	response	0	j		269.0	/experiments/knapen_aot/AOT/AOT_stimuli/pictures/0593_fw.png	465.3607289791107	
272	289.70260095596313	picture	0		124	270.0	/experiments/knapen_aot/AOT/AOT_stimuli/pictures/1896_fw.png	465.37317395210266	1.0374770164489746
272	290.7235219478607	response	0	j		270.0	/experiments/knapen_aot/AOT/AOT_stimuli/pictures/1896_fw.png	466.39409494400024	
273	290.7400779724121	picture	0		82	271.0	/experiments/knapen_aot/AOT/AOT_stimuli/pictures/1118_fw.png	466.41065096855164	0.691648006439209
273	291.41518902778625	response	0	j		271.0	/experiments/knapen_aot/AOT/AOT_stimuli/pictures/1118_fw.png	467.0857620239258	
274	291.4317259788513	picture	0		103	272.0	/experiments/knapen_aot/AOT/AOT_stimuli/pictures/1636_fw.png	467.10229897499084	0.8611619472503662
274	292.281779050827	response	0	j		272.0	/experiments/knapen_aot/AOT/AOT_stimuli/pictures/1636_fw.png	467.95235204696655	
275	292.2928879261017	picture	0		182	273.0	/experiments/knapen_aot/AOT/AOT_stimuli/pictures/1287_fw.png	467.9634609222412	1.5223371982574463
275	293.7984631061554	response	0	k		273.0	/experiments/knapen_aot/AOT/AOT_stimuli/pictures/1287_fw.png	469.4690361022949	
276	293.81522512435913	picture	0		84	274.0	/experiments/knapen_aot/AOT/AOT_stimuli/pictures/0938_fw.png	469.48579812049866	0.7081739902496338
276	294.50680708885193	response	0	j		274.0	/experiments/knapen_aot/AOT/AOT_stimuli/pictures/0938_fw.png	470.17738008499146	
277	294.52339911460876	picture	0		114	275.0	/experiments/knapen_aot/AOT/AOT_stimuli/pictures/1824_fw.png	470.1939721107483	0.94999098777771
277	295.4651460647583	response	0	k		275.0	/experiments/knapen_aot/AOT/AOT_stimuli/pictures/1824_fw.png	471.1357190608978	
278	295.4733901023865	picture	0		92	276.0	/experiments/knapen_aot/AOT/AOT_stimuli/pictures/0418_fw.png	471.143963098526	0.7750120162963867
278	296.23184394836426	response	0	j		276.0	/experiments/knapen_aot/AOT/AOT_stimuli/pictures/0418_fw.png	471.9024169445038	
279	296.24840211868286	picture	0		112	277.0	/experiments/knapen_aot/AOT/AOT_stimuli/pictures/0773_fw.png	471.9189751148224	0.9333088397979736
279	297.1734471321106	response	0	k		277.0	/experiments/knapen_aot/AOT/AOT_stimuli/pictures/0773_fw.png	472.8440201282501	
280	297.18171095848083	picture	0		113	278.0	/experiments/knapen_aot/AOT/AOT_stimuli/pictures/0488_fw.png	472.85228395462036	0.9444739818572998
280	298.11512994766235	response	0	k		278.0	/experiments/knapen_aot/AOT/AOT_stimuli/pictures/0488_fw.png	473.7857029438019	
281	298.12618494033813	picture	0		107	279.0	/experiments/knapen_aot/AOT/AOT_stimuli/pictures/1171_fw.png	473.79675793647766	0.8972320556640625
281	299.00675797462463	response	0	k		279.0	/experiments/knapen_aot/AOT/AOT_stimuli/pictures/1171_fw.png	474.67733097076416	
282	299.0234169960022	picture	0		168	280.0	/experiments/knapen_aot/AOT/AOT_stimuli/pictures/0640_fw.png	474.6939899921417	1.4082860946655273
282	300.41512298583984	response	0	k		280.0	/experiments/knapen_aot/AOT/AOT_stimuli/pictures/0640_fw.png	476.08569598197937	
283	300.4317030906677	picture	0		131	281.0	/experiments/knapen_aot/AOT/AOT_stimuli/pictures/0208_fw.png	476.10227608680725	1.097235918045044
283	301.51512694358826	response	0	k		281.0	/experiments/knapen_aot/AOT/AOT_stimuli/pictures/0208_fw.png	477.1856999397278	
284	301.52893900871277	picture	0		121	282.0	/experiments/knapen_aot/AOT/AOT_stimuli/pictures/0985_fw.png	477.1995120048523	1.0198760032653809
284	302.52500796318054	response	0	k		282.0	/experiments/knapen_aot/AOT/AOT_stimuli/pictures/0985_fw.png	478.19558095932007	
285	302.54881501197815	picture	0		99	283.0	/experiments/knapen_aot/AOT/AOT_stimuli/pictures/0521_fw.png	478.2193880081177	0.8272960186004639
285	303.3650929927826	response	0	j		283.0	/experiments/knapen_aot/AOT/AOT_stimuli/pictures/0521_fw.png	479.0356659889221	
286	303.3761110305786	picture	0		78	284.0	/experiments/knapen_aot/AOT/AOT_stimuli/pictures/2154_fw.png	479.04668402671814	0.6556780338287354
286	304.01502799987793	response	0	j		284.0	/experiments/knapen_aot/AOT/AOT_stimuli/pictures/2154_fw.png	479.68560099601746	
287	304.03178906440735	picture	0		89	285.0	/experiments/knapen_aot/AOT/AOT_stimuli/pictures/0797_fw.png	479.7023620605469	0.7472028732299805
287	304.7651081085205	response	0	j		285.0	/experiments/knapen_aot/AOT/AOT_stimuli/pictures/0797_fw.png	480.43568110466003	
288	304.77899193763733	picture	0		163	286.0	/experiments/knapen_aot/AOT/AOT_stimuli/pictures/0881_fw.png	480.44956493377686	1.369476079940796
288	306.12497210502625	response	0	k		286.0	/experiments/knapen_aot/AOT/AOT_stimuli/pictures/0881_fw.png	481.79554510116577	
289	306.1484680175781	picture	0		81	287.0	/experiments/knapen_aot/AOT/AOT_stimuli/pictures/0784_fw.png	481.81904101371765	0.678973913192749
289	306.8151090145111	response	0	j		287.0	/experiments/knapen_aot/AOT/AOT_stimuli/pictures/0784_fw.png	482.48568201065063	
290	306.8274419307709	picture	0		128	288.0	/experiments/knapen_aot/AOT/AOT_stimuli/pictures/1987_fw.png	482.4980149269104	1.0709021091461182
290	307.88176107406616	response	0	k		288.0	/experiments/knapen_aot/AOT/AOT_stimuli/pictures/1987_fw.png	483.5523340702057	
291	307.898344039917	picture	0		116	289.0	/experiments/knapen_aot/AOT/AOT_stimuli/pictures/1951_fw.png	483.5689170360565	0.9707651138305664
291	308.85675501823425	response	0	k		289.0	/experiments/knapen_aot/AOT/AOT_stimuli/pictures/1951_fw.png	484.5273280143738	
292	308.86910915374756	picture	0		80	290.0	/experiments/knapen_aot/AOT/AOT_stimuli/pictures/0873_fw.png	484.5396821498871	0.6709108352661133
292	309.5166320800781	response	0	j		290.0	/experiments/knapen_aot/AOT/AOT_stimuli/pictures/0873_fw.png	485.18720507621765	
293	309.5400199890137	picture	0		88	291.0	/experiments/knapen_aot/AOT/AOT_stimuli/pictures/0796_fw.png	485.2105929851532	0.7416059970855713
293	310.26504707336426	response	0	j		291.0	/experiments/knapen_aot/AOT/AOT_stimuli/pictures/0796_fw.png	485.9356200695038	
294	310.28162598609924	picture	0		110	292.0	/experiments/knapen_aot/AOT/AOT_stimuli/pictures/0118_fw.png	485.95219898223877	0.9207770824432373
294	311.1901409626007	response	0	k		292.0	/experiments/knapen_aot/AOT/AOT_stimuli/pictures/0118_fw.png	486.86071395874023	
295	311.2024030685425	picture	0		94	293.0	/experiments/knapen_aot/AOT/AOT_stimuli/pictures/1828_fw.png	486.872976064682	0.78761887550354
295	311.97342109680176	response	0	j		293.0	/experiments/knapen_aot/AOT/AOT_stimuli/pictures/1828_fw.png	487.6439940929413	
296	311.990021944046	picture	0		271	294.0	/experiments/knapen_aot/AOT/AOT_stimuli/pictures/1782_fw.png	487.66059494018555	2.2610111236572266
296	314.24004912376404	response	0	k		294.0	/experiments/knapen_aot/AOT/AOT_stimuli/pictures/1782_fw.png	489.91062211990356	
297	314.25103306770325	picture	0		182	295.0	/experiments/knapen_aot/AOT/AOT_stimuli/pictures/0683_fw.png	489.9216060638428	1.522278070449829
297	315.7567479610443	response	0	k		295.0	/experiments/knapen_aot/AOT/AOT_stimuli/pictures/0683_fw.png	491.42732095718384	
298	315.7733111381531	picture	0		117	296.0	/experiments/knapen_aot/AOT/AOT_stimuli/pictures/0501_fw.png	491.4438841342926	0.9833149909973145
298	316.7333960533142	response	0	k		296.0	/experiments/knapen_aot/AOT/AOT_stimuli/pictures/0501_fw.png	492.40396904945374	
299	316.7566261291504	picture	0		99	297.0	/experiments/knapen_aot/AOT/AOT_stimuli/pictures/1671_fw.png	492.4271991252899	0.8333859443664551
299	317.57337403297424	response	0	j		297.0	/experiments/knapen_aot/AOT/AOT_stimuli/pictures/1671_fw.png	493.24394702911377	
300	317.59001207351685	picture	0		137	298.0	/experiments/knapen_aot/AOT/AOT_stimuli/pictures/1123_fw.png	493.2605850696564	1.1499619483947754
300	318.71663904190063	response	0	j		298.0	/experiments/knapen_aot/AOT/AOT_stimuli/pictures/1123_fw.png	494.38721203804016	
301	318.7399740219116	picture	0		181	299.0	/experiments/knapen_aot/AOT/AOT_stimuli/pictures/1742_fw.png	494.41054701805115	1.5166559219360352
301	320.24007511138916	response	0	k		299.0	/experiments/knapen_aot/AOT/AOT_stimuli/pictures/1742_fw.png	495.9106481075287	
302	320.25662994384766	picture	0		145	300.0	/experiments/knapen_aot/AOT/AOT_stimuli/pictures/0635_fw.png	495.9272029399872	1.216813087463379
302	321.4567120075226	response	0	j		300.0	/experiments/knapen_aot/AOT/AOT_stimuli/pictures/0635_fw.png	497.1272850036621	
303	321.47344303131104	picture	0		232	301.0	/experiments/knapen_aot/AOT/AOT_stimuli/pictures/1349_fw.png	497.14401602745056	1.941493034362793
303	323.3983860015869	response	0	j		301.0	/experiments/knapen_aot/AOT/AOT_stimuli/pictures/1349_fw.png	499.06895899772644	
304	323.4149360656738	picture	0		89	302.0	/experiments/knapen_aot/AOT/AOT_stimuli/pictures/0073_fw.png	499.08550906181335	0.7457308769226074
304	324.1483540534973	response	0	j		302.0	/experiments/knapen_aot/AOT/AOT_stimuli/pictures/0073_fw.png	499.81892704963684	
305	324.16066694259644	picture	0		132	303.0	/experiments/knapen_aot/AOT/AOT_stimuli/pictures/0072_fw.png	499.83123993873596	1.0971531867980957
305	325.2483949661255	response	0	k		303.0	/experiments/knapen_aot/AOT/AOT_stimuli/pictures/0072_fw.png	500.918967962265	
306	325.25782012939453	picture	0		167	304.0	/experiments/knapen_aot/AOT/AOT_stimuli/pictures/1898_fw.png	500.92839312553406	1.3958499431610107
306	326.64005494117737	response	0	k		304.0	/experiments/knapen_aot/AOT/AOT_stimuli/pictures/1898_fw.png	502.3106279373169	
307	326.65367007255554	picture	0		84	305.0	/experiments/knapen_aot/AOT/AOT_stimuli/pictures/1072_fw.png	502.32424306869507	0.7112798690795898
307	327.34838795661926	response	0	j		305.0	/experiments/knapen_aot/AOT/AOT_stimuli/pictures/1072_fw.png	503.0189609527588	
308	327.36494994163513	picture	0		101	306.0	/experiments/knapen_aot/AOT/AOT_stimuli/pictures/1970_fw.png	503.03552293777466	0.8443021774291992
308	328.1983439922333	response	0	k		306.0	/experiments/knapen_aot/AOT/AOT_stimuli/pictures/1970_fw.png	503.8689169883728	
309	328.20925211906433	picture	0		107	307.0	/experiments/knapen_aot/AOT/AOT_stimuli/pictures/1975_fw.png	503.87982511520386	0.8958249092102051
309	329.08999013900757	response	0	k		307.0	/experiments/knapen_aot/AOT/AOT_stimuli/pictures/1975_fw.png	504.7605631351471	
310	329.10507702827454	picture	0		109	308.0	/experiments/knapen_aot/AOT/AOT_stimuli/pictures/0485_fw.png	504.77565002441406	0.918220043182373
310	330.0067219734192	response	0	j		308.0	/experiments/knapen_aot/AOT/AOT_stimuli/pictures/0485_fw.png	505.6772949695587	
311	330.0232970714569	picture	0		139	309.0	/experiments/knapen_aot/AOT/AOT_stimuli/pictures/1722_fw.png	505.69387006759644	1.166611909866333
311	331.17339515686035	response	0	k		309.0	/experiments/knapen_aot/AOT/AOT_stimuli/pictures/1722_fw.png	506.8439681529999	
312	331.18990898132324	picture	0		88	310.0	/experiments/knapen_aot/AOT/AOT_stimuli/pictures/1067_fw.png	506.86048197746277	0.7418210506439209
312	331.9081950187683	response	0	j		310.0	/experiments/knapen_aot/AOT/AOT_stimuli/pictures/1067_fw.png	507.57876801490784	
313	331.93173003196716	picture	0		116	311.0	/experiments/knapen_aot/AOT/AOT_stimuli/pictures/2179_fw.png	507.6023030281067	0.974837064743042
313	332.8899869918823	response	0	k		311.0	/experiments/knapen_aot/AOT/AOT_stimuli/pictures/2179_fw.png	508.56055998802185	
314	332.9065670967102	picture	0		121	312.0	/experiments/knapen_aot/AOT/AOT_stimuli/pictures/2083_fw.png	508.57714009284973	1.0166690349578857
314	333.9066641330719	response	0	k		312.0	/experiments/knapen_aot/AOT/AOT_stimuli/pictures/2083_fw.png	509.5772371292114	
315	333.9232361316681	picture	0		117	313.0	/experiments/knapen_aot/AOT/AOT_stimuli/pictures/1551_fw.png	509.5938091278076	0.9833228588104248
315	334.89000511169434	response	0	k		313.0	/experiments/knapen_aot/AOT/AOT_stimuli/pictures/1551_fw.png	510.56057810783386	
316	334.9065589904785	picture	0		134	314.0	/experiments/knapen_aot/AOT/AOT_stimuli/pictures/1025_fw.png	510.57713198661804	1.1249990463256836
316	336.0149619579315	response	0	j		314.0	/experiments/knapen_aot/AOT/AOT_stimuli/pictures/1025_fw.png	511.68553495407104	
317	336.0315580368042	picture	0		96	315.0	/experiments/knapen_aot/AOT/AOT_stimuli/pictures/2153_fw.png	511.7021310329437	0.8083100318908691
317	336.8232989311218	response	0	k		315.0	/experiments/knapen_aot/AOT/AOT_stimuli/pictures/2153_fw.png	512.4938719272614	
318	336.83986806869507	picture	0		113	316.0	/experiments/knapen_aot/AOT/AOT_stimuli/pictures/1508_fw.png	512.5104410648346	0.9499990940093994
318	337.77325797080994	response	0	k		316.0	/experiments/knapen_aot/AOT/AOT_stimuli/pictures/1508_fw.png	513.4438309669495	
319	337.78986716270447	picture	0		199	317.0	/experiments/knapen_aot/AOT/AOT_stimuli/pictures/1633_fw.png	513.460440158844	1.6667048931121826
319	339.43991208076477	response	0	j		317.0	/experiments/knapen_aot/AOT/AOT_stimuli/pictures/1633_fw.png	515.1104850769043	
320	339.45657205581665	picture	0		95	318.0	/experiments/knapen_aot/AOT/AOT_stimuli/pictures/1120_fw.png	515.1271450519562	0.7999870777130127
320	340.2399489879608	response	0	k		318.0	/experiments/knapen_aot/AOT/AOT_stimuli/pictures/1120_fw.png	515.9105219841003	
321	340.25655913352966	picture	0		112	319.0	/experiments/knapen_aot/AOT/AOT_stimuli/pictures/0356_fw.png	515.9271321296692	0.9416928291320801
321	341.1816420555115	response	0	j		319.0	/experiments/knapen_aot/AOT/AOT_stimuli/pictures/0356_fw.png	516.852215051651	
322	341.19825196266174	picture	0		98	320.0	/experiments/knapen_aot/AOT/AOT_stimuli/pictures/0502_fw.png	516.8688249588013	0.8249731063842773
322	342.0066101551056	response	0	k		320.0	/experiments/knapen_aot/AOT/AOT_stimuli/pictures/0502_fw.png	517.6771831512451	
323	342.023225069046	picture	0		76	321.0	/experiments/knapen_aot/AOT/AOT_stimuli/pictures/0563_fw.png	517.6937980651855	0.6442470550537109
323	342.64824414253235	response	0	j		321.0	/experiments/knapen_aot/AOT/AOT_stimuli/pictures/0563_fw.png	518.3188171386719	
324	342.66747212409973	picture	0		121	322.0	/experiments/knapen_aot/AOT/AOT_stimuli/pictures/2016_fw.png	518.3380451202393	1.0142889022827148
324	343.6649510860443	response	0	j		322.0	/experiments/knapen_aot/AOT/AOT_stimuli/pictures/2016_fw.png	519.3355240821838	
325	343.68176102638245	picture	0		115	323.0	/experiments/knapen_aot/AOT/AOT_stimuli/pictures/0277_fw.png	519.352334022522	0.9665770530700684
325	344.6316239833832	response	0	k		323.0	/experiments/knapen_aot/AOT/AOT_stimuli/pictures/0277_fw.png	520.3021969795227	
326	344.6483380794525	picture	0		98	324.0	/experiments/knapen_aot/AOT/AOT_stimuli/pictures/1209_fw.png	520.318911075592	0.824862003326416
326	345.45661306381226	response	0	k		324.0	/experiments/knapen_aot/AOT/AOT_stimuli/pictures/1209_fw.png	521.1271860599518	
327	345.47320008277893	picture	0		92	325.0	/experiments/knapen_aot/AOT/AOT_stimuli/pictures/0033_fw.png	521.1437730789185	0.7758069038391113
327	346.2316460609436	response	0	j		325.0	/experiments/knapen_aot/AOT/AOT_stimuli/pictures/0033_fw.png	521.9022190570831	
328	346.24900698661804	picture	0		109	326.0	/experiments/knapen_aot/AOT/AOT_stimuli/pictures/0178_fw.png	521.9195799827576	0.9158430099487305
328	347.1482689380646	response	0	j		326.0	/experiments/knapen_aot/AOT/AOT_stimuli/pictures/0178_fw.png	522.8188419342041	
329	347.1648499965668	picture	0		174	327.0	/experiments/knapen_aot/AOT/AOT_stimuli/pictures/1104_fw.png	522.8354229927063	1.4588100910186768
329	348.60655307769775	response	0	k		327.0	/experiments/knapen_aot/AOT/AOT_stimuli/pictures/1104_fw.png	524.2771260738373	
330	348.62366008758545	picture	0		115	328.0	/experiments/knapen_aot/AOT/AOT_stimuli/pictures/1937_fw.png	524.294233083725	0.967458963394165
330	349.57327699661255	response	0	k		328.0	/experiments/knapen_aot/AOT/AOT_stimuli/pictures/1937_fw.png	525.2438499927521	
331	349.5911190509796	picture	0		151	329.0	/experiments/knapen_aot/AOT/AOT_stimuli/pictures/1107_fw.png	525.2616920471191	1.2653679847717285
331	350.8398940563202	response	0	j		329.0	/experiments/knapen_aot/AOT/AOT_stimuli/pictures/1107_fw.png	526.5104670524597	
332	350.85648703575134	picture	0		256	330.0	/experiments/knapen_aot/AOT/AOT_stimuli/pictures/1048_fw.png	526.5270600318909	2.141674041748047
332	352.98161602020264	response	0	k		330.0	/experiments/knapen_aot/AOT/AOT_stimuli/pictures/1048_fw.png	528.6521890163422	
333	352.9981610774994	picture	0		84	331.0	/experiments/knapen_aot/AOT/AOT_stimuli/pictures/0279_fw.png	528.6687340736389	0.7083950042724609
333	353.6899049282074	response	0	k		331.0	/experiments/knapen_aot/AOT/AOT_stimuli/pictures/0279_fw.png	529.3604779243469	
334	353.70655608177185	picture	0		82	332.0	/experiments/knapen_aot/AOT/AOT_stimuli/pictures/1651_fw.png	529.3771290779114	0.6916520595550537
334	354.3815860748291	response	0	k		332.0	/experiments/knapen_aot/AOT/AOT_stimuli/pictures/1651_fw.png	530.0521590709686	
335	354.3982081413269	picture	0		103	333.0	/experiments/knapen_aot/AOT/AOT_stimuli/pictures/1538_fw.png	530.0687811374664	0.8669118881225586
335	355.2482409477234	response	0	k		333.0	/experiments/knapen_aot/AOT/AOT_stimuli/pictures/1538_fw.png	530.9188139438629	
336	355.26512002944946	picture	0		115	334.0	/experiments/knapen_aot/AOT/AOT_stimuli/pictures/2131_fw.png	530.935693025589	0.9663670063018799
336	356.2149341106415	response	0	k		334.0	/experiments/knapen_aot/AOT/AOT_stimuli/pictures/2131_fw.png	531.885507106781	
337	356.23148703575134	picture	0		110	335.0	/experiments/knapen_aot/AOT/AOT_stimuli/pictures/0442_fw.png	531.9020600318909	0.9250080585479736
337	357.13996601104736	response	0	k		335.0	/experiments/knapen_aot/AOT/AOT_stimuli/pictures/0442_fw.png	532.8105390071869	
338	357.1564950942993	picture	0		103	336.0	/experiments/knapen_aot/AOT/AOT_stimuli/pictures/0036_fw.png	532.8270680904388	0.86667799949646
338	358.00651812553406	response	0	j		336.0	/experiments/knapen_aot/AOT/AOT_stimuli/pictures/0036_fw.png	533.6770911216736	
339	358.0231730937958	picture	0		89	337.0	/experiments/knapen_aot/AOT/AOT_stimuli/pictures/1242_fw.png	533.6937460899353	0.7499439716339111
339	358.7565190792084	response	0	k		337.0	/experiments/knapen_aot/AOT/AOT_stimuli/pictures/1242_fw.png	534.4270920753479	
340	358.7731170654297	picture	0		114	338.0	/experiments/knapen_aot/AOT/AOT_stimuli/pictures/0341_fw.png	534.4436900615692	0.9583470821380615
340	359.70810413360596	response	0	j		338.0	/experiments/knapen_aot/AOT/AOT_stimuli/pictures/0341_fw.png	535.3786771297455	
341	359.73146414756775	picture	0		119	339.0	/experiments/knapen_aot/AOT/AOT_stimuli/pictures/2162_fw.png	535.4020371437073	0.9999918937683105
341	360.70813393592834	response	0	j		339.0	/experiments/knapen_aot/AOT/AOT_stimuli/pictures/2162_fw.png	536.3787069320679	
342	360.73145604133606	picture	0		137	340.0	/experiments/knapen_aot/AOT/AOT_stimuli/pictures/0592_fw.png	536.4020290374756	1.1511459350585938
342	361.86490392684937	response	0	k		340.0	/experiments/knapen_aot/AOT/AOT_stimuli/pictures/0592_fw.png	537.5354769229889	
343	361.88260197639465	picture	0		112	341.0	/experiments/knapen_aot/AOT/AOT_stimuli/pictures/2049_fw.png	537.5531749725342	0.9406530857086182
343	362.8065791130066	response	0	k		341.0	/experiments/knapen_aot/AOT/AOT_stimuli/pictures/2049_fw.png	538.4771521091461	
344	362.82325506210327	picture	0		81	342.0	/experiments/knapen_aot/AOT/AOT_stimuli/pictures/1871_fw.png	538.4938280582428	0.6843240261077881
344	363.4898610115051	response	0	k		342.0	/experiments/knapen_aot/AOT/AOT_stimuli/pictures/1871_fw.png	539.1604340076447	
345	363.50757908821106	picture	0		111	343.0	/experiments/knapen_aot/AOT/AOT_stimuli/pictures/1240_fw.png	539.1781520843506	0.932405948638916
345	364.42318296432495	response	0	j		343.0	/experiments/knapen_aot/AOT/AOT_stimuli/pictures/1240_fw.png	540.0937559604645	
346	364.43998503685	picture	0		101	344.0	/experiments/knapen_aot/AOT/AOT_stimuli/pictures/0350_fw.png	540.1105580329895	0.8497829437255859
346	365.2732050418854	response	0	k		344.0	/experiments/knapen_aot/AOT/AOT_stimuli/pictures/0350_fw.png	540.9437780380249	
347	365.28976798057556	picture	0		101	345.0	/experiments/knapen_aot/AOT/AOT_stimuli/pictures/0707_fw.png	540.9603409767151	0.8500151634216309
347	366.1231269836426	response	0	j		345.0	/experiments/knapen_aot/AOT/AOT_stimuli/pictures/0707_fw.png	541.7936999797821	
348	366.1397831439972	picture	0		115	346.0	/experiments/knapen_aot/AOT/AOT_stimuli/pictures/1526_fw.png	541.8103561401367	0.966627836227417
348	367.08993196487427	response	0	j		346.0	/experiments/knapen_aot/AOT/AOT_stimuli/pictures/1526_fw.png	542.7605049610138	
349	367.1064109802246	picture	0		105	347.0	/experiments/knapen_aot/AOT/AOT_stimuli/pictures/0334_fw.png	542.7769839763641	0.8833801746368408
349	367.97316694259644	response	0	j		347.0	/experiments/knapen_aot/AOT/AOT_stimuli/pictures/0334_fw.png	543.643739938736	
350	367.98979115486145	picture	0		112	348.0	/experiments/knapen_aot/AOT/AOT_stimuli/pictures/0468_fw.png	543.660364151001	0.9416298866271973
350	368.9080910682678	response	0	j		348.0	/experiments/knapen_aot/AOT/AOT_stimuli/pictures/0468_fw.png	544.5786640644073	
351	368.93142104148865	picture	0		132	349.0	/experiments/knapen_aot/AOT/AOT_stimuli/pictures/1007_fw.png	544.6019940376282	1.1083340644836426
351	370.0232090950012	response	0	k		349.0	/experiments/knapen_aot/AOT/AOT_stimuli/pictures/1007_fw.png	545.6937820911407	
352	370.0397551059723	picture	0		105	350.0	/experiments/knapen_aot/AOT/AOT_stimuli/pictures/2148_fw.png	545.7103281021118	0.8843779563903809
352	370.8998010158539	response	0	j		350.0	/experiments/knapen_aot/AOT/AOT_stimuli/pictures/2148_fw.png	546.5703740119934	
353	370.92413306236267	picture	0		114	351.0	/experiments/knapen_aot/AOT/AOT_stimuli/pictures/1405_fw.png	546.5947060585022	0.9583399295806885
353	371.86495995521545	response	0	k		351.0	/experiments/knapen_aot/AOT/AOT_stimuli/pictures/1405_fw.png	547.535532951355	
354	371.88247299194336	picture	0		129	352.0	/experiments/knapen_aot/AOT/AOT_stimuli/pictures/0147_fw.png	547.5530459880829	1.0832850933074951
354	372.94817996025085	response	0	j		352.0	/experiments/knapen_aot/AOT/AOT_stimuli/pictures/0147_fw.png	548.6187529563904	
355	372.96575808525085	picture	0		118	353.0	/experiments/knapen_aot/AOT/AOT_stimuli/pictures/0032_fw.png	548.6363310813904	0.9906840324401855
355	373.9398729801178	response	0	j		353.0	/experiments/knapen_aot/AOT/AOT_stimuli/pictures/0032_fw.png	549.6104459762573	
356	373.95644211769104	picture	0		124	354.0	/experiments/knapen_aot/AOT/AOT_stimuli/pictures/0105_fw.png	549.6270151138306	1.0416259765625
356	374.98149514198303	response	0	k		354.0	/experiments/knapen_aot/AOT/AOT_stimuli/pictures/0105_fw.png	550.6520681381226	
357	374.99806809425354	picture	0		97	355.0	/experiments/knapen_aot/AOT/AOT_stimuli/pictures/0075_fw.png	550.6686410903931	0.8169829845428467
357	375.79816794395447	response	0	k		355.0	/experiments/knapen_aot/AOT/AOT_stimuli/pictures/0075_fw.png	551.468740940094	
358	375.8150510787964	picture	0		109	356.0	/experiments/knapen_aot/AOT/AOT_stimuli/pictures/0678_fw.png	551.4856240749359	0.9165558815002441
358	376.7149429321289	response	0	k		356.0	/experiments/knapen_aot/AOT/AOT_stimuli/pictures/0678_fw.png	552.3855159282684	
359	376.73160696029663	picture	0		113	357.0	/experiments/knapen_aot/AOT/AOT_stimuli/pictures/1874_fw.png	552.4021799564362	0.9498159885406494
359	377.6648049354553	response	0	k		357.0	/experiments/knapen_aot/AOT/AOT_stimuli/pictures/1874_fw.png	553.3353779315948	
360	377.6814229488373	picture	0		82	358.0	/experiments/knapen_aot/AOT/AOT_stimuli/pictures/0107_fw.png	553.3519959449768	0.6917450428009033
360	378.3564691543579	response	0	k		358.0	/experiments/knapen_aot/AOT/AOT_stimuli/pictures/0107_fw.png	554.0270421504974	
361	378.3731679916382	picture	0		119	359.0	/experiments/knapen_aot/AOT/AOT_stimuli/pictures/1545_fw.png	554.0437409877777	0.9998819828033447
361	379.3564441204071	response	0	k		359.0	/experiments/knapen_aot/AOT/AOT_stimuli/pictures/1545_fw.png	555.0270171165466	
362	379.3730499744415	stim	0		640			555.043622970581	5.341572999954224
362	380.54805612564087	response	0	k				556.2186291217804	
362	384.7017271518707	response	0	space				560.3723001480103	
