trial_nr	onset	event_type	phase	response	nr_frames	picture_index	picture_file	onset_abs	duration
0	0.15978193283081055	stim	0		591			61.27755069732666	4.110698699951172
0	4.256927251815796	response	0	space				65.37469601631165	
2	4.270480632781982	picture	0		295	0.0	/experiments/knapen_AOT/AOT_stimuli/pictures/0135_fw.png	65.38824939727783	2.063077211380005
2	6.318519115447998	response	0	k		0.0	/experiments/knapen_AOT/AOT_stimuli/pictures/0135_fw.png	67.43628787994385	
3	6.333557844161987	picture	0		104	1.0	/experiments/knapen_AOT/AOT_stimuli/pictures/0807_fw.png	67.45132660865784	0.7279210090637207
3	7.04829478263855	response	0	k		1.0	/experiments/knapen_AOT/AOT_stimuli/pictures/0807_fw.png	68.1660635471344	
4	7.061478853225708	picture	0		126	2.0	/experiments/knapen_AOT/AOT_stimuli/pictures/0984_fw.png	68.17924761772156	0.8759346008300781
4	7.929646015167236	response	0	k		2.0	/experiments/knapen_AOT/AOT_stimuli/pictures/0984_fw.png	69.04741477966309	
5	7.937413454055786	picture	0		119	3.0	/experiments/knapen_AOT/AOT_stimuli/pictures/2118_fw.png	69.05518221855164	0.832632303237915
5	8.750683546066284	response	0	j		3.0	/experiments/knapen_AOT/AOT_stimuli/pictures/2118_fw.png	69.86845231056213	
6	8.770045757293701	picture	0		166	4.0	/experiments/knapen_AOT/AOT_stimuli/pictures/0442_fw.png	69.88781452178955	1.1596965789794922
6	9.917020320892334	response	0	k		4.0	/experiments/knapen_AOT/AOT_stimuli/pictures/0442_fw.png	71.03478908538818	
7	9.929742336273193	picture	0		190	5.0	/experiments/knapen_AOT/AOT_stimuli/pictures/0966_fw.png	71.04751110076904	1.3271255493164062
7	11.242908954620361	response	0	k		5.0	/experiments/knapen_AOT/AOT_stimuli/pictures/0966_fw.png	72.36067771911621	
8	11.2568678855896	picture	0		191	6.0	/experiments/knapen_AOT/AOT_stimuli/pictures/1850_fw.png	72.37463665008545	1.3264737129211426
8	12.57576036453247	response	0	k		6.0	/experiments/knapen_AOT/AOT_stimuli/pictures/1850_fw.png	73.69352912902832	
9	12.583341598510742	picture	0		183	7.0	/experiments/knapen_AOT/AOT_stimuli/pictures/2090_fw.png	73.70111036300659	1.277578353881836
9	13.846584796905518	response	0	k		7.0	/experiments/knapen_AOT/AOT_stimuli/pictures/2090_fw.png	74.96435356140137	
10	13.860919952392578	picture	0		231	8.0	/experiments/knapen_AOT/AOT_stimuli/pictures/1061_fw.png	74.97868871688843	1.6102111339569092
10	15.458024024963379	response	0	k		8.0	/experiments/knapen_AOT/AOT_stimuli/pictures/1061_fw.png	76.57579278945923	
11	15.471131086349487	picture	0		128	9.0	/experiments/knapen_AOT/AOT_stimuli/pictures/1958_fw.png	76.58889985084534	0.9031097888946533
11	16.360724925994873	response	0	j		9.0	/experiments/knapen_AOT/AOT_stimuli/pictures/1958_fw.png	77.47849369049072	
12	16.37424087524414	picture	0		164	10.0	/experiments/knapen_AOT/AOT_stimuli/pictures/0070_fw.png	77.49200963973999	1.1462624073028564
12	17.506978750228882	response	0	j		10.0	/experiments/knapen_AOT/AOT_stimuli/pictures/0070_fw.png	78.62474751472473	
13	17.520503282546997	picture	0		174	11.0	/experiments/knapen_AOT/AOT_stimuli/pictures/1851_fw.png	78.63827204704285	1.2145118713378906
13	18.72123885154724	response	0	j		11.0	/experiments/knapen_AOT/AOT_stimuli/pictures/1851_fw.png	79.83900761604309	
14	18.735015153884888	picture	0		111	12.0	/experiments/knapen_AOT/AOT_stimuli/pictures/0888_fw.png	79.85278391838074	0.778057336807251
14	19.499762058258057	response	0	j		12.0	/experiments/knapen_AOT/AOT_stimuli/pictures/0888_fw.png	80.6175308227539	
15	19.51307249069214	picture	0		120	13.0	/experiments/knapen_AOT/AOT_stimuli/pictures/0432_fw.png	80.63084125518799	0.8403074741363525
15	20.334190130233765	response	0	k		13.0	/experiments/knapen_AOT/AOT_stimuli/pictures/0432_fw.png	81.45195889472961	
16	20.35337996482849	picture	0		122	14.0	/experiments/knapen_AOT/AOT_stimuli/pictures/1343_fw.png	81.47114872932434	0.8481721878051758
16	21.19401216506958	response	0	j		14.0	/experiments/knapen_AOT/AOT_stimuli/pictures/1343_fw.png	82.31178092956543	
17	21.201552152633667	picture	0		112	15.0	/experiments/knapen_AOT/AOT_stimuli/pictures/1362_fw.png	82.31932091712952	0.7774224281311035
17	21.97125768661499	response	0	j		15.0	/experiments/knapen_AOT/AOT_stimuli/pictures/1362_fw.png	83.08902645111084	
18	21.97897458076477	picture	0		101	16.0	/experiments/knapen_AOT/AOT_stimuli/pictures/1352_fw.png	83.09674334526062	0.7077186107635498
18	22.673591375350952	response	0	k		16.0	/experiments/knapen_AOT/AOT_stimuli/pictures/1352_fw.png	83.7913601398468	
19	22.68669319152832	picture	0		159	17.0	/experiments/knapen_AOT/AOT_stimuli/pictures/0876_fw.png	83.80446195602417	1.1054627895355225
19	23.784042358398438	response	0	j		17.0	/experiments/knapen_AOT/AOT_stimuli/pictures/0876_fw.png	84.90181112289429	
20	23.792155981063843	picture	0		92	18.0	/experiments/knapen_AOT/AOT_stimuli/pictures/1977_fw.png	84.90992474555969	0.64422607421875
20	24.423577308654785	response	0	j		18.0	/experiments/knapen_AOT/AOT_stimuli/pictures/1977_fw.png	85.54134607315063	
21	24.436382055282593	picture	0		125	19.0	/experiments/knapen_AOT/AOT_stimuli/pictures/1700_fw.png	85.55415081977844	0.8751237392425537
21	25.298500299453735	response	0	j		19.0	/experiments/knapen_AOT/AOT_stimuli/pictures/1700_fw.png	86.41626906394958	
22	25.311505794525146	picture	0		92	20.0	/experiments/knapen_AOT/AOT_stimuli/pictures/0780_fw.png	86.429274559021	0.6469738483428955
22	25.94435954093933	response	0	j		20.0	/experiments/knapen_AOT/AOT_stimuli/pictures/0780_fw.png	87.06212830543518	
23	25.958479642868042	picture	0		88	21.0	/experiments/knapen_AOT/AOT_stimuli/pictures/0942_fw.png	87.07624840736389	0.6248939037322998
23	26.575692415237427	response	0	j		21.0	/experiments/knapen_AOT/AOT_stimuli/pictures/0942_fw.png	87.69346117973328	
24	26.583373546600342	picture	0		87	22.0	/experiments/knapen_AOT/AOT_stimuli/pictures/1048_fw.png	87.70114231109619	0.6034078598022461
24	27.174335479736328	response	0	j		22.0	/experiments/knapen_AOT/AOT_stimuli/pictures/1048_fw.png	88.29210424423218	
25	27.186781406402588	picture	0		99	23.0	/experiments/knapen_AOT/AOT_stimuli/pictures/0383_fw.png	88.30455017089844	0.6889042854309082
25	27.867558240890503	response	0	j		23.0	/experiments/knapen_AOT/AOT_stimuli/pictures/0383_fw.png	88.98532700538635	
26	27.875685691833496	picture	0		115	24.0	/experiments/knapen_AOT/AOT_stimuli/pictures/1742_fw.png	88.99345445632935	0.8039605617523193
26	28.666521310806274	response	0	k		24.0	/experiments/knapen_AOT/AOT_stimuli/pictures/1742_fw.png	89.78429007530212	
27	28.679646253585815	picture	0		108	25.0	/experiments/knapen_AOT/AOT_stimuli/pictures/0082_fw.png	89.79741501808167	0.7567980289459229
27	29.42369771003723	response	0	k		25.0	/experiments/knapen_AOT/AOT_stimuli/pictures/0082_fw.png	90.54146647453308	
28	29.43644428253174	picture	0		95	26.0	/experiments/knapen_AOT/AOT_stimuli/pictures/1677_fw.png	90.55421304702759	0.6668012142181396
28	30.090285539627075	response	0	j		26.0	/experiments/knapen_AOT/AOT_stimuli/pictures/1677_fw.png	91.20805430412292	
29	30.103245496749878	picture	0		95	27.0	/experiments/knapen_AOT/AOT_stimuli/pictures/0533_fw.png	91.22101426124573	0.6671125888824463
29	30.751501083374023	response	0	j		27.0	/experiments/knapen_AOT/AOT_stimuli/pictures/0533_fw.png	91.86926984786987	
30	30.770358085632324	picture	0		151	28.0	/experiments/knapen_AOT/AOT_stimuli/pictures/0932_fw.png	91.88812685012817	1.0492753982543945
30	31.811975717544556	response	0	k		28.0	/experiments/knapen_AOT/AOT_stimuli/pictures/0932_fw.png	92.9297444820404	
31	31.81963348388672	picture	0		106	29.0	/experiments/knapen_AOT/AOT_stimuli/pictures/1191_fw.png	92.93740224838257	0.7360429763793945
31	32.54321789741516	response	0	j		29.0	/experiments/knapen_AOT/AOT_stimuli/pictures/1191_fw.png	93.66098666191101	
32	32.55567646026611	picture	0		108	30.0	/experiments/knapen_AOT/AOT_stimuli/pictures/0035_fw.png	93.67344522476196	0.7499659061431885
32	33.2980055809021	response	0	k		30.0	/experiments/knapen_AOT/AOT_stimuli/pictures/0035_fw.png	94.41577434539795	
33	33.3056423664093	picture	0		108	31.0	/experiments/knapen_AOT/AOT_stimuli/pictures/1398_fw.png	94.42341113090515	0.7560806274414062
33	34.04868197441101	response	0	j		31.0	/experiments/knapen_AOT/AOT_stimuli/pictures/1398_fw.png	95.16645073890686	
34	34.06172299385071	picture	0		95	32.0	/experiments/knapen_AOT/AOT_stimuli/pictures/1626_fw.png	95.17949175834656	0.666456937789917
34	34.71531319618225	response	0	j		32.0	/experiments/knapen_AOT/AOT_stimuli/pictures/1626_fw.png	95.8330819606781	
35	34.728179931640625	picture	0		111	33.0	/experiments/knapen_AOT/AOT_stimuli/pictures/1336_fw.png	95.84594869613647	0.7724459171295166
35	35.48688316345215	response	0	j		33.0	/experiments/knapen_AOT/AOT_stimuli/pictures/1336_fw.png	96.604651927948	
36	35.50062584877014	picture	0		116	34.0	/experiments/knapen_AOT/AOT_stimuli/pictures/1135_fw.png	96.61839461326599	0.8248946666717529
36	36.31245183944702	response	0	k		34.0	/experiments/knapen_AOT/AOT_stimuli/pictures/1135_fw.png	97.43022060394287	
37	36.325520515441895	picture	0		131	35.0	/experiments/knapen_AOT/AOT_stimuli/pictures/1755_fw.png	97.44328927993774	0.9108719825744629
37	37.228326082229614	response	0	k		35.0	/experiments/knapen_AOT/AOT_stimuli/pictures/1755_fw.png	98.34609484672546	
38	37.23639249801636	picture	0		100	36.0	/experiments/knapen_AOT/AOT_stimuli/pictures/1526_fw.png	98.3541612625122	0.7004354000091553
38	37.923861265182495	response	0	k		36.0	/experiments/knapen_AOT/AOT_stimuli/pictures/1526_fw.png	99.04163002967834	
39	37.93682789802551	picture	0		98	37.0	/experiments/knapen_AOT/AOT_stimuli/pictures/1920_fw.png	99.05459666252136	0.6885170936584473
39	38.61102890968323	response	0	k		37.0	/experiments/knapen_AOT/AOT_stimuli/pictures/1920_fw.png	99.72879767417908	
40	38.62534499168396	picture	0		98	38.0	/experiments/knapen_AOT/AOT_stimuli/pictures/1010_fw.png	99.74311375617981	0.6863365173339844
40	39.2989284992218	response	0	k		38.0	/experiments/knapen_AOT/AOT_stimuli/pictures/1010_fw.png	100.41669726371765	
41	39.311681509017944	picture	0		113	39.0	/experiments/knapen_AOT/AOT_stimuli/pictures/1433_fw.png	100.4294502735138	0.7917132377624512
41	40.09064269065857	response	0	j		39.0	/experiments/knapen_AOT/AOT_stimuli/pictures/1433_fw.png	101.20841145515442	
42	40.103394746780396	picture	0		191	40.0	/experiments/knapen_AOT/AOT_stimuli/pictures/1821_fw.png	101.22116351127625	1.3340697288513184
42	41.42419505119324	response	0	j		40.0	/experiments/knapen_AOT/AOT_stimuli/pictures/1821_fw.png	102.54196381568909	
43	41.437464475631714	picture	0		113	41.0	/experiments/knapen_AOT/AOT_stimuli/pictures/0256_fw.png	102.55523324012756	0.7907698154449463
43	42.21558690071106	response	0	j		41.0	/experiments/knapen_AOT/AOT_stimuli/pictures/0256_fw.png	103.33335566520691	
44	42.22823429107666	picture	0		123	42.0	/experiments/knapen_AOT/AOT_stimuli/pictures/0008_fw.png	103.34600305557251	0.862025260925293
44	43.07607817649841	response	0	k		42.0	/experiments/knapen_AOT/AOT_stimuli/pictures/0008_fw.png	104.19384694099426	
45	43.09025955200195	picture	0		144	43.0	/experiments/knapen_AOT/AOT_stimuli/pictures/1408_fw.png	104.2080283164978	1.0063269138336182
45	44.08374238014221	response	0	j		43.0	/experiments/knapen_AOT/AOT_stimuli/pictures/1408_fw.png	105.20151114463806	
46	44.09658646583557	picture	0		171	44.0	/experiments/knapen_AOT/AOT_stimuli/pictures/0299_fw.png	105.21435523033142	1.1954681873321533
46	45.27070760726929	response	0	k		44.0	/experiments/knapen_AOT/AOT_stimuli/pictures/0299_fw.png	106.38847637176514	
47	45.292054653167725	picture	0		152	45.0	/experiments/knapen_AOT/AOT_stimuli/pictures/0664_fw.png	106.40982341766357	1.061943769454956
47	46.33464002609253	response	0	k		45.0	/experiments/knapen_AOT/AOT_stimuli/pictures/0664_fw.png	107.45240879058838	
48	46.35399842262268	picture	0		138	46.0	/experiments/knapen_AOT/AOT_stimuli/pictures/0730_fw.png	107.47176718711853	0.9586210250854492
48	47.30543565750122	response	0	k		46.0	/experiments/knapen_AOT/AOT_stimuli/pictures/0730_fw.png	108.42320442199707	
49	47.31261944770813	picture	0		136	47.0	/experiments/knapen_AOT/AOT_stimuli/pictures/0800_fw.png	108.43038821220398	0.9510951042175293
49	48.25053906440735	response	0	k		47.0	/experiments/knapen_AOT/AOT_stimuli/pictures/0800_fw.png	109.3683078289032	
50	48.26371455192566	picture	0		114	48.0	/experiments/knapen_AOT/AOT_stimuli/pictures/1441_fw.png	109.38148331642151	0.7916154861450195
50	49.04772663116455	response	0	k		48.0	/experiments/knapen_AOT/AOT_stimuli/pictures/1441_fw.png	110.1654953956604	
51	49.05533003807068	picture	0		122	49.0	/experiments/knapen_AOT/AOT_stimuli/pictures/0869_fw.png	110.17309880256653	0.8536944389343262
51	49.895352602005005	response	0	k		49.0	/experiments/knapen_AOT/AOT_stimuli/pictures/0869_fw.png	111.01312136650085	
52	49.909024477005005	picture	0		144	50.0	/experiments/knapen_AOT/AOT_stimuli/pictures/0109_fw.png	111.02679324150085	1.0012826919555664
52	50.90240025520325	response	0	j		50.0	/experiments/knapen_AOT/AOT_stimuli/pictures/0109_fw.png	112.0201690196991	
53	50.91030716896057	picture	0		107	51.0	/experiments/knapen_AOT/AOT_stimuli/pictures/1103_fw.png	112.02807593345642	0.7558717727661133
53	51.6463508605957	response	0	j		51.0	/experiments/knapen_AOT/AOT_stimuli/pictures/1103_fw.png	112.76411962509155	
54	51.666178941726685	picture	0		113	52.0	/experiments/knapen_AOT/AOT_stimuli/pictures/1632_fw.png	112.78394770622253	0.7923417091369629
54	52.44389343261719	response	0	k		52.0	/experiments/knapen_AOT/AOT_stimuli/pictures/1632_fw.png	113.56166219711304	
55	52.45852065086365	picture	0		102	53.0	/experiments/knapen_AOT/AOT_stimuli/pictures/2123_fw.png	113.5762894153595	0.7087440490722656
55	53.15970277786255	response	0	j		53.0	/experiments/knapen_AOT/AOT_stimuli/pictures/2123_fw.png	114.2774715423584	
56	53.16726469993591	picture	0		106	54.0	/experiments/knapen_AOT/AOT_stimuli/pictures/0106_fw.png	114.28503346443176	0.7360742092132568
56	53.89549422264099	response	0	k		54.0	/experiments/knapen_AOT/AOT_stimuli/pictures/0106_fw.png	115.01326298713684	
57	53.90333890914917	picture	0		227	55.0	/experiments/knapen_AOT/AOT_stimuli/pictures/0389_fw.png	115.02110767364502	1.5825295448303223
57	55.4729585647583	response	0	j		55.0	/experiments/knapen_AOT/AOT_stimuli/pictures/0389_fw.png	116.59072732925415	
58	55.48586845397949	picture	0		98	56.0	/experiments/knapen_AOT/AOT_stimuli/pictures/2156_fw.png	116.60363721847534	0.6812722682952881
58	56.159770250320435	response	0	j		56.0	/experiments/knapen_AOT/AOT_stimuli/pictures/2156_fw.png	117.27753901481628	
59	56.16714072227478	picture	0		90	57.0	/experiments/knapen_AOT/AOT_stimuli/pictures/0610_fw.png	117.28490948677063	0.6304843425750732
59	56.78467392921448	response	0	j		57.0	/experiments/knapen_AOT/AOT_stimuli/pictures/0610_fw.png	117.90244269371033	
60	56.79762506484985	picture	0		141	58.0	/experiments/knapen_AOT/AOT_stimuli/pictures/0313_fw.png	117.9153938293457	0.9805643558502197
60	57.770060539245605	response	0	k		58.0	/experiments/knapen_AOT/AOT_stimuli/pictures/0313_fw.png	118.88782930374146	
61	57.77818942070007	picture	0		117	59.0	/experiments/knapen_AOT/AOT_stimuli/pictures/0172_fw.png	118.89595818519592	0.8187484741210938
61	58.58386945724487	response	0	j		59.0	/experiments/knapen_AOT/AOT_stimuli/pictures/0172_fw.png	119.70163822174072	
62	58.59693789482117	picture	0		98	60.0	/experiments/knapen_AOT/AOT_stimuli/pictures/1699_fw.png	119.71470665931702	0.680652379989624
62	59.27041006088257	response	0	j		60.0	/experiments/knapen_AOT/AOT_stimuli/pictures/1699_fw.png	120.38817882537842	
63	59.27759027481079	picture	0		81	61.0	/experiments/knapen_AOT/AOT_stimuli/pictures/0117_fw.png	120.39535903930664	0.5631935596466064
63	59.83351492881775	response	0	j		61.0	/experiments/knapen_AOT/AOT_stimuli/pictures/0117_fw.png	120.9512836933136	
64	59.8407838344574	picture	0		108	62.0	/experiments/knapen_AOT/AOT_stimuli/pictures/0926_fw.png	120.95855259895325	0.756516695022583
64	60.58367109298706	response	0	j		62.0	/experiments/knapen_AOT/AOT_stimuli/pictures/0926_fw.png	121.70143985748291	
65	60.59730052947998	picture	0		119	63.0	/experiments/knapen_AOT/AOT_stimuli/pictures/0864_fw.png	121.71506929397583	0.8337032794952393
65	61.422868490219116	response	0	k		63.0	/experiments/knapen_AOT/AOT_stimuli/pictures/0864_fw.png	122.54063725471497	
66	61.43100380897522	picture	0		106	64.0	/experiments/knapen_AOT/AOT_stimuli/pictures/0562_fw.png	122.54877257347107	0.7417106628417969
66	62.15974760055542	response	0	j		64.0	/experiments/knapen_AOT/AOT_stimuli/pictures/0562_fw.png	123.27751636505127	
67	62.17271447181702	picture	0		88	65.0	/experiments/knapen_AOT/AOT_stimuli/pictures/1248_fw.png	123.29048323631287	0.6123685836791992
67	62.77737998962402	response	0	j		65.0	/experiments/knapen_AOT/AOT_stimuli/pictures/1248_fw.png	123.89514875411987	
68	62.785083055496216	picture	0		129	66.0	/experiments/knapen_AOT/AOT_stimuli/pictures/1715_fw.png	123.90285181999207	0.8959650993347168
68	63.67282772064209	response	0	k		66.0	/experiments/knapen_AOT/AOT_stimuli/pictures/1715_fw.png	124.79059648513794	
69	63.68104815483093	picture	0		163	67.0	/experiments/knapen_AOT/AOT_stimuli/pictures/1828_fw.png	124.79881691932678	1.137758493423462
69	64.79888033866882	response	0	k		67.0	/experiments/knapen_AOT/AOT_stimuli/pictures/1828_fw.png	125.91664910316467	
70	64.8188066482544	picture	0		92	68.0	/experiments/knapen_AOT/AOT_stimuli/pictures/0089_fw.png	125.93657541275024	0.6457734107971191
70	65.45100498199463	response	0	j		68.0	/experiments/knapen_AOT/AOT_stimuli/pictures/0089_fw.png	126.56877374649048	
71	65.46458005905151	picture	0		108	69.0	/experiments/knapen_AOT/AOT_stimuli/pictures/0804_fw.png	126.58234882354736	0.7577323913574219
71	66.2091338634491	response	0	k		69.0	/experiments/knapen_AOT/AOT_stimuli/pictures/0804_fw.png	127.32690262794495	
72	66.22231245040894	picture	0		174	70.0	/experiments/knapen_AOT/AOT_stimuli/pictures/0177_fw.png	127.34008121490479	1.2087640762329102
72	67.42305707931519	response	0	j		70.0	/experiments/knapen_AOT/AOT_stimuli/pictures/0177_fw.png	128.54082584381104	
73	67.43107652664185	picture	0		117	71.0	/experiments/knapen_AOT/AOT_stimuli/pictures/0779_fw.png	128.5488452911377	0.8124179840087891
73	68.23554468154907	response	0	k		71.0	/experiments/knapen_AOT/AOT_stimuli/pictures/0779_fw.png	129.35331344604492	
74	68.24349451065063	picture	0		87	72.0	/experiments/knapen_AOT/AOT_stimuli/pictures/0849_fw.png	129.36126327514648	0.6042890548706055
74	68.83969235420227	response	0	j		72.0	/experiments/knapen_AOT/AOT_stimuli/pictures/0849_fw.png	129.95746111869812	
75	68.84778356552124	picture	0		136	73.0	/experiments/knapen_AOT/AOT_stimuli/pictures/0731_fw.png	129.9655523300171	0.9444313049316406
75	69.78495001792908	response	0	k		73.0	/experiments/knapen_AOT/AOT_stimuli/pictures/0731_fw.png	130.90271878242493	
76	69.79221487045288	picture	0		118	74.0	/experiments/knapen_AOT/AOT_stimuli/pictures/0326_fw.png	130.90998363494873	0.8188197612762451
76	70.60345387458801	response	0	k		74.0	/experiments/knapen_AOT/AOT_stimuli/pictures/0326_fw.png	131.72122263908386	
77	70.61103463172913	picture	0		111	75.0	/experiments/knapen_AOT/AOT_stimuli/pictures/0246_fw.png	131.72880339622498	0.7715508937835693
77	71.37463116645813	response	0	j		75.0	/experiments/knapen_AOT/AOT_stimuli/pictures/0246_fw.png	132.49239993095398	
78	71.3825855255127	picture	0		121	76.0	/experiments/knapen_AOT/AOT_stimuli/pictures/0093_fw.png	132.50035429000854	0.8400068283081055
78	72.21489143371582	response	0	k		76.0	/experiments/knapen_AOT/AOT_stimuli/pictures/0093_fw.png	133.33266019821167	
79	72.2225923538208	picture	0		99	77.0	/experiments/knapen_AOT/AOT_stimuli/pictures/0828_fw.png	133.34036111831665	0.6879923343658447
79	72.90251421928406	response	0	j		77.0	/experiments/knapen_AOT/AOT_stimuli/pictures/0828_fw.png	134.0202829837799	
80	72.91058468818665	picture	0		100	78.0	/experiments/knapen_AOT/AOT_stimuli/pictures/0632_fw.png	134.0283534526825	0.7000675201416016
80	73.59153270721436	response	0	j		78.0	/experiments/knapen_AOT/AOT_stimuli/pictures/0632_fw.png	134.7093014717102	
81	73.61065220832825	picture	0		216	79.0	/experiments/knapen_AOT/AOT_stimuli/pictures/1838_fw.png	134.7284209728241	1.5005199909210205
81	75.10359168052673	response	0	k		79.0	/experiments/knapen_AOT/AOT_stimuli/pictures/1838_fw.png	136.22136044502258	
82	75.11117219924927	picture	0		117	80.0	/experiments/knapen_AOT/AOT_stimuli/pictures/0283_fw.png	136.22894096374512	0.8187005519866943
82	75.91691637039185	response	0	k		80.0	/experiments/knapen_AOT/AOT_stimuli/pictures/0283_fw.png	137.0346851348877	
83	75.92987275123596	picture	0		101	81.0	/experiments/knapen_AOT/AOT_stimuli/pictures/0424_fw.png	137.0476415157318	0.7155635356903076
83	76.6313738822937	response	0	k		81.0	/experiments/knapen_AOT/AOT_stimuli/pictures/0424_fw.png	137.74914264678955	
84	76.64543628692627	picture	0		96	82.0	/experiments/knapen_AOT/AOT_stimuli/pictures/1507_fw.png	137.76320505142212	0.6669261455535889
84	77.30493068695068	response	0	j		82.0	/experiments/knapen_AOT/AOT_stimuli/pictures/1507_fw.png	138.42269945144653	
85	77.31236243247986	picture	0		98	83.0	/experiments/knapen_AOT/AOT_stimuli/pictures/1355_fw.png	138.4301311969757	0.6811504364013672
85	77.98579668998718	response	0	j		83.0	/experiments/knapen_AOT/AOT_stimuli/pictures/1355_fw.png	139.10356545448303	
86	77.99351286888123	picture	0		101	84.0	/experiments/knapen_AOT/AOT_stimuli/pictures/2102_fw.png	139.11128163337708	0.7013883590698242
86	78.68747305870056	response	0	j		84.0	/experiments/knapen_AOT/AOT_stimuli/pictures/2102_fw.png	139.8052418231964	
87	78.69490122795105	picture	0		149	85.0	/experiments/knapen_AOT/AOT_stimuli/pictures/0826_fw.png	139.8126699924469	1.0413436889648438
87	79.72162365913391	response	0	j		85.0	/experiments/knapen_AOT/AOT_stimuli/pictures/0826_fw.png	140.83939242362976	
88	79.7362449169159	picture	0		146	86.0	/experiments/knapen_AOT/AOT_stimuli/pictures/0702_fw.png	140.85401368141174	1.02042818069458
88	80.74300909042358	response	0	k		86.0	/experiments/knapen_AOT/AOT_stimuli/pictures/0702_fw.png	141.86077785491943	
89	80.75667309761047	picture	0		92	87.0	/experiments/knapen_AOT/AOT_stimuli/pictures/1313_fw.png	141.87444186210632	0.6396362781524658
89	81.38833999633789	response	0	j		87.0	/experiments/knapen_AOT/AOT_stimuli/pictures/1313_fw.png	142.50610876083374	
90	81.39630937576294	picture	0		95	88.0	/experiments/knapen_AOT/AOT_stimuli/pictures/2162_fw.png	142.5140781402588	0.6596620082855225
90	82.04824709892273	response	0	j		88.0	/experiments/knapen_AOT/AOT_stimuli/pictures/2162_fw.png	143.16601586341858	
91	82.05597138404846	picture	0		105	89.0	/experiments/knapen_AOT/AOT_stimuli/pictures/1460_fw.png	143.1737401485443	0.7296841144561768
91	82.77744722366333	response	0	k		89.0	/experiments/knapen_AOT/AOT_stimuli/pictures/1460_fw.png	143.89521598815918	
92	82.78565549850464	picture	0		95	90.0	/experiments/knapen_AOT/AOT_stimuli/pictures/2023_fw.png	143.9034242630005	0.6582903861999512
92	83.43108987808228	response	0	j		90.0	/experiments/knapen_AOT/AOT_stimuli/pictures/2023_fw.png	144.54885864257812	
93	83.44394588470459	picture	0		109	91.0	/experiments/knapen_AOT/AOT_stimuli/pictures/1761_fw.png	144.56171464920044	0.7581264972686768
93	84.1940770149231	response	0	k		91.0	/experiments/knapen_AOT/AOT_stimuli/pictures/1761_fw.png	145.31184577941895	
94	84.20207238197327	picture	0		100	92.0	/experiments/knapen_AOT/AOT_stimuli/pictures/0028_fw.png	145.31984114646912	0.6948599815368652
94	84.88860011100769	response	0	j		92.0	/experiments/knapen_AOT/AOT_stimuli/pictures/0028_fw.png	146.00636887550354	
95	84.89693236351013	picture	0		112	93.0	/experiments/knapen_AOT/AOT_stimuli/pictures/1068_fw.png	146.01470112800598	0.7837238311767578
95	85.66731524467468	response	0	j		93.0	/experiments/knapen_AOT/AOT_stimuli/pictures/1068_fw.png	146.78508400917053	
96	85.68065619468689	picture	0		140	94.0	/experiments/knapen_AOT/AOT_stimuli/pictures/1523_fw.png	146.79842495918274	0.9798827171325684
96	86.64674544334412	response	0	k		94.0	/experiments/knapen_AOT/AOT_stimuli/pictures/1523_fw.png	147.76451420783997	
97	86.66053891181946	picture	0		118	95.0	/experiments/knapen_AOT/AOT_stimuli/pictures/1550_fw.png	147.7783076763153	0.8192610740661621
97	87.47251081466675	response	0	k		95.0	/experiments/knapen_AOT/AOT_stimuli/pictures/1550_fw.png	148.5902795791626	
98	87.47979998588562	picture	0		142	96.0	/experiments/knapen_AOT/AOT_stimuli/pictures/0964_fw.png	148.59756875038147	0.9921548366546631
98	88.45900249481201	response	0	j		96.0	/experiments/knapen_AOT/AOT_stimuli/pictures/0964_fw.png	149.57677125930786	
99	88.47195482254028	picture	0		105	97.0	/experiments/knapen_AOT/AOT_stimuli/pictures/1483_fw.png	149.58972358703613	0.7298195362091064
99	89.19426774978638	response	0	j		97.0	/experiments/knapen_AOT/AOT_stimuli/pictures/1483_fw.png	150.31203651428223	
100	89.20177435874939	picture	0		113	98.0	/experiments/knapen_AOT/AOT_stimuli/pictures/0448_fw.png	150.31954312324524	0.7852294445037842
100	89.97859692573547	response	0	j		98.0	/experiments/knapen_AOT/AOT_stimuli/pictures/0448_fw.png	151.09636569023132	
101	89.98700380325317	picture	0		88	99.0	/experiments/knapen_AOT/AOT_stimuli/pictures/1284_fw.png	151.10477256774902	0.6167340278625488
101	90.59040975570679	response	0	j		99.0	/experiments/knapen_AOT/AOT_stimuli/pictures/1284_fw.png	151.70817852020264	
102	90.60373783111572	picture	0		101	100.0	/experiments/knapen_AOT/AOT_stimuli/pictures/1415_fw.png	151.72150659561157	0.702599287033081
102	91.29842329025269	response	0	k		100.0	/experiments/knapen_AOT/AOT_stimuli/pictures/1415_fw.png	152.41619205474854	
103	91.3063371181488	picture	0		101	101.0	/experiments/knapen_AOT/AOT_stimuli/pictures/0149_fw.png	152.42410588264465	0.700514554977417
103	91.99951982498169	response	0	k		101.0	/experiments/knapen_AOT/AOT_stimuli/pictures/0149_fw.png	153.11728858947754	
104	92.00685167312622	picture	0		126	102.0	/experiments/knapen_AOT/AOT_stimuli/pictures/0890_fw.png	153.12462043762207	0.881739616394043
104	92.87565922737122	response	0	k		102.0	/experiments/knapen_AOT/AOT_stimuli/pictures/0890_fw.png	153.99342799186707	
105	92.88859128952026	picture	0		95	103.0	/experiments/knapen_AOT/AOT_stimuli/pictures/0171_fw.png	154.0063600540161	0.6667814254760742
105	93.54248547554016	response	0	j		103.0	/experiments/knapen_AOT/AOT_stimuli/pictures/0171_fw.png	154.660254240036	
106	93.55537271499634	picture	0		256	104.0	/experiments/knapen_AOT/AOT_stimuli/pictures/0540_fw.png	154.6731414794922	1.784414291381836
106	95.32635378837585	response	0	j		104.0	/experiments/knapen_AOT/AOT_stimuli/pictures/0540_fw.png	156.4441225528717	
107	95.33978700637817	picture	0		115	105.0	/experiments/knapen_AOT/AOT_stimuli/pictures/1726_fw.png	156.45755577087402	0.7999804019927979
107	96.12680101394653	response	0	k		105.0	/experiments/knapen_AOT/AOT_stimuli/pictures/1726_fw.png	157.24456977844238	
108	96.13976740837097	picture	0		111	106.0	/experiments/knapen_AOT/AOT_stimuli/pictures/1738_fw.png	157.25753617286682	0.771054744720459
108	96.90248847007751	response	0	k		106.0	/experiments/knapen_AOT/AOT_stimuli/pictures/1738_fw.png	158.02025723457336	
109	96.91082215309143	picture	0		94	107.0	/experiments/knapen_AOT/AOT_stimuli/pictures/0264_fw.png	158.02859091758728	0.6518819332122803
109	97.55499172210693	response	0	j		107.0	/experiments/knapen_AOT/AOT_stimuli/pictures/0264_fw.png	158.67276048660278	
110	97.56270408630371	picture	0		113	108.0	/experiments/knapen_AOT/AOT_stimuli/pictures/0622_fw.png	158.68047285079956	0.7841548919677734
110	98.3357903957367	response	0	j		108.0	/experiments/knapen_AOT/AOT_stimuli/pictures/0622_fw.png	159.45355916023254	
111	98.34685897827148	picture	0		102	109.0	/experiments/knapen_AOT/AOT_stimuli/pictures/1294_fw.png	159.46462774276733	0.7089099884033203
111	99.0484824180603	response	0	j		109.0	/experiments/knapen_AOT/AOT_stimuli/pictures/1294_fw.png	160.16625118255615	
112	99.0557689666748	picture	0		87	110.0	/experiments/knapen_AOT/AOT_stimuli/pictures/0787_fw.png	160.17353773117065	0.6107528209686279
112	99.65314435958862	response	0	j		110.0	/experiments/knapen_AOT/AOT_stimuli/pictures/0787_fw.png	160.77091312408447	
113	99.66652178764343	picture	0		141	111.0	/experiments/knapen_AOT/AOT_stimuli/pictures/1778_fw.png	160.78429055213928	0.9801325798034668
113	100.63836860656738	response	0	k		111.0	/experiments/knapen_AOT/AOT_stimuli/pictures/1778_fw.png	161.75613737106323	
114	100.6466543674469	picture	0		87	112.0	/experiments/knapen_AOT/AOT_stimuli/pictures/0853_fw.png	161.76442313194275	0.6171910762786865
114	101.25658082962036	response	0	j		112.0	/experiments/knapen_AOT/AOT_stimuli/pictures/0853_fw.png	162.3743495941162	
115	101.26384544372559	picture	0		91	113.0	/experiments/knapen_AOT/AOT_stimuli/pictures/1531_fw.png	162.38161420822144	0.6320838928222656
115	101.8885509967804	response	0	j		113.0	/experiments/knapen_AOT/AOT_stimuli/pictures/1531_fw.png	163.00631976127625	
116	101.89592933654785	picture	0		168	114.0	/experiments/knapen_AOT/AOT_stimuli/pictures/1175_fw.png	163.0136981010437	1.1671414375305176
116	103.05555272102356	response	0	k		114.0	/experiments/knapen_AOT/AOT_stimuli/pictures/1175_fw.png	164.1733214855194	
117	103.06307077407837	picture	0		139	115.0	/experiments/knapen_AOT/AOT_stimuli/pictures/0602_fw.png	164.18083953857422	0.9654824733734131
117	104.01474905014038	response	0	j		115.0	/experiments/knapen_AOT/AOT_stimuli/pictures/0602_fw.png	165.13251781463623	
118	104.02855324745178	picture	0		206	116.0	/experiments/knapen_AOT/AOT_stimuli/pictures/2010_fw.png	165.14632201194763	1.4363141059875488
118	105.45106744766235	response	0	k		116.0	/experiments/knapen_AOT/AOT_stimuli/pictures/2010_fw.png	166.5688362121582	
119	105.46486735343933	picture	0		120	117.0	/experiments/knapen_AOT/AOT_stimuli/pictures/0471_fw.png	166.58263611793518	0.8401851654052734
119	106.29296016693115	response	0	k		117.0	/experiments/knapen_AOT/AOT_stimuli/pictures/0471_fw.png	167.410728931427	
120	106.3050525188446	picture	0		185	118.0	/experiments/knapen_AOT/AOT_stimuli/pictures/0943_fw.png	167.42282128334045	1.291886806488037
120	107.5836329460144	response	0	j		118.0	/experiments/knapen_AOT/AOT_stimuli/pictures/0943_fw.png	168.70140171051025	
121	107.59693932533264	picture	0		110	119.0	/experiments/knapen_AOT/AOT_stimuli/pictures/0750_fw.png	168.7147080898285	0.7651352882385254
121	108.35475277900696	response	0	j		119.0	/experiments/knapen_AOT/AOT_stimuli/pictures/0750_fw.png	169.4725215435028	
122	108.36207461357117	picture	0		136	120.0	/experiments/knapen_AOT/AOT_stimuli/pictures/1864_fw.png	169.47984337806702	0.9434471130371094
122	109.29812526702881	response	0	j		120.0	/experiments/knapen_AOT/AOT_stimuli/pictures/1864_fw.png	170.41589403152466	
123	109.30552172660828	picture	0		102	121.0	/experiments/knapen_AOT/AOT_stimuli/pictures/0259_fw.png	170.42329049110413	0.7093162536621094
123	110.00690245628357	response	0	j		121.0	/experiments/knapen_AOT/AOT_stimuli/pictures/0259_fw.png	171.12467122077942	
124	110.01483798027039	picture	0		121	122.0	/experiments/knapen_AOT/AOT_stimuli/pictures/0733_fw.png	171.13260674476624	0.8463833332061768
124	110.84781336784363	response	0	k		122.0	/experiments/knapen_AOT/AOT_stimuli/pictures/0733_fw.png	171.96558213233948	
125	110.86122131347656	picture	0		90	123.0	/experiments/knapen_AOT/AOT_stimuli/pictures/1644_fw.png	171.9789900779724	0.6453597545623779
125	111.48707962036133	response	0	j		123.0	/experiments/knapen_AOT/AOT_stimuli/pictures/1644_fw.png	172.60484838485718	
126	111.50658106803894	picture	0		126	124.0	/experiments/knapen_AOT/AOT_stimuli/pictures/0314_fw.png	172.6243498325348	0.8822147846221924
126	112.37587928771973	response	0	j		124.0	/experiments/knapen_AOT/AOT_stimuli/pictures/0314_fw.png	173.49364805221558	
127	112.38879585266113	picture	0		102	125.0	/experiments/knapen_AOT/AOT_stimuli/pictures/0896_fw.png	173.50656461715698	0.7093687057495117
127	113.09045815467834	response	0	j		125.0	/experiments/knapen_AOT/AOT_stimuli/pictures/0896_fw.png	174.2082269191742	
128	113.09816455841064	picture	0		121	126.0	/experiments/knapen_AOT/AOT_stimuli/pictures/0940_fw.png	174.2159333229065	0.8401529788970947
128	113.930246591568	response	0	k		126.0	/experiments/knapen_AOT/AOT_stimuli/pictures/0940_fw.png	175.04801535606384	
129	113.93831753730774	picture	0		113	127.0	/experiments/knapen_AOT/AOT_stimuli/pictures/0337_fw.png	175.0560863018036	0.7844603061676025
129	114.71505784988403	response	0	j		127.0	/experiments/knapen_AOT/AOT_stimuli/pictures/0337_fw.png	175.83282661437988	
130	114.72277784347534	picture	0		129	128.0	/experiments/knapen_AOT/AOT_stimuli/pictures/1817_fw.png	175.8405466079712	0.89617919921875
130	115.61126232147217	response	0	j		128.0	/experiments/knapen_AOT/AOT_stimuli/pictures/1817_fw.png	176.72903108596802	
131	115.61895704269409	picture	0		104	129.0	/experiments/knapen_AOT/AOT_stimuli/pictures/2021_fw.png	176.73672580718994	0.7287015914916992
131	116.33458089828491	response	0	k		129.0	/experiments/knapen_AOT/AOT_stimuli/pictures/2021_fw.png	177.45234966278076	
132	116.34765863418579	picture	0		198	130.0	/experiments/knapen_AOT/AOT_stimuli/pictures/1737_fw.png	177.46542739868164	1.3748250007629395
132	117.71492838859558	response	0	k		130.0	/experiments/knapen_AOT/AOT_stimuli/pictures/1737_fw.png	178.83269715309143	
133	117.72248363494873	picture	0		107	131.0	/experiments/knapen_AOT/AOT_stimuli/pictures/0841_fw.png	178.84025239944458	0.7495143413543701
133	118.45942831039429	response	0	j		131.0	/experiments/knapen_AOT/AOT_stimuli/pictures/0841_fw.png	179.57719707489014	
134	118.4719979763031	picture	0		106	132.0	/experiments/knapen_AOT/AOT_stimuli/pictures/1140_fw.png	179.58976674079895	0.7371299266815186
134	119.20133471488953	response	0	k		132.0	/experiments/knapen_AOT/AOT_stimuli/pictures/1140_fw.png	180.31910347938538	
135	119.20912790298462	picture	0		156	133.0	/experiments/knapen_AOT/AOT_stimuli/pictures/2027_fw.png	180.32689666748047	1.083486557006836
135	120.27885937690735	response	0	k		133.0	/experiments/knapen_AOT/AOT_stimuli/pictures/2027_fw.png	181.3966281414032	
136	120.29261445999146	picture	0		99	134.0	/experiments/knapen_AOT/AOT_stimuli/pictures/0579_fw.png	181.4103832244873	0.6872913837432861
136	120.97178268432617	response	0	k		134.0	/experiments/knapen_AOT/AOT_stimuli/pictures/0579_fw.png	182.08955144882202	
137	120.97990584373474	picture	0		92	135.0	/experiments/knapen_AOT/AOT_stimuli/pictures/1215_fw.png	182.0976746082306	0.658698558807373
137	121.62467336654663	response	0	j		135.0	/experiments/knapen_AOT/AOT_stimuli/pictures/1215_fw.png	182.74244213104248	
138	121.63860440254211	picture	0		107	136.0	/experiments/knapen_AOT/AOT_stimuli/pictures/0376_fw.png	182.75637316703796	0.7501037120819092
138	122.37601971626282	response	0	k		136.0	/experiments/knapen_AOT/AOT_stimuli/pictures/0376_fw.png	183.49378848075867	
139	122.38870811462402	picture	0		93	137.0	/experiments/knapen_AOT/AOT_stimuli/pictures/1807_fw.png	183.50647687911987	0.6471452713012695
139	123.02762222290039	response	0	j		137.0	/experiments/knapen_AOT/AOT_stimuli/pictures/1807_fw.png	184.14539098739624	
140	123.0358533859253	picture	0		124	138.0	/experiments/knapen_AOT/AOT_stimuli/pictures/1563_fw.png	184.15362215042114	0.8670065402984619
140	123.88897895812988	response	0	k		138.0	/experiments/knapen_AOT/AOT_stimuli/pictures/1563_fw.png	185.00674772262573	
141	123.90285992622375	picture	0		100	139.0	/experiments/knapen_AOT/AOT_stimuli/pictures/1196_fw.png	185.0206286907196	0.7018017768859863
141	124.59072923660278	response	0	j		139.0	/experiments/knapen_AOT/AOT_stimuli/pictures/1196_fw.png	185.70849800109863	
142	124.60466170310974	picture	0		104	140.0	/experiments/knapen_AOT/AOT_stimuli/pictures/0606_fw.png	185.7224304676056	0.7224946022033691
142	125.31953477859497	response	0	j		140.0	/experiments/knapen_AOT/AOT_stimuli/pictures/0606_fw.png	186.43730354309082	
143	125.32715630531311	picture	0		89	141.0	/experiments/knapen_AOT/AOT_stimuli/pictures/1202_fw.png	186.44492506980896	0.624842643737793
143	125.9373209476471	response	0	k		141.0	/experiments/knapen_AOT/AOT_stimuli/pictures/1202_fw.png	187.05508971214294	
144	125.9519989490509	picture	0		122	142.0	/experiments/knapen_AOT/AOT_stimuli/pictures/1770_fw.png	187.06976771354675	0.9860138893127441
144	126.92353248596191	response	0	k		142.0	/experiments/knapen_AOT/AOT_stimuli/pictures/1770_fw.png	188.04130125045776	
145	126.93801283836365	picture	0		115	143.0	/experiments/knapen_AOT/AOT_stimuli/pictures/0798_fw.png	188.0557816028595	0.805229902267456
145	127.72990798950195	response	0	k		143.0	/experiments/knapen_AOT/AOT_stimuli/pictures/0798_fw.png	188.8476767539978	
146	127.7432427406311	picture	0		87	144.0	/experiments/knapen_AOT/AOT_stimuli/pictures/1491_fw.png	188.86101150512695	0.6044044494628906
146	128.33999395370483	response	0	j		144.0	/experiments/knapen_AOT/AOT_stimuli/pictures/1491_fw.png	189.45776271820068	
147	128.347647190094	picture	0		91	145.0	/experiments/knapen_AOT/AOT_stimuli/pictures/1232_fw.png	189.46541595458984	0.6384589672088623
147	128.97221684455872	response	0	j		145.0	/experiments/knapen_AOT/AOT_stimuli/pictures/1232_fw.png	190.08998560905457	
148	128.98610615730286	picture	0		95	146.0	/experiments/knapen_AOT/AOT_stimuli/pictures/1156_fw.png	190.1038749217987	0.6668388843536377
148	129.6398286819458	response	0	k		146.0	/experiments/knapen_AOT/AOT_stimuli/pictures/1156_fw.png	190.75759744644165	
149	129.6529450416565	picture	0		111	147.0	/experiments/knapen_AOT/AOT_stimuli/pictures/1993_fw.png	190.77071380615234	0.771669864654541
149	130.41666769981384	response	0	k		147.0	/experiments/knapen_AOT/AOT_stimuli/pictures/1993_fw.png	191.5344364643097	
150	130.42461490631104	picture	0		128	148.0	/experiments/knapen_AOT/AOT_stimuli/pictures/0641_fw.png	191.54238367080688	0.9088253974914551
150	131.31995034217834	response	0	j		148.0	/experiments/knapen_AOT/AOT_stimuli/pictures/0641_fw.png	192.4377191066742	
151	131.3334403038025	picture	0		125	149.0	/experiments/knapen_AOT/AOT_stimuli/pictures/0367_fw.png	192.45120906829834	0.8689072132110596
151	132.1945345401764	response	0	k		149.0	/experiments/knapen_AOT/AOT_stimuli/pictures/0367_fw.png	193.31230330467224	
152	132.20234751701355	picture	0		105	150.0	/experiments/knapen_AOT/AOT_stimuli/pictures/0759_fw.png	193.3201162815094	0.7351152896881104
152	132.9244179725647	response	0	k		150.0	/experiments/knapen_AOT/AOT_stimuli/pictures/0759_fw.png	194.04218673706055	
153	132.93746280670166	picture	0		93	151.0	/experiments/knapen_AOT/AOT_stimuli/pictures/0298_fw.png	194.0552315711975	0.6528306007385254
153	133.57740378379822	response	0	j		151.0	/experiments/knapen_AOT/AOT_stimuli/pictures/0298_fw.png	194.69517254829407	
154	133.59029340744019	picture	0		102	152.0	/experiments/knapen_AOT/AOT_stimuli/pictures/0193_fw.png	194.70806217193604	0.7151238918304443
154	134.29171776771545	response	0	k		152.0	/experiments/knapen_AOT/AOT_stimuli/pictures/0193_fw.png	195.4094865322113	
155	134.30541729927063	picture	0		90	153.0	/experiments/knapen_AOT/AOT_stimuli/pictures/0523_fw.png	195.42318606376648	0.6260418891906738
155	134.9237642288208	response	0	j		153.0	/experiments/knapen_AOT/AOT_stimuli/pictures/0523_fw.png	196.04153299331665	
156	134.9314591884613	picture	0		215	154.0	/experiments/knapen_AOT/AOT_stimuli/pictures/1315_fw.png	196.04922795295715	1.4929518699645996
156	136.41656851768494	response	0	j		154.0	/experiments/knapen_AOT/AOT_stimuli/pictures/1315_fw.png	197.5343372821808	
157	136.4244110584259	picture	0		99	155.0	/experiments/knapen_AOT/AOT_stimuli/pictures/0074_fw.png	197.54217982292175	0.6934902667999268
157	137.10501194000244	response	0	k		155.0	/experiments/knapen_AOT/AOT_stimuli/pictures/0074_fw.png	198.2227807044983	
158	137.11790132522583	picture	0		110	156.0	/experiments/knapen_AOT/AOT_stimuli/pictures/1551_fw.png	198.23567008972168	0.7644469738006592
158	137.8749029636383	response	0	k		156.0	/experiments/knapen_AOT/AOT_stimuli/pictures/1551_fw.png	198.99267172813416	
159	137.8823482990265	picture	0		125	157.0	/experiments/knapen_AOT/AOT_stimuli/pictures/0428_fw.png	199.00011706352234	0.8686647415161133
159	138.74286556243896	response	0	k		157.0	/experiments/knapen_AOT/AOT_stimuli/pictures/0428_fw.png	199.86063432693481	
160	138.7510130405426	picture	0		104	158.0	/experiments/knapen_AOT/AOT_stimuli/pictures/1381_fw.png	199.86878180503845	0.7280824184417725
160	139.4652955532074	response	0	j		158.0	/experiments/knapen_AOT/AOT_stimuli/pictures/1381_fw.png	200.58306431770325	
161	139.47909545898438	picture	0		137	159.0	/experiments/knapen_AOT/AOT_stimuli/pictures/2016_fw.png	200.59686422348022	0.9525554180145264
161	140.42356753349304	response	0	j		159.0	/experiments/knapen_AOT/AOT_stimuli/pictures/2016_fw.png	201.5413362979889	
162	140.4316508769989	picture	0		295	160.0	/experiments/knapen_AOT/AOT_stimuli/pictures/1472_fw.png	201.54941964149475	2.068103551864624
162	142.48670053482056	response	0	j		160.0	/experiments/knapen_AOT/AOT_stimuli/pictures/1472_fw.png	203.6044692993164	
163	142.49975442886353	picture	0		116	161.0	/experiments/knapen_AOT/AOT_stimuli/pictures/0673_fw.png	203.61752319335938	0.8060896396636963
163	143.2984266281128	response	0	j		161.0	/experiments/knapen_AOT/AOT_stimuli/pictures/0673_fw.png	204.41619539260864	
164	143.30584406852722	picture	0		155	162.0	/experiments/knapen_AOT/AOT_stimuli/pictures/1654_fw.png	204.42361283302307	1.0829088687896729
164	144.37588930130005	response	0	j		162.0	/experiments/knapen_AOT/AOT_stimuli/pictures/1654_fw.png	205.4936580657959	
165	144.3887529373169	picture	0		135	163.0	/experiments/knapen_AOT/AOT_stimuli/pictures/1780_fw.png	205.50652170181274	0.938953161239624
165	145.3196623325348	response	0	k		163.0	/experiments/knapen_AOT/AOT_stimuli/pictures/1780_fw.png	206.43743109703064	
166	145.32770609855652	picture	0		104	164.0	/experiments/knapen_AOT/AOT_stimuli/pictures/0090_fw.png	206.44547486305237	0.7215805053710938
166	146.042005777359	response	0	j		164.0	/experiments/knapen_AOT/AOT_stimuli/pictures/0090_fw.png	207.15977454185486	
167	146.0492866039276	picture	0		86	165.0	/experiments/knapen_AOT/AOT_stimuli/pictures/2121_fw.png	207.16705536842346	0.6037213802337646
167	146.6397294998169	response	0	k		165.0	/experiments/knapen_AOT/AOT_stimuli/pictures/2121_fw.png	207.75749826431274	
168	146.65300798416138	picture	0		181	166.0	/experiments/knapen_AOT/AOT_stimuli/pictures/0227_fw.png	207.77077674865723	1.263477087020874
168	147.90363955497742	response	0	j		166.0	/experiments/knapen_AOT/AOT_stimuli/pictures/0227_fw.png	209.02140831947327	
169	147.91648507118225	picture	0		179	167.0	/experiments/knapen_AOT/AOT_stimuli/pictures/1059_fw.png	209.0342538356781	1.2442209720611572
169	149.15301895141602	response	0	k		167.0	/experiments/knapen_AOT/AOT_stimuli/pictures/1059_fw.png	210.27078771591187	
170	149.1607060432434	picture	0		98	168.0	/experiments/knapen_AOT/AOT_stimuli/pictures/0009_fw.png	210.27847480773926	0.6863255500793457
170	149.83343482017517	response	0	k		168.0	/experiments/knapen_AOT/AOT_stimuli/pictures/0009_fw.png	210.95120358467102	
171	149.84703159332275	picture	0		111	169.0	/experiments/knapen_AOT/AOT_stimuli/pictures/1145_fw.png	210.9648003578186	0.7718906402587891
171	150.61129689216614	response	0	k		169.0	/experiments/knapen_AOT/AOT_stimuli/pictures/1145_fw.png	211.729065656662	
172	150.61892223358154	picture	0		108	170.0	/experiments/knapen_AOT/AOT_stimuli/pictures/0054_fw.png	211.7366909980774	0.7567160129547119
172	151.36803030967712	response	0	k		170.0	/experiments/knapen_AOT/AOT_stimuli/pictures/0054_fw.png	212.48579907417297	
173	151.37563824653625	picture	0		100	171.0	/experiments/knapen_AOT/AOT_stimuli/pictures/0083_fw.png	212.4934070110321	0.6946902275085449
173	152.06259274482727	response	0	j		171.0	/experiments/knapen_AOT/AOT_stimuli/pictures/0083_fw.png	213.18036150932312	
174	152.0703284740448	picture	0		103	172.0	/experiments/knapen_AOT/AOT_stimuli/pictures/1273_fw.png	213.18809723854065	0.721219539642334
174	152.77794361114502	response	0	k		172.0	/experiments/knapen_AOT/AOT_stimuli/pictures/1273_fw.png	213.89571237564087	
175	152.79154801368713	picture	0		136	173.0	/experiments/knapen_AOT/AOT_stimuli/pictures/0560_fw.png	213.90931677818298	0.9454808235168457
175	153.72896265983582	response	0	k		173.0	/experiments/knapen_AOT/AOT_stimuli/pictures/0560_fw.png	214.84673142433167	
176	153.73702883720398	picture	0		113	174.0	/experiments/knapen_AOT/AOT_stimuli/pictures/0569_fw.png	214.85479760169983	0.7851057052612305
176	154.51379346847534	response	0	k		174.0	/experiments/knapen_AOT/AOT_stimuli/pictures/0569_fw.png	215.6315622329712	
177	154.5221345424652	picture	0		108	175.0	/experiments/knapen_AOT/AOT_stimuli/pictures/0499_fw.png	215.63990330696106	0.7555875778198242
177	155.26491379737854	response	0	k		175.0	/experiments/knapen_AOT/AOT_stimuli/pictures/0499_fw.png	216.3826825618744	
178	155.27772212028503	picture	0		125	176.0	/experiments/knapen_AOT/AOT_stimuli/pictures/1088_fw.png	216.39549088478088	0.86869215965271
178	156.13882660865784	response	0	j		176.0	/experiments/knapen_AOT/AOT_stimuli/pictures/1088_fw.png	217.2565953731537	
179	156.14641427993774	picture	0		117	177.0	/experiments/knapen_AOT/AOT_stimuli/pictures/0223_fw.png	217.2641830444336	0.8187644481658936
179	156.95252299308777	response	0	j		177.0	/experiments/knapen_AOT/AOT_stimuli/pictures/0223_fw.png	218.07029175758362	
180	156.96517872810364	picture	0		80	178.0	/experiments/knapen_AOT/AOT_stimuli/pictures/1628_fw.png	218.0829474925995	0.5566744804382324
180	157.51395535469055	response	0	j		178.0	/experiments/knapen_AOT/AOT_stimuli/pictures/1628_fw.png	218.6317241191864	
181	157.52185320854187	picture	0		154	179.0	/experiments/knapen_AOT/AOT_stimuli/pictures/0356_fw.png	218.63962197303772	1.0753498077392578
181	158.58367156982422	response	0	k		179.0	/experiments/knapen_AOT/AOT_stimuli/pictures/0356_fw.png	219.70144033432007	
182	158.59720301628113	picture	0		110	180.0	/experiments/knapen_AOT/AOT_stimuli/pictures/1353_fw.png	219.71497178077698	0.7647638320922852
182	159.35406732559204	response	0	k		180.0	/experiments/knapen_AOT/AOT_stimuli/pictures/1353_fw.png	220.4718360900879	
183	159.3619668483734	picture	0		98	181.0	/experiments/knapen_AOT/AOT_stimuli/pictures/1155_fw.png	220.47973561286926	0.6867423057556152
183	160.03501081466675	response	0	j		181.0	/experiments/knapen_AOT/AOT_stimuli/pictures/1155_fw.png	221.1527795791626	
184	160.04870915412903	picture	0		109	182.0	/experiments/knapen_AOT/AOT_stimuli/pictures/0548_fw.png	221.16647791862488	0.7644243240356445
184	160.7984344959259	response	0	j		182.0	/experiments/knapen_AOT/AOT_stimuli/pictures/0548_fw.png	221.91620326042175	
185	160.81313347816467	picture	0		102	183.0	/experiments/knapen_AOT/AOT_stimuli/pictures/2066_fw.png	221.93090224266052	0.7157270908355713
185	161.52103352546692	response	0	k		183.0	/experiments/knapen_AOT/AOT_stimuli/pictures/2066_fw.png	222.63880228996277	
186	161.52886056900024	picture	0		114	184.0	/experiments/knapen_AOT/AOT_stimuli/pictures/0719_fw.png	222.6466293334961	0.7979729175567627
186	162.31302523612976	response	0	k		184.0	/experiments/knapen_AOT/AOT_stimuli/pictures/0719_fw.png	223.4307940006256	
187	162.326833486557	picture	0		101	185.0	/experiments/knapen_AOT/AOT_stimuli/pictures/0657_fw.png	223.44460225105286	0.7085111141204834
187	163.01473426818848	response	0	j		185.0	/experiments/knapen_AOT/AOT_stimuli/pictures/0657_fw.png	224.13250303268433	
188	163.0353446006775	picture	0		88	186.0	/experiments/knapen_AOT/AOT_stimuli/pictures/1581_fw.png	224.15311336517334	0.6177256107330322
188	163.63958430290222	response	0	k		186.0	/experiments/knapen_AOT/AOT_stimuli/pictures/1581_fw.png	224.75735306739807	
189	163.65307021141052	picture	0		101	187.0	/experiments/knapen_AOT/AOT_stimuli/pictures/1809_fw.png	224.77083897590637	0.7016716003417969
189	164.34709239006042	response	0	j		187.0	/experiments/knapen_AOT/AOT_stimuli/pictures/1809_fw.png	225.46486115455627	
190	164.35474181175232	picture	0		94	188.0	/experiments/knapen_AOT/AOT_stimuli/pictures/1962_fw.png	225.47251057624817	0.6533908843994141
190	165.00022149085999	response	0	k		188.0	/experiments/knapen_AOT/AOT_stimuli/pictures/1962_fw.png	226.11799025535583	
191	165.00813269615173	picture	0		243	189.0	/experiments/knapen_AOT/AOT_stimuli/pictures/1674_fw.png	226.12590146064758	1.687354326248169
191	166.68765330314636	response	0	j		189.0	/experiments/knapen_AOT/AOT_stimuli/pictures/1674_fw.png	227.8054220676422	
192	166.6954870223999	picture	0		92	190.0	/experiments/knapen_AOT/AOT_stimuli/pictures/1794_fw.png	227.81325578689575	0.6451442241668701
192	167.32686257362366	response	0	k		190.0	/experiments/knapen_AOT/AOT_stimuli/pictures/1794_fw.png	228.4446313381195	
193	167.34063124656677	picture	0		221	191.0	/experiments/knapen_AOT/AOT_stimuli/pictures/1403_fw.png	228.45840001106262	1.5358526706695557
193	168.8682506084442	response	0	k		191.0	/experiments/knapen_AOT/AOT_stimuli/pictures/1403_fw.png	229.98601937294006	
194	168.87648391723633	picture	0		99	192.0	/experiments/knapen_AOT/AOT_stimuli/pictures/1941_fw.png	229.99425268173218	0.6868348121643066
194	169.55074048042297	response	0	j		192.0	/experiments/knapen_AOT/AOT_stimuli/pictures/1941_fw.png	230.66850924491882	
195	169.56331872940063	picture	0		110	193.0	/experiments/knapen_AOT/AOT_stimuli/pictures/1073_fw.png	230.68108749389648	0.7700448036193848
195	170.32030773162842	response	0	j		193.0	/experiments/knapen_AOT/AOT_stimuli/pictures/1073_fw.png	231.43807649612427	
196	170.33336353302002	picture	0		94	194.0	/experiments/knapen_AOT/AOT_stimuli/pictures/0242_fw.png	231.45113229751587	0.66080641746521
196	170.9791452884674	response	0	j		194.0	/experiments/knapen_AOT/AOT_stimuli/pictures/0242_fw.png	232.09691405296326	
197	170.99416995048523	picture	0		96	195.0	/experiments/knapen_AOT/AOT_stimuli/pictures/1193_fw.png	232.11193871498108	0.6798262596130371
197	171.65991592407227	response	0	k		195.0	/experiments/knapen_AOT/AOT_stimuli/pictures/1193_fw.png	232.77768468856812	
198	171.67399621009827	picture	0		123	196.0	/experiments/knapen_AOT/AOT_stimuli/pictures/2075_fw.png	232.79176497459412	0.8550026416778564
198	172.5209925174713	response	0	j		196.0	/experiments/knapen_AOT/AOT_stimuli/pictures/2075_fw.png	233.63876128196716	
199	172.52899885177612	picture	0		126	197.0	/experiments/knapen_AOT/AOT_stimuli/pictures/2031_fw.png	233.64676761627197	0.8818514347076416
199	173.39616346359253	response	0	j		197.0	/experiments/knapen_AOT/AOT_stimuli/pictures/2031_fw.png	234.51393222808838	
200	173.41085028648376	picture	0		90	198.0	/experiments/knapen_AOT/AOT_stimuli/pictures/1622_fw.png	234.52861905097961	0.6246552467346191
200	174.02256798744202	response	0	k		198.0	/experiments/knapen_AOT/AOT_stimuli/pictures/1622_fw.png	235.14033675193787	
201	174.03550553321838	picture	0		87	199.0	/experiments/knapen_AOT/AOT_stimuli/pictures/0371_fw.png	235.15327429771423	0.61041259765625
201	174.63254523277283	response	0	k		199.0	/experiments/knapen_AOT/AOT_stimuli/pictures/0371_fw.png	235.75031399726868	
202	174.64591813087463	picture	0		86	200.0	/experiments/knapen_AOT/AOT_stimuli/pictures/0630_fw.png	235.76368689537048	0.6042447090148926
202	175.2365756034851	response	0	k		200.0	/experiments/knapen_AOT/AOT_stimuli/pictures/0630_fw.png	236.35434436798096	
203	175.25016283988953	picture	0		99	201.0	/experiments/knapen_AOT/AOT_stimuli/pictures/1119_fw.png	236.36793160438538	0.6945133209228516
203	175.93067336082458	response	0	j		201.0	/experiments/knapen_AOT/AOT_stimuli/pictures/1119_fw.png	237.04844212532043	
204	175.94467616081238	picture	0		86	202.0	/experiments/knapen_AOT/AOT_stimuli/pictures/0263_fw.png	237.06244492530823	0.6044268608093262
204	176.53495454788208	response	0	j		202.0	/experiments/knapen_AOT/AOT_stimuli/pictures/0263_fw.png	237.65272331237793	
205	176.5491030216217	picture	0		123	203.0	/experiments/knapen_AOT/AOT_stimuli/pictures/1823_fw.png	237.66687178611755	0.8611819744110107
205	177.39639902114868	response	0	k		203.0	/experiments/knapen_AOT/AOT_stimuli/pictures/1823_fw.png	238.51416778564453	
206	177.41028499603271	picture	0		161	204.0	/experiments/knapen_AOT/AOT_stimuli/pictures/0060_fw.png	238.52805376052856	1.1256005764007568
206	178.52090120315552	response	0	j		204.0	/experiments/knapen_AOT/AOT_stimuli/pictures/0060_fw.png	239.63866996765137	
207	178.53588557243347	picture	0		96	205.0	/experiments/knapen_AOT/AOT_stimuli/pictures/0892_fw.png	239.65365433692932	0.667191743850708
207	179.19492959976196	response	0	k		205.0	/experiments/knapen_AOT/AOT_stimuli/pictures/0892_fw.png	240.3126983642578	
208	179.20307731628418	picture	0		162	206.0	/experiments/knapen_AOT/AOT_stimuli/pictures/1974_fw.png	240.32084608078003	1.1312434673309326
208	180.3207025527954	response	0	k		206.0	/experiments/knapen_AOT/AOT_stimuli/pictures/1974_fw.png	241.43847131729126	
209	180.3343207836151	picture	0		91	207.0	/experiments/knapen_AOT/AOT_stimuli/pictures/0375_fw.png	241.45208954811096	0.6323201656341553
209	180.95875358581543	response	0	j		207.0	/experiments/knapen_AOT/AOT_stimuli/pictures/0375_fw.png	242.07652235031128	
210	180.96664094924927	picture	0		186	208.0	/experiments/knapen_AOT/AOT_stimuli/pictures/0842_fw.png	242.08440971374512	1.2982003688812256
210	182.25705003738403	response	0	k		208.0	/experiments/knapen_AOT/AOT_stimuli/pictures/0842_fw.png	243.37481880187988	
211	182.2648413181305	picture	0		107	209.0	/experiments/knapen_AOT/AOT_stimuli/pictures/1826_fw.png	243.38261008262634	0.7431895732879639
211	183.000470161438	response	0	k		209.0	/experiments/knapen_AOT/AOT_stimuli/pictures/1826_fw.png	244.11823892593384	
212	183.00803089141846	picture	0		117	210.0	/experiments/knapen_AOT/AOT_stimuli/pictures/2081_fw.png	244.1257996559143	0.8122105598449707
212	183.806467294693	response	0	k		210.0	/experiments/knapen_AOT/AOT_stimuli/pictures/2081_fw.png	244.92423605918884	
213	183.82024145126343	picture	0		137	211.0	/experiments/knapen_AOT/AOT_stimuli/pictures/1348_fw.png	244.93801021575928	0.9517192840576172
213	184.7639307975769	response	0	j		211.0	/experiments/knapen_AOT/AOT_stimuli/pictures/1348_fw.png	245.88169956207275	
214	184.77196073532104	picture	0		134	212.0	/experiments/knapen_AOT/AOT_stimuli/pictures/0597_fw.png	245.8897294998169	0.9309093952178955
214	185.6946370601654	response	0	k		212.0	/experiments/knapen_AOT/AOT_stimuli/pictures/0597_fw.png	246.81240582466125	
215	185.70287013053894	picture	0		121	213.0	/experiments/knapen_AOT/AOT_stimuli/pictures/0406_fw.png	246.8206388950348	0.8458449840545654
215	186.53595519065857	response	0	k		213.0	/experiments/knapen_AOT/AOT_stimuli/pictures/0406_fw.png	247.65372395515442	
216	186.5487151145935	picture	0		95	214.0	/experiments/knapen_AOT/AOT_stimuli/pictures/1228_fw.png	247.66648387908936	0.6667149066925049
216	187.20171999931335	response	0	j		214.0	/experiments/knapen_AOT/AOT_stimuli/pictures/1228_fw.png	248.3194887638092	
217	187.215430021286	picture	0		111	215.0	/experiments/knapen_AOT/AOT_stimuli/pictures/0190_fw.png	248.33319878578186	0.7715492248535156
217	187.97470426559448	response	0	j		215.0	/experiments/knapen_AOT/AOT_stimuli/pictures/0190_fw.png	249.09247303009033	
218	187.98697924613953	picture	0		102	216.0	/experiments/knapen_AOT/AOT_stimuli/pictures/1894_fw.png	249.10474801063538	0.7086350917816162
218	188.68764424324036	response	0	k		216.0	/experiments/knapen_AOT/AOT_stimuli/pictures/1894_fw.png	249.8054130077362	
219	188.69561433792114	picture	0		236	217.0	/experiments/knapen_AOT/AOT_stimuli/pictures/1012_fw.png	249.813383102417	1.64522385597229
219	190.32752966880798	response	0	k		217.0	/experiments/knapen_AOT/AOT_stimuli/pictures/1012_fw.png	251.44529843330383	
220	190.34083819389343	picture	0		106	218.0	/experiments/knapen_AOT/AOT_stimuli/pictures/1289_fw.png	251.45860695838928	0.7494862079620361
220	191.0709240436554	response	0	j		218.0	/experiments/knapen_AOT/AOT_stimuli/pictures/1289_fw.png	252.18869280815125	
221	191.09032440185547	picture	0		96	219.0	/experiments/knapen_AOT/AOT_stimuli/pictures/0551_fw.png	252.20809316635132	0.6742174625396729
221	191.75101804733276	response	0	j		219.0	/experiments/knapen_AOT/AOT_stimuli/pictures/0551_fw.png	252.8687868118286	
222	191.76454186439514	picture	0		131	220.0	/experiments/knapen_AOT/AOT_stimuli/pictures/0341_fw.png	252.882310628891	0.9169111251831055
222	192.66737151145935	response	0	k		220.0	/experiments/knapen_AOT/AOT_stimuli/pictures/0341_fw.png	253.7851402759552	
223	192.68145298957825	picture	0		100	221.0	/experiments/knapen_AOT/AOT_stimuli/pictures/1609_fw.png	253.7992217540741	0.7007701396942139
223	193.3690619468689	response	0	j		221.0	/experiments/knapen_AOT/AOT_stimuli/pictures/1609_fw.png	254.48683071136475	
224	193.38222312927246	picture	0		152	222.0	/experiments/knapen_AOT/AOT_stimuli/pictures/0094_fw.png	254.4999918937683	1.0628514289855957
224	194.43184614181519	response	0	j		222.0	/experiments/knapen_AOT/AOT_stimuli/pictures/0094_fw.png	255.54961490631104	
225	194.44507455825806	picture	0		107	223.0	/experiments/knapen_AOT/AOT_stimuli/pictures/1980_fw.png	255.5628433227539	0.7497196197509766
225	195.17457365989685	response	0	k		223.0	/experiments/knapen_AOT/AOT_stimuli/pictures/1980_fw.png	256.2923424243927	
226	195.19479417800903	picture	0		209	224.0	/experiments/knapen_AOT/AOT_stimuli/pictures/0803_fw.png	256.3125629425049	1.4583814144134521
226	196.63994789123535	response	0	k		224.0	/experiments/knapen_AOT/AOT_stimuli/pictures/0803_fw.png	257.7577166557312	
227	196.65317559242249	picture	0		108	225.0	/experiments/knapen_AOT/AOT_stimuli/pictures/1035_fw.png	257.77094435691833	0.7507555484771729
227	197.3959665298462	response	0	j		225.0	/experiments/knapen_AOT/AOT_stimuli/pictures/1035_fw.png	258.51373529434204	
228	197.40393114089966	picture	0		107	226.0	/experiments/knapen_AOT/AOT_stimuli/pictures/0989_fw.png	258.5216999053955	0.743006706237793
228	198.13908410072327	response	0	j		226.0	/experiments/knapen_AOT/AOT_stimuli/pictures/0989_fw.png	259.2568528652191	
229	198.14693784713745	picture	0		102	227.0	/experiments/knapen_AOT/AOT_stimuli/pictures/1959_fw.png	259.2647066116333	0.7086811065673828
229	198.84803938865662	response	0	j		227.0	/experiments/knapen_AOT/AOT_stimuli/pictures/1959_fw.png	259.96580815315247	
230	198.85561895370483	picture	0		111	228.0	/experiments/knapen_AOT/AOT_stimuli/pictures/1508_fw.png	259.9733877182007	0.7770717144012451
230	199.61855220794678	response	0	k		228.0	/experiments/knapen_AOT/AOT_stimuli/pictures/1508_fw.png	260.7363209724426	
231	199.63269066810608	picture	0		112	229.0	/experiments/knapen_AOT/AOT_stimuli/pictures/0737_fw.png	260.75045943260193	0.7844603061676025
231	200.4033432006836	response	0	j		229.0	/experiments/knapen_AOT/AOT_stimuli/pictures/0737_fw.png	261.52111196517944	
232	200.41715097427368	picture	0		103	230.0	/experiments/knapen_AOT/AOT_stimuli/pictures/1859_fw.png	261.53491973876953	0.7228612899780273
232	201.13219451904297	response	0	k		230.0	/experiments/knapen_AOT/AOT_stimuli/pictures/1859_fw.png	262.2499632835388	
233	201.1400122642517	picture	0		136	231.0	/experiments/knapen_AOT/AOT_stimuli/pictures/1026_fw.png	262.25778102874756	0.9503297805786133
233	202.07055401802063	response	0	j		231.0	/experiments/knapen_AOT/AOT_stimuli/pictures/1026_fw.png	263.1883227825165	
234	202.09034204483032	picture	0		95	232.0	/experiments/knapen_AOT/AOT_stimuli/pictures/1416_fw.png	263.2081108093262	0.667217493057251
234	202.74397730827332	response	0	j		232.0	/experiments/knapen_AOT/AOT_stimuli/pictures/1416_fw.png	263.86174607276917	
235	202.75755953788757	picture	0		165	233.0	/experiments/knapen_AOT/AOT_stimuli/pictures/1470_fw.png	263.8753283023834	1.153594970703125
235	203.8969030380249	response	0	k		233.0	/experiments/knapen_AOT/AOT_stimuli/pictures/1470_fw.png	265.01467180252075	
236	203.9111545085907	picture	0		91	234.0	/experiments/knapen_AOT/AOT_stimuli/pictures/1424_fw.png	265.02892327308655	0.6377131938934326
236	204.5359010696411	response	0	k		234.0	/experiments/knapen_AOT/AOT_stimuli/pictures/1424_fw.png	265.65366983413696	
237	204.54886770248413	picture	0		128	235.0	/experiments/knapen_AOT/AOT_stimuli/pictures/2088_fw.png	265.66663646698	0.89638352394104
237	205.43182253837585	response	0	k		235.0	/experiments/knapen_AOT/AOT_stimuli/pictures/2088_fw.png	266.5495913028717	
238	205.44525122642517	picture	0		88	236.0	/experiments/knapen_AOT/AOT_stimuli/pictures/0770_fw.png	266.563019990921	0.6117119789123535
238	206.0488703250885	response	0	k		236.0	/experiments/knapen_AOT/AOT_stimuli/pictures/0770_fw.png	267.16663908958435	
239	206.05696320533752	picture	0		114	237.0	/experiments/knapen_AOT/AOT_stimuli/pictures/0173_fw.png	267.1747319698334	0.7915117740631104
239	206.84084105491638	response	0	k		237.0	/experiments/knapen_AOT/AOT_stimuli/pictures/0173_fw.png	267.95860981941223	
240	206.84847497940063	picture	0		92	238.0	/experiments/knapen_AOT/AOT_stimuli/pictures/2114_fw.png	267.9662437438965	0.6459734439849854
240	207.4797260761261	response	0	k		238.0	/experiments/knapen_AOT/AOT_stimuli/pictures/2114_fw.png	268.59749484062195	
241	207.49444842338562	picture	0		126	239.0	/experiments/knapen_AOT/AOT_stimuli/pictures/0250_fw.png	268.61221718788147	0.8814060688018799
241	208.36288380622864	response	0	k		239.0	/experiments/knapen_AOT/AOT_stimuli/pictures/0250_fw.png	269.4806525707245	
242	208.3758544921875	picture	0		103	240.0	/experiments/knapen_AOT/AOT_stimuli/pictures/1005_fw.png	269.49362325668335	0.7220256328582764
242	209.0844748020172	response	0	k		240.0	/experiments/knapen_AOT/AOT_stimuli/pictures/1005_fw.png	270.20224356651306	
243	209.09788012504578	picture	0		162	241.0	/experiments/knapen_AOT/AOT_stimuli/pictures/0473_fw.png	270.2156488895416	1.1317927837371826
243	210.21569800376892	response	0	j		241.0	/experiments/knapen_AOT/AOT_stimuli/pictures/0473_fw.png	271.33346676826477	
244	210.22967290878296	picture	0		122	242.0	/experiments/knapen_AOT/AOT_stimuli/pictures/1695_fw.png	271.3474416732788	0.860872745513916
244	211.07115387916565	response	0	k		242.0	/experiments/knapen_AOT/AOT_stimuli/pictures/1695_fw.png	272.1889226436615	
245	211.09054565429688	picture	0		118	243.0	/experiments/knapen_AOT/AOT_stimuli/pictures/1734_fw.png	272.2083144187927	0.8267374038696289
245	211.90369701385498	response	0	k		243.0	/experiments/knapen_AOT/AOT_stimuli/pictures/1734_fw.png	273.02146577835083	
246	211.9172830581665	picture	0		118	244.0	/experiments/knapen_AOT/AOT_stimuli/pictures/1619_fw.png	273.03505182266235	0.8203067779541016
246	212.72942090034485	response	0	k		244.0	/experiments/knapen_AOT/AOT_stimuli/pictures/1619_fw.png	273.8471896648407	
247	212.7375898361206	picture	0		92	245.0	/experiments/knapen_AOT/AOT_stimuli/pictures/0163_fw.png	273.85535860061646	0.645087718963623
247	213.3687286376953	response	0	j		245.0	/experiments/knapen_AOT/AOT_stimuli/pictures/0163_fw.png	274.48649740219116	
248	213.38267755508423	picture	0		94	246.0	/experiments/knapen_AOT/AOT_stimuli/pictures/0286_fw.png	274.5004463195801	0.6595883369445801
248	214.02353835105896	response	0	k		246.0	/experiments/knapen_AOT/AOT_stimuli/pictures/0286_fw.png	275.1413071155548	
249	214.0422658920288	picture	0		118	247.0	/experiments/knapen_AOT/AOT_stimuli/pictures/0229_fw.png	275.16003465652466	0.8267321586608887
249	214.8552861213684	response	0	k		247.0	/experiments/knapen_AOT/AOT_stimuli/pictures/0229_fw.png	275.97305488586426	
250	214.8689980506897	picture	0		128	248.0	/experiments/knapen_AOT/AOT_stimuli/pictures/1663_fw.png	275.98676681518555	0.8955972194671631
250	215.75077486038208	response	0	k		248.0	/experiments/knapen_AOT/AOT_stimuli/pictures/1663_fw.png	276.86854362487793	
251	215.76459527015686	picture	0		95	249.0	/experiments/knapen_AOT/AOT_stimuli/pictures/0736_fw.png	276.8823640346527	0.6661841869354248
251	216.41763997077942	response	0	j		249.0	/experiments/knapen_AOT/AOT_stimuli/pictures/0736_fw.png	277.53540873527527	
252	216.43077945709229	picture	0		99	250.0	/experiments/knapen_AOT/AOT_stimuli/pictures/1625_fw.png	277.54854822158813	0.6948020458221436
252	217.1119453907013	response	0	k		250.0	/experiments/knapen_AOT/AOT_stimuli/pictures/1625_fw.png	278.22971415519714	
253	217.12558150291443	picture	0		119	251.0	/experiments/knapen_AOT/AOT_stimuli/pictures/1450_fw.png	278.2433502674103	0.833458423614502
253	217.94519305229187	response	0	k		251.0	/experiments/knapen_AOT/AOT_stimuli/pictures/1450_fw.png	279.0629618167877	
254	217.95903992652893	picture	0		180	252.0	/experiments/knapen_AOT/AOT_stimuli/pictures/1410_fw.png	279.0768086910248	1.2573869228363037
254	219.20216965675354	response	0	k		252.0	/experiments/knapen_AOT/AOT_stimuli/pictures/1410_fw.png	280.3199384212494	
255	219.21642684936523	picture	0		91	253.0	/experiments/knapen_AOT/AOT_stimuli/pictures/1266_fw.png	280.3341956138611	0.6378755569458008
255	219.84079670906067	response	0	k		253.0	/experiments/knapen_AOT/AOT_stimuli/pictures/1266_fw.png	280.9585654735565	
256	219.85430240631104	picture	0		135	254.0	/experiments/knapen_AOT/AOT_stimuli/pictures/1208_fw.png	280.9720711708069	0.9445583820343018
256	220.7854392528534	response	0	k		254.0	/experiments/knapen_AOT/AOT_stimuli/pictures/1208_fw.png	281.90320801734924	
257	220.79886078834534	picture	0		123	255.0	/experiments/knapen_AOT/AOT_stimuli/pictures/1649_fw.png	281.9166295528412	0.8684859275817871
257	221.6479663848877	response	0	j		255.0	/experiments/knapen_AOT/AOT_stimuli/pictures/1649_fw.png	282.76573514938354	
258	221.66734671592712	picture	0		113	256.0	/experiments/knapen_AOT/AOT_stimuli/pictures/1712_fw.png	282.785115480423	0.7916157245635986
258	222.4388883113861	response	0	k		256.0	/experiments/knapen_AOT/AOT_stimuli/pictures/1712_fw.png	283.55665707588196	
259	222.45896244049072	picture	0		135	257.0	/experiments/knapen_AOT/AOT_stimuli/pictures/1765_fw.png	283.5767312049866	0.9377989768981934
259	223.3828101158142	response	0	j		257.0	/experiments/knapen_AOT/AOT_stimuli/pictures/1765_fw.png	284.50057888031006	
260	223.39676141738892	picture	0		122	258.0	/experiments/knapen_AOT/AOT_stimuli/pictures/1190_fw.png	284.51453018188477	0.853870153427124
260	224.236811876297	response	0	k		258.0	/experiments/knapen_AOT/AOT_stimuli/pictures/1190_fw.png	285.35458064079285	
261	224.25063157081604	picture	0		112	259.0	/experiments/knapen_AOT/AOT_stimuli/pictures/1736_fw.png	285.3684003353119	0.7852239608764648
261	225.01602172851562	response	0	j		259.0	/experiments/knapen_AOT/AOT_stimuli/pictures/1736_fw.png	286.1337904930115	
262	225.0358555316925	picture	0		94	260.0	/experiments/knapen_AOT/AOT_stimuli/pictures/1478_fw.png	286.15362429618835	0.6587913036346436
262	225.68101286888123	response	0	j		260.0	/experiments/knapen_AOT/AOT_stimuli/pictures/1478_fw.png	286.7987816333771	
263	225.69464683532715	picture	0		97	261.0	/experiments/knapen_AOT/AOT_stimuli/pictures/1740_fw.png	286.812415599823	0.6880512237548828
263	226.36186242103577	response	0	j		261.0	/experiments/knapen_AOT/AOT_stimuli/pictures/1740_fw.png	287.4796311855316	
264	226.38269805908203	picture	0		90	262.0	/experiments/knapen_AOT/AOT_stimuli/pictures/0273_fw.png	287.5004668235779	0.6318285465240479
264	227.0009593963623	response	0	k		262.0	/experiments/knapen_AOT/AOT_stimuli/pictures/0273_fw.png	288.11872816085815	
265	227.01452660560608	picture	0		114	263.0	/experiments/knapen_AOT/AOT_stimuli/pictures/1376_fw.png	288.13229537010193	0.7981219291687012
265	227.79988861083984	response	0	j		263.0	/experiments/knapen_AOT/AOT_stimuli/pictures/1376_fw.png	288.9176573753357	
266	227.81264853477478	picture	0		206	264.0	/experiments/knapen_AOT/AOT_stimuli/pictures/0105_fw.png	288.93041729927063	1.4380793571472168
266	229.23752284049988	response	0	k		264.0	/experiments/knapen_AOT/AOT_stimuli/pictures/0105_fw.png	290.3552916049957	
267	229.250727891922	picture	0		106	265.0	/experiments/knapen_AOT/AOT_stimuli/pictures/1207_fw.png	290.36849665641785	0.7368335723876953
267	229.97953486442566	response	0	j		265.0	/experiments/knapen_AOT/AOT_stimuli/pictures/1207_fw.png	291.0973036289215	
268	229.9875614643097	picture	0		105	266.0	/experiments/knapen_AOT/AOT_stimuli/pictures/1568_fw.png	291.10533022880554	0.7357850074768066
268	230.70288562774658	response	0	j		266.0	/experiments/knapen_AOT/AOT_stimuli/pictures/1568_fw.png	291.82065439224243	
269	230.7233464717865	picture	0		106	267.0	/experiments/knapen_AOT/AOT_stimuli/pictures/1028_fw.png	291.84111523628235	0.7428076267242432
269	231.4528467655182	response	0	k		267.0	/experiments/knapen_AOT/AOT_stimuli/pictures/1028_fw.png	292.57061553001404	
270	231.46615409851074	picture	0		102	268.0	/experiments/knapen_AOT/AOT_stimuli/pictures/2124_fw.png	292.5839228630066	0.714775800704956
270	232.1680989265442	response	0	k		268.0	/experiments/knapen_AOT/AOT_stimuli/pictures/2124_fw.png	293.28586769104004	
271	232.1809298992157	picture	0		90	269.0	/experiments/knapen_AOT/AOT_stimuli/pictures/1351_fw.png	293.29869866371155	0.6318042278289795
271	232.8006625175476	response	0	j		269.0	/experiments/knapen_AOT/AOT_stimuli/pictures/1351_fw.png	293.91843128204346	
272	232.81273412704468	picture	0		127	270.0	/experiments/knapen_AOT/AOT_stimuli/pictures/1038_fw.png	293.9305028915405	0.8905386924743652
272	233.68912029266357	response	0	k		270.0	/experiments/knapen_AOT/AOT_stimuli/pictures/1038_fw.png	294.8068890571594	
273	233.70327281951904	picture	0		118	271.0	/experiments/knapen_AOT/AOT_stimuli/pictures/1869_fw.png	294.8210415840149	0.8247873783111572
273	234.5143632888794	response	0	k		271.0	/experiments/knapen_AOT/AOT_stimuli/pictures/1869_fw.png	295.63213205337524	
274	234.5280601978302	picture	0		100	272.0	/experiments/knapen_AOT/AOT_stimuli/pictures/0302_fw.png	295.64582896232605	0.6956470012664795
274	235.21571516990662	response	0	j		272.0	/experiments/knapen_AOT/AOT_stimuli/pictures/0302_fw.png	296.33348393440247	
275	235.22370719909668	picture	0		110	273.0	/experiments/knapen_AOT/AOT_stimuli/pictures/0046_fw.png	296.34147596359253	0.7710750102996826
275	235.9805302619934	response	0	k		273.0	/experiments/knapen_AOT/AOT_stimuli/pictures/0046_fw.png	297.09829902648926	
276	235.99478220939636	picture	0		90	274.0	/experiments/knapen_AOT/AOT_stimuli/pictures/1425_fw.png	297.1125509738922	0.637822151184082
276	236.61911296844482	response	0	j		274.0	/experiments/knapen_AOT/AOT_stimuli/pictures/1425_fw.png	297.7368817329407	
277	236.63260436058044	picture	0		100	275.0	/experiments/knapen_AOT/AOT_stimuli/pictures/0709_fw.png	297.7503731250763	0.7018582820892334
277	237.32021641731262	response	0	k		275.0	/experiments/knapen_AOT/AOT_stimuli/pictures/0709_fw.png	298.4379851818085	
278	237.33446264266968	picture	0		100	276.0	/experiments/knapen_AOT/AOT_stimuli/pictures/0377_fw.png	298.4522314071655	0.7016241550445557
278	238.01589131355286	response	0	k		276.0	/experiments/knapen_AOT/AOT_stimuli/pictures/0377_fw.png	299.1336600780487	
279	238.03608679771423	picture	0		133	277.0	/experiments/knapen_AOT/AOT_stimuli/pictures/1833_fw.png	299.1538555622101	0.9300756454467773
279	238.9529356956482	response	0	k		277.0	/experiments/knapen_AOT/AOT_stimuli/pictures/1833_fw.png	300.07070446014404	
280	238.966162443161	picture	0		111	278.0	/experiments/knapen_AOT/AOT_stimuli/pictures/1708_fw.png	300.08393120765686	0.7849118709564209
280	239.737122297287	response	0	k		278.0	/experiments/knapen_AOT/AOT_stimuli/pictures/1708_fw.png	300.85489106178284	
281	239.75107431411743	picture	0		124	279.0	/experiments/knapen_AOT/AOT_stimuli/pictures/1990_fw.png	300.8688430786133	0.8617589473724365
281	240.59865546226501	response	0	k		279.0	/experiments/knapen_AOT/AOT_stimuli/pictures/1990_fw.png	301.71642422676086	
282	240.61283326148987	picture	0		117	280.0	/experiments/knapen_AOT/AOT_stimuli/pictures/1976_fw.png	301.7306020259857	0.8188381195068359
282	241.41781425476074	response	0	k		280.0	/experiments/knapen_AOT/AOT_stimuli/pictures/1976_fw.png	302.5355830192566	
283	241.4316713809967	picture	0		183	281.0	/experiments/knapen_AOT/AOT_stimuli/pictures/2106_fw.png	302.54944014549255	1.2779479026794434
283	242.6962149143219	response	0	j		281.0	/experiments/knapen_AOT/AOT_stimuli/pictures/2106_fw.png	303.81398367881775	
284	242.70961928367615	picture	0		97	282.0	/experiments/knapen_AOT/AOT_stimuli/pictures/0706_fw.png	303.827388048172	0.6800253391265869
284	243.37621474266052	response	0	k		282.0	/experiments/knapen_AOT/AOT_stimuli/pictures/0706_fw.png	304.4939835071564	
285	243.38964462280273	picture	0		97	283.0	/experiments/knapen_AOT/AOT_stimuli/pictures/1967_fw.png	304.5074133872986	0.6808919906616211
285	244.0568356513977	response	0	k		283.0	/experiments/knapen_AOT/AOT_stimuli/pictures/1967_fw.png	305.17460441589355	
286	244.07053661346436	picture	0		128	284.0	/experiments/knapen_AOT/AOT_stimuli/pictures/0806_fw.png	305.1883053779602	0.8954343795776367
286	244.9530770778656	response	0	k		284.0	/experiments/knapen_AOT/AOT_stimuli/pictures/0806_fw.png	306.07084584236145	
287	244.965970993042	picture	0		116	285.0	/experiments/knapen_AOT/AOT_stimuli/pictures/1076_fw.png	306.08373975753784	0.8061678409576416
287	245.76434350013733	response	0	k		285.0	/experiments/knapen_AOT/AOT_stimuli/pictures/1076_fw.png	306.8821122646332	
288	245.77213883399963	picture	0		148	286.0	/experiments/knapen_AOT/AOT_stimuli/pictures/0747_fw.png	306.8899075984955	1.0339181423187256
288	246.7929368019104	response	0	k		286.0	/experiments/knapen_AOT/AOT_stimuli/pictures/0747_fw.png	307.91070556640625	
289	246.80605697631836	picture	0		96	287.0	/experiments/knapen_AOT/AOT_stimuli/pictures/1293_fw.png	307.9238257408142	0.6680901050567627
289	247.46596503257751	response	0	j		287.0	/experiments/knapen_AOT/AOT_stimuli/pictures/1293_fw.png	308.58373379707336	
290	247.47414708137512	picture	0		96	288.0	/experiments/knapen_AOT/AOT_stimuli/pictures/0429_fw.png	308.591915845871	0.6658670902252197
290	248.1267168521881	response	0	k		288.0	/experiments/knapen_AOT/AOT_stimuli/pictures/0429_fw.png	309.24448561668396	
291	248.14001417160034	picture	0		92	289.0	/experiments/knapen_AOT/AOT_stimuli/pictures/1965_fw.png	309.2577829360962	0.6462116241455078
291	248.77162170410156	response	0	j		289.0	/experiments/knapen_AOT/AOT_stimuli/pictures/1965_fw.png	309.8893904685974	
292	248.78622579574585	picture	0		129	290.0	/experiments/knapen_AOT/AOT_stimuli/pictures/0810_fw.png	309.9039945602417	0.9018046855926514
292	249.67407035827637	response	0	j		290.0	/experiments/knapen_AOT/AOT_stimuli/pictures/0810_fw.png	310.7918391227722	
293	249.6880304813385	picture	0		136	291.0	/experiments/knapen_AOT/AOT_stimuli/pictures/0168_fw.png	310.80579924583435	0.9520180225372314
293	250.62638020515442	response	0	k		291.0	/experiments/knapen_AOT/AOT_stimuli/pictures/0168_fw.png	311.74414896965027	
294	250.64004850387573	picture	0		130	292.0	/experiments/knapen_AOT/AOT_stimuli/pictures/0721_fw.png	311.7578172683716	0.9160158634185791
294	251.54289364814758	response	0	k		292.0	/experiments/knapen_AOT/AOT_stimuli/pictures/0721_fw.png	312.66066241264343	
295	251.5560643672943	picture	0		97	293.0	/experiments/knapen_AOT/AOT_stimuli/pictures/0688_fw.png	312.67383313179016	0.6749274730682373
295	252.2227280139923	response	0	j		293.0	/experiments/knapen_AOT/AOT_stimuli/pictures/0688_fw.png	313.34049677848816	
296	252.23099184036255	picture	0		91	294.0	/experiments/knapen_AOT/AOT_stimuli/pictures/1995_fw.png	313.3487606048584	0.6387522220611572
296	252.85473012924194	response	0	k		294.0	/experiments/knapen_AOT/AOT_stimuli/pictures/1995_fw.png	313.9724988937378	
297	252.8697440624237	picture	0		95	295.0	/experiments/knapen_AOT/AOT_stimuli/pictures/1007_fw.png	313.98751282691956	0.6660871505737305
297	253.5216567516327	response	0	j		295.0	/experiments/knapen_AOT/AOT_stimuli/pictures/1007_fw.png	314.63942551612854	
298	253.53583121299744	picture	0		115	296.0	/experiments/knapen_AOT/AOT_stimuli/pictures/2126_fw.png	314.6535999774933	0.8053324222564697
298	254.32852625846863	response	0	k		296.0	/experiments/knapen_AOT/AOT_stimuli/pictures/2126_fw.png	315.4462950229645	
299	254.3411636352539	picture	0		139	297.0	/experiments/knapen_AOT/AOT_stimuli/pictures/1979_fw.png	315.45893239974976	0.9722476005554199
299	255.29959082603455	response	0	k		297.0	/experiments/knapen_AOT/AOT_stimuli/pictures/1979_fw.png	316.4173595905304	
300	255.31341123580933	picture	0		143	298.0	/experiments/knapen_AOT/AOT_stimuli/pictures/1772_fw.png	316.4311800003052	1.0000133514404297
300	256.29971194267273	response	0	k		298.0	/experiments/knapen_AOT/AOT_stimuli/pictures/1772_fw.png	317.4174807071686	
301	256.31342458724976	picture	0		90	299.0	/experiments/knapen_AOT/AOT_stimuli/pictures/1304_fw.png	317.4311933517456	0.631352424621582
301	256.93108081817627	response	0	j		299.0	/experiments/knapen_AOT/AOT_stimuli/pictures/1304_fw.png	318.0488495826721	
302	256.94477701187134	picture	0		104	300.0	/experiments/knapen_AOT/AOT_stimuli/pictures/2155_fw.png	318.0625457763672	0.7292678356170654
302	257.66095328330994	response	0	k		300.0	/experiments/knapen_AOT/AOT_stimuli/pictures/2155_fw.png	318.7787220478058	
303	257.6740448474884	picture	0		87	301.0	/experiments/knapen_AOT/AOT_stimuli/pictures/1043_fw.png	318.79181361198425	0.6112935543060303
303	258.27223467826843	response	0	k		301.0	/experiments/knapen_AOT/AOT_stimuli/pictures/1043_fw.png	319.3900034427643	
304	258.28533840179443	picture	0		87	302.0	/experiments/knapen_AOT/AOT_stimuli/pictures/1418_fw.png	319.4031071662903	0.611290693283081
304	258.88245391845703	response	0	k		302.0	/experiments/knapen_AOT/AOT_stimuli/pictures/1418_fw.png	320.0002226829529	
305	258.8966290950775	picture	0		191	303.0	/experiments/knapen_AOT/AOT_stimuli/pictures/0463_fw.png	320.01439785957336	1.3330917358398438
305	260.2167646884918	response	0	j		303.0	/experiments/knapen_AOT/AOT_stimuli/pictures/0463_fw.png	321.33453345298767	
306	260.22972083091736	picture	0		134	304.0	/experiments/knapen_AOT/AOT_stimuli/pictures/1243_fw.png	321.3474895954132	0.9380712509155273
306	261.15360021591187	response	0	j		304.0	/experiments/knapen_AOT/AOT_stimuli/pictures/1243_fw.png	322.2713689804077	
307	261.1677920818329	picture	0		102	305.0	/experiments/knapen_AOT/AOT_stimuli/pictures/1853_fw.png	322.28556084632874	0.7147812843322754
307	261.86265993118286	response	0	j		305.0	/experiments/knapen_AOT/AOT_stimuli/pictures/1853_fw.png	322.9804286956787	
308	261.88257336616516	picture	0		137	306.0	/experiments/knapen_AOT/AOT_stimuli/pictures/0601_fw.png	323.000342130661	0.9586665630340576
308	262.82749247550964	response	0	k		306.0	/experiments/knapen_AOT/AOT_stimuli/pictures/0601_fw.png	323.9452612400055	
309	262.8412399291992	picture	0		105	307.0	/experiments/knapen_AOT/AOT_stimuli/pictures/1308_fw.png	323.95900869369507	0.7358827590942383
309	263.5633776187897	response	0	k		307.0	/experiments/knapen_AOT/AOT_stimuli/pictures/1308_fw.png	324.6811463832855	
310	263.57712268829346	picture	0		108	308.0	/experiments/knapen_AOT/AOT_stimuli/pictures/0881_fw.png	324.6948914527893	0.7575747966766357
310	264.3201696872711	response	0	j		308.0	/experiments/knapen_AOT/AOT_stimuli/pictures/0881_fw.png	325.43793845176697	
311	264.3346974849701	picture	0		164	309.0	/experiments/knapen_AOT/AOT_stimuli/pictures/1429_fw.png	325.45246624946594	1.1392812728881836
311	265.46588802337646	response	0	k		309.0	/experiments/knapen_AOT/AOT_stimuli/pictures/1429_fw.png	326.5836567878723	
312	265.4739787578583	picture	0		93	310.0	/experiments/knapen_AOT/AOT_stimuli/pictures/0203_fw.png	326.5917475223541	0.6529021263122559
312	266.1187801361084	response	0	k		310.0	/experiments/knapen_AOT/AOT_stimuli/pictures/0203_fw.png	327.23654890060425	
313	266.12688088417053	picture	0		102	311.0	/experiments/knapen_AOT/AOT_stimuli/pictures/2005_fw.png	327.2446496486664	0.7143416404724121
313	266.82785725593567	response	0	j		311.0	/experiments/knapen_AOT/AOT_stimuli/pictures/2005_fw.png	327.9456260204315	
314	266.84122252464294	picture	0		94	312.0	/experiments/knapen_AOT/AOT_stimuli/pictures/0125_fw.png	327.9589912891388	0.6536121368408203
314	267.48672366142273	response	0	j		312.0	/experiments/knapen_AOT/AOT_stimuli/pictures/0125_fw.png	328.6044924259186	
315	267.49483466148376	picture	0		91	313.0	/experiments/knapen_AOT/AOT_stimuli/pictures/1808_fw.png	328.6126034259796	0.637904167175293
315	268.11952567100525	response	0	k		313.0	/experiments/knapen_AOT/AOT_stimuli/pictures/1808_fw.png	329.2372944355011	
316	268.13273882865906	picture	0		102	314.0	/experiments/knapen_AOT/AOT_stimuli/pictures/0137_fw.png	329.2505075931549	0.7148997783660889
316	268.834764957428	response	0	k		314.0	/experiments/knapen_AOT/AOT_stimuli/pictures/0137_fw.png	329.9525337219238	
317	268.84763860702515	picture	0		116	315.0	/experiments/knapen_AOT/AOT_stimuli/pictures/2174_fw.png	329.965407371521	0.8128237724304199
317	269.6476089954376	response	0	k		315.0	/experiments/knapen_AOT/AOT_stimuli/pictures/2174_fw.png	330.7653777599335	
318	269.66046237945557	picture	0		94	316.0	/experiments/knapen_AOT/AOT_stimuli/pictures/0584_fw.png	330.7782311439514	0.6595699787139893
318	270.30610632896423	response	0	j		316.0	/experiments/knapen_AOT/AOT_stimuli/pictures/0584_fw.png	331.4238750934601	
319	270.32003235816956	picture	0		104	317.0	/experiments/knapen_AOT/AOT_stimuli/pictures/1400_fw.png	331.4378011226654	0.729987382888794
319	271.03625416755676	response	0	k		317.0	/experiments/knapen_AOT/AOT_stimuli/pictures/1400_fw.png	332.1540229320526	
320	271.05001974105835	picture	0		155	318.0	/experiments/knapen_AOT/AOT_stimuli/pictures/1290_fw.png	332.1677885055542	1.0834639072418213
320	272.11897897720337	response	0	k		318.0	/experiments/knapen_AOT/AOT_stimuli/pictures/1290_fw.png	333.2367477416992	
321	272.13348364830017	picture	0		138	319.0	/experiments/knapen_AOT/AOT_stimuli/pictures/1757_fw.png	333.251252412796	0.9646854400634766
321	273.0848846435547	response	0	k		319.0	/experiments/knapen_AOT/AOT_stimuli/pictures/1757_fw.png	334.20265340805054	
322	273.09816908836365	picture	0		101	320.0	/experiments/knapen_AOT/AOT_stimuli/pictures/0310_fw.png	334.2159378528595	0.7083237171173096
322	273.79314970970154	response	0	j		320.0	/experiments/knapen_AOT/AOT_stimuli/pictures/0310_fw.png	334.9109184741974	
323	273.80649280548096	picture	0		87	321.0	/experiments/knapen_AOT/AOT_stimuli/pictures/1956_fw.png	334.9242615699768	0.6114532947540283
323	274.4035747051239	response	0	k		321.0	/experiments/knapen_AOT/AOT_stimuli/pictures/1956_fw.png	335.52134346961975	
324	274.417946100235	picture	0		95	322.0	/experiments/knapen_AOT/AOT_stimuli/pictures/0131_fw.png	335.53571486473083	0.6670746803283691
324	275.07064843177795	response	0	k		322.0	/experiments/knapen_AOT/AOT_stimuli/pictures/0131_fw.png	336.1884171962738	
325	275.08502078056335	picture	0		93	323.0	/experiments/knapen_AOT/AOT_stimuli/pictures/0128_fw.png	336.2027895450592	0.6526319980621338
325	275.72276043891907	response	0	j		323.0	/experiments/knapen_AOT/AOT_stimuli/pictures/0128_fw.png	336.8405292034149	
326	275.7376527786255	picture	0		103	324.0	/experiments/knapen_AOT/AOT_stimuli/pictures/0453_fw.png	336.85542154312134	0.7220728397369385
326	276.4388234615326	response	0	j		324.0	/experiments/knapen_AOT/AOT_stimuli/pictures/0453_fw.png	337.55659222602844	
327	276.4597256183624	picture	0		90	325.0	/experiments/knapen_AOT/AOT_stimuli/pictures/1052_fw.png	337.5774943828583	0.6319084167480469
327	277.0715141296387	response	0	k		325.0	/experiments/knapen_AOT/AOT_stimuli/pictures/1052_fw.png	338.1892828941345	
328	277.0916340351105	picture	0		89	326.0	/experiments/knapen_AOT/AOT_stimuli/pictures/2105_fw.png	338.2094027996063	0.6246893405914307
328	277.7029197216034	response	0	k		326.0	/experiments/knapen_AOT/AOT_stimuli/pictures/2105_fw.png	338.82068848609924	
329	277.7163233757019	picture	0		129	327.0	/experiments/knapen_AOT/AOT_stimuli/pictures/1025_fw.png	338.83409214019775	0.9032278060913086
329	278.60531520843506	response	0	j		327.0	/experiments/knapen_AOT/AOT_stimuli/pictures/1025_fw.png	339.7230839729309	
330	278.6195511817932	picture	0		136	328.0	/experiments/knapen_AOT/AOT_stimuli/pictures/0480_fw.png	339.73731994628906	0.9506583213806152
330	279.5510425567627	response	0	k		328.0	/experiments/knapen_AOT/AOT_stimuli/pictures/0480_fw.png	340.66881132125854	
331	279.5702095031738	picture	0		108	329.0	/experiments/knapen_AOT/AOT_stimuli/pictures/0637_fw.png	340.6879782676697	0.7511944770812988
331	280.3131260871887	response	0	j		329.0	/experiments/knapen_AOT/AOT_stimuli/pictures/0637_fw.png	341.43089485168457	
332	280.3214039802551	picture	0		100	330.0	/experiments/knapen_AOT/AOT_stimuli/pictures/0723_fw.png	341.439172744751	0.7009203433990479
332	281.00797939300537	response	0	j		330.0	/experiments/knapen_AOT/AOT_stimuli/pictures/0723_fw.png	342.1257481575012	
333	281.0223243236542	picture	0		94	331.0	/experiments/knapen_AOT/AOT_stimuli/pictures/0191_fw.png	342.14009308815	0.6603727340698242
333	281.67425513267517	response	0	k		331.0	/experiments/knapen_AOT/AOT_stimuli/pictures/0191_fw.png	342.792023897171	
334	281.682697057724	picture	0		164	332.0	/experiments/knapen_AOT/AOT_stimuli/pictures/0178_fw.png	342.80046582221985	1.1455092430114746
334	282.80700421333313	response	0	k		332.0	/experiments/knapen_AOT/AOT_stimuli/pictures/0178_fw.png	343.924772977829	
335	282.8282063007355	picture	0		110	333.0	/experiments/knapen_AOT/AOT_stimuli/pictures/1089_fw.png	343.9459750652313	0.770392656326294
335	283.58494687080383	response	0	j		333.0	/experiments/knapen_AOT/AOT_stimuli/pictures/1089_fw.png	344.7027156352997	
336	283.59859895706177	picture	0		79	334.0	/experiments/knapen_AOT/AOT_stimuli/pictures/0962_fw.png	344.7163677215576	0.5554845333099365
336	284.13955569267273	response	0	j		334.0	/experiments/knapen_AOT/AOT_stimuli/pictures/0962_fw.png	345.2573244571686	
337	284.1540834903717	picture	0		102	335.0	/experiments/knapen_AOT/AOT_stimuli/pictures/0714_fw.png	345.27185225486755	0.7090437412261963
337	284.85478115081787	response	0	j		335.0	/experiments/knapen_AOT/AOT_stimuli/pictures/0714_fw.png	345.9725499153137	
338	284.8631272315979	picture	0		112	336.0	/experiments/knapen_AOT/AOT_stimuli/pictures/0531_fw.png	345.98089599609375	0.7840535640716553
338	285.6330075263977	response	0	j		336.0	/experiments/knapen_AOT/AOT_stimuli/pictures/0531_fw.png	346.75077629089355	
339	285.64718079566956	picture	0		238	337.0	/experiments/knapen_AOT/AOT_stimuli/pictures/1050_fw.png	346.7649495601654	1.6592938899993896
339	287.28684282302856	response	0	k		337.0	/experiments/knapen_AOT/AOT_stimuli/pictures/1050_fw.png	348.4046115875244	
340	287.30647468566895	picture	0		106	338.0	/experiments/knapen_AOT/AOT_stimuli/pictures/1107_fw.png	348.4242434501648	0.7436878681182861
340	288.0362117290497	response	0	k		338.0	/experiments/knapen_AOT/AOT_stimuli/pictures/1107_fw.png	349.15398049354553	
341	288.05016255378723	picture	0		128	339.0	/experiments/knapen_AOT/AOT_stimuli/pictures/1981_fw.png	349.1679313182831	0.8951542377471924
341	288.93216848373413	response	0	k		339.0	/experiments/knapen_AOT/AOT_stimuli/pictures/1981_fw.png	350.04993724823	
342	288.9453167915344	picture	0		113	340.0	/experiments/knapen_AOT/AOT_stimuli/pictures/0444_fw.png	350.0630855560303	0.7921624183654785
342	289.72388768196106	response	0	k		340.0	/experiments/knapen_AOT/AOT_stimuli/pictures/0444_fw.png	350.8416564464569	
343	289.7374792098999	picture	0		86	341.0	/experiments/knapen_AOT/AOT_stimuli/pictures/0769_fw.png	350.85524797439575	0.6041064262390137
343	290.32830142974854	response	0	k		341.0	/experiments/knapen_AOT/AOT_stimuli/pictures/0769_fw.png	351.4460701942444	
344	290.3415856361389	picture	0		128	342.0	/experiments/knapen_AOT/AOT_stimuli/pictures/0291_fw.png	351.45935440063477	0.8963513374328613
344	291.22334265708923	response	0	j		342.0	/experiments/knapen_AOT/AOT_stimuli/pictures/0291_fw.png	352.3411114215851	
345	291.2379369735718	picture	0		84	343.0	/experiments/knapen_AOT/AOT_stimuli/pictures/1611_fw.png	352.3557057380676	0.5905396938323975
345	291.8069894313812	response	0	k		343.0	/experiments/knapen_AOT/AOT_stimuli/pictures/1611_fw.png	352.9247581958771	
346	291.8284766674042	picture	0		121	344.0	/experiments/knapen_AOT/AOT_stimuli/pictures/0845_fw.png	352.9462454319	0.8464250564575195
346	292.6617295742035	response	0	k		344.0	/experiments/knapen_AOT/AOT_stimuli/pictures/0845_fw.png	353.77949833869934	
347	292.6749017238617	picture	0		99	345.0	/experiments/knapen_AOT/AOT_stimuli/pictures/0141_fw.png	353.79267048835754	0.6941986083984375
347	293.3556606769562	response	0	k		345.0	/experiments/knapen_AOT/AOT_stimuli/pictures/0141_fw.png	354.473429441452	
348	293.36910033226013	picture	0		111	346.0	/experiments/knapen_AOT/AOT_stimuli/pictures/0285_fw.png	354.486869096756	0.7713725566864014
348	294.12733697891235	response	0	k		346.0	/experiments/knapen_AOT/AOT_stimuli/pictures/0285_fw.png	355.2451057434082	
349	294.14047288894653	picture	0		96	347.0	/experiments/knapen_AOT/AOT_stimuli/pictures/1124_fw.png	355.2582416534424	0.673051118850708
349	294.8000273704529	response	0	j		347.0	/experiments/knapen_AOT/AOT_stimuli/pictures/1124_fw.png	355.91779613494873	
350	294.81352400779724	picture	0		94	348.0	/experiments/knapen_AOT/AOT_stimuli/pictures/0342_fw.png	355.9312927722931	0.6600141525268555
350	295.46018409729004	response	0	j		348.0	/experiments/knapen_AOT/AOT_stimuli/pictures/0342_fw.png	356.5779528617859	
351	295.4735381603241	picture	0		100	349.0	/experiments/knapen_AOT/AOT_stimuli/pictures/0576_fw.png	356.59130692481995	0.7083742618560791
351	296.1684651374817	response	0	k		349.0	/experiments/knapen_AOT/AOT_stimuli/pictures/0576_fw.png	357.28623390197754	
352	296.1819124221802	picture	0		101	350.0	/experiments/knapen_AOT/AOT_stimuli/pictures/1762_fw.png	357.299681186676	0.7082540988922119
352	296.8713927268982	response	0	j		350.0	/experiments/knapen_AOT/AOT_stimuli/pictures/1762_fw.png	357.98916149139404	
353	296.8901665210724	picture	0		103	351.0	/experiments/knapen_AOT/AOT_stimuli/pictures/0515_fw.png	358.00793528556824	0.7225205898284912
353	297.5988574028015	response	0	k		351.0	/experiments/knapen_AOT/AOT_stimuli/pictures/0515_fw.png	358.71662616729736	
354	297.6126871109009	picture	0		103	352.0	/experiments/knapen_AOT/AOT_stimuli/pictures/1058_fw.png	358.73045587539673	0.722175121307373
354	298.32104778289795	response	0	k		352.0	/experiments/knapen_AOT/AOT_stimuli/pictures/1058_fw.png	359.4388165473938	
355	298.33486223220825	picture	0		124	353.0	/experiments/knapen_AOT/AOT_stimuli/pictures/1363_fw.png	359.4526309967041	0.8683006763458252
355	299.18333888053894	response	0	j		353.0	/experiments/knapen_AOT/AOT_stimuli/pictures/1363_fw.png	360.3011076450348	
356	299.2031629085541	picture	0		103	354.0	/experiments/knapen_AOT/AOT_stimuli/pictures/0823_fw.png	360.3209316730499	0.7220377922058105
356	299.91110706329346	response	0	j		354.0	/experiments/knapen_AOT/AOT_stimuli/pictures/0823_fw.png	361.0288758277893	
357	299.9252007007599	picture	0		159	355.0	/experiments/knapen_AOT/AOT_stimuli/pictures/1182_fw.png	361.04296946525574	1.1112055778503418
357	301.01535868644714	response	0	j		355.0	/experiments/knapen_AOT/AOT_stimuli/pictures/1182_fw.png	362.133127450943	
358	301.03640627861023	picture	0		89	356.0	/experiments/knapen_AOT/AOT_stimuli/pictures/1813_fw.png	362.1541750431061	0.6251125335693359
358	301.64679765701294	response	0	k		356.0	/experiments/knapen_AOT/AOT_stimuli/pictures/1813_fw.png	362.7645664215088	
359	301.66151881217957	picture	0		135	357.0	/experiments/knapen_AOT/AOT_stimuli/pictures/1908_fw.png	362.7792875766754	0.94354248046875
359	302.5919089317322	response	0	j		357.0	/experiments/knapen_AOT/AOT_stimuli/pictures/1908_fw.png	363.709677696228	
360	302.6050612926483	picture	0		80	358.0	/experiments/knapen_AOT/AOT_stimuli/pictures/0808_fw.png	363.72283005714417	0.5632879734039307
360	303.1538095474243	response	0	k		358.0	/experiments/knapen_AOT/AOT_stimuli/pictures/0808_fw.png	364.27157831192017	
361	303.16834926605225	picture	0		107	359.0	/experiments/knapen_AOT/AOT_stimuli/pictures/1018_fw.png	364.2861180305481	0.7501566410064697
361	303.90442276000977	response	0	j		359.0	/experiments/knapen_AOT/AOT_stimuli/pictures/1018_fw.png	365.0221915245056	
362	303.9185059070587	stim	0		957			365.03627467155457	6.651821613311768
362	310.5574905872345	response	0	space				371.67525935173035	
