trial_nr	onset	event_type	phase	response	nr_frames	picture_index	picture_file	onset_abs	duration
0	0.20832276344299316	stim	0		904			122.197518825531	7.576326131820679
0	7.7419657707214355	response	0	space				129.73116183280945	
2	7.784648895263672	picture	0		145	0.0	/experiments/knapen_AOT/AOT_stimuli/pictures/1354_fw.png	129.77384495735168	1.2501599788665771
2	8.992934942245483	response	0	j		0.0	/experiments/knapen_AOT/AOT_stimuli/pictures/1354_fw.png	130.9821310043335	
3	9.034808874130249	picture	0		142	1.0	/experiments/knapen_AOT/AOT_stimuli/pictures/2091_fw.png	131.02400493621826	1.2234489917755127
3	10.201773881912231	response	0	k		1.0	/experiments/knapen_AOT/AOT_stimuli/pictures/2091_fw.png	132.19096994400024	
4	10.258257865905762	picture	0		137	2.0	/experiments/knapen_AOT/AOT_stimuli/pictures/0778_fw.png	132.24745392799377	1.1724169254302979
4	11.391729831695557	response	0	k		2.0	/experiments/knapen_AOT/AOT_stimuli/pictures/0778_fw.png	133.38092589378357	
5	11.43067479133606	picture	0		137	3.0	/experiments/knapen_AOT/AOT_stimuli/pictures/0894_fw.png	133.41987085342407	1.1875381469726562
5	12.566751956939697	response	0	k		3.0	/experiments/knapen_AOT/AOT_stimuli/pictures/0894_fw.png	134.5559480190277	
6	12.618212938308716	picture	0		99	4.0	/experiments/knapen_AOT/AOT_stimuli/pictures/1282_fw.png	134.60740900039673	0.8401999473571777
6	13.4335298538208	response	0	j		4.0	/experiments/knapen_AOT/AOT_stimuli/pictures/1282_fw.png	135.4227259159088	
7	13.458412885665894	picture	0		200	5.0	/experiments/knapen_AOT/AOT_stimuli/pictures/1956_fw.png	135.4476089477539	1.6916000843048096
7	15.116850852966309	response	0	j		5.0	/experiments/knapen_AOT/AOT_stimuli/pictures/1956_fw.png	137.10604691505432	
8	15.150012969970703	picture	0		123	6.0	/experiments/knapen_AOT/AOT_stimuli/pictures/0393_fw.png	137.13920903205872	1.0499818325042725
8	16.167004823684692	response	0	k		6.0	/experiments/knapen_AOT/AOT_stimuli/pictures/0393_fw.png	138.1562008857727	
9	16.199994802474976	picture	0		123	7.0	/experiments/knapen_AOT/AOT_stimuli/pictures/0546_fw.png	138.189190864563	1.0431761741638184
9	17.21028184890747	response	0	j		7.0	/experiments/knapen_AOT/AOT_stimuli/pictures/0546_fw.png	139.19947791099548	
10	17.243170976638794	picture	0		108	8.0	/experiments/knapen_AOT/AOT_stimuli/pictures/0462_fw.png	139.2323670387268	0.9236018657684326
10	18.13353395462036	response	0	j		8.0	/experiments/knapen_AOT/AOT_stimuli/pictures/0462_fw.png	140.12273001670837	
11	18.166772842407227	picture	0		115	9.0	/experiments/knapen_AOT/AOT_stimuli/pictures/1433_fw.png	140.15596890449524	0.9791569709777832
11	19.11685585975647	response	0	j		9.0	/experiments/knapen_AOT/AOT_stimuli/pictures/1433_fw.png	141.10605192184448	
12	19.14592981338501	picture	0		155	10.0	/experiments/knapen_AOT/AOT_stimuli/pictures/0883_fw.png	141.13512587547302	1.3055529594421387
12	20.418707847595215	response	0	k		10.0	/experiments/knapen_AOT/AOT_stimuli/pictures/0883_fw.png	142.40790390968323	
13	20.45148277282715	picture	0		208	11.0	/experiments/knapen_AOT/AOT_stimuli/pictures/1487_fw.png	142.44067883491516	1.7736492156982422
13	22.175333976745605	response	0	j		11.0	/experiments/knapen_AOT/AOT_stimuli/pictures/1487_fw.png	144.16453003883362	
14	22.22513198852539	picture	0		95	12.0	/experiments/knapen_AOT/AOT_stimuli/pictures/2144_fw.png	144.2143280506134	0.8416669368743896
14	23.001877784729004	response	0	j		12.0	/experiments/knapen_AOT/AOT_stimuli/pictures/2144_fw.png	144.99107384681702	
15	23.06679892539978	picture	0		103	13.0	/experiments/knapen_AOT/AOT_stimuli/pictures/1099_fw.png	145.0559949874878	0.8847000598907471
15	23.9170138835907	response	0	j		13.0	/experiments/knapen_AOT/AOT_stimuli/pictures/1099_fw.png	145.9062099456787	
16	23.951498985290527	picture	0		113	14.0	/experiments/knapen_AOT/AOT_stimuli/pictures/1691_fw.png	145.94069504737854	0.9820399284362793
16	24.883737802505493	response	0	j		14.0	/experiments/knapen_AOT/AOT_stimuli/pictures/1691_fw.png	146.8729338645935	
17	24.933538913726807	picture	0		99	15.0	/experiments/knapen_AOT/AOT_stimuli/pictures/0552_fw.png	146.92273497581482	0.8374428749084473
17	25.750343799591064	response	0	k		15.0	/experiments/knapen_AOT/AOT_stimuli/pictures/0552_fw.png	147.73953986167908	
18	25.770981788635254	picture	0		143	16.0	/experiments/knapen_AOT/AOT_stimuli/pictures/1497_fw.png	147.76017785072327	1.20831298828125
18	26.950443983078003	response	0	k		16.0	/experiments/knapen_AOT/AOT_stimuli/pictures/1497_fw.png	148.93964004516602	
19	26.979294776916504	picture	0		107	17.0	/experiments/knapen_AOT/AOT_stimuli/pictures/1055_fw.png	148.96849083900452	0.9125001430511475
19	27.85857892036438	response	0	j		17.0	/experiments/knapen_AOT/AOT_stimuli/pictures/1055_fw.png	149.8477749824524	
20	27.89179491996765	picture	0		114	18.0	/experiments/knapen_AOT/AOT_stimuli/pictures/1811_fw.png	149.88099098205566	0.9694559574127197
20	28.833882808685303	response	0	k		18.0	/experiments/knapen_AOT/AOT_stimuli/pictures/1811_fw.png	150.82307887077332	
21	28.86125087738037	picture	0		149	19.0	/experiments/knapen_AOT/AOT_stimuli/pictures/2049_fw.png	150.85044693946838	1.2639660835266113
21	30.09197688102722	response	0	k		19.0	/experiments/knapen_AOT/AOT_stimuli/pictures/2049_fw.png	152.08117294311523	
22	30.125216960906982	picture	0		137	20.0	/experiments/knapen_AOT/AOT_stimuli/pictures/0496_fw.png	152.114413022995	1.1805799007415771
22	31.258922815322876	response	0	j		20.0	/experiments/knapen_AOT/AOT_stimuli/pictures/0496_fw.png	153.2481188774109	
23	31.30579686164856	picture	0		148	21.0	/experiments/knapen_AOT/AOT_stimuli/pictures/0838_fw.png	153.29499292373657	1.3861029148101807
23	32.5337028503418	response	0	k		21.0	/experiments/knapen_AOT/AOT_stimuli/pictures/0838_fw.png	154.5228989124298	
24	32.69189977645874	picture	0		128	22.0	/experiments/knapen_AOT/AOT_stimuli/pictures/1226_fw.png	154.68109583854675	1.1000220775604248
24	33.75043797492981	response	0	k		22.0	/experiments/knapen_AOT/AOT_stimuli/pictures/1226_fw.png	155.73963403701782	
25	33.791921854019165	picture	0		210	23.0	/experiments/knapen_AOT/AOT_stimuli/pictures/1989_fw.png	155.78111791610718	1.7706859111785889
25	35.53386998176575	response	0	j		23.0	/experiments/knapen_AOT/AOT_stimuli/pictures/1989_fw.png	157.52306604385376	
26	35.562607765197754	picture	0		105	24.0	/experiments/knapen_AOT/AOT_stimuli/pictures/1021_fw.png	157.55180382728577	0.9043610095977783
26	36.41871976852417	response	0	j		24.0	/experiments/knapen_AOT/AOT_stimuli/pictures/1021_fw.png	158.40791583061218	
27	36.46696877479553	picture	0		130	25.0	/experiments/knapen_AOT/AOT_stimuli/pictures/1682_fw.png	158.45616483688354	1.116732120513916
27	37.54210376739502	response	0	j		25.0	/experiments/knapen_AOT/AOT_stimuli/pictures/1682_fw.png	159.53129982948303	
28	37.58370089530945	picture	0		110	26.0	/experiments/knapen_AOT/AOT_stimuli/pictures/1264_fw.png	159.57289695739746	0.9443120956420898
28	38.492135763168335	response	0	k		26.0	/experiments/knapen_AOT/AOT_stimuli/pictures/1264_fw.png	160.48133182525635	
29	38.52801299095154	picture	0		148	27.0	/experiments/knapen_AOT/AOT_stimuli/pictures/0317_fw.png	160.51720905303955	1.2430880069732666
29	39.7504358291626	response	0	j		27.0	/experiments/knapen_AOT/AOT_stimuli/pictures/0317_fw.png	161.7396318912506	
30	39.771100997924805	picture	0		131	28.0	/experiments/knapen_AOT/AOT_stimuli/pictures/1393_fw.png	161.76029706001282	1.112562894821167
30	40.850475788116455	response	0	k		28.0	/experiments/knapen_AOT/AOT_stimuli/pictures/1393_fw.png	162.83967185020447	
31	40.88366389274597	picture	0		126	29.0	/experiments/knapen_AOT/AOT_stimuli/pictures/2178_fw.png	162.87285995483398	1.0680129528045654
31	41.92552995681763	response	0	k		29.0	/experiments/knapen_AOT/AOT_stimuli/pictures/2178_fw.png	163.91472601890564	
32	41.95167684555054	picture	0		115	30.0	/experiments/knapen_AOT/AOT_stimuli/pictures/2083_fw.png	163.94087290763855	1.1237211227416992
32	42.900436878204346	response	0	k		30.0	/experiments/knapen_AOT/AOT_stimuli/pictures/2083_fw.png	164.88963294029236	
33	43.075397968292236	picture	0		102	31.0	/experiments/knapen_AOT/AOT_stimuli/pictures/0310_fw.png	165.06459403038025	0.87630295753479
33	43.917194843292236	response	0	j		31.0	/experiments/knapen_AOT/AOT_stimuli/pictures/0310_fw.png	165.90639090538025	
34	43.951700925827026	picture	0		179	32.0	/experiments/knapen_AOT/AOT_stimuli/pictures/0714_fw.png	165.94089698791504	1.499979019165039
34	45.42711782455444	response	0	j		32.0	/experiments/knapen_AOT/AOT_stimuli/pictures/0714_fw.png	167.41631388664246	
35	45.451679944992065	picture	0		133	33.0	/experiments/knapen_AOT/AOT_stimuli/pictures/1162_fw.png	167.44087600708008	1.1251130104064941
35	46.55056595802307	response	0	j		33.0	/experiments/knapen_AOT/AOT_stimuli/pictures/1162_fw.png	168.53976202011108	
36	46.57679295539856	picture	0		101	34.0	/experiments/knapen_AOT/AOT_stimuli/pictures/0715_fw.png	168.56598901748657	0.9166288375854492
36	47.40210294723511	response	0	j		34.0	/experiments/knapen_AOT/AOT_stimuli/pictures/0715_fw.png	169.39129900932312	
37	47.49342179298401	picture	0		136	35.0	/experiments/knapen_AOT/AOT_stimuli/pictures/0028_fw.png	169.48261785507202	1.1903021335601807
37	48.6104998588562	response	0	j		35.0	/experiments/knapen_AOT/AOT_stimuli/pictures/0028_fw.png	170.5996959209442	
38	48.68372392654419	picture	0		93	36.0	/experiments/knapen_AOT/AOT_stimuli/pictures/0087_fw.png	170.6729199886322	0.8083820343017578
38	49.4506299495697	response	0	j		36.0	/experiments/knapen_AOT/AOT_stimuli/pictures/0087_fw.png	171.43982601165771	
39	49.49210596084595	picture	0		93	37.0	/experiments/knapen_AOT/AOT_stimuli/pictures/1884_fw.png	171.48130202293396	0.9250149726867676
39	50.25902080535889	response	0	j		37.0	/experiments/knapen_AOT/AOT_stimuli/pictures/1884_fw.png	172.2482168674469	
40	50.417120933532715	picture	0		134	38.0	/experiments/knapen_AOT/AOT_stimuli/pictures/1593_fw.png	172.40631699562073	1.1500179767608643
40	51.52557587623596	response	0	j		38.0	/experiments/knapen_AOT/AOT_stimuli/pictures/1593_fw.png	173.51477193832397	
41	51.56713891029358	picture	0		93	39.0	/experiments/knapen_AOT/AOT_stimuli/pictures/0870_fw.png	173.5563349723816	0.9166920185089111
41	52.33399295806885	response	0	k		39.0	/experiments/knapen_AOT/AOT_stimuli/pictures/0870_fw.png	174.32318902015686	
42	52.48383092880249	picture	0		99	40.0	/experiments/knapen_AOT/AOT_stimuli/pictures/1844_fw.png	174.4730269908905	0.8430109024047852
42	53.30074191093445	response	0	k		40.0	/experiments/knapen_AOT/AOT_stimuli/pictures/1844_fw.png	175.28993797302246	
43	53.326841831207275	picture	0		134	41.0	/experiments/knapen_AOT/AOT_stimuli/pictures/1762_fw.png	175.3160378932953	1.140305995941162
43	54.42721390724182	response	0	j		41.0	/experiments/knapen_AOT/AOT_stimuli/pictures/1762_fw.png	176.41640996932983	
44	54.46714782714844	picture	0		154	42.0	/experiments/knapen_AOT/AOT_stimuli/pictures/0612_fw.png	176.45634388923645	1.304098129272461
44	55.74230098724365	response	0	j		42.0	/experiments/knapen_AOT/AOT_stimuli/pictures/0612_fw.png	177.73149704933167	
45	55.7712459564209	picture	0		106	43.0	/experiments/knapen_AOT/AOT_stimuli/pictures/1509_fw.png	177.7604420185089	0.8888719081878662
45	56.642284870147705	response	0	j		43.0	/experiments/knapen_AOT/AOT_stimuli/pictures/1509_fw.png	178.63148093223572	
46	56.660117864608765	picture	0		133	44.0	/experiments/knapen_AOT/AOT_stimuli/pictures/0445_fw.png	178.64931392669678	1.1320528984069824
46	57.75912880897522	response	0	j		44.0	/experiments/knapen_AOT/AOT_stimuli/pictures/0445_fw.png	179.74832487106323	
47	57.79217076301575	picture	0		95	45.0	/experiments/knapen_AOT/AOT_stimuli/pictures/0682_fw.png	179.78136682510376	0.8193211555480957
47	58.575716972351074	response	0	k		45.0	/experiments/knapen_AOT/AOT_stimuli/pictures/0682_fw.png	180.5649130344391	
48	58.61149191856384	picture	0		144	46.0	/experiments/knapen_AOT/AOT_stimuli/pictures/2120_fw.png	180.60068798065186	1.2152628898620605
48	59.80077886581421	response	0	k		46.0	/experiments/knapen_AOT/AOT_stimuli/pictures/2120_fw.png	181.78997492790222	
49	59.8267548084259	picture	0		156	47.0	/experiments/knapen_AOT/AOT_stimuli/pictures/0025_fw.png	181.81595087051392	1.320199966430664
49	61.1187858581543	response	0	k		47.0	/experiments/knapen_AOT/AOT_stimuli/pictures/0025_fw.png	183.1079819202423	
50	61.14695477485657	picture	0		106	48.0	/experiments/knapen_AOT/AOT_stimuli/pictures/1228_fw.png	183.13615083694458	0.9159321784973145
50	62.01889896392822	response	0	j		48.0	/experiments/knapen_AOT/AOT_stimuli/pictures/1228_fw.png	184.00809502601624	
51	62.06288695335388	picture	0		105	49.0	/experiments/knapen_AOT/AOT_stimuli/pictures/1254_fw.png	184.0520830154419	0.9127800464630127
51	62.925779819488525	response	0	j		49.0	/experiments/knapen_AOT/AOT_stimuli/pictures/1254_fw.png	184.91497588157654	
52	62.975666999816895	picture	0		139	50.0	/experiments/knapen_AOT/AOT_stimuli/pictures/2151_fw.png	184.9648630619049	1.184553861618042
52	64.12572693824768	response	0	k		50.0	/experiments/knapen_AOT/AOT_stimuli/pictures/2151_fw.png	186.1149230003357	
53	64.16022086143494	picture	0		101	51.0	/experiments/knapen_AOT/AOT_stimuli/pictures/1250_fw.png	186.14941692352295	0.8610191345214844
53	64.9924328327179	response	0	j		51.0	/experiments/knapen_AOT/AOT_stimuli/pictures/1250_fw.png	186.9816288948059	
54	65.02123999595642	picture	0		108	52.0	/experiments/knapen_AOT/AOT_stimuli/pictures/1067_fw.png	187.01043605804443	1.0139307975769043
54	65.90916991233826	response	0	j		52.0	/experiments/knapen_AOT/AOT_stimuli/pictures/1067_fw.png	187.89836597442627	
55	66.03517079353333	picture	0		93	53.0	/experiments/knapen_AOT/AOT_stimuli/pictures/0447_fw.png	188.02436685562134	0.7987751960754395
55	66.8009238243103	response	0	j		53.0	/experiments/knapen_AOT/AOT_stimuli/pictures/0447_fw.png	188.79011988639832	
56	66.83394598960876	picture	0		110	54.0	/experiments/knapen_AOT/AOT_stimuli/pictures/0213_fw.png	188.82314205169678	0.9512028694152832
56	67.74243783950806	response	0	k		54.0	/experiments/knapen_AOT/AOT_stimuli/pictures/0213_fw.png	189.73163390159607	
57	67.78514885902405	picture	0		119	55.0	/experiments/knapen_AOT/AOT_stimuli/pictures/0065_fw.png	189.77434492111206	1.0157010555267334
57	68.76742792129517	response	0	k		55.0	/experiments/knapen_AOT/AOT_stimuli/pictures/0065_fw.png	190.75662398338318	
58	68.80084991455078	picture	0		91	56.0	/experiments/knapen_AOT/AOT_stimuli/pictures/1218_fw.png	190.7900459766388	0.7831680774688721
58	69.550940990448	response	0	j		56.0	/experiments/knapen_AOT/AOT_stimuli/pictures/1218_fw.png	191.540137052536	
59	69.58401799201965	picture	0		107	57.0	/experiments/knapen_AOT/AOT_stimuli/pictures/0670_fw.png	191.57321405410767	0.937262773513794
59	70.46758794784546	response	0	j		57.0	/experiments/knapen_AOT/AOT_stimuli/pictures/0670_fw.png	192.45678400993347	
60	70.52128076553345	picture	0		134	58.0	/experiments/knapen_AOT/AOT_stimuli/pictures/1019_fw.png	192.51047682762146	1.1389601230621338
60	71.6191828250885	response	0	j		58.0	/experiments/knapen_AOT/AOT_stimuli/pictures/1019_fw.png	193.6083788871765	
61	71.66024088859558	picture	0		106	59.0	/experiments/knapen_AOT/AOT_stimuli/pictures/0081_fw.png	193.6494369506836	0.9028580188751221
61	72.53422379493713	response	0	k		59.0	/experiments/knapen_AOT/AOT_stimuli/pictures/0081_fw.png	194.52341985702515	
62	72.5630989074707	picture	0		127	60.0	/experiments/knapen_AOT/AOT_stimuli/pictures/0709_fw.png	194.55229496955872	1.0710499286651611
62	73.60258889198303	response	0	j		60.0	/experiments/knapen_AOT/AOT_stimuli/pictures/0709_fw.png	195.59178495407104	
63	73.63414883613586	picture	0		96	61.0	/experiments/knapen_AOT/AOT_stimuli/pictures/0516_fw.png	195.62334489822388	0.8525271415710449
63	74.45920395851135	response	0	j		61.0	/experiments/knapen_AOT/AOT_stimuli/pictures/0516_fw.png	196.44840002059937	
64	74.48667597770691	picture	0		98	62.0	/experiments/knapen_AOT/AOT_stimuli/pictures/0574_fw.png	196.47587203979492	0.840216875076294
64	75.29252481460571	response	0	j		62.0	/experiments/knapen_AOT/AOT_stimuli/pictures/0574_fw.png	197.28172087669373	
65	75.3268928527832	picture	0		134	63.0	/experiments/knapen_AOT/AOT_stimuli/pictures/0448_fw.png	197.31608891487122	1.1458461284637451
65	76.43431496620178	response	0	j		63.0	/experiments/knapen_AOT/AOT_stimuli/pictures/0448_fw.png	198.4235110282898	
66	76.47273898124695	picture	0		94	64.0	/experiments/knapen_AOT/AOT_stimuli/pictures/2119_fw.png	198.46193504333496	0.8196799755096436
66	77.25088787078857	response	0	j		64.0	/experiments/knapen_AOT/AOT_stimuli/pictures/2119_fw.png	199.2400839328766	
67	77.29241895675659	picture	0		108	65.0	/experiments/knapen_AOT/AOT_stimuli/pictures/1160_fw.png	199.2816150188446	0.9250528812408447
67	78.18423676490784	response	0	j		65.0	/experiments/knapen_AOT/AOT_stimuli/pictures/1160_fw.png	200.17343282699585	
68	78.21747183799744	picture	0		185	66.0	/experiments/knapen_AOT/AOT_stimuli/pictures/0211_fw.png	200.20666790008545	1.5607359409332275
68	79.75108695030212	response	0	j		66.0	/experiments/knapen_AOT/AOT_stimuli/pictures/0211_fw.png	201.74028301239014	
69	79.77820777893066	picture	0		140	67.0	/experiments/knapen_AOT/AOT_stimuli/pictures/0186_fw.png	201.76740384101868	1.189291000366211
69	80.93430089950562	response	0	j		67.0	/experiments/knapen_AOT/AOT_stimuli/pictures/0186_fw.png	202.92349696159363	
70	80.96749877929688	picture	0		119	68.0	/experiments/knapen_AOT/AOT_stimuli/pictures/1916_fw.png	202.9566948413849	1.0192310810089111
70	81.95096492767334	response	0	k		68.0	/experiments/knapen_AOT/AOT_stimuli/pictures/1916_fw.png	203.94016098976135	
71	81.98672986030579	picture	0		118	69.0	/experiments/knapen_AOT/AOT_stimuli/pictures/1130_fw.png	203.9759259223938	1.0309209823608398
71	82.95928192138672	response	0	k		69.0	/experiments/knapen_AOT/AOT_stimuli/pictures/1130_fw.png	204.94847798347473	
72	83.01765084266663	picture	0		108	70.0	/experiments/knapen_AOT/AOT_stimuli/pictures/1565_fw.png	205.00684690475464	0.9273660182952881
72	83.9093279838562	response	0	k		70.0	/experiments/knapen_AOT/AOT_stimuli/pictures/1565_fw.png	205.8985240459442	
73	83.94501686096191	picture	0		101	71.0	/experiments/knapen_AOT/AOT_stimuli/pictures/1591_fw.png	205.93421292304993	0.8725640773773193
73	84.77601790428162	response	0	j		71.0	/experiments/knapen_AOT/AOT_stimuli/pictures/1591_fw.png	206.76521396636963	
74	84.81758093833923	picture	0		164	72.0	/experiments/knapen_AOT/AOT_stimuli/pictures/0019_fw.png	206.80677700042725	1.3916399478912354
74	86.1761429309845	response	0	j		72.0	/experiments/knapen_AOT/AOT_stimuli/pictures/0019_fw.png	208.1653389930725	
75	86.20922088623047	picture	0		150	73.0	/experiments/knapen_AOT/AOT_stimuli/pictures/0056_fw.png	208.19841694831848	1.2916769981384277
75	87.45118188858032	response	0	j		73.0	/experiments/knapen_AOT/AOT_stimuli/pictures/0056_fw.png	209.44037795066833	
76	87.5008978843689	picture	0		124	74.0	/experiments/knapen_AOT/AOT_stimuli/pictures/1727_fw.png	209.4900939464569	1.0622920989990234
76	88.5260238647461	response	0	k		74.0	/experiments/knapen_AOT/AOT_stimuli/pictures/1727_fw.png	210.5152199268341	
77	88.56318998336792	picture	0		95	75.0	/experiments/knapen_AOT/AOT_stimuli/pictures/0762_fw.png	210.55238604545593	0.8127028942108154
77	89.34289288520813	response	0	k		75.0	/experiments/knapen_AOT/AOT_stimuli/pictures/0762_fw.png	211.33208894729614	
78	89.37589287757874	picture	0		133	76.0	/experiments/knapen_AOT/AOT_stimuli/pictures/0237_fw.png	211.36508893966675	1.125011920928955
78	90.47606086730957	response	0	k		76.0	/experiments/knapen_AOT/AOT_stimuli/pictures/0237_fw.png	212.46525692939758	
79	90.50090479850769	picture	0		135	77.0	/experiments/knapen_AOT/AOT_stimuli/pictures/2003_fw.png	212.4901008605957	1.1594371795654297
79	91.61098098754883	response	0	j		77.0	/experiments/knapen_AOT/AOT_stimuli/pictures/2003_fw.png	213.60017704963684	
80	91.66034197807312	picture	0		156	78.0	/experiments/knapen_AOT/AOT_stimuli/pictures/0112_fw.png	213.64953804016113	1.3333489894866943
80	92.95118880271912	response	0	j		78.0	/experiments/knapen_AOT/AOT_stimuli/pictures/0112_fw.png	214.94038486480713	
81	92.99369096755981	picture	0		108	79.0	/experiments/knapen_AOT/AOT_stimuli/pictures/1243_fw.png	214.98288702964783	0.9239499568939209
81	93.88447093963623	response	0	k		79.0	/experiments/knapen_AOT/AOT_stimuli/pictures/1243_fw.png	215.87366700172424	
82	93.91764092445374	picture	0		96	80.0	/experiments/knapen_AOT/AOT_stimuli/pictures/0529_fw.png	215.90683698654175	0.8260409832000732
82	94.70944380760193	response	0	k		80.0	/experiments/knapen_AOT/AOT_stimuli/pictures/0529_fw.png	216.69863986968994	
83	94.74368190765381	picture	0		106	81.0	/experiments/knapen_AOT/AOT_stimuli/pictures/0559_fw.png	216.73287796974182	0.9097280502319336
83	95.61120796203613	response	0	j		81.0	/experiments/knapen_AOT/AOT_stimuli/pictures/0559_fw.png	217.60040402412415	
84	95.65340995788574	picture	0		169	82.0	/experiments/knapen_AOT/AOT_stimuli/pictures/0977_fw.png	217.64260601997375	1.423555850982666
84	97.05118680000305	response	0	k		82.0	/experiments/knapen_AOT/AOT_stimuli/pictures/0977_fw.png	219.04038286209106	
85	97.07696580886841	picture	0		90	83.0	/experiments/knapen_AOT/AOT_stimuli/pictures/0662_fw.png	219.06616187095642	0.7710151672363281
85	97.81126189231873	response	0	j		83.0	/experiments/knapen_AOT/AOT_stimuli/pictures/0662_fw.png	219.80045795440674	
86	97.84798097610474	picture	0		98	84.0	/experiments/knapen_AOT/AOT_stimuli/pictures/1372_fw.png	219.83717703819275	0.8402450084686279
86	98.6595048904419	response	0	j		84.0	/experiments/knapen_AOT/AOT_stimuli/pictures/1372_fw.png	220.6487009525299	
87	98.68822598457336	picture	0		124	85.0	/experiments/knapen_AOT/AOT_stimuli/pictures/1011_fw.png	220.67742204666138	1.0555570125579834
87	99.70961380004883	response	0	j		85.0	/experiments/knapen_AOT/AOT_stimuli/pictures/1011_fw.png	221.69880986213684	
88	99.74378299713135	picture	0		139	86.0	/experiments/knapen_AOT/AOT_stimuli/pictures/0969_fw.png	221.73297905921936	1.1822807788848877
88	100.8929169178009	response	0	j		86.0	/experiments/knapen_AOT/AOT_stimuli/pictures/0969_fw.png	222.88211297988892	
89	100.92606377601624	picture	0		102	87.0	/experiments/knapen_AOT/AOT_stimuli/pictures/0764_fw.png	222.91525983810425	0.8802061080932617
89	101.76790595054626	response	0	j		87.0	/experiments/knapen_AOT/AOT_stimuli/pictures/0764_fw.png	223.75710201263428	
90	101.8062698841095	picture	0		97	88.0	/experiments/knapen_AOT/AOT_stimuli/pictures/0728_fw.png	223.7954659461975	0.8365540504455566
90	102.60268497467041	response	0	j		88.0	/experiments/knapen_AOT/AOT_stimuli/pictures/0728_fw.png	224.59188103675842	
91	102.64282393455505	picture	0		95	89.0	/experiments/knapen_AOT/AOT_stimuli/pictures/1562_fw.png	224.63201999664307	0.8666980266571045
91	103.41947793960571	response	0	j		89.0	/experiments/knapen_AOT/AOT_stimuli/pictures/1562_fw.png	225.40867400169373	
92	103.50952196121216	picture	0		104	90.0	/experiments/knapen_AOT/AOT_stimuli/pictures/0618_fw.png	225.49871802330017	0.8801538944244385
92	104.36804389953613	response	0	j		90.0	/experiments/knapen_AOT/AOT_stimuli/pictures/0618_fw.png	226.35723996162415	
93	104.3896758556366	picture	0		236	91.0	/experiments/knapen_AOT/AOT_stimuli/pictures/0078_fw.png	226.3788719177246	2.086493968963623
93	106.35130286216736	response	0	j		91.0	/experiments/knapen_AOT/AOT_stimuli/pictures/0078_fw.png	228.34049892425537	
94	106.47616982460022	picture	0		97	92.0	/experiments/knapen_AOT/AOT_stimuli/pictures/1315_fw.png	228.46536588668823	0.8370580673217773
94	107.27628898620605	response	0	j		92.0	/experiments/knapen_AOT/AOT_stimuli/pictures/1315_fw.png	229.26548504829407	
95	107.313227891922	picture	0		90	93.0	/experiments/knapen_AOT/AOT_stimuli/pictures/2125_fw.png	229.30242395401	0.7712299823760986
95	108.05128884315491	response	0	k		93.0	/experiments/knapen_AOT/AOT_stimuli/pictures/2125_fw.png	230.04048490524292	
96	108.0844578742981	picture	0		97	94.0	/experiments/knapen_AOT/AOT_stimuli/pictures/1598_fw.png	230.0736539363861	0.8417420387268066
96	108.88475799560547	response	0	j		94.0	/experiments/knapen_AOT/AOT_stimuli/pictures/1598_fw.png	230.87395405769348	
97	108.9261999130249	picture	0		193	95.0	/experiments/knapen_AOT/AOT_stimuli/pictures/1651_fw.png	230.91539597511292	1.6438989639282227
97	110.52635192871094	response	0	k		95.0	/experiments/knapen_AOT/AOT_stimuli/pictures/1651_fw.png	232.51554799079895	
98	110.57009887695312	picture	0		225	96.0	/experiments/knapen_AOT/AOT_stimuli/pictures/1792_fw.png	232.55929493904114	1.9028339385986328
98	112.42794299125671	response	0	j		96.0	/experiments/knapen_AOT/AOT_stimuli/pictures/1792_fw.png	234.41713905334473	
99	112.47293281555176	picture	0		181	97.0	/experiments/knapen_AOT/AOT_stimuli/pictures/1900_fw.png	234.46212887763977	1.5416371822357178
99	113.9763879776001	response	0	j		97.0	/experiments/knapen_AOT/AOT_stimuli/pictures/1900_fw.png	235.9655840396881	
100	114.01456999778748	picture	0		94	98.0	/experiments/knapen_AOT/AOT_stimuli/pictures/1146_fw.png	236.0037660598755	0.8056418895721436
100	114.79305791854858	response	0	k		98.0	/experiments/knapen_AOT/AOT_stimuli/pictures/1146_fw.png	236.7822539806366	
101	114.82021188735962	picture	0		100	99.0	/experiments/knapen_AOT/AOT_stimuli/pictures/1072_fw.png	236.80940794944763	0.8611340522766113
101	115.64309692382812	response	0	j		99.0	/experiments/knapen_AOT/AOT_stimuli/pictures/1072_fw.png	237.63229298591614	
102	115.68134593963623	picture	0		118	100.0	/experiments/knapen_AOT/AOT_stimuli/pictures/1600_fw.png	237.67054200172424	1.0069420337677002
102	116.65987396240234	response	0	k		100.0	/experiments/knapen_AOT/AOT_stimuli/pictures/1600_fw.png	238.64907002449036	
103	116.68828797340393	picture	0		110	101.0	/experiments/knapen_AOT/AOT_stimuli/pictures/0984_fw.png	238.67748403549194	0.9307239055633545
103	117.59325695037842	response	0	j		101.0	/experiments/knapen_AOT/AOT_stimuli/pictures/0984_fw.png	239.58245301246643	
104	117.61901187896729	picture	0		98	102.0	/experiments/knapen_AOT/AOT_stimuli/pictures/0361_fw.png	239.6082079410553	0.8490879535675049
104	118.41968488693237	response	0	j		102.0	/experiments/knapen_AOT/AOT_stimuli/pictures/0361_fw.png	240.40888094902039	
105	118.46809983253479	picture	0		114	103.0	/experiments/knapen_AOT/AOT_stimuli/pictures/0198_fw.png	240.4572958946228	0.9748921394348145
105	119.40310788154602	response	0	k		103.0	/experiments/knapen_AOT/AOT_stimuli/pictures/0198_fw.png	241.39230394363403	
106	119.4429919719696	picture	0		107	104.0	/experiments/knapen_AOT/AOT_stimuli/pictures/1986_fw.png	241.43218803405762	0.9120290279388428
106	120.32647490501404	response	0	k		104.0	/experiments/knapen_AOT/AOT_stimuli/pictures/1986_fw.png	242.31567096710205	
107	120.35502099990845	picture	0		98	105.0	/experiments/knapen_AOT/AOT_stimuli/pictures/0013_fw.png	242.34421706199646	0.8380429744720459
107	121.16073083877563	response	0	k		105.0	/experiments/knapen_AOT/AOT_stimuli/pictures/0013_fw.png	243.14992690086365	
108	121.1930639743805	picture	0		102	106.0	/experiments/knapen_AOT/AOT_stimuli/pictures/0744_fw.png	243.1822600364685	0.8749868869781494
108	122.02807784080505	response	0	k		106.0	/experiments/knapen_AOT/AOT_stimuli/pictures/0744_fw.png	244.01727390289307	
109	122.06805086135864	picture	0		145	107.0	/experiments/knapen_AOT/AOT_stimuli/pictures/0403_fw.png	244.05724692344666	1.241652011871338
109	123.26819181442261	response	0	k		107.0	/experiments/knapen_AOT/AOT_stimuli/pictures/0403_fw.png	245.25738787651062	
110	123.30970287322998	picture	0		95	108.0	/experiments/knapen_AOT/AOT_stimuli/pictures/0219_fw.png	245.298898935318	0.8166720867156982
110	124.09323596954346	response	0	j		108.0	/experiments/knapen_AOT/AOT_stimuli/pictures/0219_fw.png	246.08243203163147	
111	124.12637495994568	picture	0		95	109.0	/experiments/knapen_AOT/AOT_stimuli/pictures/1577_fw.png	246.1155710220337	0.8333439826965332
111	124.91000485420227	response	0	j		109.0	/experiments/knapen_AOT/AOT_stimuli/pictures/1577_fw.png	246.89920091629028	
112	124.95971894264221	picture	0		87	110.0	/experiments/knapen_AOT/AOT_stimuli/pictures/0898_fw.png	246.94891500473022	0.7583649158477783
112	125.67658591270447	response	0	j		110.0	/experiments/knapen_AOT/AOT_stimuli/pictures/0898_fw.png	247.66578197479248	
113	125.71808385848999	picture	0		106	111.0	/experiments/knapen_AOT/AOT_stimuli/pictures/0640_fw.png	247.707279920578	0.9008591175079346
113	126.5932149887085	response	0	j		111.0	/experiments/knapen_AOT/AOT_stimuli/pictures/0640_fw.png	248.5824110507965	
114	126.61894297599792	picture	0		171	112.0	/experiments/knapen_AOT/AOT_stimuli/pictures/1908_fw.png	248.60813903808594	1.4582428932189941
114	128.0282998085022	response	0	k		112.0	/experiments/knapen_AOT/AOT_stimuli/pictures/1908_fw.png	250.0174958705902	
115	128.07718586921692	picture	0		104	113.0	/experiments/knapen_AOT/AOT_stimuli/pictures/0742_fw.png	250.06638193130493	0.8992710113525391
115	128.934907913208	response	0	j		113.0	/experiments/knapen_AOT/AOT_stimuli/pictures/0742_fw.png	250.92410397529602	
116	128.97645688056946	picture	0		105	114.0	/experiments/knapen_AOT/AOT_stimuli/pictures/1973_fw.png	250.96565294265747	0.8926138877868652
116	129.84324383735657	response	0	j		114.0	/experiments/knapen_AOT/AOT_stimuli/pictures/1973_fw.png	251.83243989944458	
117	129.86907076835632	picture	0		198	115.0	/experiments/knapen_AOT/AOT_stimuli/pictures/1674_fw.png	251.85826683044434	1.6740591526031494
117	131.5100748538971	response	0	j		115.0	/experiments/knapen_AOT/AOT_stimuli/pictures/1674_fw.png	253.4992709159851	
118	131.54312992095947	picture	0		92	116.0	/experiments/knapen_AOT/AOT_stimuli/pictures/0514_fw.png	253.53232598304749	0.7916910648345947
118	132.30166888237	response	0	j		116.0	/experiments/knapen_AOT/AOT_stimuli/pictures/0514_fw.png	254.290864944458	
119	132.33482098579407	picture	0		118	117.0	/experiments/knapen_AOT/AOT_stimuli/pictures/0452_fw.png	254.32401704788208	0.9999778270721436
119	133.30990982055664	response	0	k		117.0	/experiments/knapen_AOT/AOT_stimuli/pictures/0452_fw.png	255.29910588264465	
120	133.3347988128662	picture	0		106	118.0	/experiments/knapen_AOT/AOT_stimuli/pictures/1474_fw.png	255.32399487495422	0.909196138381958
120	134.20320677757263	response	0	j		118.0	/experiments/knapen_AOT/AOT_stimuli/pictures/1474_fw.png	256.19240283966064	
121	134.24399495124817	picture	0		93	119.0	/experiments/knapen_AOT/AOT_stimuli/pictures/0085_fw.png	256.2331910133362	0.8075070381164551
121	135.00329184532166	response	0	j		119.0	/experiments/knapen_AOT/AOT_stimuli/pictures/0085_fw.png	256.99248790740967	
122	135.05150198936462	picture	0		81	120.0	/experiments/knapen_AOT/AOT_stimuli/pictures/1177_fw.png	257.04069805145264	0.7272129058837891
122	135.7433259487152	response	0	j		120.0	/experiments/knapen_AOT/AOT_stimuli/pictures/1177_fw.png	257.7325220108032	
123	135.7787148952484	picture	0		90	121.0	/experiments/knapen_AOT/AOT_stimuli/pictures/1374_fw.png	257.7679109573364	0.7778410911560059
123	136.51830887794495	response	0	j		121.0	/experiments/knapen_AOT/AOT_stimuli/pictures/1374_fw.png	258.50750494003296	
124	136.55655598640442	picture	0		91	122.0	/experiments/knapen_AOT/AOT_stimuli/pictures/0486_fw.png	258.54575204849243	0.7783088684082031
124	137.30170679092407	response	0	k		122.0	/experiments/knapen_AOT/AOT_stimuli/pictures/0486_fw.png	259.2909028530121	
125	137.33486485481262	picture	0		89	123.0	/experiments/knapen_AOT/AOT_stimuli/pictures/1837_fw.png	259.32406091690063	0.7772409915924072
125	138.06834387779236	response	0	j		123.0	/experiments/knapen_AOT/AOT_stimuli/pictures/1837_fw.png	260.05753993988037	
126	138.11210584640503	picture	0		187	124.0	/experiments/knapen_AOT/AOT_stimuli/pictures/0747_fw.png	260.10130190849304	1.5977959632873535
126	139.66014790534973	response	0	k		124.0	/experiments/knapen_AOT/AOT_stimuli/pictures/0747_fw.png	261.64934396743774	
127	139.70990180969238	picture	0		99	125.0	/experiments/knapen_AOT/AOT_stimuli/pictures/0707_fw.png	261.6990978717804	0.8466901779174805
127	140.52671194076538	response	0	j		125.0	/experiments/knapen_AOT/AOT_stimuli/pictures/0707_fw.png	262.5159080028534	
128	140.55659198760986	picture	0		117	126.0	/experiments/knapen_AOT/AOT_stimuli/pictures/1489_fw.png	262.5457880496979	1.0000739097595215
128	141.52681183815002	response	0	j		126.0	/experiments/knapen_AOT/AOT_stimuli/pictures/1489_fw.png	263.51600790023804	
129	141.55666589736938	picture	0		92	127.0	/experiments/knapen_AOT/AOT_stimuli/pictures/0359_fw.png	263.5458619594574	0.8032960891723633
129	142.31843781471252	response	0	j		127.0	/experiments/knapen_AOT/AOT_stimuli/pictures/0359_fw.png	264.30763387680054	
130	142.35996198654175	picture	0		85	128.0	/experiments/knapen_AOT/AOT_stimuli/pictures/0538_fw.png	264.34915804862976	0.750018835067749
130	143.06012082099915	response	0	k		128.0	/experiments/knapen_AOT/AOT_stimuli/pictures/0538_fw.png	265.04931688308716	
131	143.1099808216095	picture	0		120	129.0	/experiments/knapen_AOT/AOT_stimuli/pictures/1442_fw.png	265.0991768836975	1.0416820049285889
131	144.1017758846283	response	0	j		129.0	/experiments/knapen_AOT/AOT_stimuli/pictures/1442_fw.png	266.0909719467163	
132	144.1516628265381	picture	0		174	130.0	/experiments/knapen_AOT/AOT_stimuli/pictures/0396_fw.png	266.1408588886261	1.4882171154022217
132	145.5936119556427	response	0	k		130.0	/experiments/knapen_AOT/AOT_stimuli/pictures/0396_fw.png	267.5828080177307	
133	145.6398799419403	picture	0		206	131.0	/experiments/knapen_AOT/AOT_stimuli/pictures/0339_fw.png	267.6290760040283	1.7618329524993896
133	147.35191178321838	response	0	k		131.0	/experiments/knapen_AOT/AOT_stimuli/pictures/0339_fw.png	269.3411078453064	
134	147.4017128944397	picture	0		97	132.0	/experiments/knapen_AOT/AOT_stimuli/pictures/2097_fw.png	269.3909089565277	0.835468053817749
134	148.20185685157776	response	0	k		132.0	/experiments/knapen_AOT/AOT_stimuli/pictures/2097_fw.png	270.19105291366577	
135	148.23718094825745	picture	0		174	133.0	/experiments/knapen_AOT/AOT_stimuli/pictures/0672_fw.png	270.22637701034546	1.4811739921569824
135	149.6769199371338	response	0	k		133.0	/experiments/knapen_AOT/AOT_stimuli/pictures/0672_fw.png	271.6661159992218	
136	149.71835494041443	picture	0		95	134.0	/experiments/knapen_AOT/AOT_stimuli/pictures/1215_fw.png	271.70755100250244	0.8174560070037842
136	150.50186681747437	response	0	k		134.0	/experiments/knapen_AOT/AOT_stimuli/pictures/1215_fw.png	272.4910628795624	
137	150.5358109474182	picture	0		91	135.0	/experiments/knapen_AOT/AOT_stimuli/pictures/1499_fw.png	272.5250070095062	0.7826440334320068
137	151.28524780273438	response	0	j		135.0	/experiments/knapen_AOT/AOT_stimuli/pictures/1499_fw.png	273.2744438648224	
138	151.31845498085022	picture	0		93	136.0	/experiments/knapen_AOT/AOT_stimuli/pictures/0900_fw.png	273.30765104293823	0.7937438488006592
138	152.08523082733154	response	0	j		136.0	/experiments/knapen_AOT/AOT_stimuli/pictures/0900_fw.png	274.07442688941956	
139	152.11219882965088	picture	0		105	137.0	/experiments/knapen_AOT/AOT_stimuli/pictures/1619_fw.png	274.1013948917389	0.8895490169525146
139	152.97686386108398	response	0	j		137.0	/experiments/knapen_AOT/AOT_stimuli/pictures/1619_fw.png	274.966059923172	
140	153.0017478466034	picture	0		156	138.0	/experiments/knapen_AOT/AOT_stimuli/pictures/0531_fw.png	274.9909439086914	1.3250510692596436
140	154.2936418056488	response	0	j		138.0	/experiments/knapen_AOT/AOT_stimuli/pictures/0531_fw.png	276.2828378677368	
141	154.32679891586304	picture	0		101	139.0	/experiments/knapen_AOT/AOT_stimuli/pictures/1249_fw.png	276.31599497795105	0.868804931640625
141	155.16101598739624	response	0	j		139.0	/experiments/knapen_AOT/AOT_stimuli/pictures/1249_fw.png	277.15021204948425	
142	155.19560384750366	picture	0		106	140.0	/experiments/knapen_AOT/AOT_stimuli/pictures/0044_fw.png	277.1847999095917	0.9145290851593018
142	156.06863284111023	response	0	j		140.0	/experiments/knapen_AOT/AOT_stimuli/pictures/0044_fw.png	278.05782890319824	
143	156.11013293266296	picture	0		123	141.0	/experiments/knapen_AOT/AOT_stimuli/pictures/0827_fw.png	278.099328994751	1.0437469482421875
143	157.1270809173584	response	0	k		141.0	/experiments/knapen_AOT/AOT_stimuli/pictures/0827_fw.png	279.1162769794464	
144	157.15387988090515	picture	0		115	142.0	/experiments/knapen_AOT/AOT_stimuli/pictures/1996_fw.png	279.14307594299316	0.9896259307861328
144	158.10192489624023	response	0	j		142.0	/experiments/knapen_AOT/AOT_stimuli/pictures/1996_fw.png	280.09112095832825	
145	158.14350581169128	picture	0		156	143.0	/experiments/knapen_AOT/AOT_stimuli/pictures/1346_fw.png	280.1327018737793	1.3333041667938232
145	159.4353199005127	response	0	j		143.0	/experiments/knapen_AOT/AOT_stimuli/pictures/1346_fw.png	281.4245159626007	
146	159.4768099784851	picture	0		157	144.0	/experiments/knapen_AOT/AOT_stimuli/pictures/0994_fw.png	281.4660060405731	1.3368339538574219
146	160.77696299552917	response	0	j		144.0	/experiments/knapen_AOT/AOT_stimuli/pictures/0994_fw.png	282.7661590576172	
147	160.81364393234253	picture	0		257	145.0	/experiments/knapen_AOT/AOT_stimuli/pictures/0236_fw.png	282.80283999443054	2.163224935531616
147	162.94380378723145	response	0	j		145.0	/experiments/knapen_AOT/AOT_stimuli/pictures/0236_fw.png	284.93299984931946	
148	162.97686886787415	picture	0		111	146.0	/experiments/knapen_AOT/AOT_stimuli/pictures/1327_fw.png	284.96606492996216	0.9418411254882812
148	163.89374899864197	response	0	k		146.0	/experiments/knapen_AOT/AOT_stimuli/pictures/1327_fw.png	285.88294506073	
149	163.91870999336243	picture	0		120	147.0	/experiments/knapen_AOT/AOT_stimuli/pictures/0064_fw.png	285.90790605545044	1.019972801208496
149	164.9111409187317	response	0	k		147.0	/experiments/knapen_AOT/AOT_stimuli/pictures/0064_fw.png	286.9003369808197	
150	164.93868279457092	picture	0		102	148.0	/experiments/knapen_AOT/AOT_stimuli/pictures/0015_fw.png	286.92787885665894	0.8632471561431885
150	165.77707195281982	response	0	k		148.0	/experiments/knapen_AOT/AOT_stimuli/pictures/0015_fw.png	287.76626801490784	
151	165.8019299507141	picture	0		122	149.0	/experiments/knapen_AOT/AOT_stimuli/pictures/1190_fw.png	287.7911260128021	1.081254005432129
151	166.80383586883545	response	0	j		149.0	/experiments/knapen_AOT/AOT_stimuli/pictures/1190_fw.png	288.79303193092346	
152	166.88318395614624	picture	0		144	150.0	/experiments/knapen_AOT/AOT_stimuli/pictures/1434_fw.png	288.87238001823425	1.2221498489379883
152	168.0772089958191	response	0	k		150.0	/experiments/knapen_AOT/AOT_stimuli/pictures/1434_fw.png	290.0664050579071	
153	168.10533380508423	picture	0		216	151.0	/experiments/knapen_AOT/AOT_stimuli/pictures/1831_fw.png	290.09452986717224	1.82635498046875
153	169.8938479423523	response	0	j		151.0	/experiments/knapen_AOT/AOT_stimuli/pictures/1831_fw.png	291.8830440044403	
154	169.93168878555298	picture	0		110	152.0	/experiments/knapen_AOT/AOT_stimuli/pictures/0471_fw.png	291.920884847641	0.9620020389556885
154	170.84380292892456	response	0	k		152.0	/experiments/knapen_AOT/AOT_stimuli/pictures/0471_fw.png	292.8329989910126	
155	170.89369082450867	picture	0		232	153.0	/experiments/knapen_AOT/AOT_stimuli/pictures/1384_fw.png	292.8828868865967	1.9754791259765625
155	172.81205296516418	response	0	j		153.0	/experiments/knapen_AOT/AOT_stimuli/pictures/1384_fw.png	294.8012490272522	
156	172.86916995048523	picture	0		82	154.0	/experiments/knapen_AOT/AOT_stimuli/pictures/0379_fw.png	294.85836601257324	0.7085859775543213
156	173.54396176338196	response	0	j		154.0	/experiments/knapen_AOT/AOT_stimuli/pictures/0379_fw.png	295.53315782546997	
157	173.57775592803955	picture	0		107	155.0	/experiments/knapen_AOT/AOT_stimuli/pictures/1936_fw.png	295.56695199012756	0.9242990016937256
157	174.46047687530518	response	0	j		155.0	/experiments/knapen_AOT/AOT_stimuli/pictures/1936_fw.png	296.4496729373932	
158	174.50205492973328	picture	0		108	156.0	/experiments/knapen_AOT/AOT_stimuli/pictures/0340_fw.png	296.4912509918213	0.909080982208252
158	175.39382481575012	response	0	k		156.0	/experiments/knapen_AOT/AOT_stimuli/pictures/0340_fw.png	297.38302087783813	
159	175.41113591194153	picture	0		121	157.0	/experiments/knapen_AOT/AOT_stimuli/pictures/1467_fw.png	297.40033197402954	1.0327270030975342
159	176.40371990203857	response	0	j		157.0	/experiments/knapen_AOT/AOT_stimuli/pictures/1467_fw.png	298.3929159641266	
160	176.44386291503906	picture	0		131	158.0	/experiments/knapen_AOT/AOT_stimuli/pictures/1625_fw.png	298.4330589771271	1.1199228763580322
160	177.5272228717804	response	0	j		158.0	/experiments/knapen_AOT/AOT_stimuli/pictures/1625_fw.png	299.5164189338684	
161	177.5637857913971	picture	0		17	159.0	/experiments/knapen_AOT/AOT_stimuli/pictures/1069_fw.png	299.5529818534851	0.18827009201049805
161	177.6938259601593	response	0	j		159.0	/experiments/knapen_AOT/AOT_stimuli/pictures/1069_fw.png	299.6830220222473	
162	177.7520558834076	picture	0		136	160.0	/experiments/knapen_AOT/AOT_stimuli/pictures/1152_fw.png	299.7412519454956	1.159053087234497
162	178.87720894813538	response	0	j		160.0	/experiments/knapen_AOT/AOT_stimuli/pictures/1152_fw.png	300.8664050102234	
163	178.9111089706421	picture	0		127	161.0	/experiments/knapen_AOT/AOT_stimuli/pictures/1937_fw.png	300.9003050327301	1.0832009315490723
163	179.96057891845703	response	0	j		161.0	/experiments/knapen_AOT/AOT_stimuli/pictures/1937_fw.png	301.94977498054504	
164	179.99430990219116	picture	0		85	162.0	/experiments/knapen_AOT/AOT_stimuli/pictures/0849_fw.png	301.9835059642792	0.7411839962005615
164	180.69390392303467	response	0	j		162.0	/experiments/knapen_AOT/AOT_stimuli/pictures/0849_fw.png	302.6830999851227	
165	180.73549389839172	picture	0		79	163.0	/experiments/knapen_AOT/AOT_stimuli/pictures/1580_fw.png	302.72468996047974	0.7311210632324219
165	181.38559579849243	response	0	j		163.0	/experiments/knapen_AOT/AOT_stimuli/pictures/1580_fw.png	303.37479186058044	
166	181.46661496162415	picture	0		86	164.0	/experiments/knapen_AOT/AOT_stimuli/pictures/0113_fw.png	303.45581102371216	0.7521748542785645
166	182.17728090286255	response	0	k		164.0	/experiments/knapen_AOT/AOT_stimuli/pictures/0113_fw.png	304.16647696495056	
167	182.2187898159027	picture	0		97	165.0	/experiments/knapen_AOT/AOT_stimuli/pictures/0164_fw.png	304.2079858779907	0.8381600379943848
167	183.01231479644775	response	0	k		165.0	/experiments/knapen_AOT/AOT_stimuli/pictures/0164_fw.png	305.00151085853577	
168	183.0569498538971	picture	0		78	166.0	/experiments/knapen_AOT/AOT_stimuli/pictures/2148_fw.png	305.0461459159851	0.6734969615936279
168	183.69393396377563	response	0	j		166.0	/experiments/knapen_AOT/AOT_stimuli/pictures/2148_fw.png	305.68313002586365	
169	183.73044681549072	picture	0		84	167.0	/experiments/knapen_AOT/AOT_stimuli/pictures/0751_fw.png	305.71964287757874	0.7300550937652588
169	184.41285181045532	response	0	k		167.0	/experiments/knapen_AOT/AOT_stimuli/pictures/0751_fw.png	306.40204787254333	
170	184.46050190925598	picture	0		92	168.0	/experiments/knapen_AOT/AOT_stimuli/pictures/2010_fw.png	306.449697971344	0.7768979072570801
170	185.21221685409546	response	0	j		168.0	/experiments/knapen_AOT/AOT_stimuli/pictures/2010_fw.png	307.2014129161835	
171	185.23739981651306	picture	0		119	169.0	/experiments/knapen_AOT/AOT_stimuli/pictures/1660_fw.png	307.2265958786011	1.0231010913848877
171	186.2125699520111	response	0	j		169.0	/experiments/knapen_AOT/AOT_stimuli/pictures/1660_fw.png	308.2017660140991	
172	186.26050090789795	picture	0		198	170.0	/experiments/knapen_AOT/AOT_stimuli/pictures/1324_fw.png	308.24969696998596	1.67824387550354
172	187.90237498283386	response	0	k		170.0	/experiments/knapen_AOT/AOT_stimuli/pictures/1324_fw.png	309.8915710449219	
173	187.9387447834015	picture	0		94	171.0	/experiments/knapen_AOT/AOT_stimuli/pictures/0376_fw.png	309.9279408454895	0.8056240081787109
173	188.71070981025696	response	0	j		171.0	/experiments/knapen_AOT/AOT_stimuli/pictures/0376_fw.png	310.69990587234497	
174	188.7443687915802	picture	0		81	172.0	/experiments/knapen_AOT/AOT_stimuli/pictures/1310_fw.png	310.7335648536682	0.6995651721954346
174	189.40384483337402	response	0	j		172.0	/experiments/knapen_AOT/AOT_stimuli/pictures/1310_fw.png	311.39304089546204	
175	189.44393396377563	picture	0		98	173.0	/experiments/knapen_AOT/AOT_stimuli/pictures/1096_fw.png	311.43313002586365	0.8582959175109863
175	190.25232791900635	response	0	j		173.0	/experiments/knapen_AOT/AOT_stimuli/pictures/1096_fw.png	312.24152398109436	
176	190.30222988128662	picture	0		96	174.0	/experiments/knapen_AOT/AOT_stimuli/pictures/1969_fw.png	312.29142594337463	0.8500320911407471
176	191.09408283233643	response	0	j		174.0	/experiments/knapen_AOT/AOT_stimuli/pictures/1969_fw.png	313.08327889442444	
177	191.15226197242737	picture	0		125	175.0	/experiments/knapen_AOT/AOT_stimuli/pictures/0429_fw.png	313.1414580345154	1.0713279247283936
177	192.1857249736786	response	0	j		175.0	/experiments/knapen_AOT/AOT_stimuli/pictures/0429_fw.png	314.1749210357666	
178	192.22358989715576	picture	0		175	176.0	/experiments/knapen_AOT/AOT_stimuli/pictures/1757_fw.png	314.2127859592438	1.4870529174804688
178	193.6692237854004	response	0	k		176.0	/experiments/knapen_AOT/AOT_stimuli/pictures/1757_fw.png	315.6584198474884	
179	193.71064281463623	picture	0		83	177.0	/experiments/knapen_AOT/AOT_stimuli/pictures/1925_fw.png	315.69983887672424	0.7213070392608643
179	194.3942198753357	response	0	j		177.0	/experiments/knapen_AOT/AOT_stimuli/pictures/1925_fw.png	316.3834159374237	
180	194.4319498538971	picture	0		162	178.0	/experiments/knapen_AOT/AOT_stimuli/pictures/0254_fw.png	316.4211459159851	1.3786709308624268
180	195.7692039012909	response	0	k		178.0	/experiments/knapen_AOT/AOT_stimuli/pictures/0254_fw.png	317.7583999633789	
181	195.81062078475952	picture	0		153	179.0	/experiments/knapen_AOT/AOT_stimuli/pictures/0960_fw.png	317.79981684684753	1.3417201042175293
181	197.1024169921875	response	0	k		179.0	/experiments/knapen_AOT/AOT_stimuli/pictures/0960_fw.png	319.0916130542755	
182	197.15234088897705	picture	0		94	180.0	/experiments/knapen_AOT/AOT_stimuli/pictures/0327_fw.png	319.14153695106506	0.808305025100708
182	197.92744493484497	response	0	j		180.0	/experiments/knapen_AOT/AOT_stimuli/pictures/0327_fw.png	319.916640996933	
183	197.96064591407776	picture	0		99	181.0	/experiments/knapen_AOT/AOT_stimuli/pictures/1817_fw.png	319.94984197616577	0.9088709354400635
183	198.77744388580322	response	0	j		181.0	/experiments/knapen_AOT/AOT_stimuli/pictures/1817_fw.png	320.76663994789124	
184	198.86951684951782	picture	0		126	182.0	/experiments/knapen_AOT/AOT_stimuli/pictures/0659_fw.png	320.85871291160583	1.0763590335845947
184	199.91136288642883	response	0	j		182.0	/experiments/knapen_AOT/AOT_stimuli/pictures/0659_fw.png	321.90055894851685	
185	199.94587588310242	picture	0		113	183.0	/experiments/knapen_AOT/AOT_stimuli/pictures/0346_fw.png	321.93507194519043	0.9652960300445557
185	200.87746381759644	response	0	k		183.0	/experiments/knapen_AOT/AOT_stimuli/pictures/0346_fw.png	322.86665987968445	
186	200.91117191314697	picture	0		87	184.0	/experiments/knapen_AOT/AOT_stimuli/pictures/0134_fw.png	322.900367975235	0.75006103515625
186	201.6211588382721	response	0	j		184.0	/experiments/knapen_AOT/AOT_stimuli/pictures/0134_fw.png	323.6103549003601	
187	201.66123294830322	picture	0		84	185.0	/experiments/knapen_AOT/AOT_stimuli/pictures/1541_fw.png	323.65042901039124	0.7328259944915771
187	202.35260796546936	response	0	j		185.0	/experiments/knapen_AOT/AOT_stimuli/pictures/1541_fw.png	324.3418040275574	
188	202.3940589427948	picture	0		88	186.0	/experiments/knapen_AOT/AOT_stimuli/pictures/1767_fw.png	324.3832550048828	0.7600688934326172
188	203.11956095695496	response	0	j		186.0	/experiments/knapen_AOT/AOT_stimuli/pictures/1767_fw.png	325.10875701904297	
189	203.15412783622742	picture	0		84	187.0	/experiments/knapen_AOT/AOT_stimuli/pictures/0142_fw.png	325.14332389831543	0.7233400344848633
189	203.84418296813965	response	0	j		187.0	/experiments/knapen_AOT/AOT_stimuli/pictures/0142_fw.png	325.83337903022766	
190	203.87746787071228	picture	0		188	188.0	/experiments/knapen_AOT/AOT_stimuli/pictures/1564_fw.png	325.8666639328003	1.6100380420684814
190	205.42928099632263	response	0	j		188.0	/experiments/knapen_AOT/AOT_stimuli/pictures/1564_fw.png	327.41847705841064	
191	205.48750591278076	picture	0		82	189.0	/experiments/knapen_AOT/AOT_stimuli/pictures/1875_fw.png	327.4767019748688	0.701401948928833
191	206.16125178337097	response	0	k		189.0	/experiments/knapen_AOT/AOT_stimuli/pictures/1875_fw.png	328.150447845459	
192	206.1889078617096	picture	0		117	190.0	/experiments/knapen_AOT/AOT_stimuli/pictures/0149_fw.png	328.1781039237976	1.006922960281372
192	207.15271496772766	response	0	j		190.0	/experiments/knapen_AOT/AOT_stimuli/pictures/0149_fw.png	329.1419110298157	
193	207.19583082199097	picture	0		103	191.0	/experiments/knapen_AOT/AOT_stimuli/pictures/1964_fw.png	329.185026884079	0.8819530010223389
193	208.04421496391296	response	0	k		191.0	/experiments/knapen_AOT/AOT_stimuli/pictures/1964_fw.png	330.033411026001	
194	208.0777838230133	picture	0		240	192.0	/experiments/knapen_AOT/AOT_stimuli/pictures/0974_fw.png	330.0669798851013	2.0208771228790283
194	210.06933498382568	response	0	k		192.0	/experiments/knapen_AOT/AOT_stimuli/pictures/0974_fw.png	332.0585310459137	
195	210.09866094589233	picture	0		100	193.0	/experiments/knapen_AOT/AOT_stimuli/pictures/0076_fw.png	332.08785700798035	0.8472299575805664
195	210.91927981376648	response	0	k		193.0	/experiments/knapen_AOT/AOT_stimuli/pictures/0076_fw.png	332.9084758758545	
196	210.9458909034729	picture	0		95	194.0	/experiments/knapen_AOT/AOT_stimuli/pictures/1526_fw.png	332.9350869655609	0.8263540267944336
196	211.72777891159058	response	0	k		194.0	/experiments/knapen_AOT/AOT_stimuli/pictures/1526_fw.png	333.7169749736786	
197	211.77224493026733	picture	0		86	195.0	/experiments/knapen_AOT/AOT_stimuli/pictures/0111_fw.png	333.76144099235535	0.7303600311279297
197	212.47773694992065	response	0	k		195.0	/experiments/knapen_AOT/AOT_stimuli/pictures/0111_fw.png	334.46693301200867	
198	212.50260496139526	picture	0		112	196.0	/experiments/knapen_AOT/AOT_stimuli/pictures/2113_fw.png	334.4918010234833	0.9433169364929199
198	213.4209589958191	response	0	k		196.0	/experiments/knapen_AOT/AOT_stimuli/pictures/2113_fw.png	335.4101550579071	
199	213.44592189788818	picture	0		224	197.0	/experiments/knapen_AOT/AOT_stimuli/pictures/0348_fw.png	335.4351179599762	1.8958919048309326
199	215.30280900001526	response	0	k		197.0	/experiments/knapen_AOT/AOT_stimuli/pictures/0348_fw.png	337.29200506210327	
200	215.34181380271912	picture	0		247	198.0	/experiments/knapen_AOT/AOT_stimuli/pictures/0936_fw.png	337.33100986480713	2.1024169921875
200	217.39442777633667	response	0	k		198.0	/experiments/knapen_AOT/AOT_stimuli/pictures/0936_fw.png	339.3836238384247	
201	217.44423079490662	picture	0		79	199.0	/experiments/knapen_AOT/AOT_stimuli/pictures/0624_fw.png	339.43342685699463	0.6833531856536865
201	218.0944209098816	response	0	j		199.0	/experiments/knapen_AOT/AOT_stimuli/pictures/0624_fw.png	340.0836169719696	
202	218.1275839805603	picture	0		85	200.0	/experiments/knapen_AOT/AOT_stimuli/pictures/1043_fw.png	340.1167800426483	0.7333288192749023
202	218.82104682922363	response	0	j		200.0	/experiments/knapen_AOT/AOT_stimuli/pictures/1043_fw.png	340.81024289131165	
203	218.8609127998352	picture	0		85	201.0	/experiments/knapen_AOT/AOT_stimuli/pictures/1883_fw.png	340.8501088619232	0.7333409786224365
203	219.56109976768494	response	0	j		201.0	/experiments/knapen_AOT/AOT_stimuli/pictures/1883_fw.png	341.55029582977295	
204	219.59425377845764	picture	0		88	202.0	/experiments/knapen_AOT/AOT_stimuli/pictures/0074_fw.png	341.58344984054565	0.768470048904419
204	220.3194658756256	response	0	k		202.0	/experiments/knapen_AOT/AOT_stimuli/pictures/0074_fw.png	342.3086619377136	
205	220.36272382736206	picture	0		103	203.0	/experiments/knapen_AOT/AOT_stimuli/pictures/2109_fw.png	342.3519198894501	0.898245096206665
205	221.20447397232056	response	0	k		203.0	/experiments/knapen_AOT/AOT_stimuli/pictures/2109_fw.png	343.19367003440857	
206	221.26096892356873	picture	0		149	204.0	/experiments/knapen_AOT/AOT_stimuli/pictures/1214_fw.png	343.25016498565674	1.2667019367218018
206	222.49467277526855	response	0	k		204.0	/experiments/knapen_AOT/AOT_stimuli/pictures/1214_fw.png	344.48386883735657	
207	222.52767086029053	picture	0		97	205.0	/experiments/knapen_AOT/AOT_stimuli/pictures/0174_fw.png	344.51686692237854	0.8333120346069336
207	223.32808899879456	response	0	j		205.0	/experiments/knapen_AOT/AOT_stimuli/pictures/0174_fw.png	345.31728506088257	
208	223.36098289489746	picture	0		98	206.0	/experiments/knapen_AOT/AOT_stimuli/pictures/0908_fw.png	345.3501789569855	0.841886043548584
208	224.16948580741882	response	0	j		206.0	/experiments/knapen_AOT/AOT_stimuli/pictures/0908_fw.png	346.15868186950684	
209	224.20286893844604	picture	0		105	207.0	/experiments/knapen_AOT/AOT_stimuli/pictures/2042_fw.png	346.19206500053406	0.8959250450134277
209	225.06956386566162	response	0	k		207.0	/experiments/knapen_AOT/AOT_stimuli/pictures/2042_fw.png	347.05875992774963	
210	225.09879398345947	picture	0		111	208.0	/experiments/knapen_AOT/AOT_stimuli/pictures/0668_fw.png	347.0879900455475	0.9513518810272217
210	226.0044767856598	response	0	k		208.0	/experiments/knapen_AOT/AOT_stimuli/pictures/0668_fw.png	347.9936728477478	
211	226.0501458644867	picture	0		86	209.0	/experiments/knapen_AOT/AOT_stimuli/pictures/0779_fw.png	348.0393419265747	0.7443170547485352
211	226.76121878623962	response	0	j		209.0	/experiments/knapen_AOT/AOT_stimuli/pictures/0779_fw.png	348.75041484832764	
212	226.79446291923523	picture	0		148	210.0	/experiments/knapen_AOT/AOT_stimuli/pictures/0530_fw.png	348.78365898132324	1.2626268863677979
212	228.01275897026062	response	0	k		210.0	/experiments/knapen_AOT/AOT_stimuli/pictures/0530_fw.png	350.00195503234863	
213	228.05708980560303	picture	0		105	211.0	/experiments/knapen_AOT/AOT_stimuli/pictures/1124_fw.png	350.04628586769104	0.8958311080932617
213	228.9195899963379	response	0	k		211.0	/experiments/knapen_AOT/AOT_stimuli/pictures/1124_fw.png	350.9087860584259	
214	228.9529209136963	picture	0		144	212.0	/experiments/knapen_AOT/AOT_stimuli/pictures/1535_fw.png	350.9421169757843	1.2248179912567139
214	230.14470887184143	response	0	j		212.0	/experiments/knapen_AOT/AOT_stimuli/pictures/1535_fw.png	352.13390493392944	
215	230.177738904953	picture	0		90	213.0	/experiments/knapen_AOT/AOT_stimuli/pictures/1882_fw.png	352.166934967041	0.7682669162750244
215	230.9196629524231	response	0	j		213.0	/experiments/knapen_AOT/AOT_stimuli/pictures/1882_fw.png	352.9088590145111	
216	230.94600582122803	picture	0		141	214.0	/experiments/knapen_AOT/AOT_stimuli/pictures/2004_fw.png	352.93520188331604	1.1945371627807617
216	232.11129593849182	response	0	j		214.0	/experiments/knapen_AOT/AOT_stimuli/pictures/2004_fw.png	354.10049200057983	
217	232.1405429840088	picture	0		167	215.0	/experiments/knapen_AOT/AOT_stimuli/pictures/0997_fw.png	354.1297390460968	1.416705846786499
217	233.5196659564972	response	0	k		215.0	/experiments/knapen_AOT/AOT_stimuli/pictures/0997_fw.png	355.5088620185852	
218	233.5572488307953	picture	0		98	216.0	/experiments/knapen_AOT/AOT_stimuli/pictures/0708_fw.png	355.5464448928833	0.8332431316375732
218	234.3613269329071	response	0	k		216.0	/experiments/knapen_AOT/AOT_stimuli/pictures/0708_fw.png	356.3505229949951	
219	234.39049196243286	picture	0		89	217.0	/experiments/knapen_AOT/AOT_stimuli/pictures/1917_fw.png	356.3796880245209	0.7569270133972168
219	235.1197669506073	response	0	j		217.0	/experiments/knapen_AOT/AOT_stimuli/pictures/1917_fw.png	357.1089630126953	
220	235.14741897583008	picture	0		87	218.0	/experiments/knapen_AOT/AOT_stimuli/pictures/0147_fw.png	357.1366150379181	0.7500529289245605
220	235.86128091812134	response	0	j		218.0	/experiments/knapen_AOT/AOT_stimuli/pictures/0147_fw.png	357.85047698020935	
221	235.89747190475464	picture	0		78	219.0	/experiments/knapen_AOT/AOT_stimuli/pictures/0124_fw.png	357.88666796684265	0.6666669845581055
221	236.53644680976868	response	0	j		219.0	/experiments/knapen_AOT/AOT_stimuli/pictures/0124_fw.png	358.5256428718567	
222	236.56413888931274	picture	0		110	220.0	/experiments/knapen_AOT/AOT_stimuli/pictures/1995_fw.png	358.55333495140076	0.9387218952178955
222	237.46968293190002	response	0	k		220.0	/experiments/knapen_AOT/AOT_stimuli/pictures/1995_fw.png	359.45887899398804	
223	237.50286078453064	picture	0		85	221.0	/experiments/knapen_AOT/AOT_stimuli/pictures/1452_fw.png	359.49205684661865	0.7350142002105713
223	238.19622492790222	response	0	j		221.0	/experiments/knapen_AOT/AOT_stimuli/pictures/1452_fw.png	360.18542098999023	
224	238.2378749847412	picture	0		145	222.0	/experiments/knapen_AOT/AOT_stimuli/pictures/1285_fw.png	360.2270710468292	1.2399749755859375
224	239.43642377853394	response	0	k		222.0	/experiments/knapen_AOT/AOT_stimuli/pictures/1285_fw.png	361.42561984062195	
225	239.47784996032715	picture	0		180	223.0	/experiments/knapen_AOT/AOT_stimuli/pictures/0191_fw.png	361.46704602241516	1.5333538055419922
225	240.96976590156555	response	0	j		223.0	/experiments/knapen_AOT/AOT_stimuli/pictures/0191_fw.png	362.95896196365356	
226	241.01120376586914	picture	0		79	224.0	/experiments/knapen_AOT/AOT_stimuli/pictures/0561_fw.png	363.00039982795715	0.6918590068817139
226	241.66150784492493	response	0	j		224.0	/experiments/knapen_AOT/AOT_stimuli/pictures/0561_fw.png	363.65070390701294	
227	241.70306277275085	picture	0		152	225.0	/experiments/knapen_AOT/AOT_stimuli/pictures/1207_fw.png	363.69225883483887	1.2916371822357178
227	242.96142387390137	response	0	j		225.0	/experiments/knapen_AOT/AOT_stimuli/pictures/1207_fw.png	364.9506199359894	
228	242.99469995498657	picture	0		167	226.0	/experiments/knapen_AOT/AOT_stimuli/pictures/1292_fw.png	364.9838960170746	1.416646957397461
228	244.37816190719604	response	0	j		226.0	/experiments/knapen_AOT/AOT_stimuli/pictures/1292_fw.png	366.36735796928406	
229	244.41134691238403	picture	0		96	227.0	/experiments/knapen_AOT/AOT_stimuli/pictures/1041_fw.png	366.40054297447205	0.8333239555358887
229	245.19641184806824	response	0	k		227.0	/experiments/knapen_AOT/AOT_stimuli/pictures/1041_fw.png	367.18560791015625	
230	245.24467086791992	picture	0		106	228.0	/experiments/knapen_AOT/AOT_stimuli/pictures/2126_fw.png	367.23386693000793	0.9249711036682129
230	246.11990594863892	response	0	k		228.0	/experiments/knapen_AOT/AOT_stimuli/pictures/2126_fw.png	368.10910201072693	
231	246.16964197158813	picture	0		112	229.0	/experiments/knapen_AOT/AOT_stimuli/pictures/1365_fw.png	368.15883803367615	0.9666519165039062
231	247.09480476379395	response	0	k		229.0	/experiments/knapen_AOT/AOT_stimuli/pictures/1365_fw.png	369.08400082588196	
232	247.13629388809204	picture	0		85	230.0	/experiments/knapen_AOT/AOT_stimuli/pictures/1602_fw.png	369.12548995018005	0.7542998790740967
232	247.83651089668274	response	0	j		230.0	/experiments/knapen_AOT/AOT_stimuli/pictures/1602_fw.png	369.82570695877075	
233	247.89059376716614	picture	0		124	231.0	/experiments/knapen_AOT/AOT_stimuli/pictures/0885_fw.png	369.87978982925415	1.055582046508789
233	248.91152787208557	response	0	k		231.0	/experiments/knapen_AOT/AOT_stimuli/pictures/0885_fw.png	370.9007239341736	
234	248.94617581367493	picture	0		92	232.0	/experiments/knapen_AOT/AOT_stimuli/pictures/1389_fw.png	370.93537187576294	0.7901480197906494
234	249.7032608985901	response	0	k		232.0	/experiments/knapen_AOT/AOT_stimuli/pictures/1389_fw.png	371.6924569606781	
235	249.73632383346558	picture	0		89	233.0	/experiments/knapen_AOT/AOT_stimuli/pictures/2155_fw.png	371.7255198955536	0.7999980449676514
235	250.46978878974915	response	0	j		233.0	/experiments/knapen_AOT/AOT_stimuli/pictures/2155_fw.png	372.45898485183716	
236	250.53632187843323	picture	0		90	234.0	/experiments/knapen_AOT/AOT_stimuli/pictures/0671_fw.png	372.52551794052124	0.7917709350585938
236	251.27826595306396	response	0	j		234.0	/experiments/knapen_AOT/AOT_stimuli/pictures/0671_fw.png	373.267462015152	
237	251.32809281349182	picture	0		84	235.0	/experiments/knapen_AOT/AOT_stimuli/pictures/0603_fw.png	373.31728887557983	0.741610050201416
237	252.01313591003418	response	0	j		235.0	/experiments/knapen_AOT/AOT_stimuli/pictures/0603_fw.png	374.0023319721222	
238	252.06970286369324	picture	0		241	236.0	/experiments/knapen_AOT/AOT_stimuli/pictures/1809_fw.png	374.05889892578125	2.033381938934326
238	254.0699348449707	response	0	k		236.0	/experiments/knapen_AOT/AOT_stimuli/pictures/1809_fw.png	376.0591309070587	
239	254.10308480262756	picture	0		89	237.0	/experiments/knapen_AOT/AOT_stimuli/pictures/2046_fw.png	376.0922808647156	0.7666471004486084
239	254.83656287193298	response	0	j		237.0	/experiments/knapen_AOT/AOT_stimuli/pictures/2046_fw.png	376.825758934021	
240	254.86973190307617	picture	0		101	238.0	/experiments/knapen_AOT/AOT_stimuli/pictures/1167_fw.png	376.8589279651642	0.868229866027832
240	255.7033188343048	response	0	j		238.0	/experiments/knapen_AOT/AOT_stimuli/pictures/1167_fw.png	377.6925148963928	
241	255.737961769104	picture	0		92	239.0	/experiments/knapen_AOT/AOT_stimuli/pictures/0848_fw.png	377.727157831192	0.7984950542449951
241	256.4949457645416	response	0	k		239.0	/experiments/knapen_AOT/AOT_stimuli/pictures/0848_fw.png	378.48414182662964	
242	256.536456823349	picture	0		96	240.0	/experiments/knapen_AOT/AOT_stimuli/pictures/0101_fw.png	378.525652885437	0.8125369548797607
242	257.3283648490906	response	0	k		240.0	/experiments/knapen_AOT/AOT_stimuli/pictures/0101_fw.png	379.3175609111786	
243	257.34899377822876	picture	0		94	241.0	/experiments/knapen_AOT/AOT_stimuli/pictures/1081_fw.png	379.3381898403168	0.8041331768035889
243	258.11997389793396	response	0	k		241.0	/experiments/knapen_AOT/AOT_stimuli/pictures/1081_fw.png	380.109169960022	
244	258.15312695503235	picture	0		124	242.0	/experiments/knapen_AOT/AOT_stimuli/pictures/0365_fw.png	380.14232301712036	1.0666708946228027
244	259.17834997177124	response	0	j		242.0	/experiments/knapen_AOT/AOT_stimuli/pictures/0365_fw.png	381.16754603385925	
245	259.21979784965515	picture	0		107	243.0	/experiments/knapen_AOT/AOT_stimuli/pictures/0501_fw.png	381.20899391174316	0.9139220714569092
245	260.10333585739136	response	0	k		243.0	/experiments/knapen_AOT/AOT_stimuli/pictures/0501_fw.png	382.09253191947937	
246	260.13371992111206	picture	0		90	244.0	/experiments/knapen_AOT/AOT_stimuli/pictures/1586_fw.png	382.1229159832001	0.7778480052947998
246	260.87829184532166	response	0	j		244.0	/experiments/knapen_AOT/AOT_stimuli/pictures/1586_fw.png	382.86748790740967	
247	260.91156792640686	picture	0		81	245.0	/experiments/knapen_AOT/AOT_stimuli/pictures/0156_fw.png	382.9007639884949	0.7165670394897461
247	261.578409910202	response	0	j		245.0	/experiments/knapen_AOT/AOT_stimuli/pictures/0156_fw.png	383.56760597229004	
248	261.6281349658966	picture	0		86	246.0	/experiments/knapen_AOT/AOT_stimuli/pictures/0205_fw.png	383.6173310279846	0.7764918804168701
248	262.3699929714203	response	0	k		246.0	/experiments/knapen_AOT/AOT_stimuli/pictures/0205_fw.png	384.3591890335083	
249	262.4046268463135	picture	0		363	247.0	/experiments/knapen_AOT/AOT_stimuli/pictures/1112_fw.png	384.3938229084015	3.041640043258667
249	265.41355991363525	response	0	k		247.0	/experiments/knapen_AOT/AOT_stimuli/pictures/1112_fw.png	387.40275597572327	
250	265.44626688957214	picture	0		96	248.0	/experiments/knapen_AOT/AOT_stimuli/pictures/0720_fw.png	387.43546295166016	0.8319308757781982
250	266.2299678325653	response	0	j		248.0	/experiments/knapen_AOT/AOT_stimuli/pictures/0720_fw.png	388.2191638946533	
251	266.27819776535034	picture	0		235	249.0	/experiments/knapen_AOT/AOT_stimuli/pictures/1080_fw.png	388.26739382743835	1.9806041717529297
251	268.22163581848145	response	0	k		249.0	/experiments/knapen_AOT/AOT_stimuli/pictures/1080_fw.png	390.21083188056946	
252	268.25880193710327	picture	0		87	250.0	/experiments/knapen_AOT/AOT_stimuli/pictures/1119_fw.png	390.2479979991913	0.7527740001678467
252	268.9783878326416	response	0	j		250.0	/experiments/knapen_AOT/AOT_stimuli/pictures/1119_fw.png	390.9675838947296	
253	269.0115759372711	picture	0		122	251.0	/experiments/knapen_AOT/AOT_stimuli/pictures/2047_fw.png	391.00077199935913	1.0458428859710693
253	270.01341676712036	response	0	j		251.0	/experiments/knapen_AOT/AOT_stimuli/pictures/2047_fw.png	392.0026128292084	
254	270.0574188232422	picture	0		79	252.0	/experiments/knapen_AOT/AOT_stimuli/pictures/0699_fw.png	392.0466148853302	0.712501049041748
254	270.70345091819763	response	0	j		252.0	/experiments/knapen_AOT/AOT_stimuli/pictures/0699_fw.png	392.69264698028564	
255	270.76991987228394	picture	0		78	253.0	/experiments/knapen_AOT/AOT_stimuli/pictures/0886_fw.png	392.75911593437195	0.6750431060791016
255	271.40521478652954	response	0	j		253.0	/experiments/knapen_AOT/AOT_stimuli/pictures/0886_fw.png	393.39441084861755	
256	271.44496297836304	picture	0		88	254.0	/experiments/knapen_AOT/AOT_stimuli/pictures/1039_fw.png	393.43415904045105	0.7916748523712158
256	272.17010378837585	response	0	k		254.0	/experiments/knapen_AOT/AOT_stimuli/pictures/1039_fw.png	394.15929985046387	
257	272.23663783073425	picture	0		131	255.0	/experiments/knapen_AOT/AOT_stimuli/pictures/1853_fw.png	394.22583389282227	1.1194190979003906
257	273.32012391090393	response	0	j		255.0	/experiments/knapen_AOT/AOT_stimuli/pictures/1853_fw.png	395.30931997299194	
258	273.35605692863464	picture	0		118	256.0	/experiments/knapen_AOT/AOT_stimuli/pictures/0304_fw.png	395.34525299072266	1.0139050483703613
258	274.32847690582275	response	0	j		256.0	/experiments/knapen_AOT/AOT_stimuli/pictures/0304_fw.png	396.31767296791077	
259	274.369961977005	picture	0		85	257.0	/experiments/knapen_AOT/AOT_stimuli/pictures/0417_fw.png	396.359158039093	0.7418270111083984
259	275.0701868534088	response	0	j		257.0	/experiments/knapen_AOT/AOT_stimuli/pictures/0417_fw.png	397.0593829154968	
260	275.1117889881134	picture	0		92	258.0	/experiments/knapen_AOT/AOT_stimuli/pictures/1512_fw.png	397.1009850502014	0.7930288314819336
260	275.8702518939972	response	0	j		258.0	/experiments/knapen_AOT/AOT_stimuli/pictures/1512_fw.png	397.8594479560852	
261	275.90481781959534	picture	0		78	259.0	/experiments/knapen_AOT/AOT_stimuli/pictures/1511_fw.png	397.89401388168335	0.723513126373291
261	276.5451958179474	response	0	j		259.0	/experiments/knapen_AOT/AOT_stimuli/pictures/1511_fw.png	398.5343918800354	
262	276.6283309459686	picture	0		78	260.0	/experiments/knapen_AOT/AOT_stimuli/pictures/0959_fw.png	398.61752700805664	0.6792418956756592
262	277.27017879486084	response	0	j		260.0	/experiments/knapen_AOT/AOT_stimuli/pictures/0959_fw.png	399.25937485694885	
263	277.3075728416443	picture	0		179	261.0	/experiments/knapen_AOT/AOT_stimuli/pictures/1529_fw.png	399.2967689037323	1.5208039283752441
263	278.78691697120667	response	0	j		261.0	/experiments/knapen_AOT/AOT_stimuli/pictures/1529_fw.png	400.7761130332947	
264	278.82837677001953	picture	0		98	262.0	/experiments/knapen_AOT/AOT_stimuli/pictures/0937_fw.png	400.81757283210754	0.8500151634216309
264	279.63010478019714	response	0	j		262.0	/experiments/knapen_AOT/AOT_stimuli/pictures/0937_fw.png	401.61930084228516	
265	279.67839193344116	picture	0		91	263.0	/experiments/knapen_AOT/AOT_stimuli/pictures/1505_fw.png	401.6675879955292	0.7888050079345703
265	280.42172598838806	response	0	j		263.0	/experiments/knapen_AOT/AOT_stimuli/pictures/1505_fw.png	402.4109220504761	
266	280.46719694137573	picture	0		271	264.0	/experiments/knapen_AOT/AOT_stimuli/pictures/0255_fw.png	402.45639300346375	2.2862179279327393
266	282.7202877998352	response	0	k		264.0	/experiments/knapen_AOT/AOT_stimuli/pictures/0255_fw.png	404.7094838619232	
267	282.7534148693085	picture	0		120	265.0	/experiments/knapen_AOT/AOT_stimuli/pictures/1975_fw.png	404.7426109313965	1.0264630317687988
267	283.7452619075775	response	0	k		265.0	/experiments/knapen_AOT/AOT_stimuli/pictures/1975_fw.png	405.7344579696655	
268	283.77987790107727	picture	0		96	266.0	/experiments/knapen_AOT/AOT_stimuli/pictures/1004_fw.png	405.7690739631653	0.8262600898742676
268	284.5702998638153	response	0	k		266.0	/experiments/knapen_AOT/AOT_stimuli/pictures/1004_fw.png	406.5594959259033	
269	284.60613799095154	picture	0		106	267.0	/experiments/knapen_AOT/AOT_stimuli/pictures/0130_fw.png	406.59533405303955	0.9139788150787354
269	285.47870779037476	response	0	k		267.0	/experiments/knapen_AOT/AOT_stimuli/pictures/0130_fw.png	407.46790385246277	
270	285.5201168060303	picture	0		103	268.0	/experiments/knapen_AOT/AOT_stimuli/pictures/0434_fw.png	407.5093128681183	0.8833739757537842
270	286.3702609539032	response	0	k		268.0	/experiments/knapen_AOT/AOT_stimuli/pictures/0434_fw.png	408.3594570159912	
271	286.40349078178406	picture	0		156	269.0	/experiments/knapen_AOT/AOT_stimuli/pictures/2044_fw.png	408.39268684387207	1.3166661262512207
271	287.69528698921204	response	0	k		269.0	/experiments/knapen_AOT/AOT_stimuli/pictures/2044_fw.png	409.68448305130005	
272	287.7201569080353	picture	0		85	270.0	/experiments/knapen_AOT/AOT_stimuli/pictures/0411_fw.png	409.7093529701233	0.7334320545196533
272	288.41353583335876	response	0	k		270.0	/experiments/knapen_AOT/AOT_stimuli/pictures/0411_fw.png	410.4027318954468	
273	288.45358896255493	picture	0		117	271.0	/experiments/knapen_AOT/AOT_stimuli/pictures/0291_fw.png	410.44278502464294	1.0082788467407227
273	289.41357493400574	response	0	k		271.0	/experiments/knapen_AOT/AOT_stimuli/pictures/0291_fw.png	411.40277099609375	
274	289.46186780929565	picture	0		92	272.0	/experiments/knapen_AOT/AOT_stimuli/pictures/0126_fw.png	411.45106387138367	0.8000509738922119
274	290.2136538028717	response	0	j		272.0	/experiments/knapen_AOT/AOT_stimuli/pictures/0126_fw.png	412.2028498649597	
275	290.26191878318787	picture	0		80	273.0	/experiments/knapen_AOT/AOT_stimuli/pictures/1031_fw.png	412.2511148452759	0.684683084487915
275	290.92035484313965	response	0	j		273.0	/experiments/knapen_AOT/AOT_stimuli/pictures/1031_fw.png	412.90955090522766	
276	290.9466018676758	picture	0		105	274.0	/experiments/knapen_AOT/AOT_stimuli/pictures/0444_fw.png	412.9357979297638	0.9026589393615723
276	291.805410861969	response	0	j		274.0	/experiments/knapen_AOT/AOT_stimuli/pictures/0444_fw.png	413.794606924057	
277	291.84926080703735	picture	0		110	275.0	/experiments/knapen_AOT/AOT_stimuli/pictures/1313_fw.png	413.83845686912537	0.9305980205535889
277	292.753839969635	response	0	j		275.0	/experiments/knapen_AOT/AOT_stimuli/pictures/1313_fw.png	414.743036031723	
278	292.77985882759094	picture	0		149	276.0	/experiments/knapen_AOT/AOT_stimuli/pictures/1300_fw.png	414.76905488967896	1.2708041667938232
278	294.0054259300232	response	0	k		276.0	/experiments/knapen_AOT/AOT_stimuli/pictures/1300_fw.png	415.9946219921112	
279	294.05066299438477	picture	0		149	277.0	/experiments/knapen_AOT/AOT_stimuli/pictures/0212_fw.png	416.0398590564728	1.2695858478546143
279	295.2870469093323	response	0	j		277.0	/experiments/knapen_AOT/AOT_stimuli/pictures/0212_fw.png	417.2762429714203	
280	295.3202488422394	picture	0		122	278.0	/experiments/knapen_AOT/AOT_stimuli/pictures/0251_fw.png	417.3094449043274	1.0416851043701172
280	296.32871079444885	response	0	j		278.0	/experiments/knapen_AOT/AOT_stimuli/pictures/0251_fw.png	418.31790685653687	
281	296.3619339466095	picture	0		105	279.0	/experiments/knapen_AOT/AOT_stimuli/pictures/0114_fw.png	418.3511300086975	0.9111030101776123
281	297.2219479084015	response	0	j		279.0	/experiments/knapen_AOT/AOT_stimuli/pictures/0114_fw.png	419.2111439704895	
282	297.2730369567871	picture	0		97	280.0	/experiments/knapen_AOT/AOT_stimuli/pictures/2065_fw.png	419.2622330188751	0.8332078456878662
282	298.07042598724365	response	0	j		280.0	/experiments/knapen_AOT/AOT_stimuli/pictures/2065_fw.png	420.05962204933167	
283	298.106244802475	picture	0		91	281.0	/experiments/knapen_AOT/AOT_stimuli/pictures/1118_fw.png	420.095440864563	0.7640340328216553
283	298.8538467884064	response	0	j		281.0	/experiments/knapen_AOT/AOT_stimuli/pictures/1118_fw.png	420.8430428504944	
284	298.87027883529663	picture	0		156	282.0	/experiments/knapen_AOT/AOT_stimuli/pictures/1976_fw.png	420.85947489738464	1.3334691524505615
284	300.16218185424805	response	0	k		282.0	/experiments/knapen_AOT/AOT_stimuli/pictures/1976_fw.png	422.15137791633606	
285	300.2037479877472	picture	0		113	283.0	/experiments/knapen_AOT/AOT_stimuli/pictures/2090_fw.png	422.1929440498352	0.9582509994506836
285	301.1372628211975	response	0	k		283.0	/experiments/knapen_AOT/AOT_stimuli/pictures/2090_fw.png	423.1264588832855	
286	301.1619989871979	picture	0		103	284.0	/experiments/knapen_AOT/AOT_stimuli/pictures/1131_fw.png	423.1511950492859	0.8749558925628662
286	302.0054898262024	response	0	j		284.0	/experiments/knapen_AOT/AOT_stimuli/pictures/1131_fw.png	423.9946858882904	
287	302.03695487976074	picture	0		145	285.0	/experiments/knapen_AOT/AOT_stimuli/pictures/0721_fw.png	424.02615094184875	1.3333849906921387
287	303.2371518611908	response	0	k		285.0	/experiments/knapen_AOT/AOT_stimuli/pictures/0721_fw.png	425.2263479232788	
288	303.3703398704529	picture	0		89	286.0	/experiments/knapen_AOT/AOT_stimuli/pictures/0034_fw.png	425.3595359325409	0.7666659355163574
288	304.1039447784424	response	0	k		286.0	/experiments/knapen_AOT/AOT_stimuli/pictures/0034_fw.png	426.0931408405304	
289	304.13700580596924	picture	0		95	287.0	/experiments/knapen_AOT/AOT_stimuli/pictures/2116_fw.png	426.12620186805725	0.8166980743408203
289	304.92051887512207	response	0	k		287.0	/experiments/knapen_AOT/AOT_stimuli/pictures/2116_fw.png	426.9097149372101	
290	304.95370388031006	picture	0		94	288.0	/experiments/knapen_AOT/AOT_stimuli/pictures/0280_fw.png	426.94289994239807	0.8123528957366943
290	305.7289698123932	response	0	k		288.0	/experiments/knapen_AOT/AOT_stimuli/pictures/0280_fw.png	427.7181658744812	
291	305.76605677604675	picture	0		132	289.0	/experiments/knapen_AOT/AOT_stimuli/pictures/1117_fw.png	427.75525283813477	1.1293671131134033
291	306.8539869785309	response	0	k		289.0	/experiments/knapen_AOT/AOT_stimuli/pictures/1117_fw.png	428.8431830406189	
292	306.89542388916016	picture	0		210	290.0	/experiments/knapen_AOT/AOT_stimuli/pictures/1556_fw.png	428.88461995124817	1.7833199501037598
292	308.6305339336395	response	0	k		290.0	/experiments/knapen_AOT/AOT_stimuli/pictures/1556_fw.png	430.61972999572754	
293	308.6787438392639	picture	0		95	291.0	/experiments/knapen_AOT/AOT_stimuli/pictures/0203_fw.png	430.66793990135193	0.8250110149383545
293	309.4622459411621	response	0	k		291.0	/experiments/knapen_AOT/AOT_stimuli/pictures/0203_fw.png	431.4514420032501	
294	309.50375485420227	picture	0		89	292.0	/experiments/knapen_AOT/AOT_stimuli/pictures/1771_fw.png	431.4929509162903	0.7750201225280762
294	310.2304849624634	response	0	k		292.0	/experiments/knapen_AOT/AOT_stimuli/pictures/1771_fw.png	432.2196810245514	
295	310.27877497673035	picture	0		92	293.0	/experiments/knapen_AOT/AOT_stimuli/pictures/0040_fw.png	432.26797103881836	0.7916698455810547
295	311.03049087524414	response	0	k		293.0	/experiments/knapen_AOT/AOT_stimuli/pictures/0040_fw.png	433.01968693733215	
296	311.0704448223114	picture	0		92	294.0	/experiments/knapen_AOT/AOT_stimuli/pictures/1531_fw.png	433.0596408843994	0.7928421497344971
296	311.82227396965027	response	0	k		294.0	/experiments/knapen_AOT/AOT_stimuli/pictures/1531_fw.png	433.8114700317383	
297	311.8632869720459	picture	0		94	295.0	/experiments/knapen_AOT/AOT_stimuli/pictures/2080_fw.png	433.8524830341339	0.798839807510376
297	312.63056993484497	response	0	j		295.0	/experiments/knapen_AOT/AOT_stimuli/pictures/2080_fw.png	434.619765996933	
298	312.6621267795563	picture	0		92	296.0	/experiments/knapen_AOT/AOT_stimuli/pictures/1639_fw.png	434.6513228416443	0.7916631698608398
298	313.4139127731323	response	0	j		296.0	/experiments/knapen_AOT/AOT_stimuli/pictures/1639_fw.png	435.40310883522034	
299	313.4537899494171	picture	0		94	297.0	/experiments/knapen_AOT/AOT_stimuli/pictures/1353_fw.png	435.4429860115051	0.8166968822479248
299	314.2223048210144	response	0	j		297.0	/experiments/knapen_AOT/AOT_stimuli/pictures/1353_fw.png	436.2115008831024	
300	314.27048683166504	picture	0		90	298.0	/experiments/knapen_AOT/AOT_stimuli/pictures/0268_fw.png	436.25968289375305	0.8428249359130859
300	315.00574588775635	response	0	k		298.0	/experiments/knapen_AOT/AOT_stimuli/pictures/0268_fw.png	436.99494194984436	
301	315.1133117675781	picture	0		104	299.0	/experiments/knapen_AOT/AOT_stimuli/pictures/0840_fw.png	437.10250782966614	0.8821702003479004
301	315.97069692611694	response	0	k		299.0	/experiments/knapen_AOT/AOT_stimuli/pictures/0840_fw.png	437.95989298820496	
302	315.995481967926	picture	0		120	300.0	/experiments/knapen_AOT/AOT_stimuli/pictures/1129_fw.png	437.98467803001404	1.0667660236358643
302	316.9873399734497	response	0	j		300.0	/experiments/knapen_AOT/AOT_stimuli/pictures/1129_fw.png	438.9765360355377	
303	317.0622479915619	picture	0		163	301.0	/experiments/knapen_AOT/AOT_stimuli/pictures/2037_fw.png	439.0514440536499	1.3844618797302246
303	318.40569281578064	response	0	k		301.0	/experiments/knapen_AOT/AOT_stimuli/pictures/2037_fw.png	440.39488887786865	
304	318.4467098712921	picture	0		83	302.0	/experiments/knapen_AOT/AOT_stimuli/pictures/0498_fw.png	440.4359059333801	0.7239289283752441
304	319.1292428970337	response	0	j		302.0	/experiments/knapen_AOT/AOT_stimuli/pictures/0498_fw.png	441.1184389591217	
305	319.17063879966736	picture	0		100	303.0	/experiments/knapen_AOT/AOT_stimuli/pictures/0461_fw.png	441.15983486175537	0.8594760894775391
305	319.99566292762756	response	0	k		303.0	/experiments/knapen_AOT/AOT_stimuli/pictures/0461_fw.png	441.9848589897156	
306	320.0301148891449	picture	0		109	304.0	/experiments/knapen_AOT/AOT_stimuli/pictures/2157_fw.png	442.0193109512329	0.958245038986206
306	320.92907786369324	response	0	k		304.0	/experiments/knapen_AOT/AOT_stimuli/pictures/2157_fw.png	442.91827392578125	
307	320.9883599281311	picture	0		223	305.0	/experiments/knapen_AOT/AOT_stimuli/pictures/1829_fw.png	442.9775559902191	1.875114917755127
307	322.8374059200287	response	0	k		305.0	/experiments/knapen_AOT/AOT_stimuli/pictures/1829_fw.png	444.8266019821167	
308	322.86347484588623	picture	0		105	306.0	/experiments/knapen_AOT/AOT_stimuli/pictures/0068_fw.png	444.85267090797424	0.9166100025177002
308	323.7291188240051	response	0	k		306.0	/experiments/knapen_AOT/AOT_stimuli/pictures/0068_fw.png	445.71831488609314	
309	323.78008484840393	picture	0		104	307.0	/experiments/knapen_AOT/AOT_stimuli/pictures/1610_fw.png	445.76928091049194	0.8988540172576904
309	324.6307199001312	response	0	k		307.0	/experiments/knapen_AOT/AOT_stimuli/pictures/1610_fw.png	446.61991596221924	
310	324.6789388656616	picture	0		96	308.0	/experiments/knapen_AOT/AOT_stimuli/pictures/1563_fw.png	446.66813492774963	0.8750910758972168
310	325.47083377838135	response	0	k		308.0	/experiments/knapen_AOT/AOT_stimuli/pictures/1563_fw.png	447.46002984046936	
311	325.55402994155884	picture	0		119	309.0	/experiments/knapen_AOT/AOT_stimuli/pictures/0566_fw.png	447.54322600364685	1.0178048610687256
311	326.5374667644501	response	0	k		309.0	/experiments/knapen_AOT/AOT_stimuli/pictures/0566_fw.png	448.5266628265381	
312	326.57183480262756	picture	0		217	310.0	/experiments/knapen_AOT/AOT_stimuli/pictures/0102_fw.png	448.5610308647156	1.8404951095581055
312	328.3708219528198	response	0	k		310.0	/experiments/knapen_AOT/AOT_stimuli/pictures/0102_fw.png	450.36001801490784	
313	328.41232991218567	picture	0		76	311.0	/experiments/knapen_AOT/AOT_stimuli/pictures/1047_fw.png	450.4015259742737	0.6917128562927246
313	329.0624768733978	response	0	j		311.0	/experiments/knapen_AOT/AOT_stimuli/pictures/1047_fw.png	451.05167293548584	
314	329.1040427684784	picture	0		112	312.0	/experiments/knapen_AOT/AOT_stimuli/pictures/1719_fw.png	451.0932388305664	0.9666941165924072
314	330.02250695228577	response	0	k		312.0	/experiments/knapen_AOT/AOT_stimuli/pictures/1719_fw.png	452.0117030143738	
315	330.0707368850708	picture	0		150	313.0	/experiments/knapen_AOT/AOT_stimuli/pictures/1247_fw.png	452.0599329471588	1.2718729972839355
315	331.3126139640808	response	0	j		313.0	/experiments/knapen_AOT/AOT_stimuli/pictures/1247_fw.png	453.3018100261688	
316	331.34260988235474	picture	0		120	314.0	/experiments/knapen_AOT/AOT_stimuli/pictures/0535_fw.png	453.33180594444275	1.0624849796295166
316	332.33765387535095	response	0	k		314.0	/experiments/knapen_AOT/AOT_stimuli/pictures/0535_fw.png	454.32684993743896	
317	332.40509486198425	picture	0		155	315.0	/experiments/knapen_AOT/AOT_stimuli/pictures/0123_fw.png	454.39429092407227	1.507460117340088
317	333.68762278556824	response	0	k		315.0	/experiments/knapen_AOT/AOT_stimuli/pictures/0123_fw.png	455.67681884765625	
318	333.91255497932434	picture	0		95	316.0	/experiments/knapen_AOT/AOT_stimuli/pictures/0632_fw.png	455.90175104141235	0.8248589038848877
318	334.6959328651428	response	0	j		316.0	/experiments/knapen_AOT/AOT_stimuli/pictures/0632_fw.png	456.68512892723083	
319	334.73741388320923	picture	0		101	317.0	/experiments/knapen_AOT/AOT_stimuli/pictures/0224_fw.png	456.72660994529724	0.8666989803314209
319	335.57101488113403	response	0	j		317.0	/experiments/knapen_AOT/AOT_stimuli/pictures/0224_fw.png	457.56021094322205	
320	335.60411286354065	picture	0		103	318.0	/experiments/knapen_AOT/AOT_stimuli/pictures/0652_fw.png	457.59330892562866	0.8775510787963867
320	336.45423793792725	response	0	k		318.0	/experiments/knapen_AOT/AOT_stimuli/pictures/0652_fw.png	458.44343400001526	
321	336.48166394233704	picture	0		97	319.0	/experiments/knapen_AOT/AOT_stimuli/pictures/1606_fw.png	458.47086000442505	0.8391628265380859
321	337.2793757915497	response	0	k		319.0	/experiments/knapen_AOT/AOT_stimuli/pictures/1606_fw.png	459.2685718536377	
322	337.3208267688751	picture	0		89	320.0	/experiments/knapen_AOT/AOT_stimuli/pictures/0099_fw.png	459.31002283096313	0.7582931518554688
322	338.0542588233948	response	0	j		320.0	/experiments/knapen_AOT/AOT_stimuli/pictures/0099_fw.png	460.0434548854828	
323	338.0791199207306	picture	0		152	321.0	/experiments/knapen_AOT/AOT_stimuli/pictures/0256_fw.png	460.0683159828186	1.3000218868255615
323	339.337739944458	response	0	j		321.0	/experiments/knapen_AOT/AOT_stimuli/pictures/0256_fw.png	461.326936006546	
324	339.37914180755615	picture	0		96	322.0	/experiments/knapen_AOT/AOT_stimuli/pictures/0018_fw.png	461.36833786964417	0.824998140335083
324	340.1710729598999	response	0	j		322.0	/experiments/knapen_AOT/AOT_stimuli/pictures/0018_fw.png	462.1602690219879	
325	340.20413994789124	picture	0		189	323.0	/experiments/knapen_AOT/AOT_stimuli/pictures/0711_fw.png	462.19333600997925	1.5968878269195557
325	341.7711057662964	response	0	k		323.0	/experiments/knapen_AOT/AOT_stimuli/pictures/0711_fw.png	463.7603018283844	
326	341.8010277748108	picture	0		84	324.0	/experiments/knapen_AOT/AOT_stimuli/pictures/2117_fw.png	463.7902238368988	0.7152881622314453
326	342.4960699081421	response	0	k		324.0	/experiments/knapen_AOT/AOT_stimuli/pictures/2117_fw.png	464.4852659702301	
327	342.51631593704224	picture	0		103	325.0	/experiments/knapen_AOT/AOT_stimuli/pictures/0863_fw.png	464.50551199913025	0.8888828754425049
327	343.3627829551697	response	0	j		325.0	/experiments/knapen_AOT/AOT_stimuli/pictures/0863_fw.png	465.3519790172577	
328	343.40519881248474	picture	0		110	326.0	/experiments/knapen_AOT/AOT_stimuli/pictures/1845_fw.png	465.39439487457275	0.9489929676055908
328	344.31283497810364	response	0	j		326.0	/experiments/knapen_AOT/AOT_stimuli/pictures/1845_fw.png	466.30203104019165	
329	344.35419178009033	picture	0		91	327.0	/experiments/knapen_AOT/AOT_stimuli/pictures/0276_fw.png	466.34338784217834	0.8010241985321045
329	345.104327917099	response	0	k		327.0	/experiments/knapen_AOT/AOT_stimuli/pictures/0276_fw.png	467.093523979187	
330	345.15521597862244	picture	0		80	328.0	/experiments/knapen_AOT/AOT_stimuli/pictures/2054_fw.png	467.14441204071045	0.6945068836212158
330	345.8059539794922	response	0	k		328.0	/experiments/knapen_AOT/AOT_stimuli/pictures/2054_fw.png	467.7951500415802	
331	345.84972286224365	picture	0		122	329.0	/experiments/knapen_AOT/AOT_stimuli/pictures/0027_fw.png	467.83891892433167	1.0462000370025635
331	346.8543689250946	response	0	k		329.0	/experiments/knapen_AOT/AOT_stimuli/pictures/0027_fw.png	468.8435649871826	
332	346.8959228992462	picture	0		95	330.0	/experiments/knapen_AOT/AOT_stimuli/pictures/1714_fw.png	468.88511896133423	0.8166868686676025
332	347.67941880226135	response	0	j		330.0	/experiments/knapen_AOT/AOT_stimuli/pictures/1714_fw.png	469.66861486434937	
333	347.7126097679138	picture	0		81	331.0	/experiments/knapen_AOT/AOT_stimuli/pictures/1536_fw.png	469.70180583000183	0.8750560283660889
333	348.3794038295746	response	0	j		331.0	/experiments/knapen_AOT/AOT_stimuli/pictures/1536_fw.png	470.3685998916626	
334	348.5876657962799	picture	0		98	332.0	/experiments/knapen_AOT/AOT_stimuli/pictures/1503_fw.png	470.5768618583679	0.8384201526641846
334	349.3961868286133	response	0	j		332.0	/experiments/knapen_AOT/AOT_stimuli/pictures/1503_fw.png	471.3853828907013	
335	349.4260859489441	picture	0		88	333.0	/experiments/knapen_AOT/AOT_stimuli/pictures/1447_fw.png	471.4152820110321	0.836601972579956
335	350.1544439792633	response	0	k		333.0	/experiments/knapen_AOT/AOT_stimuli/pictures/1447_fw.png	472.1436400413513	
336	350.26268792152405	picture	0		122	334.0	/experiments/knapen_AOT/AOT_stimuli/pictures/1534_fw.png	472.25188398361206	1.052290916442871
336	351.2711489200592	response	0	j		334.0	/experiments/knapen_AOT/AOT_stimuli/pictures/1534_fw.png	473.2603449821472	
337	351.3149788379669	picture	0		108	335.0	/experiments/knapen_AOT/AOT_stimuli/pictures/0983_fw.png	473.30417490005493	0.9309930801391602
337	352.197872877121	response	0	k		335.0	/experiments/knapen_AOT/AOT_stimuli/pictures/0983_fw.png	474.187068939209	
338	352.2459719181061	picture	0		116	336.0	/experiments/knapen_AOT/AOT_stimuli/pictures/0283_fw.png	474.2351679801941	1.0000059604644775
338	353.19783997535706	response	0	j		336.0	/experiments/knapen_AOT/AOT_stimuli/pictures/0283_fw.png	475.18703603744507	
339	353.24597787857056	picture	0		80	337.0	/experiments/knapen_AOT/AOT_stimuli/pictures/0286_fw.png	475.23517394065857	0.6940948963165283
339	353.9045069217682	response	0	j		337.0	/experiments/knapen_AOT/AOT_stimuli/pictures/0286_fw.png	475.8937029838562	
340	353.9400727748871	picture	0		82	338.0	/experiments/knapen_AOT/AOT_stimuli/pictures/1613_fw.png	475.9292688369751	0.7082901000976562
340	354.6060698032379	response	0	k		338.0	/experiments/knapen_AOT/AOT_stimuli/pictures/1613_fw.png	476.5952658653259	
341	354.64836287498474	picture	0		99	339.0	/experiments/knapen_AOT/AOT_stimuli/pictures/0520_fw.png	476.63755893707275	0.8560059070587158
341	355.46284580230713	response	0	k		339.0	/experiments/knapen_AOT/AOT_stimuli/pictures/0520_fw.png	477.45204186439514	
342	355.50436878204346	picture	0		124	340.0	/experiments/knapen_AOT/AOT_stimuli/pictures/1518_fw.png	477.49356484413147	1.06669020652771
342	356.52956986427307	response	0	j		340.0	/experiments/knapen_AOT/AOT_stimuli/pictures/1518_fw.png	478.5187659263611	
343	356.57105898857117	picture	0		101	341.0	/experiments/knapen_AOT/AOT_stimuli/pictures/0946_fw.png	478.5602550506592	0.8749828338623047
343	357.3978338241577	response	0	k		341.0	/experiments/knapen_AOT/AOT_stimuli/pictures/0946_fw.png	479.3870298862457	
344	357.4460418224335	picture	0		101	342.0	/experiments/knapen_AOT/AOT_stimuli/pictures/0331_fw.png	479.4352378845215	0.8690850734710693
344	358.27957487106323	response	0	k		342.0	/experiments/knapen_AOT/AOT_stimuli/pictures/0331_fw.png	480.26877093315125	
345	358.31512689590454	picture	0		99	343.0	/experiments/knapen_AOT/AOT_stimuli/pictures/0290_fw.png	480.30432295799255	0.8476779460906982
345	359.12959599494934	response	0	k		343.0	/experiments/knapen_AOT/AOT_stimuli/pictures/0290_fw.png	481.11879205703735	
346	359.16280484199524	picture	0		115	344.0	/experiments/knapen_AOT/AOT_stimuli/pictures/1330_fw.png	481.15200090408325	0.9925270080566406
346	360.11302876472473	response	0	j		344.0	/experiments/knapen_AOT/AOT_stimuli/pictures/1330_fw.png	482.10222482681274	
347	360.1553318500519	picture	0		119	345.0	/experiments/knapen_AOT/AOT_stimuli/pictures/1516_fw.png	482.1445279121399	1.1324551105499268
347	361.13800287246704	response	0	k		345.0	/experiments/knapen_AOT/AOT_stimuli/pictures/1516_fw.png	483.12719893455505	
348	361.2877869606018	picture	0		79	346.0	/experiments/knapen_AOT/AOT_stimuli/pictures/1870_fw.png	483.2769830226898	0.6869978904724121
348	361.9381229877472	response	0	k		346.0	/experiments/knapen_AOT/AOT_stimuli/pictures/1870_fw.png	483.9273190498352	
349	361.9747848510742	picture	0		88	347.0	/experiments/knapen_AOT/AOT_stimuli/pictures/0244_fw.png	483.96398091316223	0.7848219871520996
349	362.6962847709656	response	0	j		347.0	/experiments/knapen_AOT/AOT_stimuli/pictures/0244_fw.png	484.6854808330536	
350	362.7596068382263	picture	0		139	348.0	/experiments/knapen_AOT/AOT_stimuli/pictures/1209_fw.png	484.74880290031433	1.2282350063323975
350	363.9130787849426	response	0	k		348.0	/experiments/knapen_AOT/AOT_stimuli/pictures/1209_fw.png	485.90227484703064	
351	363.9878418445587	picture	0		145	349.0	/experiments/knapen_AOT/AOT_stimuli/pictures/1040_fw.png	485.97703790664673	1.361994981765747
351	365.18812799453735	response	0	j		349.0	/experiments/knapen_AOT/AOT_stimuli/pictures/1040_fw.png	487.17732405662537	
352	365.34983682632446	picture	0		235	350.0	/experiments/knapen_AOT/AOT_stimuli/pictures/1754_fw.png	487.3390328884125	1.9930479526519775
352	367.2964599132538	response	0	j		350.0	/experiments/knapen_AOT/AOT_stimuli/pictures/1754_fw.png	489.2856559753418	
353	367.34288477897644	picture	0		83	351.0	/experiments/knapen_AOT/AOT_stimuli/pictures/0748_fw.png	489.33208084106445	0.7367150783538818
353	368.0230028629303	response	0	k		351.0	/experiments/knapen_AOT/AOT_stimuli/pictures/0748_fw.png	490.0121989250183	
354	368.0795998573303	picture	0		84	352.0	/experiments/knapen_AOT/AOT_stimuli/pictures/0320_fw.png	490.06879591941833	0.7216379642486572
354	368.7713918685913	response	0	k		352.0	/experiments/knapen_AOT/AOT_stimuli/pictures/0320_fw.png	490.7605879306793	
355	368.801237821579	picture	0		90	353.0	/experiments/knapen_AOT/AOT_stimuli/pictures/1501_fw.png	490.790433883667	0.7847909927368164
355	369.54647278785706	response	0	k		353.0	/experiments/knapen_AOT/AOT_stimuli/pictures/1501_fw.png	491.53566884994507	
356	369.5860288143158	picture	0		103	354.0	/experiments/knapen_AOT/AOT_stimuli/pictures/1951_fw.png	491.5752248764038	0.9018330574035645
356	370.43797993659973	response	0	k		354.0	/experiments/knapen_AOT/AOT_stimuli/pictures/1951_fw.png	492.42717599868774	
357	370.48786187171936	picture	0		210	355.0	/experiments/knapen_AOT/AOT_stimuli/pictures/1237_fw.png	492.4770579338074	1.7916951179504395
357	372.229856967926	response	0	k		355.0	/experiments/knapen_AOT/AOT_stimuli/pictures/1237_fw.png	494.21905303001404	
358	372.2795569896698	picture	0		101	356.0	/experiments/knapen_AOT/AOT_stimuli/pictures/1733_fw.png	494.2687530517578	0.8584368228912354
358	373.1131989955902	response	0	k		356.0	/experiments/knapen_AOT/AOT_stimuli/pictures/1733_fw.png	495.1023950576782	
359	373.13799381256104	picture	0		111	357.0	/experiments/knapen_AOT/AOT_stimuli/pictures/0419_fw.png	495.12718987464905	0.9688739776611328
359	374.05478382110596	response	0	k		357.0	/experiments/knapen_AOT/AOT_stimuli/pictures/0419_fw.png	496.04397988319397	
360	374.10686779022217	picture	0		97	358.0	/experiments/knapen_AOT/AOT_stimuli/pictures/0909_fw.png	496.0960638523102	0.8263401985168457
360	374.90481996536255	response	0	k		358.0	/experiments/knapen_AOT/AOT_stimuli/pictures/0909_fw.png	496.89401602745056	
361	374.933207988739	picture	0		109	359.0	/experiments/knapen_AOT/AOT_stimuli/pictures/0322_fw.png	496.922404050827	0.9298059940338135
361	375.8299877643585	response	0	j		359.0	/experiments/knapen_AOT/AOT_stimuli/pictures/0322_fw.png	497.81918382644653	
362	375.8630139827728	stim	0		1037			497.85221004486084	8.668179988861084
362	380.6798939704895	response	0	j				502.6690900325775	
362	384.50635981559753	response	0	space				506.49555587768555	
