trial_nr	onset	event_type	phase	response	nr_frames	picture_index	picture_file	onset_abs	duration
0	0.1417078971862793	stim	0		2829			171.37504506111145	23.599492073059082
0	23.71639895439148	response	0	space				194.94973611831665	
2	23.74119997024536	picture	0		231	0.0	/experiments/knapen_aot/AOT/AOT_stimuli/pictures/1388_fw.png	194.97453713417053	1.933401107788086
2	25.65806007385254	response	0	j		0.0	/experiments/knapen_aot/AOT/AOT_stimuli/pictures/1388_fw.png	196.8913972377777	
3	25.674601078033447	picture	0		136	1.0	/experiments/knapen_aot/AOT/AOT_stimuli/pictures/1802_fw.png	196.90793824195862	1.141650915145874
3	26.80034899711609	response	0	j		1.0	/experiments/knapen_aot/AOT/AOT_stimuli/pictures/1802_fw.png	198.03368616104126	
4	26.81625199317932	picture	0		280	2.0	/experiments/knapen_aot/AOT/AOT_stimuli/pictures/0272_fw.png	198.0495891571045	2.338184118270874
4	29.141453981399536	response	0	k		2.0	/experiments/knapen_aot/AOT/AOT_stimuli/pictures/0272_fw.png	200.3747911453247	
5	29.154436111450195	picture	0		82	3.0	/experiments/knapen_aot/AOT/AOT_stimuli/pictures/1483_fw.png	200.38777327537537	0.6874499320983887
5	29.833127975463867	response	0	j		3.0	/experiments/knapen_aot/AOT/AOT_stimuli/pictures/1483_fw.png	201.06646513938904	
6	29.841886043548584	picture	0		138	4.0	/experiments/knapen_aot/AOT/AOT_stimuli/pictures/0537_fw.png	201.07522320747375	1.1528539657592773
6	30.983057022094727	response	0	k		4.0	/experiments/knapen_aot/AOT/AOT_stimuli/pictures/0537_fw.png	202.2163941860199	
7	30.99474000930786	picture	0		145	5.0	/experiments/knapen_aot/AOT/AOT_stimuli/pictures/1389_fw.png	202.22807717323303	1.2082929611206055
7	32.19134712219238	response	0	k		5.0	/experiments/knapen_aot/AOT/AOT_stimuli/pictures/1389_fw.png	203.42468428611755	
8	32.20303297042847	picture	0		126	6.0	/experiments/knapen_aot/AOT/AOT_stimuli/pictures/0519_fw.png	203.43637013435364	1.0485639572143555
8	33.24149799346924	response	0	j		6.0	/experiments/knapen_aot/AOT/AOT_stimuli/pictures/0519_fw.png	204.4748351573944	
9	33.25159692764282	picture	0		108	7.0	/experiments/knapen_aot/AOT/AOT_stimuli/pictures/1905_fw.png	204.484934091568	0.9027462005615234
9	34.141350984573364	response	0	k		7.0	/experiments/knapen_aot/AOT/AOT_stimuli/pictures/1905_fw.png	205.37468814849854	
10	34.154343128204346	picture	0		102	8.0	/experiments/knapen_aot/AOT/AOT_stimuli/pictures/1364_fw.png	205.38768029212952	0.8472299575805664
10	34.99131202697754	response	0	j		8.0	/experiments/knapen_aot/AOT/AOT_stimuli/pictures/1364_fw.png	206.2246491909027	
11	35.00157308578491	picture	0		110	9.0	/experiments/knapen_aot/AOT/AOT_stimuli/pictures/0313_fw.png	206.23491024971008	0.916618824005127
11	35.90127611160278	response	0	j		9.0	/experiments/knapen_aot/AOT/AOT_stimuli/pictures/0313_fw.png	207.13461327552795	
12	35.91819190979004	picture	0		127	10.0	/experiments/knapen_aot/AOT/AOT_stimuli/pictures/0945_fw.png	207.1515290737152	1.0625200271606445
12	36.966875076293945	response	0	j		10.0	/experiments/knapen_aot/AOT/AOT_stimuli/pictures/0945_fw.png	208.20021224021912	
13	36.980711936950684	picture	0		197	11.0	/experiments/knapen_aot/AOT/AOT_stimuli/pictures/0004_fw.png	208.21404910087585	1.645820140838623
13	38.61627793312073	response	0	k		11.0	/experiments/knapen_aot/AOT/AOT_stimuli/pictures/0004_fw.png	209.8496150970459	
14	38.62653207778931	picture	0		88	12.0	/experiments/knapen_aot/AOT/AOT_stimuli/pictures/1499_fw.png	209.85986924171448	0.7360849380493164
14	39.34965395927429	response	0	j		12.0	/experiments/knapen_aot/AOT/AOT_stimuli/pictures/1499_fw.png	210.58299112319946	
15	39.36261701583862	picture	0		101	13.0	/experiments/knapen_aot/AOT/AOT_stimuli/pictures/1647_fw.png	210.5959541797638	0.8472280502319336
15	40.19969606399536	response	0	j		13.0	/experiments/knapen_aot/AOT/AOT_stimuli/pictures/1647_fw.png	211.43303322792053	
16	40.20984506607056	picture	0		139	14.0	/experiments/knapen_aot/AOT/AOT_stimuli/pictures/0848_fw.png	211.44318222999573	1.1596589088439941
16	41.35790491104126	response	0	k		14.0	/experiments/knapen_aot/AOT/AOT_stimuli/pictures/0848_fw.png	212.59124207496643	
17	41.36950397491455	picture	0		112	15.0	/experiments/knapen_aot/AOT/AOT_stimuli/pictures/0627_fw.png	212.60284113883972	0.9305949211120605
17	42.28462791442871	response	0	j		15.0	/experiments/knapen_aot/AOT/AOT_stimuli/pictures/0627_fw.png	213.51796507835388	
18	42.30009889602661	picture	0		148	16.0	/experiments/knapen_aot/AOT/AOT_stimuli/pictures/1915_fw.png	213.53343605995178	1.2360830307006836
18	43.52454590797424	response	0	j		16.0	/experiments/knapen_aot/AOT/AOT_stimuli/pictures/1915_fw.png	214.7578830718994	
19	43.536181926727295	picture	0		169	17.0	/experiments/knapen_aot/AOT/AOT_stimuli/pictures/1526_fw.png	214.76951909065247	1.4096920490264893
19	44.9328510761261	response	0	k		17.0	/experiments/knapen_aot/AOT/AOT_stimuli/pictures/1526_fw.png	216.16618824005127	
20	44.945873975753784	picture	0		125	18.0	/experiments/knapen_aot/AOT/AOT_stimuli/pictures/0172_fw.png	216.17921113967896	1.0416929721832275
20	45.97458004951477	response	0	k		18.0	/experiments/knapen_aot/AOT/AOT_stimuli/pictures/0172_fw.png	217.20791721343994	
21	45.98756694793701	picture	0		92	19.0	/experiments/knapen_aot/AOT/AOT_stimuli/pictures/1501_fw.png	217.22090411186218	0.7638950347900391
21	46.74129796028137	response	0	j		19.0	/experiments/knapen_aot/AOT/AOT_stimuli/pictures/1501_fw.png	217.97463512420654	
22	46.75146198272705	picture	0		117	20.0	/experiments/knapen_aot/AOT/AOT_stimuli/pictures/0998_fw.png	217.98479914665222	0.9813539981842041
22	47.70948600769043	response	0	k		20.0	/experiments/knapen_aot/AOT/AOT_stimuli/pictures/0998_fw.png	218.9428231716156	
23	47.732815980911255	picture	0		90	21.0	/experiments/knapen_aot/AOT/AOT_stimuli/pictures/1743_fw.png	218.96615314483643	0.7547271251678467
23	48.474563121795654	response	0	j		21.0	/experiments/knapen_aot/AOT/AOT_stimuli/pictures/1743_fw.png	219.70790028572083	
24	48.4875431060791	picture	0		97	22.0	/experiments/knapen_aot/AOT/AOT_stimuli/pictures/0312_fw.png	219.72088027000427	0.8055980205535889
24	49.28289604187012	response	0	j		22.0	/experiments/knapen_aot/AOT/AOT_stimuli/pictures/0312_fw.png	220.5162332057953	
25	49.29314112663269	picture	0		95	23.0	/experiments/knapen_aot/AOT/AOT_stimuli/pictures/0476_fw.png	220.52647829055786	0.7915918827056885
25	50.07465600967407	response	0	j		23.0	/experiments/knapen_aot/AOT/AOT_stimuli/pictures/0476_fw.png	221.30799317359924	
26	50.08473300933838	picture	0		96	24.0	/experiments/knapen_aot/AOT/AOT_stimuli/pictures/2005_fw.png	221.31807017326355	0.7986268997192383
26	50.874573945999146	response	0	j		24.0	/experiments/knapen_aot/AOT/AOT_stimuli/pictures/2005_fw.png	222.10791110992432	
27	50.88335990905762	picture	0		268	25.0	/experiments/knapen_aot/AOT/AOT_stimuli/pictures/1303_fw.png	222.1166970729828	2.236112117767334
27	53.101085901260376	response	0	k		25.0	/experiments/knapen_aot/AOT/AOT_stimuli/pictures/1303_fw.png	224.33442306518555	
28	53.11947202682495	picture	0		181	26.0	/experiments/knapen_aot/AOT/AOT_stimuli/pictures/1422_fw.png	224.35280919075012	1.5068919658660889
28	54.61622905731201	response	0	k		26.0	/experiments/knapen_aot/AOT/AOT_stimuli/pictures/1422_fw.png	225.84956622123718	
29	54.62636399269104	picture	0		113	27.0	/experiments/knapen_aot/AOT/AOT_stimuli/pictures/1217_fw.png	225.8597011566162	0.9444451332092285
29	55.55787992477417	response	0	k		27.0	/experiments/knapen_aot/AOT/AOT_stimuli/pictures/1217_fw.png	226.79121708869934	
30	55.57080912590027	picture	0		122	28.0	/experiments/knapen_aot/AOT/AOT_stimuli/pictures/1368_fw.png	226.80414628982544	1.0138638019561768
30	56.57456612586975	response	0	k		28.0	/experiments/knapen_aot/AOT/AOT_stimuli/pictures/1368_fw.png	227.80790328979492	
31	56.584672927856445	picture	0		192	29.0	/experiments/knapen_aot/AOT/AOT_stimuli/pictures/1917_fw.png	227.81801009178162	1.6041500568389893
31	58.17506408691406	response	0	k		29.0	/experiments/knapen_aot/AOT/AOT_stimuli/pictures/1917_fw.png	229.40840125083923	
32	58.188822984695435	picture	0		116	30.0	/experiments/knapen_aot/AOT/AOT_stimuli/pictures/2177_fw.png	229.4221601486206	0.9722230434417725
32	59.14953589439392	response	0	k		30.0	/experiments/knapen_aot/AOT/AOT_stimuli/pictures/2177_fw.png	230.3828730583191	
33	59.16104602813721	picture	0		92	31.0	/experiments/knapen_aot/AOT/AOT_stimuli/pictures/0156_fw.png	230.39438319206238	0.7639040946960449
33	59.90939211845398	response	0	j		31.0	/experiments/knapen_aot/AOT/AOT_stimuli/pictures/0156_fw.png	231.14272928237915	
34	59.92495012283325	picture	0		129	32.0	/experiments/knapen_aot/AOT/AOT_stimuli/pictures/0411_fw.png	231.15828728675842	1.076361894607544
34	60.99118494987488	response	0	k		32.0	/experiments/knapen_aot/AOT/AOT_stimuli/pictures/0411_fw.png	232.22452211380005	
35	61.001312017440796	picture	0		108	33.0	/experiments/knapen_aot/AOT/AOT_stimuli/pictures/0218_fw.png	232.23464918136597	0.9027280807495117
35	61.884881019592285	response	0	k		33.0	/experiments/knapen_aot/AOT/AOT_stimuli/pictures/0218_fw.png	233.11821818351746	
36	61.90404009819031	picture	0		123	34.0	/experiments/knapen_aot/AOT/AOT_stimuli/pictures/0878_fw.png	233.13737726211548	1.0208299160003662
36	62.90931510925293	response	0	k		34.0	/experiments/knapen_aot/AOT/AOT_stimuli/pictures/0878_fw.png	234.1426522731781	
37	62.924870014190674	picture	0		264	35.0	/experiments/knapen_aot/AOT/AOT_stimuli/pictures/1494_fw.png	234.15820717811584	2.201390027999878
37	65.1093680858612	response	0	k		35.0	/experiments/knapen_aot/AOT/AOT_stimuli/pictures/1494_fw.png	236.34270524978638	
38	65.12626004219055	picture	0		111	36.0	/experiments/knapen_aot/AOT/AOT_stimuli/pictures/1773_fw.png	236.35959720611572	0.923630952835083
38	66.04116606712341	response	0	k		36.0	/experiments/knapen_aot/AOT/AOT_stimuli/pictures/1773_fw.png	237.27450323104858	
39	66.04989099502563	picture	0		111	37.0	/experiments/knapen_aot/AOT/AOT_stimuli/pictures/0397_fw.png	237.2832281589508	0.9305329322814941
39	66.9666199684143	response	0	j		37.0	/experiments/knapen_aot/AOT/AOT_stimuli/pictures/0397_fw.png	238.19995713233948	
40	66.98042392730713	picture	0		195	38.0	/experiments/knapen_aot/AOT/AOT_stimuli/pictures/1895_fw.png	238.2137610912323	1.6319031715393066
40	68.5994520187378	response	0	j		38.0	/experiments/knapen_aot/AOT/AOT_stimuli/pictures/1895_fw.png	239.83278918266296	
41	68.61232709884644	picture	0		95	39.0	/experiments/knapen_aot/AOT/AOT_stimuli/pictures/1991_fw.png	239.8456642627716	0.7986218929290771
41	69.39948391914368	response	0	j		39.0	/experiments/knapen_aot/AOT/AOT_stimuli/pictures/1991_fw.png	240.63282108306885	
42	69.41094899177551	picture	0		170	40.0	/experiments/knapen_aot/AOT/AOT_stimuli/pictures/1315_fw.png	240.64428615570068	1.416722059249878
42	70.81621408462524	response	0	k		40.0	/experiments/knapen_aot/AOT/AOT_stimuli/pictures/1315_fw.png	242.04955124855042	
43	70.82767105102539	picture	0		98	41.0	/experiments/knapen_aot/AOT/AOT_stimuli/pictures/1213_fw.png	242.06100821495056	0.8193569183349609
43	71.63325095176697	response	0	k		41.0	/experiments/knapen_aot/AOT/AOT_stimuli/pictures/1213_fw.png	242.86658811569214	
44	71.64702796936035	picture	0		2144	42.0	/experiments/knapen_aot/AOT/AOT_stimuli/pictures/1244_fw.png	242.88036513328552	17.87727403640747
44	89.50805997848511	response	0	k		42.0	/experiments/knapen_aot/AOT/AOT_stimuli/pictures/1244_fw.png	260.7413971424103	
45	89.52430200576782	picture	0		127	43.0	/experiments/knapen_aot/AOT/AOT_stimuli/pictures/1869_fw.png	260.757639169693	1.060063123703003
45	90.5744309425354	response	0	k		43.0	/experiments/knapen_aot/AOT/AOT_stimuli/pictures/1869_fw.png	261.80776810646057	
46	90.58436512947083	picture	0		190	44.0	/experiments/knapen_aot/AOT/AOT_stimuli/pictures/0246_fw.png	261.817702293396	1.5832748413085938
46	92.15773296356201	response	0	j		44.0	/experiments/knapen_aot/AOT/AOT_stimuli/pictures/0246_fw.png	263.3910701274872	
47	92.16763997077942	picture	0		136	45.0	/experiments/knapen_aot/AOT/AOT_stimuli/pictures/1849_fw.png	263.4009771347046	1.131899118423462
47	93.29105305671692	response	0	k		45.0	/experiments/knapen_aot/AOT/AOT_stimuli/pictures/1849_fw.png	264.5243902206421	
48	93.29953908920288	picture	0		115	46.0	/experiments/knapen_aot/AOT/AOT_stimuli/pictures/1405_fw.png	264.53287625312805	0.9583978652954102
48	94.24939012527466	response	0	j		46.0	/experiments/knapen_aot/AOT/AOT_stimuli/pictures/1405_fw.png	265.48272728919983	
49	94.25793695449829	picture	0		294	47.0	/experiments/knapen_aot/AOT/AOT_stimuli/pictures/1538_fw.png	265.49127411842346	2.4513771533966064
49	96.69939398765564	response	0	k		47.0	/experiments/knapen_aot/AOT/AOT_stimuli/pictures/1538_fw.png	267.9327311515808	
50	96.7093141078949	picture	0		127	48.0	/experiments/knapen_aot/AOT/AOT_stimuli/pictures/0872_fw.png	267.94265127182007	1.0624499320983887
50	97.75801110267639	response	0	j		48.0	/experiments/knapen_aot/AOT/AOT_stimuli/pictures/0872_fw.png	268.99134826660156	
51	97.77176403999329	picture	0		127	49.0	/experiments/knapen_aot/AOT/AOT_stimuli/pictures/2012_fw.png	269.00510120391846	1.0624840259552002
51	98.82437896728516	response	0	j		49.0	/experiments/knapen_aot/AOT/AOT_stimuli/pictures/2012_fw.png	270.0577161312103	
52	98.83424806594849	picture	0		326	50.0	/experiments/knapen_aot/AOT/AOT_stimuli/pictures/0044_fw.png	270.06758522987366	2.7152340412139893
52	101.53431105613708	response	0	k		50.0	/experiments/knapen_aot/AOT/AOT_stimuli/pictures/0044_fw.png	272.76764822006226	
53	101.54948210716248	picture	0		110	51.0	/experiments/knapen_aot/AOT/AOT_stimuli/pictures/1654_fw.png	272.78281927108765	0.9167509078979492
53	102.45766091346741	response	0	j		51.0	/experiments/knapen_aot/AOT/AOT_stimuli/pictures/1654_fw.png	273.6909980773926	
54	102.46623301506042	picture	0		105	52.0	/experiments/knapen_aot/AOT/AOT_stimuli/pictures/2041_fw.png	273.6995701789856	0.8749070167541504
54	103.32587695121765	response	0	j		52.0	/experiments/knapen_aot/AOT/AOT_stimuli/pictures/2041_fw.png	274.5592141151428	
55	103.34114003181458	picture	0		85	53.0	/experiments/knapen_aot/AOT/AOT_stimuli/pictures/1276_fw.png	274.57447719573975	0.7164509296417236
55	104.04091501235962	response	0	j		53.0	/experiments/knapen_aot/AOT/AOT_stimuli/pictures/1276_fw.png	275.2742521762848	
56	104.0575909614563	picture	0		154	54.0	/experiments/knapen_aot/AOT/AOT_stimuli/pictures/0638_fw.png	275.29092812538147	1.283583164215088
56	105.3258969783783	response	0	k		54.0	/experiments/knapen_aot/AOT/AOT_stimuli/pictures/0638_fw.png	276.55923414230347	
57	105.34117412567139	picture	0		103	55.0	/experiments/knapen_aot/AOT/AOT_stimuli/pictures/0153_fw.png	276.57451128959656	0.8611388206481934
57	106.1910331249237	response	0	j		55.0	/experiments/knapen_aot/AOT/AOT_stimuli/pictures/0153_fw.png	277.4243702888489	
58	106.20231294631958	picture	0		97	56.0	/experiments/knapen_aot/AOT/AOT_stimuli/pictures/0506_fw.png	277.43565011024475	0.8054230213165283
58	106.99933099746704	response	0	j		56.0	/experiments/knapen_aot/AOT/AOT_stimuli/pictures/0506_fw.png	278.2326681613922	
59	107.00773596763611	picture	0		84	57.0	/experiments/knapen_aot/AOT/AOT_stimuli/pictures/2139_fw.png	278.2410731315613	0.7014491558074951
59	107.69930100440979	response	0	j		57.0	/experiments/knapen_aot/AOT/AOT_stimuli/pictures/2139_fw.png	278.93263816833496	
60	107.7091851234436	picture	0		90	58.0	/experiments/knapen_aot/AOT/AOT_stimuli/pictures/2150_fw.png	278.9425222873688	0.7499868869781494
60	108.4493420124054	response	0	j		58.0	/experiments/knapen_aot/AOT/AOT_stimuli/pictures/2150_fw.png	279.68267917633057	
61	108.45917201042175	picture	0		98	59.0	/experiments/knapen_aot/AOT/AOT_stimuli/pictures/1963_fw.png	279.6925091743469	0.8194599151611328
61	109.26597094535828	response	0	j		59.0	/experiments/knapen_aot/AOT/AOT_stimuli/pictures/1963_fw.png	280.49930810928345	
62	109.27863192558289	picture	0		101	60.0	/experiments/knapen_aot/AOT/AOT_stimuli/pictures/1900_fw.png	280.51196908950806	0.8457231521606445
62	110.10766005516052	response	0	j		60.0	/experiments/knapen_aot/AOT/AOT_stimuli/pictures/1900_fw.png	281.3409972190857	
63	110.12435507774353	picture	0		238	61.0	/experiments/knapen_aot/AOT/AOT_stimuli/pictures/2104_fw.png	281.3576922416687	1.991515874862671
63	112.09934496879578	response	0	j		61.0	/experiments/knapen_aot/AOT/AOT_stimuli/pictures/2104_fw.png	283.33268213272095	
64	112.1158709526062	picture	0		173	62.0	/experiments/knapen_aot/AOT/AOT_stimuli/pictures/1448_fw.png	283.3492081165314	1.4474141597747803
64	113.54248690605164	response	0	k		62.0	/experiments/knapen_aot/AOT/AOT_stimuli/pictures/1448_fw.png	284.7758240699768	
65	113.56328511238098	picture	0		100	63.0	/experiments/knapen_aot/AOT/AOT_stimuli/pictures/1785_fw.png	284.79662227630615	0.8402829170227051
65	114.39097595214844	response	0	j		63.0	/experiments/knapen_aot/AOT/AOT_stimuli/pictures/1785_fw.png	285.6243131160736	
66	114.40356802940369	picture	0		107	64.0	/experiments/knapen_aot/AOT/AOT_stimuli/pictures/0714_fw.png	285.63690519332886	0.8888769149780273
66	115.28260111808777	response	0	k		64.0	/experiments/knapen_aot/AOT/AOT_stimuli/pictures/0714_fw.png	286.51593828201294	
67	115.29244494438171	picture	0		118	65.0	/experiments/knapen_aot/AOT/AOT_stimuli/pictures/1887_fw.png	286.5257821083069	0.9860939979553223
67	116.26594400405884	response	0	k		65.0	/experiments/knapen_aot/AOT/AOT_stimuli/pictures/1887_fw.png	287.499281167984	
68	116.27853894233704	picture	0		82	66.0	/experiments/knapen_aot/AOT/AOT_stimuli/pictures/0852_fw.png	287.5118761062622	0.6805119514465332
68	116.94242310523987	response	0	j		66.0	/experiments/knapen_aot/AOT/AOT_stimuli/pictures/0852_fw.png	288.17576026916504	
69	116.95905089378357	picture	0		94	67.0	/experiments/knapen_aot/AOT/AOT_stimuli/pictures/0933_fw.png	288.19238805770874	0.7847681045532227
69	117.7258050441742	response	0	j		67.0	/experiments/knapen_aot/AOT/AOT_stimuli/pictures/0933_fw.png	288.95914220809937	
70	117.74381899833679	picture	0		90	68.0	/experiments/knapen_aot/AOT/AOT_stimuli/pictures/0175_fw.png	288.97715616226196	0.7499909400939941
70	118.48261904716492	response	0	j		68.0	/experiments/knapen_aot/AOT/AOT_stimuli/pictures/0175_fw.png	289.7159562110901	
71	118.49380993843079	picture	0		95	69.0	/experiments/knapen_aot/AOT/AOT_stimuli/pictures/1147_fw.png	289.72714710235596	0.7916531562805176
71	119.27425599098206	response	0	j		69.0	/experiments/knapen_aot/AOT/AOT_stimuli/pictures/1147_fw.png	290.5075931549072	
72	119.2854630947113	picture	0		84	70.0	/experiments/knapen_aot/AOT/AOT_stimuli/pictures/1084_fw.png	290.5188002586365	0.7013938426971436
72	119.97422194480896	response	0	j		70.0	/experiments/knapen_aot/AOT/AOT_stimuli/pictures/1084_fw.png	291.20755910873413	
73	119.98685693740845	picture	0		102	71.0	/experiments/knapen_aot/AOT/AOT_stimuli/pictures/1589_fw.png	291.2201941013336	0.8472959995269775
73	120.82425808906555	response	0	j		71.0	/experiments/knapen_aot/AOT/AOT_stimuli/pictures/1589_fw.png	292.0575952529907	
74	120.83415293693542	picture	0		148	72.0	/experiments/knapen_aot/AOT/AOT_stimuli/pictures/1754_fw.png	292.0674901008606	1.235992193222046
74	122.05758094787598	response	0	k		72.0	/experiments/knapen_aot/AOT/AOT_stimuli/pictures/1754_fw.png	293.29091811180115	
75	122.07014513015747	picture	0		128	73.0	/experiments/knapen_aot/AOT/AOT_stimuli/pictures/1189_fw.png	293.30348229408264	1.062485933303833
75	123.11743807792664	response	0	j		73.0	/experiments/knapen_aot/AOT/AOT_stimuli/pictures/1189_fw.png	294.3507752418518	
76	123.1326310634613	picture	0		100	74.0	/experiments/knapen_aot/AOT/AOT_stimuli/pictures/0669_fw.png	294.3659682273865	0.8332910537719727
76	123.95069408416748	response	0	k		74.0	/experiments/knapen_aot/AOT/AOT_stimuli/pictures/0669_fw.png	295.18403124809265	
77	123.96592211723328	picture	0		100	75.0	/experiments/knapen_aot/AOT/AOT_stimuli/pictures/0918_fw.png	295.19925928115845	0.8333389759063721
77	124.79087591171265	response	0	k		75.0	/experiments/knapen_aot/AOT/AOT_stimuli/pictures/0918_fw.png	296.0242130756378	
78	124.79926109313965	picture	0		139	76.0	/experiments/knapen_aot/AOT/AOT_stimuli/pictures/0207_fw.png	296.0325982570648	1.1599218845367432
78	125.94245290756226	response	0	k		76.0	/experiments/knapen_aot/AOT/AOT_stimuli/pictures/0207_fw.png	297.1757900714874	
79	125.95918297767639	picture	0		105	77.0	/experiments/knapen_aot/AOT/AOT_stimuli/pictures/0133_fw.png	297.19252014160156	0.8748230934143066
79	126.82418203353882	response	0	j		77.0	/experiments/knapen_aot/AOT/AOT_stimuli/pictures/0133_fw.png	298.057519197464	
80	126.8340060710907	picture	0		429	78.0	/experiments/knapen_aot/AOT/AOT_stimuli/pictures/1180_fw.png	298.06734323501587	3.576321840286255
80	130.39919590950012	response	0	k		78.0	/experiments/knapen_aot/AOT/AOT_stimuli/pictures/1180_fw.png	301.6325330734253	
81	130.41032791137695	picture	0		159	79.0	/experiments/knapen_aot/AOT/AOT_stimuli/pictures/0940_fw.png	301.6436650753021	1.3304710388183594
81	131.72425198554993	response	0	j		79.0	/experiments/knapen_aot/AOT/AOT_stimuli/pictures/0940_fw.png	302.9575891494751	
82	131.7407989501953	picture	0		200	80.0	/experiments/knapen_aot/AOT/AOT_stimuli/pictures/2058_fw.png	302.9741361141205	1.6695549488067627
82	133.3991289138794	response	0	k		80.0	/experiments/knapen_aot/AOT/AOT_stimuli/pictures/2058_fw.png	304.63246607780457	
83	133.41035389900208	picture	0		373	81.0	/experiments/knapen_aot/AOT/AOT_stimuli/pictures/1724_fw.png	304.64369106292725	3.1112051010131836
83	136.50772905349731	response	0	k		81.0	/experiments/knapen_aot/AOT/AOT_stimuli/pictures/1724_fw.png	307.7410662174225	
84	136.52155900001526	picture	0		137	82.0	/experiments/knapen_aot/AOT/AOT_stimuli/pictures/1664_fw.png	307.75489616394043	1.1456611156463623
84	137.65751695632935	response	0	j		82.0	/experiments/knapen_aot/AOT/AOT_stimuli/pictures/1664_fw.png	308.8908541202545	
85	137.66722011566162	picture	0		105	83.0	/experiments/knapen_aot/AOT/AOT_stimuli/pictures/1225_fw.png	308.9005572795868	0.8749969005584717
85	138.52572989463806	response	0	k		83.0	/experiments/knapen_aot/AOT/AOT_stimuli/pictures/1225_fw.png	309.75906705856323	
86	138.5422170162201	picture	0		97	84.0	/experiments/knapen_aot/AOT/AOT_stimuli/pictures/1046_fw.png	309.77555418014526	0.8125040531158447
86	139.33402705192566	response	0	j		84.0	/experiments/knapen_aot/AOT/AOT_stimuli/pictures/1046_fw.png	310.56736421585083	
87	139.35472106933594	picture	0		124	85.0	/experiments/knapen_aot/AOT/AOT_stimuli/pictures/0810_fw.png	310.5880582332611	1.0416369438171387
87	140.38258504867554	response	0	j		85.0	/experiments/knapen_aot/AOT/AOT_stimuli/pictures/0810_fw.png	311.6159222126007	
88	140.39635801315308	picture	0		117	86.0	/experiments/knapen_aot/AOT/AOT_stimuli/pictures/0721_fw.png	311.62969517707825	0.9791769981384277
88	141.3659119606018	response	0	j		86.0	/experiments/knapen_aot/AOT/AOT_stimuli/pictures/0721_fw.png	312.599249124527	
89	141.3755350112915	picture	0		152	87.0	/experiments/knapen_aot/AOT/AOT_stimuli/pictures/2147_fw.png	312.6088721752167	1.2708539962768555
89	142.63252592086792	response	0	k		87.0	/experiments/knapen_aot/AOT/AOT_stimuli/pictures/2147_fw.png	313.8658630847931	
90	142.64638900756836	picture	0		102	88.0	/experiments/knapen_aot/AOT/AOT_stimuli/pictures/1446_fw.png	313.87972617149353	0.8541240692138672
90	143.49083590507507	response	0	k		88.0	/experiments/knapen_aot/AOT/AOT_stimuli/pictures/1446_fw.png	314.72417306900024	
91	143.50051307678223	picture	0		179	89.0	/experiments/knapen_aot/AOT/AOT_stimuli/pictures/0266_fw.png	314.7338502407074	1.4985458850860596
91	144.9824719429016	response	0	j		89.0	/experiments/knapen_aot/AOT/AOT_stimuli/pictures/0266_fw.png	316.2158091068268	
92	144.9990589618683	picture	0		261	90.0	/experiments/knapen_aot/AOT/AOT_stimuli/pictures/0628_fw.png	316.23239612579346	2.1750659942626953
92	147.15920495986938	response	0	k		90.0	/experiments/knapen_aot/AOT/AOT_stimuli/pictures/0628_fw.png	318.39254212379456	
93	147.17412495613098	picture	0		167	91.0	/experiments/knapen_aot/AOT/AOT_stimuli/pictures/0158_fw.png	318.40746212005615	1.3957741260528564
93	148.5507049560547	response	0	k		91.0	/experiments/knapen_aot/AOT/AOT_stimuli/pictures/0158_fw.png	319.78404211997986	
94	148.56989908218384	picture	0		142	92.0	/experiments/knapen_aot/AOT/AOT_stimuli/pictures/0995_fw.png	319.803236246109	1.1874809265136719
94	149.73391389846802	response	0	k		92.0	/experiments/knapen_aot/AOT/AOT_stimuli/pictures/0995_fw.png	320.9672510623932	
95	149.7573800086975	picture	0		130	93.0	/experiments/knapen_aot/AOT/AOT_stimuli/pictures/0132_fw.png	320.9907171726227	1.0833139419555664
95	150.8324840068817	response	0	k		93.0	/experiments/knapen_aot/AOT/AOT_stimuli/pictures/0132_fw.png	322.0658211708069	
96	150.84069395065308	picture	0		146	94.0	/experiments/knapen_aot/AOT/AOT_stimuli/pictures/1271_fw.png	322.07403111457825	1.2222511768341064
96	152.04914903640747	response	0	k		94.0	/experiments/knapen_aot/AOT/AOT_stimuli/pictures/1271_fw.png	323.28248620033264	
97	152.06294512748718	picture	0		108	95.0	/experiments/knapen_aot/AOT/AOT_stimuli/pictures/1531_fw.png	323.29628229141235	0.9027528762817383
97	152.9506070613861	response	0	k		95.0	/experiments/knapen_aot/AOT/AOT_stimuli/pictures/1531_fw.png	324.1839442253113	
98	152.96569800376892	picture	0		94	96.0	/experiments/knapen_aot/AOT/AOT_stimuli/pictures/0215_fw.png	324.1990351676941	0.784722089767456
98	153.7339460849762	response	0	k		96.0	/experiments/knapen_aot/AOT/AOT_stimuli/pictures/0215_fw.png	324.96728324890137	
99	153.75042009353638	picture	0		127	97.0	/experiments/knapen_aot/AOT/AOT_stimuli/pictures/0663_fw.png	324.98375725746155	1.0625848770141602
99	154.79909110069275	response	0	j		97.0	/experiments/knapen_aot/AOT/AOT_stimuli/pictures/0663_fw.png	326.0324282646179	
100	154.81300497055054	picture	0		151	98.0	/experiments/knapen_aot/AOT/AOT_stimuli/pictures/1764_fw.png	326.0463421344757	1.269474983215332
100	156.06580996513367	response	0	k		98.0	/experiments/knapen_aot/AOT/AOT_stimuli/pictures/1764_fw.png	327.29914712905884	
101	156.08247995376587	picture	0		130	99.0	/experiments/knapen_aot/AOT/AOT_stimuli/pictures/0279_fw.png	327.31581711769104	1.0846550464630127
101	157.15069699287415	response	0	j		99.0	/experiments/knapen_aot/AOT/AOT_stimuli/pictures/0279_fw.png	328.3840341567993	
102	157.16713500022888	picture	0		162	100.0	/experiments/knapen_aot/AOT/AOT_stimuli/pictures/0080_fw.png	328.40047216415405	1.354085922241211
102	158.50741505622864	response	0	k		100.0	/experiments/knapen_aot/AOT/AOT_stimuli/pictures/0080_fw.png	329.7407522201538	
103	158.5212209224701	picture	0		101	101.0	/experiments/knapen_aot/AOT/AOT_stimuli/pictures/0200_fw.png	329.75455808639526	0.8472740650177002
103	159.35055494308472	response	0	j		101.0	/experiments/knapen_aot/AOT/AOT_stimuli/pictures/0200_fw.png	330.5838921070099	
104	159.3684949874878	picture	0		116	102.0	/experiments/knapen_aot/AOT/AOT_stimuli/pictures/1008_fw.png	330.60183215141296	0.9651839733123779
104	160.32410407066345	response	0	k		102.0	/experiments/knapen_aot/AOT/AOT_stimuli/pictures/1008_fw.png	331.5574412345886	
105	160.33367896080017	picture	0		133	103.0	/experiments/knapen_aot/AOT/AOT_stimuli/pictures/0261_fw.png	331.56701612472534	1.111083984375
105	161.43239092826843	response	0	j		103.0	/experiments/knapen_aot/AOT/AOT_stimuli/pictures/0261_fw.png	332.6657280921936	
106	161.44476294517517	picture	0		110	104.0	/experiments/knapen_aot/AOT/AOT_stimuli/pictures/0768_fw.png	332.67810010910034	0.9166691303253174
106	162.34220910072327	response	0	k		104.0	/experiments/knapen_aot/AOT/AOT_stimuli/pictures/0768_fw.png	333.57554626464844	
107	162.3614320755005	picture	0		150	105.0	/experiments/knapen_aot/AOT/AOT_stimuli/pictures/0136_fw.png	333.59476923942566	1.249992847442627
107	163.59903812408447	response	0	k		105.0	/experiments/knapen_aot/AOT/AOT_stimuli/pictures/0136_fw.png	334.83237528800964	
108	163.61142492294312	picture	0		204	106.0	/experiments/knapen_aot/AOT/AOT_stimuli/pictures/0692_fw.png	334.8447620868683	1.7014000415802002
108	165.2990701198578	response	0	j		106.0	/experiments/knapen_aot/AOT/AOT_stimuli/pictures/0692_fw.png	336.53240728378296	
109	165.31282496452332	picture	0		144	107.0	/experiments/knapen_aot/AOT/AOT_stimuli/pictures/1926_fw.png	336.5461621284485	1.20831298828125
109	166.5074119567871	response	0	k		107.0	/experiments/knapen_aot/AOT/AOT_stimuli/pictures/1926_fw.png	337.7407491207123	
110	166.52113795280457	picture	0		89	108.0	/experiments/knapen_aot/AOT/AOT_stimuli/pictures/2114_fw.png	337.75447511672974	0.7499940395355225
110	167.25737810134888	response	0	j		108.0	/experiments/knapen_aot/AOT/AOT_stimuli/pictures/2114_fw.png	338.49071526527405	
111	167.2711319923401	picture	0		120	109.0	/experiments/knapen_aot/AOT/AOT_stimuli/pictures/0101_fw.png	338.50446915626526	1.0069279670715332
111	168.26574301719666	response	0	k		109.0	/experiments/knapen_aot/AOT/AOT_stimuli/pictures/0101_fw.png	339.4990801811218	
112	168.27805995941162	picture	0		141	110.0	/experiments/knapen_aot/AOT/AOT_stimuli/pictures/1386_fw.png	339.5113971233368	1.1735889911651611
112	169.44074511528015	response	0	k		110.0	/experiments/knapen_aot/AOT/AOT_stimuli/pictures/1386_fw.png	340.6740822792053	
113	169.45164895057678	picture	0		104	111.0	/experiments/knapen_aot/AOT/AOT_stimuli/pictures/1295_fw.png	340.68498611450195	0.8680579662322998
113	170.3073399066925	response	0	j		111.0	/experiments/knapen_aot/AOT/AOT_stimuli/pictures/1295_fw.png	341.5406770706177	
114	170.31970691680908	picture	0		183	112.0	/experiments/knapen_aot/AOT/AOT_stimuli/pictures/0470_fw.png	341.55304408073425	1.520895004272461
114	171.8324010372162	response	0	k		112.0	/experiments/knapen_aot/AOT/AOT_stimuli/pictures/0470_fw.png	343.06573820114136	
115	171.84060192108154	picture	0		216	113.0	/experiments/knapen_aot/AOT/AOT_stimuli/pictures/0441_fw.png	343.0739390850067	1.8054401874542236
115	173.63238191604614	response	0	k		113.0	/experiments/knapen_aot/AOT/AOT_stimuli/pictures/0441_fw.png	344.8657190799713	
116	173.64604210853577	picture	0		127	114.0	/experiments/knapen_aot/AOT/AOT_stimuli/pictures/0192_fw.png	344.87937927246094	1.062506914138794
116	174.69908499717712	response	0	j		114.0	/experiments/knapen_aot/AOT/AOT_stimuli/pictures/0192_fw.png	345.9324221611023	
117	174.70854902267456	picture	0		193	115.0	/experiments/knapen_aot/AOT/AOT_stimuli/pictures/0510_fw.png	345.94188618659973	1.6111741065979004
117	176.30736207962036	response	0	j		115.0	/experiments/knapen_aot/AOT/AOT_stimuli/pictures/0510_fw.png	347.54069924354553	
118	176.31972312927246	picture	0		92	116.0	/experiments/knapen_aot/AOT/AOT_stimuli/pictures/0150_fw.png	347.55306029319763	0.7637619972229004
118	177.0740671157837	response	0	j		116.0	/experiments/knapen_aot/AOT/AOT_stimuli/pictures/0150_fw.png	348.30740427970886	
119	177.08348512649536	picture	0		95	117.0	/experiments/knapen_aot/AOT/AOT_stimuli/pictures/0233_fw.png	348.31682229042053	0.7917098999023438
119	177.86569499969482	response	0	j		117.0	/experiments/knapen_aot/AOT/AOT_stimuli/pictures/0233_fw.png	349.09903216362	
120	177.8751950263977	picture	0		80	118.0	/experiments/knapen_aot/AOT/AOT_stimuli/pictures/1840_fw.png	349.1085321903229	0.6666469573974609
120	178.5323829650879	response	0	j		118.0	/experiments/knapen_aot/AOT/AOT_stimuli/pictures/1840_fw.png	349.76572012901306	
121	178.54184198379517	picture	0		106	119.0	/experiments/knapen_aot/AOT/AOT_stimuli/pictures/1231_fw.png	349.77517914772034	0.8820450305938721
121	179.41566705703735	response	0	j		119.0	/experiments/knapen_aot/AOT/AOT_stimuli/pictures/1231_fw.png	350.6490042209625	
122	179.42388701438904	picture	0		181	120.0	/experiments/knapen_aot/AOT/AOT_stimuli/pictures/0589_fw.png	350.6572241783142	1.5137670040130615
122	180.92404794692993	response	0	j		120.0	/experiments/knapen_aot/AOT/AOT_stimuli/pictures/0589_fw.png	352.1573851108551	
123	180.9376540184021	picture	0		100	121.0	/experiments/knapen_aot/AOT/AOT_stimuli/pictures/1814_fw.png	352.17099118232727	0.8402481079101562
123	181.75892210006714	response	0	j		121.0	/experiments/knapen_aot/AOT/AOT_stimuli/pictures/1814_fw.png	352.9922592639923	
124	181.77790212631226	picture	0		83	122.0	/experiments/knapen_aot/AOT/AOT_stimuli/pictures/1374_fw.png	353.0112392902374	0.6876318454742432
124	182.45730710029602	response	0	j		122.0	/experiments/knapen_aot/AOT/AOT_stimuli/pictures/1374_fw.png	353.6906442642212	
125	182.4655339717865	picture	0		94	123.0	/experiments/knapen_aot/AOT/AOT_stimuli/pictures/0503_fw.png	353.69887113571167	0.7845821380615234
125	183.2406361103058	response	0	j		123.0	/experiments/knapen_aot/AOT/AOT_stimuli/pictures/0503_fw.png	354.47397327423096	
126	183.25011610984802	picture	0		88	124.0	/experiments/knapen_aot/AOT/AOT_stimuli/pictures/0866_fw.png	354.4834532737732	0.7361419200897217
126	183.96729397773743	response	0	j		124.0	/experiments/knapen_aot/AOT/AOT_stimuli/pictures/0866_fw.png	355.2006311416626	
127	183.98625802993774	picture	0		97	125.0	/experiments/knapen_aot/AOT/AOT_stimuli/pictures/1612_fw.png	355.2195951938629	0.8055260181427002
127	184.78231000900269	response	0	j		125.0	/experiments/knapen_aot/AOT/AOT_stimuli/pictures/1612_fw.png	356.01564717292786	
128	184.79178404808044	picture	0		146	126.0	/experiments/knapen_aot/AOT/AOT_stimuli/pictures/1373_fw.png	356.0251212120056	1.215358018875122
128	185.9989709854126	response	0	k		126.0	/experiments/knapen_aot/AOT/AOT_stimuli/pictures/1373_fw.png	357.23230814933777	
129	186.00714206695557	picture	0		128	127.0	/experiments/knapen_aot/AOT/AOT_stimuli/pictures/1462_fw.png	357.24047923088074	1.0693669319152832
129	187.06565403938293	response	0	k		127.0	/experiments/knapen_aot/AOT/AOT_stimuli/pictures/1462_fw.png	358.2989912033081	
130	187.07650899887085	picture	0		118	128.0	/experiments/knapen_aot/AOT/AOT_stimuli/pictures/0417_fw.png	358.309846162796	0.9860930442810059
130	188.04899096488953	response	0	k		128.0	/experiments/knapen_aot/AOT/AOT_stimuli/pictures/0417_fw.png	359.2823281288147	
131	188.06260204315186	picture	0		88	129.0	/experiments/knapen_aot/AOT/AOT_stimuli/pictures/1314_fw.png	359.295939207077	0.744621992111206
131	188.79059290885925	response	0	j		129.0	/experiments/knapen_aot/AOT/AOT_stimuli/pictures/1314_fw.png	360.0239300727844	
132	188.80722403526306	picture	0		138	130.0	/experiments/knapen_aot/AOT/AOT_stimuli/pictures/1687_fw.png	360.04056119918823	1.1583049297332764
132	189.94893503189087	response	0	j		130.0	/experiments/knapen_aot/AOT/AOT_stimuli/pictures/1687_fw.png	361.18227219581604	
133	189.96552896499634	picture	0		88	131.0	/experiments/knapen_aot/AOT/AOT_stimuli/pictures/1620_fw.png	361.1988661289215	0.735929012298584
133	190.69062209129333	response	0	j		131.0	/experiments/knapen_aot/AOT/AOT_stimuli/pictures/1620_fw.png	361.9239592552185	
134	190.70145797729492	picture	0		459	132.0	/experiments/knapen_aot/AOT/AOT_stimuli/pictures/2014_fw.png	361.9347951412201	3.826327085494995
134	194.51560592651367	response	0	k		132.0	/experiments/knapen_aot/AOT/AOT_stimuli/pictures/2014_fw.png	365.74894309043884	
135	194.52778506278992	picture	0		187	133.0	/experiments/knapen_aot/AOT/AOT_stimuli/pictures/1601_fw.png	365.7611222267151	1.5555579662322998
135	196.0739541053772	response	0	k		133.0	/experiments/knapen_aot/AOT/AOT_stimuli/pictures/1601_fw.png	367.30729126930237	
136	196.08334302902222	picture	0		97	134.0	/experiments/knapen_aot/AOT/AOT_stimuli/pictures/1101_fw.png	367.3166801929474	0.8124918937683105
136	196.88228392601013	response	0	j		134.0	/experiments/knapen_aot/AOT/AOT_stimuli/pictures/1101_fw.png	368.1156210899353	
137	196.89583492279053	picture	0		193	135.0	/experiments/knapen_aot/AOT/AOT_stimuli/pictures/1133_fw.png	368.1291720867157	1.6196861267089844
137	198.49895405769348	response	0	k		135.0	/experiments/knapen_aot/AOT/AOT_stimuli/pictures/1133_fw.png	369.73229122161865	
138	198.5155210494995	picture	0		101	136.0	/experiments/knapen_aot/AOT/AOT_stimuli/pictures/0027_fw.png	369.7488582134247	0.8499729633331299
138	199.34891295433044	response	0	j		136.0	/experiments/knapen_aot/AOT/AOT_stimuli/pictures/0027_fw.png	370.5822501182556	
139	199.36549401283264	picture	0		125	137.0	/experiments/knapen_aot/AOT/AOT_stimuli/pictures/0650_fw.png	370.5988311767578	1.0500450134277344
139	200.39895796775818	response	0	j		137.0	/experiments/knapen_aot/AOT/AOT_stimuli/pictures/0650_fw.png	371.63229513168335	
140	200.41553902626038	picture	0		113	138.0	/experiments/knapen_aot/AOT/AOT_stimuli/pictures/1301_fw.png	371.64887619018555	0.9455568790435791
140	201.34894609451294	response	0	j		138.0	/experiments/knapen_aot/AOT/AOT_stimuli/pictures/1301_fw.png	372.5822832584381	
141	201.36109590530396	picture	0		90	139.0	/experiments/knapen_aot/AOT/AOT_stimuli/pictures/1472_fw.png	372.5944330692291	0.7499880790710449
141	202.09893107414246	response	0	j		139.0	/experiments/knapen_aot/AOT/AOT_stimuli/pictures/1472_fw.png	373.3322682380676	
142	202.111083984375	picture	0		165	140.0	/experiments/knapen_aot/AOT/AOT_stimuli/pictures/0582_fw.png	373.34442114830017	1.374979019165039
142	203.47387599945068	response	0	k		140.0	/experiments/knapen_aot/AOT/AOT_stimuli/pictures/0582_fw.png	374.70721316337585	
143	203.48606300354004	picture	0		110	141.0	/experiments/knapen_aot/AOT/AOT_stimuli/pictures/1355_fw.png	374.7194001674652	0.9166669845581055
143	204.38373804092407	response	0	k		141.0	/experiments/knapen_aot/AOT/AOT_stimuli/pictures/1355_fw.png	375.61707520484924	
144	204.40272998809814	picture	0		144	142.0	/experiments/knapen_aot/AOT/AOT_stimuli/pictures/1289_fw.png	375.6360671520233	1.201362133026123
144	205.58378410339355	response	0	k		142.0	/experiments/knapen_aot/AOT/AOT_stimuli/pictures/1289_fw.png	376.8171212673187	
145	205.60409212112427	picture	0		96	143.0	/experiments/knapen_aot/AOT/AOT_stimuli/pictures/0028_fw.png	376.83742928504944	0.8055229187011719
145	206.39881706237793	response	0	j		143.0	/experiments/knapen_aot/AOT/AOT_stimuli/pictures/0028_fw.png	377.6321542263031	
146	206.40961503982544	picture	0		322	144.0	/experiments/knapen_aot/AOT/AOT_stimuli/pictures/0487_fw.png	377.6429522037506	2.687537908554077
146	209.0822241306305	response	0	j		144.0	/experiments/knapen_aot/AOT/AOT_stimuli/pictures/0487_fw.png	380.31556129455566	
147	209.09715294837952	picture	0		304	145.0	/experiments/knapen_aot/AOT/AOT_stimuli/pictures/1638_fw.png	380.3304901123047	2.5433249473571777
147	211.62395000457764	response	0	k		145.0	/experiments/knapen_aot/AOT/AOT_stimuli/pictures/1638_fw.png	382.8572871685028	
148	211.6404778957367	picture	0		148	146.0	/experiments/knapen_aot/AOT/AOT_stimuli/pictures/1651_fw.png	382.87381505966187	1.2344300746917725
148	212.86558604240417	response	0	j		146.0	/experiments/knapen_aot/AOT/AOT_stimuli/pictures/1651_fw.png	384.09892320632935	
149	212.87490797042847	picture	0		84	147.0	/experiments/knapen_aot/AOT/AOT_stimuli/pictures/1093_fw.png	384.10824513435364	0.7013649940490723
149	213.55886793136597	response	0	j		147.0	/experiments/knapen_aot/AOT/AOT_stimuli/pictures/1093_fw.png	384.79220509529114	
150	213.57627296447754	picture	0		281	148.0	/experiments/knapen_aot/AOT/AOT_stimuli/pictures/1739_fw.png	384.8096101284027	2.3402421474456787
150	215.90721893310547	response	0	k		148.0	/experiments/knapen_aot/AOT/AOT_stimuli/pictures/1739_fw.png	387.14055609703064	
151	215.91651511192322	picture	0		125	149.0	/experiments/knapen_aot/AOT/AOT_stimuli/pictures/1514_fw.png	387.1498522758484	1.041623830795288
151	216.9488410949707	response	0	k		149.0	/experiments/knapen_aot/AOT/AOT_stimuli/pictures/1514_fw.png	388.1821782588959	
152	216.9581389427185	picture	0		130	150.0	/experiments/knapen_aot/AOT/AOT_stimuli/pictures/1946_fw.png	388.1914761066437	1.0905909538269043
152	218.03217196464539	response	0	k		150.0	/experiments/knapen_aot/AOT/AOT_stimuli/pictures/1946_fw.png	389.26550912857056	
153	218.0487298965454	picture	0		107	151.0	/experiments/knapen_aot/AOT/AOT_stimuli/pictures/1207_fw.png	389.2820670604706	0.8955161571502686
153	218.93217992782593	response	0	j		151.0	/experiments/knapen_aot/AOT/AOT_stimuli/pictures/1207_fw.png	390.1655170917511	
154	218.94424605369568	picture	0		246	152.0	/experiments/knapen_aot/AOT/AOT_stimuli/pictures/0776_fw.png	390.17758321762085	2.0485999584198
154	220.9755220413208	response	0	k		152.0	/experiments/knapen_aot/AOT/AOT_stimuli/pictures/0776_fw.png	392.208859205246	
155	220.99284601211548	picture	0		118	153.0	/experiments/knapen_aot/AOT/AOT_stimuli/pictures/0748_fw.png	392.22618317604065	0.9861369132995605
155	221.95869994163513	response	0	k		153.0	/experiments/knapen_aot/AOT/AOT_stimuli/pictures/0748_fw.png	393.1920371055603	
156	221.97898292541504	picture	0		122	154.0	/experiments/knapen_aot/AOT/AOT_stimuli/pictures/2158_fw.png	393.2123200893402	1.020766019821167
156	222.98373293876648	response	0	k		154.0	/experiments/knapen_aot/AOT/AOT_stimuli/pictures/2158_fw.png	394.21707010269165	
157	222.9997489452362	picture	0		115	155.0	/experiments/knapen_aot/AOT/AOT_stimuli/pictures/2130_fw.png	394.2330861091614	0.9583280086517334
157	223.94878792762756	response	0	k		155.0	/experiments/knapen_aot/AOT/AOT_stimuli/pictures/2130_fw.png	395.18212509155273	
158	223.95807695388794	picture	0		104	156.0	/experiments/knapen_aot/AOT/AOT_stimuli/pictures/0754_fw.png	395.1914141178131	0.8681430816650391
158	224.81546211242676	response	0	k		156.0	/experiments/knapen_aot/AOT/AOT_stimuli/pictures/0754_fw.png	396.04879927635193	
159	224.82622003555298	picture	0		189	157.0	/experiments/knapen_aot/AOT/AOT_stimuli/pictures/1126_fw.png	396.05955719947815	1.5762510299682617
159	226.3837959766388	response	0	k		157.0	/experiments/knapen_aot/AOT/AOT_stimuli/pictures/1126_fw.png	397.61713314056396	
160	226.40247106552124	picture	0		107	158.0	/experiments/knapen_aot/AOT/AOT_stimuli/pictures/0043_fw.png	397.6358082294464	0.888916015625
160	227.28211307525635	response	0	j		158.0	/experiments/knapen_aot/AOT/AOT_stimuli/pictures/0043_fw.png	398.5154502391815	
161	227.29138708114624	picture	0		105	159.0	/experiments/knapen_aot/AOT/AOT_stimuli/pictures/1644_fw.png	398.5247242450714	0.8749749660491943
161	228.15712094306946	response	0	j		159.0	/experiments/knapen_aot/AOT/AOT_stimuli/pictures/1644_fw.png	399.39045810699463	
162	228.16636204719543	picture	0		118	160.0	/experiments/knapen_aot/AOT/AOT_stimuli/pictures/1344_fw.png	399.3996992111206	0.9906649589538574
162	229.14047694206238	response	0	k		160.0	/experiments/knapen_aot/AOT/AOT_stimuli/pictures/1344_fw.png	400.37381410598755	
163	229.1570270061493	picture	0		118	161.0	/experiments/knapen_aot/AOT/AOT_stimuli/pictures/0105_fw.png	400.39036417007446	0.9916830062866211
163	230.13208603858948	response	0	k		161.0	/experiments/knapen_aot/AOT/AOT_stimuli/pictures/0105_fw.png	401.36542320251465	
164	230.1487100124359	picture	0		113	162.0	/experiments/knapen_aot/AOT/AOT_stimuli/pictures/0370_fw.png	401.3820471763611	0.9500079154968262
164	231.0821430683136	response	0	k		162.0	/experiments/knapen_aot/AOT/AOT_stimuli/pictures/0370_fw.png	402.31548023223877	
165	231.09871792793274	picture	0		124	163.0	/experiments/knapen_aot/AOT/AOT_stimuli/pictures/0513_fw.png	402.3320550918579	1.04164719581604
165	232.12383699417114	response	0	k		163.0	/experiments/knapen_aot/AOT/AOT_stimuli/pictures/0513_fw.png	403.3571741580963	
166	232.14036512374878	picture	0		99	164.0	/experiments/knapen_aot/AOT/AOT_stimuli/pictures/1200_fw.png	403.37370228767395	0.8316309452056885
166	232.95712304115295	response	0	j		164.0	/experiments/knapen_aot/AOT/AOT_stimuli/pictures/1200_fw.png	404.1904602050781	
167	232.97199606895447	picture	0		95	165.0	/experiments/knapen_aot/AOT/AOT_stimuli/pictures/1685_fw.png	404.20533323287964	0.798490047454834
167	233.75709891319275	response	0	j		165.0	/experiments/knapen_aot/AOT/AOT_stimuli/pictures/1685_fw.png	404.9904360771179	
168	233.7704861164093	picture	0		158	166.0	/experiments/knapen_aot/AOT/AOT_stimuli/pictures/1592_fw.png	405.0038232803345	1.3264689445495605
168	235.08208799362183	response	0	k		166.0	/experiments/knapen_aot/AOT/AOT_stimuli/pictures/1592_fw.png	406.315425157547	
169	235.09695506095886	picture	0		117	167.0	/experiments/knapen_aot/AOT/AOT_stimuli/pictures/0165_fw.png	406.33029222488403	0.9790949821472168
169	236.0654740333557	response	0	j		167.0	/experiments/knapen_aot/AOT/AOT_stimuli/pictures/0165_fw.png	407.2988111972809	
170	236.07605004310608	picture	0		99	168.0	/experiments/knapen_aot/AOT/AOT_stimuli/pictures/0222_fw.png	407.30938720703125	0.8263540267944336
170	236.890398979187	response	0	j		168.0	/experiments/knapen_aot/AOT/AOT_stimuli/pictures/0222_fw.png	408.1237361431122	
171	236.9024040699005	picture	0		148	169.0	/experiments/knapen_aot/AOT/AOT_stimuli/pictures/2004_fw.png	408.1357412338257	1.2296278476715088
171	238.1237509250641	response	0	k		169.0	/experiments/knapen_aot/AOT/AOT_stimuli/pictures/2004_fw.png	409.35708808898926	
172	238.13203191757202	picture	0		104	170.0	/experiments/knapen_aot/AOT/AOT_stimuli/pictures/1595_fw.png	409.3653690814972	0.8675811290740967
172	238.98371195793152	response	0	k		170.0	/experiments/knapen_aot/AOT/AOT_stimuli/pictures/1595_fw.png	410.2170491218567	
173	238.99961304664612	picture	0		119	171.0	/experiments/knapen_aot/AOT/AOT_stimuli/pictures/0239_fw.png	410.2329502105713	0.9930479526519775
173	239.97526597976685	response	0	k		171.0	/experiments/knapen_aot/AOT/AOT_stimuli/pictures/0239_fw.png	411.208603143692	
174	239.9926609992981	picture	0		90	172.0	/experiments/knapen_aot/AOT/AOT_stimuli/pictures/0913_fw.png	411.22599816322327	0.7500040531158447
174	240.73209309577942	response	0	j		172.0	/experiments/knapen_aot/AOT/AOT_stimuli/pictures/0913_fw.png	411.9654302597046	
175	240.74266505241394	picture	0		118	173.0	/experiments/knapen_aot/AOT/AOT_stimuli/pictures/1118_fw.png	411.9760022163391	0.9893050193786621
175	241.7154359817505	response	0	j		173.0	/experiments/knapen_aot/AOT/AOT_stimuli/pictures/1118_fw.png	412.94877314567566	
176	241.7319700717926	picture	0		150	174.0	/experiments/knapen_aot/AOT/AOT_stimuli/pictures/1318_fw.png	412.9653072357178	1.2536728382110596
176	242.97374296188354	response	0	k		174.0	/experiments/knapen_aot/AOT/AOT_stimuli/pictures/1318_fw.png	414.2070801258087	
177	242.98564291000366	picture	0		108	175.0	/experiments/knapen_aot/AOT/AOT_stimuli/pictures/0455_fw.png	414.21898007392883	0.896273136138916
177	243.87371611595154	response	0	k		175.0	/experiments/knapen_aot/AOT/AOT_stimuli/pictures/0455_fw.png	415.1070532798767	
178	243.88191604614258	picture	0		134	176.0	/experiments/knapen_aot/AOT/AOT_stimuli/pictures/1669_fw.png	415.11525321006775	1.12506103515625
178	244.98349595069885	response	0	j		176.0	/experiments/knapen_aot/AOT/AOT_stimuli/pictures/1669_fw.png	416.216833114624	
179	245.00697708129883	picture	0		116	177.0	/experiments/knapen_aot/AOT/AOT_stimuli/pictures/1050_fw.png	416.240314245224	0.9717340469360352
179	245.9654049873352	response	0	k		177.0	/experiments/knapen_aot/AOT/AOT_stimuli/pictures/1050_fw.png	417.1987421512604	
180	245.97871112823486	picture	0		124	178.0	/experiments/knapen_aot/AOT/AOT_stimuli/pictures/1861_fw.png	417.21204829216003	1.0418388843536377
180	247.00710701942444	response	0	k		178.0	/experiments/knapen_aot/AOT/AOT_stimuli/pictures/1861_fw.png	418.2404441833496	
181	247.0205500125885	picture	0		174	179.0	/experiments/knapen_aot/AOT/AOT_stimuli/pictures/0456_fw.png	418.2538871765137	1.4614050388336182
181	248.46535992622375	response	0	k		179.0	/experiments/knapen_aot/AOT/AOT_stimuli/pictures/0456_fw.png	419.6986970901489	
182	248.48195505142212	picture	0		149	180.0	/experiments/knapen_aot/AOT/AOT_stimuli/pictures/1445_fw.png	419.7152922153473	1.2467520236968994
182	249.71538400650024	response	0	j		180.0	/experiments/knapen_aot/AOT/AOT_stimuli/pictures/1445_fw.png	420.9487211704254	
183	249.72870707511902	picture	0		133	181.0	/experiments/knapen_aot/AOT/AOT_stimuli/pictures/0949_fw.png	420.9620442390442	1.118021011352539
183	250.8320620059967	response	0	j		181.0	/experiments/knapen_aot/AOT/AOT_stimuli/pictures/0949_fw.png	422.0653991699219	
184	250.84672808647156	picture	0		115	182.0	/experiments/knapen_aot/AOT/AOT_stimuli/pictures/1957_fw.png	422.08006525039673	0.9653010368347168
184	251.7918610572815	response	0	k		182.0	/experiments/knapen_aot/AOT/AOT_stimuli/pictures/1957_fw.png	423.02519822120667	
185	251.81202912330627	picture	0		196	183.0	/experiments/knapen_aot/AOT/AOT_stimuli/pictures/1690_fw.png	423.04536628723145	1.6387889385223389
185	253.4403440952301	response	0	j		183.0	/experiments/knapen_aot/AOT/AOT_stimuli/pictures/1690_fw.png	424.6736812591553	
186	253.4508180618286	picture	0		169	184.0	/experiments/knapen_aot/AOT/AOT_stimuli/pictures/1002_fw.png	424.6841552257538	1.4097568988800049
186	254.8486819267273	response	0	k		184.0	/experiments/knapen_aot/AOT/AOT_stimuli/pictures/1002_fw.png	426.08201909065247	
187	254.86057496070862	picture	0		132	185.0	/experiments/knapen_aot/AOT/AOT_stimuli/pictures/0540_fw.png	426.0939121246338	1.09735107421875
187	255.94868206977844	response	0	k		185.0	/experiments/knapen_aot/AOT/AOT_stimuli/pictures/0540_fw.png	427.1820192337036	
188	255.95792603492737	picture	0		104	186.0	/experiments/knapen_aot/AOT/AOT_stimuli/pictures/0020_fw.png	427.19126319885254	0.8679320812225342
188	256.8085310459137	response	0	j		186.0	/experiments/knapen_aot/AOT/AOT_stimuli/pictures/0020_fw.png	428.04186820983887	
189	256.8258581161499	picture	0		121	187.0	/experiments/knapen_aot/AOT/AOT_stimuli/pictures/0861_fw.png	428.0591952800751	1.00689697265625
189	257.8237431049347	response	0	j		187.0	/experiments/knapen_aot/AOT/AOT_stimuli/pictures/0861_fw.png	429.05708026885986	
190	257.83275508880615	picture	0		141	188.0	/experiments/knapen_aot/AOT/AOT_stimuli/pictures/1354_fw.png	429.0660922527313	1.182459831237793
190	258.9918920993805	response	0	k		188.0	/experiments/knapen_aot/AOT/AOT_stimuli/pictures/1354_fw.png	430.22522926330566	
191	259.01521492004395	picture	0		174	189.0	/experiments/knapen_aot/AOT/AOT_stimuli/pictures/2055_fw.png	430.2485520839691	1.4564971923828125
191	260.4569880962372	response	0	k		189.0	/experiments/knapen_aot/AOT/AOT_stimuli/pictures/2055_fw.png	431.69032526016235	
192	260.47171211242676	picture	0		139	190.0	/experiments/knapen_aot/AOT/AOT_stimuli/pictures/0050_fw.png	431.70504927635193	1.1685068607330322
192	261.623654127121	response	0	j		190.0	/experiments/knapen_aot/AOT/AOT_stimuli/pictures/0050_fw.png	432.85699129104614	
193	261.6402189731598	picture	0		102	191.0	/experiments/knapen_aot/AOT/AOT_stimuli/pictures/2098_fw.png	432.87355613708496	0.8521881103515625
193	262.4819390773773	response	0	k		191.0	/experiments/knapen_aot/AOT/AOT_stimuli/pictures/2098_fw.png	433.7152762413025	
194	262.49240708351135	picture	0		154	192.0	/experiments/knapen_aot/AOT/AOT_stimuli/pictures/1053_fw.png	433.7257442474365	1.2847199440002441
194	263.76525712013245	response	0	k		192.0	/experiments/knapen_aot/AOT/AOT_stimuli/pictures/1053_fw.png	434.9985942840576	
195	263.7771270275116	picture	0		150	193.0	/experiments/knapen_aot/AOT/AOT_stimuli/pictures/0359_fw.png	435.01046419143677	1.2547900676727295
195	265.0086281299591	response	0	k		193.0	/experiments/knapen_aot/AOT/AOT_stimuli/pictures/0359_fw.png	436.2419652938843	
196	265.0319170951843	picture	0		130	194.0	/experiments/knapen_aot/AOT/AOT_stimuli/pictures/0667_fw.png	436.2652542591095	1.0917010307312012
196	266.1069939136505	response	0	j		194.0	/experiments/knapen_aot/AOT/AOT_stimuli/pictures/0667_fw.png	437.3403310775757	
197	266.1236181259155	picture	0		82	195.0	/experiments/knapen_aot/AOT/AOT_stimuli/pictures/0308_fw.png	437.3569552898407	0.6882917881011963
197	266.79177808761597	response	0	j		195.0	/experiments/knapen_aot/AOT/AOT_stimuli/pictures/0308_fw.png	438.02511525154114	
198	266.8119099140167	picture	0		114	196.0	/experiments/knapen_aot/AOT/AOT_stimuli/pictures/0888_fw.png	438.0452470779419	0.9582500457763672
198	267.7569041252136	response	0	k		196.0	/experiments/knapen_aot/AOT/AOT_stimuli/pictures/0888_fw.png	438.9902412891388	
199	267.7701599597931	picture	0		112	197.0	/experiments/knapen_aot/AOT/AOT_stimuli/pictures/1741_fw.png	439.00349712371826	0.9374849796295166
199	268.6986598968506	response	0	k		197.0	/experiments/knapen_aot/AOT/AOT_stimuli/pictures/1741_fw.png	439.93199706077576	
200	268.7076449394226	picture	0		97	198.0	/experiments/knapen_aot/AOT/AOT_stimuli/pictures/1919_fw.png	439.9409821033478	0.8124771118164062
200	269.5069990158081	response	0	j		198.0	/experiments/knapen_aot/AOT/AOT_stimuli/pictures/1919_fw.png	440.7403361797333	
201	269.520122051239	picture	0		131	199.0	/experiments/knapen_aot/AOT/AOT_stimuli/pictures/0040_fw.png	440.7534592151642	1.0972299575805664
201	270.60027289390564	response	0	k		199.0	/experiments/knapen_aot/AOT/AOT_stimuli/pictures/0040_fw.png	441.8336100578308	
202	270.6173520088196	picture	0		117	200.0	/experiments/knapen_aot/AOT/AOT_stimuli/pictures/2047_fw.png	441.85068917274475	0.9811699390411377
202	271.5827479362488	response	0	j		200.0	/experiments/knapen_aot/AOT/AOT_stimuli/pictures/2047_fw.png	442.81608510017395	
203	271.5985219478607	picture	0		120	201.0	/experiments/knapen_aot/AOT/AOT_stimuli/pictures/1009_fw.png	442.8318591117859	1.008316993713379
203	272.58351397514343	response	0	k		201.0	/experiments/knapen_aot/AOT/AOT_stimuli/pictures/1009_fw.png	443.8168511390686	
204	272.6068389415741	picture	0		110	202.0	/experiments/knapen_aot/AOT/AOT_stimuli/pictures/0924_fw.png	443.84017610549927	0.9202260971069336
204	273.51527190208435	response	0	k		202.0	/experiments/knapen_aot/AOT/AOT_stimuli/pictures/0924_fw.png	444.7486090660095	
205	273.52706503868103	picture	0		122	203.0	/experiments/knapen_aot/AOT/AOT_stimuli/pictures/1829_fw.png	444.7604022026062	1.0138800144195557
205	274.5319309234619	response	0	k		203.0	/experiments/knapen_aot/AOT/AOT_stimuli/pictures/1829_fw.png	445.7652680873871	
206	274.5409450531006	picture	0		116	204.0	/experiments/knapen_aot/AOT/AOT_stimuli/pictures/1335_fw.png	445.77428221702576	0.9742028713226318
206	275.4993510246277	response	0	k		204.0	/experiments/knapen_aot/AOT/AOT_stimuli/pictures/1335_fw.png	446.73268818855286	
207	275.5151479244232	picture	0		114	205.0	/experiments/knapen_aot/AOT/AOT_stimuli/pictures/1547_fw.png	446.7484850883484	0.9583849906921387
207	276.4577760696411	response	0	j		205.0	/experiments/knapen_aot/AOT/AOT_stimuli/pictures/1547_fw.png	447.6911132335663	
208	276.47353291511536	picture	0		109	206.0	/experiments/knapen_aot/AOT/AOT_stimuli/pictures/1624_fw.png	447.7068700790405	0.9166011810302734
208	277.3743190765381	response	0	k		206.0	/experiments/knapen_aot/AOT/AOT_stimuli/pictures/1624_fw.png	448.60765624046326	
209	277.39013409614563	picture	0		120	207.0	/experiments/knapen_aot/AOT/AOT_stimuli/pictures/1442_fw.png	448.6234712600708	1.0049278736114502
209	278.37591791152954	response	0	k		207.0	/experiments/knapen_aot/AOT/AOT_stimuli/pictures/1442_fw.png	449.6092550754547	
210	278.3950619697571	picture	0		120	208.0	/experiments/knapen_aot/AOT/AOT_stimuli/pictures/0921_fw.png	449.62839913368225	1.0069050788879395
210	279.39019989967346	response	0	k		208.0	/experiments/knapen_aot/AOT/AOT_stimuli/pictures/0921_fw.png	450.62353706359863	
211	279.401967048645	picture	0		87	209.0	/experiments/knapen_aot/AOT/AOT_stimuli/pictures/0996_fw.png	450.6353042125702	0.7222108840942383
211	280.11529207229614	response	0	j		209.0	/experiments/knapen_aot/AOT/AOT_stimuli/pictures/0996_fw.png	451.3486292362213	
212	280.12417793273926	picture	0		140	210.0	/experiments/knapen_aot/AOT/AOT_stimuli/pictures/0254_fw.png	451.35751509666443	1.1742651462554932
212	281.2819061279297	response	0	k		210.0	/experiments/knapen_aot/AOT/AOT_stimuli/pictures/0254_fw.png	452.51524329185486	
213	281.29844307899475	picture	0		101	211.0	/experiments/knapen_aot/AOT/AOT_stimuli/pictures/0590_fw.png	452.5317802429199	0.8466548919677734
213	282.1319260597229	response	0	k		211.0	/experiments/knapen_aot/AOT/AOT_stimuli/pictures/0590_fw.png	453.36526322364807	
214	282.1450979709625	picture	0		107	212.0	/experiments/knapen_aot/AOT/AOT_stimuli/pictures/0578_fw.png	453.3784351348877	0.9033489227294922
214	283.0318639278412	response	0	k		212.0	/experiments/knapen_aot/AOT/AOT_stimuli/pictures/0578_fw.png	454.26520109176636	
215	283.048446893692	picture	0		154	213.0	/experiments/knapen_aot/AOT/AOT_stimuli/pictures/2076_fw.png	454.2817840576172	1.2916901111602783
215	284.323539018631	response	0	k		213.0	/experiments/knapen_aot/AOT/AOT_stimuli/pictures/2076_fw.png	455.55687618255615	
216	284.3401370048523	picture	0		110	214.0	/experiments/knapen_aot/AOT/AOT_stimuli/pictures/0187_fw.png	455.57347416877747	0.9249770641326904
216	285.24926590919495	response	0	k		214.0	/experiments/knapen_aot/AOT/AOT_stimuli/pictures/0187_fw.png	456.4826030731201	
217	285.265114068985	picture	0		121	215.0	/experiments/knapen_aot/AOT/AOT_stimuli/pictures/1028_fw.png	456.49845123291016	1.0166759490966797
217	286.26522493362427	response	0	k		215.0	/experiments/knapen_aot/AOT/AOT_stimuli/pictures/1028_fw.png	457.49856209754944	
218	286.28179001808167	picture	0		95	216.0	/experiments/knapen_aot/AOT/AOT_stimuli/pictures/0440_fw.png	457.51512718200684	0.8000190258026123
218	287.06512904167175	response	0	k		216.0	/experiments/knapen_aot/AOT/AOT_stimuli/pictures/0440_fw.png	458.2984662055969	
219	287.0818090438843	picture	0		150	217.0	/experiments/knapen_aot/AOT/AOT_stimuli/pictures/0087_fw.png	458.31514620780945	1.250640869140625
219	288.32352900505066	response	0	j		217.0	/experiments/knapen_aot/AOT/AOT_stimuli/pictures/0087_fw.png	459.55686616897583	
220	288.3324499130249	picture	0		141	218.0	/experiments/knapen_aot/AOT/AOT_stimuli/pictures/0336_fw.png	459.5657870769501	1.1826441287994385
220	289.4992229938507	response	0	k		218.0	/experiments/knapen_aot/AOT/AOT_stimuli/pictures/0336_fw.png	460.7325601577759	
221	289.51509404182434	picture	0		121	219.0	/experiments/knapen_aot/AOT/AOT_stimuli/pictures/0089_fw.png	460.7484312057495	1.0167229175567627
221	290.51519203186035	response	0	k		219.0	/experiments/knapen_aot/AOT/AOT_stimuli/pictures/0089_fw.png	461.7485291957855	
222	290.5318169593811	picture	0		112	220.0	/experiments/knapen_aot/AOT/AOT_stimuli/pictures/1120_fw.png	461.7651541233063	0.941662073135376
222	291.45756101608276	response	0	k		220.0	/experiments/knapen_aot/AOT/AOT_stimuli/pictures/1120_fw.png	462.69089818000793	
223	291.4734790325165	picture	0		93	221.0	/experiments/knapen_aot/AOT/AOT_stimuli/pictures/0603_fw.png	462.70681619644165	0.7832820415496826
223	292.23324608802795	response	0	j		221.0	/experiments/knapen_aot/AOT/AOT_stimuli/pictures/0603_fw.png	463.4665832519531	
224	292.25676107406616	picture	0		124	222.0	/experiments/knapen_aot/AOT/AOT_stimuli/pictures/1579_fw.png	463.49009823799133	1.0340378284454346
224	293.2818660736084	response	0	k		222.0	/experiments/knapen_aot/AOT/AOT_stimuli/pictures/1579_fw.png	464.51520323753357	
225	293.2907989025116	picture	0		146	223.0	/experiments/knapen_aot/AOT/AOT_stimuli/pictures/0703_fw.png	464.52413606643677	1.224302053451538
225	294.49924492836	response	0	k		223.0	/experiments/knapen_aot/AOT/AOT_stimuli/pictures/0703_fw.png	465.73258209228516	
226	294.51510095596313	picture	0		111	224.0	/experiments/knapen_aot/AOT/AOT_stimuli/pictures/0469_fw.png	465.7484381198883	0.9333169460296631
226	295.4318759441376	response	0	j		224.0	/experiments/knapen_aot/AOT/AOT_stimuli/pictures/0469_fw.png	466.66521310806274	
227	295.4484179019928	picture	0		109	225.0	/experiments/knapen_aot/AOT/AOT_stimuli/pictures/0350_fw.png	466.68175506591797	0.9167170524597168
227	296.3485209941864	response	0	k		225.0	/experiments/knapen_aot/AOT/AOT_stimuli/pictures/0350_fw.png	467.5818581581116	
228	296.3651349544525	picture	0		141	226.0	/experiments/knapen_aot/AOT/AOT_stimuli/pictures/0433_fw.png	467.5984721183777	1.1755869388580322
228	297.53185296058655	response	0	k		226.0	/experiments/knapen_aot/AOT/AOT_stimuli/pictures/0433_fw.png	468.7651901245117	
229	297.54072189331055	picture	0		144	227.0	/experiments/knapen_aot/AOT/AOT_stimuli/pictures/1717_fw.png	468.7740590572357	1.2078092098236084
229	298.7318251132965	response	0	k		227.0	/experiments/knapen_aot/AOT/AOT_stimuli/pictures/1717_fw.png	469.9651622772217	
230	298.74853110313416	picture	0		108	228.0	/experiments/knapen_aot/AOT/AOT_stimuli/pictures/0731_fw.png	469.9818682670593	0.9082088470458984
230	299.6401391029358	response	0	j		228.0	/experiments/knapen_aot/AOT/AOT_stimuli/pictures/0731_fw.png	470.87347626686096	
231	299.65673995018005	picture	0		262	229.0	/experiments/knapen_aot/AOT/AOT_stimuli/pictures/2091_fw.png	470.8900771141052	2.191681146621704
231	301.8249521255493	response	0	j		229.0	/experiments/knapen_aot/AOT/AOT_stimuli/pictures/2091_fw.png	473.0582892894745	
232	301.84842109680176	picture	0		143	230.0	/experiments/knapen_aot/AOT/AOT_stimuli/pictures/1377_fw.png	473.08175826072693	1.200402021408081
232	303.03182196617126	response	0	k		230.0	/experiments/knapen_aot/AOT/AOT_stimuli/pictures/1377_fw.png	474.26515913009644	
233	303.04882311820984	picture	0		142	231.0	/experiments/knapen_aot/AOT/AOT_stimuli/pictures/0351_fw.png	474.282160282135	1.191269874572754
233	304.21670508384705	response	0	k		231.0	/experiments/knapen_aot/AOT/AOT_stimuli/pictures/0351_fw.png	475.4500422477722	
234	304.2400929927826	picture	0		107	232.0	/experiments/knapen_aot/AOT/AOT_stimuli/pictures/0297_fw.png	475.47343015670776	0.8999650478363037
234	305.1240770816803	response	0	j		232.0	/experiments/knapen_aot/AOT/AOT_stimuli/pictures/0297_fw.png	476.35741424560547	
235	305.1400580406189	picture	0		130	233.0	/experiments/knapen_aot/AOT/AOT_stimuli/pictures/1833_fw.png	476.37339520454407	1.091789960861206
235	306.20889711380005	response	0	j		233.0	/experiments/knapen_aot/AOT/AOT_stimuli/pictures/1833_fw.png	477.4422342777252	
236	306.2318480014801	picture	0		94	234.0	/experiments/knapen_aot/AOT/AOT_stimuli/pictures/1410_fw.png	477.4651851654053	0.791546106338501
236	307.0005280971527	response	0	j		234.0	/experiments/knapen_aot/AOT/AOT_stimuli/pictures/1410_fw.png	478.2338652610779	
237	307.0233941078186	picture	0		169	235.0	/experiments/knapen_aot/AOT/AOT_stimuli/pictures/0023_fw.png	478.2567312717438	1.4166898727416992
237	308.4172089099884	response	0	j		235.0	/experiments/knapen_aot/AOT/AOT_stimuli/pictures/0023_fw.png	479.6505460739136	
238	308.4400839805603	picture	0		120	236.0	/experiments/knapen_aot/AOT/AOT_stimuli/pictures/0491_fw.png	479.6734211444855	1.0032711029052734
238	309.4317750930786	response	0	j		236.0	/experiments/knapen_aot/AOT/AOT_stimuli/pictures/0491_fw.png	480.6651122570038	
239	309.4433550834656	picture	0		119	237.0	/experiments/knapen_aot/AOT/AOT_stimuli/pictures/0509_fw.png	480.67669224739075	0.996668815612793
239	310.41720509529114	response	0	j		237.0	/experiments/knapen_aot/AOT/AOT_stimuli/pictures/0509_fw.png	481.6505422592163	
240	310.44002389907837	picture	0		247	238.0	/experiments/knapen_aot/AOT/AOT_stimuli/pictures/1867_fw.png	481.67336106300354	2.066660165786743
240	312.4900689125061	response	0	k		238.0	/experiments/knapen_aot/AOT/AOT_stimuli/pictures/1867_fw.png	483.7234060764313	
241	312.5066840648651	picture	0		286	239.0	/experiments/knapen_aot/AOT/AOT_stimuli/pictures/1872_fw.png	483.7400212287903	2.3880438804626465
241	314.8817529678345	response	0	k		239.0	/experiments/knapen_aot/AOT/AOT_stimuli/pictures/1872_fw.png	486.11509013175964	
242	314.89472794532776	picture	0		105	240.0	/experiments/knapen_aot/AOT/AOT_stimuli/pictures/2132_fw.png	486.12806510925293	0.8786211013793945
242	315.75680589675903	response	0	j		240.0	/experiments/knapen_aot/AOT/AOT_stimuli/pictures/2132_fw.png	486.9901430606842	
243	315.77334904670715	picture	0		95	241.0	/experiments/knapen_aot/AOT/AOT_stimuli/pictures/0130_fw.png	487.0066862106323	0.7949678897857666
243	316.55681109428406	response	0	j		241.0	/experiments/knapen_aot/AOT/AOT_stimuli/pictures/0130_fw.png	487.79014825820923	
244	316.5683169364929	picture	0		96	242.0	/experiments/knapen_aot/AOT/AOT_stimuli/pictures/2146_fw.png	487.8016541004181	0.7986350059509277
244	317.3567280769348	response	0	j		242.0	/experiments/knapen_aot/AOT/AOT_stimuli/pictures/2146_fw.png	488.59006524086	
245	317.36695194244385	picture	0		128	243.0	/experiments/knapen_aot/AOT/AOT_stimuli/pictures/1973_fw.png	488.600289106369	1.0693881511688232
245	318.4171380996704	response	0	k		243.0	/experiments/knapen_aot/AOT/AOT_stimuli/pictures/1973_fw.png	489.6504752635956	
246	318.43634009361267	picture	0		96	244.0	/experiments/knapen_aot/AOT/AOT_stimuli/pictures/0494_fw.png	489.66967725753784	0.8120429515838623
246	319.2249639034271	response	0	j		244.0	/experiments/knapen_aot/AOT/AOT_stimuli/pictures/0494_fw.png	490.4583010673523	
247	319.24838304519653	picture	0		107	245.0	/experiments/knapen_aot/AOT/AOT_stimuli/pictures/1403_fw.png	490.4817202091217	0.8999450206756592
247	320.13170409202576	response	0	k		245.0	/experiments/knapen_aot/AOT/AOT_stimuli/pictures/1403_fw.png	491.3650412559509	
248	320.1483280658722	picture	0		116	246.0	/experiments/knapen_aot/AOT/AOT_stimuli/pictures/1506_fw.png	491.38166522979736	0.9686009883880615
248	321.1067490577698	response	0	j		246.0	/experiments/knapen_aot/AOT/AOT_stimuli/pictures/1506_fw.png	492.34008622169495	
249	321.11692905426025	picture	0		183	247.0	/experiments/knapen_aot/AOT/AOT_stimuli/pictures/1992_fw.png	492.3502662181854	1.5313780307769775
249	322.62548899650574	response	0	j		247.0	/experiments/knapen_aot/AOT/AOT_stimuli/pictures/1992_fw.png	493.8588261604309	
250	322.64830708503723	picture	0		123	248.0	/experiments/knapen_aot/AOT/AOT_stimuli/pictures/0817_fw.png	493.8816442489624	1.0333318710327148
250	323.6655020713806	response	0	k		248.0	/experiments/knapen_aot/AOT/AOT_stimuli/pictures/0817_fw.png	494.8988392353058	
251	323.68163895606995	picture	0		101	249.0	/experiments/knapen_aot/AOT/AOT_stimuli/pictures/0546_fw.png	494.9149761199951	0.8449270725250244
251	324.51504397392273	response	0	j		249.0	/experiments/knapen_aot/AOT/AOT_stimuli/pictures/0546_fw.png	495.7483811378479	
252	324.52656602859497	picture	0		177	250.0	/experiments/knapen_aot/AOT/AOT_stimuli/pictures/0609_fw.png	495.75990319252014	1.4800729751586914
252	325.9901089668274	response	0	k		250.0	/experiments/knapen_aot/AOT/AOT_stimuli/pictures/0609_fw.png	497.22344613075256	
253	326.00663900375366	picture	0		134	251.0	/experiments/knapen_aot/AOT/AOT_stimuli/pictures/2006_fw.png	497.23997616767883	1.1171109676361084
253	327.1150391101837	response	0	j		251.0	/experiments/knapen_aot/AOT/AOT_stimuli/pictures/2006_fw.png	498.3483762741089	
254	327.12374997138977	picture	0		128	252.0	/experiments/knapen_aot/AOT/AOT_stimuli/pictures/0680_fw.png	498.35708713531494	1.0694630146026611
254	328.1817419528961	response	0	k		252.0	/experiments/knapen_aot/AOT/AOT_stimuli/pictures/0680_fw.png	499.4150791168213	
255	328.19321298599243	picture	0		81	253.0	/experiments/knapen_aot/AOT/AOT_stimuli/pictures/0807_fw.png	499.4265501499176	0.680056095123291
255	328.8566999435425	response	0	j		253.0	/experiments/knapen_aot/AOT/AOT_stimuli/pictures/0807_fw.png	500.09003710746765	
256	328.8732690811157	picture	0		122	254.0	/experiments/knapen_aot/AOT/AOT_stimuli/pictures/1812_fw.png	500.1066062450409	1.025075912475586
256	329.8816430568695	response	0	k		254.0	/experiments/knapen_aot/AOT/AOT_stimuli/pictures/1812_fw.png	501.1149802207947	
257	329.8983449935913	picture	0		224	255.0	/experiments/knapen_aot/AOT/AOT_stimuli/pictures/0339_fw.png	501.1316821575165	1.8711929321289062
257	331.7567460536957	response	0	k		255.0	/experiments/knapen_aot/AOT/AOT_stimuli/pictures/0339_fw.png	502.99008321762085	
258	331.7695379257202	picture	0		84	256.0	/experiments/knapen_aot/AOT/AOT_stimuli/pictures/1495_fw.png	503.0028750896454	0.7037851810455322
258	332.45721793174744	response	0	j		256.0	/experiments/knapen_aot/AOT/AOT_stimuli/pictures/1495_fw.png	503.6905550956726	
259	332.47332310676575	picture	0		115	257.0	/experiments/knapen_aot/AOT/AOT_stimuli/pictures/0790_fw.png	503.7066602706909	0.9667048454284668
259	333.4170141220093	response	0	j		257.0	/experiments/knapen_aot/AOT/AOT_stimuli/pictures/0790_fw.png	504.65035128593445	
260	333.4400279521942	picture	0		95	258.0	/experiments/knapen_aot/AOT/AOT_stimuli/pictures/1918_fw.png	504.6733651161194	0.7947959899902344
260	334.2167649269104	response	0	j		258.0	/experiments/knapen_aot/AOT/AOT_stimuli/pictures/1918_fw.png	505.45010209083557	
261	334.23482394218445	picture	0		137	259.0	/experiments/knapen_aot/AOT/AOT_stimuli/pictures/0867_fw.png	505.4681611061096	1.1467759609222412
261	335.36502408981323	response	0	k		259.0	/experiments/knapen_aot/AOT/AOT_stimuli/pictures/0867_fw.png	506.5983612537384	
262	335.3815999031067	picture	0		104	260.0	/experiments/knapen_aot/AOT/AOT_stimuli/pictures/0738_fw.png	506.61493706703186	0.8750710487365723
262	336.2420120239258	response	0	j		260.0	/experiments/knapen_aot/AOT/AOT_stimuli/pictures/0738_fw.png	507.47534918785095	
263	336.25667095184326	picture	0		129	261.0	/experiments/knapen_aot/AOT/AOT_stimuli/pictures/1038_fw.png	507.49000811576843	1.075376033782959
263	337.3234009742737	response	0	j		261.0	/experiments/knapen_aot/AOT/AOT_stimuli/pictures/1038_fw.png	508.55673813819885	
264	337.3320469856262	picture	0		100	262.0	/experiments/knapen_aot/AOT/AOT_stimuli/pictures/0531_fw.png	508.5653841495514	0.8412060737609863
264	338.1566550731659	response	0	j		262.0	/experiments/knapen_aot/AOT/AOT_stimuli/pictures/0531_fw.png	509.38999223709106	
265	338.1732530593872	picture	0		140	263.0	/experiments/knapen_aot/AOT/AOT_stimuli/pictures/0331_fw.png	509.4065902233124	1.1750080585479736
265	339.3321199417114	response	0	k		263.0	/experiments/knapen_aot/AOT/AOT_stimuli/pictures/0331_fw.png	510.5654571056366	
266	339.3482611179352	picture	0		108	264.0	/experiments/knapen_aot/AOT/AOT_stimuli/pictures/0944_fw.png	510.58159828186035	0.9083290100097656
266	340.2332561016083	response	0	k		264.0	/experiments/knapen_aot/AOT/AOT_stimuli/pictures/0944_fw.png	511.46659326553345	
267	340.25659012794495	picture	0		81	265.0	/experiments/knapen_aot/AOT/AOT_stimuli/pictures/2161_fw.png	511.4899272918701	0.6795699596405029
267	340.92344093322754	response	0	j		265.0	/experiments/knapen_aot/AOT/AOT_stimuli/pictures/2161_fw.png	512.1567780971527	
268	340.93616008758545	picture	0		117	266.0	/experiments/knapen_aot/AOT/AOT_stimuli/pictures/1668_fw.png	512.1694972515106	0.9722499847412109
268	341.89831805229187	response	0	j		266.0	/experiments/knapen_aot/AOT/AOT_stimuli/pictures/1668_fw.png	513.131655216217	
269	341.90841007232666	picture	0		91	267.0	/experiments/knapen_aot/AOT/AOT_stimuli/pictures/1079_fw.png	513.1417472362518	0.7569098472595215
269	342.65663290023804	response	0	j		267.0	/experiments/knapen_aot/AOT/AOT_stimuli/pictures/1079_fw.png	513.8899700641632	
270	342.6653199195862	picture	0		108	268.0	/experiments/knapen_aot/AOT/AOT_stimuli/pictures/0920_fw.png	513.8986570835114	0.9078950881958008
270	343.55663895606995	response	0	k		268.0	/experiments/knapen_aot/AOT/AOT_stimuli/pictures/0920_fw.png	514.7899761199951	
271	343.573215007782	picture	0		290	269.0	/experiments/knapen_aot/AOT/AOT_stimuli/pictures/1650_fw.png	514.8065521717072	2.425020933151245
271	345.98163890838623	response	0	k		269.0	/experiments/knapen_aot/AOT/AOT_stimuli/pictures/1650_fw.png	517.2149760723114	
272	345.9982359409332	picture	0		132	270.0	/experiments/knapen_aot/AOT/AOT_stimuli/pictures/1457_fw.png	517.2315731048584	1.108354091644287
272	347.0899889469147	response	0	k		270.0	/experiments/knapen_aot/AOT/AOT_stimuli/pictures/1457_fw.png	518.3233261108398	
273	347.1065900325775	picture	0		91	271.0	/experiments/knapen_aot/AOT/AOT_stimuli/pictures/1630_fw.png	518.3399271965027	0.7600710391998291
273	347.8565640449524	response	0	j		271.0	/experiments/knapen_aot/AOT/AOT_stimuli/pictures/1630_fw.png	519.0899012088776	
274	347.86666107177734	picture	0		120	272.0	/experiments/knapen_aot/AOT/AOT_stimuli/pictures/1153_fw.png	519.0999982357025	1.006546974182129
274	348.85657596588135	response	0	k		272.0	/experiments/knapen_aot/AOT/AOT_stimuli/pictures/1153_fw.png	520.0899131298065	
275	348.8732080459595	picture	0		108	273.0	/experiments/knapen_aot/AOT/AOT_stimuli/pictures/0294_fw.png	520.1065452098846	0.908362865447998
275	349.76496601104736	response	0	k		273.0	/experiments/knapen_aot/AOT/AOT_stimuli/pictures/0294_fw.png	520.9983031749725	
276	349.78157091140747	picture	0		93	274.0	/experiments/knapen_aot/AOT/AOT_stimuli/pictures/1815_fw.png	521.0149080753326	0.7832901477813721
276	350.54825592041016	response	0	k		274.0	/experiments/knapen_aot/AOT/AOT_stimuli/pictures/1815_fw.png	521.7815930843353	
277	350.56486105918884	picture	0		158	275.0	/experiments/knapen_aot/AOT/AOT_stimuli/pictures/1503_fw.png	521.798198223114	1.3249988555908203
277	351.87364411354065	response	0	j		275.0	/experiments/knapen_aot/AOT/AOT_stimuli/pictures/1503_fw.png	523.1069812774658	
278	351.88985991477966	picture	0		112	276.0	/experiments/knapen_aot/AOT/AOT_stimuli/pictures/2026_fw.png	523.1231970787048	0.9416530132293701
278	352.8149878978729	response	0	k		276.0	/experiments/knapen_aot/AOT/AOT_stimuli/pictures/2026_fw.png	524.0483250617981	
279	352.83151292800903	picture	0		109	277.0	/experiments/knapen_aot/AOT/AOT_stimuli/pictures/1693_fw.png	524.0648500919342	0.910067081451416
279	353.7315890789032	response	0	k		277.0	/experiments/knapen_aot/AOT/AOT_stimuli/pictures/1693_fw.png	524.9649262428284	
280	353.74158000946045	picture	0		94	278.0	/experiments/knapen_aot/AOT/AOT_stimuli/pictures/1619_fw.png	524.9749171733856	0.7848539352416992
280	354.5149450302124	response	0	j		278.0	/experiments/knapen_aot/AOT/AOT_stimuli/pictures/1619_fw.png	525.7482821941376	
281	354.52643394470215	picture	0		116	279.0	/experiments/knapen_aot/AOT/AOT_stimuli/pictures/0997_fw.png	525.7597711086273	0.9651360511779785
281	355.4816288948059	response	0	j		279.0	/experiments/knapen_aot/AOT/AOT_stimuli/pictures/0997_fw.png	526.7149660587311	
282	355.4915699958801	picture	0		127	280.0	/experiments/knapen_aot/AOT/AOT_stimuli/pictures/1878_fw.png	526.7249071598053	1.065087080001831
282	356.54020404815674	response	0	j		280.0	/experiments/knapen_aot/AOT/AOT_stimuli/pictures/1878_fw.png	527.7735412120819	
283	356.55665707588196	picture	0		121	281.0	/experiments/knapen_aot/AOT/AOT_stimuli/pictures/0057_fw.png	527.7899942398071	1.0165250301361084
283	357.55659794807434	response	0	j		281.0	/experiments/knapen_aot/AOT/AOT_stimuli/pictures/0057_fw.png	528.7899351119995	
284	357.57318210601807	picture	0		103	282.0	/experiments/knapen_aot/AOT/AOT_stimuli/pictures/1452_fw.png	528.8065192699432	0.8666718006134033
284	358.41692090034485	response	0	j		282.0	/experiments/knapen_aot/AOT/AOT_stimuli/pictures/1452_fw.png	529.65025806427	
285	358.43985390663147	picture	0		126	283.0	/experiments/knapen_aot/AOT/AOT_stimuli/pictures/0562_fw.png	529.6731910705566	1.058305025100708
285	359.48157691955566	response	0	k		283.0	/experiments/knapen_aot/AOT/AOT_stimuli/pictures/0562_fw.png	530.7149140834808	
286	359.4981589317322	picture	0		109	284.0	/experiments/knapen_aot/AOT/AOT_stimuli/pictures/0269_fw.png	530.7314960956573	0.916668176651001
286	360.3982050418854	response	0	j		284.0	/experiments/knapen_aot/AOT/AOT_stimuli/pictures/0269_fw.png	531.6315422058105	
287	360.4148271083832	picture	0		119	285.0	/experiments/knapen_aot/AOT/AOT_stimuli/pictures/1237_fw.png	531.6481642723083	0.9999809265136719
287	361.3982388973236	response	0	k		285.0	/experiments/knapen_aot/AOT/AOT_stimuli/pictures/1237_fw.png	532.6315760612488	
288	361.41480803489685	picture	0		105	286.0	/experiments/knapen_aot/AOT/AOT_stimuli/pictures/2017_fw.png	532.648145198822	0.883357048034668
288	362.28154611587524	response	0	k		286.0	/experiments/knapen_aot/AOT/AOT_stimuli/pictures/2017_fw.png	533.5148832798004	
289	362.2981650829315	picture	0		105	287.0	/experiments/knapen_aot/AOT/AOT_stimuli/pictures/1747_fw.png	533.5315022468567	0.8916528224945068
289	363.16517996788025	response	0	k		287.0	/experiments/knapen_aot/AOT/AOT_stimuli/pictures/1747_fw.png	534.3985171318054	
290	363.189817905426	picture	0		99	288.0	/experiments/knapen_aot/AOT/AOT_stimuli/pictures/1923_fw.png	534.4231550693512	0.8294081687927246
290	364.00653290748596	response	0	k		288.0	/experiments/knapen_aot/AOT/AOT_stimuli/pictures/1923_fw.png	535.2398700714111	
291	364.01922607421875	picture	0		96	289.0	/experiments/knapen_aot/AOT/AOT_stimuli/pictures/1181_fw.png	535.2525632381439	0.8039188385009766
291	364.8065969944	response	0	j		289.0	/experiments/knapen_aot/AOT/AOT_stimuli/pictures/1181_fw.png	536.0399341583252	
292	364.8231449127197	picture	0		113	290.0	/experiments/knapen_aot/AOT/AOT_stimuli/pictures/0517_fw.png	536.0564820766449	0.9503371715545654
292	365.7565839290619	response	0	k		290.0	/experiments/knapen_aot/AOT/AOT_stimuli/pictures/0517_fw.png	536.9899210929871	
293	365.7734820842743	picture	0		121	291.0	/experiments/knapen_aot/AOT/AOT_stimuli/pictures/0154_fw.png	537.0068192481995	1.0164108276367188
293	366.77317905426025	response	0	j		291.0	/experiments/knapen_aot/AOT/AOT_stimuli/pictures/0154_fw.png	538.0065162181854	
294	366.789892911911	picture	0		100	292.0	/experiments/knapen_aot/AOT/AOT_stimuli/pictures/0739_fw.png	538.0232300758362	0.8334970474243164
294	367.61486196517944	response	0	j		292.0	/experiments/knapen_aot/AOT/AOT_stimuli/pictures/0739_fw.png	538.8481991291046	
295	367.6233899593353	picture	0		185	293.0	/experiments/knapen_aot/AOT/AOT_stimuli/pictures/1416_fw.png	538.8567271232605	1.5497629642486572
295	369.1565020084381	response	0	k		293.0	/experiments/knapen_aot/AOT/AOT_stimuli/pictures/1416_fw.png	540.3898391723633	
296	369.173152923584	picture	0		94	294.0	/experiments/knapen_aot/AOT/AOT_stimuli/pictures/0544_fw.png	540.4064900875092	0.7916510105133057
296	369.948203086853	response	0	j		294.0	/experiments/knapen_aot/AOT/AOT_stimuli/pictures/0544_fw.png	541.1815402507782	
297	369.9648039340973	picture	0		145	295.0	/experiments/knapen_aot/AOT/AOT_stimuli/pictures/1671_fw.png	541.1981410980225	1.2170460224151611
297	371.16512799263	response	0	k		295.0	/experiments/knapen_aot/AOT/AOT_stimuli/pictures/1671_fw.png	542.3984651565552	
298	371.18184995651245	picture	0		98	296.0	/experiments/knapen_aot/AOT/AOT_stimuli/pictures/0289_fw.png	542.4151871204376	0.8246290683746338
298	371.98983097076416	response	0	j		296.0	/experiments/knapen_aot/AOT/AOT_stimuli/pictures/0289_fw.png	543.2231681346893	
299	372.0064790248871	picture	0		104	297.0	/experiments/knapen_aot/AOT/AOT_stimuli/pictures/0137_fw.png	543.2398161888123	0.8669309616088867
299	372.86486196517944	response	0	k		297.0	/experiments/knapen_aot/AOT/AOT_stimuli/pictures/0137_fw.png	544.0981991291046	
300	372.873409986496	picture	0		101	298.0	/experiments/knapen_aot/AOT/AOT_stimuli/pictures/1032_fw.png	544.1067471504211	0.8500161170959473
300	373.706748008728	response	0	k		298.0	/experiments/knapen_aot/AOT/AOT_stimuli/pictures/1032_fw.png	544.9400851726532	
301	373.7234261035919	picture	0		98	299.0	/experiments/knapen_aot/AOT/AOT_stimuli/pictures/1613_fw.png	544.9567632675171	0.8246798515319824
301	374.5315189361572	response	0	k		299.0	/experiments/knapen_aot/AOT/AOT_stimuli/pictures/1613_fw.png	545.7648561000824	
302	374.5481059551239	picture	0		98	300.0	/experiments/knapen_aot/AOT/AOT_stimuli/pictures/1397_fw.png	545.7814431190491	0.8253240585327148
302	375.35653710365295	response	0	j		300.0	/experiments/knapen_aot/AOT/AOT_stimuli/pictures/1397_fw.png	546.5898742675781	
303	375.3734300136566	picture	0		98	301.0	/experiments/knapen_aot/AOT/AOT_stimuli/pictures/1787_fw.png	546.6067671775818	0.8246679306030273
303	376.18152499198914	response	0	k		301.0	/experiments/knapen_aot/AOT/AOT_stimuli/pictures/1787_fw.png	547.4148621559143	
304	376.19809794425964	picture	0		164	302.0	/experiments/knapen_aot/AOT/AOT_stimuli/pictures/0630_fw.png	547.4314351081848	1.3749911785125732
304	377.55650305747986	response	0	j		302.0	/experiments/knapen_aot/AOT/AOT_stimuli/pictures/0630_fw.png	548.789840221405	
305	377.5730891227722	picture	0		116	303.0	/experiments/knapen_aot/AOT/AOT_stimuli/pictures/1697_fw.png	548.8064262866974	0.9753389358520508
305	378.5315399169922	response	0	k		303.0	/experiments/knapen_aot/AOT/AOT_stimuli/pictures/1697_fw.png	549.7648770809174	
306	378.54842805862427	picture	0		294	304.0	/experiments/knapen_aot/AOT/AOT_stimuli/pictures/0570_fw.png	549.7817652225494	2.4582009315490723
306	380.9897949695587	response	0	k		304.0	/experiments/knapen_aot/AOT/AOT_stimuli/pictures/0570_fw.png	552.2231321334839	
307	381.00662899017334	picture	0		245	305.0	/experiments/knapen_aot/AOT/AOT_stimuli/pictures/1996_fw.png	552.2399661540985	2.0499179363250732
307	383.03293204307556	response	0	k		305.0	/experiments/knapen_aot/AOT/AOT_stimuli/pictures/1996_fw.png	554.2662692070007	
308	383.0565469264984	picture	0		150	306.0	/experiments/knapen_aot/AOT/AOT_stimuli/pictures/0761_fw.png	554.2898840904236	1.25429105758667
308	384.29814410209656	response	0	k		306.0	/experiments/knapen_aot/AOT/AOT_stimuli/pictures/0761_fw.png	555.5314812660217	
309	384.3108379840851	picture	0		163	307.0	/experiments/knapen_aot/AOT/AOT_stimuli/pictures/1235_fw.png	555.5441751480103	1.3705639839172363
309	385.6649990081787	response	0	k		307.0	/experiments/knapen_aot/AOT/AOT_stimuli/pictures/1235_fw.png	556.8983361721039	
310	385.6814019680023	picture	0		126	308.0	/experiments/knapen_aot/AOT/AOT_stimuli/pictures/2173_fw.png	556.9147391319275	1.0583140850067139
310	386.7230670452118	response	0	k		308.0	/experiments/knapen_aot/AOT/AOT_stimuli/pictures/2173_fw.png	557.956404209137	
311	386.73971605300903	picture	0		123	309.0	/experiments/knapen_aot/AOT/AOT_stimuli/pictures/1868_fw.png	557.9730532169342	1.0293428897857666
311	387.7564649581909	response	0	k		309.0	/experiments/knapen_aot/AOT/AOT_stimuli/pictures/1868_fw.png	558.9898021221161	
312	387.7690589427948	picture	0		115	310.0	/experiments/knapen_aot/AOT/AOT_stimuli/pictures/0602_fw.png	559.00239610672	0.9583091735839844
312	388.71478605270386	response	0	j		310.0	/experiments/knapen_aot/AOT/AOT_stimuli/pictures/0602_fw.png	559.948123216629	
313	388.7273681163788	picture	0		92	311.0	/experiments/knapen_aot/AOT/AOT_stimuli/pictures/0793_fw.png	559.960705280304	0.778998851776123
313	389.48979091644287	response	0	j		311.0	/experiments/knapen_aot/AOT/AOT_stimuli/pictures/0793_fw.png	560.723128080368	
314	389.5063669681549	picture	0		112	312.0	/experiments/knapen_aot/AOT/AOT_stimuli/pictures/1807_fw.png	560.7397041320801	0.9362771511077881
314	390.43141508102417	response	0	j		312.0	/experiments/knapen_aot/AOT/AOT_stimuli/pictures/1807_fw.png	561.6647522449493	
315	390.4426441192627	picture	0		127	313.0	/experiments/knapen_aot/AOT/AOT_stimuli/pictures/0349_fw.png	561.6759812831879	1.0637738704681396
315	391.48978996276855	response	0	k		313.0	/experiments/knapen_aot/AOT/AOT_stimuli/pictures/0349_fw.png	562.7231271266937	
316	391.50641798973083	picture	0		108	314.0	/experiments/knapen_aot/AOT/AOT_stimuli/pictures/0907_fw.png	562.739755153656	0.9082949161529541
316	392.39812898635864	response	0	j		314.0	/experiments/knapen_aot/AOT/AOT_stimuli/pictures/0907_fw.png	563.6314661502838	
317	392.4147129058838	picture	0		124	315.0	/experiments/knapen_aot/AOT/AOT_stimuli/pictures/0516_fw.png	563.648050069809	1.0417900085449219
317	393.43303894996643	response	0	j		315.0	/experiments/knapen_aot/AOT/AOT_stimuli/pictures/0516_fw.png	564.6663761138916	
318	393.4565029144287	picture	0		128	316.0	/experiments/knapen_aot/AOT/AOT_stimuli/pictures/1602_fw.png	564.6898400783539	1.0748260021209717
318	394.5147879123688	response	0	j		316.0	/experiments/knapen_aot/AOT/AOT_stimuli/pictures/1602_fw.png	565.748125076294	
319	394.5313289165497	picture	0		146	317.0	/experiments/knapen_aot/AOT/AOT_stimuli/pictures/0902_fw.png	565.7646660804749	1.2254650592803955
319	395.73974609375	response	0	j		317.0	/experiments/knapen_aot/AOT/AOT_stimuli/pictures/0902_fw.png	566.9730832576752	
320	395.7567939758301	picture	0		113	318.0	/experiments/knapen_aot/AOT/AOT_stimuli/pictures/0820_fw.png	566.9901311397552	0.9495639801025391
320	396.689759016037	response	0	k		318.0	/experiments/knapen_aot/AOT/AOT_stimuli/pictures/0820_fw.png	567.9230961799622	
321	396.7063579559326	picture	0		228	319.0	/experiments/knapen_aot/AOT/AOT_stimuli/pictures/0789_fw.png	567.9396951198578	1.9083290100097656
321	398.5980899333954	response	0	j		319.0	/experiments/knapen_aot/AOT/AOT_stimuli/pictures/0789_fw.png	569.8314270973206	
322	398.6146869659424	picture	0		97	320.0	/experiments/knapen_aot/AOT/AOT_stimuli/pictures/0572_fw.png	569.8480241298676	0.8166470527648926
322	399.41481590270996	response	0	k		320.0	/experiments/knapen_aot/AOT/AOT_stimuli/pictures/0572_fw.png	570.6481530666351	
323	399.4313340187073	picture	0		110	321.0	/experiments/knapen_aot/AOT/AOT_stimuli/pictures/2020_fw.png	570.6646711826324	0.9249889850616455
323	400.3397419452667	response	0	k		321.0	/experiments/knapen_aot/AOT/AOT_stimuli/pictures/2020_fw.png	571.5730791091919	
324	400.3563230037689	picture	0		102	322.0	/experiments/knapen_aot/AOT/AOT_stimuli/pictures/0124_fw.png	571.5896601676941	0.8586759567260742
324	401.1980860233307	response	0	k		322.0	/experiments/knapen_aot/AOT/AOT_stimuli/pictures/0124_fw.png	572.4314231872559	
325	401.214998960495	picture	0		151	323.0	/experiments/knapen_aot/AOT/AOT_stimuli/pictures/1886_fw.png	572.4483361244202	1.266296148300171
325	402.45806097984314	response	0	k		323.0	/experiments/knapen_aot/AOT/AOT_stimuli/pictures/1886_fw.png	573.6913981437683	
326	402.48129510879517	picture	0		106	324.0	/experiments/knapen_aot/AOT/AOT_stimuli/pictures/0327_fw.png	573.7146322727203	0.8917429447174072
326	403.3563940525055	response	0	j		324.0	/experiments/knapen_aot/AOT/AOT_stimuli/pictures/0327_fw.png	574.5897312164307	
327	403.3730380535126	picture	0		81	325.0	/experiments/knapen_aot/AOT/AOT_stimuli/pictures/1437_fw.png	574.6063752174377	0.6876058578491211
327	404.0398781299591	response	0	j		325.0	/experiments/knapen_aot/AOT/AOT_stimuli/pictures/1437_fw.png	575.2732152938843	
328	404.0606439113617	picture	0		102	326.0	/experiments/knapen_aot/AOT/AOT_stimuli/pictures/2097_fw.png	575.2939810752869	0.8545169830322266
328	404.8980710506439	response	0	j		326.0	/experiments/knapen_aot/AOT/AOT_stimuli/pictures/2097_fw.png	576.1314082145691	
329	404.9151608943939	picture	0		86	327.0	/experiments/knapen_aot/AOT/AOT_stimuli/pictures/0624_fw.png	576.1484980583191	0.724494218826294
329	405.6231429576874	response	0	j		327.0	/experiments/knapen_aot/AOT/AOT_stimuli/pictures/0624_fw.png	576.8564801216125	
330	405.6396551132202	picture	0		89	328.0	/experiments/knapen_aot/AOT/AOT_stimuli/pictures/1945_fw.png	576.8729922771454	0.7499749660491943
330	406.3730969429016	response	0	j		328.0	/experiments/knapen_aot/AOT/AOT_stimuli/pictures/1945_fw.png	577.6064341068268	
331	406.3896300792694	picture	0		142	329.0	/experiments/knapen_aot/AOT/AOT_stimuli/pictures/1284_fw.png	577.6229672431946	1.1918299198150635
331	407.5647089481354	response	0	k		329.0	/experiments/knapen_aot/AOT/AOT_stimuli/pictures/1284_fw.png	578.7980461120605	
332	407.5814599990845	picture	0		134	330.0	/experiments/knapen_aot/AOT/AOT_stimuli/pictures/1191_fw.png	578.8147971630096	1.125365972518921
332	408.68971395492554	response	0	k		330.0	/experiments/knapen_aot/AOT/AOT_stimuli/pictures/1191_fw.png	579.9230511188507	
333	408.7068259716034	picture	0		114	331.0	/experiments/knapen_aot/AOT/AOT_stimuli/pictures/1894_fw.png	579.9401631355286	0.958003044128418
333	409.64125895500183	response	0	k		331.0	/experiments/knapen_aot/AOT/AOT_stimuli/pictures/1894_fw.png	580.874596118927	
334	409.6648290157318	picture	0		86	332.0	/experiments/knapen_aot/AOT/AOT_stimuli/pictures/0039_fw.png	580.898166179657	0.7247920036315918
334	410.3730700016022	response	0	k		332.0	/experiments/knapen_aot/AOT/AOT_stimuli/pictures/0039_fw.png	581.6064071655273	
335	410.3896210193634	picture	0		129	333.0	/experiments/knapen_aot/AOT/AOT_stimuli/pictures/0287_fw.png	581.6229581832886	1.083362102508545
335	411.4495370388031	response	0	k		333.0	/experiments/knapen_aot/AOT/AOT_stimuli/pictures/0287_fw.png	582.6828742027283	
336	411.47298312187195	picture	0		145	334.0	/experiments/knapen_aot/AOT/AOT_stimuli/pictures/1906_fw.png	582.7063202857971	1.2167890071868896
336	412.66633009910583	response	0	k		334.0	/experiments/knapen_aot/AOT/AOT_stimuli/pictures/1906_fw.png	583.899667263031	
337	412.68977212905884	picture	0		117	335.0	/experiments/knapen_aot/AOT/AOT_stimuli/pictures/0318_fw.png	583.923109292984	0.9832057952880859
337	413.64961194992065	response	0	k		335.0	/experiments/knapen_aot/AOT/AOT_stimuli/pictures/0318_fw.png	584.8829491138458	
338	413.6729779243469	picture	0		135	336.0	/experiments/knapen_aot/AOT/AOT_stimuli/pictures/0560_fw.png	584.9063150882721	1.1333789825439453
338	414.7897069454193	response	0	k		336.0	/experiments/knapen_aot/AOT/AOT_stimuli/pictures/0560_fw.png	586.0230441093445	
339	414.80635690689087	picture	0		202	337.0	/experiments/knapen_aot/AOT/AOT_stimuli/pictures/1968_fw.png	586.039694070816	1.6922130584716797
339	416.47464990615845	response	0	k		337.0	/experiments/knapen_aot/AOT/AOT_stimuli/pictures/1968_fw.png	587.7079870700836	
340	416.49856996536255	picture	0		136	338.0	/experiments/knapen_aot/AOT/AOT_stimuli/pictures/1171_fw.png	587.7319071292877	1.1410491466522217
340	417.62302112579346	response	0	k		338.0	/experiments/knapen_aot/AOT/AOT_stimuli/pictures/1171_fw.png	588.8563582897186	
341	417.63961911201477	picture	0		118	339.0	/experiments/knapen_aot/AOT/AOT_stimuli/pictures/0877_fw.png	588.8729562759399	0.9916470050811768
341	418.61466789245605	response	0	j		339.0	/experiments/knapen_aot/AOT/AOT_stimuli/pictures/0877_fw.png	589.8480050563812	
342	418.63126611709595	picture	0		249	340.0	/experiments/knapen_aot/AOT/AOT_stimuli/pictures/1757_fw.png	589.8646032810211	2.0833168029785156
342	420.6979069709778	response	0	k		340.0	/experiments/knapen_aot/AOT/AOT_stimuli/pictures/1757_fw.png	591.931244134903	
343	420.71458292007446	picture	0		129	341.0	/experiments/knapen_aot/AOT/AOT_stimuli/pictures/0579_fw.png	591.9479200839996	1.0834131240844727
343	421.7812979221344	response	0	k		341.0	/experiments/knapen_aot/AOT/AOT_stimuli/pictures/0579_fw.png	593.0146350860596	
344	421.79799604415894	picture	0		179	342.0	/experiments/knapen_aot/AOT/AOT_stimuli/pictures/0747_fw.png	593.0313332080841	1.500032901763916
344	423.2812581062317	response	0	k		342.0	/experiments/knapen_aot/AOT/AOT_stimuli/pictures/0747_fw.png	594.5145952701569	
345	423.29802894592285	picture	0		140	343.0	/experiments/knapen_aot/AOT/AOT_stimuli/pictures/0107_fw.png	594.531366109848	1.1749019622802734
345	424.4494700431824	response	0	j		343.0	/experiments/knapen_aot/AOT/AOT_stimuli/pictures/0107_fw.png	595.6828072071075	
346	424.4729309082031	picture	0		195	344.0	/experiments/knapen_aot/AOT/AOT_stimuli/pictures/0526_fw.png	595.7062680721283	1.6333200931549072
346	426.08965611457825	response	0	k		344.0	/experiments/knapen_aot/AOT/AOT_stimuli/pictures/0526_fw.png	597.3229932785034	
347	426.10625100135803	picture	0		120	345.0	/experiments/knapen_aot/AOT/AOT_stimuli/pictures/1202_fw.png	597.3395881652832	1.0096700191497803
347	427.09794998168945	response	0	j		345.0	/experiments/knapen_aot/AOT/AOT_stimuli/pictures/1202_fw.png	598.3312871456146	
348	427.1159210205078	picture	0		96	346.0	/experiments/knapen_aot/AOT/AOT_stimuli/pictures/1177_fw.png	598.349258184433	0.8070008754730225
348	427.9062969684601	response	0	k		346.0	/experiments/knapen_aot/AOT/AOT_stimuli/pictures/1177_fw.png	599.1396341323853	
349	427.92292189598083	picture	0		120	347.0	/experiments/knapen_aot/AOT/AOT_stimuli/pictures/2175_fw.png	599.156259059906	1.0083441734313965
349	428.91464591026306	response	0	j		347.0	/experiments/knapen_aot/AOT/AOT_stimuli/pictures/2175_fw.png	600.1479830741882	
350	428.93126606941223	picture	0		88	348.0	/experiments/knapen_aot/AOT/AOT_stimuli/pictures/2157_fw.png	600.1646032333374	0.741703987121582
350	429.6494081020355	response	0	k		348.0	/experiments/knapen_aot/AOT/AOT_stimuli/pictures/2157_fw.png	600.8827452659607	
351	429.6729700565338	picture	0		157	349.0	/experiments/knapen_aot/AOT/AOT_stimuli/pictures/1910_fw.png	600.906307220459	1.3179688453674316
351	430.97295594215393	response	0	j		349.0	/experiments/knapen_aot/AOT/AOT_stimuli/pictures/1910_fw.png	602.2062931060791	
352	430.99093890190125	picture	0		178	350.0	/experiments/knapen_aot/AOT/AOT_stimuli/pictures/2015_fw.png	602.2242760658264	1.4902420043945312
352	432.4578070640564	response	0	k		350.0	/experiments/knapen_aot/AOT/AOT_stimuli/pictures/2015_fw.png	603.6911442279816	
353	432.4811809062958	picture	0		110	351.0	/experiments/knapen_aot/AOT/AOT_stimuli/pictures/0292_fw.png	603.714518070221	0.9264001846313477
353	433.3895409107208	response	0	j		351.0	/experiments/knapen_aot/AOT/AOT_stimuli/pictures/0292_fw.png	604.622878074646	
354	433.4075810909271	picture	0		96	352.0	/experiments/knapen_aot/AOT/AOT_stimuli/pictures/1758_fw.png	604.6409182548523	0.8069248199462891
354	434.19796204566956	response	0	j		352.0	/experiments/knapen_aot/AOT/AOT_stimuli/pictures/1758_fw.png	605.4312992095947	
355	434.2145059108734	picture	0		255	353.0	/experiments/knapen_aot/AOT/AOT_stimuli/pictures/0366_fw.png	605.4478430747986	2.1333611011505127
355	436.33128690719604	response	0	k		353.0	/experiments/knapen_aot/AOT/AOT_stimuli/pictures/0366_fw.png	607.5646240711212	
356	436.3478670120239	picture	0		111	354.0	/experiments/knapen_aot/AOT/AOT_stimuli/pictures/1310_fw.png	607.5812041759491	0.934704065322876
356	437.2577850818634	response	0	k		354.0	/experiments/knapen_aot/AOT/AOT_stimuli/pictures/1310_fw.png	608.4911222457886	
357	437.2825710773468	picture	0		204	355.0	/experiments/knapen_aot/AOT/AOT_stimuli/pictures/0698_fw.png	608.515908241272	1.707031011581421
357	438.97294092178345	response	0	k		355.0	/experiments/knapen_aot/AOT/AOT_stimuli/pictures/0698_fw.png	610.2062780857086	
358	438.9896020889282	picture	0		174	356.0	/experiments/knapen_aot/AOT/AOT_stimuli/pictures/1099_fw.png	610.2229392528534	1.4582338333129883
358	440.431214094162	response	0	j		356.0	/experiments/knapen_aot/AOT/AOT_stimuli/pictures/1099_fw.png	611.6645512580872	
359	440.4478359222412	picture	0		130	357.0	/experiments/knapen_aot/AOT/AOT_stimuli/pictures/0962_fw.png	611.6811730861664	1.0916991233825684
359	441.522912979126	response	0	j		357.0	/experiments/knapen_aot/AOT/AOT_stimuli/pictures/0962_fw.png	612.7562501430511	
360	441.5395350456238	picture	0		149	358.0	/experiments/knapen_aot/AOT/AOT_stimuli/pictures/1293_fw.png	612.772872209549	1.2499809265136719
360	442.77292799949646	response	0	k		358.0	/experiments/knapen_aot/AOT/AOT_stimuli/pictures/1293_fw.png	614.0062651634216	
361	442.78951597213745	picture	0		176	359.0	/experiments/knapen_aot/AOT/AOT_stimuli/pictures/1720_fw.png	614.0228531360626	1.4721150398254395
361	444.24792408943176	response	0	k		359.0	/experiments/knapen_aot/AOT/AOT_stimuli/pictures/1720_fw.png	615.4812612533569	
362	444.2616310119629	stim	0		351			615.4949681758881	2.930556058883667
362	445.5563259124756	response	0	k				616.7896630764008	
362	447.1812129020691	response	0	space				618.4145500659943	
