trial_nr	onset	event_type	phase	response	nr_frames	picture_index	picture_file	onset_abs	duration
0	0.14330387115478516	stim	0		658			61.26497721672058	5.499994516372681
0	5.62530779838562	response	0	space				66.74698114395142	
2	5.643298387527466	picture	0		361	0.0	/experiments/Knapen_AOT/AOT_stimuli/pictures/2041_fw.png	66.76497173309326	3.0315752029418945
2	8.65004277229309	response	0	j		0.0	/experiments/Knapen_AOT/AOT_stimuli/pictures/2041_fw.png	69.77171611785889	
3	8.67487359046936	picture	0		161	1.0	/experiments/Knapen_AOT/AOT_stimuli/pictures/1402_fw.png	69.79654693603516	1.3585529327392578
3	10.016940593719482	response	0	j		1.0	/experiments/Knapen_AOT/AOT_stimuli/pictures/1402_fw.png	71.13861393928528	
4	10.033426523208618	picture	0		136	2.0	/experiments/Knapen_AOT/AOT_stimuli/pictures/1623_fw.png	71.15509986877441	1.1416516304016113
4	11.158583641052246	response	0	k		2.0	/experiments/Knapen_AOT/AOT_stimuli/pictures/1623_fw.png	72.28025698661804	
5	11.17507815361023	picture	0		105	3.0	/experiments/Knapen_AOT/AOT_stimuli/pictures/0512_fw.png	72.29675149917603	0.8832755088806152
5	12.041929244995117	response	0	j		3.0	/experiments/Knapen_AOT/AOT_stimuli/pictures/0512_fw.png	73.16360259056091	
6	12.058353662490845	picture	0		119	4.0	/experiments/Knapen_AOT/AOT_stimuli/pictures/0373_fw.png	73.18002700805664	0.9948358535766602
6	13.041927099227905	response	0	k		4.0	/experiments/Knapen_AOT/AOT_stimuli/pictures/0373_fw.png	74.1636004447937	
7	13.053189516067505	picture	0		90	5.0	/experiments/Knapen_AOT/AOT_stimuli/pictures/1352_fw.png	74.1748628616333	0.7500004768371582
7	13.791977167129517	response	0	j		5.0	/experiments/Knapen_AOT/AOT_stimuli/pictures/1352_fw.png	74.91365051269531	
8	13.803189992904663	picture	0		125	6.0	/experiments/Knapen_AOT/AOT_stimuli/pictures/1575_fw.png	74.92486333847046	1.04166579246521
8	14.833621263504028	response	0	k		6.0	/experiments/Knapen_AOT/AOT_stimuli/pictures/1575_fw.png	75.95529460906982	
9	14.844855785369873	picture	0		106	7.0	/experiments/Knapen_AOT/AOT_stimuli/pictures/0935_fw.png	75.96652913093567	0.8819537162780762
9	15.716992378234863	response	0	k		7.0	/experiments/Knapen_AOT/AOT_stimuli/pictures/0935_fw.png	76.83866572380066	
10	15.72680950164795	picture	0		87	8.0	/experiments/Knapen_AOT/AOT_stimuli/pictures/0429_fw.png	76.84848284721375	0.7292780876159668
10	16.44198203086853	response	0	j		8.0	/experiments/Knapen_AOT/AOT_stimuli/pictures/0429_fw.png	77.56365537643433	
11	16.456087589263916	picture	0		94	9.0	/experiments/Knapen_AOT/AOT_stimuli/pictures/0988_fw.png	77.57776093482971	0.7940139770507812
11	17.234025239944458	response	0	j		9.0	/experiments/Knapen_AOT/AOT_stimuli/pictures/0988_fw.png	78.35569858551025	
12	17.250101566314697	picture	0		89	10.0	/experiments/Knapen_AOT/AOT_stimuli/pictures/0117_fw.png	78.3717749118805	0.7475764751434326
12	17.983657121658325	response	0	k		10.0	/experiments/Knapen_AOT/AOT_stimuli/pictures/0117_fw.png	79.10533046722412	
13	17.99767804145813	picture	0		119	11.0	/experiments/Knapen_AOT/AOT_stimuli/pictures/1135_fw.png	79.11935138702393	1.0024445056915283
13	18.98371410369873	response	0	k		11.0	/experiments/Knapen_AOT/AOT_stimuli/pictures/1135_fw.png	80.10538744926453	
14	19.000122547149658	picture	0		109	12.0	/experiments/Knapen_AOT/AOT_stimuli/pictures/0137_fw.png	80.12179589271545	0.9142251014709473
14	19.900330781936646	response	0	k		12.0	/experiments/Knapen_AOT/AOT_stimuli/pictures/0137_fw.png	81.02200412750244	
15	19.914347648620605	picture	0		188	13.0	/experiments/Knapen_AOT/AOT_stimuli/pictures/0125_fw.png	81.0360209941864	1.569345235824585
15	21.475359439849854	response	0	k		13.0	/experiments/Knapen_AOT/AOT_stimuli/pictures/0125_fw.png	82.59703278541565	
16	21.48369288444519	picture	0		95	14.0	/experiments/Knapen_AOT/AOT_stimuli/pictures/2024_fw.png	82.60536623001099	0.799797534942627
16	22.26710605621338	response	0	j		14.0	/experiments/Knapen_AOT/AOT_stimuli/pictures/2024_fw.png	83.38877940177917	
17	22.283490419387817	picture	0		84	15.0	/experiments/Knapen_AOT/AOT_stimuli/pictures/1360_fw.png	83.40516376495361	0.7083971500396729
17	22.97565722465515	response	0	j		15.0	/experiments/Knapen_AOT/AOT_stimuli/pictures/1360_fw.png	84.09733057022095	
18	22.99188756942749	picture	0		113	16.0	/experiments/Knapen_AOT/AOT_stimuli/pictures/1399_fw.png	84.11356091499329	0.9499874114990234
18	23.9254367351532	response	0	k		16.0	/experiments/Knapen_AOT/AOT_stimuli/pictures/1399_fw.png	85.047110080719	
19	23.941874980926514	picture	0		75	17.0	/experiments/Knapen_AOT/AOT_stimuli/pictures/0251_fw.png	85.06354832649231	0.6252787113189697
19	24.552528619766235	response	0	j		17.0	/experiments/Knapen_AOT/AOT_stimuli/pictures/0251_fw.png	85.67420196533203	
20	24.567153692245483	picture	0		101	18.0	/experiments/Knapen_AOT/AOT_stimuli/pictures/1917_fw.png	85.68882703781128	0.841360330581665
20	25.400402784347534	response	0	k		18.0	/experiments/Knapen_AOT/AOT_stimuli/pictures/1917_fw.png	86.52207612991333	
21	25.40851402282715	picture	0		92	19.0	/experiments/Knapen_AOT/AOT_stimuli/pictures/1694_fw.png	86.53018736839294	0.7750608921051025
21	26.16738200187683	response	0	k		19.0	/experiments/Knapen_AOT/AOT_stimuli/pictures/1694_fw.png	87.28905534744263	
22	26.18357491493225	picture	0		76	20.0	/experiments/Knapen_AOT/AOT_stimuli/pictures/0819_fw.png	87.30524826049805	0.633580207824707
22	26.808792114257812	response	0	j		20.0	/experiments/Knapen_AOT/AOT_stimuli/pictures/0819_fw.png	87.93046545982361	
23	26.817155122756958	picture	0		86	21.0	/experiments/Knapen_AOT/AOT_stimuli/pictures/0514_fw.png	87.93882846832275	0.724769115447998
23	27.525436401367188	response	0	j		21.0	/experiments/Knapen_AOT/AOT_stimuli/pictures/0514_fw.png	88.64710974693298	
24	27.541924238204956	picture	0		139	22.0	/experiments/Knapen_AOT/AOT_stimuli/pictures/0742_fw.png	88.66359758377075	1.1666743755340576
24	28.69229030609131	response	0	j		22.0	/experiments/Knapen_AOT/AOT_stimuli/pictures/0742_fw.png	89.8139636516571	
25	28.708598613739014	picture	0		82	23.0	/experiments/Knapen_AOT/AOT_stimuli/pictures/1424_fw.png	89.83027195930481	0.6916663646697998
25	29.383796215057373	response	0	j		23.0	/experiments/Knapen_AOT/AOT_stimuli/pictures/1424_fw.png	90.50546956062317	
26	29.400264978408813	picture	0		91	24.0	/experiments/Knapen_AOT/AOT_stimuli/pictures/0145_fw.png	90.52193832397461	0.7666764259338379
26	30.15046453475952	response	0	k		24.0	/experiments/Knapen_AOT/AOT_stimuli/pictures/0145_fw.png	91.27213788032532	
27	30.16694140434265	picture	0		80	25.0	/experiments/Knapen_AOT/AOT_stimuli/pictures/1409_fw.png	91.28861474990845	0.6710937023162842
27	30.825454711914062	response	0	k		25.0	/experiments/Knapen_AOT/AOT_stimuli/pictures/1409_fw.png	91.94712805747986	
28	30.838035106658936	picture	0		118	26.0	/experiments/Knapen_AOT/AOT_stimuli/pictures/1463_fw.png	91.95970845222473	0.9791755676269531
28	31.80883502960205	response	0	k		26.0	/experiments/Knapen_AOT/AOT_stimuli/pictures/1463_fw.png	92.93050837516785	
29	31.81721067428589	picture	0		102	27.0	/experiments/Knapen_AOT/AOT_stimuli/pictures/1387_fw.png	92.93888401985168	0.858095645904541
29	32.65889596939087	response	0	k		27.0	/experiments/Knapen_AOT/AOT_stimuli/pictures/1387_fw.png	93.78056931495667	
30	32.67530632019043	picture	0		76	28.0	/experiments/Knapen_AOT/AOT_stimuli/pictures/0866_fw.png	93.79697966575623	0.6349878311157227
30	33.30054068565369	response	0	j		28.0	/experiments/Knapen_AOT/AOT_stimuli/pictures/0866_fw.png	94.42221403121948	
31	33.31029415130615	picture	0		108	29.0	/experiments/Knapen_AOT/AOT_stimuli/pictures/0604_fw.png	94.43196749687195	0.9027571678161621
31	34.20050120353699	response	0	j		29.0	/experiments/Knapen_AOT/AOT_stimuli/pictures/0604_fw.png	95.32217454910278	
32	34.213051319122314	picture	0		94	30.0	/experiments/Knapen_AOT/AOT_stimuli/pictures/0919_fw.png	95.33472466468811	0.7847435474395752
32	34.98388481140137	response	0	j		30.0	/experiments/Knapen_AOT/AOT_stimuli/pictures/0919_fw.png	96.10555815696716	
33	34.99779486656189	picture	0		125	31.0	/experiments/Knapen_AOT/AOT_stimuli/pictures/0250_fw.png	96.11946821212769	1.0486629009246826
33	36.03387236595154	response	0	k		31.0	/experiments/Knapen_AOT/AOT_stimuli/pictures/0250_fw.png	97.15554571151733	
34	36.04645776748657	picture	0		88	32.0	/experiments/Knapen_AOT/AOT_stimuli/pictures/0294_fw.png	97.16813111305237	0.7291741371154785
34	36.767473459243774	response	0	k		32.0	/experiments/Knapen_AOT/AOT_stimuli/pictures/0294_fw.png	97.88914680480957	
35	36.77563190460205	picture	0		75	33.0	/experiments/Knapen_AOT/AOT_stimuli/pictures/2047_fw.png	97.89730525016785	0.6249463558197021
35	37.39225435256958	response	0	j		33.0	/experiments/Knapen_AOT/AOT_stimuli/pictures/2047_fw.png	98.51392769813538	
36	37.40057826042175	picture	0		94	34.0	/experiments/Knapen_AOT/AOT_stimuli/pictures/1681_fw.png	98.52225160598755	0.7847356796264648
36	38.175557374954224	response	0	j		34.0	/experiments/Knapen_AOT/AOT_stimuli/pictures/1681_fw.png	99.29723072052002	
37	38.18531394004822	picture	0		82	35.0	/experiments/Knapen_AOT/AOT_stimuli/pictures/0477_fw.png	99.30698728561401	0.6875145435333252
37	38.85891914367676	response	0	j		35.0	/experiments/Knapen_AOT/AOT_stimuli/pictures/0477_fw.png	99.98059248924255	
38	38.87282848358154	picture	0		84	36.0	/experiments/Knapen_AOT/AOT_stimuli/pictures/2083_fw.png	99.99450182914734	0.7083547115325928
38	39.55966329574585	response	0	k		36.0	/experiments/Knapen_AOT/AOT_stimuli/pictures/2083_fw.png	100.68133664131165	
39	39.581183195114136	picture	0		74	37.0	/experiments/Knapen_AOT/AOT_stimuli/pictures/0241_fw.png	100.70285654067993	0.6249973773956299
39	40.19231629371643	response	0	k		37.0	/experiments/Knapen_AOT/AOT_stimuli/pictures/0241_fw.png	101.31398963928223	
40	40.206180572509766	picture	0		142	38.0	/experiments/Knapen_AOT/AOT_stimuli/pictures/1855_fw.png	101.32785391807556	1.1942534446716309
40	41.38406825065613	response	0	k		38.0	/experiments/Knapen_AOT/AOT_stimuli/pictures/1855_fw.png	102.50574159622192	
41	41.4004340171814	picture	0		80	39.0	/experiments/Knapen_AOT/AOT_stimuli/pictures/1505_fw.png	102.52210736274719	0.6749897003173828
41	42.058934926986694	response	0	k		39.0	/experiments/Knapen_AOT/AOT_stimuli/pictures/1505_fw.png	103.18060827255249	
42	42.07542371749878	picture	0		92	40.0	/experiments/Knapen_AOT/AOT_stimuli/pictures/1271_fw.png	103.19709706306458	0.7696402072906494
42	42.834019899368286	response	0	j		40.0	/experiments/Knapen_AOT/AOT_stimuli/pictures/1271_fw.png	103.95569324493408	
43	42.84506392478943	picture	0		108	41.0	/experiments/Knapen_AOT/AOT_stimuli/pictures/1165_fw.png	103.96673727035522	0.9054369926452637
43	43.727667570114136	response	0	k		41.0	/experiments/Knapen_AOT/AOT_stimuli/pictures/1165_fw.png	104.84934091567993	
44	43.75050091743469	picture	0		70	42.0	/experiments/Knapen_AOT/AOT_stimuli/pictures/1897_fw.png	104.87217426300049	0.5876834392547607
44	44.32568001747131	response	0	k		42.0	/experiments/Knapen_AOT/AOT_stimuli/pictures/1897_fw.png	105.44735336303711	
45	44.33818435668945	picture	0		94	43.0	/experiments/Knapen_AOT/AOT_stimuli/pictures/0808_fw.png	105.45985770225525	0.7847347259521484
45	45.10902738571167	response	0	j		43.0	/experiments/Knapen_AOT/AOT_stimuli/pictures/0808_fw.png	106.23070073127747	
46	45.1229190826416	picture	0		308	44.0	/experiments/Knapen_AOT/AOT_stimuli/pictures/0854_fw.png	106.2445924282074	2.5777053833007812
46	47.68403244018555	response	0	j		44.0	/experiments/Knapen_AOT/AOT_stimuli/pictures/0854_fw.png	108.80570578575134	
47	47.70062446594238	picture	0		74	45.0	/experiments/Knapen_AOT/AOT_stimuli/pictures/0831_fw.png	108.82229781150818	0.6248431205749512
47	48.30899429321289	response	0	k		45.0	/experiments/Knapen_AOT/AOT_stimuli/pictures/0831_fw.png	109.43066763877869	
48	48.325467586517334	picture	0		111	46.0	/experiments/Knapen_AOT/AOT_stimuli/pictures/1303_fw.png	109.44714093208313	0.9293596744537354
48	49.242331981658936	response	0	k		46.0	/experiments/Knapen_AOT/AOT_stimuli/pictures/1303_fw.png	110.36400532722473	
49	49.25482726097107	picture	0		135	47.0	/experiments/Knapen_AOT/AOT_stimuli/pictures/0007_fw.png	110.37650060653687	1.1249725818634033
49	50.3597207069397	response	0	j		47.0	/experiments/Knapen_AOT/AOT_stimuli/pictures/0007_fw.png	111.4813940525055	
50	50.37979984283447	picture	0		107	48.0	/experiments/Knapen_AOT/AOT_stimuli/pictures/0238_fw.png	111.50147318840027	0.8889265060424805
50	51.258991956710815	response	0	k		48.0	/experiments/Knapen_AOT/AOT_stimuli/pictures/0238_fw.png	112.38066530227661	
51	51.26872634887695	picture	0		93	49.0	/experiments/Knapen_AOT/AOT_stimuli/pictures/0155_fw.png	112.39039969444275	0.7777214050292969
51	52.03399205207825	response	0	j		49.0	/experiments/Knapen_AOT/AOT_stimuli/pictures/0155_fw.png	113.15566539764404	
52	52.04644775390625	picture	0		86	50.0	/experiments/Knapen_AOT/AOT_stimuli/pictures/0116_fw.png	113.16812109947205	0.7291312217712402
52	52.75932502746582	response	0	k		50.0	/experiments/Knapen_AOT/AOT_stimuli/pictures/0116_fw.png	113.88099837303162	
53	52.77557897567749	picture	0		125	51.0	/experiments/Knapen_AOT/AOT_stimuli/pictures/0558_fw.png	113.89725232124329	1.0417165756225586
53	53.80899930000305	response	0	k		51.0	/experiments/Knapen_AOT/AOT_stimuli/pictures/0558_fw.png	114.93067264556885	
54	53.81729555130005	picture	0		96	52.0	/experiments/Knapen_AOT/AOT_stimuli/pictures/2121_fw.png	114.93896889686584	0.808194637298584
54	54.60904049873352	response	0	k		52.0	/experiments/Knapen_AOT/AOT_stimuli/pictures/2121_fw.png	115.73071384429932	
55	54.62549018859863	picture	0		85	53.0	/experiments/Knapen_AOT/AOT_stimuli/pictures/0182_fw.png	115.74716353416443	0.7126243114471436
55	55.325669288635254	response	0	k		53.0	/experiments/Knapen_AOT/AOT_stimuli/pictures/0182_fw.png	116.44734263420105	
56	55.338114500045776	picture	0		115	54.0	/experiments/Knapen_AOT/AOT_stimuli/pictures/0723_fw.png	116.45978784561157	0.9623825550079346
56	56.28401279449463	response	0	k		54.0	/experiments/Knapen_AOT/AOT_stimuli/pictures/0723_fw.png	117.40568614006042	
57	56.30049705505371	picture	0		81	55.0	/experiments/Knapen_AOT/AOT_stimuli/pictures/1072_fw.png	117.4221704006195	0.683356523513794
57	56.96746563911438	response	0	k		55.0	/experiments/Knapen_AOT/AOT_stimuli/pictures/1072_fw.png	118.08913898468018	
58	56.983853578567505	picture	0		87	56.0	/experiments/Knapen_AOT/AOT_stimuli/pictures/1559_fw.png	118.1055269241333	0.7292807102203369
58	57.70071887969971	response	0	j		56.0	/experiments/Knapen_AOT/AOT_stimuli/pictures/1559_fw.png	118.8223922252655	
59	57.71313428878784	picture	0		88	57.0	/experiments/Knapen_AOT/AOT_stimuli/pictures/0611_fw.png	118.83480763435364	0.7291445732116699
59	58.43401527404785	response	0	k		57.0	/experiments/Knapen_AOT/AOT_stimuli/pictures/0611_fw.png	119.55568861961365	
60	58.44227886199951	picture	0		94	58.0	/experiments/Knapen_AOT/AOT_stimuli/pictures/1167_fw.png	119.56395220756531	0.7847027778625488
60	59.217411279678345	response	0	j		58.0	/experiments/Knapen_AOT/AOT_stimuli/pictures/1167_fw.png	120.33908462524414	
61	59.22698163986206	picture	0		87	59.0	/experiments/Knapen_AOT/AOT_stimuli/pictures/1878_fw.png	120.34865498542786	0.7318673133850098
61	59.94274425506592	response	0	j		59.0	/experiments/Knapen_AOT/AOT_stimuli/pictures/1878_fw.png	121.06441760063171	
62	59.95884895324707	picture	0		77	60.0	/experiments/Knapen_AOT/AOT_stimuli/pictures/1327_fw.png	121.08052229881287	0.6500246524810791
62	60.59241819381714	response	0	j		60.0	/experiments/Knapen_AOT/AOT_stimuli/pictures/1327_fw.png	121.71409153938293	
63	60.60887360572815	picture	0		86	61.0	/experiments/Knapen_AOT/AOT_stimuli/pictures/0078_fw.png	121.73054695129395	0.7249853610992432
63	61.31739139556885	response	0	k		61.0	/experiments/Knapen_AOT/AOT_stimuli/pictures/0078_fw.png	122.43906474113464	
64	61.33385896682739	picture	0		83	62.0	/experiments/Knapen_AOT/AOT_stimuli/pictures/1128_fw.png	122.45553231239319	0.6999843120574951
64	62.01736259460449	response	0	k		62.0	/experiments/Knapen_AOT/AOT_stimuli/pictures/1128_fw.png	123.13903594017029	
65	62.03384327888489	picture	0		96	63.0	/experiments/Knapen_AOT/AOT_stimuli/pictures/0256_fw.png	123.15551662445068	0.8083224296569824
65	62.825746297836304	response	0	k		63.0	/experiments/Knapen_AOT/AOT_stimuli/pictures/0256_fw.png	123.9474196434021	
66	62.84216570854187	picture	0		76	64.0	/experiments/Knapen_AOT/AOT_stimuli/pictures/1286_fw.png	123.96383905410767	0.6348216533660889
66	63.46741342544556	response	0	k		64.0	/experiments/Knapen_AOT/AOT_stimuli/pictures/1286_fw.png	124.58908677101135	
67	63.47698736190796	picture	0		90	65.0	/experiments/Knapen_AOT/AOT_stimuli/pictures/0743_fw.png	124.59866070747375	0.7570171356201172
67	64.21747779846191	response	0	j		65.0	/experiments/Knapen_AOT/AOT_stimuli/pictures/0743_fw.png	125.33915114402771	
68	64.23400449752808	picture	0		77	66.0	/experiments/Knapen_AOT/AOT_stimuli/pictures/1446_fw.png	125.35567784309387	0.645775556564331
68	64.86736178398132	response	0	k		66.0	/experiments/Knapen_AOT/AOT_stimuli/pictures/1446_fw.png	125.98903512954712	
69	64.87978005409241	picture	0		140	67.0	/experiments/Knapen_AOT/AOT_stimuli/pictures/0994_fw.png	126.0014533996582	1.1666593551635742
69	66.03404211997986	response	0	j		67.0	/experiments/Knapen_AOT/AOT_stimuli/pictures/0994_fw.png	127.15571546554565	
70	66.04643940925598	picture	0		110	68.0	/experiments/Knapen_AOT/AOT_stimuli/pictures/2079_fw.png	127.16811275482178	0.9166402816772461
70	66.94353818893433	response	0	j		68.0	/experiments/Knapen_AOT/AOT_stimuli/pictures/2079_fw.png	128.06521153450012	
71	66.96307969093323	picture	0		71	69.0	/experiments/Knapen_AOT/AOT_stimuli/pictures/1622_fw.png	128.08475303649902	0.590320348739624
71	67.54238653182983	response	0	j		69.0	/experiments/Knapen_AOT/AOT_stimuli/pictures/1622_fw.png	128.66405987739563	
72	67.55340003967285	picture	0		95	70.0	/experiments/Knapen_AOT/AOT_stimuli/pictures/0767_fw.png	128.67507338523865	0.7916383743286133
72	68.33404278755188	response	0	k		70.0	/experiments/Knapen_AOT/AOT_stimuli/pictures/0767_fw.png	129.45571613311768	
73	68.34503841400146	picture	0		84	71.0	/experiments/Knapen_AOT/AOT_stimuli/pictures/0098_fw.png	129.46671175956726	0.7013733386993408
73	69.03414392471313	response	0	k		71.0	/experiments/Knapen_AOT/AOT_stimuli/pictures/0098_fw.png	130.15581727027893	
74	69.0464117527008	picture	0		87	72.0	/experiments/Knapen_AOT/AOT_stimuli/pictures/2045_fw.png	130.1680850982666	0.7222380638122559
74	69.75249910354614	response	0	k		72.0	/experiments/Knapen_AOT/AOT_stimuli/pictures/2045_fw.png	130.87417244911194	
75	69.76864981651306	picture	0		77	73.0	/experiments/Knapen_AOT/AOT_stimuli/pictures/0161_fw.png	130.89032316207886	0.6458232402801514
75	70.40086436271667	response	0	j		73.0	/experiments/Knapen_AOT/AOT_stimuli/pictures/0161_fw.png	131.52253770828247	
76	70.41447305679321	picture	0		86	74.0	/experiments/Knapen_AOT/AOT_stimuli/pictures/0316_fw.png	131.536146402359	0.7277224063873291
76	71.12599229812622	response	0	k		74.0	/experiments/Knapen_AOT/AOT_stimuli/pictures/0316_fw.png	132.24766564369202	
77	71.14219546318054	picture	0		114	75.0	/experiments/Knapen_AOT/AOT_stimuli/pictures/1357_fw.png	132.26386880874634	0.952843189239502
77	72.08408665657043	response	0	j		75.0	/experiments/Knapen_AOT/AOT_stimuli/pictures/1357_fw.png	133.20576000213623	
78	72.09503865242004	picture	0		118	76.0	/experiments/Knapen_AOT/AOT_stimuli/pictures/2168_fw.png	133.21671199798584	0.9861140251159668
78	73.0676338672638	response	0	k		76.0	/experiments/Knapen_AOT/AOT_stimuli/pictures/2168_fw.png	134.1893072128296	
79	73.08115267753601	picture	0		86	77.0	/experiments/Knapen_AOT/AOT_stimuli/pictures/1789_fw.png	134.2028260231018	0.7222456932067871
79	73.79242634773254	response	0	j		77.0	/experiments/Knapen_AOT/AOT_stimuli/pictures/1789_fw.png	134.91409969329834	
80	73.8033983707428	picture	0		81	78.0	/experiments/Knapen_AOT/AOT_stimuli/pictures/1785_fw.png	134.9250717163086	0.6805858612060547
80	74.4675018787384	response	0	k		78.0	/experiments/Knapen_AOT/AOT_stimuli/pictures/1785_fw.png	135.5891752243042	
81	74.48398423194885	picture	0		71	79.0	/experiments/Knapen_AOT/AOT_stimuli/pictures/0087_fw.png	135.60565757751465	0.5971496105194092
81	75.06744074821472	response	0	k		79.0	/experiments/Knapen_AOT/AOT_stimuli/pictures/0087_fw.png	136.18911409378052	
82	75.08113384246826	picture	0		101	80.0	/experiments/Knapen_AOT/AOT_stimuli/pictures/1138_fw.png	136.20280718803406	0.8472986221313477
82	75.91745638847351	response	0	j		80.0	/experiments/Knapen_AOT/AOT_stimuli/pictures/1138_fw.png	137.0391297340393	
83	75.92843246459961	picture	0		144	81.0	/experiments/Knapen_AOT/AOT_stimuli/pictures/0683_fw.png	137.0501058101654	1.2013332843780518
83	77.11744046211243	response	0	k		81.0	/experiments/Knapen_AOT/AOT_stimuli/pictures/0683_fw.png	138.23911380767822	
84	77.12976574897766	picture	0		115	82.0	/experiments/Knapen_AOT/AOT_stimuli/pictures/0826_fw.png	138.25143909454346	0.9583382606506348
84	78.07574510574341	response	0	k		82.0	/experiments/Knapen_AOT/AOT_stimuli/pictures/0826_fw.png	139.1974184513092	
85	78.0881040096283	picture	0		83	83.0	/experiments/Knapen_AOT/AOT_stimuli/pictures/1983_fw.png	139.2097773551941	0.6957917213439941
85	78.76741194725037	response	0	k		83.0	/experiments/Knapen_AOT/AOT_stimuli/pictures/1983_fw.png	139.88908529281616	
86	78.78389573097229	picture	0		77	84.0	/experiments/Knapen_AOT/AOT_stimuli/pictures/0224_fw.png	139.9055690765381	0.6500053405761719
86	79.41746616363525	response	0	j		84.0	/experiments/Knapen_AOT/AOT_stimuli/pictures/0224_fw.png	140.53913950920105	
87	79.43390107154846	picture	0		86	85.0	/experiments/Knapen_AOT/AOT_stimuli/pictures/0908_fw.png	140.55557441711426	0.7250010967254639
87	80.14271378517151	response	0	k		85.0	/experiments/Knapen_AOT/AOT_stimuli/pictures/0908_fw.png	141.2643871307373	
88	80.15890216827393	picture	0		89	86.0	/experiments/Knapen_AOT/AOT_stimuli/pictures/0363_fw.png	141.28057551383972	0.7419652938842773
88	80.89241480827332	response	0	j		86.0	/experiments/Knapen_AOT/AOT_stimuli/pictures/0363_fw.png	142.0140881538391	
89	80.9008674621582	picture	0		99	87.0	/experiments/Knapen_AOT/AOT_stimuli/pictures/1317_fw.png	142.022540807724	0.8260645866394043
89	81.71756029129028	response	0	j		87.0	/experiments/Knapen_AOT/AOT_stimuli/pictures/1317_fw.png	142.83923363685608	
90	81.72693204879761	picture	0		80	88.0	/experiments/Knapen_AOT/AOT_stimuli/pictures/0006_fw.png	142.8486053943634	0.6737103462219238
90	82.3843719959259	response	0	j		88.0	/experiments/Knapen_AOT/AOT_stimuli/pictures/0006_fw.png	143.5060453414917	
91	82.40064239501953	picture	0		81	89.0	/experiments/Knapen_AOT/AOT_stimuli/pictures/0357_fw.png	143.52231574058533	0.6804594993591309
91	83.06742644309998	response	0	k		89.0	/experiments/Knapen_AOT/AOT_stimuli/pictures/0357_fw.png	144.18909978866577	
92	83.08110189437866	picture	0		88	90.0	/experiments/Knapen_AOT/AOT_stimuli/pictures/0049_fw.png	144.20277523994446	0.7361447811126709
92	83.80933117866516	response	0	k		90.0	/experiments/Knapen_AOT/AOT_stimuli/pictures/0049_fw.png	144.93100452423096	
93	83.81724667549133	picture	0		104	91.0	/experiments/Knapen_AOT/AOT_stimuli/pictures/1956_fw.png	144.93892002105713	0.868034839630127
93	84.67585372924805	response	0	k		91.0	/experiments/Knapen_AOT/AOT_stimuli/pictures/1956_fw.png	145.79752707481384	
94	84.68528151512146	picture	0		95	92.0	/experiments/Knapen_AOT/AOT_stimuli/pictures/1047_fw.png	145.80695486068726	0.7916779518127441
94	85.46743035316467	response	0	k		92.0	/experiments/Knapen_AOT/AOT_stimuli/pictures/1047_fw.png	146.58910369873047	
95	85.4769594669342	picture	0		81	93.0	/experiments/Knapen_AOT/AOT_stimuli/pictures/0327_fw.png	146.5986328125	0.673713207244873
95	86.13542675971985	response	0	j		93.0	/experiments/Knapen_AOT/AOT_stimuli/pictures/0327_fw.png	147.25710010528564	
96	86.15067267417908	picture	0		95	94.0	/experiments/Knapen_AOT/AOT_stimuli/pictures/1163_fw.png	147.27234601974487	0.7916111946105957
96	86.92757940292358	response	0	k		94.0	/experiments/Knapen_AOT/AOT_stimuli/pictures/1163_fw.png	148.04925274848938	
97	86.94228386878967	picture	0		103	95.0	/experiments/Knapen_AOT/AOT_stimuli/pictures/1899_fw.png	148.06395721435547	0.8610725402832031
97	87.79249572753906	response	0	k		95.0	/experiments/Knapen_AOT/AOT_stimuli/pictures/1899_fw.png	148.91416907310486	
98	87.80335640907288	picture	0		95	96.0	/experiments/Knapen_AOT/AOT_stimuli/pictures/1389_fw.png	148.92502975463867	0.7972261905670166
98	88.58423614501953	response	0	j		96.0	/experiments/Knapen_AOT/AOT_stimuli/pictures/1389_fw.png	149.70590949058533	
99	88.60058259963989	picture	0		80	97.0	/experiments/Knapen_AOT/AOT_stimuli/pictures/1964_fw.png	149.7222559452057	0.6751844882965088
99	89.25930428504944	response	0	k		97.0	/experiments/Knapen_AOT/AOT_stimuli/pictures/1964_fw.png	150.38097763061523	
100	89.2757670879364	picture	0		102	98.0	/experiments/Knapen_AOT/AOT_stimuli/pictures/0122_fw.png	150.3974404335022	0.8581869602203369
100	90.1174750328064	response	0	k		98.0	/experiments/Knapen_AOT/AOT_stimuli/pictures/0122_fw.png	151.2391483783722	
101	90.13395404815674	picture	0		75	99.0	/experiments/Knapen_AOT/AOT_stimuli/pictures/0878_fw.png	151.25562739372253	0.6333301067352295
101	90.75115752220154	response	0	j		99.0	/experiments/Knapen_AOT/AOT_stimuli/pictures/0878_fw.png	151.87283086776733	
102	90.76728415489197	picture	0		79	100.0	/experiments/Knapen_AOT/AOT_stimuli/pictures/1961_fw.png	151.88895750045776	0.6610908508300781
102	91.41745185852051	response	0	k		100.0	/experiments/Knapen_AOT/AOT_stimuli/pictures/1961_fw.png	152.5391252040863	
103	91.42837500572205	picture	0		94	101.0	/experiments/Knapen_AOT/AOT_stimuli/pictures/0457_fw.png	152.55004835128784	0.7889115810394287
103	92.20105934143066	response	0	k		101.0	/experiments/Knapen_AOT/AOT_stimuli/pictures/0457_fw.png	153.32273268699646	
104	92.21728658676147	picture	0		157	102.0	/experiments/Knapen_AOT/AOT_stimuli/pictures/1729_fw.png	153.33895993232727	1.3166792392730713
104	93.5173978805542	response	0	j		102.0	/experiments/Knapen_AOT/AOT_stimuli/pictures/1729_fw.png	154.63907122612	
105	93.53396582603455	picture	0		79	103.0	/experiments/Knapen_AOT/AOT_stimuli/pictures/1458_fw.png	154.65563917160034	0.658315896987915
105	94.18404412269592	response	0	k		103.0	/experiments/Knapen_AOT/AOT_stimuli/pictures/1458_fw.png	155.30571746826172	
106	94.19228172302246	picture	0		91	104.0	/experiments/Knapen_AOT/AOT_stimuli/pictures/2165_fw.png	155.31395506858826	0.7638018131256104
106	94.9351167678833	response	0	j		104.0	/experiments/Knapen_AOT/AOT_stimuli/pictures/2165_fw.png	156.0567901134491	
107	94.95608353614807	picture	0		96	105.0	/experiments/Knapen_AOT/AOT_stimuli/pictures/1981_fw.png	156.07775688171387	0.8055367469787598
107	95.74348092079163	response	0	j		105.0	/experiments/Knapen_AOT/AOT_stimuli/pictures/1981_fw.png	156.86515426635742	
108	95.76162028312683	picture	0		77	106.0	/experiments/Knapen_AOT/AOT_stimuli/pictures/0404_fw.png	156.88329362869263	0.6473231315612793
108	96.39238095283508	response	0	j		106.0	/experiments/Knapen_AOT/AOT_stimuli/pictures/0404_fw.png	157.51405429840088	
109	96.40894341468811	picture	0		79	107.0	/experiments/Knapen_AOT/AOT_stimuli/pictures/0153_fw.png	157.5306167602539	0.6583096981048584
109	97.05905199050903	response	0	j		107.0	/experiments/Knapen_AOT/AOT_stimuli/pictures/0153_fw.png	158.18072533607483	
110	97.06725311279297	picture	0		148	108.0	/experiments/Knapen_AOT/AOT_stimuli/pictures/0648_fw.png	158.18892645835876	1.2360446453094482
110	98.29241514205933	response	0	k		108.0	/experiments/Knapen_AOT/AOT_stimuli/pictures/0648_fw.png	159.41408848762512	
111	98.30329775810242	picture	0		79	109.0	/experiments/Knapen_AOT/AOT_stimuli/pictures/2020_fw.png	159.4249711036682	0.663994312286377
111	98.94311714172363	response	0	j		109.0	/experiments/Knapen_AOT/AOT_stimuli/pictures/2020_fw.png	160.06479048728943	
112	98.9672920703888	picture	0		73	110.0	/experiments/Knapen_AOT/AOT_stimuli/pictures/1859_fw.png	160.0889654159546	0.6137678623199463
112	99.56746292114258	response	0	k		110.0	/experiments/Knapen_AOT/AOT_stimuli/pictures/1859_fw.png	160.68913626670837	
113	99.58105993270874	picture	0		77	111.0	/experiments/Knapen_AOT/AOT_stimuli/pictures/1846_fw.png	160.70273327827454	0.6458168029785156
113	100.21753168106079	response	0	j		111.0	/experiments/Knapen_AOT/AOT_stimuli/pictures/1846_fw.png	161.3392050266266	
114	100.22687673568726	picture	0		146	112.0	/experiments/Knapen_AOT/AOT_stimuli/pictures/0300_fw.png	161.34855008125305	1.215390682220459
114	101.4341766834259	response	0	j		112.0	/experiments/Knapen_AOT/AOT_stimuli/pictures/0300_fw.png	162.5558500289917	
115	101.44226741790771	picture	0		78	113.0	/experiments/Knapen_AOT/AOT_stimuli/pictures/0094_fw.png	162.5639407634735	0.6527957916259766
115	102.08429145812988	response	0	k		113.0	/experiments/Knapen_AOT/AOT_stimuli/pictures/0094_fw.png	163.20596480369568	
116	102.09506320953369	picture	0		93	114.0	/experiments/Knapen_AOT/AOT_stimuli/pictures/0667_fw.png	163.2167365550995	0.7776813507080078
116	102.8591845035553	response	0	j		114.0	/experiments/Knapen_AOT/AOT_stimuli/pictures/0667_fw.png	163.9808578491211	
117	102.8727445602417	picture	0		137	115.0	/experiments/Knapen_AOT/AOT_stimuli/pictures/1652_fw.png	163.9944179058075	1.1458408832550049
117	104.00922131538391	response	0	j		115.0	/experiments/Knapen_AOT/AOT_stimuli/pictures/1652_fw.png	165.1308946609497	
118	104.0185854434967	picture	0		81	116.0	/experiments/Knapen_AOT/AOT_stimuli/pictures/0150_fw.png	165.1402587890625	0.6736886501312256
118	104.68426322937012	response	0	k		116.0	/experiments/Knapen_AOT/AOT_stimuli/pictures/0150_fw.png	165.8059365749359	
119	104.69227409362793	picture	0		94	117.0	/experiments/Knapen_AOT/AOT_stimuli/pictures/2155_fw.png	165.81394743919373	0.7846083641052246
119	105.46750664710999	response	0	k		117.0	/experiments/Knapen_AOT/AOT_stimuli/pictures/2155_fw.png	166.58917999267578	
120	105.47688245773315	picture	0		83	118.0	/experiments/Knapen_AOT/AOT_stimuli/pictures/0959_fw.png	166.59855580329895	0.6988098621368408
120	106.15919971466064	response	0	j		118.0	/experiments/Knapen_AOT/AOT_stimuli/pictures/0959_fw.png	167.28087306022644	
121	106.17569231987	picture	0		68	119.0	/experiments/Knapen_AOT/AOT_stimuli/pictures/0777_fw.png	167.2973656654358	0.5720605850219727
121	106.73414611816406	response	0	k		119.0	/experiments/Knapen_AOT/AOT_stimuli/pictures/0777_fw.png	167.85581946372986	
122	106.74775290489197	picture	0		113	120.0	/experiments/Knapen_AOT/AOT_stimuli/pictures/0915_fw.png	167.86942625045776	0.9445328712463379
122	107.68420386314392	response	0	j		120.0	/experiments/Knapen_AOT/AOT_stimuli/pictures/0915_fw.png	168.80587720870972	
123	107.6922857761383	picture	0		76	121.0	/experiments/Knapen_AOT/AOT_stimuli/pictures/0802_fw.png	168.8139591217041	0.6417186260223389
123	108.31768369674683	response	0	k		121.0	/experiments/Knapen_AOT/AOT_stimuli/pictures/0802_fw.png	169.43935704231262	
124	108.33400440216064	picture	0		78	122.0	/experiments/Knapen_AOT/AOT_stimuli/pictures/0519_fw.png	169.45567774772644	0.6583449840545654
124	108.97614359855652	response	0	j		122.0	/experiments/Knapen_AOT/AOT_stimuli/pictures/0519_fw.png	170.09781694412231	
125	108.99234938621521	picture	0		68	123.0	/experiments/Knapen_AOT/AOT_stimuli/pictures/0620_fw.png	170.114022731781	0.5679361820220947
125	109.55093717575073	response	0	j		123.0	/experiments/Knapen_AOT/AOT_stimuli/pictures/0620_fw.png	170.67261052131653	
126	109.5602855682373	picture	0		94	124.0	/experiments/Knapen_AOT/AOT_stimuli/pictures/0740_fw.png	170.6819589138031	0.7846436500549316
126	110.32708835601807	response	0	j		124.0	/experiments/Knapen_AOT/AOT_stimuli/pictures/0740_fw.png	171.44876170158386	
127	110.34492921829224	picture	0		91	125.0	/experiments/Knapen_AOT/AOT_stimuli/pictures/0175_fw.png	171.46660256385803	0.756993293762207
127	111.09253644943237	response	0	k		125.0	/experiments/Knapen_AOT/AOT_stimuli/pictures/0175_fw.png	172.21420979499817	
128	111.10192251205444	picture	0		79	126.0	/experiments/Knapen_AOT/AOT_stimuli/pictures/2173_fw.png	172.22359585762024	0.6597285270690918
128	111.74449944496155	response	0	j		126.0	/experiments/Knapen_AOT/AOT_stimuli/pictures/2173_fw.png	172.86617279052734	
129	111.76165103912354	picture	0		92	127.0	/experiments/Knapen_AOT/AOT_stimuli/pictures/1676_fw.png	172.88332438468933	0.7640197277069092
129	112.51752209663391	response	0	j		127.0	/experiments/Knapen_AOT/AOT_stimuli/pictures/1676_fw.png	173.6391954421997	
130	112.52567076683044	picture	0		71	128.0	/experiments/Knapen_AOT/AOT_stimuli/pictures/1852_fw.png	173.64734411239624	0.6000559329986572
130	113.10944390296936	response	0	j		128.0	/experiments/Knapen_AOT/AOT_stimuli/pictures/1852_fw.png	174.23111724853516	
131	113.1257266998291	picture	0		73	129.0	/experiments/Knapen_AOT/AOT_stimuli/pictures/1616_fw.png	174.2474000453949	0.6082777976989746
131	113.71890783309937	response	0	j		129.0	/experiments/Knapen_AOT/AOT_stimuli/pictures/1616_fw.png	174.84058117866516	
132	113.73400449752808	picture	0		74	130.0	/experiments/Knapen_AOT/AOT_stimuli/pictures/1920_fw.png	174.85567784309387	0.617912769317627
132	114.33496809005737	response	0	j		130.0	/experiments/Knapen_AOT/AOT_stimuli/pictures/1920_fw.png	175.45664143562317	
133	114.3519172668457	picture	0		115	131.0	/experiments/Knapen_AOT/AOT_stimuli/pictures/0567_fw.png	175.4735906124115	0.9655992984771729
133	115.30094742774963	response	0	j		131.0	/experiments/Knapen_AOT/AOT_stimuli/pictures/0567_fw.png	176.42262077331543	
134	115.31751656532288	picture	0		73	132.0	/experiments/Knapen_AOT/AOT_stimuli/pictures/0231_fw.png	176.43918991088867	0.6165423393249512
134	115.91760301589966	response	0	j		132.0	/experiments/Knapen_AOT/AOT_stimuli/pictures/0231_fw.png	177.03927636146545	
135	115.93405890464783	picture	0		70	133.0	/experiments/Knapen_AOT/AOT_stimuli/pictures/2113_fw.png	177.05573225021362	0.5916740894317627
135	116.50952672958374	response	0	j		133.0	/experiments/Knapen_AOT/AOT_stimuli/pictures/2113_fw.png	177.63120007514954	
136	116.52573299407959	picture	0		92	134.0	/experiments/Knapen_AOT/AOT_stimuli/pictures/1698_fw.png	177.64740633964539	0.7750353813171387
136	117.28425741195679	response	0	k		134.0	/experiments/Knapen_AOT/AOT_stimuli/pictures/1698_fw.png	178.40593075752258	
137	117.30076837539673	picture	0		186	135.0	/experiments/Knapen_AOT/AOT_stimuli/pictures/1731_fw.png	178.42244172096252	1.558333158493042
137	118.84267067909241	response	0	j		135.0	/experiments/Knapen_AOT/AOT_stimuli/pictures/1731_fw.png	179.9643440246582	
138	118.85910153388977	picture	0		94	136.0	/experiments/Knapen_AOT/AOT_stimuli/pictures/0306_fw.png	179.98077487945557	0.791649341583252
138	119.63425731658936	response	0	j		136.0	/experiments/Knapen_AOT/AOT_stimuli/pictures/0306_fw.png	180.75593066215515	
139	119.65075087547302	picture	0		75	137.0	/experiments/Knapen_AOT/AOT_stimuli/pictures/1579_fw.png	180.77242422103882	0.6333675384521484
139	120.26768136024475	response	0	j		137.0	/experiments/Knapen_AOT/AOT_stimuli/pictures/1579_fw.png	181.38935470581055	
140	120.28411841392517	picture	0		99	138.0	/experiments/Knapen_AOT/AOT_stimuli/pictures/0223_fw.png	181.40579175949097	0.8333292007446289
140	121.10217213630676	response	0	k		138.0	/experiments/Knapen_AOT/AOT_stimuli/pictures/0223_fw.png	182.22384548187256	
141	121.1174476146698	picture	0		92	139.0	/experiments/Knapen_AOT/AOT_stimuli/pictures/0159_fw.png	182.2391209602356	0.775015115737915
141	121.87597227096558	response	0	k		139.0	/experiments/Knapen_AOT/AOT_stimuli/pictures/0159_fw.png	182.99764561653137	
142	121.89246273040771	picture	0		65	140.0	/experiments/Knapen_AOT/AOT_stimuli/pictures/1511_fw.png	183.0141360759735	0.5428061485290527
142	122.42609977722168	response	0	j		140.0	/experiments/Knapen_AOT/AOT_stimuli/pictures/1511_fw.png	183.54777312278748	
143	122.43526887893677	picture	0		115	141.0	/experiments/Knapen_AOT/AOT_stimuli/pictures/1246_fw.png	183.55694222450256	0.9655272960662842
143	123.38432383537292	response	0	k		141.0	/experiments/Knapen_AOT/AOT_stimuli/pictures/1246_fw.png	184.50599718093872	
144	123.40079617500305	picture	0		81	142.0	/experiments/Knapen_AOT/AOT_stimuli/pictures/0797_fw.png	184.52246952056885	0.6803302764892578
144	124.06765151023865	response	0	j		142.0	/experiments/Knapen_AOT/AOT_stimuli/pictures/0797_fw.png	185.18932485580444	
145	124.08112645149231	picture	0		75	143.0	/experiments/Knapen_AOT/AOT_stimuli/pictures/1394_fw.png	185.2027997970581	0.6364274024963379
145	124.70103716850281	response	0	j		143.0	/experiments/Knapen_AOT/AOT_stimuli/pictures/1394_fw.png	185.8227105140686	
146	124.71755385398865	picture	0		92	144.0	/experiments/Knapen_AOT/AOT_stimuli/pictures/1923_fw.png	185.83922719955444	0.7749574184417725
146	125.47602725028992	response	0	k		144.0	/experiments/Knapen_AOT/AOT_stimuli/pictures/1923_fw.png	186.5977005958557	
147	125.49251127243042	picture	0		90	145.0	/experiments/Knapen_AOT/AOT_stimuli/pictures/0617_fw.png	186.61418461799622	0.7583580017089844
147	126.23437571525574	response	0	j		145.0	/experiments/Knapen_AOT/AOT_stimuli/pictures/0617_fw.png	187.35604906082153	
148	126.2508692741394	picture	0		79	146.0	/experiments/Knapen_AOT/AOT_stimuli/pictures/1977_fw.png	187.3725426197052	0.6636521816253662
148	126.9010238647461	response	0	k		146.0	/experiments/Knapen_AOT/AOT_stimuli/pictures/1977_fw.png	188.0226972103119	
149	126.91452145576477	picture	0		106	147.0	/experiments/Knapen_AOT/AOT_stimuli/pictures/0297_fw.png	188.03619480133057	0.8888416290283203
149	127.7927086353302	response	0	k		147.0	/experiments/Knapen_AOT/AOT_stimuli/pictures/0297_fw.png	188.914381980896	
150	127.80336308479309	picture	0		85	148.0	/experiments/Knapen_AOT/AOT_stimuli/pictures/2073_fw.png	188.9250364303589	0.7083995342254639
150	128.50107669830322	response	0	k		148.0	/experiments/Knapen_AOT/AOT_stimuli/pictures/2073_fw.png	189.62275004386902	
151	128.51176261901855	picture	0		74	149.0	/experiments/Knapen_AOT/AOT_stimuli/pictures/0705_fw.png	189.63343596458435	0.6180260181427002
151	129.1177716255188	response	0	j		149.0	/experiments/Knapen_AOT/AOT_stimuli/pictures/0705_fw.png	190.2394449710846	
152	129.12978863716125	picture	0		78	150.0	/experiments/Knapen_AOT/AOT_stimuli/pictures/1429_fw.png	190.25146198272705	0.654475212097168
152	129.7679305076599	response	0	j		150.0	/experiments/Knapen_AOT/AOT_stimuli/pictures/1429_fw.png	190.8896038532257	
153	129.78426384925842	picture	0		97	151.0	/experiments/Knapen_AOT/AOT_stimuli/pictures/0236_fw.png	190.90593719482422	0.8166158199310303
153	130.58444166183472	response	0	k		151.0	/experiments/Knapen_AOT/AOT_stimuli/pictures/0236_fw.png	191.7061150074005	
154	130.60087966918945	picture	0		155	152.0	/experiments/Knapen_AOT/AOT_stimuli/pictures/1166_fw.png	191.72255301475525	1.292945146560669
154	131.8844256401062	response	0	k		152.0	/experiments/Knapen_AOT/AOT_stimuli/pictures/1166_fw.png	193.006098985672	
155	131.89382481575012	picture	0		129	153.0	/experiments/Knapen_AOT/AOT_stimuli/pictures/1070_fw.png	193.01549816131592	1.0820891857147217
155	132.95945858955383	response	0	j		153.0	/experiments/Knapen_AOT/AOT_stimuli/pictures/1070_fw.png	194.08113193511963	
156	132.97591400146484	picture	0		87	154.0	/experiments/Knapen_AOT/AOT_stimuli/pictures/0321_fw.png	194.09758734703064	0.7302746772766113
156	133.692964553833	response	0	k		154.0	/experiments/Knapen_AOT/AOT_stimuli/pictures/0321_fw.png	194.8146378993988	
157	133.70618867874146	picture	0		86	155.0	/experiments/Knapen_AOT/AOT_stimuli/pictures/1612_fw.png	194.82786202430725	0.7280845642089844
157	134.41786360740662	response	0	k		155.0	/experiments/Knapen_AOT/AOT_stimuli/pictures/1612_fw.png	195.5395369529724	
158	134.43427324295044	picture	0		114	156.0	/experiments/Knapen_AOT/AOT_stimuli/pictures/0333_fw.png	195.55594658851624	0.9583442211151123
158	135.37607431411743	response	0	j		156.0	/experiments/Knapen_AOT/AOT_stimuli/pictures/0333_fw.png	196.49774765968323	
159	135.39261746406555	picture	0		86	157.0	/experiments/Knapen_AOT/AOT_stimuli/pictures/2027_fw.png	196.51429080963135	0.7250034809112549
159	136.10111832618713	response	0	j		157.0	/experiments/Knapen_AOT/AOT_stimuli/pictures/2027_fw.png	197.22279167175293	
160	136.1176209449768	picture	0		140	158.0	/experiments/Knapen_AOT/AOT_stimuli/pictures/0084_fw.png	197.2392942905426	1.17193603515625
160	137.27608394622803	response	0	k		158.0	/experiments/Knapen_AOT/AOT_stimuli/pictures/0084_fw.png	198.39775729179382	
161	137.28955698013306	picture	0		172	159.0	/experiments/Knapen_AOT/AOT_stimuli/pictures/1449_fw.png	198.41123032569885	1.4447658061981201
161	138.71782445907593	response	0	j		159.0	/experiments/Knapen_AOT/AOT_stimuli/pictures/1449_fw.png	199.83949780464172	
162	138.73432278633118	picture	0		80	160.0	/experiments/Knapen_AOT/AOT_stimuli/pictures/1254_fw.png	199.85599613189697	0.6666226387023926
162	139.3929545879364	response	0	k		160.0	/experiments/Knapen_AOT/AOT_stimuli/pictures/1254_fw.png	200.5146279335022	
163	139.40094542503357	picture	0		93	161.0	/experiments/Knapen_AOT/AOT_stimuli/pictures/2030_fw.png	200.52261877059937	0.7833828926086426
163	140.16804146766663	response	0	k		161.0	/experiments/Knapen_AOT/AOT_stimuli/pictures/2030_fw.png	201.28971481323242	
164	140.1843283176422	picture	0		78	162.0	/experiments/Knapen_AOT/AOT_stimuli/pictures/0647_fw.png	201.306001663208	0.6584484577178955
164	140.8262996673584	response	0	j		162.0	/experiments/Knapen_AOT/AOT_stimuli/pictures/0647_fw.png	201.9479730129242	
165	140.8427767753601	picture	0		86	163.0	/experiments/Knapen_AOT/AOT_stimuli/pictures/0283_fw.png	201.9644501209259	0.7177081108093262
165	141.55122208595276	response	0	k		163.0	/experiments/Knapen_AOT/AOT_stimuli/pictures/0283_fw.png	202.67289543151855	
166	141.56048488616943	picture	0		100	164.0	/experiments/Knapen_AOT/AOT_stimuli/pictures/1045_fw.png	202.68215823173523	0.8405191898345947
166	142.384596824646	response	0	j		164.0	/experiments/Knapen_AOT/AOT_stimuli/pictures/1045_fw.png	203.5062701702118	
167	142.40100407600403	picture	0		106	165.0	/experiments/Knapen_AOT/AOT_stimuli/pictures/1418_fw.png	203.52267742156982	0.8917827606201172
167	143.27619528770447	response	0	k		165.0	/experiments/Knapen_AOT/AOT_stimuli/pictures/1418_fw.png	204.39786863327026	
168	143.29278683662415	picture	0		83	166.0	/experiments/Knapen_AOT/AOT_stimuli/pictures/0697_fw.png	204.41446018218994	0.6999185085296631
168	143.97623133659363	response	0	k		166.0	/experiments/Knapen_AOT/AOT_stimuli/pictures/0697_fw.png	205.09790468215942	
169	143.9927053451538	picture	0		86	167.0	/experiments/Knapen_AOT/AOT_stimuli/pictures/0825_fw.png	205.1143786907196	0.7250280380249023
169	144.7012939453125	response	0	k		167.0	/experiments/Knapen_AOT/AOT_stimuli/pictures/0825_fw.png	205.8229672908783	
170	144.7177333831787	picture	0		104	168.0	/experiments/Knapen_AOT/AOT_stimuli/pictures/0572_fw.png	205.8394067287445	0.8704593181610107
170	145.57624316215515	response	0	k		168.0	/experiments/Knapen_AOT/AOT_stimuli/pictures/0572_fw.png	206.69791650772095	
171	145.58819270133972	picture	0		98	169.0	/experiments/Knapen_AOT/AOT_stimuli/pictures/1133_fw.png	206.70986604690552	0.8212130069732666
171	146.39290022850037	response	0	k		169.0	/experiments/Knapen_AOT/AOT_stimuli/pictures/1133_fw.png	207.51457357406616	
172	146.409405708313	picture	0		89	170.0	/experiments/Knapen_AOT/AOT_stimuli/pictures/0938_fw.png	207.53107905387878	0.7483704090118408
172	147.13543581962585	response	0	j		170.0	/experiments/Knapen_AOT/AOT_stimuli/pictures/0938_fw.png	208.25710916519165	
173	147.15777611732483	picture	0		101	171.0	/experiments/Knapen_AOT/AOT_stimuli/pictures/1231_fw.png	208.27944946289062	0.8471431732177734
173	147.99292039871216	response	0	j		171.0	/experiments/Knapen_AOT/AOT_stimuli/pictures/1231_fw.png	209.11459374427795	
174	148.0049192905426	picture	0		104	172.0	/experiments/Knapen_AOT/AOT_stimuli/pictures/1415_fw.png	209.1265926361084	0.8680393695831299
174	148.85963487625122	response	0	k		172.0	/experiments/Knapen_AOT/AOT_stimuli/pictures/1415_fw.png	209.98130822181702	
175	148.87295866012573	picture	0		117	173.0	/experiments/Knapen_AOT/AOT_stimuli/pictures/1869_fw.png	209.99463200569153	0.9864366054534912
175	149.8431990146637	response	0	j		173.0	/experiments/Knapen_AOT/AOT_stimuli/pictures/1869_fw.png	210.9648723602295	
176	149.85939526557922	picture	0		84	174.0	/experiments/Knapen_AOT/AOT_stimuli/pictures/1238_fw.png	210.98106861114502	0.7083473205566406
176	150.55127549171448	response	0	j		174.0	/experiments/Knapen_AOT/AOT_stimuli/pictures/1238_fw.png	211.67294883728027	
177	150.56774258613586	picture	0		85	175.0	/experiments/Knapen_AOT/AOT_stimuli/pictures/0057_fw.png	211.68941593170166	0.7166953086853027
177	151.26800441741943	response	0	k		175.0	/experiments/Knapen_AOT/AOT_stimuli/pictures/0057_fw.png	212.38967776298523	
178	151.28443789482117	picture	0		88	176.0	/experiments/Knapen_AOT/AOT_stimuli/pictures/0936_fw.png	212.40611124038696	0.741671085357666
178	152.00967741012573	response	0	k		176.0	/experiments/Knapen_AOT/AOT_stimuli/pictures/0936_fw.png	213.13135075569153	
179	152.02610898017883	picture	0		60	177.0	/experiments/Knapen_AOT/AOT_stimuli/pictures/1306_fw.png	213.14778232574463	0.6417174339294434
179	152.6515564918518	response	0	j		177.0	/experiments/Knapen_AOT/AOT_stimuli/pictures/1306_fw.png	213.7732298374176	
180	152.66782641410828	picture	0		92	178.0	/experiments/Knapen_AOT/AOT_stimuli/pictures/0749_fw.png	213.78949975967407	0.77500319480896
180	153.42636036872864	response	0	k		178.0	/experiments/Knapen_AOT/AOT_stimuli/pictures/0749_fw.png	214.54803371429443	
181	153.44282960891724	picture	0		143	179.0	/experiments/Knapen_AOT/AOT_stimuli/pictures/0796_fw.png	214.56450295448303	1.194037675857544
181	154.62643098831177	response	0	k		179.0	/experiments/Knapen_AOT/AOT_stimuli/pictures/0796_fw.png	215.74810433387756	
182	154.63686728477478	picture	0		93	180.0	/experiments/Knapen_AOT/AOT_stimuli/pictures/0483_fw.png	215.75854063034058	0.7809617519378662
182	155.40132474899292	response	0	j		180.0	/experiments/Knapen_AOT/AOT_stimuli/pictures/0483_fw.png	216.52299809455872	
183	155.41782903671265	picture	0		97	181.0	/experiments/Knapen_AOT/AOT_stimuli/pictures/0462_fw.png	216.53950238227844	0.8093197345733643
183	156.21798634529114	response	0	k		181.0	/experiments/Knapen_AOT/AOT_stimuli/pictures/0462_fw.png	217.33965969085693	
184	156.227148771286	picture	0		87	182.0	/experiments/Knapen_AOT/AOT_stimuli/pictures/0434_fw.png	217.3488221168518	0.7323901653289795
184	156.94314241409302	response	0	j		182.0	/experiments/Knapen_AOT/AOT_stimuli/pictures/0434_fw.png	218.0648157596588	
185	156.959538936615	picture	0		157	183.0	/experiments/Knapen_AOT/AOT_stimuli/pictures/0504_fw.png	218.0812122821808	1.309291124343872
185	158.25978446006775	response	0	k		183.0	/experiments/Knapen_AOT/AOT_stimuli/pictures/0504_fw.png	219.38145780563354	
186	158.26883006095886	picture	0		79	184.0	/experiments/Knapen_AOT/AOT_stimuli/pictures/0168_fw.png	219.39050340652466	0.6657016277313232
186	158.91807389259338	response	0	k		184.0	/experiments/Knapen_AOT/AOT_stimuli/pictures/0168_fw.png	220.03974723815918	
187	158.93453168869019	picture	0		146	185.0	/experiments/Knapen_AOT/AOT_stimuli/pictures/1349_fw.png	220.05620503425598	1.2250080108642578
187	160.14313435554504	response	0	j		185.0	/experiments/Knapen_AOT/AOT_stimuli/pictures/1349_fw.png	221.26480770111084	
188	160.15953969955444	picture	0		98	186.0	/experiments/Knapen_AOT/AOT_stimuli/pictures/0445_fw.png	221.28121304512024	0.8177464008331299
188	160.9680676460266	response	0	j		186.0	/experiments/Knapen_AOT/AOT_stimuli/pictures/0445_fw.png	222.0897409915924	
189	160.97728610038757	picture	0		87	187.0	/experiments/Knapen_AOT/AOT_stimuli/pictures/1025_fw.png	222.09895944595337	0.7323093414306641
189	161.6930844783783	response	0	k		187.0	/experiments/Knapen_AOT/AOT_stimuli/pictures/1025_fw.png	222.8147578239441	
190	161.70959544181824	picture	0		76	188.0	/experiments/Knapen_AOT/AOT_stimuli/pictures/1919_fw.png	222.83126878738403	0.6416490077972412
190	162.32719564437866	response	0	j		188.0	/experiments/Knapen_AOT/AOT_stimuli/pictures/1919_fw.png	223.44886898994446	
191	162.35124444961548	picture	0		120	189.0	/experiments/Knapen_AOT/AOT_stimuli/pictures/1518_fw.png	223.47291779518127	1.0082991123199463
191	163.3433334827423	response	0	k		189.0	/experiments/Knapen_AOT/AOT_stimuli/pictures/1518_fw.png	224.4650068283081	
192	163.35954356193542	picture	0		80	190.0	/experiments/Knapen_AOT/AOT_stimuli/pictures/0247_fw.png	224.48121690750122	0.6666610240936279
192	164.0180914402008	response	0	k		190.0	/experiments/Knapen_AOT/AOT_stimuli/pictures/0247_fw.png	225.1397647857666	
193	164.02620458602905	picture	0		96	191.0	/experiments/Knapen_AOT/AOT_stimuli/pictures/0130_fw.png	225.14787793159485	0.805131196975708
193	164.81807708740234	response	0	j		191.0	/experiments/Knapen_AOT/AOT_stimuli/pictures/0130_fw.png	225.93975043296814	
194	164.83133578300476	picture	0		93	192.0	/experiments/Knapen_AOT/AOT_stimuli/pictures/1034_fw.png	225.95300912857056	0.7847671508789062
194	165.6014711856842	response	0	j		192.0	/experiments/Knapen_AOT/AOT_stimuli/pictures/1034_fw.png	226.72314453125	
195	165.61610293388367	picture	0		72	193.0	/experiments/Knapen_AOT/AOT_stimuli/pictures/1010_fw.png	226.73777627944946	0.6102509498596191
195	166.20991897583008	response	0	j		193.0	/experiments/Knapen_AOT/AOT_stimuli/pictures/1010_fw.png	227.33159232139587	
196	166.2263538837433	picture	0		70	194.0	/experiments/Knapen_AOT/AOT_stimuli/pictures/1841_fw.png	227.34802722930908	0.5916056632995605
196	166.80150246620178	response	0	k		194.0	/experiments/Knapen_AOT/AOT_stimuli/pictures/1841_fw.png	227.92317581176758	
197	166.81795954704285	picture	0		120	195.0	/experiments/Knapen_AOT/AOT_stimuli/pictures/1473_fw.png	227.93963289260864	1.0064730644226074
197	167.80980825424194	response	0	k		195.0	/experiments/Knapen_AOT/AOT_stimuli/pictures/1473_fw.png	228.93148159980774	
198	167.82443261146545	picture	0		98	196.0	/experiments/Knapen_AOT/AOT_stimuli/pictures/1618_fw.png	228.94610595703125	0.8194382190704346
198	168.63479828834534	response	0	k		196.0	/experiments/Knapen_AOT/AOT_stimuli/pictures/1618_fw.png	229.75647163391113	
199	168.6438708305359	picture	0		86	197.0	/experiments/Knapen_AOT/AOT_stimuli/pictures/1957_fw.png	229.76554417610168	0.7222416400909424
199	169.35150289535522	response	0	k		197.0	/experiments/Knapen_AOT/AOT_stimuli/pictures/1957_fw.png	230.47317624092102	
200	169.36611247062683	picture	0		76	198.0	/experiments/Knapen_AOT/AOT_stimuli/pictures/1720_fw.png	230.48778581619263	0.6388928890228271
200	169.99316310882568	response	0	k		198.0	/experiments/Knapen_AOT/AOT_stimuli/pictures/1720_fw.png	231.11483645439148	
201	170.00500535964966	picture	0		78	199.0	/experiments/Knapen_AOT/AOT_stimuli/pictures/1362_fw.png	231.12667870521545	0.6528232097625732
201	170.6431634426117	response	0	k		199.0	/experiments/Knapen_AOT/AOT_stimuli/pictures/1362_fw.png	231.7648367881775	
202	170.65782856941223	picture	0		89	200.0	/experiments/Knapen_AOT/AOT_stimuli/pictures/1257_fw.png	231.77950191497803	0.751826286315918
202	171.393226146698	response	0	k		200.0	/experiments/Knapen_AOT/AOT_stimuli/pictures/1257_fw.png	232.5148994922638	
203	171.40965485572815	picture	0		77	201.0	/experiments/Knapen_AOT/AOT_stimuli/pictures/1689_fw.png	232.53132820129395	0.6500034332275391
203	172.04323935508728	response	0	j		201.0	/experiments/Knapen_AOT/AOT_stimuli/pictures/1689_fw.png	233.16491270065308	
204	172.0596582889557	picture	0		93	202.0	/experiments/Knapen_AOT/AOT_stimuli/pictures/0909_fw.png	233.18133163452148	0.7833480834960938
204	172.82651209831238	response	0	k		202.0	/experiments/Knapen_AOT/AOT_stimuli/pictures/0909_fw.png	233.94818544387817	
205	172.84300637245178	picture	0		106	203.0	/experiments/Knapen_AOT/AOT_stimuli/pictures/1546_fw.png	233.96467971801758	0.8842475414276123
205	173.71820187568665	response	0	j		203.0	/experiments/Knapen_AOT/AOT_stimuli/pictures/1546_fw.png	234.83987522125244	
206	173.7272539138794	picture	0		78	204.0	/experiments/Knapen_AOT/AOT_stimuli/pictures/0334_fw.png	234.8489272594452	0.652838945388794
206	174.3682188987732	response	0	j		204.0	/experiments/Knapen_AOT/AOT_stimuli/pictures/0334_fw.png	235.489892244339	
207	174.3800928592682	picture	0		111	205.0	/experiments/Knapen_AOT/AOT_stimuli/pictures/1871_fw.png	235.50176620483398	0.9295997619628906
207	175.29320621490479	response	0	j		205.0	/experiments/Knapen_AOT/AOT_stimuli/pictures/1871_fw.png	236.41487956047058	
208	175.30969262123108	picture	0		128	206.0	/experiments/Knapen_AOT/AOT_stimuli/pictures/1502_fw.png	236.43136596679688	1.075038194656372
208	176.36838722229004	response	0	k		206.0	/experiments/Knapen_AOT/AOT_stimuli/pictures/1502_fw.png	237.49006056785583	
209	176.38473081588745	picture	0		94	207.0	/experiments/Knapen_AOT/AOT_stimuli/pictures/1610_fw.png	237.50640416145325	0.7916653156280518
209	177.16021037101746	response	0	j		207.0	/experiments/Knapen_AOT/AOT_stimuli/pictures/1610_fw.png	238.28188371658325	
210	177.1763961315155	picture	0		106	208.0	/experiments/Knapen_AOT/AOT_stimuli/pictures/1277_fw.png	238.2980694770813	0.8842251300811768
210	178.051589012146	response	0	k		208.0	/experiments/Knapen_AOT/AOT_stimuli/pictures/1277_fw.png	239.1732623577118	
211	178.06062126159668	picture	0		98	209.0	/experiments/Knapen_AOT/AOT_stimuli/pictures/0874_fw.png	239.18229460716248	0.8194150924682617
211	178.86831784248352	response	0	j		209.0	/experiments/Knapen_AOT/AOT_stimuli/pictures/0874_fw.png	239.98999118804932	
212	178.88003635406494	picture	0		78	210.0	/experiments/Knapen_AOT/AOT_stimuli/pictures/0011_fw.png	240.00170969963074	0.6463344097137451
212	179.51097679138184	response	0	k		210.0	/experiments/Knapen_AOT/AOT_stimuli/pictures/0011_fw.png	240.63265013694763	
213	179.5263707637787	picture	0		96	211.0	/experiments/Knapen_AOT/AOT_stimuli/pictures/0213_fw.png	240.64804410934448	0.8051004409790039
213	180.31828689575195	response	0	k		211.0	/experiments/Knapen_AOT/AOT_stimuli/pictures/0213_fw.png	241.43996024131775	
214	180.3314712047577	picture	0		98	212.0	/experiments/Knapen_AOT/AOT_stimuli/pictures/1734_fw.png	241.4531445503235	0.8282914161682129
214	181.1432707309723	response	0	j		212.0	/experiments/Knapen_AOT/AOT_stimuli/pictures/1734_fw.png	242.2649440765381	
215	181.1597626209259	picture	0		70	213.0	/experiments/Knapen_AOT/AOT_stimuli/pictures/1581_fw.png	242.2814359664917	0.588371992111206
215	181.7275791168213	response	0	j		213.0	/experiments/Knapen_AOT/AOT_stimuli/pictures/1581_fw.png	242.84925246238708	
216	181.7481346130371	picture	0		75	214.0	/experiments/Knapen_AOT/AOT_stimuli/pictures/1802_fw.png	242.8698079586029	0.6366152763366699
216	182.3683316707611	response	0	j		214.0	/experiments/Knapen_AOT/AOT_stimuli/pictures/1802_fw.png	243.4900050163269	
217	182.38474988937378	picture	0		90	215.0	/experiments/Knapen_AOT/AOT_stimuli/pictures/0516_fw.png	243.50642323493958	0.7591967582702637
217	183.12705278396606	response	0	k		215.0	/experiments/Knapen_AOT/AOT_stimuli/pictures/0516_fw.png	244.24872612953186	
218	183.14394664764404	picture	0		110	216.0	/experiments/Knapen_AOT/AOT_stimuli/pictures/1396_fw.png	244.26561999320984	0.924149751663208
218	184.05168056488037	response	0	j		216.0	/experiments/Knapen_AOT/AOT_stimuli/pictures/1396_fw.png	245.17335391044617	
219	184.06809639930725	picture	0		129	217.0	/experiments/Knapen_AOT/AOT_stimuli/pictures/0110_fw.png	245.18976974487305	1.0833473205566406
219	185.13498950004578	response	0	k		217.0	/experiments/Knapen_AOT/AOT_stimuli/pictures/0110_fw.png	246.25666284561157	
220	185.1514437198639	picture	0		79	218.0	/experiments/Knapen_AOT/AOT_stimuli/pictures/0852_fw.png	246.2731170654297	0.6666855812072754
220	185.80181312561035	response	0	j		218.0	/experiments/Knapen_AOT/AOT_stimuli/pictures/0852_fw.png	246.92348647117615	
221	185.81812930107117	picture	0		74	219.0	/experiments/Knapen_AOT/AOT_stimuli/pictures/0010_fw.png	246.93980264663696	0.6250100135803223
221	186.42664098739624	response	0	k		219.0	/experiments/Knapen_AOT/AOT_stimuli/pictures/0010_fw.png	247.54831433296204	
222	186.4431393146515	picture	0		84	220.0	/experiments/Knapen_AOT/AOT_stimuli/pictures/2139_fw.png	247.56481266021729	0.7008647918701172
222	187.13498616218567	response	0	k		220.0	/experiments/Knapen_AOT/AOT_stimuli/pictures/2139_fw.png	248.25665950775146	
223	187.1440041065216	picture	0		196	221.0	/experiments/Knapen_AOT/AOT_stimuli/pictures/1929_fw.png	248.2656774520874	1.6408557891845703
223	188.76839900016785	response	0	k		221.0	/experiments/Knapen_AOT/AOT_stimuli/pictures/1929_fw.png	249.89007234573364	
224	188.78485989570618	picture	0		90	222.0	/experiments/Knapen_AOT/AOT_stimuli/pictures/1091_fw.png	249.90653324127197	0.758366584777832
224	189.5268943309784	response	0	k		222.0	/experiments/Knapen_AOT/AOT_stimuli/pictures/1091_fw.png	250.6485676765442	
225	189.543226480484	picture	0		125	223.0	/experiments/Knapen_AOT/AOT_stimuli/pictures/1767_fw.png	250.6648998260498	1.0452313423156738
225	190.57672786712646	response	0	j		223.0	/experiments/Knapen_AOT/AOT_stimuli/pictures/1767_fw.png	251.69840121269226	
226	190.58845782279968	picture	0		75	224.0	/experiments/Knapen_AOT/AOT_stimuli/pictures/0332_fw.png	251.71013116836548	0.6297225952148438
226	191.20171117782593	response	0	k		224.0	/experiments/Knapen_AOT/AOT_stimuli/pictures/0332_fw.png	252.32338452339172	
227	191.21818041801453	picture	0		91	225.0	/experiments/Knapen_AOT/AOT_stimuli/pictures/1434_fw.png	252.33985376358032	0.7591414451599121
227	191.96843433380127	response	0	j		225.0	/experiments/Knapen_AOT/AOT_stimuli/pictures/1434_fw.png	253.09010767936707	
228	191.97732186317444	picture	0		98	226.0	/experiments/Knapen_AOT/AOT_stimuli/pictures/0650_fw.png	253.09899520874023	0.8242318630218506
228	192.78509879112244	response	0	j		226.0	/experiments/Knapen_AOT/AOT_stimuli/pictures/0650_fw.png	253.90677213668823	
229	192.8015537261963	picture	0		78	227.0	/experiments/Knapen_AOT/AOT_stimuli/pictures/1658_fw.png	253.92322707176208	0.6549854278564453
229	193.44335007667542	response	0	j		227.0	/experiments/Knapen_AOT/AOT_stimuli/pictures/1658_fw.png	254.5650234222412	
230	193.45653915405273	picture	0		74	228.0	/experiments/Knapen_AOT/AOT_stimuli/pictures/0785_fw.png	254.57821249961853	0.6200416088104248
230	194.06003522872925	response	0	j		228.0	/experiments/Knapen_AOT/AOT_stimuli/pictures/0785_fw.png	255.18170857429504	
231	194.07658076286316	picture	0		67	229.0	/experiments/Knapen_AOT/AOT_stimuli/pictures/1842_fw.png	255.19825410842896	0.5666625499725342
231	194.6269130706787	response	0	j		229.0	/experiments/Knapen_AOT/AOT_stimuli/pictures/1842_fw.png	255.7485864162445	
232	194.6432433128357	picture	0		73	230.0	/experiments/Knapen_AOT/AOT_stimuli/pictures/0927_fw.png	255.7649166584015	0.6166882514953613
232	195.24352359771729	response	0	j		230.0	/experiments/Knapen_AOT/AOT_stimuli/pictures/0927_fw.png	256.3651969432831	
233	195.25993156433105	picture	0		82	231.0	/experiments/Knapen_AOT/AOT_stimuli/pictures/1340_fw.png	256.38160490989685	0.6896495819091797
233	195.935129404068	response	0	k		231.0	/experiments/Knapen_AOT/AOT_stimuli/pictures/1340_fw.png	257.0568027496338	
234	195.94958114624023	picture	0		84	232.0	/experiments/Knapen_AOT/AOT_stimuli/pictures/1827_fw.png	257.07125449180603	0.7103312015533447
234	196.64346480369568	response	0	j		232.0	/experiments/Knapen_AOT/AOT_stimuli/pictures/1827_fw.png	257.7651381492615	
235	196.65991234779358	picture	0		79	233.0	/experiments/Knapen_AOT/AOT_stimuli/pictures/1141_fw.png	257.7815856933594	0.666717529296875
235	197.31015944480896	response	0	k		233.0	/experiments/Knapen_AOT/AOT_stimuli/pictures/1141_fw.png	258.43183279037476	
236	197.32662987709045	picture	0		76	234.0	/experiments/Knapen_AOT/AOT_stimuli/pictures/1386_fw.png	258.44830322265625	0.6416592597961426
236	197.9518518447876	response	0	j		234.0	/experiments/Knapen_AOT/AOT_stimuli/pictures/1386_fw.png	259.0735251903534	
237	197.9682891368866	picture	0		84	235.0	/experiments/Knapen_AOT/AOT_stimuli/pictures/1324_fw.png	259.0899624824524	0.7035079002380371
237	198.6601369380951	response	0	j		235.0	/experiments/Knapen_AOT/AOT_stimuli/pictures/1324_fw.png	259.7818102836609	
238	198.67179703712463	picture	0		93	236.0	/experiments/Knapen_AOT/AOT_stimuli/pictures/1948_fw.png	259.79347038269043	0.7778053283691406
238	199.4351589679718	response	0	k		236.0	/experiments/Knapen_AOT/AOT_stimuli/pictures/1948_fw.png	260.5568323135376	
239	199.44960236549377	picture	0		82	237.0	/experiments/Knapen_AOT/AOT_stimuli/pictures/1560_fw.png	260.57127571105957	0.6937201023101807
239	200.12697052955627	response	0	j		237.0	/experiments/Knapen_AOT/AOT_stimuli/pictures/1560_fw.png	261.24864387512207	
240	200.14332246780396	picture	0		78	238.0	/experiments/Knapen_AOT/AOT_stimuli/pictures/1733_fw.png	261.26499581336975	0.6583645343780518
240	200.78519797325134	response	0	k		238.0	/experiments/Knapen_AOT/AOT_stimuli/pictures/1733_fw.png	261.90687131881714	
241	200.801687002182	picture	0		89	239.0	/experiments/Knapen_AOT/AOT_stimuli/pictures/0872_fw.png	261.9233603477478	0.7500126361846924
241	201.53544926643372	response	0	k		239.0	/experiments/Knapen_AOT/AOT_stimuli/pictures/0872_fw.png	262.6571226119995	
242	201.5516996383667	picture	0		96	240.0	/experiments/Knapen_AOT/AOT_stimuli/pictures/0413_fw.png	262.6733729839325	0.8083064556121826
242	202.34364652633667	response	0	k		240.0	/experiments/Knapen_AOT/AOT_stimuli/pictures/0413_fw.png	263.46531987190247	
243	202.36000609397888	picture	0		86	241.0	/experiments/Knapen_AOT/AOT_stimuli/pictures/1497_fw.png	263.4816794395447	0.7249970436096191
243	203.06848120689392	response	0	j		241.0	/experiments/Knapen_AOT/AOT_stimuli/pictures/1497_fw.png	264.1901545524597	
244	203.0850031375885	picture	0		96	242.0	/experiments/Knapen_AOT/AOT_stimuli/pictures/1108_fw.png	264.2066764831543	0.809112548828125
244	203.87706756591797	response	0	k		242.0	/experiments/Knapen_AOT/AOT_stimuli/pictures/1108_fw.png	264.99874091148376	
245	203.89411568641663	picture	0		91	243.0	/experiments/Knapen_AOT/AOT_stimuli/pictures/1136_fw.png	265.0157890319824	0.7638676166534424
245	204.64352917671204	response	0	k		243.0	/experiments/Knapen_AOT/AOT_stimuli/pictures/1136_fw.png	265.76520252227783	
246	204.65798330307007	picture	0		65	244.0	/experiments/Knapen_AOT/AOT_stimuli/pictures/0073_fw.png	265.77965664863586	0.5520517826080322
246	205.19350266456604	response	0	k		244.0	/experiments/Knapen_AOT/AOT_stimuli/pictures/0073_fw.png	266.31517601013184	
247	205.2100350856781	picture	0		76	245.0	/experiments/Knapen_AOT/AOT_stimuli/pictures/1464_fw.png	266.3317084312439	0.641664981842041
247	205.83519339561462	response	0	j		245.0	/experiments/Knapen_AOT/AOT_stimuli/pictures/1464_fw.png	266.9568667411804	
248	205.85170006752014	picture	0		110	246.0	/experiments/Knapen_AOT/AOT_stimuli/pictures/0976_fw.png	266.97337341308594	0.9249899387359619
248	206.76030278205872	response	0	j		246.0	/experiments/Knapen_AOT/AOT_stimuli/pictures/0976_fw.png	267.8819761276245	
249	206.7766900062561	picture	0		63	247.0	/experiments/Knapen_AOT/AOT_stimuli/pictures/2007_fw.png	267.8983633518219	0.5270884037017822
249	207.293625831604	response	0	j		247.0	/experiments/Knapen_AOT/AOT_stimuli/pictures/2007_fw.png	268.4152991771698	
250	207.30377840995789	picture	0		81	248.0	/experiments/Knapen_AOT/AOT_stimuli/pictures/2175_fw.png	268.4254517555237	0.6812543869018555
250	207.96854996681213	response	0	j		248.0	/experiments/Knapen_AOT/AOT_stimuli/pictures/2175_fw.png	269.09022331237793	
251	207.98503279685974	picture	0		82	249.0	/experiments/Knapen_AOT/AOT_stimuli/pictures/1285_fw.png	269.10670614242554	0.6916639804840088
251	208.66022539138794	response	0	j		249.0	/experiments/Knapen_AOT/AOT_stimuli/pictures/1285_fw.png	269.78189873695374	
252	208.67669677734375	picture	0		77	250.0	/experiments/Knapen_AOT/AOT_stimuli/pictures/1666_fw.png	269.79837012290955	0.6500046253204346
252	209.3104612827301	response	0	j		250.0	/experiments/Knapen_AOT/AOT_stimuli/pictures/1666_fw.png	270.4321346282959	
253	209.32670140266418	picture	0		145	251.0	/experiments/Knapen_AOT/AOT_stimuli/pictures/1059_fw.png	270.44837474823	1.2167320251464844
253	210.52727460861206	response	0	k		251.0	/experiments/Knapen_AOT/AOT_stimuli/pictures/1059_fw.png	271.64894795417786	
254	210.54343342781067	picture	0		155	252.0	/experiments/Knapen_AOT/AOT_stimuli/pictures/0827_fw.png	271.66510677337646	1.3000123500823975
254	211.8269488811493	response	0	k		252.0	/experiments/Knapen_AOT/AOT_stimuli/pictures/0827_fw.png	272.9486222267151	
255	211.84344577789307	picture	0		95	253.0	/experiments/Knapen_AOT/AOT_stimuli/pictures/0390_fw.png	272.96511912345886	0.7999787330627441
255	212.62699699401855	response	0	k		253.0	/experiments/Knapen_AOT/AOT_stimuli/pictures/0390_fw.png	273.74867033958435	
256	212.6434245109558	picture	0		125	254.0	/experiments/Knapen_AOT/AOT_stimuli/pictures/0750_fw.png	273.7650978565216	1.0499999523162842
256	213.67697763442993	response	0	k		254.0	/experiments/Knapen_AOT/AOT_stimuli/pictures/0750_fw.png	274.7986509799957	
257	213.6934244632721	picture	0		103	255.0	/experiments/Knapen_AOT/AOT_stimuli/pictures/0387_fw.png	274.8150978088379	0.8666825294494629
257	214.54370021820068	response	0	k		255.0	/experiments/Knapen_AOT/AOT_stimuli/pictures/0387_fw.png	275.6653735637665	
258	214.56010699272156	picture	0		100	256.0	/experiments/Knapen_AOT/AOT_stimuli/pictures/0692_fw.png	275.68178033828735	0.8416595458984375
258	215.38531112670898	response	0	k		256.0	/experiments/Knapen_AOT/AOT_stimuli/pictures/0692_fw.png	276.5069844722748	
259	215.40176653862	picture	0		79	257.0	/experiments/Knapen_AOT/AOT_stimuli/pictures/2147_fw.png	276.5234398841858	0.6666858196258545
259	216.052020072937	response	0	k		257.0	/experiments/Knapen_AOT/AOT_stimuli/pictures/2147_fw.png	277.1736934185028	
260	216.06845235824585	picture	0		76	258.0	/experiments/Knapen_AOT/AOT_stimuli/pictures/1127_fw.png	277.19012570381165	0.6381556987762451
260	216.6937894821167	response	0	k		258.0	/experiments/Knapen_AOT/AOT_stimuli/pictures/1127_fw.png	277.8154628276825	
261	216.7066080570221	picture	0		79	259.0	/experiments/Knapen_AOT/AOT_stimuli/pictures/1475_fw.png	277.8282814025879	0.6618647575378418
261	217.35226392745972	response	0	j		259.0	/experiments/Knapen_AOT/AOT_stimuli/pictures/1475_fw.png	278.4739372730255	
262	217.36847281455994	picture	0		79	260.0	/experiments/Knapen_AOT/AOT_stimuli/pictures/1290_fw.png	278.49014616012573	0.666696310043335
262	218.01859760284424	response	0	j		260.0	/experiments/Knapen_AOT/AOT_stimuli/pictures/1290_fw.png	279.14027094841003	
263	218.03516912460327	picture	0		94	261.0	/experiments/Knapen_AOT/AOT_stimuli/pictures/1909_fw.png	279.15684247016907	0.791663646697998
263	218.81033968925476	response	0	k		261.0	/experiments/Knapen_AOT/AOT_stimuli/pictures/1909_fw.png	279.93201303482056	
264	218.82683277130127	picture	0		86	262.0	/experiments/Knapen_AOT/AOT_stimuli/pictures/1456_fw.png	279.94850611686707	0.7249822616577148
264	219.535338640213	response	0	k		262.0	/experiments/Knapen_AOT/AOT_stimuli/pictures/1456_fw.png	280.6570119857788	
265	219.55181503295898	picture	0		116	263.0	/experiments/Knapen_AOT/AOT_stimuli/pictures/0594_fw.png	280.6734883785248	0.9750566482543945
265	220.5030176639557	response	0	j		263.0	/experiments/Knapen_AOT/AOT_stimuli/pictures/0594_fw.png	281.6246910095215	
266	220.52687168121338	picture	0		87	264.0	/experiments/Knapen_AOT/AOT_stimuli/pictures/2087_fw.png	281.6485450267792	0.7283892631530762
266	221.24369549751282	response	0	j		264.0	/experiments/Knapen_AOT/AOT_stimuli/pictures/2087_fw.png	282.3653688430786	
267	221.25526094436646	picture	0		84	265.0	/experiments/Knapen_AOT/AOT_stimuli/pictures/1974_fw.png	282.37693428993225	0.701397180557251
267	221.94368481636047	response	0	j		265.0	/experiments/Knapen_AOT/AOT_stimuli/pictures/1974_fw.png	283.06535816192627	
268	221.9566581249237	picture	0		71	266.0	/experiments/Knapen_AOT/AOT_stimuli/pictures/0105_fw.png	283.0783314704895	0.5951979160308838
268	222.5354619026184	response	0	j		266.0	/experiments/Knapen_AOT/AOT_stimuli/pictures/0105_fw.png	283.6571352481842	
269	222.5518560409546	picture	0		97	267.0	/experiments/Knapen_AOT/AOT_stimuli/pictures/0941_fw.png	283.6735293865204	0.816706657409668
269	223.35207629203796	response	0	k		267.0	/experiments/Knapen_AOT/AOT_stimuli/pictures/0941_fw.png	284.47374963760376	
270	223.36856269836426	picture	0		82	268.0	/experiments/Knapen_AOT/AOT_stimuli/pictures/1955_fw.png	284.49023604393005	0.6923034191131592
270	224.04395127296448	response	0	k		268.0	/experiments/Knapen_AOT/AOT_stimuli/pictures/1955_fw.png	285.1656246185303	
271	224.06086611747742	picture	0		84	269.0	/experiments/Knapen_AOT/AOT_stimuli/pictures/1653_fw.png	285.1825394630432	0.7076811790466309
271	224.75211811065674	response	0	j		269.0	/experiments/Knapen_AOT/AOT_stimuli/pictures/1653_fw.png	285.87379145622253	
272	224.76854729652405	picture	0		95	270.0	/experiments/Knapen_AOT/AOT_stimuli/pictures/2081_fw.png	285.89022064208984	0.8000035285949707
272	225.5520887374878	response	0	j		270.0	/experiments/Knapen_AOT/AOT_stimuli/pictures/2081_fw.png	286.6737620830536	
273	225.56855082511902	picture	0		87	271.0	/experiments/Knapen_AOT/AOT_stimuli/pictures/1359_fw.png	286.6902241706848	0.7333369255065918
273	226.2854232788086	response	0	j		271.0	/experiments/Knapen_AOT/AOT_stimuli/pictures/1359_fw.png	287.4070966243744	
274	226.3018877506256	picture	0		106	272.0	/experiments/Knapen_AOT/AOT_stimuli/pictures/2069_fw.png	287.4235610961914	0.8916981220245361
274	227.17710423469543	response	0	j		272.0	/experiments/Knapen_AOT/AOT_stimuli/pictures/2069_fw.png	288.29877758026123	
275	227.19358587265015	picture	0		88	273.0	/experiments/Knapen_AOT/AOT_stimuli/pictures/2039_fw.png	288.31525921821594	0.7416613101959229
275	227.91918563842773	response	0	j		273.0	/experiments/Knapen_AOT/AOT_stimuli/pictures/2039_fw.png	289.04085898399353	
276	227.93524718284607	picture	0		109	274.0	/experiments/Knapen_AOT/AOT_stimuli/pictures/0929_fw.png	289.05692052841187	0.9166927337646484
276	228.83545756340027	response	0	k		274.0	/experiments/Knapen_AOT/AOT_stimuli/pictures/0929_fw.png	289.95713090896606	
277	228.85193991661072	picture	0		93	275.0	/experiments/Knapen_AOT/AOT_stimuli/pictures/0016_fw.png	289.9736132621765	0.7833473682403564
277	229.61883854866028	response	0	k		275.0	/experiments/Knapen_AOT/AOT_stimuli/pictures/0016_fw.png	290.7405118942261	
278	229.63528728485107	picture	0		81	276.0	/experiments/Knapen_AOT/AOT_stimuli/pictures/0433_fw.png	290.75696063041687	0.6833245754241943
278	230.29503655433655	response	0	j		276.0	/experiments/Knapen_AOT/AOT_stimuli/pictures/0433_fw.png	291.41670989990234	
279	230.31861186027527	picture	0		108	277.0	/experiments/Knapen_AOT/AOT_stimuli/pictures/0961_fw.png	291.44028520584106	0.9083445072174072
279	231.2104823589325	response	0	j		277.0	/experiments/Knapen_AOT/AOT_stimuli/pictures/0961_fw.png	292.3321557044983	
280	231.22695636749268	picture	0		79	278.0	/experiments/Knapen_AOT/AOT_stimuli/pictures/0950_fw.png	292.3486297130585	0.6667139530181885
280	231.8771584033966	response	0	j		278.0	/experiments/Knapen_AOT/AOT_stimuli/pictures/0950_fw.png	292.9988317489624	
281	231.89367032051086	picture	0		102	279.0	/experiments/Knapen_AOT/AOT_stimuli/pictures/0970_fw.png	293.01534366607666	0.8583920001983643
281	232.7354714870453	response	0	j		279.0	/experiments/Knapen_AOT/AOT_stimuli/pictures/0970_fw.png	293.8571448326111	
282	232.75206232070923	picture	0		114	280.0	/experiments/Knapen_AOT/AOT_stimuli/pictures/1771_fw.png	293.873735666275	0.9583005905151367
282	233.69389176368713	response	0	j		280.0	/experiments/Knapen_AOT/AOT_stimuli/pictures/1771_fw.png	294.81556510925293	
283	233.71036291122437	picture	0		97	281.0	/experiments/Knapen_AOT/AOT_stimuli/pictures/0361_fw.png	294.83203625679016	0.8165972232818604
283	234.50284266471863	response	0	j		281.0	/experiments/Knapen_AOT/AOT_stimuli/pictures/0361_fw.png	295.6245160102844	
284	234.52696013450623	picture	0		93	282.0	/experiments/Knapen_AOT/AOT_stimuli/pictures/1295_fw.png	295.648633480072	0.7833685874938965
284	235.29382705688477	response	0	k		282.0	/experiments/Knapen_AOT/AOT_stimuli/pictures/1295_fw.png	296.41550040245056	
285	235.31032872200012	picture	0		83	283.0	/experiments/Knapen_AOT/AOT_stimuli/pictures/1325_fw.png	296.4320020675659	0.7000024318695068
285	235.99386310577393	response	0	j		283.0	/experiments/Knapen_AOT/AOT_stimuli/pictures/1325_fw.png	297.1155364513397	
286	236.01033115386963	picture	0		82	284.0	/experiments/Knapen_AOT/AOT_stimuli/pictures/0905_fw.png	297.1320044994354	0.6917448043823242
286	236.68559455871582	response	0	j		284.0	/experiments/Knapen_AOT/AOT_stimuli/pictures/0905_fw.png	297.8072679042816	
287	236.70207595825195	picture	0		97	285.0	/experiments/Knapen_AOT/AOT_stimuli/pictures/2138_fw.png	297.82374930381775	0.816657543182373
287	237.49501252174377	response	0	j		285.0	/experiments/Knapen_AOT/AOT_stimuli/pictures/2138_fw.png	298.61668586730957	
288	237.51873350143433	picture	0		88	286.0	/experiments/Knapen_AOT/AOT_stimuli/pictures/0621_fw.png	298.6404068470001	0.7416164875030518
288	238.24388098716736	response	0	k		286.0	/experiments/Knapen_AOT/AOT_stimuli/pictures/0621_fw.png	299.36555433273315	
289	238.26034998893738	picture	0		98	287.0	/experiments/Knapen_AOT/AOT_stimuli/pictures/1571_fw.png	299.3820233345032	0.8250322341918945
289	239.06888055801392	response	0	j		287.0	/experiments/Knapen_AOT/AOT_stimuli/pictures/1571_fw.png	300.1905539035797	
290	239.08538222312927	picture	0		102	288.0	/experiments/Knapen_AOT/AOT_stimuli/pictures/1636_fw.png	300.20705556869507	0.8583216667175293
290	239.9272816181183	response	0	k		288.0	/experiments/Knapen_AOT/AOT_stimuli/pictures/1636_fw.png	301.0489549636841	
291	239.9437038898468	picture	0		79	289.0	/experiments/Knapen_AOT/AOT_stimuli/pictures/0147_fw.png	301.0653772354126	0.6666817665100098
291	240.5938937664032	response	0	k		289.0	/experiments/Knapen_AOT/AOT_stimuli/pictures/0147_fw.png	301.715567111969	
292	240.6103856563568	picture	0		78	290.0	/experiments/Knapen_AOT/AOT_stimuli/pictures/1152_fw.png	301.7320590019226	0.6584315299987793
292	241.25249433517456	response	0	j		290.0	/experiments/Knapen_AOT/AOT_stimuli/pictures/1152_fw.png	302.37416768074036	
293	241.2688171863556	picture	0		93	291.0	/experiments/Knapen_AOT/AOT_stimuli/pictures/0229_fw.png	302.3904905319214	0.783261775970459
293	242.03567051887512	response	0	k		291.0	/experiments/Knapen_AOT/AOT_stimuli/pictures/0229_fw.png	303.1573438644409	
294	242.05207896232605	picture	0		79	292.0	/experiments/Knapen_AOT/AOT_stimuli/pictures/0480_fw.png	303.17375230789185	0.6666512489318848
294	242.70238971710205	response	0	k		292.0	/experiments/Knapen_AOT/AOT_stimuli/pictures/0480_fw.png	303.82406306266785	
295	242.71873021125793	picture	0		109	293.0	/experiments/Knapen_AOT/AOT_stimuli/pictures/0012_fw.png	303.84040355682373	0.9166903495788574
295	243.61897802352905	response	0	j		293.0	/experiments/Knapen_AOT/AOT_stimuli/pictures/0012_fw.png	304.74065136909485	
296	243.6354205608368	picture	0		102	294.0	/experiments/Knapen_AOT/AOT_stimuli/pictures/0639_fw.png	304.7570939064026	0.8583500385284424
296	244.47735977172852	response	0	j		294.0	/experiments/Knapen_AOT/AOT_stimuli/pictures/0639_fw.png	305.5990331172943	
297	244.49377059936523	picture	0		72	295.0	/experiments/Knapen_AOT/AOT_stimuli/pictures/2115_fw.png	305.61544394493103	0.6083517074584961
297	245.08572030067444	response	0	j		295.0	/experiments/Knapen_AOT/AOT_stimuli/pictures/2115_fw.png	306.20739364624023	
298	245.10212230682373	picture	0		66	296.0	/experiments/Knapen_AOT/AOT_stimuli/pictures/1080_fw.png	306.2237956523895	0.5583295822143555
298	245.64394330978394	response	0	j		296.0	/experiments/Knapen_AOT/AOT_stimuli/pictures/1080_fw.png	306.76561665534973	
299	245.6604518890381	picture	0		111	297.0	/experiments/Knapen_AOT/AOT_stimuli/pictures/1102_fw.png	306.7821252346039	0.9333405494689941
299	246.57729125022888	response	0	k		297.0	/experiments/Knapen_AOT/AOT_stimuli/pictures/1102_fw.png	307.6989645957947	
300	246.59379243850708	picture	0		92	298.0	/experiments/Knapen_AOT/AOT_stimuli/pictures/0792_fw.png	307.7154657840729	0.7750165462493896
300	247.35232305526733	response	0	j		298.0	/experiments/Knapen_AOT/AOT_stimuli/pictures/0792_fw.png	308.47399640083313	
301	247.36880898475647	picture	0		98	299.0	/experiments/Knapen_AOT/AOT_stimuli/pictures/0507_fw.png	308.49048233032227	0.8249831199645996
301	248.17736101150513	response	0	k		299.0	/experiments/Knapen_AOT/AOT_stimuli/pictures/0507_fw.png	309.2990343570709	
302	248.19379210472107	picture	0		92	300.0	/experiments/Knapen_AOT/AOT_stimuli/pictures/0957_fw.png	309.31546545028687	0.7750308513641357
302	248.9523777961731	response	0	k		300.0	/experiments/Knapen_AOT/AOT_stimuli/pictures/0957_fw.png	310.0740511417389	
303	248.9688229560852	picture	0		96	301.0	/experiments/Knapen_AOT/AOT_stimuli/pictures/0395_fw.png	310.090496301651	0.8083205223083496
303	249.76069617271423	response	0	j		301.0	/experiments/Knapen_AOT/AOT_stimuli/pictures/0395_fw.png	310.88236951828003	
304	249.77714347839355	picture	0		70	302.0	/experiments/Knapen_AOT/AOT_stimuli/pictures/0779_fw.png	310.89881682395935	0.5916955471038818
304	250.35240054130554	response	0	j		302.0	/experiments/Knapen_AOT/AOT_stimuli/pictures/0779_fw.png	311.47407388687134	
305	250.36883902549744	picture	0		79	303.0	/experiments/Knapen_AOT/AOT_stimuli/pictures/2137_fw.png	311.49051237106323	0.6666762828826904
305	251.0190351009369	response	0	k		303.0	/experiments/Knapen_AOT/AOT_stimuli/pictures/2137_fw.png	312.1407084465027	
306	251.03551530838013	picture	0		99	304.0	/experiments/Knapen_AOT/AOT_stimuli/pictures/2149_fw.png	312.1571886539459	0.831049919128418
306	251.85238242149353	response	0	j		304.0	/experiments/Knapen_AOT/AOT_stimuli/pictures/2149_fw.png	312.9740557670593	
307	251.86656522750854	picture	0		80	305.0	/experiments/Knapen_AOT/AOT_stimuli/pictures/0864_fw.png	312.98823857307434	0.6736443042755127
307	252.52741527557373	response	0	j		305.0	/experiments/Knapen_AOT/AOT_stimuli/pictures/0864_fw.png	313.6490886211395	
308	252.54020953178406	picture	0		65	306.0	/experiments/Knapen_AOT/AOT_stimuli/pictures/0579_fw.png	313.66188287734985	0.545478343963623
308	253.06909012794495	response	0	j		306.0	/experiments/Knapen_AOT/AOT_stimuli/pictures/0579_fw.png	314.19076347351074	
309	253.08568787574768	picture	0		89	307.0	/experiments/Knapen_AOT/AOT_stimuli/pictures/1725_fw.png	314.2073612213135	0.7498712539672852
309	253.8189971446991	response	0	k		307.0	/experiments/Knapen_AOT/AOT_stimuli/pictures/1725_fw.png	314.9406704902649	
310	253.83555912971497	picture	0		82	308.0	/experiments/Knapen_AOT/AOT_stimuli/pictures/1223_fw.png	314.95723247528076	0.691673755645752
310	254.50396347045898	response	0	k		308.0	/experiments/Knapen_AOT/AOT_stimuli/pictures/1223_fw.png	315.6256368160248	
311	254.52723288536072	picture	0		82	309.0	/experiments/Knapen_AOT/AOT_stimuli/pictures/0267_fw.png	315.6489062309265	0.6916601657867432
311	255.2023801803589	response	0	j		309.0	/experiments/Knapen_AOT/AOT_stimuli/pictures/0267_fw.png	316.3240535259247	
312	255.21889305114746	picture	0		105	310.0	/experiments/Knapen_AOT/AOT_stimuli/pictures/1808_fw.png	316.34056639671326	0.8833653926849365
312	256.08578848838806	response	0	k		310.0	/experiments/Knapen_AOT/AOT_stimuli/pictures/1808_fw.png	317.20746183395386	
313	256.1022584438324	picture	0		105	311.0	/experiments/Knapen_AOT/AOT_stimuli/pictures/1071_fw.png	317.2239317893982	0.8754153251647949
313	256.9690761566162	response	0	j		311.0	/experiments/Knapen_AOT/AOT_stimuli/pictures/1071_fw.png	318.090749502182	
314	256.9776737689972	picture	0		93	312.0	/experiments/Knapen_AOT/AOT_stimuli/pictures/1530_fw.png	318.099347114563	0.7829794883728027
314	257.74413084983826	response	0	k		312.0	/experiments/Knapen_AOT/AOT_stimuli/pictures/1530_fw.png	318.86580419540405	
315	257.76065325737	picture	0		82	313.0	/experiments/Knapen_AOT/AOT_stimuli/pictures/0322_fw.png	318.8823266029358	0.6916272640228271
315	258.43582367897034	response	0	j		313.0	/experiments/Knapen_AOT/AOT_stimuli/pictures/0322_fw.png	319.55749702453613	
316	258.4522805213928	picture	0		83	314.0	/experiments/Knapen_AOT/AOT_stimuli/pictures/1388_fw.png	319.5739538669586	0.6999814510345459
316	259.1358091831207	response	0	j		314.0	/experiments/Knapen_AOT/AOT_stimuli/pictures/1388_fw.png	320.2574825286865	
317	259.15226197242737	picture	0		68	315.0	/experiments/Knapen_AOT/AOT_stimuli/pictures/0454_fw.png	320.27393531799316	0.5750737190246582
317	259.71105456352234	response	0	j		315.0	/experiments/Knapen_AOT/AOT_stimuli/pictures/0454_fw.png	320.83272790908813	
318	259.727335691452	picture	0		87	316.0	/experiments/Knapen_AOT/AOT_stimuli/pictures/0050_fw.png	320.8490090370178	0.7332992553710938
318	260.44418382644653	response	0	k		316.0	/experiments/Knapen_AOT/AOT_stimuli/pictures/0050_fw.png	321.56585717201233	
319	260.4606349468231	picture	0		103	317.0	/experiments/Knapen_AOT/AOT_stimuli/pictures/1794_fw.png	321.5823082923889	0.8666603565216064
319	261.3109004497528	response	0	k		317.0	/experiments/Knapen_AOT/AOT_stimuli/pictures/1794_fw.png	322.4325737953186	
320	261.3272953033447	picture	0		82	318.0	/experiments/Knapen_AOT/AOT_stimuli/pictures/1663_fw.png	322.4489686489105	0.6916854381561279
320	262.0025475025177	response	0	k		318.0	/experiments/Knapen_AOT/AOT_stimuli/pictures/1663_fw.png	323.1242208480835	
321	262.01898074150085	picture	0		81	319.0	/experiments/Knapen_AOT/AOT_stimuli/pictures/1645_fw.png	323.14065408706665	0.6833295822143555
321	262.68627667427063	response	0	k		319.0	/experiments/Knapen_AOT/AOT_stimuli/pictures/1645_fw.png	323.8079500198364	
322	262.7023103237152	picture	0		85	320.0	/experiments/Knapen_AOT/AOT_stimuli/pictures/1927_fw.png	323.823983669281	0.7167060375213623
322	263.4024746417999	response	0	k		320.0	/experiments/Knapen_AOT/AOT_stimuli/pictures/1927_fw.png	324.5241479873657	
323	263.4190163612366	picture	0		107	321.0	/experiments/Knapen_AOT/AOT_stimuli/pictures/0151_fw.png	324.54068970680237	0.8999700546264648
323	264.2951364517212	response	0	j		321.0	/experiments/Knapen_AOT/AOT_stimuli/pictures/0151_fw.png	325.416809797287	
324	264.31898641586304	picture	0		83	322.0	/experiments/Knapen_AOT/AOT_stimuli/pictures/2112_fw.png	325.44065976142883	0.700023889541626
324	265.0026545524597	response	0	k		322.0	/experiments/Knapen_AOT/AOT_stimuli/pictures/2112_fw.png	326.1243278980255	
325	265.01901030540466	picture	0		146	323.0	/experiments/Knapen_AOT/AOT_stimuli/pictures/1433_fw.png	326.14068365097046	1.2250251770019531
325	266.22756028175354	response	0	k		323.0	/experiments/Knapen_AOT/AOT_stimuli/pictures/1433_fw.png	327.34923362731934	
326	266.2440354824066	picture	0		92	324.0	/experiments/Knapen_AOT/AOT_stimuli/pictures/1632_fw.png	327.3657088279724	0.7750096321105957
326	267.002614736557	response	0	j		324.0	/experiments/Knapen_AOT/AOT_stimuli/pictures/1632_fw.png	328.1242880821228	
327	267.0190451145172	picture	0		85	325.0	/experiments/Knapen_AOT/AOT_stimuli/pictures/0851_fw.png	328.140718460083	0.7166483402252197
327	267.7193319797516	response	0	j		325.0	/experiments/Knapen_AOT/AOT_stimuli/pictures/0851_fw.png	328.8410053253174	
328	267.73569345474243	picture	0		83	326.0	/experiments/Knapen_AOT/AOT_stimuli/pictures/1437_fw.png	328.8573668003082	0.7000348567962646
328	268.41931891441345	response	0	j		326.0	/experiments/Knapen_AOT/AOT_stimuli/pictures/1437_fw.png	329.54099225997925	
329	268.4357283115387	picture	0		68	327.0	/experiments/Knapen_AOT/AOT_stimuli/pictures/0879_fw.png	329.5574016571045	0.5749959945678711
329	268.9942786693573	response	0	j		327.0	/experiments/Knapen_AOT/AOT_stimuli/pictures/0879_fw.png	330.1159520149231	
330	269.01072430610657	picture	0		73	328.0	/experiments/Knapen_AOT/AOT_stimuli/pictures/0330_fw.png	330.13239765167236	0.6166720390319824
330	269.61091113090515	response	0	k		328.0	/experiments/Knapen_AOT/AOT_stimuli/pictures/0330_fw.png	330.73258447647095	
331	269.62739634513855	picture	0		75	329.0	/experiments/Knapen_AOT/AOT_stimuli/pictures/1872_fw.png	330.74906969070435	0.6333379745483398
331	270.24426198005676	response	0	j		329.0	/experiments/Knapen_AOT/AOT_stimuli/pictures/1872_fw.png	331.36593532562256	
332	270.2607343196869	picture	0		83	330.0	/experiments/Knapen_AOT/AOT_stimuli/pictures/2174_fw.png	331.3824076652527	0.6962089538574219
332	270.94427728652954	response	0	k		330.0	/experiments/Knapen_AOT/AOT_stimuli/pictures/2174_fw.png	332.06595063209534	
333	270.9569432735443	picture	0		103	331.0	/experiments/Knapen_AOT/AOT_stimuli/pictures/0243_fw.png	332.0786166191101	0.8621683120727539
333	271.80278158187866	response	0	j		331.0	/experiments/Knapen_AOT/AOT_stimuli/pictures/0243_fw.png	332.92445492744446	
334	271.81911158561707	picture	0		79	332.0	/experiments/Knapen_AOT/AOT_stimuli/pictures/1382_fw.png	332.94078493118286	0.6666543483734131
334	272.46932196617126	response	0	k		332.0	/experiments/Knapen_AOT/AOT_stimuli/pictures/1382_fw.png	333.59099531173706	
335	272.4857659339905	picture	0		86	333.0	/experiments/Knapen_AOT/AOT_stimuli/pictures/2145_fw.png	333.6074392795563	0.7251052856445312
335	273.1943097114563	response	0	k		333.0	/experiments/Knapen_AOT/AOT_stimuli/pictures/2145_fw.png	334.3159830570221	
336	273.210871219635	picture	0		87	334.0	/experiments/Knapen_AOT/AOT_stimuli/pictures/1017_fw.png	334.3325445652008	0.733332633972168
336	273.9276943206787	response	0	j		334.0	/experiments/Knapen_AOT/AOT_stimuli/pictures/1017_fw.png	335.0493676662445	
337	273.9442038536072	picture	0		91	335.0	/experiments/Knapen_AOT/AOT_stimuli/pictures/1392_fw.png	335.065877199173	0.766587495803833
337	274.6874737739563	response	0	k		335.0	/experiments/Knapen_AOT/AOT_stimuli/pictures/1392_fw.png	335.8091471195221	
338	274.710791349411	picture	0		140	336.0	/experiments/Knapen_AOT/AOT_stimuli/pictures/0299_fw.png	335.8324646949768	1.169830560684204
338	275.869341135025	response	0	k		336.0	/experiments/Knapen_AOT/AOT_stimuli/pictures/0299_fw.png	336.9910144805908	
339	275.8806219100952	picture	0		78	337.0	/experiments/Knapen_AOT/AOT_stimuli/pictures/1092_fw.png	337.002295255661	0.6552081108093262
339	276.51936197280884	response	0	k		337.0	/experiments/Knapen_AOT/AOT_stimuli/pictures/1092_fw.png	337.64103531837463	
340	276.53583002090454	picture	0		93	338.0	/experiments/Knapen_AOT/AOT_stimuli/pictures/2152_fw.png	337.65750336647034	0.7753098011016846
340	277.2964425086975	response	0	k		338.0	/experiments/Knapen_AOT/AOT_stimuli/pictures/2152_fw.png	338.4181158542633	
341	277.3111398220062	picture	0		80	339.0	/experiments/Knapen_AOT/AOT_stimuli/pictures/0671_fw.png	338.432813167572	0.6746675968170166
341	277.96936297416687	response	0	j		339.0	/experiments/Knapen_AOT/AOT_stimuli/pictures/0671_fw.png	339.09103631973267	
342	277.98580741882324	picture	0		94	340.0	/experiments/Knapen_AOT/AOT_stimuli/pictures/0571_fw.png	339.10748076438904	0.7916767597198486
342	278.76100873947144	response	0	j		340.0	/experiments/Knapen_AOT/AOT_stimuli/pictures/0571_fw.png	339.88268208503723	
343	278.7774841785431	picture	0		93	341.0	/experiments/Knapen_AOT/AOT_stimuli/pictures/1230_fw.png	339.8991575241089	0.7836916446685791
343	279.54468297958374	response	0	k		341.0	/experiments/Knapen_AOT/AOT_stimuli/pictures/1230_fw.png	340.66635632514954	
344	279.56117582321167	picture	0		81	342.0	/experiments/Knapen_AOT/AOT_stimuli/pictures/1084_fw.png	340.68284916877747	0.6831066608428955
344	280.2277419567108	response	0	k		342.0	/experiments/Knapen_AOT/AOT_stimuli/pictures/1084_fw.png	341.3494153022766	
345	280.24428248405457	picture	0		86	343.0	/experiments/Knapen_AOT/AOT_stimuli/pictures/1833_fw.png	341.36595582962036	0.724916934967041
345	280.9528479576111	response	0	j		343.0	/experiments/Knapen_AOT/AOT_stimuli/pictures/1833_fw.png	342.0745213031769	
346	280.9691994190216	picture	0		83	344.0	/experiments/Knapen_AOT/AOT_stimuli/pictures/2172_fw.png	342.0908727645874	0.7000486850738525
346	281.65273547172546	response	0	j		344.0	/experiments/Knapen_AOT/AOT_stimuli/pictures/2172_fw.png	342.77440881729126	
347	281.66924810409546	picture	0		85	345.0	/experiments/Knapen_AOT/AOT_stimuli/pictures/0249_fw.png	342.79092144966125	0.7166974544525146
347	282.3696856498718	response	0	k		345.0	/experiments/Knapen_AOT/AOT_stimuli/pictures/0249_fw.png	343.4913589954376	
348	282.385945558548	picture	0		124	346.0	/experiments/Knapen_AOT/AOT_stimuli/pictures/1348_fw.png	343.50761890411377	1.0415990352630615
348	283.41112542152405	response	0	k		346.0	/experiments/Knapen_AOT/AOT_stimuli/pictures/1348_fw.png	344.53279876708984	
349	283.42754459381104	picture	0		110	347.0	/experiments/Knapen_AOT/AOT_stimuli/pictures/1314_fw.png	344.54921793937683	0.9250500202178955
349	284.33611965179443	response	0	j		347.0	/experiments/Knapen_AOT/AOT_stimuli/pictures/1314_fw.png	345.45779299736023	
350	284.35259461402893	picture	0		91	348.0	/experiments/Knapen_AOT/AOT_stimuli/pictures/0674_fw.png	345.4742679595947	0.7666869163513184
350	285.10321021080017	response	0	k		348.0	/experiments/Knapen_AOT/AOT_stimuli/pictures/0674_fw.png	346.22488355636597	
351	285.11928153038025	picture	0		81	349.0	/experiments/Knapen_AOT/AOT_stimuli/pictures/2148_fw.png	346.24095487594604	0.6833193302154541
351	285.7861063480377	response	0	k		349.0	/experiments/Knapen_AOT/AOT_stimuli/pictures/2148_fw.png	346.9077796936035	
352	285.8026008605957	picture	0		88	350.0	/experiments/Knapen_AOT/AOT_stimuli/pictures/1216_fw.png	346.9242742061615	0.7416839599609375
352	286.52782559394836	response	0	k		350.0	/experiments/Knapen_AOT/AOT_stimuli/pictures/1216_fw.png	347.64949893951416	
353	286.54428482055664	picture	0		79	351.0	/experiments/Knapen_AOT/AOT_stimuli/pictures/1222_fw.png	347.66595816612244	0.6666584014892578
353	287.1944479942322	response	0	j		351.0	/experiments/Knapen_AOT/AOT_stimuli/pictures/1222_fw.png	348.316121339798	
354	287.2109432220459	picture	0		84	352.0	/experiments/Knapen_AOT/AOT_stimuli/pictures/1432_fw.png	348.3326165676117	0.7083911895751953
354	287.8952331542969	response	0	k		352.0	/experiments/Knapen_AOT/AOT_stimuli/pictures/1432_fw.png	349.01690649986267	
355	287.9193344116211	picture	0		72	353.0	/experiments/Knapen_AOT/AOT_stimuli/pictures/0518_fw.png	349.0410077571869	0.6082770824432373
355	288.511084318161	response	0	j		353.0	/experiments/Knapen_AOT/AOT_stimuli/pictures/0518_fw.png	349.6327576637268	
356	288.52761149406433	picture	0		83	354.0	/experiments/Knapen_AOT/AOT_stimuli/pictures/0176_fw.png	349.6492848396301	0.7000312805175781
356	289.2111392021179	response	0	k		354.0	/experiments/Knapen_AOT/AOT_stimuli/pictures/0176_fw.png	350.3328125476837	
357	289.2276427745819	picture	0		86	355.0	/experiments/Knapen_AOT/AOT_stimuli/pictures/1932_fw.png	350.3493161201477	0.7250087261199951
357	289.93615198135376	response	0	k		355.0	/experiments/Knapen_AOT/AOT_stimuli/pictures/1932_fw.png	351.05782532691956	
358	289.9526515007019	picture	0		110	356.0	/experiments/Knapen_AOT/AOT_stimuli/pictures/0678_fw.png	351.0743248462677	0.925044059753418
358	290.86120796203613	response	0	k		356.0	/experiments/Knapen_AOT/AOT_stimuli/pictures/0678_fw.png	351.98288130760193	
359	290.8776955604553	picture	0		91	357.0	/experiments/Knapen_AOT/AOT_stimuli/pictures/1813_fw.png	351.9993689060211	0.7666594982147217
359	291.627893447876	response	0	k		357.0	/experiments/Knapen_AOT/AOT_stimuli/pictures/1813_fw.png	352.7495667934418	
360	291.64435505867004	picture	0		82	358.0	/experiments/Knapen_AOT/AOT_stimuli/pictures/0303_fw.png	352.76602840423584	0.6916472911834717
360	292.3195426464081	response	0	k		358.0	/experiments/Knapen_AOT/AOT_stimuli/pictures/0303_fw.png	353.4412159919739	
361	292.3360023498535	picture	0		70	359.0	/experiments/Knapen_AOT/AOT_stimuli/pictures/0430_fw.png	353.4576756954193	0.5916788578033447
361	292.9112000465393	response	0	k		359.0	/experiments/Knapen_AOT/AOT_stimuli/pictures/0430_fw.png	354.0328733921051	
362	292.92768120765686	stim	0		188			354.04935455322266	1.5710477828979492
362	294.4862108230591	response	0	space				355.6078841686249	
