trial_nr	onset	event_type	phase	response	nr_frames	picture_index	picture_file	onset_abs	duration
0	0.18318700790405273	stim	0		221			199.62220907211304	1.858429193496704
0	2.016784191131592	response	0	space				201.45580625534058	
2	2.041616201400757	picture	0		229	0.0	/experiments/knapen_AOT/AOT_stimuli/pictures/0386_fw.png	201.48063826560974	1.929210901260376
2	3.9509692192077637	response	0	j		0.0	/experiments/knapen_AOT/AOT_stimuli/pictures/0386_fw.png	203.38999128341675	
3	3.970827102661133	picture	0		93	1.0	/experiments/knapen_AOT/AOT_stimuli/pictures/0581_fw.png	203.40984916687012	0.7831408977508545
3	4.741757154464722	response	0	j		1.0	/experiments/knapen_AOT/AOT_stimuli/pictures/0581_fw.png	204.1807792186737	
4	4.753968000411987	picture	0		83	2.0	/experiments/knapen_AOT/AOT_stimuli/pictures/0798_fw.png	204.19299006462097	0.6876251697540283
4	5.43345308303833	response	0	j		2.0	/experiments/knapen_AOT/AOT_stimuli/pictures/0798_fw.png	204.87247514724731	
5	5.441593170166016	picture	0		215	3.0	/experiments/knapen_AOT/AOT_stimuli/pictures/0270_fw.png	204.880615234375	1.7917568683624268
5	7.225240230560303	response	0	j		3.0	/experiments/knapen_AOT/AOT_stimuli/pictures/0270_fw.png	206.6642622947693	
6	7.233350038528442	picture	0		148	4.0	/experiments/knapen_AOT/AOT_stimuli/pictures/1823_fw.png	206.67237210273743	1.2359280586242676
6	8.458481073379517	response	0	k		4.0	/experiments/knapen_AOT/AOT_stimuli/pictures/1823_fw.png	207.8975031375885	
7	8.46927809715271	picture	0		103	5.0	/experiments/knapen_AOT/AOT_stimuli/pictures/0210_fw.png	207.9083001613617	0.8557789325714111
7	9.31680417060852	response	0	j		5.0	/experiments/knapen_AOT/AOT_stimuli/pictures/0210_fw.png	208.7558262348175	
8	9.325057029724121	picture	0		93	6.0	/experiments/knapen_AOT/AOT_stimuli/pictures/1843_fw.png	208.7640790939331	0.7761549949645996
8	10.085310220718384	response	0	k		6.0	/experiments/knapen_AOT/AOT_stimuli/pictures/1843_fw.png	209.52433228492737	
9	10.10121202468872	picture	0		98	7.0	/experiments/knapen_AOT/AOT_stimuli/pictures/1611_fw.png	209.5402340888977	0.8195312023162842
9	10.90847110748291	response	0	k		7.0	/experiments/knapen_AOT/AOT_stimuli/pictures/1611_fw.png	210.3474931716919	
10	10.920743227005005	picture	0		90	8.0	/experiments/knapen_AOT/AOT_stimuli/pictures/1990_fw.png	210.359765291214	0.7500178813934326
10	11.658582210540771	response	0	j		8.0	/experiments/knapen_AOT/AOT_stimuli/pictures/1990_fw.png	211.09760427474976	
11	11.670761108398438	picture	0		208	9.0	/experiments/knapen_AOT/AOT_stimuli/pictures/1275_fw.png	211.10978317260742	1.729269027709961
11	13.391939163208008	response	0	j		9.0	/experiments/knapen_AOT/AOT_stimuli/pictures/1275_fw.png	212.830961227417	
12	13.400030136108398	picture	0		78	10.0	/experiments/knapen_AOT/AOT_stimuli/pictures/1643_fw.png	212.83905220031738	0.6526200771331787
12	14.041863203048706	response	0	j		10.0	/experiments/knapen_AOT/AOT_stimuli/pictures/1643_fw.png	213.4808852672577	
13	14.052650213241577	picture	0		84	11.0	/experiments/knapen_AOT/AOT_stimuli/pictures/1059_fw.png	213.49167227745056	0.7013700008392334
13	14.741972208023071	response	0	j		11.0	/experiments/knapen_AOT/AOT_stimuli/pictures/1059_fw.png	214.18099427223206	
14	14.75402021408081	picture	0		108	12.0	/experiments/knapen_AOT/AOT_stimuli/pictures/1356_fw.png	214.1930422782898	0.896075963973999
14	15.64194107055664	response	0	j		12.0	/experiments/knapen_AOT/AOT_stimuli/pictures/1356_fw.png	215.08096313476562	
15	15.65009617805481	picture	0		89	13.0	/experiments/knapen_AOT/AOT_stimuli/pictures/0518_fw.png	215.0891182422638	0.7428560256958008
15	16.383602142333984	response	0	j		13.0	/experiments/knapen_AOT/AOT_stimuli/pictures/0518_fw.png	215.82262420654297	
16	16.39295220375061	picture	0		146	14.0	/experiments/knapen_AOT/AOT_stimuli/pictures/0409_fw.png	215.8319742679596	1.2154839038848877
16	17.600227117538452	response	0	k		14.0	/experiments/knapen_AOT/AOT_stimuli/pictures/0409_fw.png	217.03924918174744	
17	17.608436107635498	picture	0		118	15.0	/experiments/knapen_AOT/AOT_stimuli/pictures/0389_fw.png	217.04745817184448	0.9859240055084229
17	18.583654165267944	response	0	k		15.0	/experiments/knapen_AOT/AOT_stimuli/pictures/0389_fw.png	218.02267622947693	
18	18.59436011314392	picture	0		110	16.0	/experiments/knapen_AOT/AOT_stimuli/pictures/1337_fw.png	218.0333821773529	0.9166529178619385
18	19.493678092956543	response	0	k		16.0	/experiments/knapen_AOT/AOT_stimuli/pictures/1337_fw.png	218.93270015716553	
19	19.51101303100586	picture	0		86	17.0	/experiments/knapen_AOT/AOT_stimuli/pictures/2124_fw.png	218.95003509521484	0.7153351306915283
19	20.216904163360596	response	0	k		17.0	/experiments/knapen_AOT/AOT_stimuli/pictures/2124_fw.png	219.65592622756958	
20	20.226348161697388	picture	0		97	18.0	/experiments/knapen_AOT/AOT_stimuli/pictures/1860_fw.png	219.66537022590637	0.8072178363800049
20	21.025262117385864	response	0	k		18.0	/experiments/knapen_AOT/AOT_stimuli/pictures/1860_fw.png	220.46428418159485	
21	21.033565998077393	picture	0		107	19.0	/experiments/knapen_AOT/AOT_stimuli/pictures/2053_fw.png	220.47258806228638	0.8941171169281006
21	21.916956186294556	response	0	k		19.0	/experiments/knapen_AOT/AOT_stimuli/pictures/2053_fw.png	221.35597825050354	
22	21.927683115005493	picture	0		110	20.0	/experiments/knapen_AOT/AOT_stimuli/pictures/0832_fw.png	221.36670517921448	0.9167060852050781
22	22.833677053451538	response	0	k		20.0	/experiments/knapen_AOT/AOT_stimuli/pictures/0832_fw.png	222.27269911766052	
23	22.84438920021057	picture	0		96	21.0	/experiments/knapen_AOT/AOT_stimuli/pictures/1784_fw.png	222.28341126441956	0.7986040115356445
23	23.633631229400635	response	0	k		21.0	/experiments/knapen_AOT/AOT_stimuli/pictures/1784_fw.png	223.07265329360962	
24	23.642993211746216	picture	0		104	22.0	/experiments/knapen_AOT/AOT_stimuli/pictures/1926_fw.png	223.0820152759552	0.8680579662322998
24	24.50028705596924	response	0	j		22.0	/experiments/knapen_AOT/AOT_stimuli/pictures/1926_fw.png	223.93930912017822	
25	24.511051177978516	picture	0		100	23.0	/experiments/knapen_AOT/AOT_stimuli/pictures/0371_fw.png	223.9500732421875	0.8333580493927002
25	25.33365511894226	response	0	k		23.0	/experiments/knapen_AOT/AOT_stimuli/pictures/0371_fw.png	224.77267718315125	
26	25.344409227371216	picture	0		153	24.0	/experiments/knapen_AOT/AOT_stimuli/pictures/0692_fw.png	224.7834312915802	1.2777559757232666
26	26.608663082122803	response	0	j		24.0	/experiments/knapen_AOT/AOT_stimuli/pictures/0692_fw.png	226.0476851463318	
27	26.622165203094482	picture	0		119	25.0	/experiments/knapen_AOT/AOT_stimuli/pictures/1407_fw.png	226.06118726730347	1.028040885925293
27	27.642051219940186	response	0	k		25.0	/experiments/knapen_AOT/AOT_stimuli/pictures/1407_fw.png	227.08107328414917	
28	27.650206089019775	picture	0		105	26.0	/experiments/knapen_AOT/AOT_stimuli/pictures/1977_fw.png	227.08922815322876	0.8750331401824951
28	28.5171000957489	response	0	k		26.0	/experiments/knapen_AOT/AOT_stimuli/pictures/1977_fw.png	227.95612215995789	
29	28.52523922920227	picture	0		114	27.0	/experiments/knapen_AOT/AOT_stimuli/pictures/1107_fw.png	227.96426129341125	0.951204776763916
29	29.460663080215454	response	0	j		27.0	/experiments/knapen_AOT/AOT_stimuli/pictures/1107_fw.png	228.89968514442444	
30	29.476444005966187	picture	0		170	28.0	/experiments/knapen_AOT/AOT_stimuli/pictures/0290_fw.png	228.91546607017517	1.4166111946105957
30	30.877056121826172	response	0	j		28.0	/experiments/knapen_AOT/AOT_stimuli/pictures/0290_fw.png	230.31607818603516	
31	30.893055200576782	picture	0		251	29.0	/experiments/knapen_AOT/AOT_stimuli/pictures/1455_fw.png	230.33207726478577	2.090672016143799
31	32.97555708885193	response	0	k		29.0	/experiments/knapen_AOT/AOT_stimuli/pictures/1455_fw.png	232.4145791530609	
32	32.98372721672058	picture	0		143	30.0	/experiments/knapen_AOT/AOT_stimuli/pictures/1343_fw.png	232.42274928092957	1.1940548419952393
32	34.16714811325073	response	0	j		30.0	/experiments/knapen_AOT/AOT_stimuli/pictures/1343_fw.png	233.60617017745972	
33	34.17778205871582	picture	0		131	31.0	/experiments/knapen_AOT/AOT_stimuli/pictures/0119_fw.png	233.6168041229248	1.0902860164642334
33	35.25231218338013	response	0	k		31.0	/experiments/knapen_AOT/AOT_stimuli/pictures/0119_fw.png	234.6913342475891	
34	35.268068075180054	picture	0		101	32.0	/experiments/knapen_AOT/AOT_stimuli/pictures/0877_fw.png	234.70709013938904	0.8405930995941162
34	36.100481033325195	response	0	k		32.0	/experiments/knapen_AOT/AOT_stimuli/pictures/0877_fw.png	235.53950309753418	
35	36.10866117477417	picture	0		100	33.0	/experiments/knapen_AOT/AOT_stimuli/pictures/0346_fw.png	235.54768323898315	0.8333249092102051
35	36.93382000923157	response	0	k		33.0	/experiments/knapen_AOT/AOT_stimuli/pictures/0346_fw.png	236.37284207344055	
36	36.941986083984375	picture	0		101	34.0	/experiments/knapen_AOT/AOT_stimuli/pictures/0397_fw.png	236.38100814819336	0.84181809425354
36	37.77548813819885	response	0	j		34.0	/experiments/knapen_AOT/AOT_stimuli/pictures/0397_fw.png	237.21451020240784	
37	37.783804178237915	picture	0		161	35.0	/experiments/knapen_AOT/AOT_stimuli/pictures/1890_fw.png	237.2228262424469	1.345423936843872
37	39.11722207069397	response	0	j		35.0	/experiments/knapen_AOT/AOT_stimuli/pictures/1890_fw.png	238.55624413490295	
38	39.12922811508179	picture	0		112	36.0	/experiments/knapen_AOT/AOT_stimuli/pictures/0803_fw.png	238.56825017929077	0.930596113204956
38	40.04394221305847	response	0	j		36.0	/experiments/knapen_AOT/AOT_stimuli/pictures/0803_fw.png	239.48296427726746	
39	40.05982422828674	picture	0		154	37.0	/experiments/knapen_AOT/AOT_stimuli/pictures/0918_fw.png	239.49884629249573	1.2846629619598389
39	41.33386516571045	response	0	j		37.0	/experiments/knapen_AOT/AOT_stimuli/pictures/0918_fw.png	240.77288722991943	
40	41.34448719024658	picture	0		92	38.0	/experiments/knapen_AOT/AOT_stimuli/pictures/1063_fw.png	240.78350925445557	0.7643249034881592
40	42.10052704811096	response	0	j		38.0	/experiments/knapen_AOT/AOT_stimuli/pictures/1063_fw.png	241.53954911231995	
41	42.10881209373474	picture	0		92	39.0	/experiments/knapen_AOT/AOT_stimuli/pictures/0243_fw.png	241.54783415794373	0.7704160213470459
41	42.86049818992615	response	0	j		39.0	/experiments/knapen_AOT/AOT_stimuli/pictures/0243_fw.png	242.29952025413513	
42	42.87922811508179	picture	0		106	40.0	/experiments/knapen_AOT/AOT_stimuli/pictures/1662_fw.png	242.31825017929077	0.8819410800933838
42	43.750560998916626	response	0	k		40.0	/experiments/knapen_AOT/AOT_stimuli/pictures/1662_fw.png	243.1895830631256	
43	43.76116919517517	picture	0		101	41.0	/experiments/knapen_AOT/AOT_stimuli/pictures/1898_fw.png	243.20019125938416	0.8403339385986328
43	44.592212200164795	response	0	k		41.0	/experiments/knapen_AOT/AOT_stimuli/pictures/1898_fw.png	244.03123426437378	
44	44.601503133773804	picture	0		108	42.0	/experiments/knapen_AOT/AOT_stimuli/pictures/1606_fw.png	244.0405251979828	0.9027600288391113
44	45.49223709106445	response	0	k		42.0	/experiments/knapen_AOT/AOT_stimuli/pictures/1606_fw.png	244.93125915527344	
45	45.504263162612915	picture	0		93	43.0	/experiments/knapen_AOT/AOT_stimuli/pictures/0079_fw.png	244.9432852268219	0.77121901512146
45	46.260478019714355	response	0	k		43.0	/experiments/knapen_AOT/AOT_stimuli/pictures/0079_fw.png	245.69950008392334	
46	46.275482177734375	picture	0		92	44.0	/experiments/knapen_AOT/AOT_stimuli/pictures/0144_fw.png	245.71450424194336	0.7705390453338623
46	47.034093141555786	response	0	k		44.0	/experiments/knapen_AOT/AOT_stimuli/pictures/0144_fw.png	246.47311520576477	
47	47.04602122306824	picture	0		149	45.0	/experiments/knapen_AOT/AOT_stimuli/pictures/1350_fw.png	246.48504328727722	1.2429637908935547
47	48.27564811706543	response	0	k		45.0	/experiments/knapen_AOT/AOT_stimuli/pictures/1350_fw.png	247.7146701812744	
48	48.28898501396179	picture	0		89	46.0	/experiments/knapen_AOT/AOT_stimuli/pictures/0105_fw.png	247.72800707817078	0.7500941753387451
48	49.02565121650696	response	0	j		46.0	/experiments/knapen_AOT/AOT_stimuli/pictures/0105_fw.png	248.46467328071594	
49	49.03907918930054	picture	0		98	47.0	/experiments/knapen_AOT/AOT_stimuli/pictures/1835_fw.png	248.47810125350952	0.8197548389434814
49	49.843820095062256	response	0	j		47.0	/experiments/knapen_AOT/AOT_stimuli/pictures/1835_fw.png	249.28284215927124	
50	49.85883402824402	picture	0		88	48.0	/experiments/knapen_AOT/AOT_stimuli/pictures/1479_fw.png	249.297856092453	0.7357280254364014
50	50.58408522605896	response	0	k		48.0	/experiments/knapen_AOT/AOT_stimuli/pictures/1479_fw.png	250.02310729026794	
51	50.59456205368042	picture	0		95	49.0	/experiments/knapen_AOT/AOT_stimuli/pictures/1792_fw.png	250.0335841178894	0.7916991710662842
51	51.37567400932312	response	0	j		49.0	/experiments/knapen_AOT/AOT_stimuli/pictures/1792_fw.png	250.8146960735321	
52	51.386261224746704	picture	0		97	50.0	/experiments/knapen_AOT/AOT_stimuli/pictures/1849_fw.png	250.8252832889557	0.8059179782867432
52	52.184025049209595	response	0	j		50.0	/experiments/knapen_AOT/AOT_stimuli/pictures/1849_fw.png	251.62304711341858	
53	52.19217920303345	picture	0		82	51.0	/experiments/knapen_AOT/AOT_stimuli/pictures/2096_fw.png	251.63120126724243	0.6871418952941895
53	52.86732220649719	response	0	k		51.0	/experiments/knapen_AOT/AOT_stimuli/pictures/2096_fw.png	252.30634427070618	
54	52.87932109832764	picture	0		89	52.0	/experiments/knapen_AOT/AOT_stimuli/pictures/1370_fw.png	252.31834316253662	0.7430460453033447
54	53.60906410217285	response	0	j		52.0	/experiments/knapen_AOT/AOT_stimuli/pictures/1370_fw.png	253.04808616638184	
55	53.62236714363098	picture	0		101	53.0	/experiments/knapen_AOT/AOT_stimuli/pictures/0633_fw.png	253.06138920783997	0.8472349643707275
55	54.45907402038574	response	0	k		53.0	/experiments/knapen_AOT/AOT_stimuli/pictures/0633_fw.png	253.89809608459473	
56	54.46960210800171	picture	0		163	54.0	/experiments/knapen_AOT/AOT_stimuli/pictures/1060_fw.png	253.9086241722107	1.3611550331115723
56	55.8174831867218	response	0	k		54.0	/experiments/knapen_AOT/AOT_stimuli/pictures/1060_fw.png	255.2565052509308	
57	55.83075714111328	picture	0		137	55.0	/experiments/knapen_AOT/AOT_stimuli/pictures/0289_fw.png	255.26977920532227	1.1458148956298828
57	56.967358112335205	response	0	k		55.0	/experiments/knapen_AOT/AOT_stimuli/pictures/0289_fw.png	256.4063801765442	
58	56.976572036743164	picture	0		110	56.0	/experiments/knapen_AOT/AOT_stimuli/pictures/1055_fw.png	256.41559410095215	0.9166920185089111
58	57.88407802581787	response	0	k		56.0	/experiments/knapen_AOT/AOT_stimuli/pictures/1055_fw.png	257.32310009002686	
59	57.893264055252075	picture	0		156	57.0	/experiments/knapen_AOT/AOT_stimuli/pictures/0559_fw.png	257.33228611946106	1.2990870475769043
59	59.18411207199097	response	0	k		57.0	/experiments/knapen_AOT/AOT_stimuli/pictures/0559_fw.png	258.62313413619995	
60	59.19235110282898	picture	0		89	58.0	/experiments/knapen_AOT/AOT_stimuli/pictures/2031_fw.png	258.63137316703796	0.742603063583374
60	59.925785064697266	response	0	j		58.0	/experiments/knapen_AOT/AOT_stimuli/pictures/2031_fw.png	259.36480712890625	
61	59.93495416641235	picture	0		115	59.0	/experiments/knapen_AOT/AOT_stimuli/pictures/1515_fw.png	259.37397623062134	0.9583859443664551
61	60.8841450214386	response	0	k		59.0	/experiments/knapen_AOT/AOT_stimuli/pictures/1515_fw.png	260.3231670856476	
62	60.89334011077881	picture	0		89	60.0	/experiments/knapen_AOT/AOT_stimuli/pictures/0173_fw.png	260.3323621749878	0.7429540157318115
62	61.61909604072571	response	0	k		60.0	/experiments/knapen_AOT/AOT_stimuli/pictures/0173_fw.png	261.0581181049347	
63	61.63629412651062	picture	0		110	61.0	/experiments/knapen_AOT/AOT_stimuli/pictures/0454_fw.png	261.0753161907196	0.9166779518127441
63	62.54256820678711	response	0	k		61.0	/experiments/knapen_AOT/AOT_stimuli/pictures/0454_fw.png	261.9815902709961	
64	62.552972078323364	picture	0		106	62.0	/experiments/knapen_AOT/AOT_stimuli/pictures/0804_fw.png	261.99199414253235	0.8819959163665771
64	63.41924500465393	response	0	j		62.0	/experiments/knapen_AOT/AOT_stimuli/pictures/0804_fw.png	262.8582670688629	
65	63.43496799468994	picture	0		124	63.0	/experiments/knapen_AOT/AOT_stimuli/pictures/1296_fw.png	262.8739900588989	1.034703016281128
65	64.4591691493988	response	0	k		63.0	/experiments/knapen_AOT/AOT_stimuli/pictures/1296_fw.png	263.8981912136078	
66	64.46967101097107	picture	0		124	64.0	/experiments/knapen_AOT/AOT_stimuli/pictures/0750_fw.png	263.90869307518005	1.034743070602417
66	65.4925811290741	response	0	k		64.0	/experiments/knapen_AOT/AOT_stimuli/pictures/0750_fw.png	264.9316031932831	
67	65.50441408157349	picture	0		97	65.0	/experiments/knapen_AOT/AOT_stimuli/pictures/1284_fw.png	264.94343614578247	0.8055210113525391
67	66.3008451461792	response	0	j		65.0	/experiments/knapen_AOT/AOT_stimuli/pictures/1284_fw.png	265.7398672103882	
68	66.30993509292603	picture	0		152	66.0	/experiments/knapen_AOT/AOT_stimuli/pictures/1619_fw.png	265.748957157135	1.2708821296691895
68	67.56755304336548	response	0	k		66.0	/experiments/knapen_AOT/AOT_stimuli/pictures/1619_fw.png	267.00657510757446	
69	67.58081722259521	picture	0		93	67.0	/experiments/knapen_AOT/AOT_stimuli/pictures/1912_fw.png	267.0198392868042	0.7782268524169922
69	68.35086417198181	response	0	j		67.0	/experiments/knapen_AOT/AOT_stimuli/pictures/1912_fw.png	267.7898862361908	
70	68.3590440750122	picture	0		105	68.0	/experiments/knapen_AOT/AOT_stimuli/pictures/1444_fw.png	267.7980661392212	0.8750209808349609
70	69.21911716461182	response	0	j		68.0	/experiments/knapen_AOT/AOT_stimuli/pictures/1444_fw.png	268.6581392288208	
71	69.23406505584717	picture	0		97	69.0	/experiments/knapen_AOT/AOT_stimuli/pictures/0579_fw.png	268.67308712005615	0.8120331764221191
71	70.02753710746765	response	0	j		69.0	/experiments/knapen_AOT/AOT_stimuli/pictures/0579_fw.png	269.46655917167664	
72	70.04609823226929	picture	0		87	70.0	/experiments/knapen_AOT/AOT_stimuli/pictures/1909_fw.png	269.48512029647827	0.7639338970184326
72	70.80090713500977	response	0	j		70.0	/experiments/knapen_AOT/AOT_stimuli/pictures/1909_fw.png	270.23992919921875	
73	70.81003212928772	picture	0		108	71.0	/experiments/knapen_AOT/AOT_stimuli/pictures/0002_fw.png	270.2490541934967	0.9027230739593506
73	71.70094609260559	response	0	k		71.0	/experiments/knapen_AOT/AOT_stimuli/pictures/0002_fw.png	271.1399681568146	
74	71.71275520324707	picture	0		98	72.0	/experiments/knapen_AOT/AOT_stimuli/pictures/2108_fw.png	271.15177726745605	0.8130419254302979
74	72.51758909225464	response	0	k		72.0	/experiments/knapen_AOT/AOT_stimuli/pictures/2108_fw.png	271.9566111564636	
75	72.52579712867737	picture	0		273	73.0	/experiments/knapen_AOT/AOT_stimuli/pictures/2174_fw.png	271.96481919288635	2.2772629261016846
75	74.79274010658264	response	0	k		73.0	/experiments/knapen_AOT/AOT_stimuli/pictures/2174_fw.png	274.2317621707916	
76	74.80306005477905	picture	0		107	74.0	/experiments/knapen_AOT/AOT_stimuli/pictures/0547_fw.png	274.24208211898804	0.8894641399383545
76	75.6842770576477	response	0	k		74.0	/experiments/knapen_AOT/AOT_stimuli/pictures/0547_fw.png	275.1232991218567	
77	75.69252419471741	picture	0		101	75.0	/experiments/knapen_AOT/AOT_stimuli/pictures/0801_fw.png	275.1315462589264	0.8466808795928955
77	76.52605319023132	response	0	j		75.0	/experiments/knapen_AOT/AOT_stimuli/pictures/0801_fw.png	275.9650752544403	
78	76.5392050743103	picture	0		109	76.0	/experiments/knapen_AOT/AOT_stimuli/pictures/1601_fw.png	275.9782271385193	0.9166650772094727
78	77.43586421012878	response	0	j		76.0	/experiments/knapen_AOT/AOT_stimuli/pictures/1601_fw.png	276.87488627433777	
79	77.45587015151978	picture	0		105	77.0	/experiments/knapen_AOT/AOT_stimuli/pictures/0419_fw.png	276.89489221572876	0.8819749355316162
79	78.32610607147217	response	0	k		77.0	/experiments/knapen_AOT/AOT_stimuli/pictures/0419_fw.png	277.76512813568115	
80	78.33784508705139	picture	0		139	78.0	/experiments/knapen_AOT/AOT_stimuli/pictures/1066_fw.png	277.7768671512604	1.1598179340362549
80	79.48437714576721	response	0	k		78.0	/experiments/knapen_AOT/AOT_stimuli/pictures/1066_fw.png	278.9233992099762	
81	79.49766302108765	picture	0		92	79.0	/experiments/knapen_AOT/AOT_stimuli/pictures/0835_fw.png	278.93668508529663	0.7707791328430176
81	80.2593240737915	response	0	j		79.0	/experiments/knapen_AOT/AOT_stimuli/pictures/0835_fw.png	279.6983461380005	
82	80.26844215393066	picture	0		121	80.0	/experiments/knapen_AOT/AOT_stimuli/pictures/1186_fw.png	279.70746421813965	1.007443904876709
82	81.26780414581299	response	0	j		80.0	/experiments/knapen_AOT/AOT_stimuli/pictures/1186_fw.png	280.706826210022	
83	81.27588605880737	picture	0		103	81.0	/experiments/knapen_AOT/AOT_stimuli/pictures/0892_fw.png	280.71490812301636	0.8605599403381348
83	82.12608003616333	response	0	k		81.0	/experiments/knapen_AOT/AOT_stimuli/pictures/0892_fw.png	281.5651021003723	
84	82.13644599914551	picture	0		109	82.0	/experiments/knapen_AOT/AOT_stimuli/pictures/1666_fw.png	281.5754680633545	0.90972900390625
84	83.0276141166687	response	0	j		82.0	/experiments/knapen_AOT/AOT_stimuli/pictures/1666_fw.png	282.4666361808777	
85	83.04617500305176	picture	0		127	83.0	/experiments/knapen_AOT/AOT_stimuli/pictures/0208_fw.png	282.48519706726074	1.0555951595306396
85	84.0928521156311	response	0	j		83.0	/experiments/knapen_AOT/AOT_stimuli/pictures/0208_fw.png	283.5318741798401	
86	84.1017701625824	picture	0		157	84.0	/experiments/knapen_AOT/AOT_stimuli/pictures/1116_fw.png	283.5407922267914	1.312511920928955
86	85.39429306983948	response	0	k		84.0	/experiments/knapen_AOT/AOT_stimuli/pictures/1116_fw.png	284.83331513404846	
87	85.41428208351135	picture	0		89	85.0	/experiments/knapen_AOT/AOT_stimuli/pictures/0030_fw.png	284.85330414772034	0.7500090599060059
87	86.1511402130127	response	0	j		85.0	/experiments/knapen_AOT/AOT_stimuli/pictures/0030_fw.png	285.5901622772217	
88	86.16429114341736	picture	0		88	86.0	/experiments/knapen_AOT/AOT_stimuli/pictures/0172_fw.png	285.60331320762634	0.7366740703582764
88	86.8927800655365	response	0	j		86.0	/experiments/knapen_AOT/AOT_stimuli/pictures/0172_fw.png	286.3318021297455	
89	86.90096521377563	picture	0		97	87.0	/experiments/knapen_AOT/AOT_stimuli/pictures/0495_fw.png	286.3399872779846	0.8120059967041016
89	87.7010931968689	response	0	j		87.0	/experiments/knapen_AOT/AOT_stimuli/pictures/0495_fw.png	287.1401152610779	
90	87.71297121047974	picture	0		90	88.0	/experiments/knapen_AOT/AOT_stimuli/pictures/1509_fw.png	287.1519932746887	0.7499308586120605
90	88.4512050151825	response	0	k		88.0	/experiments/knapen_AOT/AOT_stimuli/pictures/1509_fw.png	287.8902270793915	
91	88.4629020690918	picture	0		150	89.0	/experiments/knapen_AOT/AOT_stimuli/pictures/1409_fw.png	287.9019241333008	1.2500150203704834
91	89.70123410224915	response	0	k		89.0	/experiments/knapen_AOT/AOT_stimuli/pictures/1409_fw.png	289.14025616645813	
92	89.71291708946228	picture	0		109	90.0	/experiments/knapen_AOT/AOT_stimuli/pictures/0541_fw.png	289.15193915367126	0.9097080230712891
92	90.60265803337097	response	0	k		90.0	/experiments/knapen_AOT/AOT_stimuli/pictures/0541_fw.png	290.04168009757996	
93	90.62262511253357	picture	0		96	91.0	/experiments/knapen_AOT/AOT_stimuli/pictures/1396_fw.png	290.06164717674255	0.798612117767334
93	91.40269112586975	response	0	j		91.0	/experiments/knapen_AOT/AOT_stimuli/pictures/1396_fw.png	290.84171319007874	
94	91.4212372303009	picture	0		156	92.0	/experiments/knapen_AOT/AOT_stimuli/pictures/0586_fw.png	290.8602592945099	1.29862380027771
94	92.70956301689148	response	0	k		92.0	/experiments/knapen_AOT/AOT_stimuli/pictures/0586_fw.png	292.14858508110046	
95	92.71986103057861	picture	0		88	93.0	/experiments/knapen_AOT/AOT_stimuli/pictures/1016_fw.png	292.1588830947876	0.7361249923706055
95	93.44303321838379	response	0	j		93.0	/experiments/knapen_AOT/AOT_stimuli/pictures/1016_fw.png	292.8820552825928	
96	93.45598602294922	picture	0		142	94.0	/experiments/knapen_AOT/AOT_stimuli/pictures/0725_fw.png	292.8950080871582	1.1805710792541504
96	94.62618708610535	response	0	j		94.0	/experiments/knapen_AOT/AOT_stimuli/pictures/0725_fw.png	294.06520915031433	
97	94.63655710220337	picture	0		101	95.0	/experiments/knapen_AOT/AOT_stimuli/pictures/0558_fw.png	294.07557916641235	0.8402431011199951
97	95.46783900260925	response	0	j		95.0	/experiments/knapen_AOT/AOT_stimuli/pictures/0558_fw.png	294.90686106681824	
98	95.47680020332336	picture	0		114	96.0	/experiments/knapen_AOT/AOT_stimuli/pictures/2046_fw.png	294.91582226753235	0.951422929763794
98	96.41142702102661	response	0	k		96.0	/experiments/knapen_AOT/AOT_stimuli/pictures/2046_fw.png	295.8504490852356	
99	96.42822313308716	picture	0		96	97.0	/experiments/knapen_AOT/AOT_stimuli/pictures/1368_fw.png	295.86724519729614	0.7987079620361328
99	97.21116709709167	response	0	j		97.0	/experiments/knapen_AOT/AOT_stimuli/pictures/1368_fw.png	296.65018916130066	
100	97.22693109512329	picture	0		133	98.0	/experiments/knapen_AOT/AOT_stimuli/pictures/1171_fw.png	296.6659531593323	1.1110539436340332
100	98.32624506950378	response	0	j		98.0	/experiments/knapen_AOT/AOT_stimuli/pictures/1171_fw.png	297.76526713371277	
101	98.33798503875732	picture	0		246	99.0	/experiments/knapen_AOT/AOT_stimuli/pictures/0425_fw.png	297.7770071029663	2.0485830307006836
101	100.37630605697632	response	0	j		99.0	/experiments/knapen_AOT/AOT_stimuli/pictures/0425_fw.png	299.8153281211853	
102	100.38656806945801	picture	0		100	100.0	/experiments/knapen_AOT/AOT_stimuli/pictures/0638_fw.png	299.825590133667	0.8333821296691895
102	101.20291805267334	response	0	k		100.0	/experiments/knapen_AOT/AOT_stimuli/pictures/0638_fw.png	300.6419401168823	
103	101.2199501991272	picture	0		100	101.0	/experiments/knapen_AOT/AOT_stimuli/pictures/0020_fw.png	300.6589722633362	0.8333230018615723
103	102.04305219650269	response	0	k		101.0	/experiments/knapen_AOT/AOT_stimuli/pictures/0020_fw.png	301.48207426071167	
104	102.05327320098877	picture	0		101	102.0	/experiments/knapen_AOT/AOT_stimuli/pictures/0106_fw.png	301.49229526519775	0.840378999710083
104	102.88460803031921	response	0	k		102.0	/experiments/knapen_AOT/AOT_stimuli/pictures/0106_fw.png	302.3236300945282	
105	102.89365220069885	picture	0		95	103.0	/experiments/knapen_AOT/AOT_stimuli/pictures/1457_fw.png	302.33267426490784	0.7915799617767334
105	103.6762912273407	response	0	j		103.0	/experiments/knapen_AOT/AOT_stimuli/pictures/1457_fw.png	303.1153132915497	
106	103.68523216247559	picture	0		149	104.0	/experiments/knapen_AOT/AOT_stimuli/pictures/1092_fw.png	303.12425422668457	1.2430438995361328
106	104.91798615455627	response	0	k		104.0	/experiments/knapen_AOT/AOT_stimuli/pictures/1092_fw.png	304.35700821876526	
107	104.92827606201172	picture	0		108	105.0	/experiments/knapen_AOT/AOT_stimuli/pictures/0749_fw.png	304.3672981262207	0.9028110504150391
107	105.81802415847778	response	0	k		105.0	/experiments/knapen_AOT/AOT_stimuli/pictures/0749_fw.png	305.25704622268677	
108	105.83108711242676	picture	0		98	106.0	/experiments/knapen_AOT/AOT_stimuli/pictures/0036_fw.png	305.27010917663574	0.8125209808349609
108	106.63467001914978	response	0	k		106.0	/experiments/knapen_AOT/AOT_stimuli/pictures/0036_fw.png	306.07369208335876	
109	106.64360809326172	picture	0		125	107.0	/experiments/knapen_AOT/AOT_stimuli/pictures/2030_fw.png	306.0826301574707	1.0416250228881836
109	107.67633819580078	response	0	k		107.0	/experiments/knapen_AOT/AOT_stimuli/pictures/2030_fw.png	307.11536026000977	
110	107.6852331161499	picture	0		207	108.0	/experiments/knapen_AOT/AOT_stimuli/pictures/1650_fw.png	307.1242551803589	1.7292029857635498
110	109.40154719352722	response	0	j		108.0	/experiments/knapen_AOT/AOT_stimuli/pictures/1650_fw.png	308.8405692577362	
111	109.41443610191345	picture	0		167	109.0	/experiments/knapen_AOT/AOT_stimuli/pictures/1208_fw.png	308.85345816612244	1.3958680629730225
111	110.79476118087769	response	0	j		109.0	/experiments/knapen_AOT/AOT_stimuli/pictures/1208_fw.png	310.23378324508667	
112	110.81030416488647	picture	0		96	110.0	/experiments/knapen_AOT/AOT_stimuli/pictures/1077_fw.png	310.24932622909546	0.7993030548095703
112	111.59467720985413	response	0	k		110.0	/experiments/knapen_AOT/AOT_stimuli/pictures/1077_fw.png	311.0336992740631	
113	111.60960721969604	picture	0		104	111.0	/experiments/knapen_AOT/AOT_stimuli/pictures/0391_fw.png	311.04862928390503	0.8674108982086182
113	112.4681601524353	response	0	k		111.0	/experiments/knapen_AOT/AOT_stimuli/pictures/0391_fw.png	311.9071822166443	
114	112.47701811790466	picture	0		199	112.0	/experiments/knapen_AOT/AOT_stimuli/pictures/1919_fw.png	311.91604018211365	1.687464952468872
114	114.1515281200409	response	0	j		112.0	/experiments/knapen_AOT/AOT_stimuli/pictures/1919_fw.png	313.5905501842499	
115	114.16448307037354	picture	0		106	113.0	/experiments/knapen_AOT/AOT_stimuli/pictures/1378_fw.png	313.6035051345825	0.8888890743255615
115	115.04315114021301	response	0	j		113.0	/experiments/knapen_AOT/AOT_stimuli/pictures/1378_fw.png	314.482173204422	
116	115.0533721446991	picture	0		102	114.0	/experiments/knapen_AOT/AOT_stimuli/pictures/1941_fw.png	314.4923942089081	0.8480830192565918
116	115.89314818382263	response	0	k		114.0	/experiments/knapen_AOT/AOT_stimuli/pictures/1941_fw.png	315.3321702480316	
117	115.90145516395569	picture	0		149	115.0	/experiments/knapen_AOT/AOT_stimuli/pictures/0180_fw.png	315.3404772281647	1.2422049045562744
117	117.13480305671692	response	0	k		115.0	/experiments/knapen_AOT/AOT_stimuli/pictures/0180_fw.png	316.5738251209259	
118	117.14366006851196	picture	0		166	116.0	/experiments/knapen_AOT/AOT_stimuli/pictures/1558_fw.png	316.58268213272095	1.382775068283081
118	118.51881504058838	response	0	k		116.0	/experiments/knapen_AOT/AOT_stimuli/pictures/1558_fw.png	317.95783710479736	
119	118.52643513679504	picture	0		93	117.0	/experiments/knapen_AOT/AOT_stimuli/pictures/1740_fw.png	317.965457201004	0.7769770622253418
119	119.29315519332886	response	0	k		117.0	/experiments/knapen_AOT/AOT_stimuli/pictures/1740_fw.png	318.73217725753784	
120	119.30341219902039	picture	0		104	118.0	/experiments/knapen_AOT/AOT_stimuli/pictures/0449_fw.png	318.74243426322937	0.8681488037109375
120	120.15986514091492	response	0	j		118.0	/experiments/knapen_AOT/AOT_stimuli/pictures/0449_fw.png	319.5988872051239	
121	120.17156100273132	picture	0		119	119.0	/experiments/knapen_AOT/AOT_stimuli/pictures/1487_fw.png	319.6105830669403	0.9929511547088623
121	121.14539504051208	response	0	k		119.0	/experiments/knapen_AOT/AOT_stimuli/pictures/1487_fw.png	320.58441710472107	
122	121.16451215744019	picture	0		101	120.0	/experiments/knapen_AOT/AOT_stimuli/pictures/1842_fw.png	320.60353422164917	0.8403358459472656
122	121.99336910247803	response	0	k		120.0	/experiments/knapen_AOT/AOT_stimuli/pictures/1842_fw.png	321.432391166687	
123	122.00484800338745	picture	0		96	121.0	/experiments/knapen_AOT/AOT_stimuli/pictures/0577_fw.png	321.44387006759644	0.7986781597137451
123	122.78671002388	response	0	j		121.0	/experiments/knapen_AOT/AOT_stimuli/pictures/0577_fw.png	322.225732088089	
124	122.8035261631012	picture	0		127	122.0	/experiments/knapen_AOT/AOT_stimuli/pictures/0791_fw.png	322.2425482273102	1.0562398433685303
124	123.85156416893005	response	0	k		122.0	/experiments/knapen_AOT/AOT_stimuli/pictures/0791_fw.png	323.29058623313904	
125	123.85976600646973	picture	0		97	123.0	/experiments/knapen_AOT/AOT_stimuli/pictures/1692_fw.png	323.2987880706787	0.8118011951446533
125	124.65993309020996	response	0	j		123.0	/experiments/knapen_AOT/AOT_stimuli/pictures/1692_fw.png	324.09895515441895	
126	124.67156720161438	picture	0		103	124.0	/experiments/knapen_AOT/AOT_stimuli/pictures/0121_fw.png	324.11058926582336	0.8550088405609131
126	125.5188992023468	response	0	j		124.0	/experiments/knapen_AOT/AOT_stimuli/pictures/0121_fw.png	324.9579212665558	
127	125.5265760421753	picture	0		104	125.0	/experiments/knapen_AOT/AOT_stimuli/pictures/1931_fw.png	324.9655981063843	0.8671660423278809
127	126.385094165802	response	0	j		125.0	/experiments/knapen_AOT/AOT_stimuli/pictures/1931_fw.png	325.824116230011	
128	126.39374208450317	picture	0		92	126.0	/experiments/knapen_AOT/AOT_stimuli/pictures/1510_fw.png	325.83276414871216	0.7708520889282227
128	127.1454381942749	response	0	k		126.0	/experiments/knapen_AOT/AOT_stimuli/pictures/1510_fw.png	326.5844602584839	
129	127.1645941734314	picture	0		87	127.0	/experiments/knapen_AOT/AOT_stimuli/pictures/1617_fw.png	326.6036162376404	0.7222180366516113
129	127.87668418884277	response	0	k		127.0	/experiments/knapen_AOT/AOT_stimuli/pictures/1617_fw.png	327.31570625305176	
130	127.88681221008301	picture	0		158	128.0	/experiments/knapen_AOT/AOT_stimuli/pictures/0683_fw.png	327.325834274292	1.3194589614868164
130	129.1932852268219	response	0	k		128.0	/experiments/knapen_AOT/AOT_stimuli/pictures/0683_fw.png	328.6323072910309	
131	129.20627117156982	picture	0		117	129.0	/experiments/knapen_AOT/AOT_stimuli/pictures/2160_fw.png	328.6452932357788	0.9792239665985107
131	130.16997909545898	response	0	k		129.0	/experiments/knapen_AOT/AOT_stimuli/pictures/2160_fw.png	329.60900115966797	
132	130.18549513816833	picture	0		252	130.0	/experiments/knapen_AOT/AOT_stimuli/pictures/1131_fw.png	329.6245172023773	2.1041269302368164
132	132.27681517601013	response	0	j		130.0	/experiments/knapen_AOT/AOT_stimuli/pictures/1131_fw.png	331.7158372402191	
133	132.28962206840515	picture	0		94	131.0	/experiments/knapen_AOT/AOT_stimuli/pictures/1096_fw.png	331.72864413261414	0.791780948638916
133	133.06835103034973	response	0	k		131.0	/experiments/knapen_AOT/AOT_stimuli/pictures/1096_fw.png	332.5073730945587	
134	133.08140301704407	picture	0		126	132.0	/experiments/knapen_AOT/AOT_stimuli/pictures/1146_fw.png	332.52042508125305	1.048539161682129
134	134.11835312843323	response	0	j		132.0	/experiments/knapen_AOT/AOT_stimuli/pictures/1146_fw.png	333.5573751926422	
135	134.1299421787262	picture	0		121	133.0	/experiments/knapen_AOT/AOT_stimuli/pictures/1272_fw.png	333.5689642429352	1.006911039352417
135	135.126718044281	response	0	k		133.0	/experiments/knapen_AOT/AOT_stimuli/pictures/1272_fw.png	334.56574010849	
136	135.1368532180786	picture	0		119	134.0	/experiments/knapen_AOT/AOT_stimuli/pictures/1001_fw.png	334.5758752822876	0.993034839630127
136	136.11840319633484	response	0	j		134.0	/experiments/knapen_AOT/AOT_stimuli/pictures/1001_fw.png	335.5574252605438	
137	136.12988805770874	picture	0		104	135.0	/experiments/knapen_AOT/AOT_stimuli/pictures/1841_fw.png	335.5689101219177	0.8681001663208008
137	136.98506212234497	response	0	k		135.0	/experiments/knapen_AOT/AOT_stimuli/pictures/1841_fw.png	336.42408418655396	
138	136.99798822402954	picture	0		91	136.0	/experiments/knapen_AOT/AOT_stimuli/pictures/1138_fw.png	336.4370102882385	0.7569458484649658
138	137.7367241382599	response	0	j		136.0	/experiments/knapen_AOT/AOT_stimuli/pictures/1138_fw.png	337.1757462024689	
139	137.7549340724945	picture	0		107	137.0	/experiments/knapen_AOT/AOT_stimuli/pictures/0761_fw.png	337.1939561367035	0.8888881206512451
139	138.63508915901184	response	0	j		137.0	/experiments/knapen_AOT/AOT_stimuli/pictures/0761_fw.png	338.0741112232208	
140	138.64382219314575	picture	0		86	138.0	/experiments/knapen_AOT/AOT_stimuli/pictures/1524_fw.png	338.08284425735474	0.7161509990692139
140	139.34503507614136	response	0	j		138.0	/experiments/knapen_AOT/AOT_stimuli/pictures/1524_fw.png	338.78405714035034	
141	139.35997319221497	picture	0		115	139.0	/experiments/knapen_AOT/AOT_stimuli/pictures/1268_fw.png	338.79899525642395	0.9582939147949219
141	140.3106391429901	response	0	k		139.0	/experiments/knapen_AOT/AOT_stimuli/pictures/1268_fw.png	339.7496612071991	
142	140.3182671070099	picture	0		90	140.0	/experiments/knapen_AOT/AOT_stimuli/pictures/0678_fw.png	339.7572891712189	0.7584409713745117
142	141.06075406074524	response	0	k		140.0	/experiments/knapen_AOT/AOT_stimuli/pictures/0678_fw.png	340.4997761249542	
143	141.0767080783844	picture	0		106	141.0	/experiments/knapen_AOT/AOT_stimuli/pictures/0475_fw.png	340.5157301425934	0.8866219520568848
143	141.9451150894165	response	0	k		141.0	/experiments/knapen_AOT/AOT_stimuli/pictures/0475_fw.png	341.3841371536255	
144	141.96333003044128	picture	0		119	142.0	/experiments/knapen_AOT/AOT_stimuli/pictures/1630_fw.png	341.40235209465027	0.9930381774902344
144	142.93732905387878	response	0	k		142.0	/experiments/knapen_AOT/AOT_stimuli/pictures/1630_fw.png	342.37635111808777	
145	142.95636820793152	picture	0		296	143.0	/experiments/knapen_AOT/AOT_stimuli/pictures/0525_fw.png	342.3953902721405	2.472301959991455
145	145.41855120658875	response	0	k		143.0	/experiments/knapen_AOT/AOT_stimuli/pictures/0525_fw.png	344.85757327079773	
146	145.42867016792297	picture	0		136	144.0	/experiments/knapen_AOT/AOT_stimuli/pictures/1501_fw.png	344.86769223213196	1.1319589614868164
146	146.54508209228516	response	0	k		144.0	/experiments/knapen_AOT/AOT_stimuli/pictures/1501_fw.png	345.98410415649414	
147	146.5606291294098	picture	0		113	145.0	/experiments/knapen_AOT/AOT_stimuli/pictures/1374_fw.png	345.9996511936188	0.944382905960083
147	147.4935441017151	response	0	k		145.0	/experiments/knapen_AOT/AOT_stimuli/pictures/1374_fw.png	346.9325661659241	
148	147.50501203536987	picture	0		121	146.0	/experiments/knapen_AOT/AOT_stimuli/pictures/0127_fw.png	346.94403409957886	1.0069479942321777
148	148.50195407867432	response	0	j		146.0	/experiments/knapen_AOT/AOT_stimuli/pictures/0127_fw.png	347.9409761428833	
149	148.51196002960205	picture	0		93	147.0	/experiments/knapen_AOT/AOT_stimuli/pictures/0519_fw.png	347.95098209381104	0.7777800559997559
149	149.277006149292	response	0	k		147.0	/experiments/knapen_AOT/AOT_stimuli/pictures/0519_fw.png	348.716028213501	
150	149.2897400856018	picture	0		149	148.0	/experiments/knapen_AOT/AOT_stimuli/pictures/0789_fw.png	348.7287621498108	1.250028133392334
150	150.5206332206726	response	0	j		148.0	/experiments/knapen_AOT/AOT_stimuli/pictures/0789_fw.png	349.9596552848816	
151	150.53976821899414	picture	0		98	149.0	/experiments/knapen_AOT/AOT_stimuli/pictures/0405_fw.png	349.9787902832031	0.8542180061340332
151	151.38522219657898	response	0	k		149.0	/experiments/knapen_AOT/AOT_stimuli/pictures/0405_fw.png	350.82424426078796	
152	151.39398622512817	picture	0		110	150.0	/experiments/knapen_AOT/AOT_stimuli/pictures/0997_fw.png	350.83300828933716	0.9166378974914551
152	152.30192017555237	response	0	k		150.0	/experiments/knapen_AOT/AOT_stimuli/pictures/0997_fw.png	351.74094223976135	
153	152.31062412261963	picture	0		97	151.0	/experiments/knapen_AOT/AOT_stimuli/pictures/2021_fw.png	351.7496461868286	0.8124539852142334
153	153.110276222229	response	0	k		151.0	/experiments/knapen_AOT/AOT_stimuli/pictures/2021_fw.png	352.549298286438	
154	153.12307810783386	picture	0		99	152.0	/experiments/knapen_AOT/AOT_stimuli/pictures/1964_fw.png	352.56210017204285	0.8204240798950195
154	153.9286332130432	response	0	k		152.0	/experiments/knapen_AOT/AOT_stimuli/pictures/1964_fw.png	353.3676552772522	
155	153.94350218772888	picture	0		143	153.0	/experiments/knapen_AOT/AOT_stimuli/pictures/0887_fw.png	353.38252425193787	1.1935608386993408
155	155.12035608291626	response	0	k		153.0	/experiments/knapen_AOT/AOT_stimuli/pictures/0887_fw.png	354.55937814712524	
156	155.13706302642822	picture	0		145	154.0	/experiments/knapen_AOT/AOT_stimuli/pictures/1822_fw.png	354.5760850906372	1.2082901000976562
156	156.32869815826416	response	0	k		154.0	/experiments/knapen_AOT/AOT_stimuli/pictures/1822_fw.png	355.76772022247314	
157	156.34535312652588	picture	0		108	155.0	/experiments/knapen_AOT/AOT_stimuli/pictures/1151_fw.png	355.78437519073486	0.9027290344238281
157	157.23533415794373	response	0	j		155.0	/experiments/knapen_AOT/AOT_stimuli/pictures/1151_fw.png	356.6743562221527	
158	157.2480821609497	picture	0		106	156.0	/experiments/knapen_AOT/AOT_stimuli/pictures/0221_fw.png	356.6871042251587	0.8820018768310547
158	158.11877918243408	response	0	k		156.0	/experiments/knapen_AOT/AOT_stimuli/pictures/0221_fw.png	357.55780124664307	
159	158.13008403778076	picture	0		89	157.0	/experiments/knapen_AOT/AOT_stimuli/pictures/2109_fw.png	357.56910610198975	0.7430369853973389
159	158.86038303375244	response	0	j		157.0	/experiments/knapen_AOT/AOT_stimuli/pictures/2109_fw.png	358.2994050979614	
160	158.8731210231781	picture	0		92	158.0	/experiments/knapen_AOT/AOT_stimuli/pictures/0963_fw.png	358.3121430873871	0.7638812065124512
160	159.62713813781738	response	0	k		158.0	/experiments/knapen_AOT/AOT_stimuli/pictures/0963_fw.png	359.06616020202637	
161	159.63700222969055	picture	0		85	159.0	/experiments/knapen_AOT/AOT_stimuli/pictures/1078_fw.png	359.07602429389954	0.7083728313446045
161	160.32865500450134	response	0	j		159.0	/experiments/knapen_AOT/AOT_stimuli/pictures/1078_fw.png	359.7676770687103	
162	160.34537506103516	picture	0		83	160.0	/experiments/knapen_AOT/AOT_stimuli/pictures/0915_fw.png	359.78439712524414	0.6944351196289062
162	161.02711009979248	response	0	j		160.0	/experiments/knapen_AOT/AOT_stimuli/pictures/0915_fw.png	360.46613216400146	
163	161.03981018066406	picture	0		136	161.0	/experiments/knapen_AOT/AOT_stimuli/pictures/0601_fw.png	360.47883224487305	1.1320068836212158
163	162.16037321090698	response	0	j		161.0	/experiments/knapen_AOT/AOT_stimuli/pictures/0601_fw.png	361.59939527511597	
164	162.17181706428528	picture	0		98	162.0	/experiments/knapen_AOT/AOT_stimuli/pictures/0145_fw.png	361.61083912849426	0.8134851455688477
164	162.97759914398193	response	0	k		162.0	/experiments/knapen_AOT/AOT_stimuli/pictures/0145_fw.png	362.4166212081909	
165	162.98530220985413	picture	0		97	163.0	/experiments/knapen_AOT/AOT_stimuli/pictures/1467_fw.png	362.4243242740631	0.8114809989929199
165	163.785462141037	response	0	k		163.0	/experiments/knapen_AOT/AOT_stimuli/pictures/1467_fw.png	363.224484205246	
166	163.79678320884705	picture	0		108	164.0	/experiments/knapen_AOT/AOT_stimuli/pictures/1104_fw.png	363.23580527305603	0.90277099609375
166	164.6859152317047	response	0	k		164.0	/experiments/knapen_AOT/AOT_stimuli/pictures/1104_fw.png	364.1249372959137	
167	164.6995542049408	picture	0		120	165.0	/experiments/knapen_AOT/AOT_stimuli/pictures/1413_fw.png	364.1385762691498	1.00699782371521
167	165.6938362121582	response	0	j		165.0	/experiments/knapen_AOT/AOT_stimuli/pictures/1413_fw.png	365.1328582763672	
168	165.706552028656	picture	0		108	166.0	/experiments/knapen_AOT/AOT_stimuli/pictures/1579_fw.png	365.145574092865	0.8958570957183838
168	166.59386110305786	response	0	j		166.0	/experiments/knapen_AOT/AOT_stimuli/pictures/1579_fw.png	366.03288316726685	
169	166.6024091243744	picture	0		97	167.0	/experiments/knapen_AOT/AOT_stimuli/pictures/1555_fw.png	366.0414311885834	0.8124649524688721
169	167.40218710899353	response	0	k		167.0	/experiments/knapen_AOT/AOT_stimuli/pictures/1555_fw.png	366.8412091732025	
170	167.41487407684326	picture	0		114	168.0	/experiments/knapen_AOT/AOT_stimuli/pictures/1325_fw.png	366.85389614105225	0.9513490200042725
170	168.3525140285492	response	0	k		168.0	/experiments/knapen_AOT/AOT_stimuli/pictures/1325_fw.png	367.7915360927582	
171	168.36622309684753	picture	0		91	169.0	/experiments/knapen_AOT/AOT_stimuli/pictures/0095_fw.png	367.8052451610565	0.7639169692993164
171	169.11216807365417	response	0	k		169.0	/experiments/knapen_AOT/AOT_stimuli/pictures/0095_fw.png	368.55119013786316	
172	169.13014006614685	picture	0		143	170.0	/experiments/knapen_AOT/AOT_stimuli/pictures/0412_fw.png	368.56916213035583	1.1944341659545898
172	170.31086015701294	response	0	k		170.0	/experiments/knapen_AOT/AOT_stimuli/pictures/0412_fw.png	369.7498822212219	
173	170.32457423210144	picture	0		88	171.0	/experiments/knapen_AOT/AOT_stimuli/pictures/0009_fw.png	369.7635962963104	0.7361979484558105
173	171.0521810054779	response	0	k		171.0	/experiments/knapen_AOT/AOT_stimuli/pictures/0009_fw.png	370.4912030696869	
174	171.06077218055725	picture	0		128	172.0	/experiments/knapen_AOT/AOT_stimuli/pictures/0263_fw.png	370.49979424476624	1.0694029331207275
174	172.11210107803345	response	0	k		172.0	/experiments/knapen_AOT/AOT_stimuli/pictures/0263_fw.png	371.55112314224243	
175	172.13017511367798	picture	0		97	173.0	/experiments/knapen_AOT/AOT_stimuli/pictures/0985_fw.png	371.56919717788696	0.8055510520935059
175	172.9204511642456	response	0	k		173.0	/experiments/knapen_AOT/AOT_stimuli/pictures/0985_fw.png	372.3594732284546	
176	172.93572616577148	picture	0		148	174.0	/experiments/knapen_AOT/AOT_stimuli/pictures/2016_fw.png	372.37474822998047	1.2361249923706055
176	174.16059017181396	response	0	k		174.0	/experiments/knapen_AOT/AOT_stimuli/pictures/2016_fw.png	373.59961223602295	
177	174.1718511581421	picture	0		165	175.0	/experiments/knapen_AOT/AOT_stimuli/pictures/1434_fw.png	373.6108732223511	1.375014066696167
177	175.52885103225708	response	0	k		175.0	/experiments/knapen_AOT/AOT_stimuli/pictures/1434_fw.png	374.96787309646606	
178	175.54686522483826	picture	0		184	176.0	/experiments/knapen_AOT/AOT_stimuli/pictures/1005_fw.png	374.98588728904724	1.534721851348877
178	177.06896710395813	response	0	k		176.0	/experiments/knapen_AOT/AOT_stimuli/pictures/1005_fw.png	376.5079891681671	
179	177.08158707618713	picture	0		105	177.0	/experiments/knapen_AOT/AOT_stimuli/pictures/0027_fw.png	376.5206091403961	0.8749899864196777
179	177.94391322135925	response	0	j		177.0	/experiments/knapen_AOT/AOT_stimuli/pictures/0027_fw.png	377.38293528556824	
180	177.9565770626068	picture	0		90	178.0	/experiments/knapen_AOT/AOT_stimuli/pictures/1253_fw.png	377.3955991268158	0.7500460147857666
180	178.69402503967285	response	0	j		178.0	/experiments/knapen_AOT/AOT_stimuli/pictures/1253_fw.png	378.13304710388184	
181	178.70662307739258	picture	0		108	179.0	/experiments/knapen_AOT/AOT_stimuli/pictures/1537_fw.png	378.14564514160156	0.8958699703216553
181	179.5939781665802	response	0	j		179.0	/experiments/knapen_AOT/AOT_stimuli/pictures/1537_fw.png	379.0330002307892	
182	179.60249304771423	picture	0		118	180.0	/experiments/knapen_AOT/AOT_stimuli/pictures/1680_fw.png	379.0415151119232	0.9860630035400391
182	180.57732605934143	response	0	k		180.0	/experiments/knapen_AOT/AOT_stimuli/pictures/1680_fw.png	380.0163481235504	
183	180.58855605125427	picture	0		100	181.0	/experiments/knapen_AOT/AOT_stimuli/pictures/0510_fw.png	380.02757811546326	0.8333840370178223
183	181.41066217422485	response	0	k		181.0	/experiments/knapen_AOT/AOT_stimuli/pictures/0510_fw.png	380.84968423843384	
184	181.4219400882721	picture	0		119	182.0	/experiments/knapen_AOT/AOT_stimuli/pictures/0737_fw.png	380.8609621524811	0.9930219650268555
184	182.40239310264587	response	0	j		182.0	/experiments/knapen_AOT/AOT_stimuli/pictures/0737_fw.png	381.84141516685486	
185	182.41496205329895	picture	0		91	183.0	/experiments/knapen_AOT/AOT_stimuli/pictures/2004_fw.png	381.85398411750793	0.7622060775756836
185	183.16077208518982	response	0	j		183.0	/experiments/knapen_AOT/AOT_stimuli/pictures/2004_fw.png	382.5997941493988	
186	183.17716813087463	picture	0		116	184.0	/experiments/knapen_AOT/AOT_stimuli/pictures/1584_fw.png	382.6161901950836	0.9669530391693115
186	184.12897300720215	response	0	k		184.0	/experiments/knapen_AOT/AOT_stimuli/pictures/1584_fw.png	383.56799507141113	
187	184.14412117004395	picture	0		127	185.0	/experiments/knapen_AOT/AOT_stimuli/pictures/1780_fw.png	383.58314323425293	1.0625200271606445
187	185.1940541267395	response	0	k		185.0	/experiments/knapen_AOT/AOT_stimuli/pictures/1780_fw.png	384.6330761909485	
188	185.2066411972046	picture	0		112	186.0	/experiments/knapen_AOT/AOT_stimuli/pictures/0492_fw.png	384.6456632614136	0.9306838512420654
188	186.12065315246582	response	0	k		186.0	/experiments/knapen_AOT/AOT_stimuli/pictures/0492_fw.png	385.5596752166748	
189	186.13732504844666	picture	0		154	187.0	/experiments/knapen_AOT/AOT_stimuli/pictures/1962_fw.png	385.57634711265564	1.2846250534057617
189	187.410795211792	response	0	k		187.0	/experiments/knapen_AOT/AOT_stimuli/pictures/1962_fw.png	386.849817276001	
190	187.42195010185242	picture	0		119	188.0	/experiments/knapen_AOT/AOT_stimuli/pictures/0976_fw.png	386.8609721660614	0.993074893951416
190	188.40249013900757	response	0	j		188.0	/experiments/knapen_AOT/AOT_stimuli/pictures/0976_fw.png	387.84151220321655	
191	188.41502499580383	picture	0		92	189.0	/experiments/knapen_AOT/AOT_stimuli/pictures/1654_fw.png	387.8540470600128	0.7639291286468506
191	189.16909313201904	response	0	k		189.0	/experiments/knapen_AOT/AOT_stimuli/pictures/1654_fw.png	388.608115196228	
192	189.17895412445068	picture	0		107	190.0	/experiments/knapen_AOT/AOT_stimuli/pictures/0792_fw.png	388.61797618865967	0.8957910537719727
192	190.0610589981079	response	0	k		190.0	/experiments/knapen_AOT/AOT_stimuli/pictures/0792_fw.png	389.5000810623169	
193	190.07474517822266	picture	0		102	191.0	/experiments/knapen_AOT/AOT_stimuli/pictures/1913_fw.png	389.51376724243164	0.8542070388793945
193	190.91236114501953	response	0	j		191.0	/experiments/knapen_AOT/AOT_stimuli/pictures/1913_fw.png	390.3513832092285	
194	190.92895221710205	picture	0		124	192.0	/experiments/knapen_AOT/AOT_stimuli/pictures/0271_fw.png	390.36797428131104	1.0347049236297607
194	191.95250701904297	response	0	j		192.0	/experiments/knapen_AOT/AOT_stimuli/pictures/0271_fw.png	391.39152908325195	
195	191.9636571407318	picture	0		249	193.0	/experiments/knapen_AOT/AOT_stimuli/pictures/0239_fw.png	391.4026792049408	2.111156940460205
195	194.061017036438	response	0	j		193.0	/experiments/knapen_AOT/AOT_stimuli/pictures/0239_fw.png	393.500039100647	
196	194.07481408119202	picture	0		86	194.0	/experiments/knapen_AOT/AOT_stimuli/pictures/0879_fw.png	393.513836145401	0.7221701145172119
196	194.78588318824768	response	0	j		194.0	/experiments/knapen_AOT/AOT_stimuli/pictures/0879_fw.png	394.22490525245667	
197	194.79698419570923	picture	0		96	195.0	/experiments/knapen_AOT/AOT_stimuli/pictures/0897_fw.png	394.2360062599182	0.7987518310546875
197	195.58589720726013	response	0	j		195.0	/experiments/knapen_AOT/AOT_stimuli/pictures/0897_fw.png	395.0249192714691	
198	195.59573602676392	picture	0		150	196.0	/experiments/knapen_AOT/AOT_stimuli/pictures/0445_fw.png	395.0347580909729	1.2499980926513672
198	196.83590722084045	response	0	k		196.0	/experiments/knapen_AOT/AOT_stimuli/pictures/0445_fw.png	396.27492928504944	
199	196.84573411941528	picture	0		92	197.0	/experiments/knapen_AOT/AOT_stimuli/pictures/0151_fw.png	396.28475618362427	0.7650508880615234
199	197.6026840209961	response	0	k		197.0	/experiments/knapen_AOT/AOT_stimuli/pictures/0151_fw.png	397.0417060852051	
200	197.6107850074768	picture	0		174	198.0	/experiments/knapen_AOT/AOT_stimuli/pictures/1649_fw.png	397.0498070716858	1.4501051902770996
200	199.05265522003174	response	0	k		198.0	/experiments/knapen_AOT/AOT_stimuli/pictures/1649_fw.png	398.4916772842407	
201	199.0608901977539	picture	0		133	199.0	/experiments/knapen_AOT/AOT_stimuli/pictures/1612_fw.png	398.4999122619629	1.1111469268798828
201	200.1609890460968	response	0	j		199.0	/experiments/knapen_AOT/AOT_stimuli/pictures/1612_fw.png	399.6000111103058	
202	200.1720371246338	picture	0		82	200.0	/experiments/knapen_AOT/AOT_stimuli/pictures/1733_fw.png	399.6110591888428	0.6805288791656494
202	200.84425401687622	response	0	j		200.0	/experiments/knapen_AOT/AOT_stimuli/pictures/1733_fw.png	400.2832760810852	
203	200.85256600379944	picture	0		138	201.0	/experiments/knapen_AOT/AOT_stimuli/pictures/1008_fw.png	400.2915880680084	1.1528120040893555
203	201.9942910671234	response	0	k		201.0	/experiments/knapen_AOT/AOT_stimuli/pictures/1008_fw.png	401.4333131313324	
204	202.0053780078888	picture	0		96	202.0	/experiments/knapen_AOT/AOT_stimuli/pictures/2137_fw.png	401.4444000720978	0.7986311912536621
204	202.79432010650635	response	0	j		202.0	/experiments/knapen_AOT/AOT_stimuli/pictures/2137_fw.png	402.23334217071533	
205	202.80400919914246	picture	0		111	203.0	/experiments/knapen_AOT/AOT_stimuli/pictures/1276_fw.png	402.24303126335144	0.9235799312591553
205	203.71247601509094	response	0	j		203.0	/experiments/knapen_AOT/AOT_stimuli/pictures/1276_fw.png	403.1514980792999	
206	203.7275891304016	picture	0		87	204.0	/experiments/knapen_AOT/AOT_stimuli/pictures/2127_fw.png	403.1666111946106	0.7292029857635498
206	204.44423723220825	response	0	k		204.0	/experiments/knapen_AOT/AOT_stimuli/pictures/2127_fw.png	403.88325929641724	
207	204.45679211616516	picture	0		400	205.0	/experiments/knapen_AOT/AOT_stimuli/pictures/0034_fw.png	403.89581418037415	3.333350896835327
207	207.77774119377136	response	0	k		205.0	/experiments/knapen_AOT/AOT_stimuli/pictures/0034_fw.png	407.21676325798035	
208	207.7901430130005	picture	0		101	206.0	/experiments/knapen_AOT/AOT_stimuli/pictures/1985_fw.png	407.2291650772095	0.8403270244598389
208	208.6193881034851	response	0	j		206.0	/experiments/knapen_AOT/AOT_stimuli/pictures/1985_fw.png	408.0584101676941	
209	208.63047003746033	picture	0		101	207.0	/experiments/knapen_AOT/AOT_stimuli/pictures/0674_fw.png	408.0694921016693	0.8403241634368896
209	209.461088180542	response	0	j		207.0	/experiments/knapen_AOT/AOT_stimuli/pictures/0674_fw.png	408.900110244751	
210	209.47079420089722	picture	0		102	208.0	/experiments/knapen_AOT/AOT_stimuli/pictures/0757_fw.png	408.9098162651062	0.8541009426116943
210	210.30426502227783	response	0	j		208.0	/experiments/knapen_AOT/AOT_stimuli/pictures/0757_fw.png	409.7432870864868	
211	210.3248951435089	picture	0		248	209.0	/experiments/knapen_AOT/AOT_stimuli/pictures/1701_fw.png	409.7639172077179	2.069437026977539
211	212.38616609573364	response	0	k		209.0	/experiments/knapen_AOT/AOT_stimuli/pictures/1701_fw.png	411.8251881599426	
212	212.39433217048645	picture	0		92	210.0	/experiments/knapen_AOT/AOT_stimuli/pictures/1427_fw.png	411.83335423469543	0.7708339691162109
212	213.15277099609375	response	0	j		210.0	/experiments/knapen_AOT/AOT_stimuli/pictures/1427_fw.png	412.59179306030273	
213	213.16516613960266	picture	0		203	211.0	/experiments/knapen_AOT/AOT_stimuli/pictures/1500_fw.png	412.60418820381165	1.687535047531128
213	214.84449410438538	response	0	k		211.0	/experiments/knapen_AOT/AOT_stimuli/pictures/1500_fw.png	414.28351616859436	
214	214.8527011871338	picture	0		109	212.0	/experiments/knapen_AOT/AOT_stimuli/pictures/1672_fw.png	414.2917232513428	0.9097578525543213
214	215.75287318229675	response	0	k		212.0	/experiments/knapen_AOT/AOT_stimuli/pictures/1672_fw.png	415.19189524650574	
215	215.7624590396881	picture	0		98	213.0	/experiments/knapen_AOT/AOT_stimuli/pictures/1437_fw.png	415.2014811038971	0.8194410800933838
215	216.56944108009338	response	0	j		213.0	/experiments/knapen_AOT/AOT_stimuli/pictures/1437_fw.png	416.00846314430237	
216	216.5819001197815	picture	0		106	214.0	/experiments/knapen_AOT/AOT_stimuli/pictures/2036_fw.png	416.0209221839905	0.8819489479064941
216	217.45284509658813	response	0	j		214.0	/experiments/knapen_AOT/AOT_stimuli/pictures/2036_fw.png	416.8918671607971	
217	217.463849067688	picture	0		87	215.0	/experiments/knapen_AOT/AOT_stimuli/pictures/0930_fw.png	416.902871131897	0.7221889495849609
217	218.17787408828735	response	0	j		215.0	/experiments/knapen_AOT/AOT_stimuli/pictures/0930_fw.png	417.61689615249634	
218	218.18603801727295	picture	0		93	216.0	/experiments/knapen_AOT/AOT_stimuli/pictures/1015_fw.png	417.62506008148193	0.7778410911560059
218	218.95288610458374	response	0	k		216.0	/experiments/knapen_AOT/AOT_stimuli/pictures/1015_fw.png	418.3919081687927	
219	218.96387910842896	picture	0		110	217.0	/experiments/knapen_AOT/AOT_stimuli/pictures/1183_fw.png	418.40290117263794	0.9166560173034668
219	219.8627622127533	response	0	j		217.0	/experiments/knapen_AOT/AOT_stimuli/pictures/1183_fw.png	419.3017842769623	
220	219.88053512573242	picture	0		417	218.0	/experiments/knapen_AOT/AOT_stimuli/pictures/1703_fw.png	419.3195571899414	3.472182035446167
220	223.3445360660553	response	0	k		218.0	/experiments/knapen_AOT/AOT_stimuli/pictures/1703_fw.png	422.7835581302643	
221	223.3527171611786	picture	0		107	219.0	/experiments/knapen_AOT/AOT_stimuli/pictures/1952_fw.png	422.7917392253876	0.8959019184112549
221	224.2362790107727	response	0	j		219.0	/experiments/knapen_AOT/AOT_stimuli/pictures/1952_fw.png	423.6753010749817	
222	224.24861907958984	picture	0		119	220.0	/experiments/knapen_AOT/AOT_stimuli/pictures/0438_fw.png	423.6876411437988	0.9930679798126221
222	225.22799801826477	response	0	j		220.0	/experiments/knapen_AOT/AOT_stimuli/pictures/0438_fw.png	424.66702008247375	
223	225.24168705940247	picture	0		97	221.0	/experiments/knapen_AOT/AOT_stimuli/pictures/0773_fw.png	424.68070912361145	0.8125550746917725
223	226.0445840358734	response	0	k		221.0	/experiments/knapen_AOT/AOT_stimuli/pictures/0773_fw.png	425.4836061000824	
224	226.05424213409424	picture	0		111	222.0	/experiments/knapen_AOT/AOT_stimuli/pictures/0575_fw.png	425.4932641983032	0.923616886138916
224	226.96966004371643	response	0	k		222.0	/experiments/knapen_AOT/AOT_stimuli/pictures/0575_fw.png	426.4086821079254	
225	226.97785902023315	picture	0		89	223.0	/experiments/knapen_AOT/AOT_stimuli/pictures/2063_fw.png	426.41688108444214	0.7430851459503174
225	227.71124720573425	response	0	k		223.0	/experiments/knapen_AOT/AOT_stimuli/pictures/2063_fw.png	427.15026926994324	
226	227.72094416618347	picture	0		96	224.0	/experiments/knapen_AOT/AOT_stimuli/pictures/1160_fw.png	427.15996623039246	0.7985048294067383
226	228.51128816604614	response	0	k		224.0	/experiments/knapen_AOT/AOT_stimuli/pictures/1160_fw.png	427.9503102302551	
227	228.5194489955902	picture	0		93	225.0	/experiments/knapen_AOT/AOT_stimuli/pictures/0072_fw.png	427.9584710597992	0.7778000831604004
227	229.28638815879822	response	0	k		225.0	/experiments/knapen_AOT/AOT_stimuli/pictures/0072_fw.png	428.7254102230072	
228	229.2972490787506	picture	0		93	226.0	/experiments/knapen_AOT/AOT_stimuli/pictures/0071_fw.png	428.7362711429596	0.7722229957580566
228	230.05466508865356	response	0	k		226.0	/experiments/knapen_AOT/AOT_stimuli/pictures/0071_fw.png	429.49368715286255	
229	230.06947207450867	picture	0		85	227.0	/experiments/knapen_AOT/AOT_stimuli/pictures/1671_fw.png	429.50849413871765	0.7139019966125488
229	230.76964211463928	response	0	j		227.0	/experiments/knapen_AOT/AOT_stimuli/pictures/1671_fw.png	430.20866417884827	
230	230.78337407112122	picture	0		109	228.0	/experiments/knapen_AOT/AOT_stimuli/pictures/1884_fw.png	430.2223961353302	0.9111080169677734
230	231.68635201454163	response	0	k		228.0	/experiments/knapen_AOT/AOT_stimuli/pictures/1884_fw.png	431.1253740787506	
231	231.694482088089	picture	0		97	229.0	/experiments/knapen_AOT/AOT_stimuli/pictures/1596_fw.png	431.133504152298	0.8111729621887207
231	232.49457621574402	response	0	k		229.0	/experiments/knapen_AOT/AOT_stimuli/pictures/1596_fw.png	431.933598279953	
232	232.5056550502777	picture	0		95	230.0	/experiments/knapen_AOT/AOT_stimuli/pictures/1251_fw.png	431.9446771144867	0.7916371822357178
232	233.2795979976654	response	0	j		230.0	/experiments/knapen_AOT/AOT_stimuli/pictures/1251_fw.png	432.7186200618744	
233	233.29729223251343	picture	0		87	231.0	/experiments/knapen_AOT/AOT_stimuli/pictures/0686_fw.png	432.7363142967224	0.7222437858581543
233	234.01140999794006	response	0	k		231.0	/experiments/knapen_AOT/AOT_stimuli/pictures/0686_fw.png	433.45043206214905	
234	234.01953601837158	picture	0		106	232.0	/experiments/knapen_AOT/AOT_stimuli/pictures/0788_fw.png	433.45855808258057	0.8890321254730225
234	234.89468812942505	response	0	k		232.0	/experiments/knapen_AOT/AOT_stimuli/pictures/0788_fw.png	434.33371019363403	
235	234.9085681438446	picture	0		116	233.0	/experiments/knapen_AOT/AOT_stimuli/pictures/1646_fw.png	434.3475902080536	0.9720768928527832
235	235.86294221878052	response	0	j		233.0	/experiments/knapen_AOT/AOT_stimuli/pictures/1646_fw.png	435.3019642829895	
236	235.8806450366974	picture	0		153	234.0	/experiments/knapen_AOT/AOT_stimuli/pictures/0057_fw.png	435.3196671009064	1.2778260707855225
236	237.14473009109497	response	0	k		234.0	/experiments/knapen_AOT/AOT_stimuli/pictures/0057_fw.png	436.58375215530396	
237	237.1584711074829	picture	0		92	235.0	/experiments/knapen_AOT/AOT_stimuli/pictures/0236_fw.png	436.5974931716919	0.7708420753479004
237	237.91968417167664	response	0	k		235.0	/experiments/knapen_AOT/AOT_stimuli/pictures/0236_fw.png	437.3587062358856	
238	237.9293131828308	picture	0		91	236.0	/experiments/knapen_AOT/AOT_stimuli/pictures/0357_fw.png	437.3683352470398	0.7569880485534668
238	238.6712691783905	response	0	j		236.0	/experiments/knapen_AOT/AOT_stimuli/pictures/0357_fw.png	438.1102912425995	
239	238.68630123138428	picture	0		107	237.0	/experiments/knapen_AOT/AOT_stimuli/pictures/2164_fw.png	438.12532329559326	0.8957529067993164
239	239.56973600387573	response	0	j		237.0	/experiments/knapen_AOT/AOT_stimuli/pictures/2164_fw.png	439.0087580680847	
240	239.5820541381836	picture	0		82	238.0	/experiments/knapen_AOT/AOT_stimuli/pictures/0330_fw.png	439.0210762023926	0.7014749050140381
240	240.26307320594788	response	0	k		238.0	/experiments/knapen_AOT/AOT_stimuli/pictures/0330_fw.png	439.70209527015686	
241	240.28352904319763	picture	0		100	239.0	/experiments/knapen_AOT/AOT_stimuli/pictures/1769_fw.png	439.7225511074066	0.8402221202850342
241	241.11147618293762	response	0	k		239.0	/experiments/knapen_AOT/AOT_stimuli/pictures/1769_fw.png	440.5504982471466	
242	241.12375116348267	picture	0		97	240.0	/experiments/knapen_AOT/AOT_stimuli/pictures/1399_fw.png	440.56277322769165	0.8055770397186279
242	241.91978001594543	response	0	k		240.0	/experiments/knapen_AOT/AOT_stimuli/pictures/1399_fw.png	441.3588020801544	
243	241.9293282032013	picture	0		101	241.0	/experiments/knapen_AOT/AOT_stimuli/pictures/0708_fw.png	441.3683502674103	0.8403530120849609
243	242.7614459991455	response	0	j		241.0	/experiments/knapen_AOT/AOT_stimuli/pictures/0708_fw.png	442.2004680633545	
244	242.76968121528625	picture	0		89	242.0	/experiments/knapen_AOT/AOT_stimuli/pictures/1705_fw.png	442.20870327949524	0.7499549388885498
244	243.50319409370422	response	0	k		242.0	/experiments/knapen_AOT/AOT_stimuli/pictures/1705_fw.png	442.9422161579132	
245	243.5196361541748	picture	0		97	243.0	/experiments/knapen_AOT/AOT_stimuli/pictures/0266_fw.png	442.9586582183838	0.8124449253082275
245	244.31980299949646	response	0	k		243.0	/experiments/knapen_AOT/AOT_stimuli/pictures/0266_fw.png	443.75882506370544	
246	244.33208107948303	picture	0		115	244.0	/experiments/knapen_AOT/AOT_stimuli/pictures/1538_fw.png	443.771103143692	0.9584040641784668
246	245.27812910079956	response	0	j		244.0	/experiments/knapen_AOT/AOT_stimuli/pictures/1538_fw.png	444.71715116500854	
247	245.2904851436615	picture	0		126	245.0	/experiments/knapen_AOT/AOT_stimuli/pictures/0922_fw.png	444.7295072078705	1.0485460758209229
247	246.32813501358032	response	0	j		245.0	/experiments/knapen_AOT/AOT_stimuli/pictures/0922_fw.png	445.7671570777893	
248	246.33903121948242	picture	0		91	246.0	/experiments/knapen_AOT/AOT_stimuli/pictures/0110_fw.png	445.7780532836914	0.7570269107818604
248	247.0865352153778	response	0	j		246.0	/experiments/knapen_AOT/AOT_stimuli/pictures/0110_fw.png	446.5255572795868	
249	247.09605813026428	picture	0		94	247.0	/experiments/knapen_AOT/AOT_stimuli/pictures/0442_fw.png	446.53508019447327	0.7846550941467285
249	247.86992001533508	response	0	j		247.0	/experiments/knapen_AOT/AOT_stimuli/pictures/0442_fw.png	447.30894207954407	
250	247.880713224411	picture	0		91	248.0	/experiments/knapen_AOT/AOT_stimuli/pictures/0444_fw.png	447.31973528862	0.7570128440856934
250	248.62821412086487	response	0	k		248.0	/experiments/knapen_AOT/AOT_stimuli/pictures/0444_fw.png	448.06723618507385	
251	248.6377260684967	picture	0		99	249.0	/experiments/knapen_AOT/AOT_stimuli/pictures/0889_fw.png	448.0767481327057	0.826336145401001
251	249.4464430809021	response	0	j		249.0	/experiments/knapen_AOT/AOT_stimuli/pictures/0889_fw.png	448.8854651451111	
252	249.4640622138977	picture	0		107	250.0	/experiments/knapen_AOT/AOT_stimuli/pictures/0367_fw.png	448.9030842781067	0.8889498710632324
252	250.34494519233704	response	0	k		250.0	/experiments/knapen_AOT/AOT_stimuli/pictures/0367_fw.png	449.783967256546	
253	250.35301208496094	picture	0		92	251.0	/experiments/knapen_AOT/AOT_stimuli/pictures/2067_fw.png	449.7920341491699	0.7708089351654053
253	251.11163020133972	response	0	j		251.0	/experiments/knapen_AOT/AOT_stimuli/pictures/2067_fw.png	450.5506522655487	
254	251.12382102012634	picture	0		103	252.0	/experiments/knapen_AOT/AOT_stimuli/pictures/1839_fw.png	450.5628430843353	0.8542079925537109
254	251.96993803977966	response	0	k		252.0	/experiments/knapen_AOT/AOT_stimuli/pictures/1839_fw.png	451.40896010398865	
255	251.97802901268005	picture	0		91	253.0	/experiments/knapen_AOT/AOT_stimuli/pictures/1265_fw.png	451.41705107688904	0.7638192176818848
255	252.72824120521545	response	0	j		253.0	/experiments/knapen_AOT/AOT_stimuli/pictures/1265_fw.png	452.16726326942444	
256	252.74184823036194	picture	0		199	254.0	/experiments/knapen_AOT/AOT_stimuli/pictures/1376_fw.png	452.1808702945709	1.6667239665985107
256	254.39491605758667	response	0	j		254.0	/experiments/knapen_AOT/AOT_stimuli/pictures/1376_fw.png	453.83393812179565	
257	254.40857219696045	picture	0		87	255.0	/experiments/knapen_AOT/AOT_stimuli/pictures/0259_fw.png	453.84759426116943	0.7292490005493164
257	255.1282501220703	response	0	j		255.0	/experiments/knapen_AOT/AOT_stimuli/pictures/0259_fw.png	454.5672721862793	
258	255.13782119750977	picture	0		94	256.0	/experiments/knapen_AOT/AOT_stimuli/pictures/1545_fw.png	454.57684326171875	0.7846148014068604
258	255.91167402267456	response	0	k		256.0	/experiments/knapen_AOT/AOT_stimuli/pictures/1545_fw.png	455.35069608688354	
259	255.92243599891663	picture	0		92	257.0	/experiments/knapen_AOT/AOT_stimuli/pictures/1896_fw.png	455.3614580631256	0.7639892101287842
259	256.67828702926636	response	0	j		257.0	/experiments/knapen_AOT/AOT_stimuli/pictures/1896_fw.png	456.11730909347534	
260	256.6864252090454	picture	0		103	258.0	/experiments/knapen_AOT/AOT_stimuli/pictures/1088_fw.png	456.1254472732544	0.8610548973083496
260	257.5366721153259	response	0	k		258.0	/experiments/knapen_AOT/AOT_stimuli/pictures/1088_fw.png	456.9756941795349	
261	257.54748010635376	picture	0		94	259.0	/experiments/knapen_AOT/AOT_stimuli/pictures/0885_fw.png	456.98650217056274	0.7847299575805664
261	258.3200190067291	response	0	j		259.0	/experiments/knapen_AOT/AOT_stimuli/pictures/0885_fw.png	457.7590410709381	
262	258.3322100639343	picture	0		90	260.0	/experiments/knapen_AOT/AOT_stimuli/pictures/0853_fw.png	457.7712321281433	0.7500059604644775
262	259.0700352191925	response	0	k		260.0	/experiments/knapen_AOT/AOT_stimuli/pictures/0853_fw.png	458.5090572834015	
263	259.0822160243988	picture	0		119	261.0	/experiments/knapen_AOT/AOT_stimuli/pictures/0567_fw.png	458.5212380886078	0.9930460453033447
263	260.0616180896759	response	0	k		261.0	/experiments/knapen_AOT/AOT_stimuli/pictures/0567_fw.png	459.5006401538849	
264	260.07526206970215	picture	0		95	262.0	/experiments/knapen_AOT/AOT_stimuli/pictures/1756_fw.png	459.51428413391113	0.7986109256744385
264	260.8549180030823	response	0	j		262.0	/experiments/knapen_AOT/AOT_stimuli/pictures/1756_fw.png	460.29394006729126	
265	260.8738729953766	picture	0		80	263.0	/experiments/knapen_AOT/AOT_stimuli/pictures/0319_fw.png	460.31289505958557	0.6666700839996338
265	261.52842020988464	response	0	j		263.0	/experiments/knapen_AOT/AOT_stimuli/pictures/0319_fw.png	460.9674422740936	
266	261.5405430793762	picture	0		86	264.0	/experiments/knapen_AOT/AOT_stimuli/pictures/0731_fw.png	460.9795651435852	0.7153210639953613
266	262.23825311660767	response	0	j		264.0	/experiments/knapen_AOT/AOT_stimuli/pictures/0731_fw.png	461.67727518081665	
267	262.2558641433716	picture	0		109	265.0	/experiments/knapen_AOT/AOT_stimuli/pictures/0320_fw.png	461.69488620758057	0.9096930027008057
267	263.1534240245819	response	0	j		265.0	/experiments/knapen_AOT/AOT_stimuli/pictures/0320_fw.png	462.5924460887909	
268	263.1655571460724	picture	0		101	266.0	/experiments/knapen_AOT/AOT_stimuli/pictures/0597_fw.png	462.6045792102814	0.8403189182281494
268	263.9950931072235	response	0	k		266.0	/experiments/knapen_AOT/AOT_stimuli/pictures/0597_fw.png	463.4341151714325	
269	264.00587606430054	picture	0		100	267.0	/experiments/knapen_AOT/AOT_stimuli/pictures/1321_fw.png	463.4448981285095	0.8333261013031006
269	264.8216390609741	response	0	j		267.0	/experiments/knapen_AOT/AOT_stimuli/pictures/1321_fw.png	464.2606611251831	
270	264.83920216560364	picture	0		120	268.0	/experiments/knapen_AOT/AOT_stimuli/pictures/2074_fw.png	464.2782242298126	0.9999868869781494
270	265.82173705101013	response	0	j		268.0	/experiments/knapen_AOT/AOT_stimuli/pictures/2074_fw.png	465.2607591152191	
271	265.8391890525818	picture	0		102	269.0	/experiments/knapen_AOT/AOT_stimuli/pictures/1038_fw.png	465.27821111679077	0.8473851680755615
271	266.6784222126007	response	0	k		269.0	/experiments/knapen_AOT/AOT_stimuli/pictures/1038_fw.png	466.1174442768097	
272	266.68657422065735	picture	0		89	270.0	/experiments/knapen_AOT/AOT_stimuli/pictures/0860_fw.png	466.12559628486633	0.7430257797241211
272	267.41336011886597	response	0	j		270.0	/experiments/knapen_AOT/AOT_stimuli/pictures/0860_fw.png	466.85238218307495	
273	267.42960000038147	picture	0		90	271.0	/experiments/knapen_AOT/AOT_stimuli/pictures/1542_fw.png	466.86862206459045	0.7499890327453613
273	268.17016315460205	response	0	j		271.0	/experiments/knapen_AOT/AOT_stimuli/pictures/1542_fw.png	467.60918521881104	
274	268.17958903312683	picture	0		135	272.0	/experiments/knapen_AOT/AOT_stimuli/pictures/1023_fw.png	467.6186110973358	1.125025987625122
274	269.29514813423157	response	0	j		272.0	/experiments/knapen_AOT/AOT_stimuli/pictures/1023_fw.png	468.73417019844055	
275	269.30461502075195	picture	0		126	273.0	/experiments/knapen_AOT/AOT_stimuli/pictures/1259_fw.png	468.74363708496094	1.0486509799957275
275	270.3452410697937	response	0	j		273.0	/experiments/knapen_AOT/AOT_stimuli/pictures/1259_fw.png	469.7842631340027	
276	270.3532660007477	picture	0		106	274.0	/experiments/knapen_AOT/AOT_stimuli/pictures/1550_fw.png	469.79228806495667	0.8887221813201904
276	271.22173619270325	response	0	k		274.0	/experiments/knapen_AOT/AOT_stimuli/pictures/1550_fw.png	470.66075825691223	
277	271.24198818206787	picture	0		208	275.0	/experiments/knapen_AOT/AOT_stimuli/pictures/1323_fw.png	470.68101024627686	1.7363338470458984
277	272.97022914886475	response	0	k		275.0	/experiments/knapen_AOT/AOT_stimuli/pictures/1323_fw.png	472.40925121307373	
278	272.97832202911377	picture	0		155	276.0	/experiments/knapen_AOT/AOT_stimuli/pictures/0873_fw.png	472.41734409332275	1.291680097579956
278	274.26192903518677	response	0	j		276.0	/experiments/knapen_AOT/AOT_stimuli/pictures/0873_fw.png	473.70095109939575	
279	274.2700021266937	picture	0		127	277.0	/experiments/knapen_AOT/AOT_stimuli/pictures/1532_fw.png	473.7090241909027	1.0623090267181396
279	275.320344209671	response	0	k		277.0	/experiments/knapen_AOT/AOT_stimuli/pictures/1532_fw.png	474.75936627388	
280	275.33231115341187	picture	0		159	278.0	/experiments/knapen_AOT/AOT_stimuli/pictures/1193_fw.png	474.77133321762085	1.3264050483703613
280	276.6451590061188	response	0	j		278.0	/experiments/knapen_AOT/AOT_stimuli/pictures/1193_fw.png	476.08418107032776	
281	276.6587162017822	picture	0		103	279.0	/experiments/knapen_AOT/AOT_stimuli/pictures/1658_fw.png	476.0977382659912	0.8613178730010986
281	277.5119981765747	response	0	j		279.0	/experiments/knapen_AOT/AOT_stimuli/pictures/1658_fw.png	476.9510202407837	
282	277.5200340747833	picture	0		130	280.0	/experiments/knapen_AOT/AOT_stimuli/pictures/0718_fw.png	476.9590561389923	1.0833361148834229
282	278.59526014328003	response	0	k		280.0	/experiments/knapen_AOT/AOT_stimuli/pictures/0718_fw.png	478.034282207489	
283	278.60337018966675	picture	0		92	281.0	/experiments/knapen_AOT/AOT_stimuli/pictures/0340_fw.png	478.04239225387573	0.7706389427185059
283	279.3620181083679	response	0	j		281.0	/experiments/knapen_AOT/AOT_stimuli/pictures/0340_fw.png	478.8010401725769	
284	279.37400913238525	picture	0		104	282.0	/experiments/knapen_AOT/AOT_stimuli/pictures/0772_fw.png	478.81303119659424	0.888969898223877
284	280.2535982131958	response	0	j		282.0	/experiments/knapen_AOT/AOT_stimuli/pictures/0772_fw.png	479.6926202774048	
285	280.26297903060913	picture	0		97	283.0	/experiments/knapen_AOT/AOT_stimuli/pictures/0951_fw.png	479.7020010948181	0.8124370574951172
285	281.06190609931946	response	0	j		283.0	/experiments/knapen_AOT/AOT_stimuli/pictures/0951_fw.png	480.50092816352844	
286	281.07541608810425	picture	0		95	284.0	/experiments/knapen_AOT/AOT_stimuli/pictures/0250_fw.png	480.51443815231323	0.7986259460449219
286	281.8620231151581	response	0	k		284.0	/experiments/knapen_AOT/AOT_stimuli/pictures/0250_fw.png	481.30104517936707	
287	281.87404203414917	picture	0		243	285.0	/experiments/knapen_AOT/AOT_stimuli/pictures/2179_fw.png	481.31306409835815	2.0210490226745605
287	283.88706707954407	response	0	j		285.0	/experiments/knapen_AOT/AOT_stimuli/pictures/2179_fw.png	483.32608914375305	
288	283.89509105682373	picture	0		94	286.0	/experiments/knapen_AOT/AOT_stimuli/pictures/0465_fw.png	483.3341131210327	0.7845840454101562
288	284.6702950000763	response	0	j		286.0	/experiments/knapen_AOT/AOT_stimuli/pictures/0465_fw.png	484.1093170642853	
289	284.6796751022339	picture	0		96	287.0	/experiments/knapen_AOT/AOT_stimuli/pictures/1942_fw.png	484.11869716644287	0.7988009452819824
289	285.4703481197357	response	0	k		287.0	/experiments/knapen_AOT/AOT_stimuli/pictures/1942_fw.png	484.9093701839447	
290	285.47847604751587	picture	0		161	288.0	/experiments/knapen_AOT/AOT_stimuli/pictures/1355_fw.png	484.91749811172485	1.347020149230957
290	286.80519819259644	response	0	k		288.0	/experiments/knapen_AOT/AOT_stimuli/pictures/1355_fw.png	486.2442202568054	
291	286.8254961967468	picture	0		101	289.0	/experiments/knapen_AOT/AOT_stimuli/pictures/2133_fw.png	486.2645182609558	0.8471908569335938
291	287.66207814216614	response	0	j		289.0	/experiments/knapen_AOT/AOT_stimuli/pictures/2133_fw.png	487.1011002063751	
292	287.6726870536804	picture	0		99	290.0	/experiments/knapen_AOT/AOT_stimuli/pictures/1673_fw.png	487.1117091178894	0.8263840675354004
292	288.4871082305908	response	0	k		290.0	/experiments/knapen_AOT/AOT_stimuli/pictures/1673_fw.png	487.9261302947998	
293	288.4990711212158	picture	0		104	291.0	/experiments/knapen_AOT/AOT_stimuli/pictures/1889_fw.png	487.9380931854248	0.8682270050048828
293	289.3537600040436	response	0	k		291.0	/experiments/knapen_AOT/AOT_stimuli/pictures/1889_fw.png	488.79278206825256	
294	289.3672981262207	picture	0		94	292.0	/experiments/knapen_AOT/AOT_stimuli/pictures/0752_fw.png	488.8063201904297	0.7915248870849609
294	290.14533615112305	response	0	k		292.0	/experiments/knapen_AOT/AOT_stimuli/pictures/0752_fw.png	489.58435821533203	
295	290.15882301330566	picture	0		96	293.0	/experiments/knapen_AOT/AOT_stimuli/pictures/1223_fw.png	489.59784507751465	0.8055720329284668
295	290.9537172317505	response	0	k		293.0	/experiments/knapen_AOT/AOT_stimuli/pictures/1223_fw.png	490.3927392959595	
296	290.96439504623413	picture	0		149	294.0	/experiments/knapen_AOT/AOT_stimuli/pictures/1282_fw.png	490.4034171104431	1.2430510520935059
296	292.18856620788574	response	0	k		294.0	/experiments/knapen_AOT/AOT_stimuli/pictures/1282_fw.png	491.6275882720947	
297	292.20744609832764	picture	0		116	295.0	/experiments/knapen_AOT/AOT_stimuli/pictures/1113_fw.png	491.6464681625366	0.9652750492095947
297	293.162150144577	response	0	k		295.0	/experiments/knapen_AOT/AOT_stimuli/pictures/1113_fw.png	492.601172208786	
298	293.17272114753723	picture	0		95	296.0	/experiments/knapen_AOT/AOT_stimuli/pictures/0499_fw.png	492.6117432117462	0.791701078414917
298	293.95380115509033	response	0	k		296.0	/experiments/knapen_AOT/AOT_stimuli/pictures/0499_fw.png	493.3928232192993	
299	293.96442222595215	picture	0		106	297.0	/experiments/knapen_AOT/AOT_stimuli/pictures/1616_fw.png	493.40344429016113	0.8820178508758545
299	294.83713603019714	response	0	j		297.0	/experiments/knapen_AOT/AOT_stimuli/pictures/1616_fw.png	494.2761580944061	
300	294.846440076828	picture	0		106	298.0	/experiments/knapen_AOT/AOT_stimuli/pictures/0482_fw.png	494.285462141037	0.8821759223937988
300	295.72051215171814	response	0	j		298.0	/experiments/knapen_AOT/AOT_stimuli/pictures/0482_fw.png	495.1595342159271	
301	295.7286159992218	picture	0		149	299.0	/experiments/knapen_AOT/AOT_stimuli/pictures/1564_fw.png	495.1676380634308	1.242854118347168
301	296.96217823028564	response	0	k		299.0	/experiments/knapen_AOT/AOT_stimuli/pictures/1564_fw.png	496.40120029449463	
302	296.97147011756897	picture	0		95	300.0	/experiments/knapen_AOT/AOT_stimuli/pictures/0806_fw.png	496.41049218177795	0.7915999889373779
302	297.75381112098694	response	0	j		300.0	/experiments/knapen_AOT/AOT_stimuli/pictures/0806_fw.png	497.1928331851959	
303	297.76307010650635	picture	0		116	301.0	/experiments/knapen_AOT/AOT_stimuli/pictures/2041_fw.png	497.20209217071533	0.9655771255493164
303	298.7206001281738	response	0	j		301.0	/experiments/knapen_AOT/AOT_stimuli/pictures/2041_fw.png	498.1596221923828	
304	298.72864723205566	picture	0		151	302.0	/experiments/knapen_AOT/AOT_stimuli/pictures/1996_fw.png	498.16766929626465	1.263556957244873
304	299.9788451194763	response	0	k		302.0	/experiments/knapen_AOT/AOT_stimuli/pictures/1996_fw.png	499.4178671836853	
305	299.99220418930054	picture	0		88	303.0	/experiments/knapen_AOT/AOT_stimuli/pictures/0029_fw.png	499.4312262535095	0.7364349365234375
305	300.72059512138367	response	0	j		303.0	/experiments/knapen_AOT/AOT_stimuli/pictures/0029_fw.png	500.15961718559265	
306	300.728639125824	picture	0		293	304.0	/experiments/knapen_AOT/AOT_stimuli/pictures/0996_fw.png	500.16766119003296	2.444196939468384
306	303.1622281074524	response	0	j		304.0	/experiments/knapen_AOT/AOT_stimuli/pictures/0996_fw.png	502.6012501716614	
307	303.17283606529236	picture	0		106	305.0	/experiments/knapen_AOT/AOT_stimuli/pictures/0622_fw.png	502.61185812950134	0.8819360733032227
307	304.04558205604553	response	0	k		305.0	/experiments/knapen_AOT/AOT_stimuli/pictures/0622_fw.png	503.4846041202545	
308	304.0547721385956	picture	0		133	306.0	/experiments/knapen_AOT/AOT_stimuli/pictures/1708_fw.png	503.49379420280457	1.1111290454864502
308	305.15390706062317	response	0	j		306.0	/experiments/knapen_AOT/AOT_stimuli/pictures/1708_fw.png	504.59292912483215	
309	305.16590118408203	picture	0		91	307.0	/experiments/knapen_AOT/AOT_stimuli/pictures/1279_fw.png	504.604923248291	0.7569098472595215
309	305.9122312068939	response	0	j		307.0	/experiments/knapen_AOT/AOT_stimuli/pictures/1279_fw.png	505.3512532711029	
310	305.92281103134155	picture	0		94	308.0	/experiments/knapen_AOT/AOT_stimuli/pictures/0104_fw.png	505.36183309555054	0.784757137298584
310	306.6956350803375	response	0	j		308.0	/experiments/knapen_AOT/AOT_stimuli/pictures/0104_fw.png	506.1346571445465	
311	306.70756816864014	picture	0		134	309.0	/experiments/knapen_AOT/AOT_stimuli/pictures/1529_fw.png	506.1465902328491	1.1181910037994385
311	307.8055021762848	response	0	k		309.0	/experiments/knapen_AOT/AOT_stimuli/pictures/1529_fw.png	507.2445242404938	
312	307.8257591724396	picture	0		120	310.0	/experiments/knapen_AOT/AOT_stimuli/pictures/0385_fw.png	507.26478123664856	1.006824016571045
312	308.82067918777466	response	0	k		310.0	/experiments/knapen_AOT/AOT_stimuli/pictures/0385_fw.png	508.25970125198364	
313	308.8325831890106	picture	0		300	311.0	/experiments/knapen_AOT/AOT_stimuli/pictures/0063_fw.png	508.2716052532196	2.500034809112549
313	311.3207230567932	response	0	j		311.0	/experiments/knapen_AOT/AOT_stimuli/pictures/0063_fw.png	510.7597451210022	
314	311.33261799812317	picture	0		98	312.0	/experiments/knapen_AOT/AOT_stimuli/pictures/1493_fw.png	510.77164006233215	0.8129720687866211
314	312.1374261379242	response	0	k		312.0	/experiments/knapen_AOT/AOT_stimuli/pictures/1493_fw.png	511.5764482021332	
315	312.1455900669098	picture	0		111	313.0	/experiments/knapen_AOT/AOT_stimuli/pictures/0817_fw.png	511.5846121311188	0.930088996887207
315	313.0623002052307	response	0	j		313.0	/experiments/knapen_AOT/AOT_stimuli/pictures/0817_fw.png	512.5013222694397	
316	313.075679063797	picture	0		89	314.0	/experiments/knapen_AOT/AOT_stimuli/pictures/1785_fw.png	512.514701128006	0.749985933303833
316	313.8122651576996	response	0	j		314.0	/experiments/knapen_AOT/AOT_stimuli/pictures/1785_fw.png	513.2512872219086	
317	313.82566499710083	picture	0		83	315.0	/experiments/knapen_AOT/AOT_stimuli/pictures/0287_fw.png	513.2646870613098	0.6948652267456055
317	314.51243901252747	response	0	j		315.0	/experiments/knapen_AOT/AOT_stimuli/pictures/0287_fw.png	513.9514610767365	
318	314.52053022384644	picture	0		89	316.0	/experiments/knapen_AOT/AOT_stimuli/pictures/0109_fw.png	513.9595522880554	0.7426300048828125
318	315.25407004356384	response	0	k		316.0	/experiments/knapen_AOT/AOT_stimuli/pictures/0109_fw.png	514.6930921077728	
319	315.26316022872925	picture	0		487	317.0	/experiments/knapen_AOT/AOT_stimuli/pictures/1920_fw.png	514.7021822929382	4.0625457763671875
319	319.3124260902405	response	0	j		317.0	/experiments/knapen_AOT/AOT_stimuli/pictures/1920_fw.png	518.7514481544495	
320	319.32570600509644	picture	0		85	318.0	/experiments/knapen_AOT/AOT_stimuli/pictures/0799_fw.png	518.7647280693054	0.7152950763702393
320	320.0291111469269	response	0	j		318.0	/experiments/knapen_AOT/AOT_stimuli/pictures/0799_fw.png	519.4681332111359	
321	320.0410010814667	picture	0		91	319.0	/experiments/knapen_AOT/AOT_stimuli/pictures/0669_fw.png	519.4800231456757	0.7569580078125
321	320.78064703941345	response	0	k		319.0	/experiments/knapen_AOT/AOT_stimuli/pictures/0669_fw.png	520.2196691036224	
322	320.7979590892792	picture	0		105	320.0	/experiments/knapen_AOT/AOT_stimuli/pictures/0712_fw.png	520.2369811534882	0.8749830722808838
322	321.6624550819397	response	0	j		320.0	/experiments/knapen_AOT/AOT_stimuli/pictures/0712_fw.png	521.1014771461487	
323	321.67294216156006	picture	0		112	321.0	/experiments/knapen_AOT/AOT_stimuli/pictures/1527_fw.png	521.111964225769	0.9310200214385986
323	322.5890381336212	response	0	j		321.0	/experiments/knapen_AOT/AOT_stimuli/pictures/1527_fw.png	522.0280601978302	
324	322.60396218299866	picture	0		96	322.0	/experiments/knapen_AOT/AOT_stimuli/pictures/1599_fw.png	522.0429842472076	0.8051190376281738
324	323.38905119895935	response	0	k		322.0	/experiments/knapen_AOT/AOT_stimuli/pictures/1599_fw.png	522.8280732631683	
325	323.40908122062683	picture	0		97	323.0	/experiments/knapen_AOT/AOT_stimuli/pictures/0550_fw.png	522.8481032848358	0.8125839233398438
325	324.2125041484833	response	0	j		323.0	/experiments/knapen_AOT/AOT_stimuli/pictures/0550_fw.png	523.6515262126923	
326	324.2216651439667	picture	0		156	324.0	/experiments/knapen_AOT/AOT_stimuli/pictures/0080_fw.png	523.6606872081757	1.2990589141845703
326	325.51255202293396	response	0	k		324.0	/experiments/knapen_AOT/AOT_stimuli/pictures/0080_fw.png	524.951574087143	
327	325.52072405815125	picture	0		81	325.0	/experiments/knapen_AOT/AOT_stimuli/pictures/0015_fw.png	524.9597461223602	0.7082619667053223
327	326.2209610939026	response	0	j		325.0	/experiments/knapen_AOT/AOT_stimuli/pictures/0015_fw.png	525.6599831581116	
328	326.22898602485657	picture	0		127	326.0	/experiments/knapen_AOT/AOT_stimuli/pictures/0314_fw.png	525.6680080890656	1.0620510578155518
328	327.2792000770569	response	0	k		326.0	/experiments/knapen_AOT/AOT_stimuli/pictures/0314_fw.png	526.7182221412659	
329	327.2910370826721	picture	0		95	327.0	/experiments/knapen_AOT/AOT_stimuli/pictures/1271_fw.png	526.7300591468811	0.7916960716247559
329	328.0709321498871	response	0	j		327.0	/experiments/knapen_AOT/AOT_stimuli/pictures/1271_fw.png	527.5099542140961	
330	328.0827331542969	picture	0		112	328.0	/experiments/knapen_AOT/AOT_stimuli/pictures/1168_fw.png	527.5217552185059	0.9305698871612549
330	329.0041491985321	response	0	j		328.0	/experiments/knapen_AOT/AOT_stimuli/pictures/1168_fw.png	528.4431712627411	
331	329.01330304145813	picture	0		98	329.0	/experiments/knapen_AOT/AOT_stimuli/pictures/0245_fw.png	528.4523251056671	0.8194570541381836
331	329.8209161758423	response	0	j		329.0	/experiments/knapen_AOT/AOT_stimuli/pictures/0245_fw.png	529.2599382400513	
332	329.8327600955963	picture	0		89	330.0	/experiments/knapen_AOT/AOT_stimuli/pictures/1362_fw.png	529.2717821598053	0.7430250644683838
332	330.55575919151306	response	0	j		330.0	/experiments/knapen_AOT/AOT_stimuli/pictures/1362_fw.png	529.994781255722	
333	330.5757851600647	picture	0		147	331.0	/experiments/knapen_AOT/AOT_stimuli/pictures/0183_fw.png	530.0148072242737	1.2292208671569824
333	331.7958571910858	response	0	j		331.0	/experiments/knapen_AOT/AOT_stimuli/pictures/0183_fw.png	531.2348792552948	
334	331.8050060272217	picture	0		105	332.0	/experiments/knapen_AOT/AOT_stimuli/pictures/0660_fw.png	531.2440280914307	0.875075101852417
334	332.6710031032562	response	0	k		332.0	/experiments/knapen_AOT/AOT_stimuli/pictures/0660_fw.png	532.1100251674652	
335	332.6800811290741	picture	0		79	333.0	/experiments/knapen_AOT/AOT_stimuli/pictures/1773_fw.png	532.1191031932831	0.6597321033477783
335	333.3292610645294	response	0	k		333.0	/experiments/knapen_AOT/AOT_stimuli/pictures/1773_fw.png	532.7682831287384	
336	333.3398132324219	picture	0		258	334.0	/experiments/knapen_AOT/AOT_stimuli/pictures/0827_fw.png	532.7788352966309	2.1526858806610107
336	335.4793481826782	response	0	j		334.0	/experiments/knapen_AOT/AOT_stimuli/pictures/0827_fw.png	534.9183702468872	
337	335.4924991130829	picture	0		104	335.0	/experiments/knapen_AOT/AOT_stimuli/pictures/0779_fw.png	534.9315211772919	0.875006914138794
337	336.3475852012634	response	0	k		335.0	/experiments/knapen_AOT/AOT_stimuli/pictures/0779_fw.png	535.7866072654724	
338	336.3675060272217	picture	0		115	336.0	/experiments/knapen_AOT/AOT_stimuli/pictures/1547_fw.png	535.8065280914307	0.9653170108795166
338	337.3210530281067	response	0	k		336.0	/experiments/knapen_AOT/AOT_stimuli/pictures/1547_fw.png	536.7600750923157	
339	337.3328230381012	picture	0		105	337.0	/experiments/knapen_AOT/AOT_stimuli/pictures/1798_fw.png	536.7718451023102	0.8749971389770508
339	338.19605922698975	response	0	k		337.0	/experiments/knapen_AOT/AOT_stimuli/pictures/1798_fw.png	537.6350812911987	
340	338.20782017707825	picture	0		82	338.0	/experiments/knapen_AOT/AOT_stimuli/pictures/1593_fw.png	537.6468422412872	0.6805448532104492
340	338.87932419776917	response	0	j		338.0	/experiments/knapen_AOT/AOT_stimuli/pictures/1593_fw.png	538.3183462619781	
341	338.8883650302887	picture	0		111	339.0	/experiments/knapen_AOT/AOT_stimuli/pictures/2082_fw.png	538.3273870944977	0.924185037612915
341	339.8044011592865	response	0	j		339.0	/experiments/knapen_AOT/AOT_stimuli/pictures/2082_fw.png	539.2434232234955	
342	339.8125500679016	picture	0		95	340.0	/experiments/knapen_AOT/AOT_stimuli/pictures/0369_fw.png	539.2515721321106	0.7916021347045898
342	340.596116065979	response	0	j		340.0	/experiments/knapen_AOT/AOT_stimuli/pictures/0369_fw.png	540.035138130188	
343	340.6041522026062	picture	0		140	341.0	/experiments/knapen_AOT/AOT_stimuli/pictures/0701_fw.png	540.0431742668152	1.173079013824463
343	341.75591111183167	response	0	k		341.0	/experiments/knapen_AOT/AOT_stimuli/pictures/0701_fw.png	541.1949331760406	
344	341.77723121643066	picture	0		101	342.0	/experiments/knapen_AOT/AOT_stimuli/pictures/0624_fw.png	541.2162532806396	0.8472509384155273
344	342.6126651763916	response	0	k		342.0	/experiments/knapen_AOT/AOT_stimuli/pictures/0624_fw.png	542.0516872406006	
345	342.6244821548462	picture	0		91	343.0	/experiments/knapen_AOT/AOT_stimuli/pictures/1454_fw.png	542.0635042190552	0.7569639682769775
345	343.3643591403961	response	0	j		343.0	/experiments/knapen_AOT/AOT_stimuli/pictures/1454_fw.png	542.8033812046051	
346	343.38144612312317	picture	0		98	344.0	/experiments/knapen_AOT/AOT_stimuli/pictures/0949_fw.png	542.8204681873322	0.8194639682769775
346	344.1877660751343	response	0	j		344.0	/experiments/knapen_AOT/AOT_stimuli/pictures/0949_fw.png	543.6267881393433	
347	344.20091009140015	picture	0		97	345.0	/experiments/knapen_AOT/AOT_stimuli/pictures/2107_fw.png	543.6399321556091	0.8124599456787109
347	345.00438618659973	response	0	j		345.0	/experiments/knapen_AOT/AOT_stimuli/pictures/2107_fw.png	544.4434082508087	
348	345.01337003707886	picture	0		104	346.0	/experiments/knapen_AOT/AOT_stimuli/pictures/1163_fw.png	544.4523921012878	0.8680951595306396
348	345.87113404273987	response	0	k		346.0	/experiments/knapen_AOT/AOT_stimuli/pictures/1163_fw.png	545.3101561069489	
349	345.8814651966095	picture	0		101	347.0	/experiments/knapen_AOT/AOT_stimuli/pictures/1574_fw.png	545.3204872608185	0.8403298854827881
349	346.71285104751587	response	0	k		347.0	/experiments/knapen_AOT/AOT_stimuli/pictures/1574_fw.png	546.1518731117249	
350	346.7217950820923	picture	0		93	348.0	/experiments/knapen_AOT/AOT_stimuli/pictures/0587_fw.png	546.1608171463013	0.7777581214904785
350	347.4877870082855	response	0	k		348.0	/experiments/knapen_AOT/AOT_stimuli/pictures/0587_fw.png	546.9268090724945	
351	347.49955320358276	picture	0		97	349.0	/experiments/knapen_AOT/AOT_stimuli/pictures/0867_fw.png	546.9385752677917	0.8055059909820557
351	348.2961721420288	response	0	j		349.0	/experiments/knapen_AOT/AOT_stimuli/pictures/0867_fw.png	547.7351942062378	
352	348.3050591945648	picture	0		121	350.0	/experiments/knapen_AOT/AOT_stimuli/pictures/1057_fw.png	547.7440812587738	1.0075979232788086
352	349.30451703071594	response	0	j		350.0	/experiments/knapen_AOT/AOT_stimuli/pictures/1057_fw.png	548.7435390949249	
353	349.3126571178436	picture	0		97	351.0	/experiments/knapen_AOT/AOT_stimuli/pictures/0940_fw.png	548.7516791820526	0.8119220733642578
353	350.112900018692	response	0	k		351.0	/experiments/knapen_AOT/AOT_stimuli/pictures/0940_fw.png	549.551922082901	
354	350.1245791912079	picture	0		97	352.0	/experiments/knapen_AOT/AOT_stimuli/pictures/1714_fw.png	549.5636012554169	0.8055360317230225
354	350.92120718955994	response	0	k		352.0	/experiments/knapen_AOT/AOT_stimuli/pictures/1714_fw.png	550.3602292537689	
355	350.9301152229309	picture	0		88	353.0	/experiments/knapen_AOT/AOT_stimuli/pictures/0476_fw.png	550.3691372871399	0.7361288070678711
355	351.654568195343	response	0	j		353.0	/experiments/knapen_AOT/AOT_stimuli/pictures/0476_fw.png	551.093590259552	
356	351.6662440299988	picture	0		155	354.0	/experiments/knapen_AOT/AOT_stimuli/pictures/0150_fw.png	551.1052660942078	1.2916650772094727
356	352.9394180774689	response	0	j		354.0	/experiments/knapen_AOT/AOT_stimuli/pictures/0150_fw.png	552.3784401416779	
357	352.95790910720825	picture	0		97	355.0	/experiments/knapen_AOT/AOT_stimuli/pictures/0053_fw.png	552.3969311714172	0.8055920600891113
357	353.7477340698242	response	0	k		355.0	/experiments/knapen_AOT/AOT_stimuli/pictures/0053_fw.png	553.1867561340332	
358	353.76350116729736	picture	0		85	356.0	/experiments/knapen_AOT/AOT_stimuli/pictures/0998_fw.png	553.2025232315063	0.7082710266113281
358	354.46284317970276	response	0	j		356.0	/experiments/knapen_AOT/AOT_stimuli/pictures/0998_fw.png	553.9018652439117	
359	354.4717721939087	picture	0		86	357.0	/experiments/knapen_AOT/AOT_stimuli/pictures/0768_fw.png	553.9107942581177	0.7159240245819092
359	355.1795690059662	response	0	j		357.0	/experiments/knapen_AOT/AOT_stimuli/pictures/0768_fw.png	554.6185910701752	
360	355.1876962184906	picture	0		102	358.0	/experiments/knapen_AOT/AOT_stimuli/pictures/1080_fw.png	554.6267182826996	0.8535599708557129
360	356.0296471118927	response	0	k		358.0	/experiments/knapen_AOT/AOT_stimuli/pictures/1080_fw.png	555.4686691761017	
361	356.0412561893463	picture	0		155	359.0	/experiments/knapen_AOT/AOT_stimuli/pictures/1240_fw.png	555.4802782535553	1.2916829586029053
361	357.32126021385193	response	0	j		359.0	/experiments/knapen_AOT/AOT_stimuli/pictures/1240_fw.png	556.7602822780609	
362	357.3329391479492	stim	0		524			556.7719612121582	4.382226943969727
362	361.6953320503235	response	0	space				561.1343541145325	
