trial_nr	onset	event_type	phase	response	nr_frames	picture_index	picture_file	onset_abs	duration
0	0.20807099342346191	stim	0		2835			108.85020399093628	23.643404006958008
0	23.833744049072266	response	0	space				132.47587704658508	
2	23.85147500038147	picture	0		200	0.0	/experiments/knapen_AOT/AOT_stimuli/pictures/1711_fw.png	132.4936079978943	1.700566053390503
2	25.532469034194946	response	0	j		0.0	/experiments/knapen_AOT/AOT_stimuli/pictures/1711_fw.png	134.17460203170776	
3	25.552041053771973	picture	0		155	1.0	/experiments/knapen_AOT/AOT_stimuli/pictures/1301_fw.png	134.1941740512848	1.2995059490203857
3	26.841912031173706	response	0	k		1.0	/experiments/knapen_AOT/AOT_stimuli/pictures/1301_fw.png	135.48404502868652	
4	26.85154700279236	picture	0		105	2.0	/experiments/knapen_AOT/AOT_stimuli/pictures/1491_fw.png	135.49368000030518	0.8750870227813721
4	27.716912031173706	response	0	k		2.0	/experiments/knapen_AOT/AOT_stimuli/pictures/1491_fw.png	136.35904502868652	
5	27.72663402557373	picture	0		115	3.0	/experiments/knapen_AOT/AOT_stimuli/pictures/1021_fw.png	136.36876702308655	0.9583430290222168
5	28.675262928009033	response	0	k		3.0	/experiments/knapen_AOT/AOT_stimuli/pictures/1021_fw.png	137.31739592552185	
6	28.684977054595947	picture	0		108	4.0	/experiments/knapen_AOT/AOT_stimuli/pictures/0144_fw.png	137.32711005210876	0.9027249813079834
6	29.575284957885742	response	0	j		4.0	/experiments/knapen_AOT/AOT_stimuli/pictures/0144_fw.png	138.21741795539856	
7	29.58770203590393	picture	0		117	5.0	/experiments/knapen_AOT/AOT_stimuli/pictures/0640_fw.png	138.22983503341675	0.9722399711608887
7	30.55025601387024	response	0	k		5.0	/experiments/knapen_AOT/AOT_stimuli/pictures/0640_fw.png	139.19238901138306	
8	30.55994200706482	picture	0		158	6.0	/experiments/knapen_AOT/AOT_stimuli/pictures/1305_fw.png	139.20207500457764	1.3194959163665771
8	31.866981029510498	response	0	j		6.0	/experiments/knapen_AOT/AOT_stimuli/pictures/1305_fw.png	140.50911402702332	
9	31.879437923431396	picture	0		96	7.0	/experiments/knapen_AOT/AOT_stimuli/pictures/0781_fw.png	140.5215709209442	0.7985579967498779
9	32.66695284843445	response	0	k		7.0	/experiments/knapen_AOT/AOT_stimuli/pictures/0781_fw.png	141.30908584594727	
10	32.677995920181274	picture	0		106	8.0	/experiments/knapen_AOT/AOT_stimuli/pictures/1406_fw.png	141.3201289176941	0.8819460868835449
10	33.55037784576416	response	0	j		8.0	/experiments/knapen_AOT/AOT_stimuli/pictures/1406_fw.png	142.19251084327698	
11	33.55994200706482	picture	0		94	9.0	/experiments/knapen_AOT/AOT_stimuli/pictures/0196_fw.png	142.20207500457764	0.7847208976745605
11	34.333645820617676	response	0	k		9.0	/experiments/knapen_AOT/AOT_stimuli/pictures/0196_fw.png	142.9757788181305	
12	34.34466290473938	picture	0		104	10.0	/experiments/knapen_AOT/AOT_stimuli/pictures/0092_fw.png	142.9867959022522	0.8681809902191162
12	35.193596839904785	response	0	k		10.0	/experiments/knapen_AOT/AOT_stimuli/pictures/0092_fw.png	143.8357298374176	
13	35.212843894958496	picture	0		95	11.0	/experiments/knapen_AOT/AOT_stimuli/pictures/0447_fw.png	143.8549768924713	0.7916700839996338
13	35.9853949546814	response	0	j		11.0	/experiments/knapen_AOT/AOT_stimuli/pictures/0447_fw.png	144.6275279521942	
14	36.00451397895813	picture	0		97	12.0	/experiments/knapen_AOT/AOT_stimuli/pictures/0869_fw.png	144.64664697647095	0.8054749965667725
14	36.793680906295776	response	0	k		12.0	/experiments/knapen_AOT/AOT_stimuli/pictures/0869_fw.png	145.4358139038086	
15	36.8099889755249	picture	0		171	13.0	/experiments/knapen_AOT/AOT_stimuli/pictures/1325_fw.png	145.45212197303772	1.4235589504241943
15	38.225369930267334	response	0	j		13.0	/experiments/knapen_AOT/AOT_stimuli/pictures/1325_fw.png	146.86750292778015	
16	38.2335479259491	picture	0		127	14.0	/experiments/knapen_AOT/AOT_stimuli/pictures/1402_fw.png	146.8756809234619	1.0625200271606445
16	39.283819913864136	response	0	j		14.0	/experiments/knapen_AOT/AOT_stimuli/pictures/1402_fw.png	147.92595291137695	
17	39.29606795310974	picture	0		143	15.0	/experiments/knapen_AOT/AOT_stimuli/pictures/0523_fw.png	147.93820095062256	1.1876509189605713
17	40.47539496421814	response	0	k		15.0	/experiments/knapen_AOT/AOT_stimuli/pictures/0523_fw.png	149.11752796173096	
18	40.48371887207031	picture	0		122	16.0	/experiments/knapen_AOT/AOT_stimuli/pictures/0678_fw.png	149.12585186958313	1.020794153213501
18	41.49210286140442	response	0	k		16.0	/experiments/knapen_AOT/AOT_stimuli/pictures/0678_fw.png	150.13423585891724	
19	41.50451302528381	picture	0		88	17.0	/experiments/knapen_AOT/AOT_stimuli/pictures/1514_fw.png	150.14664602279663	0.7292358875274658
19	42.225390911102295	response	0	j		17.0	/experiments/knapen_AOT/AOT_stimuli/pictures/1514_fw.png	150.8675239086151	
20	42.23374891281128	picture	0		96	18.0	/experiments/knapen_AOT/AOT_stimuli/pictures/0354_fw.png	150.8758819103241	0.8054099082946777
20	43.025473833084106	response	0	j		18.0	/experiments/knapen_AOT/AOT_stimuli/pictures/0354_fw.png	151.66760683059692	
21	43.03915882110596	picture	0		99	19.0	/experiments/knapen_AOT/AOT_stimuli/pictures/0429_fw.png	151.68129181861877	0.833449125289917
21	43.85892391204834	response	0	k		19.0	/experiments/knapen_AOT/AOT_stimuli/pictures/0429_fw.png	152.50105690956116	
22	43.872607946395874	picture	0		98	20.0	/experiments/knapen_AOT/AOT_stimuli/pictures/2015_fw.png	152.5147409439087	0.8194921016693115
22	44.683855056762695	response	0	j		20.0	/experiments/knapen_AOT/AOT_stimuli/pictures/2015_fw.png	153.3259880542755	
23	44.692100048065186	picture	0		176	21.0	/experiments/knapen_AOT/AOT_stimuli/pictures/1734_fw.png	153.334233045578	1.47198486328125
23	46.15047597885132	response	0	k		21.0	/experiments/knapen_AOT/AOT_stimuli/pictures/1734_fw.png	154.79260897636414	
24	46.164084911346436	picture	0		125	22.0	/experiments/knapen_AOT/AOT_stimuli/pictures/0344_fw.png	154.80621790885925	1.0487699508666992
24	47.19388198852539	response	0	k		22.0	/experiments/knapen_AOT/AOT_stimuli/pictures/0344_fw.png	155.8360149860382	
25	47.212854862213135	picture	0		141	23.0	/experiments/knapen_AOT/AOT_stimuli/pictures/2132_fw.png	155.85498785972595	1.1735870838165283
25	48.37551283836365	response	0	k		23.0	/experiments/knapen_AOT/AOT_stimuli/pictures/2132_fw.png	157.01764583587646	
26	48.38644194602966	picture	0		95	24.0	/experiments/knapen_AOT/AOT_stimuli/pictures/0408_fw.png	157.02857494354248	0.7916419506072998
26	49.16716384887695	response	0	j		24.0	/experiments/knapen_AOT/AOT_stimuli/pictures/0408_fw.png	157.80929684638977	
27	49.17808389663696	picture	0		86	25.0	/experiments/knapen_AOT/AOT_stimuli/pictures/0045_fw.png	157.82021689414978	0.7153360843658447
27	49.88389182090759	response	0	k		25.0	/experiments/knapen_AOT/AOT_stimuli/pictures/0045_fw.png	158.5260248184204	
28	49.89341998100281	picture	0		98	26.0	/experiments/knapen_AOT/AOT_stimuli/pictures/0662_fw.png	158.53555297851562	0.8194808959960938
28	50.700636863708496	response	0	j		26.0	/experiments/knapen_AOT/AOT_stimuli/pictures/0662_fw.png	159.3427698612213	
29	50.7129008769989	picture	0		82	27.0	/experiments/knapen_AOT/AOT_stimuli/pictures/0834_fw.png	159.35503387451172	0.6805050373077393
29	51.37709403038025	response	0	j		27.0	/experiments/knapen_AOT/AOT_stimuli/pictures/0834_fw.png	160.01922702789307	
30	51.39340591430664	picture	0		77	28.0	/experiments/knapen_AOT/AOT_stimuli/pictures/1276_fw.png	160.03553891181946	0.6458039283752441
30	52.02554202079773	response	0	j		28.0	/experiments/knapen_AOT/AOT_stimuli/pictures/1276_fw.png	160.66767501831055	
31	52.039209842681885	picture	0		139	29.0	/experiments/knapen_AOT/AOT_stimuli/pictures/1329_fw.png	160.6813428401947	1.1876091957092285
31	53.21727395057678	response	0	k		29.0	/experiments/knapen_AOT/AOT_stimuli/pictures/1329_fw.png	161.8594069480896	
32	53.22681903839111	picture	0		115	30.0	/experiments/knapen_AOT/AOT_stimuli/pictures/1922_fw.png	161.86895203590393	0.9582898616790771
32	54.175577878952026	response	0	j		30.0	/experiments/knapen_AOT/AOT_stimuli/pictures/1922_fw.png	162.81771087646484	
33	54.18510890007019	picture	0		85	31.0	/experiments/knapen_AOT/AOT_stimuli/pictures/2179_fw.png	162.827241897583	0.7083690166473389
33	54.88395404815674	response	0	j		31.0	/experiments/knapen_AOT/AOT_stimuli/pictures/2179_fw.png	163.52608704566956	
34	54.89347791671753	picture	0		78	32.0	/experiments/knapen_AOT/AOT_stimuli/pictures/1201_fw.png	163.53561091423035	0.6527371406555176
34	55.53407692909241	response	0	j		32.0	/experiments/knapen_AOT/AOT_stimuli/pictures/1201_fw.png	164.17620992660522	
35	55.54621505737305	picture	0		122	33.0	/experiments/knapen_AOT/AOT_stimuli/pictures/1071_fw.png	164.18834805488586	1.013915777206421
35	56.55060696601868	response	0	k		33.0	/experiments/knapen_AOT/AOT_stimuli/pictures/1071_fw.png	165.1927399635315	
36	56.56013083457947	picture	0		100	34.0	/experiments/knapen_AOT/AOT_stimuli/pictures/0401_fw.png	165.20226383209229	0.833442211151123
36	57.37745904922485	response	0	k		34.0	/experiments/knapen_AOT/AOT_stimuli/pictures/0401_fw.png	166.01959204673767	
37	57.39357304573059	picture	0		120	35.0	/experiments/knapen_AOT/AOT_stimuli/pictures/1554_fw.png	166.0357060432434	0.999945878982544
37	58.37728404998779	response	0	k		35.0	/experiments/knapen_AOT/AOT_stimuli/pictures/1554_fw.png	167.0194170475006	
38	58.393518924713135	picture	0		101	36.0	/experiments/knapen_AOT/AOT_stimuli/pictures/1467_fw.png	167.03565192222595	0.8403759002685547
38	59.22563290596008	response	0	j		36.0	/experiments/knapen_AOT/AOT_stimuli/pictures/1467_fw.png	167.8677659034729	
39	59.23389482498169	picture	0		104	37.0	/experiments/knapen_AOT/AOT_stimuli/pictures/1349_fw.png	167.8760278224945	0.8679211139678955
39	60.09231090545654	response	0	j		37.0	/experiments/knapen_AOT/AOT_stimuli/pictures/1349_fw.png	168.73444390296936	
40	60.101815938949585	picture	0		181	38.0	/experiments/knapen_AOT/AOT_stimuli/pictures/0097_fw.png	168.7439489364624	1.5070490837097168
40	61.600698947906494	response	0	j		38.0	/experiments/knapen_AOT/AOT_stimuli/pictures/0097_fw.png	170.2428319454193	
41	61.6088650226593	picture	0		101	39.0	/experiments/knapen_AOT/AOT_stimuli/pictures/0137_fw.png	170.25099802017212	0.8471508026123047
41	62.44234895706177	response	0	k		39.0	/experiments/knapen_AOT/AOT_stimuli/pictures/0137_fw.png	171.08448195457458	
42	62.456015825271606	picture	0		124	40.0	/experiments/knapen_AOT/AOT_stimuli/pictures/0437_fw.png	171.09814882278442	1.0416631698608398
42	63.48400402069092	response	0	j		40.0	/experiments/knapen_AOT/AOT_stimuli/pictures/0437_fw.png	172.12613701820374	
43	63.497678995132446	picture	0		87	41.0	/experiments/knapen_AOT/AOT_stimuli/pictures/1820_fw.png	172.13981199264526	0.7292230129241943
43	64.21740102767944	response	0	j		41.0	/experiments/knapen_AOT/AOT_stimuli/pictures/1820_fw.png	172.85953402519226	
44	64.22690200805664	picture	0		84	42.0	/experiments/knapen_AOT/AOT_stimuli/pictures/2125_fw.png	172.86903500556946	0.7013108730316162
44	64.91737794876099	response	0	k		42.0	/experiments/knapen_AOT/AOT_stimuli/pictures/2125_fw.png	173.5595109462738	
45	64.92821288108826	picture	0		113	43.0	/experiments/knapen_AOT/AOT_stimuli/pictures/1597_fw.png	173.57034587860107	0.9444601535797119
45	65.85910391807556	response	0	k		43.0	/experiments/knapen_AOT/AOT_stimuli/pictures/1597_fw.png	174.50123691558838	
46	65.87267303466797	picture	0		102	44.0	/experiments/knapen_AOT/AOT_stimuli/pictures/1963_fw.png	174.5148060321808	0.8541698455810547
46	66.71744990348816	response	0	j		44.0	/experiments/knapen_AOT/AOT_stimuli/pictures/1963_fw.png	175.35958290100098	
47	66.72684288024902	picture	0		103	45.0	/experiments/knapen_AOT/AOT_stimuli/pictures/1193_fw.png	175.36897587776184	0.8612401485443115
47	67.56891703605652	response	0	k		45.0	/experiments/knapen_AOT/AOT_stimuli/pictures/1193_fw.png	176.21105003356934	
48	67.58808302879333	picture	0		91	46.0	/experiments/knapen_AOT/AOT_stimuli/pictures/2128_fw.png	176.23021602630615	0.7568159103393555
48	68.33411002159119	response	0	k		46.0	/experiments/knapen_AOT/AOT_stimuli/pictures/2128_fw.png	176.976243019104	
49	68.34489893913269	picture	0		85	47.0	/experiments/knapen_AOT/AOT_stimuli/pictures/1911_fw.png	176.9870319366455	0.7083220481872559
49	69.04248785972595	response	0	j		47.0	/experiments/knapen_AOT/AOT_stimuli/pictures/1911_fw.png	177.68462085723877	
50	69.05322098731995	picture	0		91	48.0	/experiments/knapen_AOT/AOT_stimuli/pictures/1959_fw.png	177.69535398483276	0.7569458484649658
50	69.80076193809509	response	0	k		48.0	/experiments/knapen_AOT/AOT_stimuli/pictures/1959_fw.png	178.4428949356079	
51	69.81016683578491	picture	0		89	49.0	/experiments/knapen_AOT/AOT_stimuli/pictures/0703_fw.png	178.45229983329773	0.7430791854858398
51	70.54249095916748	response	0	j		49.0	/experiments/knapen_AOT/AOT_stimuli/pictures/0703_fw.png	179.1846239566803	
52	70.55324602127075	picture	0		92	50.0	/experiments/knapen_AOT/AOT_stimuli/pictures/0290_fw.png	179.19537901878357	0.764042854309082
52	71.3091459274292	response	0	k		50.0	/experiments/knapen_AOT/AOT_stimuli/pictures/0290_fw.png	179.95127892494202	
53	71.31728887557983	picture	0		112	51.0	/experiments/knapen_AOT/AOT_stimuli/pictures/1803_fw.png	179.95942187309265	0.9374029636383057
53	72.24249386787415	response	0	j		51.0	/experiments/knapen_AOT/AOT_stimuli/pictures/1803_fw.png	180.88462686538696	
54	72.25469183921814	picture	0		84	52.0	/experiments/knapen_AOT/AOT_stimuli/pictures/0393_fw.png	180.89682483673096	0.7014331817626953
54	72.94245505332947	response	0	k		52.0	/experiments/knapen_AOT/AOT_stimuli/pictures/0393_fw.png	181.58458805084229	
55	72.95612502098083	picture	0		92	53.0	/experiments/knapen_AOT/AOT_stimuli/pictures/1009_fw.png	181.59825801849365	0.7708609104156494
55	73.71749496459961	response	0	k		53.0	/experiments/knapen_AOT/AOT_stimuli/pictures/1009_fw.png	182.35962796211243	
56	73.72698593139648	picture	0		81	54.0	/experiments/knapen_AOT/AOT_stimuli/pictures/2056_fw.png	182.3691189289093	0.6736910343170166
56	74.39248704910278	response	0	j		54.0	/experiments/knapen_AOT/AOT_stimuli/pictures/2056_fw.png	183.0346200466156	
57	74.4006769657135	picture	0		71	55.0	/experiments/knapen_AOT/AOT_stimuli/pictures/0572_fw.png	183.04280996322632	0.5971219539642334
57	74.9774808883667	response	0	j		55.0	/experiments/knapen_AOT/AOT_stimuli/pictures/0572_fw.png	183.61961388587952	
58	74.99779891967773	picture	0		87	56.0	/experiments/knapen_AOT/AOT_stimuli/pictures/0358_fw.png	183.63993191719055	0.729180097579956
58	75.71753191947937	response	0	j		56.0	/experiments/knapen_AOT/AOT_stimuli/pictures/0358_fw.png	184.3596649169922	
59	75.72697901725769	picture	0		86	57.0	/experiments/knapen_AOT/AOT_stimuli/pictures/1672_fw.png	184.3691120147705	0.7153759002685547
59	76.43419003486633	response	0	j		57.0	/experiments/knapen_AOT/AOT_stimuli/pictures/1672_fw.png	185.07632303237915	
60	76.44235491752625	picture	0		103	58.0	/experiments/knapen_AOT/AOT_stimuli/pictures/0297_fw.png	185.08448791503906	0.8609459400177002
60	77.29255890846252	response	0	j		58.0	/experiments/knapen_AOT/AOT_stimuli/pictures/0297_fw.png	185.93469190597534	
61	77.30330085754395	picture	0		92	59.0	/experiments/knapen_AOT/AOT_stimuli/pictures/1486_fw.png	185.94543385505676	0.7640731334686279
61	78.05921697616577	response	0	j		59.0	/experiments/knapen_AOT/AOT_stimuli/pictures/1486_fw.png	186.7013499736786	
62	78.06737399101257	picture	0		113	60.0	/experiments/knapen_AOT/AOT_stimuli/pictures/1215_fw.png	186.7095069885254	0.9442899227142334
62	79.00085997581482	response	0	k		60.0	/experiments/knapen_AOT/AOT_stimuli/pictures/1215_fw.png	187.64299297332764	
63	79.0116639137268	picture	0		94	61.0	/experiments/knapen_AOT/AOT_stimuli/pictures/0757_fw.png	187.65379691123962	0.7847340106964111
63	79.78437495231628	response	0	j		61.0	/experiments/knapen_AOT/AOT_stimuli/pictures/0757_fw.png	188.4265079498291	
64	79.79639792442322	picture	0		93	62.0	/experiments/knapen_AOT/AOT_stimuli/pictures/0226_fw.png	188.43853092193604	0.7710111141204834
64	80.55241394042969	response	0	k		62.0	/experiments/knapen_AOT/AOT_stimuli/pictures/0226_fw.png	189.1945469379425	
65	80.5674090385437	picture	0		124	63.0	/experiments/knapen_AOT/AOT_stimuli/pictures/1865_fw.png	189.20954203605652	1.03460693359375
65	81.59261584281921	response	0	j		63.0	/experiments/knapen_AOT/AOT_stimuli/pictures/1865_fw.png	190.23474884033203	
66	81.60201597213745	picture	0		361	64.0	/experiments/knapen_AOT/AOT_stimuli/pictures/1623_fw.png	190.24414896965027	3.0155389308929443
66	84.60108804702759	response	0	j		64.0	/experiments/knapen_AOT/AOT_stimuli/pictures/1623_fw.png	193.2432210445404	
67	84.6175549030304	picture	0		106	65.0	/experiments/knapen_AOT/AOT_stimuli/pictures/0983_fw.png	193.2596879005432	0.8872120380401611
67	85.4927179813385	response	0	k		65.0	/experiments/knapen_AOT/AOT_stimuli/pictures/0983_fw.png	194.13485097885132	
68	85.50476694107056	picture	0		91	66.0	/experiments/knapen_AOT/AOT_stimuli/pictures/1273_fw.png	194.14689993858337	0.7569630146026611
68	86.25106000900269	response	0	j		66.0	/experiments/knapen_AOT/AOT_stimuli/pictures/1273_fw.png	194.8931930065155	
69	86.26172995567322	picture	0		87	67.0	/experiments/knapen_AOT/AOT_stimuli/pictures/1392_fw.png	194.90386295318604	0.7224419116973877
69	86.97607588768005	response	0	k		67.0	/experiments/knapen_AOT/AOT_stimuli/pictures/1392_fw.png	195.61820888519287	
70	86.9841718673706	picture	0		99	68.0	/experiments/knapen_AOT/AOT_stimuli/pictures/2000_fw.png	195.62630486488342	0.8261380195617676
70	87.80100798606873	response	0	k		68.0	/experiments/knapen_AOT/AOT_stimuli/pictures/2000_fw.png	196.44314098358154	
71	87.81030988693237	picture	0		109	69.0	/experiments/knapen_AOT/AOT_stimuli/pictures/1123_fw.png	196.4524428844452	0.9098000526428223
71	88.70949482917786	response	0	k		69.0	/experiments/knapen_AOT/AOT_stimuli/pictures/1123_fw.png	197.35162782669067	
72	88.7201099395752	picture	0		99	70.0	/experiments/knapen_AOT/AOT_stimuli/pictures/1653_fw.png	197.362242937088	0.8263819217681885
72	89.53438782691956	response	0	k		70.0	/experiments/knapen_AOT/AOT_stimuli/pictures/1653_fw.png	198.17652082443237	
73	89.54649186134338	picture	0		84	71.0	/experiments/knapen_AOT/AOT_stimuli/pictures/2124_fw.png	198.1886248588562	0.7013790607452393
73	90.23434495925903	response	0	j		71.0	/experiments/knapen_AOT/AOT_stimuli/pictures/2124_fw.png	198.87647795677185	
74	90.24787092208862	picture	0		109	72.0	/experiments/knapen_AOT/AOT_stimuli/pictures/0765_fw.png	198.89000391960144	0.9446840286254883
74	91.1845269203186	response	0	j		72.0	/experiments/knapen_AOT/AOT_stimuli/pictures/0765_fw.png	199.82665991783142	
75	91.19255495071411	picture	0		143	73.0	/experiments/knapen_AOT/AOT_stimuli/pictures/1263_fw.png	199.83468794822693	1.1941781044006348
75	92.37606000900269	response	0	j		73.0	/experiments/knapen_AOT/AOT_stimuli/pictures/1263_fw.png	201.0181930065155	
76	92.38673305511475	picture	0		88	74.0	/experiments/knapen_AOT/AOT_stimuli/pictures/0930_fw.png	201.02886605262756	0.7361929416656494
76	93.10942792892456	response	0	k		74.0	/experiments/knapen_AOT/AOT_stimuli/pictures/0930_fw.png	201.75156092643738	
77	93.1229259967804	picture	0		88	75.0	/experiments/knapen_AOT/AOT_stimuli/pictures/0508_fw.png	201.7650589942932	0.7363219261169434
77	93.85113596916199	response	0	k		75.0	/experiments/knapen_AOT/AOT_stimuli/pictures/0508_fw.png	202.4932689666748	
78	93.85924792289734	picture	0		80	76.0	/experiments/knapen_AOT/AOT_stimuli/pictures/0353_fw.png	202.50138092041016	0.6666760444641113
78	94.51777005195618	response	0	k		76.0	/experiments/knapen_AOT/AOT_stimuli/pictures/0353_fw.png	203.159903049469	
79	94.52592396736145	picture	0		103	77.0	/experiments/knapen_AOT/AOT_stimuli/pictures/1326_fw.png	203.16805696487427	0.8608989715576172
79	95.37613201141357	response	0	j		77.0	/experiments/knapen_AOT/AOT_stimuli/pictures/1326_fw.png	204.0182650089264	
80	95.38682293891907	picture	0		89	78.0	/experiments/knapen_AOT/AOT_stimuli/pictures/0650_fw.png	204.02895593643188	0.74310302734375
80	96.11792182922363	response	0	k		78.0	/experiments/knapen_AOT/AOT_stimuli/pictures/0650_fw.png	204.76005482673645	
81	96.12992596626282	picture	0		96	79.0	/experiments/knapen_AOT/AOT_stimuli/pictures/0599_fw.png	204.77205896377563	0.7984969615936279
81	96.91779088973999	response	0	k		79.0	/experiments/knapen_AOT/AOT_stimuli/pictures/0599_fw.png	205.5599238872528	
82	96.92842292785645	picture	0		87	80.0	/experiments/knapen_AOT/AOT_stimuli/pictures/1258_fw.png	205.57055592536926	0.722538948059082
82	97.64295482635498	response	0	j		80.0	/experiments/knapen_AOT/AOT_stimuli/pictures/1258_fw.png	206.2850878238678	
83	97.65096187591553	picture	0		94	81.0	/experiments/knapen_AOT/AOT_stimuli/pictures/1036_fw.png	206.29309487342834	0.7845561504364014
83	98.42614698410034	response	0	j		81.0	/experiments/knapen_AOT/AOT_stimuli/pictures/1036_fw.png	207.06827998161316	
84	98.43551802635193	picture	0		81	82.0	/experiments/knapen_AOT/AOT_stimuli/pictures/0371_fw.png	207.07765102386475	0.6738250255584717
84	99.10115385055542	response	0	k		82.0	/experiments/knapen_AOT/AOT_stimuli/pictures/0371_fw.png	207.74328684806824	
85	99.1093430519104	picture	0		81	83.0	/experiments/knapen_AOT/AOT_stimuli/pictures/1733_fw.png	207.75147604942322	0.6802399158477783
85	99.7761390209198	response	0	j		83.0	/experiments/knapen_AOT/AOT_stimuli/pictures/1733_fw.png	208.41827201843262	
86	99.78958296775818	picture	0		130	84.0	/experiments/knapen_AOT/AOT_stimuli/pictures/0239_fw.png	208.431715965271	1.0903089046478271
86	100.8679928779602	response	0	j		84.0	/experiments/knapen_AOT/AOT_stimuli/pictures/0239_fw.png	209.51012587547302	
87	100.879891872406	picture	0		95	85.0	/experiments/knapen_AOT/AOT_stimuli/pictures/0776_fw.png	209.52202486991882	0.791680097579956
87	101.65965485572815	response	0	j		85.0	/experiments/knapen_AOT/AOT_stimuli/pictures/0776_fw.png	210.30178785324097	
88	101.67157196998596	picture	0		98	86.0	/experiments/knapen_AOT/AOT_stimuli/pictures/2112_fw.png	210.31370496749878	0.8127930164337158
88	102.47619104385376	response	0	k		86.0	/experiments/knapen_AOT/AOT_stimuli/pictures/2112_fw.png	211.11832404136658	
89	102.48436498641968	picture	0		100	87.0	/experiments/knapen_AOT/AOT_stimuli/pictures/2091_fw.png	211.1264979839325	0.8333370685577393
89	103.30960202217102	response	0	k		87.0	/experiments/knapen_AOT/AOT_stimuli/pictures/2091_fw.png	211.95173501968384	
90	103.31770205497742	picture	0		386	88.0	/experiments/knapen_AOT/AOT_stimuli/pictures/0495_fw.png	211.95983505249023	3.2218379974365234
90	106.51956987380981	response	0	j		88.0	/experiments/knapen_AOT/AOT_stimuli/pictures/0495_fw.png	215.16170287132263	
91	106.53954005241394	picture	0		75	89.0	/experiments/knapen_AOT/AOT_stimuli/pictures/2038_fw.png	215.18167304992676	0.6320998668670654
91	107.15953588485718	response	0	k		89.0	/experiments/knapen_AOT/AOT_stimuli/pictures/2038_fw.png	215.80166888237	
92	107.171639919281	picture	0		85	90.0	/experiments/knapen_AOT/AOT_stimuli/pictures/0426_fw.png	215.81377291679382	0.7083570957183838
92	107.86811304092407	response	0	k		90.0	/experiments/knapen_AOT/AOT_stimuli/pictures/0426_fw.png	216.5102460384369	
93	107.87999701499939	picture	0		79	91.0	/experiments/knapen_AOT/AOT_stimuli/pictures/0543_fw.png	216.5221300125122	0.6597559452056885
93	108.51962494850159	response	0	j		91.0	/experiments/knapen_AOT/AOT_stimuli/pictures/0543_fw.png	217.1617579460144	
94	108.53975296020508	picture	0		116	92.0	/experiments/knapen_AOT/AOT_stimuli/pictures/1721_fw.png	217.1818859577179	0.9721400737762451
94	109.50126695632935	response	0	k		92.0	/experiments/knapen_AOT/AOT_stimuli/pictures/1721_fw.png	218.14339995384216	
95	109.51189303398132	picture	0		89	93.0	/experiments/knapen_AOT/AOT_stimuli/pictures/0186_fw.png	218.15402603149414	0.7430799007415771
95	110.24303483963013	response	0	k		93.0	/experiments/knapen_AOT/AOT_stimuli/pictures/0186_fw.png	218.88516783714294	
96	110.2549729347229	picture	0		80	94.0	/experiments/knapen_AOT/AOT_stimuli/pictures/1364_fw.png	218.89710593223572	0.6666998863220215
96	110.90978288650513	response	0	j		94.0	/experiments/knapen_AOT/AOT_stimuli/pictures/1364_fw.png	219.55191588401794	
97	110.92167282104492	picture	0		184	95.0	/experiments/knapen_AOT/AOT_stimuli/pictures/1055_fw.png	219.56380581855774	1.5345981121063232
97	112.44316792488098	response	0	k		95.0	/experiments/knapen_AOT/AOT_stimuli/pictures/1055_fw.png	221.0853009223938	
98	112.45627093315125	picture	0		97	96.0	/experiments/knapen_AOT/AOT_stimuli/pictures/1889_fw.png	221.09840393066406	0.8125829696655273
98	113.25967192649841	response	0	k		96.0	/experiments/knapen_AOT/AOT_stimuli/pictures/1889_fw.png	221.90180492401123	
99	113.26885390281677	picture	0		83	97.0	/experiments/knapen_AOT/AOT_stimuli/pictures/1121_fw.png	221.9109869003296	0.694472074508667
99	113.95133900642395	response	0	j		97.0	/experiments/knapen_AOT/AOT_stimuli/pictures/1121_fw.png	222.59347200393677	
100	113.96332597732544	picture	0		83	98.0	/experiments/knapen_AOT/AOT_stimuli/pictures/0901_fw.png	222.60545897483826	0.6878619194030762
100	114.64305782318115	response	0	k		98.0	/experiments/knapen_AOT/AOT_stimuli/pictures/0901_fw.png	223.28519082069397	
101	114.65118789672852	picture	0		79	99.0	/experiments/knapen_AOT/AOT_stimuli/pictures/1366_fw.png	223.29332089424133	0.6594221591949463
101	115.30135488510132	response	0	j		99.0	/experiments/knapen_AOT/AOT_stimuli/pictures/1366_fw.png	223.94348788261414	
102	115.31061005592346	picture	0		79	100.0	/experiments/knapen_AOT/AOT_stimuli/pictures/0833_fw.png	223.95274305343628	0.659674882888794
102	115.95970702171326	response	0	j		100.0	/experiments/knapen_AOT/AOT_stimuli/pictures/0833_fw.png	224.60184001922607	
103	115.97028493881226	picture	0		93	101.0	/experiments/knapen_AOT/AOT_stimuli/pictures/0283_fw.png	224.61241793632507	0.7778260707855225
103	116.72800993919373	response	0	j		101.0	/experiments/knapen_AOT/AOT_stimuli/pictures/0283_fw.png	225.37014293670654	
104	116.74811100959778	picture	0		115	102.0	/experiments/knapen_AOT/AOT_stimuli/pictures/1948_fw.png	225.3902440071106	0.9652438163757324
104	117.70141291618347	response	0	j		102.0	/experiments/knapen_AOT/AOT_stimuli/pictures/1948_fw.png	226.3435459136963	
105	117.71335482597351	picture	0		158	103.0	/experiments/knapen_AOT/AOT_stimuli/pictures/0475_fw.png	226.35548782348633	1.3130011558532715
105	119.01813888549805	response	0	k		103.0	/experiments/knapen_AOT/AOT_stimuli/pictures/0475_fw.png	227.66027188301086	
106	119.02635598182678	picture	0		99	104.0	/experiments/knapen_AOT/AOT_stimuli/pictures/1005_fw.png	227.6684889793396	0.8258640766143799
106	119.8430860042572	response	0	k		104.0	/experiments/knapen_AOT/AOT_stimuli/pictures/1005_fw.png	228.48521900177002	
107	119.85222005844116	picture	0		124	105.0	/experiments/knapen_AOT/AOT_stimuli/pictures/1231_fw.png	228.49435305595398	1.0347568988800049
107	120.87662696838379	response	0	k		105.0	/experiments/knapen_AOT/AOT_stimuli/pictures/1231_fw.png	229.5187599658966	
108	120.88697695732117	picture	0		72	106.0	/experiments/knapen_AOT/AOT_stimuli/pictures/2022_fw.png	229.52910995483398	0.5976400375366211
108	121.47648692131042	response	0	k		106.0	/experiments/knapen_AOT/AOT_stimuli/pictures/2022_fw.png	230.11861991882324	
109	121.48461699485779	picture	0		84	107.0	/experiments/knapen_AOT/AOT_stimuli/pictures/0800_fw.png	230.1267499923706	0.70100998878479
109	122.176442861557	response	0	j		107.0	/experiments/knapen_AOT/AOT_stimuli/pictures/0800_fw.png	230.81857585906982	
110	122.18562698364258	picture	0		90	108.0	/experiments/knapen_AOT/AOT_stimuli/pictures/0012_fw.png	230.8277599811554	0.7500119209289551
110	122.91998505592346	response	0	k		108.0	/experiments/knapen_AOT/AOT_stimuli/pictures/0012_fw.png	231.56211805343628	
111	122.93563890457153	picture	0		73	109.0	/experiments/knapen_AOT/AOT_stimuli/pictures/1111_fw.png	231.57777190208435	0.6111159324645996
111	123.52798199653625	response	0	k		109.0	/experiments/knapen_AOT/AOT_stimuli/pictures/1111_fw.png	232.17011499404907	
112	123.54675483703613	picture	0		94	110.0	/experiments/knapen_AOT/AOT_stimuli/pictures/1133_fw.png	232.18888783454895	0.7847239971160889
112	124.311439037323	response	0	j		110.0	/experiments/knapen_AOT/AOT_stimuli/pictures/1133_fw.png	232.95357203483582	
113	124.33147883415222	picture	0		95	111.0	/experiments/knapen_AOT/AOT_stimuli/pictures/1041_fw.png	232.97361183166504	0.798598051071167
113	125.11134386062622	response	0	j		111.0	/experiments/knapen_AOT/AOT_stimuli/pictures/1041_fw.png	233.75347685813904	
114	125.13007688522339	picture	0		84	112.0	/experiments/knapen_AOT/AOT_stimuli/pictures/2093_fw.png	233.7722098827362	0.7014269828796387
114	125.81815099716187	response	0	j		112.0	/experiments/knapen_AOT/AOT_stimuli/pictures/2093_fw.png	234.46028399467468	
115	125.83150386810303	picture	0		94	113.0	/experiments/knapen_AOT/AOT_stimuli/pictures/0635_fw.png	234.47363686561584	0.7916171550750732
115	126.60996294021606	response	0	k		113.0	/experiments/knapen_AOT/AOT_stimuli/pictures/0635_fw.png	235.25209593772888	
116	126.6231210231781	picture	0		109	114.0	/experiments/knapen_AOT/AOT_stimuli/pictures/0639_fw.png	235.26525402069092	0.9167590141296387
116	127.51976490020752	response	0	k		114.0	/experiments/knapen_AOT/AOT_stimuli/pictures/0639_fw.png	236.16189789772034	
117	127.53988003730774	picture	0		74	115.0	/experiments/knapen_AOT/AOT_stimuli/pictures/1003_fw.png	236.18201303482056	0.6457698345184326
117	128.17654705047607	response	0	j		115.0	/experiments/knapen_AOT/AOT_stimuli/pictures/1003_fw.png	236.8186800479889	
118	128.18564987182617	picture	0		83	116.0	/experiments/knapen_AOT/AOT_stimuli/pictures/2051_fw.png	236.827782869339	0.6944911479949951
118	128.86822700500488	response	0	k		116.0	/experiments/knapen_AOT/AOT_stimuli/pictures/2051_fw.png	237.5103600025177	
119	128.88014101982117	picture	0		91	117.0	/experiments/knapen_AOT/AOT_stimuli/pictures/0762_fw.png	237.52227401733398	0.7568700313568115
119	129.6265459060669	response	0	j		117.0	/experiments/knapen_AOT/AOT_stimuli/pictures/0762_fw.png	238.2686789035797	
120	129.63701105117798	picture	0		95	118.0	/experiments/knapen_AOT/AOT_stimuli/pictures/0294_fw.png	238.2791440486908	0.7916908264160156
120	130.41823291778564	response	0	j		118.0	/experiments/knapen_AOT/AOT_stimuli/pictures/0294_fw.png	239.06036591529846	
121	130.428701877594	picture	0		80	119.0	/experiments/knapen_AOT/AOT_stimuli/pictures/1343_fw.png	239.0708348751068	0.6667330265045166
121	131.08491587638855	response	0	k		119.0	/experiments/knapen_AOT/AOT_stimuli/pictures/1343_fw.png	239.72704887390137	
122	131.0954349040985	picture	0		105	120.0	/experiments/knapen_AOT/AOT_stimuli/pictures/1065_fw.png	239.73756790161133	0.8749480247497559
122	131.95990085601807	response	0	j		120.0	/experiments/knapen_AOT/AOT_stimuli/pictures/1065_fw.png	240.60203385353088	
123	131.97038292884827	picture	0		67	121.0	/experiments/knapen_AOT/AOT_stimuli/pictures/1054_fw.png	240.61251592636108	0.5626189708709717
123	132.51150703430176	response	0	j		121.0	/experiments/knapen_AOT/AOT_stimuli/pictures/1054_fw.png	241.15364003181458	
124	132.53300189971924	picture	0		73	122.0	/experiments/knapen_AOT/AOT_stimuli/pictures/2053_fw.png	241.17513489723206	0.6110410690307617
124	133.13489699363708	response	0	j		122.0	/experiments/knapen_AOT/AOT_stimuli/pictures/2053_fw.png	241.7770299911499	
125	133.14404296875	picture	0		78	123.0	/experiments/knapen_AOT/AOT_stimuli/pictures/1112_fw.png	241.78617596626282	0.6528019905090332
125	133.78500986099243	response	0	j		123.0	/experiments/knapen_AOT/AOT_stimuli/pictures/1112_fw.png	242.42714285850525	
126	133.79684495925903	picture	0		91	124.0	/experiments/knapen_AOT/AOT_stimuli/pictures/1280_fw.png	242.43897795677185	0.7569329738616943
126	134.5432448387146	response	0	j		124.0	/experiments/knapen_AOT/AOT_stimuli/pictures/1280_fw.png	243.18537783622742	
127	134.55377793312073	picture	0		64	125.0	/experiments/knapen_AOT/AOT_stimuli/pictures/1960_fw.png	243.19591093063354	0.5347940921783447
127	135.07664489746094	response	0	j		125.0	/experiments/knapen_AOT/AOT_stimuli/pictures/1960_fw.png	243.71877789497375	
128	135.08857202529907	picture	0		73	126.0	/experiments/knapen_AOT/AOT_stimuli/pictures/0552_fw.png	243.7307050228119	0.604557991027832
128	135.6849880218506	response	0	k		126.0	/experiments/knapen_AOT/AOT_stimuli/pictures/0552_fw.png	244.3271210193634	
129	135.6931300163269	picture	0		101	127.0	/experiments/knapen_AOT/AOT_stimuli/pictures/1841_fw.png	244.33526301383972	0.8468079566955566
129	136.51993584632874	response	0	k		127.0	/experiments/knapen_AOT/AOT_stimuli/pictures/1841_fw.png	245.16206884384155	
130	136.53993797302246	picture	0		95	128.0	/experiments/knapen_AOT/AOT_stimuli/pictures/0002_fw.png	245.18207097053528	0.7986259460449219
130	137.3267788887024	response	0	k		128.0	/experiments/knapen_AOT/AOT_stimuli/pictures/0002_fw.png	245.9689118862152	
131	137.33856391906738	picture	0		75	129.0	/experiments/knapen_AOT/AOT_stimuli/pictures/0024_fw.png	245.9806969165802	0.6250009536743164
131	137.9517538547516	response	0	k		129.0	/experiments/knapen_AOT/AOT_stimuli/pictures/0024_fw.png	246.5938868522644	
132	137.9635648727417	picture	0		77	130.0	/experiments/knapen_AOT/AOT_stimuli/pictures/1104_fw.png	246.60569787025452	0.6388940811157227
132	138.59337186813354	response	0	k		130.0	/experiments/knapen_AOT/AOT_stimuli/pictures/1104_fw.png	247.23550486564636	
133	138.60245895385742	picture	0		83	131.0	/experiments/knapen_AOT/AOT_stimuli/pictures/1986_fw.png	247.24459195137024	0.6943709850311279
133	139.2850420475006	response	0	k		131.0	/experiments/knapen_AOT/AOT_stimuli/pictures/1986_fw.png	247.92717504501343	
134	139.29682993888855	picture	0		89	132.0	/experiments/knapen_AOT/AOT_stimuli/pictures/1143_fw.png	247.93896293640137	0.7432088851928711
134	140.02676105499268	response	0	k		132.0	/experiments/knapen_AOT/AOT_stimuli/pictures/1143_fw.png	248.6688940525055	
135	140.04003882408142	picture	0		133	133.0	/experiments/knapen_AOT/AOT_stimuli/pictures/0101_fw.png	248.68217182159424	1.1114981174468994
135	141.14339900016785	response	0	k		133.0	/experiments/knapen_AOT/AOT_stimuli/pictures/0101_fw.png	249.78553199768066	
136	141.15153694152832	picture	0		87	134.0	/experiments/knapen_AOT/AOT_stimuli/pictures/0386_fw.png	249.79366993904114	0.7286241054534912
136	141.86839485168457	response	0	j		134.0	/experiments/knapen_AOT/AOT_stimuli/pictures/0386_fw.png	250.5105278491974	
137	141.8801610469818	picture	0		99	135.0	/experiments/knapen_AOT/AOT_stimuli/pictures/0169_fw.png	250.52229404449463	0.8265259265899658
137	142.68661499023438	response	0	k		135.0	/experiments/knapen_AOT/AOT_stimuli/pictures/0169_fw.png	251.3287479877472	
138	142.70668697357178	picture	0		178	136.0	/experiments/knapen_AOT/AOT_stimuli/pictures/0534_fw.png	251.3488199710846	1.4929249286651611
138	144.1851110458374	response	0	j		136.0	/experiments/knapen_AOT/AOT_stimuli/pictures/0534_fw.png	252.82724404335022	
139	144.19961190223694	picture	0		70	137.0	/experiments/knapen_AOT/AOT_stimuli/pictures/1640_fw.png	252.84174489974976	0.5937690734863281
139	144.776762008667	response	0	k		137.0	/experiments/knapen_AOT/AOT_stimuli/pictures/1640_fw.png	253.4188950061798	
140	144.79338097572327	picture	0		90	138.0	/experiments/knapen_AOT/AOT_stimuli/pictures/1179_fw.png	253.43551397323608	0.7534909248352051
140	145.53514003753662	response	0	j		138.0	/experiments/knapen_AOT/AOT_stimuli/pictures/1179_fw.png	254.17727303504944	
141	145.54687190055847	picture	0		120	139.0	/experiments/knapen_AOT/AOT_stimuli/pictures/0702_fw.png	254.1890048980713	1.0
141	146.53516483306885	response	0	k		139.0	/experiments/knapen_AOT/AOT_stimuli/pictures/0702_fw.png	255.17729783058167	
142	146.54687190055847	picture	0		83	140.0	/experiments/knapen_AOT/AOT_stimuli/pictures/1079_fw.png	255.1890048980713	0.6881179809570312
142	147.22679495811462	response	0	j		140.0	/experiments/knapen_AOT/AOT_stimuli/pictures/1079_fw.png	255.86892795562744	
143	147.2349898815155	picture	0		105	141.0	/experiments/knapen_AOT/AOT_stimuli/pictures/0812_fw.png	255.87712287902832	0.8833379745483398
143	148.09507989883423	response	0	k		141.0	/experiments/knapen_AOT/AOT_stimuli/pictures/0812_fw.png	256.73721289634705	
144	148.11832785606384	picture	0		87	142.0	/experiments/knapen_AOT/AOT_stimuli/pictures/0417_fw.png	256.76046085357666	0.7271859645843506
144	148.83521485328674	response	0	k		142.0	/experiments/knapen_AOT/AOT_stimuli/pictures/0417_fw.png	257.47734785079956	
145	148.8455138206482	picture	0		90	143.0	/experiments/knapen_AOT/AOT_stimuli/pictures/0016_fw.png	257.487646818161	0.7499780654907227
145	149.5851149559021	response	0	k		143.0	/experiments/knapen_AOT/AOT_stimuli/pictures/0016_fw.png	258.2272479534149	
146	149.59549188613892	picture	0		79	144.0	/experiments/knapen_AOT/AOT_stimuli/pictures/2043_fw.png	258.23762488365173	0.6597399711608887
146	150.24348092079163	response	0	j		144.0	/experiments/knapen_AOT/AOT_stimuli/pictures/2043_fw.png	258.88561391830444	
147	150.2552318572998	picture	0		115	145.0	/experiments/knapen_AOT/AOT_stimuli/pictures/0956_fw.png	258.8973648548126	0.9584090709686279
147	151.20184087753296	response	0	j		145.0	/experiments/knapen_AOT/AOT_stimuli/pictures/0956_fw.png	259.8439738750458	
148	151.21364092826843	picture	0		134	146.0	/experiments/knapen_AOT/AOT_stimuli/pictures/1368_fw.png	259.85577392578125	1.118074893951416
148	152.31849789619446	response	0	j		146.0	/experiments/knapen_AOT/AOT_stimuli/pictures/1368_fw.png	260.9606308937073	
149	152.33171582221985	picture	0		112	147.0	/experiments/knapen_AOT/AOT_stimuli/pictures/1001_fw.png	260.97384881973267	0.9374082088470459
149	153.26020503044128	response	0	j		147.0	/experiments/knapen_AOT/AOT_stimuli/pictures/1001_fw.png	261.9023380279541	
150	153.2691240310669	picture	0		105	148.0	/experiments/knapen_AOT/AOT_stimuli/pictures/0022_fw.png	261.9112570285797	0.8750247955322266
150	154.1351809501648	response	0	k		148.0	/experiments/knapen_AOT/AOT_stimuli/pictures/0022_fw.png	262.7773139476776	
151	154.14414882659912	picture	0		106	149.0	/experiments/knapen_AOT/AOT_stimuli/pictures/1926_fw.png	262.78628182411194	0.8825712203979492
151	155.018620967865	response	0	j		149.0	/experiments/knapen_AOT/AOT_stimuli/pictures/1926_fw.png	263.6607539653778	
152	155.02672004699707	picture	0		72	150.0	/experiments/knapen_AOT/AOT_stimuli/pictures/2150_fw.png	263.6688530445099	0.6083779335021973
152	155.61870098114014	response	0	j		150.0	/experiments/knapen_AOT/AOT_stimuli/pictures/2150_fw.png	264.26083397865295	
153	155.63509798049927	picture	0		128	151.0	/experiments/knapen_AOT/AOT_stimuli/pictures/0748_fw.png	264.2772309780121	1.0716140270233154
153	156.68687987327576	response	0	j		151.0	/experiments/knapen_AOT/AOT_stimuli/pictures/0748_fw.png	265.3290128707886	
154	156.70671200752258	picture	0		94	152.0	/experiments/knapen_AOT/AOT_stimuli/pictures/1751_fw.png	265.3488450050354	0.7916719913482666
154	157.4784460067749	response	0	j		152.0	/experiments/knapen_AOT/AOT_stimuli/pictures/1751_fw.png	266.1205790042877	
155	157.49838399887085	picture	0		147	153.0	/experiments/knapen_AOT/AOT_stimuli/pictures/0139_fw.png	266.14051699638367	1.222179889678955
155	158.71023893356323	response	0	j		153.0	/experiments/knapen_AOT/AOT_stimuli/pictures/0139_fw.png	267.35237193107605	
156	158.7205638885498	picture	0		79	154.0	/experiments/knapen_AOT/AOT_stimuli/pictures/0695_fw.png	267.3626968860626	0.6812679767608643
156	159.39365100860596	response	0	j		154.0	/experiments/knapen_AOT/AOT_stimuli/pictures/0695_fw.png	268.0357840061188	
157	159.40183186531067	picture	0		210	155.0	/experiments/knapen_AOT/AOT_stimuli/pictures/1676_fw.png	268.0439648628235	1.758331060409546
157	161.1442928314209	response	0	k		155.0	/experiments/knapen_AOT/AOT_stimuli/pictures/1676_fw.png	269.7864258289337	
158	161.16016292572021	picture	0		79	156.0	/experiments/knapen_AOT/AOT_stimuli/pictures/0584_fw.png	269.80229592323303	0.6583719253540039
158	161.81031394004822	response	0	k		156.0	/experiments/knapen_AOT/AOT_stimuli/pictures/0584_fw.png	270.45244693756104	
159	161.81853485107422	picture	0		97	157.0	/experiments/knapen_AOT/AOT_stimuli/pictures/0871_fw.png	270.46066784858704	0.8118560314178467
159	162.6187138557434	response	0	j		157.0	/experiments/knapen_AOT/AOT_stimuli/pictures/0871_fw.png	271.2608468532562	
160	162.63039088249207	picture	0		79	158.0	/experiments/knapen_AOT/AOT_stimuli/pictures/1558_fw.png	271.2725238800049	0.6596801280975342
160	163.2704839706421	response	0	j		158.0	/experiments/knapen_AOT/AOT_stimuli/pictures/1558_fw.png	271.9126169681549	
161	163.2900710105896	picture	0		99	159.0	/experiments/knapen_AOT/AOT_stimuli/pictures/2033_fw.png	271.9322040081024	0.8334348201751709
161	164.11030387878418	response	0	k		159.0	/experiments/knapen_AOT/AOT_stimuli/pictures/2033_fw.png	272.752436876297	
162	164.12350583076477	picture	0		86	160.0	/experiments/knapen_AOT/AOT_stimuli/pictures/0370_fw.png	272.7656388282776	0.722182035446167
162	164.8353250026703	response	0	k		160.0	/experiments/knapen_AOT/AOT_stimuli/pictures/0370_fw.png	273.4774580001831	
163	164.84568786621094	picture	0		85	161.0	/experiments/knapen_AOT/AOT_stimuli/pictures/1457_fw.png	273.48782086372375	0.7083389759063721
163	165.54367804527283	response	0	j		161.0	/experiments/knapen_AOT/AOT_stimuli/pictures/1457_fw.png	274.18581104278564	
164	165.5540268421173	picture	0		114	162.0	/experiments/knapen_AOT/AOT_stimuli/pictures/1985_fw.png	274.1961598396301	0.9513571262359619
164	166.48687195777893	response	0	j		162.0	/experiments/knapen_AOT/AOT_stimuli/pictures/1985_fw.png	275.12900495529175	
165	166.50538396835327	picture	0		171	163.0	/experiments/knapen_AOT/AOT_stimuli/pictures/1753_fw.png	275.1475169658661	1.423590898513794
165	167.91886496543884	response	0	k		163.0	/experiments/knapen_AOT/AOT_stimuli/pictures/1753_fw.png	276.56099796295166	
166	167.92897486686707	picture	0		138	164.0	/experiments/knapen_AOT/AOT_stimuli/pictures/0233_fw.png	276.5711078643799	1.1529250144958496
166	169.06269001960754	response	0	k		164.0	/experiments/knapen_AOT/AOT_stimuli/pictures/0233_fw.png	277.70482301712036	
167	169.08189988136292	picture	0		102	165.0	/experiments/knapen_AOT/AOT_stimuli/pictures/1827_fw.png	277.72403287887573	0.8541021347045898
167	169.92707204818726	response	0	k		165.0	/experiments/knapen_AOT/AOT_stimuli/pictures/1827_fw.png	278.5692050457001	
168	169.9360020160675	picture	0		84	166.0	/experiments/knapen_AOT/AOT_stimuli/pictures/2078_fw.png	278.5781350135803	0.7076878547668457
168	170.62705993652344	response	0	j		166.0	/experiments/knapen_AOT/AOT_stimuli/pictures/2078_fw.png	279.26919293403625	
169	170.64368987083435	picture	0		111	167.0	/experiments/knapen_AOT/AOT_stimuli/pictures/1860_fw.png	279.28582286834717	0.9250521659851074
169	171.56043982505798	response	0	k		167.0	/experiments/knapen_AOT/AOT_stimuli/pictures/1860_fw.png	280.2025728225708	
170	171.56874203681946	picture	0		95	168.0	/experiments/knapen_AOT/AOT_stimuli/pictures/0507_fw.png	280.2108750343323	0.7998960018157959
170	172.35286784172058	response	0	j		168.0	/experiments/knapen_AOT/AOT_stimuli/pictures/0507_fw.png	280.9950008392334	
171	172.36863803863525	picture	0		149	169.0	/experiments/knapen_AOT/AOT_stimuli/pictures/2088_fw.png	281.01077103614807	1.2501938343048096
171	173.60278391838074	response	0	k		169.0	/experiments/knapen_AOT/AOT_stimuli/pictures/2088_fw.png	282.24491691589355	
172	173.61883187294006	picture	0		160	170.0	/experiments/knapen_AOT/AOT_stimuli/pictures/1078_fw.png	282.2609648704529	1.341536045074463
172	174.94395184516907	response	0	k		170.0	/experiments/knapen_AOT/AOT_stimuli/pictures/1078_fw.png	283.5860848426819	
173	174.96036791801453	picture	0		88	171.0	/experiments/knapen_AOT/AOT_stimuli/pictures/0759_fw.png	283.60250091552734	0.7395439147949219
173	175.67874193191528	response	0	k		171.0	/experiments/knapen_AOT/AOT_stimuli/pictures/0759_fw.png	284.3208749294281	
174	175.69991183280945	picture	0		87	172.0	/experiments/knapen_AOT/AOT_stimuli/pictures/0855_fw.png	284.34204483032227	0.7291960716247559
174	176.41881704330444	response	0	j		172.0	/experiments/knapen_AOT/AOT_stimuli/pictures/0855_fw.png	285.06095004081726	
175	176.4291079044342	picture	0		128	173.0	/experiments/knapen_AOT/AOT_stimuli/pictures/0307_fw.png	285.071240901947	1.0695531368255615
175	177.48568105697632	response	0	k		173.0	/experiments/knapen_AOT/AOT_stimuli/pictures/0307_fw.png	286.12781405448914	
176	177.49866104125977	picture	0		98	174.0	/experiments/knapen_AOT/AOT_stimuli/pictures/2011_fw.png	286.1407940387726	0.8284139633178711
176	178.31122088432312	response	0	j		174.0	/experiments/knapen_AOT/AOT_stimuli/pictures/2011_fw.png	286.95335388183594	
177	178.32707500457764	picture	0		81	175.0	/experiments/knapen_AOT/AOT_stimuli/pictures/0033_fw.png	286.96920800209045	0.6784789562225342
177	178.9938609600067	response	0	k		175.0	/experiments/knapen_AOT/AOT_stimuli/pictures/0033_fw.png	287.63599395751953	
178	179.00555396080017	picture	0		89	176.0	/experiments/knapen_AOT/AOT_stimuli/pictures/1141_fw.png	287.647686958313	0.7430360317230225
178	179.73554682731628	response	0	j		176.0	/experiments/knapen_AOT/AOT_stimuli/pictures/1141_fw.png	288.3776798248291	
179	179.7485899925232	picture	0		79	177.0	/experiments/knapen_AOT/AOT_stimuli/pictures/1906_fw.png	288.390722990036	0.6618850231170654
179	180.39463305473328	response	0	j		177.0	/experiments/knapen_AOT/AOT_stimuli/pictures/1906_fw.png	289.0367660522461	
180	180.41047501564026	picture	0		126	178.0	/experiments/knapen_AOT/AOT_stimuli/pictures/0557_fw.png	289.0526080131531	1.0583488941192627
180	181.44548392295837	response	0	k		178.0	/experiments/knapen_AOT/AOT_stimuli/pictures/0557_fw.png	290.0876169204712	
181	181.46882390975952	picture	0		349	179.0	/experiments/knapen_AOT/AOT_stimuli/pictures/1605_fw.png	290.11095690727234	2.916675090789795
181	184.36907601356506	response	0	j		179.0	/experiments/knapen_AOT/AOT_stimuli/pictures/1605_fw.png	293.0112090110779	
182	184.38549900054932	picture	0		69	180.0	/experiments/knapen_AOT/AOT_stimuli/pictures/0120_fw.png	293.02763199806213	0.5833299160003662
182	184.9523618221283	response	0	j		180.0	/experiments/knapen_AOT/AOT_stimuli/pictures/0120_fw.png	293.5944948196411	
183	184.96882891654968	picture	0		142	181.0	/experiments/knapen_AOT/AOT_stimuli/pictures/0818_fw.png	293.6109619140625	1.1917409896850586
183	186.14455485343933	response	0	k		181.0	/experiments/knapen_AOT/AOT_stimuli/pictures/0818_fw.png	294.78668785095215	
184	186.16056990623474	picture	0		158	182.0	/experiments/knapen_AOT/AOT_stimuli/pictures/1680_fw.png	294.80270290374756	1.3171889781951904
184	187.46223902702332	response	0	j		182.0	/experiments/knapen_AOT/AOT_stimuli/pictures/1680_fw.png	296.10437202453613	
185	187.47775888442993	picture	0		121	183.0	/experiments/knapen_AOT/AOT_stimuli/pictures/0841_fw.png	296.11989188194275	1.0139069557189941
185	188.4779930114746	response	0	k		183.0	/experiments/knapen_AOT/AOT_stimuli/pictures/0841_fw.png	297.1201260089874	
186	188.49166584014893	picture	0		96	184.0	/experiments/knapen_AOT/AOT_stimuli/pictures/1365_fw.png	297.13379883766174	0.8055641651153564
186	189.28568291664124	response	0	j		184.0	/experiments/knapen_AOT/AOT_stimuli/pictures/1365_fw.png	297.92781591415405	
187	189.29723000526428	picture	0		89	185.0	/experiments/knapen_AOT/AOT_stimuli/pictures/2153_fw.png	297.9393630027771	0.7430620193481445
187	190.0273368358612	response	0	j		185.0	/experiments/knapen_AOT/AOT_stimuli/pictures/2153_fw.png	298.669469833374	
188	190.04029202461243	picture	0		73	186.0	/experiments/knapen_AOT/AOT_stimuli/pictures/1369_fw.png	298.68242502212524	0.6041970252990723
188	190.6357319355011	response	0	j		186.0	/experiments/knapen_AOT/AOT_stimuli/pictures/1369_fw.png	299.2778649330139	
189	190.6444890499115	picture	0		111	187.0	/experiments/knapen_AOT/AOT_stimuli/pictures/0631_fw.png	299.2866220474243	0.9327418804168701
189	191.56126403808594	response	0	k		187.0	/experiments/knapen_AOT/AOT_stimuli/pictures/0631_fw.png	300.20339703559875	
190	191.57723093032837	picture	0		151	188.0	/experiments/knapen_AOT/AOT_stimuli/pictures/0382_fw.png	300.2193639278412	1.2617130279541016
190	192.82738494873047	response	0	k		188.0	/experiments/knapen_AOT/AOT_stimuli/pictures/0382_fw.png	301.4695179462433	
191	192.83894395828247	picture	0		110	189.0	/experiments/knapen_AOT/AOT_stimuli/pictures/0222_fw.png	301.4810769557953	0.916640043258667
191	193.74409890174866	response	0	j		189.0	/experiments/knapen_AOT/AOT_stimuli/pictures/0222_fw.png	302.3862318992615	
192	193.75558400154114	picture	0		125	190.0	/experiments/knapen_AOT/AOT_stimuli/pictures/1987_fw.png	302.39771699905396	1.0467259883880615
192	194.7857689857483	response	0	k		190.0	/experiments/knapen_AOT/AOT_stimuli/pictures/1987_fw.png	303.4279019832611	
193	194.8023099899292	picture	0		109	191.0	/experiments/knapen_AOT/AOT_stimuli/pictures/1461_fw.png	303.444442987442	0.9116299152374268
193	195.7024848461151	response	0	k		191.0	/experiments/knapen_AOT/AOT_stimuli/pictures/1461_fw.png	304.34461784362793	
194	195.71393990516663	picture	0		83	192.0	/experiments/knapen_AOT/AOT_stimuli/pictures/1636_fw.png	304.35607290267944	0.6966819763183594
194	196.3946590423584	response	0	k		192.0	/experiments/knapen_AOT/AOT_stimuli/pictures/1636_fw.png	305.0367920398712	
195	196.41062188148499	picture	0		90	193.0	/experiments/knapen_AOT/AOT_stimuli/pictures/0350_fw.png	305.0527548789978	0.7548041343688965
195	197.15256595611572	response	0	j		193.0	/experiments/knapen_AOT/AOT_stimuli/pictures/0350_fw.png	305.79469895362854	
196	197.16542601585388	picture	0		84	194.0	/experiments/knapen_AOT/AOT_stimuli/pictures/0913_fw.png	305.8075590133667	0.7452948093414307
196	197.8947570323944	response	0	j		194.0	/experiments/knapen_AOT/AOT_stimuli/pictures/0913_fw.png	306.5368900299072	
197	197.9107208251953	picture	0		89	195.0	/experiments/knapen_AOT/AOT_stimuli/pictures/1395_fw.png	306.55285382270813	0.749946117401123
197	198.63736391067505	response	0	j		195.0	/experiments/knapen_AOT/AOT_stimuli/pictures/1395_fw.png	307.27949690818787	
198	198.66066694259644	picture	0		82	196.0	/experiments/knapen_AOT/AOT_stimuli/pictures/0340_fw.png	307.30279994010925	0.6852879524230957
198	199.33579802513123	response	0	j		196.0	/experiments/knapen_AOT/AOT_stimuli/pictures/0340_fw.png	307.97793102264404	
199	199.34595489501953	picture	0		72	197.0	/experiments/knapen_AOT/AOT_stimuli/pictures/1785_fw.png	307.98808789253235	0.6041281223297119
199	199.93632698059082	response	0	j		197.0	/experiments/knapen_AOT/AOT_stimuli/pictures/1785_fw.png	308.57845997810364	
200	199.95008301734924	picture	0		91	198.0	/experiments/knapen_AOT/AOT_stimuli/pictures/0256_fw.png	308.59221601486206	0.7639338970184326
200	200.7026138305664	response	0	k		198.0	/experiments/knapen_AOT/AOT_stimuli/pictures/0256_fw.png	309.3447468280792	
201	200.71401691436768	picture	0		84	199.0	/experiments/knapen_AOT/AOT_stimuli/pictures/0422_fw.png	309.3561499118805	0.7013790607452393
201	201.40263104438782	response	0	k		199.0	/experiments/knapen_AOT/AOT_stimuli/pictures/0422_fw.png	310.04476404190063	
202	201.41539597511292	picture	0		85	200.0	/experiments/knapen_AOT/AOT_stimuli/pictures/0334_fw.png	310.05752897262573	0.7083859443664551
202	202.11080694198608	response	0	j		200.0	/experiments/knapen_AOT/AOT_stimuli/pictures/0334_fw.png	310.7529399394989	
203	202.12378191947937	picture	0		86	201.0	/experiments/knapen_AOT/AOT_stimuli/pictures/1292_fw.png	310.7659149169922	0.7152049541473389
203	202.82757782936096	response	0	j		201.0	/experiments/knapen_AOT/AOT_stimuli/pictures/1292_fw.png	311.4697108268738	
204	202.8389868736267	picture	0		84	202.0	/experiments/knapen_AOT/AOT_stimuli/pictures/0624_fw.png	311.4811198711395	0.7013909816741943
204	203.52769303321838	response	0	j		202.0	/experiments/knapen_AOT/AOT_stimuli/pictures/0624_fw.png	312.1698260307312	
205	203.5403778553009	picture	0		82	203.0	/experiments/knapen_AOT/AOT_stimuli/pictures/0241_fw.png	312.1825108528137	0.6806130409240723
205	204.2108519077301	response	0	j		203.0	/experiments/knapen_AOT/AOT_stimuli/pictures/0241_fw.png	312.8529849052429	
206	204.22099089622498	picture	0		88	204.0	/experiments/knapen_AOT/AOT_stimuli/pictures/1567_fw.png	312.8631238937378	0.7398159503936768
206	204.94427299499512	response	0	j		204.0	/experiments/knapen_AOT/AOT_stimuli/pictures/1567_fw.png	313.58640599250793	
207	204.96080684661865	picture	0		74	205.0	/experiments/knapen_AOT/AOT_stimuli/pictures/1754_fw.png	313.60293984413147	0.621304988861084
207	205.56918692588806	response	0	j		205.0	/experiments/knapen_AOT/AOT_stimuli/pictures/1754_fw.png	314.2113199234009	
208	205.58211183547974	picture	0		102	206.0	/experiments/knapen_AOT/AOT_stimuli/pictures/0329_fw.png	314.22424483299255	0.8471550941467285
208	206.419193983078	response	0	j		206.0	/experiments/knapen_AOT/AOT_stimuli/pictures/0329_fw.png	315.0613269805908	
209	206.42926692962646	picture	0		133	207.0	/experiments/knapen_AOT/AOT_stimuli/pictures/1080_fw.png	315.0713999271393	1.1112849712371826
209	207.52769684791565	response	0	k		207.0	/experiments/knapen_AOT/AOT_stimuli/pictures/1080_fw.png	316.16982984542847	
210	207.54055190086365	picture	0		81	208.0	/experiments/knapen_AOT/AOT_stimuli/pictures/1673_fw.png	316.18268489837646	0.6734840869903564
210	208.20261788368225	response	0	k		208.0	/experiments/knapen_AOT/AOT_stimuli/pictures/1673_fw.png	316.84475088119507	
211	208.214035987854	picture	0		78	209.0	/experiments/knapen_AOT/AOT_stimuli/pictures/1927_fw.png	316.8561689853668	0.6528408527374268
211	208.85304188728333	response	0	k		209.0	/experiments/knapen_AOT/AOT_stimuli/pictures/1927_fw.png	317.49517488479614	
212	208.86687684059143	picture	0		95	210.0	/experiments/knapen_AOT/AOT_stimuli/pictures/0488_fw.png	317.50900983810425	0.7986030578613281
212	209.64633989334106	response	0	k		210.0	/experiments/knapen_AOT/AOT_stimuli/pictures/0488_fw.png	318.2884728908539	
213	209.66547989845276	picture	0		99	211.0	/experiments/knapen_AOT/AOT_stimuli/pictures/1429_fw.png	318.3076128959656	0.8263580799102783
213	210.47808003425598	response	0	j		211.0	/experiments/knapen_AOT/AOT_stimuli/pictures/1429_fw.png	319.1202130317688	
214	210.49183797836304	picture	0		87	212.0	/experiments/knapen_AOT/AOT_stimuli/pictures/0209_fw.png	319.13397097587585	0.7292108535766602
214	211.21097993850708	response	0	j		212.0	/experiments/knapen_AOT/AOT_stimuli/pictures/0209_fw.png	319.8531129360199	
215	211.2210488319397	picture	0		107	213.0	/experiments/knapen_AOT/AOT_stimuli/pictures/0091_fw.png	319.8631818294525	0.89577317237854
215	212.10309505462646	response	0	j		213.0	/experiments/knapen_AOT/AOT_stimuli/pictures/0091_fw.png	320.7452280521393	
216	212.11682200431824	picture	0		95	214.0	/experiments/knapen_AOT/AOT_stimuli/pictures/0293_fw.png	320.75895500183105	0.7987778186798096
216	212.9027829170227	response	0	k		214.0	/experiments/knapen_AOT/AOT_stimuli/pictures/0293_fw.png	321.5449159145355	
217	212.91559982299805	picture	0		87	215.0	/experiments/knapen_AOT/AOT_stimuli/pictures/1374_fw.png	321.55773282051086	0.7221531867980957
217	213.62106204032898	response	0	j		215.0	/experiments/knapen_AOT/AOT_stimuli/pictures/1374_fw.png	322.2631950378418	
218	213.63775300979614	picture	0		106	216.0	/experiments/knapen_AOT/AOT_stimuli/pictures/0066_fw.png	322.27988600730896	0.8818559646606445
218	214.51100182533264	response	0	k		216.0	/experiments/knapen_AOT/AOT_stimuli/pictures/0066_fw.png	323.15313482284546	
219	214.5196089744568	picture	0		94	217.0	/experiments/knapen_AOT/AOT_stimuli/pictures/1310_fw.png	323.1617419719696	0.7847669124603271
219	215.2943618297577	response	0	k		217.0	/experiments/knapen_AOT/AOT_stimuli/pictures/1310_fw.png	323.9364948272705	
220	215.30437588691711	picture	0		96	218.0	/experiments/knapen_AOT/AOT_stimuli/pictures/1308_fw.png	323.94650888442993	0.7984559535980225
220	216.09441995620728	response	0	k		218.0	/experiments/knapen_AOT/AOT_stimuli/pictures/1308_fw.png	324.7365529537201	
221	216.10283184051514	picture	0		88	219.0	/experiments/knapen_AOT/AOT_stimuli/pictures/1641_fw.png	324.74496483802795	0.7361559867858887
221	216.82102298736572	response	0	j		219.0	/experiments/knapen_AOT/AOT_stimuli/pictures/1641_fw.png	325.46315598487854	
222	216.83898782730103	picture	0		75	220.0	/experiments/knapen_AOT/AOT_stimuli/pictures/1502_fw.png	325.48112082481384	0.625014066696167
222	217.44590282440186	response	0	k		220.0	/experiments/knapen_AOT/AOT_stimuli/pictures/1502_fw.png	326.0880358219147	
223	217.4640018939972	picture	0		95	221.0	/experiments/knapen_AOT/AOT_stimuli/pictures/1153_fw.png	326.10613489151	0.796929121017456
223	218.24456691741943	response	0	j		221.0	/experiments/knapen_AOT/AOT_stimuli/pictures/1153_fw.png	326.88669991493225	
224	218.26093101501465	picture	0		72	222.0	/experiments/knapen_AOT/AOT_stimuli/pictures/0619_fw.png	326.90306401252747	0.6083638668060303
224	218.85311102867126	response	0	j		222.0	/experiments/knapen_AOT/AOT_stimuli/pictures/0619_fw.png	327.4952440261841	
225	218.86929488182068	picture	0		92	223.0	/experiments/knapen_AOT/AOT_stimuli/pictures/1037_fw.png	327.5114278793335	0.7684669494628906
225	219.62112498283386	response	0	k		223.0	/experiments/knapen_AOT/AOT_stimuli/pictures/1037_fw.png	328.2632579803467	
226	219.63776183128357	picture	0		95	224.0	/experiments/knapen_AOT/AOT_stimuli/pictures/1656_fw.png	328.2798948287964	0.7916610240936279
226	220.41258692741394	response	0	k		224.0	/experiments/knapen_AOT/AOT_stimuli/pictures/1656_fw.png	329.05471992492676	
227	220.4294228553772	picture	0		103	225.0	/experiments/knapen_AOT/AOT_stimuli/pictures/1812_fw.png	329.07155585289	0.8610019683837891
227	221.27783489227295	response	0	j		225.0	/experiments/knapen_AOT/AOT_stimuli/pictures/1812_fw.png	329.91996788978577	
228	221.290424823761	picture	0		156	226.0	/experiments/knapen_AOT/AOT_stimuli/pictures/0076_fw.png	329.9325578212738	1.298631191253662
228	222.57792496681213	response	0	j		226.0	/experiments/knapen_AOT/AOT_stimuli/pictures/0076_fw.png	331.22005796432495	
229	222.58905601501465	picture	0		87	227.0	/experiments/knapen_AOT/AOT_stimuli/pictures/1090_fw.png	331.23118901252747	0.7222199440002441
229	223.3028528690338	response	0	j		227.0	/experiments/knapen_AOT/AOT_stimuli/pictures/1090_fw.png	331.94498586654663	
230	223.3112759590149	picture	0		76	228.0	/experiments/knapen_AOT/AOT_stimuli/pictures/2058_fw.png	331.9534089565277	0.6388728618621826
230	223.93639588356018	response	0	k		228.0	/experiments/knapen_AOT/AOT_stimuli/pictures/2058_fw.png	332.578528881073	
231	223.95014882087708	picture	0		68	229.0	/experiments/knapen_AOT/AOT_stimuli/pictures/1425_fw.png	332.5922818183899	0.5694410800933838
231	224.51119899749756	response	0	k		229.0	/experiments/knapen_AOT/AOT_stimuli/pictures/1425_fw.png	333.1533319950104	
232	224.51958990097046	picture	0		100	230.0	/experiments/knapen_AOT/AOT_stimuli/pictures/1743_fw.png	333.1617228984833	0.8333220481872559
232	225.3446319103241	response	0	k		230.0	/experiments/knapen_AOT/AOT_stimuli/pictures/1743_fw.png	333.9867649078369	
233	225.35291194915771	picture	0		74	231.0	/experiments/knapen_AOT/AOT_stimuli/pictures/2057_fw.png	333.99504494667053	0.6181480884552002
233	225.9612319469452	response	0	k		231.0	/experiments/knapen_AOT/AOT_stimuli/pictures/2057_fw.png	334.603364944458	
234	225.97106003761292	picture	0		70	232.0	/experiments/knapen_AOT/AOT_stimuli/pictures/0740_fw.png	334.61319303512573	0.5834479331970215
234	226.544527053833	response	0	k		232.0	/experiments/knapen_AOT/AOT_stimuli/pictures/0740_fw.png	335.1866600513458	
235	226.55450797080994	picture	0		190	233.0	/experiments/knapen_AOT/AOT_stimuli/pictures/2073_fw.png	335.19664096832275	1.5832300186157227
235	228.12797093391418	response	0	j		233.0	/experiments/knapen_AOT/AOT_stimuli/pictures/2073_fw.png	336.770103931427	
236	228.13773798942566	picture	0		72	234.0	/experiments/knapen_AOT/AOT_stimuli/pictures/0774_fw.png	336.7798709869385	0.6041388511657715
236	228.72809505462646	response	0	k		234.0	/experiments/knapen_AOT/AOT_stimuli/pictures/0774_fw.png	337.3702280521393	
237	228.74187684059143	picture	0		88	235.0	/experiments/knapen_AOT/AOT_stimuli/pictures/0478_fw.png	337.38400983810425	0.7360780239105225
237	229.46962904930115	response	0	j		235.0	/experiments/knapen_AOT/AOT_stimuli/pictures/0478_fw.png	338.11176204681396	
238	229.47795486450195	picture	0		79	236.0	/experiments/knapen_AOT/AOT_stimuli/pictures/0701_fw.png	338.12008786201477	0.6597599983215332
238	230.12801003456116	response	0	k		236.0	/experiments/knapen_AOT/AOT_stimuli/pictures/0701_fw.png	338.770143032074	
239	230.1377148628235	picture	0		81	237.0	/experiments/knapen_AOT/AOT_stimuli/pictures/1953_fw.png	338.7798478603363	0.6735789775848389
239	230.80302691459656	response	0	k		237.0	/experiments/knapen_AOT/AOT_stimuli/pictures/1953_fw.png	339.4451599121094	
240	230.81129384040833	picture	0		86	238.0	/experiments/knapen_AOT/AOT_stimuli/pictures/1732_fw.png	339.45342683792114	0.7361462116241455
240	231.53627586364746	response	0	k		238.0	/experiments/knapen_AOT/AOT_stimuli/pictures/1732_fw.png	340.1784088611603	
241	231.54744005203247	picture	0		89	239.0	/experiments/knapen_AOT/AOT_stimuli/pictures/1038_fw.png	340.1895730495453	0.743060827255249
241	232.27799582481384	response	0	j		239.0	/experiments/knapen_AOT/AOT_stimuli/pictures/1038_fw.png	340.92012882232666	
242	232.29050087928772	picture	0		101	240.0	/experiments/knapen_AOT/AOT_stimuli/pictures/2002_fw.png	340.93263387680054	0.840278148651123
242	233.11962485313416	response	0	j		240.0	/experiments/knapen_AOT/AOT_stimuli/pictures/2002_fw.png	341.761757850647	
243	233.13077902793884	picture	0		92	241.0	/experiments/knapen_AOT/AOT_stimuli/pictures/0515_fw.png	341.77291202545166	0.7638678550720215
243	233.88629984855652	response	0	j		241.0	/experiments/knapen_AOT/AOT_stimuli/pictures/0515_fw.png	342.52843284606934	
244	233.89464688301086	picture	0		84	242.0	/experiments/knapen_AOT/AOT_stimuli/pictures/0356_fw.png	342.5367798805237	0.7014350891113281
244	234.58634185791016	response	0	j		242.0	/experiments/knapen_AOT/AOT_stimuli/pictures/0356_fw.png	343.228474855423	
245	234.5960819721222	picture	0		91	243.0	/experiments/knapen_AOT/AOT_stimuli/pictures/1490_fw.png	343.238214969635	0.7569079399108887
245	235.34472393989563	response	0	k		243.0	/experiments/knapen_AOT/AOT_stimuli/pictures/1490_fw.png	343.98685693740845	
246	235.35298991203308	picture	0		101	244.0	/experiments/knapen_AOT/AOT_stimuli/pictures/0098_fw.png	343.9951229095459	0.8472609519958496
246	236.18651604652405	response	0	k		244.0	/experiments/knapen_AOT/AOT_stimuli/pictures/0098_fw.png	344.82864904403687	
247	236.20025086402893	picture	0		87	245.0	/experiments/knapen_AOT/AOT_stimuli/pictures/0083_fw.png	344.84238386154175	0.7292120456695557
247	236.91978096961975	response	0	k		245.0	/experiments/knapen_AOT/AOT_stimuli/pictures/0083_fw.png	345.56191396713257	
248	236.9294629096985	picture	0		83	246.0	/experiments/knapen_AOT/AOT_stimuli/pictures/1867_fw.png	345.5715959072113	0.6944460868835449
248	237.60471892356873	response	0	k		246.0	/experiments/knapen_AOT/AOT_stimuli/pictures/1867_fw.png	346.24685192108154	
249	237.62390899658203	picture	0		78	247.0	/experiments/knapen_AOT/AOT_stimuli/pictures/0056_fw.png	346.26604199409485	0.6457929611206055
249	238.26134085655212	response	0	k		247.0	/experiments/knapen_AOT/AOT_stimuli/pictures/0056_fw.png	346.90347385406494	
250	238.26970195770264	picture	0		134	248.0	/experiments/knapen_AOT/AOT_stimuli/pictures/0072_fw.png	346.91183495521545	1.1181459426879883
250	239.3781189918518	response	0	j		248.0	/experiments/knapen_AOT/AOT_stimuli/pictures/0072_fw.png	348.0202519893646	
251	239.38784790039062	picture	0		84	249.0	/experiments/knapen_AOT/AOT_stimuli/pictures/1682_fw.png	348.02998089790344	0.7013249397277832
251	240.0781478881836	response	0	k		249.0	/experiments/knapen_AOT/AOT_stimuli/pictures/1682_fw.png	348.7202808856964	
252	240.0891728401184	picture	0		113	250.0	/experiments/knapen_AOT/AOT_stimuli/pictures/1207_fw.png	348.7313058376312	0.9444520473480225
252	241.01997685432434	response	0	k		250.0	/experiments/knapen_AOT/AOT_stimuli/pictures/1207_fw.png	349.66210985183716	
253	241.03362488746643	picture	0		66	251.0	/experiments/knapen_AOT/AOT_stimuli/pictures/0376_fw.png	349.67575788497925	0.5555670261383057
253	241.5780849456787	response	0	k		251.0	/experiments/knapen_AOT/AOT_stimuli/pictures/0376_fw.png	350.2202179431915	
254	241.58919191360474	picture	0		71	252.0	/experiments/knapen_AOT/AOT_stimuli/pictures/1532_fw.png	350.23132491111755	0.5970339775085449
254	242.16973996162415	response	0	k		252.0	/experiments/knapen_AOT/AOT_stimuli/pictures/1532_fw.png	350.81187295913696	
255	242.18622589111328	picture	0		83	253.0	/experiments/knapen_AOT/AOT_stimuli/pictures/1877_fw.png	350.8283588886261	0.6999859809875488
255	242.86975002288818	response	0	j		253.0	/experiments/knapen_AOT/AOT_stimuli/pictures/1877_fw.png	351.511883020401	
256	242.88621187210083	picture	0		100	254.0	/experiments/knapen_AOT/AOT_stimuli/pictures/0992_fw.png	351.52834486961365	0.8417301177978516
256	243.71140885353088	response	0	j		254.0	/experiments/knapen_AOT/AOT_stimuli/pictures/0992_fw.png	352.3535418510437	
257	243.72794198989868	picture	0		108	255.0	/experiments/knapen_AOT/AOT_stimuli/pictures/0547_fw.png	352.3700749874115	0.902987003326416
257	244.6198649406433	response	0	k		255.0	/experiments/knapen_AOT/AOT_stimuli/pictures/0547_fw.png	353.2619979381561	
258	244.6309289932251	picture	0		102	256.0	/experiments/knapen_AOT/AOT_stimuli/pictures/1321_fw.png	353.2730619907379	0.8471369743347168
258	245.46992301940918	response	0	j		256.0	/experiments/knapen_AOT/AOT_stimuli/pictures/1321_fw.png	354.112056016922	
259	245.47806596755981	picture	0		95	257.0	/experiments/knapen_AOT/AOT_stimuli/pictures/2104_fw.png	354.12019896507263	0.7917559146881104
259	246.26146984100342	response	0	j		257.0	/experiments/knapen_AOT/AOT_stimuli/pictures/2104_fw.png	354.90360283851624	
260	246.26982188224792	picture	0		92	258.0	/experiments/knapen_AOT/AOT_stimuli/pictures/1745_fw.png	354.91195487976074	0.7707991600036621
260	247.02806782722473	response	0	k		258.0	/experiments/knapen_AOT/AOT_stimuli/pictures/1745_fw.png	355.67020082473755	
261	247.0406210422516	picture	0		226	259.0	/experiments/knapen_AOT/AOT_stimuli/pictures/0924_fw.png	355.6827540397644	1.8820149898529053
261	248.91145586967468	response	0	k		259.0	/experiments/knapen_AOT/AOT_stimuli/pictures/0924_fw.png	357.5535888671875	
262	248.9226360321045	picture	0		100	260.0	/experiments/knapen_AOT/AOT_stimuli/pictures/1099_fw.png	357.5647690296173	0.8332889080047607
262	249.74489998817444	response	0	j		260.0	/experiments/knapen_AOT/AOT_stimuli/pictures/1099_fw.png	358.38703298568726	
263	249.75592494010925	picture	0		82	261.0	/experiments/knapen_AOT/AOT_stimuli/pictures/0443_fw.png	358.39805793762207	0.6805369853973389
263	250.4281508922577	response	0	j		261.0	/experiments/knapen_AOT/AOT_stimuli/pictures/0443_fw.png	359.0702838897705	
264	250.4364619255066	picture	0		65	262.0	/experiments/knapen_AOT/AOT_stimuli/pictures/2133_fw.png	359.0785949230194	0.5416409969329834
264	250.96993589401245	response	0	j		262.0	/experiments/knapen_AOT/AOT_stimuli/pictures/2133_fw.png	359.61206889152527	
265	250.97810292243958	picture	0		196	263.0	/experiments/knapen_AOT/AOT_stimuli/pictures/1934_fw.png	359.6202359199524	1.639045000076294
265	252.59640789031982	response	0	k		263.0	/experiments/knapen_AOT/AOT_stimuli/pictures/1934_fw.png	361.23854088783264	
266	252.61714792251587	picture	0		119	264.0	/experiments/knapen_AOT/AOT_stimuli/pictures/1067_fw.png	361.2592809200287	0.9999959468841553
266	253.5965130329132	response	0	k		264.0	/experiments/knapen_AOT/AOT_stimuli/pictures/1067_fw.png	362.238646030426	
267	253.61714386940002	picture	0		241	265.0	/experiments/knapen_AOT/AOT_stimuli/pictures/0986_fw.png	362.25927686691284	2.013823986053467
267	255.6198799610138	response	0	k		265.0	/experiments/knapen_AOT/AOT_stimuli/pictures/0986_fw.png	364.2620129585266	
268	255.6309678554535	picture	0		154	266.0	/experiments/knapen_AOT/AOT_stimuli/pictures/0197_fw.png	364.2731008529663	1.2887780666351318
268	256.9033908843994	response	0	k		266.0	/experiments/knapen_AOT/AOT_stimuli/pictures/0197_fw.png	365.54552388191223	
269	256.9197459220886	picture	0		129	267.0	/experiments/knapen_AOT/AOT_stimuli/pictures/0916_fw.png	365.56187891960144	1.0833511352539062
269	257.9799199104309	response	0	k		267.0	/experiments/knapen_AOT/AOT_stimuli/pictures/0916_fw.png	366.6220529079437	
270	258.00309705734253	picture	0		89	268.0	/experiments/knapen_AOT/AOT_stimuli/pictures/1132_fw.png	366.64523005485535	0.7500288486480713
270	258.7367060184479	response	0	j		268.0	/experiments/knapen_AOT/AOT_stimuli/pictures/1132_fw.png	367.3788390159607	
271	258.7531259059906	picture	0		80	269.0	/experiments/knapen_AOT/AOT_stimuli/pictures/0085_fw.png	367.3952589035034	0.6695561408996582
271	259.4115688800812	response	0	k		269.0	/experiments/knapen_AOT/AOT_stimuli/pictures/0085_fw.png	368.053701877594	
272	259.42268204689026	picture	0		80	270.0	/experiments/knapen_AOT/AOT_stimuli/pictures/0676_fw.png	368.0648150444031	0.6721208095550537
272	260.0783100128174	response	0	k		270.0	/experiments/knapen_AOT/AOT_stimuli/pictures/0676_fw.png	368.7204430103302	
273	260.0948028564453	picture	0		83	271.0	/experiments/knapen_AOT/AOT_stimuli/pictures/0907_fw.png	368.73693585395813	0.6959240436553955
273	260.77156686782837	response	0	k		271.0	/experiments/knapen_AOT/AOT_stimuli/pictures/0907_fw.png	369.4136998653412	
274	260.7907269001007	picture	0		81	272.0	/experiments/knapen_AOT/AOT_stimuli/pictures/1508_fw.png	369.4328598976135	0.6736700534820557
274	261.4533338546753	response	0	k		272.0	/experiments/knapen_AOT/AOT_stimuli/pictures/1508_fw.png	370.0954668521881	
275	261.46439695358276	picture	0		78	273.0	/experiments/knapen_AOT/AOT_stimuli/pictures/2039_fw.png	370.1065299510956	0.6527330875396729
275	262.1033818721771	response	0	k		273.0	/experiments/knapen_AOT/AOT_stimuli/pictures/2039_fw.png	370.74551486968994	
276	262.11713004112244	picture	0		100	274.0	/experiments/knapen_AOT/AOT_stimuli/pictures/0947_fw.png	370.75926303863525	0.8403398990631104
276	262.9450149536133	response	0	j		274.0	/experiments/knapen_AOT/AOT_stimuli/pictures/0947_fw.png	371.5871479511261	
277	262.95746994018555	picture	0		79	275.0	/experiments/knapen_AOT/AOT_stimuli/pictures/0660_fw.png	371.59960293769836	0.6624190807342529
277	263.6034450531006	response	0	j		275.0	/experiments/knapen_AOT/AOT_stimuli/pictures/0660_fw.png	372.2455780506134	
278	263.6198890209198	picture	0		75	276.0	/experiments/knapen_AOT/AOT_stimuli/pictures/0476_fw.png	372.2620220184326	0.6292428970336914
278	264.2366728782654	response	0	j		276.0	/experiments/knapen_AOT/AOT_stimuli/pictures/0476_fw.png	372.8788058757782	
279	264.2491319179535	picture	0		91	277.0	/experiments/knapen_AOT/AOT_stimuli/pictures/0696_fw.png	372.8912649154663	0.7624180316925049
279	264.9883780479431	response	0	k		277.0	/experiments/knapen_AOT/AOT_stimuli/pictures/0696_fw.png	373.63051104545593	
280	265.011549949646	picture	0		92	278.0	/experiments/knapen_AOT/AOT_stimuli/pictures/2168_fw.png	373.6536829471588	0.7724039554595947
280	265.76327991485596	response	0	j		278.0	/experiments/knapen_AOT/AOT_stimuli/pictures/2168_fw.png	374.4054129123688	
281	265.7839539051056	picture	0		76	279.0	/experiments/knapen_AOT/AOT_stimuli/pictures/1859_fw.png	374.4260869026184	0.6388130187988281
281	266.41171383857727	response	0	k		279.0	/experiments/knapen_AOT/AOT_stimuli/pictures/1859_fw.png	375.0538468360901	
282	266.4227669239044	picture	0		112	280.0	/experiments/knapen_AOT/AOT_stimuli/pictures/0894_fw.png	375.06489992141724	0.9305191040039062
282	267.345134973526	response	0	k		280.0	/experiments/knapen_AOT/AOT_stimuli/pictures/0894_fw.png	375.9872679710388	
283	267.3532860279083	picture	0		83	281.0	/experiments/knapen_AOT/AOT_stimuli/pictures/0346_fw.png	375.99541902542114	0.6944890022277832
283	268.0367739200592	response	0	k		281.0	/experiments/knapen_AOT/AOT_stimuli/pictures/0346_fw.png	376.678906917572	
284	268.0477750301361	picture	0		112	282.0	/experiments/knapen_AOT/AOT_stimuli/pictures/1182_fw.png	376.6899080276489	0.9652299880981445
284	269.0033919811249	response	0	k		282.0	/experiments/knapen_AOT/AOT_stimuli/pictures/1182_fw.png	377.6455249786377	
285	269.01300501823425	picture	0		114	283.0	/experiments/knapen_AOT/AOT_stimuli/pictures/0677_fw.png	377.65513801574707	0.9515469074249268
285	269.9535319805145	response	0	j		283.0	/experiments/knapen_AOT/AOT_stimuli/pictures/0677_fw.png	378.59566497802734	
286	269.9645519256592	picture	0		112	284.0	/experiments/knapen_AOT/AOT_stimuli/pictures/1627_fw.png	378.606684923172	0.938805103302002
286	270.8868839740753	response	0	j		284.0	/experiments/knapen_AOT/AOT_stimuli/pictures/1627_fw.png	379.52901697158813	
287	270.9033570289612	picture	0		122	285.0	/experiments/knapen_AOT/AOT_stimuli/pictures/1542_fw.png	379.545490026474	1.0194108486175537
287	271.91185688972473	response	0	k		285.0	/experiments/knapen_AOT/AOT_stimuli/pictures/1542_fw.png	380.55398988723755	
288	271.92276787757874	picture	0		111	286.0	/experiments/knapen_AOT/AOT_stimuli/pictures/0189_fw.png	380.56490087509155	0.9305281639099121
288	272.8368740081787	response	0	k		286.0	/experiments/knapen_AOT/AOT_stimuli/pictures/0189_fw.png	381.4790070056915	
289	272.85329604148865	picture	0		85	287.0	/experiments/knapen_AOT/AOT_stimuli/pictures/0910_fw.png	381.49542903900146	0.7083439826965332
289	273.55360198020935	response	0	j		287.0	/experiments/knapen_AOT/AOT_stimuli/pictures/0910_fw.png	382.19573497772217	
290	273.5616400241852	picture	0		82	288.0	/experiments/knapen_AOT/AOT_stimuli/pictures/1499_fw.png	382.203773021698	0.691687822341919
290	274.2368218898773	response	0	j		288.0	/experiments/knapen_AOT/AOT_stimuli/pictures/1499_fw.png	382.87895488739014	
291	274.2533278465271	picture	0		129	289.0	/experiments/knapen_AOT/AOT_stimuli/pictures/1544_fw.png	382.8954608440399	1.0833652019500732
291	275.3201620578766	response	0	k		289.0	/experiments/knapen_AOT/AOT_stimuli/pictures/1544_fw.png	383.9622950553894	
292	275.3366930484772	picture	0		71	290.0	/experiments/knapen_AOT/AOT_stimuli/pictures/1149_fw.png	383.97882604599	0.5931599140167236
292	275.92008805274963	response	0	k		290.0	/experiments/knapen_AOT/AOT_stimuli/pictures/1149_fw.png	384.56222105026245	
293	275.9298529624939	picture	0		94	291.0	/experiments/knapen_AOT/AOT_stimuli/pictures/0948_fw.png	384.5719859600067	0.7901520729064941
293	276.70367193222046	response	0	j		291.0	/experiments/knapen_AOT/AOT_stimuli/pictures/0948_fw.png	385.3458049297333	
294	276.7200050354004	picture	0		98	292.0	/experiments/knapen_AOT/AOT_stimuli/pictures/1371_fw.png	385.3621380329132	0.8250160217285156
294	277.52864694595337	response	0	j		292.0	/experiments/knapen_AOT/AOT_stimuli/pictures/1371_fw.png	386.1707799434662	
295	277.5450210571289	picture	0		92	293.0	/experiments/knapen_AOT/AOT_stimuli/pictures/1703_fw.png	386.1871540546417	0.7750029563903809
295	278.3037338256836	response	0	j		293.0	/experiments/knapen_AOT/AOT_stimuli/pictures/1703_fw.png	386.9458668231964	
296	278.3200240135193	picture	0		103	294.0	/experiments/knapen_AOT/AOT_stimuli/pictures/1346_fw.png	386.9621570110321	0.8598918914794922
296	279.16353487968445	response	0	j		294.0	/experiments/knapen_AOT/AOT_stimuli/pictures/1346_fw.png	387.80566787719727	
297	279.1799159049988	picture	0		71	295.0	/experiments/knapen_AOT/AOT_stimuli/pictures/0071_fw.png	387.8220489025116	0.5901079177856445
297	279.7550439834595	response	0	k		295.0	/experiments/knapen_AOT/AOT_stimuli/pictures/0071_fw.png	388.3971769809723	
298	279.7700238227844	picture	0		87	296.0	/experiments/knapen_AOT/AOT_stimuli/pictures/1034_fw.png	388.41215682029724	0.7291860580444336
298	280.48698687553406	response	0	k		296.0	/experiments/knapen_AOT/AOT_stimuli/pictures/1034_fw.png	389.1291198730469	
299	280.49920988082886	picture	0		85	297.0	/experiments/knapen_AOT/AOT_stimuli/pictures/2142_fw.png	389.1413428783417	0.7126059532165527
299	281.19517993927	response	0	k		297.0	/experiments/knapen_AOT/AOT_stimuli/pictures/2142_fw.png	389.83731293678284	
300	281.2118158340454	picture	0		79	298.0	/experiments/knapen_AOT/AOT_stimuli/pictures/2040_fw.png	389.8539488315582	0.6624081134796143
300	281.8618869781494	response	0	k		298.0	/experiments/knapen_AOT/AOT_stimuli/pictures/2040_fw.png	390.50401997566223	
301	281.874223947525	picture	0		99	299.0	/experiments/knapen_AOT/AOT_stimuli/pictures/1466_fw.png	390.51635694503784	0.8263990879058838
301	282.68699502944946	response	0	j		299.0	/experiments/knapen_AOT/AOT_stimuli/pictures/1466_fw.png	391.3291280269623	
302	282.7006230354309	picture	0		78	300.0	/experiments/knapen_AOT/AOT_stimuli/pictures/1631_fw.png	391.3427560329437	0.6529099941253662
302	283.34526896476746	response	0	j		300.0	/experiments/knapen_AOT/AOT_stimuli/pictures/1631_fw.png	391.9874019622803	
303	283.3535330295563	picture	0		82	301.0	/experiments/knapen_AOT/AOT_stimuli/pictures/1881_fw.png	391.9956660270691	0.6915738582611084
303	284.02869486808777	response	0	k		301.0	/experiments/knapen_AOT/AOT_stimuli/pictures/1881_fw.png	392.6708278656006	
304	284.0451068878174	picture	0		98	302.0	/experiments/knapen_AOT/AOT_stimuli/pictures/1920_fw.png	392.6872398853302	0.822253942489624
304	284.8536059856415	response	0	k		302.0	/experiments/knapen_AOT/AOT_stimuli/pictures/1920_fw.png	393.4957389831543	
305	284.867360830307	picture	0		75	303.0	/experiments/knapen_AOT/AOT_stimuli/pictures/0018_fw.png	393.5094938278198	0.6319351196289062
305	285.4870879650116	response	0	k		303.0	/experiments/knapen_AOT/AOT_stimuli/pictures/0018_fw.png	394.1292209625244	
306	285.4992959499359	picture	0		70	304.0	/experiments/knapen_AOT/AOT_stimuli/pictures/1648_fw.png	394.14142894744873	0.5833480358123779
306	286.0702860355377	response	0	k		304.0	/experiments/knapen_AOT/AOT_stimuli/pictures/1648_fw.png	394.71241903305054	
307	286.0826439857483	picture	0		96	305.0	/experiments/knapen_AOT/AOT_stimuli/pictures/1255_fw.png	394.7247769832611	0.7985658645629883
307	286.8702669143677	response	0	j		305.0	/experiments/knapen_AOT/AOT_stimuli/pictures/1255_fw.png	395.5123999118805	
308	286.8812098503113	picture	0		77	306.0	/experiments/knapen_AOT/AOT_stimuli/pictures/0130_fw.png	395.5233428478241	0.6472930908203125
308	287.51207304000854	response	0	k		306.0	/experiments/knapen_AOT/AOT_stimuli/pictures/0130_fw.png	396.15420603752136	
309	287.5285029411316	picture	0		80	307.0	/experiments/knapen_AOT/AOT_stimuli/pictures/1465_fw.png	396.1706359386444	0.6721510887145996
309	288.18692803382874	response	0	j		307.0	/experiments/knapen_AOT/AOT_stimuli/pictures/1465_fw.png	396.82906103134155	
310	288.2006540298462	picture	0		79	308.0	/experiments/knapen_AOT/AOT_stimuli/pictures/0727_fw.png	396.842787027359	0.6666848659515381
310	288.8537528514862	response	0	j		308.0	/experiments/knapen_AOT/AOT_stimuli/pictures/0727_fw.png	397.495885848999	
311	288.86733889579773	picture	0		75	309.0	/experiments/knapen_AOT/AOT_stimuli/pictures/1744_fw.png	397.50947189331055	0.6319360733032227
311	289.4870948791504	response	0	k		309.0	/experiments/knapen_AOT/AOT_stimuli/pictures/1744_fw.png	398.1292278766632	
312	289.49927496910095	picture	0		93	310.0	/experiments/knapen_AOT/AOT_stimuli/pictures/2029_fw.png	398.14140796661377	0.7792880535125732
312	290.2621328830719	response	0	j		310.0	/experiments/knapen_AOT/AOT_stimuli/pictures/2029_fw.png	398.9042658805847	
313	290.2785630226135	picture	0		86	311.0	/experiments/knapen_AOT/AOT_stimuli/pictures/0253_fw.png	398.92069602012634	0.720815896987915
313	290.9870648384094	response	0	j		311.0	/experiments/knapen_AOT/AOT_stimuli/pictures/0253_fw.png	399.62919783592224	
314	290.99937891960144	picture	0		134	312.0	/experiments/knapen_AOT/AOT_stimuli/pictures/0893_fw.png	399.64151191711426	1.1179680824279785
314	292.1037290096283	response	0	j		312.0	/experiments/knapen_AOT/AOT_stimuli/pictures/0893_fw.png	400.7458620071411	
315	292.1173470020294	picture	0		107	313.0	/experiments/knapen_AOT/AOT_stimuli/pictures/0634_fw.png	400.75947999954224	0.8958699703216553
315	293.00382685661316	response	0	k		313.0	/experiments/knapen_AOT/AOT_stimuli/pictures/0634_fw.png	401.645959854126	
316	293.0132169723511	picture	0		93	314.0	/experiments/knapen_AOT/AOT_stimuli/pictures/1795_fw.png	401.6553499698639	0.7777628898620605
316	293.77867603302	response	0	j		314.0	/experiments/knapen_AOT/AOT_stimuli/pictures/1795_fw.png	402.42080903053284	
317	293.79097986221313	picture	0		100	315.0	/experiments/knapen_AOT/AOT_stimuli/pictures/1337_fw.png	402.43311285972595	0.8376400470733643
317	294.612144947052	response	0	k		315.0	/experiments/knapen_AOT/AOT_stimuli/pictures/1337_fw.png	403.2542779445648	
318	294.6286199092865	picture	0		83	316.0	/experiments/knapen_AOT/AOT_stimuli/pictures/1045_fw.png	403.2707529067993	0.6971080303192139
318	295.31211495399475	response	0	k		316.0	/experiments/knapen_AOT/AOT_stimuli/pictures/1045_fw.png	403.95424795150757	
319	295.3257279396057	picture	0		99	317.0	/experiments/knapen_AOT/AOT_stimuli/pictures/1685_fw.png	403.96786093711853	0.8334128856658936
319	296.13874101638794	response	0	j		317.0	/experiments/knapen_AOT/AOT_stimuli/pictures/1685_fw.png	404.78087401390076	
320	296.1591408252716	picture	0		85	318.0	/experiments/knapen_AOT/AOT_stimuli/pictures/1188_fw.png	404.8012738227844	0.7196040153503418
320	296.8621618747711	response	0	k		318.0	/experiments/knapen_AOT/AOT_stimuli/pictures/1188_fw.png	405.50429487228394	
321	296.87874484062195	picture	0		79	319.0	/experiments/knapen_AOT/AOT_stimuli/pictures/0809_fw.png	405.52087783813477	0.6622650623321533
321	297.5289249420166	response	0	j		319.0	/experiments/knapen_AOT/AOT_stimuli/pictures/0809_fw.png	406.1710579395294	
322	297.5410099029541	picture	0		87	320.0	/experiments/knapen_AOT/AOT_stimuli/pictures/0768_fw.png	406.1831429004669	0.7222270965576172
322	298.2538888454437	response	0	j		320.0	/experiments/knapen_AOT/AOT_stimuli/pictures/0768_fw.png	406.89602184295654	
323	298.2632369995117	picture	0		76	321.0	/experiments/knapen_AOT/AOT_stimuli/pictures/1984_fw.png	406.90536999702454	0.6320359706878662
323	298.8872139453888	response	0	k		321.0	/experiments/knapen_AOT/AOT_stimuli/pictures/1984_fw.png	407.5293469429016	
324	298.8952729701996	picture	0		87	322.0	/experiments/knapen_AOT/AOT_stimuli/pictures/1746_fw.png	407.5374059677124	0.7291250228881836
324	299.61223697662354	response	0	j		322.0	/experiments/knapen_AOT/AOT_stimuli/pictures/1746_fw.png	408.25436997413635	
325	299.62439799308777	picture	0		81	323.0	/experiments/knapen_AOT/AOT_stimuli/pictures/1939_fw.png	408.2665309906006	0.6736428737640381
325	300.28723096847534	response	0	j		323.0	/experiments/knapen_AOT/AOT_stimuli/pictures/1939_fw.png	408.92936396598816	
326	300.2980408668518	picture	0		86	324.0	/experiments/knapen_AOT/AOT_stimuli/pictures/0464_fw.png	408.9401738643646	0.7429921627044678
326	301.02895498275757	response	0	k		324.0	/experiments/knapen_AOT/AOT_stimuli/pictures/0464_fw.png	409.6710879802704	
327	301.0410330295563	picture	0		89	325.0	/experiments/knapen_AOT/AOT_stimuli/pictures/1697_fw.png	409.6831660270691	0.743168830871582
327	301.76373195648193	response	0	j		325.0	/experiments/knapen_AOT/AOT_stimuli/pictures/1697_fw.png	410.40586495399475	
328	301.78420186042786	picture	0		82	326.0	/experiments/knapen_AOT/AOT_stimuli/pictures/0367_fw.png	410.4263348579407	0.6874091625213623
328	302.46222591400146	response	0	k		326.0	/experiments/knapen_AOT/AOT_stimuli/pictures/0367_fw.png	411.1043589115143	
329	302.4716110229492	picture	0		141	327.0	/experiments/knapen_AOT/AOT_stimuli/pictures/1233_fw.png	411.11374402046204	1.1820688247680664
329	303.6373379230499	response	0	j		327.0	/experiments/knapen_AOT/AOT_stimuli/pictures/1233_fw.png	412.27947092056274	
330	303.6536798477173	picture	0		110	328.0	/experiments/knapen_AOT/AOT_stimuli/pictures/1176_fw.png	412.2958128452301	0.9222090244293213
330	304.5555188655853	response	0	j		328.0	/experiments/knapen_AOT/AOT_stimuli/pictures/1176_fw.png	413.19765186309814	
331	304.5758888721466	picture	0		75	329.0	/experiments/knapen_AOT/AOT_stimuli/pictures/0998_fw.png	413.2180218696594	0.6318621635437012
331	305.1955740451813	response	0	j		329.0	/experiments/knapen_AOT/AOT_stimuli/pictures/0998_fw.png	413.8377070426941	
332	305.2077510356903	picture	0		89	330.0	/experiments/knapen_AOT/AOT_stimuli/pictures/0199_fw.png	413.8498840332031	0.7430448532104492
332	305.930517911911	response	0	j		330.0	/experiments/knapen_AOT/AOT_stimuli/pictures/0199_fw.png	414.5726509094238	
333	305.95079588890076	picture	0		64	331.0	/experiments/knapen_AOT/AOT_stimuli/pictures/0979_fw.png	414.5929288864136	0.5446431636810303
333	306.47884798049927	response	0	k		331.0	/experiments/knapen_AOT/AOT_stimuli/pictures/0979_fw.png	415.1209809780121	
334	306.4954390525818	picture	0		84	332.0	/experiments/knapen_AOT/AOT_stimuli/pictures/0135_fw.png	415.1375720500946	0.7053709030151367
334	307.1872169971466	response	0	j		332.0	/experiments/knapen_AOT/AOT_stimuli/pictures/0135_fw.png	415.8293499946594	
335	307.2008099555969	picture	0		87	333.0	/experiments/knapen_AOT/AOT_stimuli/pictures/0651_fw.png	415.84294295310974	0.7291779518127441
335	307.9206039905548	response	0	k		333.0	/experiments/knapen_AOT/AOT_stimuli/pictures/0651_fw.png	416.5627369880676	
336	307.92998790740967	picture	0		86	334.0	/experiments/knapen_AOT/AOT_stimuli/pictures/1422_fw.png	416.5721209049225	0.7153940200805664
336	308.6372768878937	response	0	k		334.0	/experiments/knapen_AOT/AOT_stimuli/pictures/1422_fw.png	417.2794098854065	
337	308.64538192749023	picture	0		76	335.0	/experiments/knapen_AOT/AOT_stimuli/pictures/0385_fw.png	417.28751492500305	0.6417140960693359
337	309.2705509662628	response	0	k		335.0	/experiments/knapen_AOT/AOT_stimuli/pictures/0385_fw.png	417.91268396377563	
338	309.28709602355957	picture	0		81	336.0	/experiments/knapen_AOT/AOT_stimuli/pictures/1809_fw.png	417.9292290210724	0.6776878833770752
338	309.94731283187866	response	0	k		336.0	/experiments/knapen_AOT/AOT_stimuli/pictures/1809_fw.png	418.5894458293915	
339	309.96478390693665	picture	0		66	337.0	/experiments/knapen_AOT/AOT_stimuli/pictures/2106_fw.png	418.60691690444946	0.5556659698486328
339	310.50402188301086	response	0	k		337.0	/experiments/knapen_AOT/AOT_stimuli/pictures/2106_fw.png	419.1461548805237	
340	310.5204498767853	picture	0		87	338.0	/experiments/knapen_AOT/AOT_stimuli/pictures/1573_fw.png	419.1625828742981	0.7334079742431641
340	311.2374448776245	response	0	k		338.0	/experiments/knapen_AOT/AOT_stimuli/pictures/1573_fw.png	419.87957787513733	
341	311.25385785102844	picture	0		113	339.0	/experiments/knapen_AOT/AOT_stimuli/pictures/0156_fw.png	419.89599084854126	0.9469881057739258
341	312.18726801872253	response	0	k		339.0	/experiments/knapen_AOT/AOT_stimuli/pictures/0156_fw.png	420.82940101623535	
342	312.20084595680237	picture	0		68	340.0	/experiments/knapen_AOT/AOT_stimuli/pictures/0969_fw.png	420.8429789543152	0.5779678821563721
342	312.7623698711395	response	0	k		340.0	/experiments/knapen_AOT/AOT_stimuli/pictures/0969_fw.png	421.40450286865234	
343	312.77881383895874	picture	0		72	341.0	/experiments/knapen_AOT/AOT_stimuli/pictures/0227_fw.png	421.42094683647156	0.6083600521087646
343	313.3707129955292	response	0	k		341.0	/experiments/knapen_AOT/AOT_stimuli/pictures/0227_fw.png	422.012845993042	
344	313.3871738910675	picture	0		84	342.0	/experiments/knapen_AOT/AOT_stimuli/pictures/1252_fw.png	422.0293068885803	0.7026660442352295
344	314.0790660381317	response	0	j		342.0	/experiments/knapen_AOT/AOT_stimuli/pictures/1252_fw.png	422.72119903564453	
345	314.08983993530273	picture	0		88	343.0	/experiments/knapen_AOT/AOT_stimuli/pictures/0746_fw.png	422.73197293281555	0.7390398979187012
345	314.81230187416077	response	0	j		343.0	/experiments/knapen_AOT/AOT_stimuli/pictures/0746_fw.png	423.4544348716736	
346	314.82887983322144	picture	0		66	344.0	/experiments/knapen_AOT/AOT_stimuli/pictures/0132_fw.png	423.47101283073425	0.5526289939880371
346	315.3706839084625	response	0	j		344.0	/experiments/knapen_AOT/AOT_stimuli/pictures/0132_fw.png	424.01281690597534	
347	315.3815088272095	picture	0		82	345.0	/experiments/knapen_AOT/AOT_stimuli/pictures/1126_fw.png	424.0236418247223	0.6890690326690674
347	316.05417585372925	response	0	k		345.0	/experiments/knapen_AOT/AOT_stimuli/pictures/1126_fw.png	424.69630885124207	
348	316.07057785987854	picture	0		137	346.0	/experiments/knapen_AOT/AOT_stimuli/pictures/0906_fw.png	424.71271085739136	1.1442060470581055
348	317.2040319442749	response	0	j		346.0	/experiments/knapen_AOT/AOT_stimuli/pictures/0906_fw.png	425.8461649417877	
349	317.21478390693665	picture	0		85	347.0	/experiments/knapen_AOT/AOT_stimuli/pictures/1749_fw.png	425.85691690444946	0.7083489894866943
349	317.9124150276184	response	0	j		347.0	/experiments/knapen_AOT/AOT_stimuli/pictures/1749_fw.png	426.5545480251312	
350	317.92313289642334	picture	0		78	348.0	/experiments/knapen_AOT/AOT_stimuli/pictures/0566_fw.png	426.56526589393616	0.6527459621429443
350	318.5623469352722	response	0	j		348.0	/experiments/knapen_AOT/AOT_stimuli/pictures/0566_fw.png	427.20447993278503	
351	318.5758788585663	picture	0		89	349.0	/experiments/knapen_AOT/AOT_stimuli/pictures/1370_fw.png	427.2180118560791	0.7530670166015625
351	319.31234788894653	response	0	k		349.0	/experiments/knapen_AOT/AOT_stimuli/pictures/1370_fw.png	427.95448088645935	
352	319.32894587516785	picture	0		82	350.0	/experiments/knapen_AOT/AOT_stimuli/pictures/1277_fw.png	427.97107887268066	0.6917190551757812
352	320.0041148662567	response	0	k		350.0	/experiments/knapen_AOT/AOT_stimuli/pictures/1277_fw.png	428.64624786376953	
353	320.0206649303436	picture	0		74	351.0	/experiments/knapen_AOT/AOT_stimuli/pictures/0538_fw.png	428.66279792785645	0.6250081062316895
353	320.6291329860687	response	0	k		351.0	/experiments/knapen_AOT/AOT_stimuli/pictures/0538_fw.png	429.27126598358154	
354	320.6456730365753	picture	0		85	352.0	/experiments/knapen_AOT/AOT_stimuli/pictures/1479_fw.png	429.28780603408813	0.7165699005126953
354	321.33904004096985	response	0	k		352.0	/experiments/knapen_AOT/AOT_stimuli/pictures/1479_fw.png	429.98117303848267	
355	321.362242937088	picture	0		85	353.0	/experiments/knapen_AOT/AOT_stimuli/pictures/0588_fw.png	430.00437593460083	0.71675705909729
355	322.0623939037323	response	0	j		353.0	/experiments/knapen_AOT/AOT_stimuli/pictures/0588_fw.png	430.7045269012451	
356	322.0789999961853	picture	0		82	354.0	/experiments/knapen_AOT/AOT_stimuli/pictures/0111_fw.png	430.7211329936981	0.6916959285736084
356	322.74729585647583	response	0	k		354.0	/experiments/knapen_AOT/AOT_stimuli/pictures/0111_fw.png	431.38942885398865	
357	322.7706959247589	picture	0		136	355.0	/experiments/knapen_AOT/AOT_stimuli/pictures/0394_fw.png	431.41282892227173	1.1416239738464355
357	323.8957450389862	response	0	j		355.0	/experiments/knapen_AOT/AOT_stimuli/pictures/0394_fw.png	432.537878036499	
358	323.91231989860535	picture	0		89	356.0	/experiments/knapen_AOT/AOT_stimuli/pictures/0142_fw.png	432.55445289611816	0.7470099925994873
358	324.645751953125	response	0	k		356.0	/experiments/knapen_AOT/AOT_stimuli/pictures/0142_fw.png	433.2878849506378	
359	324.65932989120483	picture	0		97	357.0	/experiments/knapen_AOT/AOT_stimuli/pictures/1569_fw.png	433.30146288871765	0.8196439743041992
359	325.46259903907776	response	0	k		357.0	/experiments/knapen_AOT/AOT_stimuli/pictures/1569_fw.png	434.1047320365906	
360	325.47897386550903	picture	0		71	358.0	/experiments/knapen_AOT/AOT_stimuli/pictures/1613_fw.png	434.12110686302185	0.5969929695129395
360	326.0624489784241	response	0	k		358.0	/experiments/knapen_AOT/AOT_stimuli/pictures/1613_fw.png	434.7045819759369	
361	326.075966835022	picture	0		103	359.0	/experiments/knapen_AOT/AOT_stimuli/pictures/1453_fw.png	434.7180998325348	0.8613581657409668
361	326.92236590385437	response	0	k		359.0	/experiments/knapen_AOT/AOT_stimuli/pictures/1453_fw.png	435.5644989013672	
362	326.93732500076294	stim	0		398			435.57945799827576	3.3358559608459473
362	330.2531979084015	response	0	space				438.8953309059143	
