trial_nr	onset	event_type	phase	response	nr_frames	picture_index	picture_file	onset_abs	duration
0	0.1724257469177246	stim	0		542			96.8364646434784	4.535890102386475
0	4.689463138580322	response	0	space				101.35350203514099	
2	4.708315849304199	picture	0		135	0.0	/experiments/Knapen_AOT/AOT_stimuli/pictures/1614_fw.png	101.37235474586487	1.1508409976959229
2	5.839053630828857	response	0	k		0.0	/experiments/Knapen_AOT/AOT_stimuli/pictures/1614_fw.png	102.50309252738953	
3	5.859156847000122	picture	0		137	1.0	/experiments/Knapen_AOT/AOT_stimuli/pictures/1540_fw.png	102.52319574356079	1.1478550434112549
3	6.997704744338989	response	0	j		1.0	/experiments/Knapen_AOT/AOT_stimuli/pictures/1540_fw.png	103.66174364089966	
4	7.007011890411377	picture	0		134	2.0	/experiments/Knapen_AOT/AOT_stimuli/pictures/1898_fw.png	103.67105078697205	1.1180634498596191
4	8.114330768585205	response	0	k		2.0	/experiments/Knapen_AOT/AOT_stimuli/pictures/1898_fw.png	104.77836966514587	
5	8.125075340270996	picture	0		141	3.0	/experiments/Knapen_AOT/AOT_stimuli/pictures/1504_fw.png	104.78911423683167	1.173597812652588
5	9.289369106292725	response	0	j		3.0	/experiments/Knapen_AOT/AOT_stimuli/pictures/1504_fw.png	105.9534080028534	
6	9.298673152923584	picture	0		88	4.0	/experiments/Knapen_AOT/AOT_stimuli/pictures/1125_fw.png	105.96271204948425	0.7405540943145752
6	10.022732734680176	response	0	j		4.0	/experiments/Knapen_AOT/AOT_stimuli/pictures/1125_fw.png	106.68677163124084	
7	10.03922724723816	picture	0		125	5.0	/experiments/Knapen_AOT/AOT_stimuli/pictures/0206_fw.png	106.70326614379883	1.049959421157837
7	11.07278847694397	response	0	k		5.0	/experiments/Knapen_AOT/AOT_stimuli/pictures/0206_fw.png	107.73682737350464	
8	11.089186668395996	picture	0		139	6.0	/experiments/Knapen_AOT/AOT_stimuli/pictures/0475_fw.png	107.75322556495667	1.166729211807251
8	12.239441156387329	response	0	k		6.0	/experiments/Knapen_AOT/AOT_stimuli/pictures/0475_fw.png	108.903480052948	
9	12.255915880203247	picture	0		104	7.0	/experiments/Knapen_AOT/AOT_stimuli/pictures/0287_fw.png	108.91995477676392	0.8691473007202148
9	13.114437818527222	response	0	k		7.0	/experiments/Knapen_AOT/AOT_stimuli/pictures/0287_fw.png	109.77847671508789	
10	13.125063180923462	picture	0		121	8.0	/experiments/Knapen_AOT/AOT_stimuli/pictures/1139_fw.png	109.78910207748413	1.0069537162780762
10	14.122814655303955	response	0	j		8.0	/experiments/Knapen_AOT/AOT_stimuli/pictures/1139_fw.png	110.78685355186462	
11	14.132016897201538	picture	0		102	9.0	/experiments/Knapen_AOT/AOT_stimuli/pictures/0789_fw.png	110.7960557937622	0.8541977405548096
11	14.972734928131104	response	0	j		9.0	/experiments/Knapen_AOT/AOT_stimuli/pictures/0789_fw.png	111.63677382469177	
12	14.986214637756348	picture	0		90	10.0	/experiments/Knapen_AOT/AOT_stimuli/pictures/1862_fw.png	111.65025353431702	0.7569611072540283
12	15.731149911880493	response	0	j		10.0	/experiments/Knapen_AOT/AOT_stimuli/pictures/1862_fw.png	112.39518880844116	
13	15.743175745010376	picture	0		113	11.0	/experiments/Knapen_AOT/AOT_stimuli/pictures/0157_fw.png	112.40721464157104	0.9377107620239258
13	16.672796964645386	response	0	k		11.0	/experiments/Knapen_AOT/AOT_stimuli/pictures/0157_fw.png	113.33683586120605	
14	16.6808865070343	picture	0		106	12.0	/experiments/Knapen_AOT/AOT_stimuli/pictures/0483_fw.png	113.34492540359497	0.8886604309082031
14	17.556127071380615	response	0	k		12.0	/experiments/Knapen_AOT/AOT_stimuli/pictures/0483_fw.png	114.22016596794128	
15	17.569546937942505	picture	0		104	13.0	/experiments/Knapen_AOT/AOT_stimuli/pictures/0556_fw.png	114.23358583450317	0.8750100135803223
15	18.43110966682434	response	0	k		13.0	/experiments/Knapen_AOT/AOT_stimuli/pictures/0556_fw.png	115.09514856338501	
16	18.444556951522827	picture	0		98	14.0	/experiments/Knapen_AOT/AOT_stimuli/pictures/0932_fw.png	115.1085958480835	0.8196816444396973
16	19.256067991256714	response	0	j		14.0	/experiments/Knapen_AOT/AOT_stimuli/pictures/0932_fw.png	115.92010688781738	
17	19.264238595962524	picture	0		91	15.0	/experiments/Knapen_AOT/AOT_stimuli/pictures/1199_fw.png	115.9282774925232	0.7667303085327148
17	20.014469146728516	response	0	j		15.0	/experiments/Knapen_AOT/AOT_stimuli/pictures/1199_fw.png	116.67850804328918	
18	20.03096890449524	picture	0		108	16.0	/experiments/Knapen_AOT/AOT_stimuli/pictures/0674_fw.png	116.69500780105591	0.9083666801452637
18	20.924031734466553	response	0	k		16.0	/experiments/Knapen_AOT/AOT_stimuli/pictures/0674_fw.png	117.58807063102722	
19	20.939335584640503	picture	0		108	17.0	/experiments/Knapen_AOT/AOT_stimuli/pictures/1030_fw.png	117.60337448120117	0.9011144638061523
19	21.83114743232727	response	0	j		17.0	/experiments/Knapen_AOT/AOT_stimuli/pictures/1030_fw.png	118.49518632888794	
20	21.840450048446655	picture	0		104	18.0	/experiments/Knapen_AOT/AOT_stimuli/pictures/1021_fw.png	118.50448894500732	0.8680849075317383
20	22.697966814041138	response	0	k		18.0	/experiments/Knapen_AOT/AOT_stimuli/pictures/1021_fw.png	119.3620057106018	
21	22.708534955978394	picture	0		120	19.0	/experiments/Knapen_AOT/AOT_stimuli/pictures/1111_fw.png	119.37257385253906	0.99997878074646
21	23.697840452194214	response	0	k		19.0	/experiments/Knapen_AOT/AOT_stimuli/pictures/1111_fw.png	120.36187934875488	
22	23.708513736724854	picture	0		129	20.0	/experiments/Knapen_AOT/AOT_stimuli/pictures/0178_fw.png	120.37255263328552	1.0764546394348145
22	24.772847652435303	response	0	k		20.0	/experiments/Knapen_AOT/AOT_stimuli/pictures/0178_fw.png	121.43688654899597	
23	24.784968376159668	picture	0		99	21.0	/experiments/Knapen_AOT/AOT_stimuli/pictures/1141_fw.png	121.44900727272034	0.8377172946929932
23	25.60627293586731	response	0	k		21.0	/experiments/Knapen_AOT/AOT_stimuli/pictures/1141_fw.png	122.27031183242798	
24	25.62268567085266	picture	0		121	22.0	/experiments/Knapen_AOT/AOT_stimuli/pictures/0347_fw.png	122.28672456741333	1.0094554424285889
24	26.622857332229614	response	0	k		22.0	/experiments/Knapen_AOT/AOT_stimuli/pictures/0347_fw.png	123.28689622879028	
25	26.63214111328125	picture	0		137	23.0	/experiments/Knapen_AOT/AOT_stimuli/pictures/0052_fw.png	123.29618000984192	1.1458439826965332
25	27.76453924179077	response	0	j		23.0	/experiments/Knapen_AOT/AOT_stimuli/pictures/0052_fw.png	124.42857813835144	
26	27.777985095977783	picture	0		90	24.0	/experiments/Knapen_AOT/AOT_stimuli/pictures/1665_fw.png	124.44202399253845	0.7613809108734131
26	28.523478031158447	response	0	j		24.0	/experiments/Knapen_AOT/AOT_stimuli/pictures/1665_fw.png	125.18751692771912	
27	28.539366006851196	picture	0		177	25.0	/experiments/Knapen_AOT/AOT_stimuli/pictures/1680_fw.png	125.20340490341187	1.4834482669830322
27	30.006439447402954	response	0	j		25.0	/experiments/Knapen_AOT/AOT_stimuli/pictures/1680_fw.png	126.67047834396362	
28	30.02281427383423	picture	0		95	26.0	/experiments/Knapen_AOT/AOT_stimuli/pictures/1990_fw.png	126.6868531703949	0.8000180721282959
28	30.8061785697937	response	0	j		26.0	/experiments/Knapen_AOT/AOT_stimuli/pictures/1990_fw.png	127.47021746635437	
29	30.822832345962524	picture	0		168	27.0	/experiments/Knapen_AOT/AOT_stimuli/pictures/1674_fw.png	127.4868712425232	1.408287763595581
29	32.214717388153076	response	0	j		27.0	/experiments/Knapen_AOT/AOT_stimuli/pictures/1674_fw.png	128.87875628471375	
30	32.231120109558105	picture	0		121	28.0	/experiments/Knapen_AOT/AOT_stimuli/pictures/1645_fw.png	128.89515900611877	1.0166621208190918
30	33.23127841949463	response	0	k		28.0	/experiments/Knapen_AOT/AOT_stimuli/pictures/1645_fw.png	129.8953173160553	
31	33.2477822303772	picture	0		336	29.0	/experiments/Knapen_AOT/AOT_stimuli/pictures/1148_fw.png	129.91182112693787	2.808351755142212
31	36.0399444103241	response	0	k		29.0	/experiments/Knapen_AOT/AOT_stimuli/pictures/1148_fw.png	132.70398330688477	
32	36.05613398551941	picture	0		111	30.0	/experiments/Knapen_AOT/AOT_stimuli/pictures/0402_fw.png	132.72017288208008	0.9301807880401611
32	36.97297954559326	response	0	k		30.0	/experiments/Knapen_AOT/AOT_stimuli/pictures/0402_fw.png	133.63701844215393	
33	36.98631477355957	picture	0		91	31.0	/experiments/Knapen_AOT/AOT_stimuli/pictures/0797_fw.png	133.65035367012024	0.763932466506958
33	37.73997783660889	response	0	k		31.0	/experiments/Knapen_AOT/AOT_stimuli/pictures/0797_fw.png	134.40401673316956	
34	37.75024724006653	picture	0		211	32.0	/experiments/Knapen_AOT/AOT_stimuli/pictures/0617_fw.png	134.4142861366272	1.7568278312683105
34	39.49800896644592	response	0	k		32.0	/experiments/Knapen_AOT/AOT_stimuli/pictures/0617_fw.png	136.1620478630066	
35	39.50707507133484	picture	0		173	33.0	/experiments/Knapen_AOT/AOT_stimuli/pictures/0239_fw.png	136.1711139678955	1.449108362197876
35	40.939861536026	response	0	k		33.0	/experiments/Knapen_AOT/AOT_stimuli/pictures/0239_fw.png	137.60390043258667	
36	40.956183433532715	picture	0		94	34.0	/experiments/Knapen_AOT/AOT_stimuli/pictures/1451_fw.png	137.62022233009338	0.7872011661529541
36	41.72518754005432	response	0	k		34.0	/experiments/Knapen_AOT/AOT_stimuli/pictures/1451_fw.png	138.389226436615	
37	41.74338459968567	picture	0		90	35.0	/experiments/Knapen_AOT/AOT_stimuli/pictures/1578_fw.png	138.40742349624634	0.7545044422149658
37	42.48150587081909	response	0	j		35.0	/experiments/Knapen_AOT/AOT_stimuli/pictures/1578_fw.png	139.14554476737976	
38	42.497889041900635	picture	0		104	36.0	/experiments/Knapen_AOT/AOT_stimuli/pictures/0246_fw.png	139.1619279384613	0.8749556541442871
38	43.356425046920776	response	0	k		36.0	/experiments/Knapen_AOT/AOT_stimuli/pictures/0246_fw.png	140.02046394348145	
39	43.37284469604492	picture	0		145	37.0	/experiments/Knapen_AOT/AOT_stimuli/pictures/1755_fw.png	140.0368835926056	1.2107293605804443
39	44.57313895225525	response	0	j		37.0	/experiments/Knapen_AOT/AOT_stimuli/pictures/1755_fw.png	141.23717784881592	
40	44.583574056625366	picture	0		93	38.0	/experiments/Knapen_AOT/AOT_stimuli/pictures/0365_fw.png	141.24761295318604	0.7778110504150391
40	45.34806513786316	response	0	j		38.0	/experiments/Knapen_AOT/AOT_stimuli/pictures/0365_fw.png	142.01210403442383	
41	45.361385107040405	picture	0		269	39.0	/experiments/Knapen_AOT/AOT_stimuli/pictures/2091_fw.png	142.02542400360107	2.2499098777770996
41	47.59823751449585	response	0	k		39.0	/experiments/Knapen_AOT/AOT_stimuli/pictures/2091_fw.png	144.26227641105652	
42	47.611294984817505	picture	0		117	40.0	/experiments/Knapen_AOT/AOT_stimuli/pictures/0489_fw.png	144.27533388137817	0.9866440296173096
42	48.581443071365356	response	0	k		40.0	/experiments/Knapen_AOT/AOT_stimuli/pictures/0489_fw.png	145.24548196792603	
43	48.597939014434814	picture	0		352	41.0	/experiments/Knapen_AOT/AOT_stimuli/pictures/1372_fw.png	145.26197791099548	2.9418160915374756
43	51.523491621017456	response	0	j		41.0	/experiments/Knapen_AOT/AOT_stimuli/pictures/1372_fw.png	148.18753051757812	
44	51.53975510597229	picture	0		99	42.0	/experiments/Knapen_AOT/AOT_stimuli/pictures/1813_fw.png	148.20379400253296	0.8285996913909912
44	52.35654354095459	response	0	j		42.0	/experiments/Knapen_AOT/AOT_stimuli/pictures/1813_fw.png	149.02058243751526	
45	52.36835479736328	picture	0		76	43.0	/experiments/Knapen_AOT/AOT_stimuli/pictures/0172_fw.png	149.03239369392395	0.6319386959075928
45	52.98998546600342	response	0	j		43.0	/experiments/Knapen_AOT/AOT_stimuli/pictures/0172_fw.png	149.6540243625641	
46	53.000293493270874	picture	0		116	44.0	/experiments/Knapen_AOT/AOT_stimuli/pictures/1918_fw.png	149.66433238983154	0.9726674556732178
46	53.95658230781555	response	0	k		44.0	/experiments/Knapen_AOT/AOT_stimuli/pictures/1918_fw.png	150.62062120437622	
47	53.97296094894409	picture	0		122	45.0	/experiments/Knapen_AOT/AOT_stimuli/pictures/1875_fw.png	150.63699984550476	1.0204229354858398
47	54.981701135635376	response	0	k		45.0	/experiments/Knapen_AOT/AOT_stimuli/pictures/1875_fw.png	151.64574003219604	
48	54.99338388442993	picture	0		98	46.0	/experiments/Knapen_AOT/AOT_stimuli/pictures/0668_fw.png	151.6574227809906	0.8194253444671631
48	55.79827356338501	response	0	k		46.0	/experiments/Knapen_AOT/AOT_stimuli/pictures/0668_fw.png	152.46231245994568	
49	55.812809228897095	picture	0		138	47.0	/experiments/Knapen_AOT/AOT_stimuli/pictures/1229_fw.png	152.47684812545776	1.1527910232543945
49	56.956575870513916	response	0	k		47.0	/experiments/Knapen_AOT/AOT_stimuli/pictures/1229_fw.png	153.62061476707458	
50	56.96560025215149	picture	0		186	48.0	/experiments/Knapen_AOT/AOT_stimuli/pictures/0922_fw.png	153.62963914871216	1.5574555397033691
50	58.506556034088135	response	0	k		48.0	/experiments/Knapen_AOT/AOT_stimuli/pictures/0922_fw.png	155.1705949306488	
51	58.52305579185486	picture	0		94	49.0	/experiments/Knapen_AOT/AOT_stimuli/pictures/1618_fw.png	155.18709468841553	0.7916853427886963
51	59.29193949699402	response	0	k		49.0	/experiments/Knapen_AOT/AOT_stimuli/pictures/1618_fw.png	155.9559783935547	
52	59.314741134643555	picture	0		88	50.0	/experiments/Knapen_AOT/AOT_stimuli/pictures/1238_fw.png	155.97878003120422	0.7342112064361572
52	60.039937257766724	response	0	k		50.0	/experiments/Knapen_AOT/AOT_stimuli/pictures/1238_fw.png	156.7039761543274	
53	60.04895234107971	picture	0		87	51.0	/experiments/Knapen_AOT/AOT_stimuli/pictures/2068_fw.png	156.71299123764038	0.7291696071624756
53	60.7648811340332	response	0	k		51.0	/experiments/Knapen_AOT/AOT_stimuli/pictures/2068_fw.png	157.42892003059387	
54	60.77812194824219	picture	0		100	52.0	/experiments/Knapen_AOT/AOT_stimuli/pictures/1454_fw.png	157.44216084480286	0.8449573516845703
54	61.60663199424744	response	0	j		52.0	/experiments/Knapen_AOT/AOT_stimuli/pictures/1454_fw.png	158.2706708908081	
55	61.62307929992676	picture	0		99	53.0	/experiments/Knapen_AOT/AOT_stimuli/pictures/0675_fw.png	158.28711819648743	0.8287491798400879
55	62.43993782997131	response	0	k		53.0	/experiments/Knapen_AOT/AOT_stimuli/pictures/0675_fw.png	159.10397672653198	
56	62.451828479766846	picture	0		169	54.0	/experiments/Knapen_AOT/AOT_stimuli/pictures/1762_fw.png	159.11586737632751	1.4095609188079834
56	63.84825658798218	response	0	j		54.0	/experiments/Knapen_AOT/AOT_stimuli/pictures/1762_fw.png	160.51229548454285	
57	63.86138939857483	picture	0		99	55.0	/experiments/Knapen_AOT/AOT_stimuli/pictures/0510_fw.png	160.5254282951355	0.8334159851074219
57	64.68158626556396	response	0	k		55.0	/experiments/Knapen_AOT/AOT_stimuli/pictures/0510_fw.png	161.34562516212463	
58	64.69480538368225	picture	0		114	56.0	/experiments/Knapen_AOT/AOT_stimuli/pictures/0763_fw.png	161.35884428024292	0.9616618156433105
58	65.63993906974792	response	0	j		56.0	/experiments/Knapen_AOT/AOT_stimuli/pictures/0763_fw.png	162.3039779663086	
59	65.65646719932556	picture	0		106	57.0	/experiments/Knapen_AOT/AOT_stimuli/pictures/1658_fw.png	162.32050609588623	0.8856244087219238
59	66.52415132522583	response	0	j		57.0	/experiments/Knapen_AOT/AOT_stimuli/pictures/1658_fw.png	163.1881902217865	
60	66.54209160804749	picture	0		151	58.0	/experiments/Knapen_AOT/AOT_stimuli/pictures/1655_fw.png	163.20613050460815	1.2569971084594727
60	67.79000544548035	response	0	k		58.0	/experiments/Knapen_AOT/AOT_stimuli/pictures/1655_fw.png	164.45404434204102	
61	67.79908871650696	picture	0		107	59.0	/experiments/Knapen_AOT/AOT_stimuli/pictures/1217_fw.png	164.46312761306763	0.8957693576812744
61	68.6815938949585	response	0	j		59.0	/experiments/Knapen_AOT/AOT_stimuli/pictures/1217_fw.png	165.34563279151917	
62	68.69485807418823	picture	0		145	60.0	/experiments/Knapen_AOT/AOT_stimuli/pictures/0895_fw.png	165.3588969707489	1.219975471496582
62	69.89843678474426	response	0	k		60.0	/experiments/Knapen_AOT/AOT_stimuli/pictures/0895_fw.png	166.56247568130493	
63	69.91483354568481	picture	0		99	61.0	/experiments/Knapen_AOT/AOT_stimuli/pictures/1744_fw.png	166.57887244224548	0.8286917209625244
63	70.73184275627136	response	0	j		61.0	/experiments/Knapen_AOT/AOT_stimuli/pictures/1744_fw.png	167.39588165283203	
64	70.74352526664734	picture	0		140	62.0	/experiments/Knapen_AOT/AOT_stimuli/pictures/2042_fw.png	167.407564163208	1.1666514873504639
64	71.8983588218689	response	0	j		62.0	/experiments/Knapen_AOT/AOT_stimuli/pictures/2042_fw.png	168.56239771842957	
65	71.9101767539978	picture	0		138	63.0	/experiments/Knapen_AOT/AOT_stimuli/pictures/0718_fw.png	168.57421565055847	1.1630597114562988
65	73.05687522888184	response	0	j		63.0	/experiments/Knapen_AOT/AOT_stimuli/pictures/0718_fw.png	169.7209141254425	
66	73.0732364654541	picture	0		98	64.0	/experiments/Knapen_AOT/AOT_stimuli/pictures/1660_fw.png	169.73727536201477	0.8166043758392334
66	73.88176727294922	response	0	k		64.0	/experiments/Knapen_AOT/AOT_stimuli/pictures/1660_fw.png	170.5458061695099	
67	73.88984084129333	picture	0		150	65.0	/experiments/Knapen_AOT/AOT_stimuli/pictures/0868_fw.png	170.553879737854	1.250013828277588
67	75.13185739517212	response	0	k		65.0	/experiments/Knapen_AOT/AOT_stimuli/pictures/0868_fw.png	171.7958962917328	
68	75.13985466957092	picture	0		100	66.0	/experiments/Knapen_AOT/AOT_stimuli/pictures/0974_fw.png	171.8038935661316	0.8417437076568604
68	75.96514344215393	response	0	j		66.0	/experiments/Knapen_AOT/AOT_stimuli/pictures/0974_fw.png	172.6291823387146	
69	75.98159837722778	picture	0		99	67.0	/experiments/Knapen_AOT/AOT_stimuli/pictures/1032_fw.png	172.64563727378845	0.8333399295806885
69	76.7986352443695	response	0	k		67.0	/experiments/Knapen_AOT/AOT_stimuli/pictures/1032_fw.png	173.46267414093018	
70	76.81493830680847	picture	0		192	68.0	/experiments/Knapen_AOT/AOT_stimuli/pictures/1036_fw.png	173.47897720336914	1.6083464622497559
70	78.40697598457336	response	0	j		68.0	/experiments/Knapen_AOT/AOT_stimuli/pictures/1036_fw.png	175.07101488113403	
71	78.42328476905823	picture	0		180	69.0	/experiments/Knapen_AOT/AOT_stimuli/pictures/1355_fw.png	175.0873236656189	1.5083341598510742
71	79.91517615318298	response	0	j		69.0	/experiments/Knapen_AOT/AOT_stimuli/pictures/1355_fw.png	176.57921504974365	
72	79.9316189289093	picture	0		139	70.0	/experiments/Knapen_AOT/AOT_stimuli/pictures/1483_fw.png	176.59565782546997	1.1591248512268066
72	81.08178853988647	response	0	k		70.0	/experiments/Knapen_AOT/AOT_stimuli/pictures/1483_fw.png	177.74582743644714	
73	81.09074378013611	picture	0		109	71.0	/experiments/Knapen_AOT/AOT_stimuli/pictures/1676_fw.png	177.75478267669678	0.9158849716186523
73	81.99022436141968	response	0	j		71.0	/experiments/Knapen_AOT/AOT_stimuli/pictures/1676_fw.png	178.65426325798035	
74	82.00662875175476	picture	0		112	72.0	/experiments/Knapen_AOT/AOT_stimuli/pictures/1272_fw.png	178.67066764831543	0.9383566379547119
74	82.92413091659546	response	0	j		72.0	/experiments/Knapen_AOT/AOT_stimuli/pictures/1272_fw.png	179.58816981315613	
75	82.94498538970947	picture	0		106	73.0	/experiments/Knapen_AOT/AOT_stimuli/pictures/0310_fw.png	179.60902428627014	0.888878345489502
75	83.82358431816101	response	0	k		73.0	/experiments/Knapen_AOT/AOT_stimuli/pictures/0310_fw.png	180.48762321472168	
76	83.83386373519897	picture	0		98	74.0	/experiments/Knapen_AOT/AOT_stimuli/pictures/0211_fw.png	180.49790263175964	0.8194179534912109
76	84.64015054702759	response	0	j		74.0	/experiments/Knapen_AOT/AOT_stimuli/pictures/0211_fw.png	181.30418944358826	
77	84.65328168869019	picture	0		121	75.0	/experiments/Knapen_AOT/AOT_stimuli/pictures/0014_fw.png	181.31732058525085	1.0138967037200928
77	85.6569459438324	response	0	k		75.0	/experiments/Knapen_AOT/AOT_stimuli/pictures/0014_fw.png	182.32098484039307	
78	85.66717839241028	picture	0		142	76.0	/experiments/Knapen_AOT/AOT_stimuli/pictures/1878_fw.png	182.33121728897095	1.1811354160308838
78	86.84025740623474	response	0	k		76.0	/experiments/Knapen_AOT/AOT_stimuli/pictures/1878_fw.png	183.5042963027954	
79	86.84831380844116	picture	0		112	77.0	/experiments/Knapen_AOT/AOT_stimuli/pictures/0654_fw.png	183.51235270500183	0.9369728565216064
79	87.77358865737915	response	0	k		77.0	/experiments/Knapen_AOT/AOT_stimuli/pictures/0654_fw.png	184.43762755393982	
80	87.78528666496277	picture	0		103	78.0	/experiments/Knapen_AOT/AOT_stimuli/pictures/1544_fw.png	184.44932556152344	0.8547224998474121
80	88.63205170631409	response	0	k		78.0	/experiments/Knapen_AOT/AOT_stimuli/pictures/1544_fw.png	185.29609060287476	
81	88.64000916481018	picture	0		196	79.0	/experiments/Knapen_AOT/AOT_stimuli/pictures/0722_fw.png	185.30404806137085	1.638213872909546
81	90.26522040367126	response	0	k		79.0	/experiments/Knapen_AOT/AOT_stimuli/pictures/0722_fw.png	186.92925930023193	
82	90.27822303771973	picture	0		120	80.0	/experiments/Knapen_AOT/AOT_stimuli/pictures/1490_fw.png	186.9422619342804	1.007023572921753
82	91.27358198165894	response	0	j		80.0	/experiments/Knapen_AOT/AOT_stimuli/pictures/1490_fw.png	187.9376208782196	
83	91.28524661064148	picture	0		126	81.0	/experiments/Knapen_AOT/AOT_stimuli/pictures/0781_fw.png	187.94928550720215	1.0486226081848145
83	92.31705331802368	response	0	k		81.0	/experiments/Knapen_AOT/AOT_stimuli/pictures/0781_fw.png	188.98109221458435	
84	92.3338692188263	picture	0		94	82.0	/experiments/Knapen_AOT/AOT_stimuli/pictures/1533_fw.png	188.99790811538696	0.7847037315368652
84	93.10691356658936	response	0	j		82.0	/experiments/Knapen_AOT/AOT_stimuli/pictures/1533_fw.png	189.77095246315002	
85	93.11857295036316	picture	0		106	83.0	/experiments/Knapen_AOT/AOT_stimuli/pictures/1780_fw.png	189.78261184692383	0.8882060050964355
85	93.99028491973877	response	0	j		83.0	/experiments/Knapen_AOT/AOT_stimuli/pictures/1780_fw.png	190.65432381629944	
86	94.0067789554596	picture	0		188	84.0	/experiments/Knapen_AOT/AOT_stimuli/pictures/0538_fw.png	190.67081785202026	1.575002670288086
86	95.56530523300171	response	0	k		84.0	/experiments/Knapen_AOT/AOT_stimuli/pictures/0538_fw.png	192.22934412956238	
87	95.58178162574768	picture	0		78	85.0	/experiments/Knapen_AOT/AOT_stimuli/pictures/0643_fw.png	192.24582052230835	0.6549439430236816
87	96.22365212440491	response	0	j		85.0	/experiments/Knapen_AOT/AOT_stimuli/pictures/0643_fw.png	192.88769102096558	
88	96.23672556877136	picture	0		106	86.0	/experiments/Knapen_AOT/AOT_stimuli/pictures/1857_fw.png	192.90076446533203	0.8950932025909424
88	97.11562395095825	response	0	k		86.0	/experiments/Knapen_AOT/AOT_stimuli/pictures/1857_fw.png	193.77966284751892	
89	97.1318187713623	picture	0		212	87.0	/experiments/Knapen_AOT/AOT_stimuli/pictures/0593_fw.png	193.79585766792297	1.77144455909729
89	98.89034032821655	response	0	k		87.0	/experiments/Knapen_AOT/AOT_stimuli/pictures/0593_fw.png	195.55437922477722	
90	98.9032633304596	picture	0		112	88.0	/experiments/Knapen_AOT/AOT_stimuli/pictures/1306_fw.png	195.56730222702026	0.9376142024993896
90	99.83222985267639	response	0	k		88.0	/experiments/Knapen_AOT/AOT_stimuli/pictures/1306_fw.png	196.49626874923706	
91	99.84087753295898	picture	0		90	89.0	/experiments/Knapen_AOT/AOT_stimuli/pictures/1567_fw.png	196.50491642951965	0.7499587535858154
91	100.58206152915955	response	0	j		89.0	/experiments/Knapen_AOT/AOT_stimuli/pictures/1567_fw.png	197.24610042572021	
92	100.5908362865448	picture	0		87	90.0	/experiments/Knapen_AOT/AOT_stimuli/pictures/1047_fw.png	197.25487518310547	0.7326650619506836
92	101.30706119537354	response	0	j		90.0	/experiments/Knapen_AOT/AOT_stimuli/pictures/1047_fw.png	197.9711000919342	
93	101.32350134849548	picture	0		129	91.0	/experiments/Knapen_AOT/AOT_stimuli/pictures/1130_fw.png	197.98754024505615	1.0798835754394531
93	102.39039373397827	response	0	j		91.0	/experiments/Knapen_AOT/AOT_stimuli/pictures/1130_fw.png	199.05443263053894	
94	102.40338492393494	picture	0		149	92.0	/experiments/Knapen_AOT/AOT_stimuli/pictures/0602_fw.png	199.0674238204956	1.2451715469360352
94	103.63276839256287	response	0	k		92.0	/experiments/Knapen_AOT/AOT_stimuli/pictures/0602_fw.png	200.29680728912354	
95	103.64855647087097	picture	0		109	93.0	/experiments/Knapen_AOT/AOT_stimuli/pictures/1484_fw.png	200.31259536743164	0.9082856178283691
95	104.54872417449951	response	0	j		93.0	/experiments/Knapen_AOT/AOT_stimuli/pictures/1484_fw.png	201.21276307106018	
96	104.55684208869934	picture	0		226	94.0	/experiments/Knapen_AOT/AOT_stimuli/pictures/0700_fw.png	201.22088098526	1.8917267322540283
96	106.43214321136475	response	0	k		94.0	/experiments/Knapen_AOT/AOT_stimuli/pictures/0700_fw.png	203.09618210792542	
97	106.44856882095337	picture	0		99	95.0	/experiments/Knapen_AOT/AOT_stimuli/pictures/2063_fw.png	203.11260771751404	0.8333554267883301
97	107.26552820205688	response	0	k		95.0	/experiments/Knapen_AOT/AOT_stimuli/pictures/2063_fw.png	203.92956709861755	
98	107.2819242477417	picture	0		110	96.0	/experiments/Knapen_AOT/AOT_stimuli/pictures/1416_fw.png	203.94596314430237	0.9200713634490967
98	108.19042348861694	response	0	k		96.0	/experiments/Knapen_AOT/AOT_stimuli/pictures/1416_fw.png	204.8544623851776	
99	108.2019956111908	picture	0		122	97.0	/experiments/Knapen_AOT/AOT_stimuli/pictures/0420_fw.png	204.86603450775146	1.027796745300293
99	109.21546459197998	response	0	j		97.0	/experiments/Knapen_AOT/AOT_stimuli/pictures/0420_fw.png	205.87950348854065	
100	109.22979235649109	picture	0		102	98.0	/experiments/Knapen_AOT/AOT_stimuli/pictures/0037_fw.png	205.89383125305176	0.8604893684387207
100	110.07408475875854	response	0	k		98.0	/experiments/Knapen_AOT/AOT_stimuli/pictures/0037_fw.png	206.7381236553192	
101	110.09028172492981	picture	0		100	99.0	/experiments/Knapen_AOT/AOT_stimuli/pictures/0152_fw.png	206.75432062149048	0.8416495323181152
101	110.90928101539612	response	0	k		99.0	/experiments/Knapen_AOT/AOT_stimuli/pictures/0152_fw.png	207.5733199119568	
102	110.93193125724792	picture	0		97	100.0	/experiments/Knapen_AOT/AOT_stimuli/pictures/1307_fw.png	207.5959701538086	0.8166882991790771
102	111.73214554786682	response	0	k		100.0	/experiments/Knapen_AOT/AOT_stimuli/pictures/1307_fw.png	208.3961844444275	
103	111.748619556427	picture	0		130	101.0	/experiments/Knapen_AOT/AOT_stimuli/pictures/1816_fw.png	208.41265845298767	1.085341453552246
103	112.82381296157837	response	0	k		101.0	/experiments/Knapen_AOT/AOT_stimuli/pictures/1816_fw.png	209.48785185813904	
104	112.83396100997925	picture	0		98	102.0	/experiments/Knapen_AOT/AOT_stimuli/pictures/1840_fw.png	209.49799990653992	0.8194999694824219
104	113.64051485061646	response	0	k		102.0	/experiments/Knapen_AOT/AOT_stimuli/pictures/1840_fw.png	210.30455374717712	
105	113.65346097946167	picture	0		173	103.0	/experiments/Knapen_AOT/AOT_stimuli/pictures/1620_fw.png	210.31749987602234	1.4373698234558105
105	115.08218622207642	response	0	j		103.0	/experiments/Knapen_AOT/AOT_stimuli/pictures/1620_fw.png	211.74622511863708	
106	115.09083080291748	picture	0		190	104.0	/experiments/Knapen_AOT/AOT_stimuli/pictures/1696_fw.png	211.75486969947815	1.5911827087402344
106	116.66560220718384	response	0	k		104.0	/experiments/Knapen_AOT/AOT_stimuli/pictures/1696_fw.png	213.3296411037445	
107	116.68201351165771	picture	0		90	105.0	/experiments/Knapen_AOT/AOT_stimuli/pictures/2103_fw.png	213.34605240821838	0.7583448886871338
107	117.42424988746643	response	0	j		105.0	/experiments/Knapen_AOT/AOT_stimuli/pictures/2103_fw.png	214.0882887840271	
108	117.44035840034485	picture	0		108	106.0	/experiments/Knapen_AOT/AOT_stimuli/pictures/1204_fw.png	214.10439729690552	0.9006097316741943
108	118.33220291137695	response	0	k		106.0	/experiments/Knapen_AOT/AOT_stimuli/pictures/1204_fw.png	214.99624180793762	
109	118.34096813201904	picture	0		122	107.0	/experiments/Knapen_AOT/AOT_stimuli/pictures/0041_fw.png	215.0050070285797	1.0208284854888916
109	119.34891510009766	response	0	k		107.0	/experiments/Knapen_AOT/AOT_stimuli/pictures/0041_fw.png	216.01295399665833	
110	119.36179661750793	picture	0		147	108.0	/experiments/Knapen_AOT/AOT_stimuli/pictures/1757_fw.png	216.0258355140686	1.222221851348877
110	120.57400369644165	response	0	j		108.0	/experiments/Knapen_AOT/AOT_stimuli/pictures/1757_fw.png	217.23804259300232	
111	120.58401846885681	picture	0		175	109.0	/experiments/Knapen_AOT/AOT_stimuli/pictures/1897_fw.png	217.24805736541748	1.4582483768463135
111	122.03230500221252	response	0	j		109.0	/experiments/Knapen_AOT/AOT_stimuli/pictures/1897_fw.png	218.6963438987732	
112	122.04226684570312	picture	0		91	110.0	/experiments/Knapen_AOT/AOT_stimuli/pictures/0300_fw.png	218.7063057422638	0.7647888660430908
112	122.79059505462646	response	0	j		110.0	/experiments/Knapen_AOT/AOT_stimuli/pictures/0300_fw.png	219.45463395118713	
113	122.80705571174622	picture	0		116	111.0	/experiments/Knapen_AOT/AOT_stimuli/pictures/1832_fw.png	219.47109460830688	0.971437931060791
113	123.76559901237488	response	0	k		111.0	/experiments/Knapen_AOT/AOT_stimuli/pictures/1832_fw.png	220.42963790893555	
114	123.778493642807	picture	0		91	112.0	/experiments/Knapen_AOT/AOT_stimuli/pictures/1147_fw.png	220.44253253936768	0.7703244686126709
114	124.5323965549469	response	0	j		112.0	/experiments/Knapen_AOT/AOT_stimuli/pictures/1147_fw.png	221.19643545150757	
115	124.54881811141968	picture	0		150	113.0	/experiments/Knapen_AOT/AOT_stimuli/pictures/1260_fw.png	221.21285700798035	1.2582931518554688
115	125.79064512252808	response	0	j		113.0	/experiments/Knapen_AOT/AOT_stimuli/pictures/1260_fw.png	222.45468401908875	
116	125.80711126327515	picture	0		109	114.0	/experiments/Knapen_AOT/AOT_stimuli/pictures/0146_fw.png	222.47115015983582	0.9089138507843018
116	126.70739102363586	response	0	j		114.0	/experiments/Knapen_AOT/AOT_stimuli/pictures/0146_fw.png	223.37142992019653	
117	126.71602511405945	picture	0		136	115.0	/experiments/Knapen_AOT/AOT_stimuli/pictures/0255_fw.png	223.38006401062012	1.1389272212982178
117	127.84068465232849	response	0	k		115.0	/experiments/Knapen_AOT/AOT_stimuli/pictures/0255_fw.png	224.50472354888916	
118	127.85495233535767	picture	0		124	116.0	/experiments/Knapen_AOT/AOT_stimuli/pictures/2078_fw.png	224.51899123191833	1.0416090488433838
118	128.88232040405273	response	0	k		116.0	/experiments/Knapen_AOT/AOT_stimuli/pictures/2078_fw.png	225.5463593006134	
119	128.89656138420105	picture	0		106	117.0	/experiments/Knapen_AOT/AOT_stimuli/pictures/0357_fw.png	225.56060028076172	0.88893723487854
119	129.7740023136139	response	0	j		117.0	/experiments/Knapen_AOT/AOT_stimuli/pictures/0357_fw.png	226.43804121017456	
120	129.7854986190796	picture	0		99	118.0	/experiments/Knapen_AOT/AOT_stimuli/pictures/1973_fw.png	226.44953751564026	0.8263578414916992
120	130.59900307655334	response	0	j		118.0	/experiments/Knapen_AOT/AOT_stimuli/pictures/1973_fw.png	227.263041973114	
121	130.6118564605713	picture	0		89	119.0	/experiments/Knapen_AOT/AOT_stimuli/pictures/0909_fw.png	227.27589535713196	0.7500565052032471
121	131.34902381896973	response	0	j		119.0	/experiments/Knapen_AOT/AOT_stimuli/pictures/0909_fw.png	228.0130627155304	
122	131.36191296577454	picture	0		114	120.0	/experiments/Knapen_AOT/AOT_stimuli/pictures/0667_fw.png	228.0259518623352	0.9513459205627441
122	132.29903078079224	response	0	k		120.0	/experiments/Knapen_AOT/AOT_stimuli/pictures/0667_fw.png	228.9630696773529	
123	132.31325888633728	picture	0		121	121.0	/experiments/Knapen_AOT/AOT_stimuli/pictures/0970_fw.png	228.97729778289795	1.0139470100402832
123	133.31576704978943	response	0	k		121.0	/experiments/Knapen_AOT/AOT_stimuli/pictures/0970_fw.png	229.9798059463501	
124	133.32720589637756	picture	0		226	122.0	/experiments/Knapen_AOT/AOT_stimuli/pictures/1392_fw.png	229.99124479293823	1.88181734085083
124	135.1990442276001	response	0	k		122.0	/experiments/Knapen_AOT/AOT_stimuli/pictures/1392_fw.png	231.86308312416077	
125	135.2090232372284	picture	0		97	123.0	/experiments/Knapen_AOT/AOT_stimuli/pictures/1024_fw.png	231.87306213378906	0.8148634433746338
125	136.00747537612915	response	0	j		123.0	/experiments/Knapen_AOT/AOT_stimuli/pictures/1024_fw.png	232.67151427268982	
126	136.02388668060303	picture	0		113	124.0	/experiments/Knapen_AOT/AOT_stimuli/pictures/2175_fw.png	232.6879255771637	0.9499976634979248
126	136.95767855644226	response	0	k		124.0	/experiments/Knapen_AOT/AOT_stimuli/pictures/2175_fw.png	233.62171745300293	
127	136.97388434410095	picture	0		91	125.0	/experiments/Knapen_AOT/AOT_stimuli/pictures/1547_fw.png	233.63792324066162	0.7630627155303955
127	137.72406268119812	response	0	j		125.0	/experiments/Knapen_AOT/AOT_stimuli/pictures/1547_fw.png	234.3881015777588	
128	137.73694705963135	picture	0		108	126.0	/experiments/Knapen_AOT/AOT_stimuli/pictures/0405_fw.png	234.40098595619202	0.9096674919128418
128	138.63245368003845	response	0	k		126.0	/experiments/Knapen_AOT/AOT_stimuli/pictures/0405_fw.png	235.29649257659912	
129	138.6466145515442	picture	0		121	127.0	/experiments/Knapen_AOT/AOT_stimuli/pictures/1113_fw.png	235.31065344810486	1.0189642906188965
129	139.64911818504333	response	0	k		127.0	/experiments/Knapen_AOT/AOT_stimuli/pictures/1113_fw.png	236.313157081604	
130	139.6655788421631	picture	0		102	128.0	/experiments/Knapen_AOT/AOT_stimuli/pictures/1259_fw.png	236.32961773872375	0.8584010601043701
130	140.50089383125305	response	0	j		128.0	/experiments/Knapen_AOT/AOT_stimuli/pictures/1259_fw.png	237.16493272781372	
131	140.52397990226746	picture	0		168	129.0	/experiments/Knapen_AOT/AOT_stimuli/pictures/0726_fw.png	237.18801879882812	1.408308506011963
131	141.9160783290863	response	0	j		129.0	/experiments/Knapen_AOT/AOT_stimuli/pictures/0726_fw.png	238.58011722564697	
132	141.93228840827942	picture	0		107	130.0	/experiments/Knapen_AOT/AOT_stimuli/pictures/1982_fw.png	238.5963273048401	0.8999881744384766
132	142.81580901145935	response	0	k		130.0	/experiments/Knapen_AOT/AOT_stimuli/pictures/1982_fw.png	239.47984790802002	
133	142.8322765827179	picture	0		158	131.0	/experiments/Knapen_AOT/AOT_stimuli/pictures/1505_fw.png	239.49631547927856	1.3214111328125
133	144.1410117149353	response	0	k		131.0	/experiments/Knapen_AOT/AOT_stimuli/pictures/1505_fw.png	240.80505061149597	
134	144.1536877155304	picture	0		77	132.0	/experiments/Knapen_AOT/AOT_stimuli/pictures/2106_fw.png	240.81772661209106	0.6536190509796143
134	144.7908637523651	response	0	j		132.0	/experiments/Knapen_AOT/AOT_stimuli/pictures/2106_fw.png	241.45490264892578	
135	144.80730676651	picture	0		122	133.0	/experiments/Knapen_AOT/AOT_stimuli/pictures/1695_fw.png	241.47134566307068	1.0199179649353027
135	145.81591939926147	response	0	k		133.0	/experiments/Knapen_AOT/AOT_stimuli/pictures/1695_fw.png	242.47995829582214	
136	145.8272247314453	picture	0		155	134.0	/experiments/Knapen_AOT/AOT_stimuli/pictures/1089_fw.png	242.49126362800598	1.2968127727508545
136	147.10003304481506	response	0	k		134.0	/experiments/Knapen_AOT/AOT_stimuli/pictures/1089_fw.png	243.76407194137573	
137	147.12403750419617	picture	0		172	135.0	/experiments/Knapen_AOT/AOT_stimuli/pictures/1117_fw.png	243.78807640075684	1.4392313957214355
137	148.54922199249268	response	0	k		135.0	/experiments/Knapen_AOT/AOT_stimuli/pictures/1117_fw.png	245.21326088905334	
138	148.5632688999176	picture	0		106	136.0	/experiments/Knapen_AOT/AOT_stimuli/pictures/0857_fw.png	245.22730779647827	0.8941681385040283
138	149.44108819961548	response	0	j		136.0	/experiments/Knapen_AOT/AOT_stimuli/pictures/0857_fw.png	246.10512709617615	
139	149.45743703842163	picture	0		113	137.0	/experiments/Knapen_AOT/AOT_stimuli/pictures/1789_fw.png	246.1214759349823	0.9462134838104248
139	150.39091277122498	response	0	k		137.0	/experiments/Knapen_AOT/AOT_stimuli/pictures/1789_fw.png	247.05495166778564	
140	150.40365052223206	picture	0		155	138.0	/experiments/Knapen_AOT/AOT_stimuli/pictures/1550_fw.png	247.06768941879272	1.2916805744171143
140	151.68255853652954	response	0	k		138.0	/experiments/Knapen_AOT/AOT_stimuli/pictures/1550_fw.png	248.3465974330902	
141	151.69533109664917	picture	0		84	139.0	/experiments/Knapen_AOT/AOT_stimuli/pictures/2038_fw.png	248.35936999320984	0.845409631729126
141	152.52438950538635	response	0	k		139.0	/experiments/Knapen_AOT/AOT_stimuli/pictures/2038_fw.png	249.18842840194702	
142	152.5407407283783	picture	0		96	140.0	/experiments/Knapen_AOT/AOT_stimuli/pictures/1481_fw.png	249.20477962493896	0.8083577156066895
142	153.33275747299194	response	0	k		140.0	/experiments/Knapen_AOT/AOT_stimuli/pictures/1481_fw.png	249.9967963695526	
143	153.34909844398499	picture	0		117	141.0	/experiments/Knapen_AOT/AOT_stimuli/pictures/0142_fw.png	250.01313734054565	0.9833240509033203
143	154.31598591804504	response	0	k		141.0	/experiments/Knapen_AOT/AOT_stimuli/pictures/0142_fw.png	250.9800248146057	
144	154.3324224948883	picture	0		95	142.0	/experiments/Knapen_AOT/AOT_stimuli/pictures/1825_fw.png	250.99646139144897	0.80002760887146
144	155.11600852012634	response	0	k		142.0	/experiments/Knapen_AOT/AOT_stimuli/pictures/1825_fw.png	251.780047416687	
145	155.13245010375977	picture	0		132	143.0	/experiments/Knapen_AOT/AOT_stimuli/pictures/0176_fw.png	251.79648900032043	1.1045470237731934
145	156.22440695762634	response	0	k		143.0	/experiments/Knapen_AOT/AOT_stimuli/pictures/0176_fw.png	252.888445854187	
146	156.23699712753296	picture	0		104	144.0	/experiments/Knapen_AOT/AOT_stimuli/pictures/1269_fw.png	252.90103602409363	0.8680815696716309
146	157.0910758972168	response	0	j		144.0	/experiments/Knapen_AOT/AOT_stimuli/pictures/1269_fw.png	253.75511479377747	
147	157.1050786972046	picture	0		277	145.0	/experiments/Knapen_AOT/AOT_stimuli/pictures/0387_fw.png	253.76911759376526	2.3190863132476807
147	159.40769052505493	response	0	j		145.0	/experiments/Knapen_AOT/AOT_stimuli/pictures/0387_fw.png	256.0717294216156	
148	159.42416501045227	picture	0		150	146.0	/experiments/Knapen_AOT/AOT_stimuli/pictures/0196_fw.png	256.08820390701294	1.2503767013549805
148	160.66602420806885	response	0	k		146.0	/experiments/Knapen_AOT/AOT_stimuli/pictures/0196_fw.png	257.3300631046295	
149	160.67454171180725	picture	0		138	147.0	/experiments/Knapen_AOT/AOT_stimuli/pictures/0326_fw.png	257.3385806083679	1.152919054031372
149	161.81608414649963	response	0	j		147.0	/experiments/Knapen_AOT/AOT_stimuli/pictures/0326_fw.png	258.4801230430603	
150	161.82746076583862	picture	0		126	148.0	/experiments/Knapen_AOT/AOT_stimuli/pictures/0150_fw.png	258.4914996623993	1.0554044246673584
150	162.8661172389984	response	0	k		148.0	/experiments/Knapen_AOT/AOT_stimuli/pictures/0150_fw.png	259.5301561355591	
151	162.88286519050598	picture	0		112	149.0	/experiments/Knapen_AOT/AOT_stimuli/pictures/0779_fw.png	259.54690408706665	0.9413375854492188
151	163.80765771865845	response	0	k		149.0	/experiments/Knapen_AOT/AOT_stimuli/pictures/0779_fw.png	260.4716966152191	
152	163.8242027759552	picture	0		118	150.0	/experiments/Knapen_AOT/AOT_stimuli/pictures/0660_fw.png	260.48824167251587	0.9916667938232422
152	164.79943943023682	response	0	k		150.0	/experiments/Knapen_AOT/AOT_stimuli/pictures/0660_fw.png	261.4634783267975	
153	164.81586956977844	picture	0		133	151.0	/experiments/Knapen_AOT/AOT_stimuli/pictures/1555_fw.png	261.4799084663391	1.1086955070495605
153	165.9160521030426	response	0	j		151.0	/experiments/Knapen_AOT/AOT_stimuli/pictures/1555_fw.png	262.58009099960327	
154	165.924565076828	picture	0		107	152.0	/experiments/Knapen_AOT/AOT_stimuli/pictures/0682_fw.png	262.5886039733887	0.8960111141204834
154	166.80781078338623	response	0	k		152.0	/experiments/Knapen_AOT/AOT_stimuli/pictures/0682_fw.png	263.4718496799469	
155	166.8205761909485	picture	0		102	153.0	/experiments/Knapen_AOT/AOT_stimuli/pictures/0947_fw.png	263.48461508750916	0.8540141582489014
155	167.66608834266663	response	0	j		153.0	/experiments/Knapen_AOT/AOT_stimuli/pictures/0947_fw.png	264.3301272392273	
156	167.6745903491974	picture	0		100	154.0	/experiments/Knapen_AOT/AOT_stimuli/pictures/1611_fw.png	264.33862924575806	0.8333895206451416
156	168.49318838119507	response	0	k		154.0	/experiments/Knapen_AOT/AOT_stimuli/pictures/1611_fw.png	265.15722727775574	
157	168.50797986984253	picture	0		104	155.0	/experiments/Knapen_AOT/AOT_stimuli/pictures/0262_fw.png	265.1720187664032	0.8680262565612793
157	169.36616826057434	response	0	k		155.0	/experiments/Knapen_AOT/AOT_stimuli/pictures/0262_fw.png	266.030207157135	
158	169.3760061264038	picture	0		139	156.0	/experiments/Knapen_AOT/AOT_stimuli/pictures/1298_fw.png	266.0400450229645	1.1596906185150146
158	170.52448678016663	response	0	k		156.0	/experiments/Knapen_AOT/AOT_stimuli/pictures/1298_fw.png	267.1885256767273	
159	170.53569674491882	picture	0		96	157.0	/experiments/Knapen_AOT/AOT_stimuli/pictures/0665_fw.png	267.1997356414795	0.8052656650543213
159	171.32453632354736	response	0	j		157.0	/experiments/Knapen_AOT/AOT_stimuli/pictures/0665_fw.png	267.98857522010803	
160	171.34096240997314	picture	0		90	158.0	/experiments/Knapen_AOT/AOT_stimuli/pictures/1820_fw.png	268.0050013065338	0.750300407409668
160	172.08280563354492	response	0	j		158.0	/experiments/Knapen_AOT/AOT_stimuli/pictures/1820_fw.png	268.7468445301056	
161	172.0912628173828	picture	0		94	159.0	/experiments/Knapen_AOT/AOT_stimuli/pictures/1252_fw.png	268.7553017139435	0.7913789749145508
161	172.86620354652405	response	0	j		159.0	/experiments/Knapen_AOT/AOT_stimuli/pictures/1252_fw.png	269.5302424430847	
162	172.88264179229736	picture	0		106	160.0	/experiments/Knapen_AOT/AOT_stimuli/pictures/1565_fw.png	269.54668068885803	0.8916771411895752
162	173.75783157348633	response	0	j		160.0	/experiments/Knapen_AOT/AOT_stimuli/pictures/1565_fw.png	270.421870470047	
163	173.77431893348694	picture	0		149	161.0	/experiments/Knapen_AOT/AOT_stimuli/pictures/1171_fw.png	270.4383578300476	1.2475793361663818
163	175.0078580379486	response	0	k		161.0	/experiments/Knapen_AOT/AOT_stimuli/pictures/1171_fw.png	271.6718969345093	
164	175.02189826965332	picture	0		103	162.0	/experiments/Knapen_AOT/AOT_stimuli/pictures/0928_fw.png	271.685937166214	0.8610992431640625
164	175.87460899353027	response	0	k		162.0	/experiments/Knapen_AOT/AOT_stimuli/pictures/0928_fw.png	272.53864789009094	
165	175.88299751281738	picture	0		80	163.0	/experiments/Knapen_AOT/AOT_stimuli/pictures/0081_fw.png	272.54703640937805	0.6665999889373779
165	176.54126167297363	response	0	j		163.0	/experiments/Knapen_AOT/AOT_stimuli/pictures/0081_fw.png	273.2053005695343	
166	176.54959750175476	picture	0		127	164.0	/experiments/Knapen_AOT/AOT_stimuli/pictures/1474_fw.png	273.21363639831543	1.062549352645874
166	177.59951090812683	response	0	k		164.0	/experiments/Knapen_AOT/AOT_stimuli/pictures/1474_fw.png	274.2635498046875	
167	177.61214685440063	picture	0		228	165.0	/experiments/Knapen_AOT/AOT_stimuli/pictures/1470_fw.png	274.2761857509613	1.9039254188537598
167	179.50019216537476	response	0	j		165.0	/experiments/Knapen_AOT/AOT_stimuli/pictures/1470_fw.png	276.1642310619354	
168	179.5160722732544	picture	0		105	166.0	/experiments/Knapen_AOT/AOT_stimuli/pictures/0650_fw.png	276.18011116981506	0.8833518028259277
168	180.38312220573425	response	0	j		166.0	/experiments/Knapen_AOT/AOT_stimuli/pictures/0650_fw.png	277.0471611022949	
169	180.39942407608032	picture	0		115	167.0	/experiments/Knapen_AOT/AOT_stimuli/pictures/2033_fw.png	277.063462972641	0.9666407108306885
169	181.34957027435303	response	0	k		167.0	/experiments/Knapen_AOT/AOT_stimuli/pictures/2033_fw.png	278.0136091709137	
170	181.366064786911	picture	0		105	168.0	/experiments/Knapen_AOT/AOT_stimuli/pictures/1246_fw.png	278.0301036834717	0.8780374526977539
170	182.23293590545654	response	0	k		168.0	/experiments/Knapen_AOT/AOT_stimuli/pictures/1246_fw.png	278.8969748020172	
171	182.24410223960876	picture	0		195	169.0	/experiments/Knapen_AOT/AOT_stimuli/pictures/0769_fw.png	278.90814113616943	1.6249027252197266
171	183.8579318523407	response	0	k		169.0	/experiments/Knapen_AOT/AOT_stimuli/pictures/0769_fw.png	280.52197074890137	
172	183.8690049648285	picture	0		171	170.0	/experiments/Knapen_AOT/AOT_stimuli/pictures/2128_fw.png	280.53304386138916	1.4304523468017578
172	185.28296279907227	response	0	k		170.0	/experiments/Knapen_AOT/AOT_stimuli/pictures/2128_fw.png	281.94700169563293	
173	185.29945731163025	picture	0		105	171.0	/experiments/Knapen_AOT/AOT_stimuli/pictures/1585_fw.png	281.9634962081909	0.8833286762237549
173	186.1663157939911	response	0	j		171.0	/experiments/Knapen_AOT/AOT_stimuli/pictures/1585_fw.png	282.83035469055176	
174	186.182785987854	picture	0		105	172.0	/experiments/Knapen_AOT/AOT_stimuli/pictures/0948_fw.png	282.8468248844147	0.8833310604095459
174	187.04963660240173	response	0	k		172.0	/experiments/Knapen_AOT/AOT_stimuli/pictures/0948_fw.png	283.7136754989624	
175	187.06611704826355	picture	0		241	173.0	/experiments/Knapen_AOT/AOT_stimuli/pictures/2051_fw.png	283.7301559448242	2.0112621784210205
175	189.06633281707764	response	0	k		173.0	/experiments/Knapen_AOT/AOT_stimuli/pictures/2051_fw.png	285.7303717136383	
176	189.07737922668457	picture	0		124	174.0	/experiments/Knapen_AOT/AOT_stimuli/pictures/1689_fw.png	285.74141812324524	1.0387811660766602
176	190.09202694892883	response	0	k		174.0	/experiments/Knapen_AOT/AOT_stimuli/pictures/1689_fw.png	286.7560658454895	
177	190.11616039276123	picture	0		101	175.0	/experiments/Knapen_AOT/AOT_stimuli/pictures/0280_fw.png	286.7801992893219	0.8433089256286621
177	190.9498245716095	response	0	k		175.0	/experiments/Knapen_AOT/AOT_stimuli/pictures/0280_fw.png	287.61386346817017	
178	190.9594693183899	picture	0		114	176.0	/experiments/Knapen_AOT/AOT_stimuli/pictures/1107_fw.png	287.62350821495056	0.9514265060424805
178	191.89207792282104	response	0	j		176.0	/experiments/Knapen_AOT/AOT_stimuli/pictures/1107_fw.png	288.5561168193817	
179	191.91089582443237	picture	0		132	177.0	/experiments/Knapen_AOT/AOT_stimuli/pictures/0412_fw.png	288.57493472099304	1.0971531867980957
179	192.99968266487122	response	0	k		177.0	/experiments/Knapen_AOT/AOT_stimuli/pictures/0412_fw.png	289.6637215614319	
180	193.00804901123047	picture	0		98	178.0	/experiments/Knapen_AOT/AOT_stimuli/pictures/1343_fw.png	289.67208790779114	0.819434642791748
180	193.81640315055847	response	0	k		178.0	/experiments/Knapen_AOT/AOT_stimuli/pictures/1343_fw.png	290.48044204711914	
181	193.82748365402222	picture	0		94	179.0	/experiments/Knapen_AOT/AOT_stimuli/pictures/0884_fw.png	290.4915225505829	0.7847402095794678
181	194.5997281074524	response	0	j		179.0	/experiments/Knapen_AOT/AOT_stimuli/pictures/0884_fw.png	291.26376700401306	
182	194.61222386360168	picture	0		103	180.0	/experiments/Knapen_AOT/AOT_stimuli/pictures/1435_fw.png	291.27626276016235	0.8623812198638916
182	195.45808935165405	response	0	j		180.0	/experiments/Knapen_AOT/AOT_stimuli/pictures/1435_fw.png	292.1221282482147	
183	195.47460508346558	picture	0		96	181.0	/experiments/Knapen_AOT/AOT_stimuli/pictures/1638_fw.png	292.13864398002625	0.8082969188690186
183	196.26648879051208	response	0	k		181.0	/experiments/Knapen_AOT/AOT_stimuli/pictures/1638_fw.png	292.93052768707275	
184	196.2829020023346	picture	0		111	182.0	/experiments/Knapen_AOT/AOT_stimuli/pictures/1179_fw.png	292.94694089889526	0.9334380626678467
184	197.19979667663574	response	0	k		182.0	/experiments/Knapen_AOT/AOT_stimuli/pictures/1179_fw.png	293.8638355731964	
185	197.21634006500244	picture	0		114	183.0	/experiments/Knapen_AOT/AOT_stimuli/pictures/1074_fw.png	293.8803789615631	0.9514627456665039
185	198.15817141532898	response	0	j		183.0	/experiments/Knapen_AOT/AOT_stimuli/pictures/1074_fw.png	294.82221031188965	
186	198.16780281066895	picture	0		162	184.0	/experiments/Knapen_AOT/AOT_stimuli/pictures/1815_fw.png	294.8318417072296	1.354102611541748
186	199.50823092460632	response	0	j		184.0	/experiments/Knapen_AOT/AOT_stimuli/pictures/1815_fw.png	296.172269821167	
187	199.5219054222107	picture	0		126	185.0	/experiments/Knapen_AOT/AOT_stimuli/pictures/0503_fw.png	296.18594431877136	1.0610175132751465
187	200.56669759750366	response	0	k		185.0	/experiments/Knapen_AOT/AOT_stimuli/pictures/0503_fw.png	297.23073649406433	
188	200.58292293548584	picture	0		107	186.0	/experiments/Knapen_AOT/AOT_stimuli/pictures/0770_fw.png	297.2469618320465	0.8974514007568359
188	201.46648716926575	response	0	k		186.0	/experiments/Knapen_AOT/AOT_stimuli/pictures/0770_fw.png	298.1305260658264	
189	201.48037433624268	picture	0		126	187.0	/experiments/Knapen_AOT/AOT_stimuli/pictures/0806_fw.png	298.14441323280334	1.0609245300292969
189	202.52479791641235	response	0	j		187.0	/experiments/Knapen_AOT/AOT_stimuli/pictures/0806_fw.png	299.188836812973	
190	202.54129886627197	picture	0		122	188.0	/experiments/Knapen_AOT/AOT_stimuli/pictures/0028_fw.png	299.20533776283264	1.0223705768585205
190	203.54987978935242	response	0	j		188.0	/experiments/Knapen_AOT/AOT_stimuli/pictures/0028_fw.png	300.2139186859131	
191	203.5636694431305	picture	0		134	189.0	/experiments/Knapen_AOT/AOT_stimuli/pictures/0858_fw.png	300.22770833969116	1.1276724338531494
191	204.67489290237427	response	0	j		189.0	/experiments/Knapen_AOT/AOT_stimuli/pictures/0858_fw.png	301.33893179893494	
192	204.69134187698364	picture	0		110	190.0	/experiments/Knapen_AOT/AOT_stimuli/pictures/1882_fw.png	301.3553807735443	0.9250214099884033
192	205.60008835792542	response	0	k		190.0	/experiments/Knapen_AOT/AOT_stimuli/pictures/1882_fw.png	302.2641272544861	
193	205.61636328697205	picture	0		93	191.0	/experiments/Knapen_AOT/AOT_stimuli/pictures/0481_fw.png	302.2804021835327	0.7806611061096191
193	206.38324451446533	response	0	j		191.0	/experiments/Knapen_AOT/AOT_stimuli/pictures/0481_fw.png	303.047283411026	
194	206.39702439308167	picture	0		102	192.0	/experiments/Knapen_AOT/AOT_stimuli/pictures/1502_fw.png	303.06106328964233	0.8541879653930664
194	207.24155569076538	response	0	k		192.0	/experiments/Knapen_AOT/AOT_stimuli/pictures/1502_fw.png	303.90559458732605	
195	207.25121235847473	picture	0		109	193.0	/experiments/Knapen_AOT/AOT_stimuli/pictures/0466_fw.png	303.9152512550354	0.9151604175567627
195	208.14990830421448	response	0	k		193.0	/experiments/Knapen_AOT/AOT_stimuli/pictures/0466_fw.png	304.81394720077515	
196	208.1663727760315	picture	0		157	194.0	/experiments/Knapen_AOT/AOT_stimuli/pictures/1369_fw.png	304.83041167259216	1.3166799545288086
196	209.46667551994324	response	0	j		194.0	/experiments/Knapen_AOT/AOT_stimuli/pictures/1369_fw.png	306.1307144165039	
197	209.4830527305603	picture	0		97	195.0	/experiments/Knapen_AOT/AOT_stimuli/pictures/1370_fw.png	306.147091627121	0.8098528385162354
197	210.2833182811737	response	0	k		195.0	/experiments/Knapen_AOT/AOT_stimuli/pictures/1370_fw.png	306.9473571777344	
198	210.29290556907654	picture	0		125	196.0	/experiments/Knapen_AOT/AOT_stimuli/pictures/1445_fw.png	306.9569444656372	1.0485379695892334
198	211.32504177093506	response	0	j		196.0	/experiments/Knapen_AOT/AOT_stimuli/pictures/1445_fw.png	307.9890806674957	
199	211.34144353866577	picture	0		80	197.0	/experiments/Knapen_AOT/AOT_stimuli/pictures/2109_fw.png	308.00548243522644	0.6668856143951416
199	211.99994730949402	response	0	j		197.0	/experiments/Knapen_AOT/AOT_stimuli/pictures/2109_fw.png	308.6639862060547	
200	212.0083291530609	picture	0		126	198.0	/experiments/Knapen_AOT/AOT_stimuli/pictures/1670_fw.png	308.6723680496216	1.0554227828979492
200	213.05010676383972	response	0	k		198.0	/experiments/Knapen_AOT/AOT_stimuli/pictures/1670_fw.png	309.7141456604004	
201	213.06375193595886	picture	0		260	199.0	/experiments/Knapen_AOT/AOT_stimuli/pictures/1324_fw.png	309.72779083251953	2.1777467727661133
201	215.2249915599823	response	0	k		199.0	/experiments/Knapen_AOT/AOT_stimuli/pictures/1324_fw.png	311.88903045654297	
202	215.24149870872498	picture	0		124	200.0	/experiments/Knapen_AOT/AOT_stimuli/pictures/0169_fw.png	311.90553760528564	1.041670799255371
202	216.26668429374695	response	0	k		200.0	/experiments/Knapen_AOT/AOT_stimuli/pictures/0169_fw.png	312.9307231903076	
203	216.28316950798035	picture	0		103	201.0	/experiments/Knapen_AOT/AOT_stimuli/pictures/0421_fw.png	312.947208404541	0.8666760921478271
203	217.13363933563232	response	0	j		201.0	/experiments/Knapen_AOT/AOT_stimuli/pictures/0421_fw.png	313.797678232193	
204	217.14984560012817	picture	0		103	202.0	/experiments/Knapen_AOT/AOT_stimuli/pictures/1781_fw.png	313.81388449668884	0.8584821224212646
204	217.9999897480011	response	0	k		202.0	/experiments/Knapen_AOT/AOT_stimuli/pictures/1781_fw.png	314.66402864456177	
205	218.00832772254944	picture	0		83	203.0	/experiments/Knapen_AOT/AOT_stimuli/pictures/0699_fw.png	314.6723666191101	0.6943888664245605
205	218.68415546417236	response	0	k		203.0	/experiments/Knapen_AOT/AOT_stimuli/pictures/0699_fw.png	315.34819436073303	
206	218.702716588974	picture	0		135	204.0	/experiments/Knapen_AOT/AOT_stimuli/pictures/2116_fw.png	315.36675548553467	1.124997854232788
206	219.8167703151703	response	0	k		204.0	/experiments/Knapen_AOT/AOT_stimuli/pictures/2116_fw.png	316.48080921173096	
207	219.8277144432068	picture	0		138	205.0	/experiments/Knapen_AOT/AOT_stimuli/pictures/1610_fw.png	316.49175333976746	1.1527719497680664
207	220.96688199043274	response	0	k		205.0	/experiments/Knapen_AOT/AOT_stimuli/pictures/1610_fw.png	317.6309208869934	
208	220.98048639297485	picture	0		149	206.0	/experiments/Knapen_AOT/AOT_stimuli/pictures/1812_fw.png	317.6445252895355	1.2500452995300293
208	222.21685791015625	response	0	j		206.0	/experiments/Knapen_AOT/AOT_stimuli/pictures/1812_fw.png	318.8808968067169	
209	222.23053169250488	picture	0		89	207.0	/experiments/Knapen_AOT/AOT_stimuli/pictures/1033_fw.png	318.89457058906555	0.7499959468841553
209	222.9668562412262	response	0	k		207.0	/experiments/Knapen_AOT/AOT_stimuli/pictures/1033_fw.png	319.63089513778687	
210	222.98052763938904	picture	0		91	208.0	/experiments/Knapen_AOT/AOT_stimuli/pictures/1428_fw.png	319.6445665359497	0.7640292644500732
210	223.73346710205078	response	0	j		208.0	/experiments/Knapen_AOT/AOT_stimuli/pictures/1428_fw.png	320.39750599861145	
211	223.7445569038391	picture	0		114	209.0	/experiments/Knapen_AOT/AOT_stimuli/pictures/0201_fw.png	320.4085958003998	0.958226203918457
211	224.6841480731964	response	0	j		209.0	/experiments/Knapen_AOT/AOT_stimuli/pictures/0201_fw.png	321.3481869697571	
212	224.70278310775757	picture	0		97	210.0	/experiments/Knapen_AOT/AOT_stimuli/pictures/1848_fw.png	321.36682200431824	0.8055820465087891
212	225.50018906593323	response	0	k		210.0	/experiments/Knapen_AOT/AOT_stimuli/pictures/1848_fw.png	322.1642279624939	
213	225.50836515426636	picture	0		95	211.0	/experiments/Knapen_AOT/AOT_stimuli/pictures/1464_fw.png	322.172404050827	0.7999496459960938
213	226.2854301929474	response	0	j		211.0	/experiments/Knapen_AOT/AOT_stimuli/pictures/1464_fw.png	322.94946908950806	
214	226.30831480026245	picture	0		139	212.0	/experiments/Knapen_AOT/AOT_stimuli/pictures/1664_fw.png	322.9723536968231	1.158428430557251
214	227.45857286453247	response	0	j		212.0	/experiments/Knapen_AOT/AOT_stimuli/pictures/1664_fw.png	324.12261176109314	
215	227.4667432308197	picture	0		98	213.0	/experiments/Knapen_AOT/AOT_stimuli/pictures/0918_fw.png	324.13078212738037	0.824951171875
215	228.26798391342163	response	0	k		213.0	/experiments/Knapen_AOT/AOT_stimuli/pictures/0918_fw.png	324.9320228099823	
216	228.2916944026947	picture	0		105	214.0	/experiments/Knapen_AOT/AOT_stimuli/pictures/0054_fw.png	324.95573329925537	0.8763811588287354
216	229.15855312347412	response	0	k		214.0	/experiments/Knapen_AOT/AOT_stimuli/pictures/0054_fw.png	325.8225920200348	
217	229.16807556152344	picture	0		71	215.0	/experiments/Knapen_AOT/AOT_stimuli/pictures/2121_fw.png	325.8321144580841	0.5986237525939941
217	229.75020742416382	response	0	k		215.0	/experiments/Knapen_AOT/AOT_stimuli/pictures/2121_fw.png	326.4142463207245	
218	229.76669931411743	picture	0		114	216.0	/experiments/Knapen_AOT/AOT_stimuli/pictures/1804_fw.png	326.4307382106781	0.9583477973937988
218	230.70856761932373	response	0	j		216.0	/experiments/Knapen_AOT/AOT_stimuli/pictures/1804_fw.png	327.3726065158844	
219	230.72504711151123	picture	0		128	217.0	/experiments/Knapen_AOT/AOT_stimuli/pictures/0567_fw.png	327.3890860080719	1.0680580139160156
219	231.78363680839539	response	0	j		217.0	/experiments/Knapen_AOT/AOT_stimuli/pictures/0567_fw.png	328.44767570495605	
220	231.79310512542725	picture	0		100	218.0	/experiments/Knapen_AOT/AOT_stimuli/pictures/0060_fw.png	328.4571440219879	0.8403828144073486
220	232.6170072555542	response	0	k		218.0	/experiments/Knapen_AOT/AOT_stimuli/pictures/0060_fw.png	329.28104615211487	
221	232.6334879398346	picture	0		104	219.0	/experiments/Knapen_AOT/AOT_stimuli/pictures/2036_fw.png	329.29752683639526	0.8679885864257812
221	233.4920403957367	response	0	k		219.0	/experiments/Knapen_AOT/AOT_stimuli/pictures/2036_fw.png	330.15607929229736	
222	233.50147652626038	picture	0		102	220.0	/experiments/Knapen_AOT/AOT_stimuli/pictures/1548_fw.png	330.16551542282104	0.8541796207427979
222	234.34195113182068	response	0	j		220.0	/experiments/Knapen_AOT/AOT_stimuli/pictures/1548_fw.png	331.00599002838135	
223	234.35565614700317	picture	0		96	221.0	/experiments/Knapen_AOT/AOT_stimuli/pictures/0896_fw.png	331.01969504356384	0.8055424690246582
223	235.15028715133667	response	0	j		221.0	/experiments/Knapen_AOT/AOT_stimuli/pictures/0896_fw.png	331.81432604789734	
224	235.16119861602783	picture	0		100	222.0	/experiments/Knapen_AOT/AOT_stimuli/pictures/1192_fw.png	331.8252375125885	0.838930606842041
224	235.98367381095886	response	0	j		222.0	/experiments/Knapen_AOT/AOT_stimuli/pictures/1192_fw.png	332.64771270751953	
225	236.00012922286987	picture	0		281	223.0	/experiments/Knapen_AOT/AOT_stimuli/pictures/0291_fw.png	332.66416811943054	2.3500518798828125
225	238.3336992263794	response	0	j		223.0	/experiments/Knapen_AOT/AOT_stimuli/pictures/0291_fw.png	334.99773812294006	
226	238.35018110275269	picture	0		104	224.0	/experiments/Knapen_AOT/AOT_stimuli/pictures/1195_fw.png	335.01421999931335	0.8667066097259521
226	239.20869874954224	response	0	j		224.0	/experiments/Knapen_AOT/AOT_stimuli/pictures/1195_fw.png	335.8727376461029	
227	239.21688771247864	picture	0		97	225.0	/experiments/Knapen_AOT/AOT_stimuli/pictures/1448_fw.png	335.8809266090393	0.8166663646697998
227	240.0170328617096	response	0	j		225.0	/experiments/Knapen_AOT/AOT_stimuli/pictures/1448_fw.png	336.68107175827026	
228	240.03355407714844	picture	0		182	226.0	/experiments/Knapen_AOT/AOT_stimuli/pictures/0636_fw.png	336.6975929737091	1.5166332721710205
228	241.54208970069885	response	0	j		226.0	/experiments/Knapen_AOT/AOT_stimuli/pictures/0636_fw.png	338.2061285972595	
229	241.55018734931946	picture	0		84	227.0	/experiments/Knapen_AOT/AOT_stimuli/pictures/1692_fw.png	338.2142262458801	0.7083663940429688
229	242.24209713935852	response	0	k		227.0	/experiments/Knapen_AOT/AOT_stimuli/pictures/1692_fw.png	338.9061360359192	
230	242.25855374336243	picture	0		164	228.0	/experiments/Knapen_AOT/AOT_stimuli/pictures/1772_fw.png	338.9225926399231	1.3679065704345703
230	243.61709833145142	response	0	j		228.0	/experiments/Knapen_AOT/AOT_stimuli/pictures/1772_fw.png	340.2811372280121	
231	243.626460313797	picture	0		177	229.0	/experiments/Knapen_AOT/AOT_stimuli/pictures/1025_fw.png	340.29049921035767	1.4821436405181885
231	245.09224390983582	response	0	k		229.0	/experiments/Knapen_AOT/AOT_stimuli/pictures/1025_fw.png	341.7562828063965	
232	245.10860395431519	picture	0		121	230.0	/experiments/Knapen_AOT/AOT_stimuli/pictures/0916_fw.png	341.77264285087585	1.0110368728637695
232	246.10884165763855	response	0	j		230.0	/experiments/Knapen_AOT/AOT_stimuli/pictures/0916_fw.png	342.7728805541992	
233	246.11964082717896	picture	0		143	231.0	/experiments/Knapen_AOT/AOT_stimuli/pictures/1014_fw.png	342.7836797237396	1.197338342666626
233	247.3005132675171	response	0	j		231.0	/experiments/Knapen_AOT/AOT_stimuli/pictures/1014_fw.png	343.96455216407776	
234	247.31697916984558	picture	0		111	232.0	/experiments/Knapen_AOT/AOT_stimuli/pictures/0240_fw.png	343.98101806640625	0.9333267211914062
234	248.233824968338	response	0	j		232.0	/experiments/Knapen_AOT/AOT_stimuli/pictures/0240_fw.png	344.8978638648987	
235	248.250305891037	picture	0		88	233.0	/experiments/Knapen_AOT/AOT_stimuli/pictures/0216_fw.png	344.91434478759766	0.7374122142791748
235	248.97549033164978	response	0	j		233.0	/experiments/Knapen_AOT/AOT_stimuli/pictures/0216_fw.png	345.63952922821045	
236	248.98771810531616	picture	0		109	234.0	/experiments/Knapen_AOT/AOT_stimuli/pictures/2123_fw.png	345.65175700187683	0.9126098155975342
236	249.88428330421448	response	0	j		234.0	/experiments/Knapen_AOT/AOT_stimuli/pictures/2123_fw.png	346.54832220077515	
237	249.9003279209137	picture	0		97	235.0	/experiments/Knapen_AOT/AOT_stimuli/pictures/1394_fw.png	346.56436681747437	0.8096163272857666
237	250.7005684375763	response	0	j		235.0	/experiments/Knapen_AOT/AOT_stimuli/pictures/1394_fw.png	347.36460733413696	
238	250.70994424819946	picture	0		164	236.0	/experiments/Knapen_AOT/AOT_stimuli/pictures/0837_fw.png	347.37398314476013	1.3679609298706055
238	252.060631275177	response	0	k		236.0	/experiments/Knapen_AOT/AOT_stimuli/pictures/0837_fw.png	348.72467017173767	
239	252.07790517807007	picture	0		110	237.0	/experiments/Knapen_AOT/AOT_stimuli/pictures/1371_fw.png	348.74194407463074	0.9167799949645996
239	252.9838583469391	response	0	j		237.0	/experiments/Knapen_AOT/AOT_stimuli/pictures/1371_fw.png	349.64789724349976	
240	252.99468517303467	picture	0		116	238.0	/experiments/Knapen_AOT/AOT_stimuli/pictures/0543_fw.png	349.65872406959534	0.9652879238128662
240	253.95054697990417	response	0	k		238.0	/experiments/Knapen_AOT/AOT_stimuli/pictures/0543_fw.png	350.61458587646484	
241	253.95997309684753	picture	0		150	239.0	/experiments/Knapen_AOT/AOT_stimuli/pictures/1923_fw.png	350.6240119934082	1.2499947547912598
241	255.2005672454834	response	0	j		239.0	/experiments/Knapen_AOT/AOT_stimuli/pictures/1923_fw.png	351.86460614204407	
242	255.2099678516388	picture	0		156	240.0	/experiments/Knapen_AOT/AOT_stimuli/pictures/0269_fw.png	351.87400674819946	1.2987284660339355
242	256.50060510635376	response	0	k		240.0	/experiments/Knapen_AOT/AOT_stimuli/pictures/0269_fw.png	353.16464400291443	
243	256.50869631767273	picture	0		94	241.0	/experiments/Knapen_AOT/AOT_stimuli/pictures/0491_fw.png	353.1727352142334	0.7916984558105469
243	257.284081697464	response	0	k		241.0	/experiments/Knapen_AOT/AOT_stimuli/pictures/0491_fw.png	353.94812059402466	
244	257.3003947734833	picture	0		107	242.0	/experiments/Knapen_AOT/AOT_stimuli/pictures/1266_fw.png	353.96443367004395	0.8957254886627197
244	258.18392300605774	response	0	k		242.0	/experiments/Knapen_AOT/AOT_stimuli/pictures/1266_fw.png	354.8479619026184	
245	258.196120262146	picture	0		98	243.0	/experiments/Knapen_AOT/AOT_stimuli/pictures/0930_fw.png	354.86015915870667	0.8126022815704346
245	259.00059962272644	response	0	k		243.0	/experiments/Knapen_AOT/AOT_stimuli/pictures/0930_fw.png	355.6646385192871	
246	259.00872254371643	picture	0		162	244.0	/experiments/Knapen_AOT/AOT_stimuli/pictures/1400_fw.png	355.6727614402771	1.3584113121032715
246	260.3506233692169	response	0	k		244.0	/experiments/Knapen_AOT/AOT_stimuli/pictures/1400_fw.png	357.0146622657776	
247	260.3671338558197	picture	0		234	245.0	/experiments/Knapen_AOT/AOT_stimuli/pictures/0983_fw.png	357.03117275238037	1.9583344459533691
247	262.30900502204895	response	0	j		245.0	/experiments/Knapen_AOT/AOT_stimuli/pictures/0983_fw.png	358.9730439186096	
248	262.32546830177307	picture	0		100	246.0	/experiments/Knapen_AOT/AOT_stimuli/pictures/0275_fw.png	358.98950719833374	0.8361189365386963
248	263.1506609916687	response	0	k		246.0	/experiments/Knapen_AOT/AOT_stimuli/pictures/0275_fw.png	359.81469988822937	
249	263.16158723831177	picture	0		120	247.0	/experiments/Knapen_AOT/AOT_stimuli/pictures/1577_fw.png	359.82562613487244	1.0055663585662842
249	264.1506862640381	response	0	j		247.0	/experiments/Knapen_AOT/AOT_stimuli/pictures/1577_fw.png	360.81472516059875	
250	264.16715359687805	picture	0		188	248.0	/experiments/Knapen_AOT/AOT_stimuli/pictures/1144_fw.png	360.8311924934387	1.5705468654632568
250	265.7256898880005	response	0	k		248.0	/experiments/Knapen_AOT/AOT_stimuli/pictures/1144_fw.png	362.38972878456116	
251	265.7377004623413	picture	0		98	249.0	/experiments/Knapen_AOT/AOT_stimuli/pictures/0362_fw.png	362.401739358902	0.812774658203125
251	266.54236340522766	response	0	k		249.0	/experiments/Knapen_AOT/AOT_stimuli/pictures/0362_fw.png	363.20640230178833	
252	266.55047512054443	picture	0		109	250.0	/experiments/Knapen_AOT/AOT_stimuli/pictures/1528_fw.png	363.2145140171051	0.9167077541351318
252	267.4509437084198	response	0	j		250.0	/experiments/Knapen_AOT/AOT_stimuli/pictures/1528_fw.png	364.11498260498047	
253	267.46718287467957	picture	0		111	251.0	/experiments/Knapen_AOT/AOT_stimuli/pictures/0305_fw.png	364.13122177124023	0.9333505630493164
253	268.3840808868408	response	0	k		251.0	/experiments/Knapen_AOT/AOT_stimuli/pictures/0305_fw.png	365.0481197834015	
254	268.4005334377289	picture	0		74	252.0	/experiments/Knapen_AOT/AOT_stimuli/pictures/1166_fw.png	365.06457233428955	0.6249992847442627
254	269.009046792984	response	0	k		252.0	/experiments/Knapen_AOT/AOT_stimuli/pictures/1166_fw.png	365.6730856895447	
255	269.02553272247314	picture	0		104	253.0	/experiments/Knapen_AOT/AOT_stimuli/pictures/0393_fw.png	365.6895716190338	0.8720133304595947
255	269.8842589855194	response	0	j		253.0	/experiments/Knapen_AOT/AOT_stimuli/pictures/0393_fw.png	366.5482978820801	
256	269.89754605293274	picture	0		116	254.0	/experiments/Knapen_AOT/AOT_stimuli/pictures/1121_fw.png	366.5615849494934	0.9780144691467285
256	270.8591694831848	response	0	k		254.0	/experiments/Knapen_AOT/AOT_stimuli/pictures/1121_fw.png	367.5232083797455	
257	270.87556052207947	picture	0		96	255.0	/experiments/Knapen_AOT/AOT_stimuli/pictures/0670_fw.png	367.53959941864014	0.7999823093414307
257	271.66032671928406	response	0	k		255.0	/experiments/Knapen_AOT/AOT_stimuli/pictures/0670_fw.png	368.3243656158447	
258	271.6755428314209	picture	0		97	256.0	/experiments/Knapen_AOT/AOT_stimuli/pictures/1914_fw.png	368.33958172798157	0.8167016506195068
258	272.46816658973694	response	0	j		256.0	/experiments/Knapen_AOT/AOT_stimuli/pictures/1914_fw.png	369.1322054862976	
259	272.4922444820404	picture	0		134	257.0	/experiments/Knapen_AOT/AOT_stimuli/pictures/1012_fw.png	369.1562833786011	1.1206188201904297
259	273.60078620910645	response	0	j		257.0	/experiments/Knapen_AOT/AOT_stimuli/pictures/1012_fw.png	370.2648251056671	
260	273.61286330223083	picture	0		126	258.0	/experiments/Knapen_AOT/AOT_stimuli/pictures/0410_fw.png	370.2769021987915	1.0487055778503418
260	274.65078473091125	response	0	k		258.0	/experiments/Knapen_AOT/AOT_stimuli/pictures/0410_fw.png	371.3148236274719	
261	274.6615688800812	picture	0		115	259.0	/experiments/Knapen_AOT/AOT_stimuli/pictures/0963_fw.png	371.32560777664185	0.9640545845031738
261	275.6091513633728	response	0	k		259.0	/experiments/Knapen_AOT/AOT_stimuli/pictures/0963_fw.png	372.2731902599335	
262	275.62562346458435	picture	0		119	260.0	/experiments/Knapen_AOT/AOT_stimuli/pictures/1399_fw.png	372.289662361145	1.0000340938568115
262	276.60915184020996	response	0	k		260.0	/experiments/Knapen_AOT/AOT_stimuli/pictures/1399_fw.png	373.27319073677063	
263	276.62565755844116	picture	0		130	261.0	/experiments/Knapen_AOT/AOT_stimuli/pictures/0834_fw.png	373.28969645500183	1.0916399955749512
263	277.70088601112366	response	0	j		261.0	/experiments/Knapen_AOT/AOT_stimuli/pictures/0834_fw.png	374.3649249076843	
264	277.7172975540161	picture	0		103	262.0	/experiments/Knapen_AOT/AOT_stimuli/pictures/0597_fw.png	374.3813364505768	0.8667154312133789
264	278.56759238243103	response	0	k		262.0	/experiments/Knapen_AOT/AOT_stimuli/pictures/0597_fw.png	375.2316312789917	
265	278.5840129852295	picture	0		126	263.0	/experiments/Knapen_AOT/AOT_stimuli/pictures/0775_fw.png	375.24805188179016	1.058321237564087
265	279.62588763237	response	0	j		263.0	/experiments/Knapen_AOT/AOT_stimuli/pictures/0775_fw.png	376.28992652893066	
266	279.6423342227936	picture	0		100	264.0	/experiments/Knapen_AOT/AOT_stimuli/pictures/1063_fw.png	376.30637311935425	0.8417549133300781
266	280.4675135612488	response	0	k		264.0	/experiments/Knapen_AOT/AOT_stimuli/pictures/1063_fw.png	377.13155245780945	
267	280.48408913612366	picture	0		143	265.0	/experiments/Knapen_AOT/AOT_stimuli/pictures/1352_fw.png	377.1481280326843	1.1915853023529053
267	281.66002368927	response	0	k		265.0	/experiments/Knapen_AOT/AOT_stimuli/pictures/1352_fw.png	378.3240625858307	
268	281.67567443847656	picture	0		93	266.0	/experiments/Knapen_AOT/AOT_stimuli/pictures/0687_fw.png	378.33971333503723	0.7833647727966309
268	282.44256114959717	response	0	j		266.0	/experiments/Knapen_AOT/AOT_stimuli/pictures/0687_fw.png	379.10660004615784	
269	282.4590392112732	picture	0		95	267.0	/experiments/Knapen_AOT/AOT_stimuli/pictures/2100_fw.png	379.12307810783386	0.7999842166900635
269	283.2426359653473	response	0	k		267.0	/experiments/Knapen_AOT/AOT_stimuli/pictures/2100_fw.png	379.90667486190796	
270	283.25902342796326	picture	0		94	268.0	/experiments/Knapen_AOT/AOT_stimuli/pictures/0540_fw.png	379.9230623245239	0.7916839122772217
270	284.0343270301819	response	0	k		268.0	/experiments/Knapen_AOT/AOT_stimuli/pictures/0540_fw.png	380.69836592674255	
271	284.0507073402405	picture	0		136	269.0	/experiments/Knapen_AOT/AOT_stimuli/pictures/0767_fw.png	380.71474623680115	1.141690969467163
271	285.17594861984253	response	0	j		269.0	/experiments/Knapen_AOT/AOT_stimuli/pictures/0767_fw.png	381.8399875164032	
272	285.19239830970764	picture	0		96	270.0	/experiments/Knapen_AOT/AOT_stimuli/pictures/0534_fw.png	381.8564372062683	0.808387279510498
272	285.9846439361572	response	0	k		270.0	/experiments/Knapen_AOT/AOT_stimuli/pictures/0534_fw.png	382.6486828327179	
273	286.00078558921814	picture	0		122	271.0	/experiments/Knapen_AOT/AOT_stimuli/pictures/1641_fw.png	382.6648244857788	1.025026559829712
273	287.00931882858276	response	0	k		271.0	/experiments/Knapen_AOT/AOT_stimuli/pictures/1641_fw.png	383.67335772514343	
274	287.02581214904785	picture	0		91	272.0	/experiments/Knapen_AOT/AOT_stimuli/pictures/0482_fw.png	383.6898510456085	0.7607822418212891
274	287.775954246521	response	0	j		272.0	/experiments/Knapen_AOT/AOT_stimuli/pictures/0482_fw.png	384.43999314308167	
275	287.78659439086914	picture	0		103	273.0	/experiments/Knapen_AOT/AOT_stimuli/pictures/0444_fw.png	384.4506332874298	0.8611252307891846
275	288.6342737674713	response	0	k		273.0	/experiments/Knapen_AOT/AOT_stimuli/pictures/0444_fw.png	385.298312664032	
276	288.6477196216583	picture	0		137	274.0	/experiments/Knapen_AOT/AOT_stimuli/pictures/1933_fw.png	385.311758518219	1.1530580520629883
276	289.7843687534332	response	0	j		274.0	/experiments/Knapen_AOT/AOT_stimuli/pictures/1933_fw.png	386.4484076499939	
277	289.8007776737213	picture	0		113	275.0	/experiments/Knapen_AOT/AOT_stimuli/pictures/1706_fw.png	386.464816570282	0.9500162601470947
277	290.73444533348083	response	0	k		275.0	/experiments/Knapen_AOT/AOT_stimuli/pictures/1706_fw.png	387.3984842300415	
278	290.7507939338684	picture	0		219	276.0	/experiments/Knapen_AOT/AOT_stimuli/pictures/0629_fw.png	387.4148328304291	1.8334035873413086
278	292.56767177581787	response	0	k		276.0	/experiments/Knapen_AOT/AOT_stimuli/pictures/0629_fw.png	389.23171067237854	
279	292.5841975212097	picture	0		96	277.0	/experiments/Knapen_AOT/AOT_stimuli/pictures/1379_fw.png	389.2482364177704	0.7999420166015625
279	293.37602138519287	response	0	k		277.0	/experiments/Knapen_AOT/AOT_stimuli/pictures/1379_fw.png	390.04006028175354	
280	293.3841395378113	picture	0		108	278.0	/experiments/Knapen_AOT/AOT_stimuli/pictures/1753_fw.png	390.04817843437195	0.9025142192840576
280	294.26861548423767	response	0	k		278.0	/experiments/Knapen_AOT/AOT_stimuli/pictures/1753_fw.png	390.93265438079834	
281	294.28665375709534	picture	0		135	279.0	/experiments/Knapen_AOT/AOT_stimuli/pictures/1707_fw.png	390.950692653656	1.1308650970458984
281	295.4011797904968	response	0	j		279.0	/experiments/Knapen_AOT/AOT_stimuli/pictures/1707_fw.png	392.0652186870575	
282	295.41751885414124	picture	0		238	280.0	/experiments/Knapen_AOT/AOT_stimuli/pictures/0025_fw.png	392.0815577507019	1.9870810508728027
282	297.3927481174469	response	0	j		280.0	/experiments/Knapen_AOT/AOT_stimuli/pictures/0025_fw.png	394.05678701400757	
283	297.40459990501404	picture	0		186	281.0	/experiments/Knapen_AOT/AOT_stimuli/pictures/1836_fw.png	394.0686388015747	1.5547785758972168
283	298.9427590370178	response	0	k		281.0	/experiments/Knapen_AOT/AOT_stimuli/pictures/1836_fw.png	395.6067979335785	
284	298.95937848091125	picture	0		107	282.0	/experiments/Knapen_AOT/AOT_stimuli/pictures/1975_fw.png	395.6234173774719	0.8998699188232422
284	299.8427665233612	response	0	k		282.0	/experiments/Knapen_AOT/AOT_stimuli/pictures/1975_fw.png	396.5068054199219	
285	299.8592483997345	picture	0		23	283.0	/experiments/Knapen_AOT/AOT_stimuli/pictures/0991_fw.png	396.52328729629517	0.20000863075256348
285	300.0364375114441	response	0	k		283.0	/experiments/Knapen_AOT/AOT_stimuli/pictures/0991_fw.png	396.70047640800476	
286	300.05925703048706	picture	0		278	284.0	/experiments/Knapen_AOT/AOT_stimuli/pictures/0166_fw.png	396.72329592704773	2.3250234127044678
286	302.3678228855133	response	0	k		284.0	/experiments/Knapen_AOT/AOT_stimuli/pictures/0166_fw.png	399.031861782074	
287	302.3842804431915	picture	0		92	285.0	/experiments/Knapen_AOT/AOT_stimuli/pictures/0813_fw.png	399.0483193397522	0.7704427242279053
287	303.14283204078674	response	0	k		285.0	/experiments/Knapen_AOT/AOT_stimuli/pictures/0813_fw.png	399.8068709373474	
288	303.15472316741943	picture	0		115	286.0	/experiments/Knapen_AOT/AOT_stimuli/pictures/0935_fw.png	399.8187620639801	0.9583351612091064
288	304.10116052627563	response	0	j		286.0	/experiments/Knapen_AOT/AOT_stimuli/pictures/0935_fw.png	400.7651994228363	
289	304.11305832862854	picture	0		90	287.0	/experiments/Knapen_AOT/AOT_stimuli/pictures/1714_fw.png	400.7770972251892	0.7546617984771729
289	304.8511788845062	response	0	j		287.0	/experiments/Knapen_AOT/AOT_stimuli/pictures/1714_fw.png	401.5152177810669	
290	304.8677201271057	picture	0		103	288.0	/experiments/Knapen_AOT/AOT_stimuli/pictures/1039_fw.png	401.5317590236664	0.8666250705718994
290	305.7178192138672	response	0	j		288.0	/experiments/Knapen_AOT/AOT_stimuli/pictures/1039_fw.png	402.38185811042786	
291	305.7343451976776	picture	0		118	289.0	/experiments/Knapen_AOT/AOT_stimuli/pictures/1739_fw.png	402.3983840942383	0.9916620254516602
291	306.7095730304718	response	0	k		289.0	/experiments/Knapen_AOT/AOT_stimuli/pictures/1739_fw.png	403.37361192703247	
292	306.7260072231293	picture	0		91	290.0	/experiments/Knapen_AOT/AOT_stimuli/pictures/2113_fw.png	403.39004611968994	0.762108325958252
292	307.46902990341187	response	0	j		290.0	/experiments/Knapen_AOT/AOT_stimuli/pictures/2113_fw.png	404.13306879997253	
293	307.4881155490875	picture	0		109	291.0	/experiments/Knapen_AOT/AOT_stimuli/pictures/0951_fw.png	404.1521544456482	0.9129385948181152
293	308.3845314979553	response	0	k		291.0	/experiments/Knapen_AOT/AOT_stimuli/pictures/0951_fw.png	405.048570394516	
294	308.40105414390564	picture	0		105	292.0	/experiments/Knapen_AOT/AOT_stimuli/pictures/1597_fw.png	405.0650930404663	0.8787193298339844
294	309.26032733917236	response	0	k		292.0	/experiments/Knapen_AOT/AOT_stimuli/pictures/1597_fw.png	405.92436623573303	
295	309.2797734737396	picture	0		83	293.0	/experiments/Knapen_AOT/AOT_stimuli/pictures/0173_fw.png	405.9438123703003	0.6962845325469971
295	309.95965099334717	response	0	j		293.0	/experiments/Knapen_AOT/AOT_stimuli/pictures/0173_fw.png	406.62368988990784	
296	309.9760580062866	picture	0		244	294.0	/experiments/Knapen_AOT/AOT_stimuli/pictures/1989_fw.png	406.6400969028473	2.0416932106018066
296	312.0012710094452	response	0	k		294.0	/experiments/Knapen_AOT/AOT_stimuli/pictures/1989_fw.png	408.66530990600586	
297	312.0177512168884	picture	0		127	295.0	/experiments/Knapen_AOT/AOT_stimuli/pictures/1432_fw.png	408.6817901134491	1.066666841506958
297	313.06053948402405	response	0	k		295.0	/experiments/Knapen_AOT/AOT_stimuli/pictures/1432_fw.png	409.7245783805847	
298	313.0844180583954	picture	0		128	296.0	/experiments/Knapen_AOT/AOT_stimuli/pictures/0945_fw.png	409.74845695495605	1.0704193115234375
298	314.14297008514404	response	0	k		296.0	/experiments/Knapen_AOT/AOT_stimuli/pictures/0945_fw.png	410.8070089817047	
299	314.1548373699188	picture	0		113	297.0	/experiments/Knapen_AOT/AOT_stimuli/pictures/0199_fw.png	410.8188762664795	0.9462642669677734
299	315.08463501930237	response	0	j		297.0	/experiments/Knapen_AOT/AOT_stimuli/pictures/0199_fw.png	411.74867391586304	
300	315.1011016368866	picture	0		86	298.0	/experiments/Knapen_AOT/AOT_stimuli/pictures/0605_fw.png	411.76514053344727	0.7250239849090576
300	315.80968141555786	response	0	k		298.0	/experiments/Knapen_AOT/AOT_stimuli/pictures/0605_fw.png	412.47372031211853	
301	315.82612562179565	picture	0		118	299.0	/experiments/Knapen_AOT/AOT_stimuli/pictures/0967_fw.png	412.4901645183563	0.9916698932647705
301	316.8012888431549	response	0	j		299.0	/experiments/Knapen_AOT/AOT_stimuli/pictures/0967_fw.png	413.4653277397156	
302	316.8177955150604	picture	0		90	300.0	/experiments/Knapen_AOT/AOT_stimuli/pictures/2101_fw.png	413.4818344116211	0.7537224292755127
302	317.5596480369568	response	0	j		300.0	/experiments/Knapen_AOT/AOT_stimuli/pictures/2101_fw.png	414.22368693351746	
303	317.57151794433594	picture	0		104	301.0	/experiments/Knapen_AOT/AOT_stimuli/pictures/0560_fw.png	414.2355568408966	0.8713202476501465
303	318.42639994621277	response	0	k		301.0	/experiments/Knapen_AOT/AOT_stimuli/pictures/0560_fw.png	415.09043884277344	
304	318.4428381919861	picture	0		185	302.0	/experiments/Knapen_AOT/AOT_stimuli/pictures/1775_fw.png	415.10687708854675	1.545257568359375
304	319.9763388633728	response	0	j		302.0	/experiments/Knapen_AOT/AOT_stimuli/pictures/1775_fw.png	416.6403777599335	
305	319.98809576034546	picture	0		99	303.0	/experiments/Knapen_AOT/AOT_stimuli/pictures/0224_fw.png	416.6521346569061	0.8297722339630127
305	320.80135846138	response	0	k		303.0	/experiments/Knapen_AOT/AOT_stimuli/pictures/0224_fw.png	417.4653973579407	
306	320.8178679943085	picture	0		116	304.0	/experiments/Knapen_AOT/AOT_stimuli/pictures/1675_fw.png	417.48190689086914	0.9690020084381104
306	321.77638959884644	response	0	k		304.0	/experiments/Knapen_AOT/AOT_stimuli/pictures/1675_fw.png	418.4404284954071	
307	321.7868700027466	picture	0		170	305.0	/experiments/Knapen_AOT/AOT_stimuli/pictures/1364_fw.png	418.45090889930725	1.4165303707122803
307	323.1930420398712	response	0	k		305.0	/experiments/Knapen_AOT/AOT_stimuli/pictures/1364_fw.png	419.8570809364319	
308	323.20340037345886	picture	0		174	306.0	/experiments/Knapen_AOT/AOT_stimuli/pictures/0995_fw.png	419.86743927001953	1.4561691284179688
308	324.6430881023407	response	0	k		306.0	/experiments/Knapen_AOT/AOT_stimuli/pictures/0995_fw.png	421.30712699890137	
309	324.65956950187683	picture	0		101	307.0	/experiments/Knapen_AOT/AOT_stimuli/pictures/0878_fw.png	421.3236083984375	0.8499901294708252
309	325.49313616752625	response	0	j		307.0	/experiments/Knapen_AOT/AOT_stimuli/pictures/0878_fw.png	422.1571750640869	
310	325.50955963134766	picture	0		100	308.0	/experiments/Knapen_AOT/AOT_stimuli/pictures/0566_fw.png	422.1735985279083	0.8417348861694336
310	326.3347718715668	response	0	k		308.0	/experiments/Knapen_AOT/AOT_stimuli/pictures/0566_fw.png	422.99881076812744	
311	326.3512945175171	picture	0		104	309.0	/experiments/Knapen_AOT/AOT_stimuli/pictures/2179_fw.png	423.01533341407776	0.8749842643737793
311	327.20983624458313	response	0	k		309.0	/experiments/Knapen_AOT/AOT_stimuli/pictures/2179_fw.png	423.8738751411438	
312	327.22627878189087	picture	0		97	310.0	/experiments/Knapen_AOT/AOT_stimuli/pictures/0614_fw.png	423.89031767845154	0.8166699409484863
312	328.02651834487915	response	0	k		310.0	/experiments/Knapen_AOT/AOT_stimuli/pictures/0614_fw.png	424.6905572414398	
313	328.04294872283936	picture	0		99	311.0	/experiments/Knapen_AOT/AOT_stimuli/pictures/1712_fw.png	424.7069876194	0.8333709239959717
313	328.8523259162903	response	0	j		311.0	/experiments/Knapen_AOT/AOT_stimuli/pictures/1712_fw.png	425.51636481285095	
314	328.8763196468353	picture	0		92	312.0	/experiments/Knapen_AOT/AOT_stimuli/pictures/1035_fw.png	425.540358543396	0.7750236988067627
314	329.6347873210907	response	0	k		312.0	/experiments/Knapen_AOT/AOT_stimuli/pictures/1035_fw.png	426.29882621765137	
315	329.6513433456421	picture	0		92	313.0	/experiments/Knapen_AOT/AOT_stimuli/pictures/0413_fw.png	426.31538224220276	0.7749485969543457
315	330.4098334312439	response	0	k		313.0	/experiments/Knapen_AOT/AOT_stimuli/pictures/0413_fw.png	427.07387232780457	
316	330.42629194259644	picture	0		149	314.0	/experiments/Knapen_AOT/AOT_stimuli/pictures/1013_fw.png	427.0903308391571	1.2425258159637451
316	331.6522343158722	response	0	k		314.0	/experiments/Knapen_AOT/AOT_stimuli/pictures/1013_fw.png	428.31627321243286	
317	331.6688177585602	picture	0		110	315.0	/experiments/Knapen_AOT/AOT_stimuli/pictures/0184_fw.png	428.33285665512085	0.9242472648620605
317	332.5765073299408	response	0	j		315.0	/experiments/Knapen_AOT/AOT_stimuli/pictures/0184_fw.png	429.24054622650146	
318	332.59306502342224	picture	0		120	316.0	/experiments/Knapen_AOT/AOT_stimuli/pictures/1702_fw.png	429.2571039199829	1.0063526630401611
318	333.5848882198334	response	0	j		316.0	/experiments/Knapen_AOT/AOT_stimuli/pictures/1702_fw.png	430.24892711639404	
319	333.5994176864624	picture	0		98	317.0	/experiments/Knapen_AOT/AOT_stimuli/pictures/0982_fw.png	430.26345658302307	0.8269102573394775
319	334.40986609458923	response	0	k		317.0	/experiments/Knapen_AOT/AOT_stimuli/pictures/0982_fw.png	431.0739049911499	
320	334.4263279438019	picture	0		104	318.0	/experiments/Knapen_AOT/AOT_stimuli/pictures/1271_fw.png	431.09036684036255	0.8675191402435303
320	335.28487849235535	response	0	k		318.0	/experiments/Knapen_AOT/AOT_stimuli/pictures/1271_fw.png	431.948917388916	
321	335.2938470840454	picture	0		94	319.0	/experiments/Knapen_AOT/AOT_stimuli/pictures/0573_fw.png	431.9578859806061	0.790860652923584
321	336.0682764053345	response	0	k		319.0	/experiments/Knapen_AOT/AOT_stimuli/pictures/0573_fw.png	432.73231530189514	
322	336.084707736969	picture	0		101	320.0	/experiments/Knapen_AOT/AOT_stimuli/pictures/1866_fw.png	432.74874663352966	0.8499963283538818
322	336.91909289360046	response	0	k		320.0	/experiments/Knapen_AOT/AOT_stimuli/pictures/1866_fw.png	433.58313179016113	
323	336.9347040653229	picture	0		137	321.0	/experiments/Knapen_AOT/AOT_stimuli/pictures/1920_fw.png	433.59874296188354	1.150033950805664
323	338.06825160980225	response	0	k		321.0	/experiments/Knapen_AOT/AOT_stimuli/pictures/1920_fw.png	434.7322905063629	
324	338.08473801612854	picture	0		117	322.0	/experiments/Knapen_AOT/AOT_stimuli/pictures/1332_fw.png	434.7487769126892	0.9833555221557617
324	339.0444366931915	response	0	k		322.0	/experiments/Knapen_AOT/AOT_stimuli/pictures/1332_fw.png	435.7084755897522	
325	339.0680935382843	picture	0		101	323.0	/experiments/Knapen_AOT/AOT_stimuli/pictures/1362_fw.png	435.73213243484497	0.8500211238861084
325	339.9017479419708	response	0	k		323.0	/experiments/Knapen_AOT/AOT_stimuli/pictures/1362_fw.png	436.5657868385315	
326	339.9181146621704	picture	0		101	324.0	/experiments/Knapen_AOT/AOT_stimuli/pictures/1595_fw.png	436.5821535587311	0.8499658107757568
326	340.751615524292	response	0	j		324.0	/experiments/Knapen_AOT/AOT_stimuli/pictures/1595_fw.png	437.41565442085266	
327	340.76808047294617	picture	0		108	325.0	/experiments/Knapen_AOT/AOT_stimuli/pictures/1172_fw.png	437.43211936950684	0.908332109451294
327	341.66036438941956	response	0	k		325.0	/experiments/Knapen_AOT/AOT_stimuli/pictures/1172_fw.png	438.3244032859802	
328	341.67641258239746	picture	0		95	326.0	/experiments/Knapen_AOT/AOT_stimuli/pictures/2102_fw.png	438.34045147895813	0.8000855445861816
328	342.45257353782654	response	0	k		326.0	/experiments/Knapen_AOT/AOT_stimuli/pictures/2102_fw.png	439.1166124343872	
329	342.47649812698364	picture	0		85	327.0	/experiments/Knapen_AOT/AOT_stimuli/pictures/1101_fw.png	439.1405370235443	0.7166094779968262
329	343.1766119003296	response	0	k		327.0	/experiments/Knapen_AOT/AOT_stimuli/pictures/1101_fw.png	439.84065079689026	
330	343.19310760498047	picture	0		92	328.0	/experiments/Knapen_AOT/AOT_stimuli/pictures/0138_fw.png	439.85714650154114	0.7750003337860107
330	343.9516808986664	response	0	k		328.0	/experiments/Knapen_AOT/AOT_stimuli/pictures/0138_fw.png	440.61571979522705	
331	343.9681079387665	picture	0		114	329.0	/experiments/Knapen_AOT/AOT_stimuli/pictures/0271_fw.png	440.63214683532715	0.9507994651794434
331	344.9099774360657	response	0	k		329.0	/experiments/Knapen_AOT/AOT_stimuli/pictures/0271_fw.png	441.57401633262634	
332	344.9189074039459	picture	0		156	330.0	/experiments/Knapen_AOT/AOT_stimuli/pictures/0197_fw.png	441.5829463005066	1.307596206665039
332	346.2100660800934	response	0	k		330.0	/experiments/Knapen_AOT/AOT_stimuli/pictures/0197_fw.png	442.87410497665405	
333	346.22650361061096	picture	0		83	331.0	/experiments/Knapen_AOT/AOT_stimuli/pictures/1137_fw.png	442.89054250717163	0.6999955177307129
333	346.91004705429077	response	0	k		331.0	/experiments/Knapen_AOT/AOT_stimuli/pictures/1137_fw.png	443.57408595085144	
334	346.9264991283417	picture	0		105	332.0	/experiments/Knapen_AOT/AOT_stimuli/pictures/0848_fw.png	443.59053802490234	0.8833327293395996
334	347.7933602333069	response	0	k		332.0	/experiments/Knapen_AOT/AOT_stimuli/pictures/0848_fw.png	444.45739912986755	
335	347.8098318576813	picture	0		84	333.0	/experiments/Knapen_AOT/AOT_stimuli/pictures/2067_fw.png	444.47387075424194	0.7083439826965332
335	348.501708984375	response	0	k		333.0	/experiments/Knapen_AOT/AOT_stimuli/pictures/2067_fw.png	445.16574788093567	
336	348.5181758403778	picture	0		127	334.0	/experiments/Knapen_AOT/AOT_stimuli/pictures/0116_fw.png	445.1822147369385	1.06048583984375
336	349.56837248802185	response	0	k		334.0	/experiments/Knapen_AOT/AOT_stimuli/pictures/0116_fw.png	446.2324113845825	
337	349.57866168022156	picture	0		107	335.0	/experiments/Knapen_AOT/AOT_stimuli/pictures/1458_fw.png	446.2427005767822	0.8978779315948486
337	350.4602551460266	response	0	j		335.0	/experiments/Knapen_AOT/AOT_stimuli/pictures/1458_fw.png	447.1242940425873	
338	350.4765396118164	picture	0		94	336.0	/experiments/Knapen_AOT/AOT_stimuli/pictures/0397_fw.png	447.1405785083771	0.791703462600708
338	351.24454641342163	response	0	k		336.0	/experiments/Knapen_AOT/AOT_stimuli/pictures/0397_fw.png	447.9085853099823	
339	351.2682430744171	picture	0		108	337.0	/experiments/Knapen_AOT/AOT_stimuli/pictures/0332_fw.png	447.9322819709778	0.9006896018981934
339	352.16004371643066	response	0	k		337.0	/experiments/Knapen_AOT/AOT_stimuli/pictures/0332_fw.png	448.82408261299133	
340	352.1689326763153	picture	0		172	338.0	/experiments/Knapen_AOT/AOT_stimuli/pictures/0577_fw.png	448.832971572876	1.441002607345581
340	353.5934326648712	response	0	j		338.0	/experiments/Knapen_AOT/AOT_stimuli/pictures/0577_fw.png	450.2574715614319	
341	353.6099352836609	picture	0		88	339.0	/experiments/Knapen_AOT/AOT_stimuli/pictures/1904_fw.png	450.27397418022156	0.7534942626953125
341	354.3351402282715	response	0	k		339.0	/experiments/Knapen_AOT/AOT_stimuli/pictures/1904_fw.png	450.99917912483215	
342	354.3634295463562	picture	0		103	340.0	/experiments/Knapen_AOT/AOT_stimuli/pictures/1226_fw.png	451.02746844291687	0.8611190319061279
342	355.2101056575775	response	0	k		340.0	/experiments/Knapen_AOT/AOT_stimuli/pictures/1226_fw.png	451.8741445541382	
343	355.22454857826233	picture	0		189	341.0	/experiments/Knapen_AOT/AOT_stimuli/pictures/0961_fw.png	451.888587474823	1.5854237079620361
343	356.79410219192505	response	0	k		341.0	/experiments/Knapen_AOT/AOT_stimuli/pictures/0961_fw.png	453.4581410884857	
344	356.80997228622437	picture	0		100	342.0	/experiments/Knapen_AOT/AOT_stimuli/pictures/0917_fw.png	453.47401118278503	0.8416869640350342
344	357.63513231277466	response	0	k		342.0	/experiments/Knapen_AOT/AOT_stimuli/pictures/0917_fw.png	454.2991712093353	
345	357.6516592502594	picture	0		133	343.0	/experiments/Knapen_AOT/AOT_stimuli/pictures/2094_fw.png	454.31569814682007	1.1166372299194336
345	358.7518229484558	response	0	k		343.0	/experiments/Knapen_AOT/AOT_stimuli/pictures/2094_fw.png	455.4158618450165	
346	358.76829648017883	picture	0		168	344.0	/experiments/Knapen_AOT/AOT_stimuli/pictures/0386_fw.png	455.4323353767395	1.4083750247955322
346	360.1601941585541	response	0	k		344.0	/experiments/Knapen_AOT/AOT_stimuli/pictures/0386_fw.png	456.82423305511475	
347	360.17667150497437	picture	0		110	345.0	/experiments/Knapen_AOT/AOT_stimuli/pictures/0137_fw.png	456.84071040153503	0.9249989986419678
347	361.0852289199829	response	0	k		345.0	/experiments/Knapen_AOT/AOT_stimuli/pictures/0137_fw.png	457.7492678165436	
348	361.10167050361633	picture	0		228	346.0	/experiments/Knapen_AOT/AOT_stimuli/pictures/1291_fw.png	457.765709400177	1.908348798751831
348	362.99355840682983	response	0	k		346.0	/experiments/Knapen_AOT/AOT_stimuli/pictures/1291_fw.png	459.6575973033905	
349	363.01001930236816	picture	0		228	347.0	/experiments/Knapen_AOT/AOT_stimuli/pictures/0897_fw.png	459.67405819892883	1.9083797931671143
349	364.90188455581665	response	0	k		347.0	/experiments/Knapen_AOT/AOT_stimuli/pictures/0897_fw.png	461.5659234523773	
350	364.9183990955353	picture	0		120	348.0	/experiments/Knapen_AOT/AOT_stimuli/pictures/0925_fw.png	461.58243799209595	1.0083279609680176
350	365.9102306365967	response	0	j		348.0	/experiments/Knapen_AOT/AOT_stimuli/pictures/0925_fw.png	462.57426953315735	
351	365.9267270565033	picture	0		104	349.0	/experiments/Knapen_AOT/AOT_stimuli/pictures/1360_fw.png	462.59076595306396	0.8833582401275635
351	366.7852518558502	response	0	k		349.0	/experiments/Knapen_AOT/AOT_stimuli/pictures/1360_fw.png	463.4492907524109	
352	366.81008529663086	picture	0		92	350.0	/experiments/Knapen_AOT/AOT_stimuli/pictures/1667_fw.png	463.4741241931915	0.7750005722045898
352	367.56858229637146	response	0	j		350.0	/experiments/Knapen_AOT/AOT_stimuli/pictures/1667_fw.png	464.23262119293213	
353	367.58508586883545	picture	0		103	351.0	/experiments/Knapen_AOT/AOT_stimuli/pictures/1093_fw.png	464.2491247653961	0.8618335723876953
353	368.4294729232788	response	0	k		351.0	/experiments/Knapen_AOT/AOT_stimuli/pictures/1093_fw.png	465.0935118198395	
354	368.44691944122314	picture	0		113	352.0	/experiments/Knapen_AOT/AOT_stimuli/pictures/0075_fw.png	465.1109583377838	0.9465491771697998
354	369.37760043144226	response	0	k		352.0	/experiments/Knapen_AOT/AOT_stimuli/pictures/0075_fw.png	466.04163932800293	
355	369.39346861839294	picture	0		105	353.0	/experiments/Knapen_AOT/AOT_stimuli/pictures/0590_fw.png	466.0575075149536	0.8833155632019043
355	370.25421118736267	response	0	j		353.0	/experiments/Knapen_AOT/AOT_stimuli/pictures/0590_fw.png	466.91825008392334	
356	370.27678418159485	picture	0		101	354.0	/experiments/Knapen_AOT/AOT_stimuli/pictures/1589_fw.png	466.9408230781555	0.8500244617462158
356	371.11038088798523	response	0	j		354.0	/experiments/Knapen_AOT/AOT_stimuli/pictures/1589_fw.png	467.7744197845459	
357	371.12680864334106	picture	0		283	355.0	/experiments/Knapen_AOT/AOT_stimuli/pictures/1236_fw.png	467.79084753990173	2.366722583770752
357	373.47704458236694	response	0	j		355.0	/experiments/Knapen_AOT/AOT_stimuli/pictures/1236_fw.png	470.1410834789276	
358	373.4935312271118	picture	0		113	356.0	/experiments/Knapen_AOT/AOT_stimuli/pictures/1615_fw.png	470.1575701236725	0.9500176906585693
358	374.42723870277405	response	0	k		356.0	/experiments/Knapen_AOT/AOT_stimuli/pictures/1615_fw.png	471.0912775993347	
359	374.4435489177704	picture	0		87	357.0	/experiments/Knapen_AOT/AOT_stimuli/pictures/1609_fw.png	471.10758781433105	0.7332618236541748
359	375.1603899002075	response	0	k		357.0	/experiments/Knapen_AOT/AOT_stimuli/pictures/1609_fw.png	471.8244287967682	
360	375.17681074142456	picture	0		370	358.0	/experiments/Knapen_AOT/AOT_stimuli/pictures/0307_fw.png	471.84084963798523	3.091722011566162
360	378.2524220943451	response	0	k		358.0	/experiments/Knapen_AOT/AOT_stimuli/pictures/0307_fw.png	474.91646099090576	
361	378.2685327529907	picture	0		182	359.0	/experiments/Knapen_AOT/AOT_stimuli/pictures/0456_fw.png	474.9325716495514	1.5250217914581299
361	379.77705574035645	response	0	k		359.0	/experiments/Knapen_AOT/AOT_stimuli/pictures/0456_fw.png	476.4410946369171	
362	379.79355454444885	stim	0		756			476.4575934410095	6.321451902389526
362	386.09529972076416	response	0	space				482.75933861732483	
