trial_nr	onset	event_type	phase	response	nr_frames	picture_index	picture_file	onset_abs	duration
0	0.1709437370300293	stim	0		623			58.17780804634094	5.204046964645386
0	5.3586955070495605	response	0	space				63.365559816360474	
2	5.374990701675415	picture	0		153	0.0	/experiments/Knapen_AOT/AOT_stimuli/pictures/1133_fw.png	63.38185501098633	1.3042728900909424
2	6.639794826507568	response	0	k		0.0	/experiments/Knapen_AOT/AOT_stimuli/pictures/1133_fw.png	64.64665913581848	
3	6.679263591766357	picture	0		112	1.0	/experiments/Knapen_AOT/AOT_stimuli/pictures/0526_fw.png	64.68612790107727	0.9431180953979492
3	7.608536958694458	response	0	j		1.0	/experiments/Knapen_AOT/AOT_stimuli/pictures/0526_fw.png	65.61540126800537	
4	7.622381687164307	picture	0		142	2.0	/experiments/Knapen_AOT/AOT_stimuli/pictures/0602_fw.png	65.62924599647522	1.1874792575836182
4	8.800263166427612	response	0	j		2.0	/experiments/Knapen_AOT/AOT_stimuli/pictures/0602_fw.png	66.80712747573853	
5	8.809860944747925	picture	0		150	3.0	/experiments/Knapen_AOT/AOT_stimuli/pictures/1953_fw.png	66.81672525405884	1.2569026947021484
5	10.050410032272339	response	0	k		3.0	/experiments/Knapen_AOT/AOT_stimuli/pictures/1953_fw.png	68.05727434158325	
6	10.066763639450073	picture	0		102	4.0	/experiments/Knapen_AOT/AOT_stimuli/pictures/1115_fw.png	68.07362794876099	0.8583681583404541
6	10.908787488937378	response	0	k		4.0	/experiments/Knapen_AOT/AOT_stimuli/pictures/1115_fw.png	68.91565179824829	
7	10.925131797790527	picture	0		90	5.0	/experiments/Knapen_AOT/AOT_stimuli/pictures/2115_fw.png	68.93199610710144	0.7582788467407227
7	11.66700553894043	response	0	k		5.0	/experiments/Knapen_AOT/AOT_stimuli/pictures/2115_fw.png	69.67386984825134	
8	11.68341064453125	picture	0		73	6.0	/experiments/Knapen_AOT/AOT_stimuli/pictures/1508_fw.png	69.69027495384216	0.6126322746276855
8	12.283666610717773	response	0	j		6.0	/experiments/Knapen_AOT/AOT_stimuli/pictures/1508_fw.png	70.29053092002869	
9	12.296042919158936	picture	0		102	7.0	/experiments/Knapen_AOT/AOT_stimuli/pictures/1105_fw.png	70.30290722846985	0.8542423248291016
9	13.142019271850586	response	0	j		7.0	/experiments/Knapen_AOT/AOT_stimuli/pictures/1105_fw.png	71.1488835811615	
10	13.150285243988037	picture	0		107	8.0	/experiments/Knapen_AOT/AOT_stimuli/pictures/1844_fw.png	71.15714955329895	0.8998479843139648
10	14.03391695022583	response	0	k		8.0	/experiments/Knapen_AOT/AOT_stimuli/pictures/1844_fw.png	72.04078125953674	
11	14.050133228302002	picture	0		81	9.0	/experiments/Knapen_AOT/AOT_stimuli/pictures/1901_fw.png	72.05699753761292	0.6764459609985352
11	14.716962337493896	response	0	j		9.0	/experiments/Knapen_AOT/AOT_stimuli/pictures/1901_fw.png	72.72382664680481	
12	14.726579189300537	picture	0		135	10.0	/experiments/Knapen_AOT/AOT_stimuli/pictures/0064_fw.png	72.73344349861145	1.132089614868164
12	15.842244863510132	response	0	j		10.0	/experiments/Knapen_AOT/AOT_stimuli/pictures/0064_fw.png	73.84910917282104	
13	15.858668804168701	picture	0		116	11.0	/experiments/Knapen_AOT/AOT_stimuli/pictures/0012_fw.png	73.86553311347961	0.972139835357666
13	16.81718945503235	response	0	k		11.0	/experiments/Knapen_AOT/AOT_stimuli/pictures/0012_fw.png	74.82405376434326	
14	16.830808639526367	picture	0		78	12.0	/experiments/Knapen_AOT/AOT_stimuli/pictures/2085_fw.png	74.83767294883728	0.6527450084686279
14	17.475396394729614	response	0	j		12.0	/experiments/Knapen_AOT/AOT_stimuli/pictures/2085_fw.png	75.48226070404053	
15	17.483553647994995	picture	0		144	13.0	/experiments/Knapen_AOT/AOT_stimuli/pictures/1173_fw.png	75.49041795730591	1.2013757228851318
15	18.675407886505127	response	0	j		13.0	/experiments/Knapen_AOT/AOT_stimuli/pictures/1173_fw.png	76.68227219581604	
16	18.684929370880127	picture	0		103	14.0	/experiments/Knapen_AOT/AOT_stimuli/pictures/0417_fw.png	76.69179368019104	0.8611431121826172
16	19.533719062805176	response	0	k		14.0	/experiments/Knapen_AOT/AOT_stimuli/pictures/0417_fw.png	77.54058337211609	
17	19.546072483062744	picture	0		77	15.0	/experiments/Knapen_AOT/AOT_stimuli/pictures/0971_fw.png	77.55293679237366	0.6458690166473389
17	20.17548704147339	response	0	j		15.0	/experiments/Knapen_AOT/AOT_stimuli/pictures/0971_fw.png	78.1823513507843	
18	20.191941499710083	picture	0		79	16.0	/experiments/Knapen_AOT/AOT_stimuli/pictures/0835_fw.png	78.198805809021	0.6597039699554443
18	20.84216856956482	response	0	j		16.0	/experiments/Knapen_AOT/AOT_stimuli/pictures/0835_fw.png	78.84903287887573	
19	20.851645469665527	picture	0		110	17.0	/experiments/Knapen_AOT/AOT_stimuli/pictures/1425_fw.png	78.85850977897644	0.9166603088378906
19	21.758767127990723	response	0	k		17.0	/experiments/Knapen_AOT/AOT_stimuli/pictures/1425_fw.png	79.76563143730164	
20	21.768305778503418	picture	0		100	18.0	/experiments/Knapen_AOT/AOT_stimuli/pictures/1738_fw.png	79.77517008781433	0.8333456516265869
20	22.59208035469055	response	0	j		18.0	/experiments/Knapen_AOT/AOT_stimuli/pictures/1738_fw.png	80.59894466400146	
21	22.601651430130005	picture	0		95	19.0	/experiments/Knapen_AOT/AOT_stimuli/pictures/1495_fw.png	80.60851573944092	0.7987444400787354
21	23.383766889572144	response	0	k		19.0	/experiments/Knapen_AOT/AOT_stimuli/pictures/1495_fw.png	81.39063119888306	
22	23.40039587020874	picture	0		97	20.0	/experiments/Knapen_AOT/AOT_stimuli/pictures/1326_fw.png	81.40726017951965	0.8165409564971924
22	24.20041847229004	response	0	k		20.0	/experiments/Knapen_AOT/AOT_stimuli/pictures/1326_fw.png	82.20728278160095	
23	24.216936826705933	picture	0		74	21.0	/experiments/Knapen_AOT/AOT_stimuli/pictures/1673_fw.png	82.22380113601685	0.620849609375
23	24.817867755889893	response	0	j		21.0	/experiments/Knapen_AOT/AOT_stimuli/pictures/1673_fw.png	82.8247320652008	
24	24.837786436080933	picture	0		73	22.0	/experiments/Knapen_AOT/AOT_stimuli/pictures/0286_fw.png	82.84465074539185	0.6042258739471436
24	25.433928728103638	response	0	j		22.0	/experiments/Knapen_AOT/AOT_stimuli/pictures/0286_fw.png	83.44079303741455	
25	25.442012310028076	picture	0		96	23.0	/experiments/Knapen_AOT/AOT_stimuli/pictures/0233_fw.png	83.44887661933899	0.8056154251098633
25	26.22614598274231	response	0	k		23.0	/experiments/Knapen_AOT/AOT_stimuli/pictures/0233_fw.png	84.23301029205322	
26	26.24762773513794	picture	0		70	24.0	/experiments/Knapen_AOT/AOT_stimuli/pictures/0967_fw.png	84.25449204444885	0.590134859085083
26	26.818158626556396	response	0	j		24.0	/experiments/Knapen_AOT/AOT_stimuli/pictures/0967_fw.png	84.82502293586731	
27	26.837762594223022	picture	0		79	25.0	/experiments/Knapen_AOT/AOT_stimuli/pictures/0891_fw.png	84.84462690353394	0.6625216007232666
27	27.4838809967041	response	0	j		25.0	/experiments/Knapen_AOT/AOT_stimuli/pictures/0891_fw.png	85.49074530601501	
28	27.50028419494629	picture	0		100	26.0	/experiments/Knapen_AOT/AOT_stimuli/pictures/1523_fw.png	85.5071485042572	0.8375644683837891
28	28.32549214363098	response	0	j		26.0	/experiments/Knapen_AOT/AOT_stimuli/pictures/1523_fw.png	86.3323564529419	
29	28.337848663330078	picture	0		174	27.0	/experiments/Knapen_AOT/AOT_stimuli/pictures/1375_fw.png	86.34471297264099	1.4541258811950684
29	29.775481462478638	response	0	k		27.0	/experiments/Knapen_AOT/AOT_stimuli/pictures/1375_fw.png	87.78234577178955	
30	29.791974544525146	picture	0		138	28.0	/experiments/Knapen_AOT/AOT_stimuli/pictures/0212_fw.png	87.79883885383606	1.1500513553619385
30	30.933891773223877	response	0	k		28.0	/experiments/Knapen_AOT/AOT_stimuli/pictures/0212_fw.png	88.94075608253479	
31	30.942025899887085	picture	0		106	29.0	/experiments/Knapen_AOT/AOT_stimuli/pictures/1627_fw.png	88.948890209198	0.8916525840759277
31	31.817277193069458	response	0	k		29.0	/experiments/Knapen_AOT/AOT_stimuli/pictures/1627_fw.png	89.82414150238037	
32	31.833678483963013	picture	0		187	30.0	/experiments/Knapen_AOT/AOT_stimuli/pictures/1336_fw.png	89.84054279327393	1.5666847229003906
32	33.38385987281799	response	0	k		30.0	/experiments/Knapen_AOT/AOT_stimuli/pictures/1336_fw.png	91.3907241821289	
33	33.4003632068634	picture	0		83	31.0	/experiments/Knapen_AOT/AOT_stimuli/pictures/1096_fw.png	91.40722751617432	0.6945528984069824
33	34.083882570266724	response	0	j		31.0	/experiments/Knapen_AOT/AOT_stimuli/pictures/1096_fw.png	92.09074687957764	
34	34.094916105270386	picture	0		114	32.0	/experiments/Knapen_AOT/AOT_stimuli/pictures/1209_fw.png	92.1017804145813	0.9554605484008789
34	35.034207582473755	response	0	j		32.0	/experiments/Knapen_AOT/AOT_stimuli/pictures/1209_fw.png	93.04107189178467	
35	35.050376653671265	picture	0		80	33.0	/experiments/Knapen_AOT/AOT_stimuli/pictures/0127_fw.png	93.05724096298218	0.6694302558898926
35	35.70893859863281	response	0	j		33.0	/experiments/Knapen_AOT/AOT_stimuli/pictures/0127_fw.png	93.71580290794373	
36	35.71980690956116	picture	0		101	34.0	/experiments/Knapen_AOT/AOT_stimuli/pictures/1108_fw.png	93.72667121887207	0.8472979068756104
36	36.55069613456726	response	0	k		34.0	/experiments/Knapen_AOT/AOT_stimuli/pictures/1108_fw.png	94.55756044387817	
37	36.56710481643677	picture	0		115	35.0	/experiments/Knapen_AOT/AOT_stimuli/pictures/1101_fw.png	94.57396912574768	0.9666550159454346
37	37.51730251312256	response	0	k		35.0	/experiments/Knapen_AOT/AOT_stimuli/pictures/1101_fw.png	95.52416682243347	
38	37.5337598323822	picture	0		95	36.0	/experiments/Knapen_AOT/AOT_stimuli/pictures/0384_fw.png	95.54062414169312	0.7971696853637695
38	38.31732773780823	response	0	k		36.0	/experiments/Knapen_AOT/AOT_stimuli/pictures/0384_fw.png	96.32419204711914	
39	38.33092951774597	picture	0		76	37.0	/experiments/Knapen_AOT/AOT_stimuli/pictures/0542_fw.png	96.33779382705688	0.6389062404632568
39	38.958972215652466	response	0	j		37.0	/experiments/Knapen_AOT/AOT_stimuli/pictures/0542_fw.png	96.96583652496338	
40	38.96983575820923	picture	0		128	38.0	/experiments/Knapen_AOT/AOT_stimuli/pictures/1927_fw.png	96.97670006752014	1.0722882747650146
40	40.02609872817993	response	0	j		38.0	/experiments/Knapen_AOT/AOT_stimuli/pictures/1927_fw.png	98.03296303749084	
41	40.04212403297424	picture	0		80	39.0	/experiments/Knapen_AOT/AOT_stimuli/pictures/0303_fw.png	98.04898834228516	0.6707868576049805
41	40.700655937194824	response	0	j		39.0	/experiments/Knapen_AOT/AOT_stimuli/pictures/0303_fw.png	98.70752024650574	
42	40.712910890579224	picture	0		102	40.0	/experiments/Knapen_AOT/AOT_stimuli/pictures/0290_fw.png	98.71977519989014	0.8542230129241943
42	41.55072355270386	response	0	k		40.0	/experiments/Knapen_AOT/AOT_stimuli/pictures/0290_fw.png	99.55758786201477	
43	41.56713390350342	picture	0		93	41.0	/experiments/Knapen_AOT/AOT_stimuli/pictures/0162_fw.png	99.57399821281433	0.7833452224731445
43	42.333985567092896	response	0	k		41.0	/experiments/Knapen_AOT/AOT_stimuli/pictures/0162_fw.png	100.34084987640381	
44	42.35047912597656	picture	0		91	42.0	/experiments/Knapen_AOT/AOT_stimuli/pictures/0687_fw.png	100.35734343528748	0.7666976451873779
44	43.1006875038147	response	0	k		42.0	/experiments/Knapen_AOT/AOT_stimuli/pictures/0687_fw.png	101.10755181312561	
45	43.11717677116394	picture	0		83	43.0	/experiments/Knapen_AOT/AOT_stimuli/pictures/1339_fw.png	101.12404108047485	0.6929664611816406
45	43.800718545913696	response	0	j		43.0	/experiments/Knapen_AOT/AOT_stimuli/pictures/1339_fw.png	101.80758285522461	
46	43.81014323234558	picture	0		147	44.0	/experiments/Knapen_AOT/AOT_stimuli/pictures/0251_fw.png	101.8170075416565	1.2291903495788574
46	45.01824164390564	response	0	k		44.0	/experiments/Knapen_AOT/AOT_stimuli/pictures/0251_fw.png	103.02510595321655	
47	45.03933358192444	picture	0		74	45.0	/experiments/Knapen_AOT/AOT_stimuli/pictures/0271_fw.png	103.04619789123535	0.6249394416809082
47	45.65069222450256	response	0	j		45.0	/experiments/Knapen_AOT/AOT_stimuli/pictures/0271_fw.png	103.65755653381348	
48	45.66427302360535	picture	0		92	46.0	/experiments/Knapen_AOT/AOT_stimuli/pictures/0054_fw.png	103.67113733291626	0.7710044384002686
48	46.42593455314636	response	0	j		46.0	/experiments/Knapen_AOT/AOT_stimuli/pictures/0054_fw.png	104.43279886245728	
49	46.435277462005615	picture	0		222	47.0	/experiments/Knapen_AOT/AOT_stimuli/pictures/1500_fw.png	104.44214177131653	1.8569316864013672
49	48.275768756866455	response	0	k		47.0	/experiments/Knapen_AOT/AOT_stimuli/pictures/1500_fw.png	106.28263306617737	
50	48.29220914840698	picture	0		90	48.0	/experiments/Knapen_AOT/AOT_stimuli/pictures/1094_fw.png	106.2990734577179	0.7540802955627441
50	49.03408741950989	response	0	j		48.0	/experiments/Knapen_AOT/AOT_stimuli/pictures/1094_fw.png	107.0409517288208	
51	49.04628944396973	picture	0		115	49.0	/experiments/Knapen_AOT/AOT_stimuli/pictures/1912_fw.png	107.05315375328064	0.9583461284637451
51	49.99241542816162	response	0	j		49.0	/experiments/Knapen_AOT/AOT_stimuli/pictures/1912_fw.png	107.99927973747253	
52	50.00463557243347	picture	0		107	50.0	/experiments/Knapen_AOT/AOT_stimuli/pictures/0649_fw.png	108.01149988174438	0.8888657093048096
52	50.88410043716431	response	0	k		50.0	/experiments/Knapen_AOT/AOT_stimuli/pictures/0649_fw.png	108.89096474647522	
53	50.89350128173828	picture	0		130	51.0	/experiments/Knapen_AOT/AOT_stimuli/pictures/1412_fw.png	108.9003655910492	1.0833568572998047
53	51.96750259399414	response	0	k		51.0	/experiments/Knapen_AOT/AOT_stimuli/pictures/1412_fw.png	109.97436690330505	
54	51.976858139038086	picture	0		81	52.0	/experiments/Knapen_AOT/AOT_stimuli/pictures/0682_fw.png	109.983722448349	0.673708438873291
54	52.642459869384766	response	0	j		52.0	/experiments/Knapen_AOT/AOT_stimuli/pictures/0682_fw.png	110.64932417869568	
55	52.65056657791138	picture	0		87	53.0	/experiments/Knapen_AOT/AOT_stimuli/pictures/1200_fw.png	110.65743088722229	0.7333972454071045
55	53.36744976043701	response	0	k		53.0	/experiments/Knapen_AOT/AOT_stimuli/pictures/1200_fw.png	111.37431406974792	
56	53.38396382331848	picture	0		94	54.0	/experiments/Knapen_AOT/AOT_stimuli/pictures/0982_fw.png	111.3908281326294	0.7873613834381104
56	54.15916466712952	response	0	j		54.0	/experiments/Knapen_AOT/AOT_stimuli/pictures/0982_fw.png	112.16602897644043	
57	54.17132520675659	picture	0		95	55.0	/experiments/Knapen_AOT/AOT_stimuli/pictures/0397_fw.png	112.1781895160675	0.7916891574859619
57	54.95080637931824	response	0	k		55.0	/experiments/Knapen_AOT/AOT_stimuli/pictures/0397_fw.png	112.95767068862915	
58	54.963014364242554	picture	0		96	56.0	/experiments/Knapen_AOT/AOT_stimuli/pictures/1347_fw.png	112.96987867355347	0.7985975742340088
58	55.751142263412476	response	0	j		56.0	/experiments/Knapen_AOT/AOT_stimuli/pictures/1347_fw.png	113.75800657272339	
59	55.76161193847656	picture	0		76	57.0	/experiments/Knapen_AOT/AOT_stimuli/pictures/0179_fw.png	113.76847624778748	0.6390457153320312
59	56.38431930541992	response	0	j		57.0	/experiments/Knapen_AOT/AOT_stimuli/pictures/0179_fw.png	114.39118361473083	
60	56.400657653808594	picture	0		77	58.0	/experiments/Knapen_AOT/AOT_stimuli/pictures/1047_fw.png	114.4075219631195	0.6456952095031738
60	57.03419351577759	response	0	j		58.0	/experiments/Knapen_AOT/AOT_stimuli/pictures/1047_fw.png	115.0410578250885	
61	57.04635286331177	picture	0		72	59.0	/experiments/Knapen_AOT/AOT_stimuli/pictures/1904_fw.png	115.05321717262268	0.6045353412628174
61	57.63421154022217	response	0	j		59.0	/experiments/Knapen_AOT/AOT_stimuli/pictures/1904_fw.png	115.64107584953308	
62	57.650888204574585	picture	0		133	60.0	/experiments/Knapen_AOT/AOT_stimuli/pictures/0268_fw.png	115.6577525138855	1.1164507865905762
62	58.75084614753723	response	0	j		60.0	/experiments/Knapen_AOT/AOT_stimuli/pictures/0268_fw.png	116.75771045684814	
63	58.76733899116516	picture	0		154	61.0	/experiments/Knapen_AOT/AOT_stimuli/pictures/1784_fw.png	116.77420330047607	1.28592848777771
63	60.04255652427673	response	0	j		61.0	/experiments/Knapen_AOT/AOT_stimuli/pictures/1784_fw.png	118.04942083358765	
64	60.05326747894287	picture	0		113	62.0	/experiments/Knapen_AOT/AOT_stimuli/pictures/0618_fw.png	118.06013178825378	0.947451114654541
64	60.98444676399231	response	0	k		62.0	/experiments/Knapen_AOT/AOT_stimuli/pictures/0618_fw.png	118.99131107330322	
65	61.00071859359741	picture	0		77	63.0	/experiments/Knapen_AOT/AOT_stimuli/pictures/0216_fw.png	119.00758290290833	0.6428797245025635
65	61.63431668281555	response	0	j		63.0	/experiments/Knapen_AOT/AOT_stimuli/pictures/0216_fw.png	119.64118099212646	
66	61.643598318099976	picture	0		111	64.0	/experiments/Knapen_AOT/AOT_stimuli/pictures/1787_fw.png	119.65046262741089	0.9237778186798096
66	62.55928039550781	response	0	j		64.0	/experiments/Knapen_AOT/AOT_stimuli/pictures/1787_fw.png	120.56614470481873	
67	62.567376136779785	picture	0		99	65.0	/experiments/Knapen_AOT/AOT_stimuli/pictures/0282_fw.png	120.5742404460907	0.8333826065063477
67	63.38425803184509	response	0	k		65.0	/experiments/Knapen_AOT/AOT_stimuli/pictures/0282_fw.png	121.391122341156	
68	63.40075874328613	picture	0		104	66.0	/experiments/Knapen_AOT/AOT_stimuli/pictures/0633_fw.png	121.40762305259705	0.874964714050293
68	64.25943851470947	response	0	k		66.0	/experiments/Knapen_AOT/AOT_stimuli/pictures/0633_fw.png	122.26630282402039	
69	64.27572345733643	picture	0		87	67.0	/experiments/Knapen_AOT/AOT_stimuli/pictures/0662_fw.png	122.28258776664734	0.7333800792694092
69	64.99265098571777	response	0	j		67.0	/experiments/Knapen_AOT/AOT_stimuli/pictures/0662_fw.png	122.99951529502869	
70	65.00910353660583	picture	0		85	68.0	/experiments/Knapen_AOT/AOT_stimuli/pictures/0744_fw.png	123.01596784591675	0.7109513282775879
70	65.70930910110474	response	0	k		68.0	/experiments/Knapen_AOT/AOT_stimuli/pictures/0744_fw.png	123.71617341041565	
71	65.72005486488342	picture	0		222	69.0	/experiments/Knapen_AOT/AOT_stimuli/pictures/0458_fw.png	123.72691917419434	1.8557319641113281
71	67.55932378768921	response	0	k		69.0	/experiments/Knapen_AOT/AOT_stimuli/pictures/0458_fw.png	125.56618809700012	
72	67.57578682899475	picture	0		90	70.0	/experiments/Knapen_AOT/AOT_stimuli/pictures/1406_fw.png	125.58265113830566	0.758425235748291
72	68.31774353981018	response	0	j		70.0	/experiments/Knapen_AOT/AOT_stimuli/pictures/1406_fw.png	126.3246078491211	
73	68.33421206474304	picture	0		88	71.0	/experiments/Knapen_AOT/AOT_stimuli/pictures/1496_fw.png	126.34107637405396	0.7332332134246826
73	69.05939078330994	response	0	j		71.0	/experiments/Knapen_AOT/AOT_stimuli/pictures/1496_fw.png	127.06625509262085	
74	69.06744527816772	picture	0		172	72.0	/experiments/Knapen_AOT/AOT_stimuli/pictures/1702_fw.png	127.07430958747864	1.4372434616088867
74	70.49266576766968	response	0	k		72.0	/experiments/Knapen_AOT/AOT_stimuli/pictures/1702_fw.png	128.4995300769806	
75	70.50468873977661	picture	0		82	73.0	/experiments/Knapen_AOT/AOT_stimuli/pictures/0619_fw.png	128.51155304908752	0.6806521415710449
75	71.17609572410583	response	0	j		73.0	/experiments/Knapen_AOT/AOT_stimuli/pictures/0619_fw.png	129.18296003341675	
76	71.18534088134766	picture	0		80	74.0	/experiments/Knapen_AOT/AOT_stimuli/pictures/0679_fw.png	129.19220519065857	0.666640043258667
76	71.842693567276	response	0	j		74.0	/experiments/Knapen_AOT/AOT_stimuli/pictures/0679_fw.png	129.8495578765869	
77	71.85198092460632	picture	0		95	75.0	/experiments/Knapen_AOT/AOT_stimuli/pictures/0976_fw.png	129.85884523391724	0.7916810512542725
77	72.63441252708435	response	0	j		75.0	/experiments/Knapen_AOT/AOT_stimuli/pictures/0976_fw.png	130.64127683639526	
78	72.6436619758606	picture	0		110	76.0	/experiments/Knapen_AOT/AOT_stimuli/pictures/1416_fw.png	130.6505262851715	0.9166841506958008
78	73.55108189582825	response	0	k		76.0	/experiments/Knapen_AOT/AOT_stimuli/pictures/1416_fw.png	131.55794620513916	
79	73.5603461265564	picture	0		110	77.0	/experiments/Knapen_AOT/AOT_stimuli/pictures/0990_fw.png	131.5672104358673	0.9166734218597412
79	74.46777272224426	response	0	j		77.0	/experiments/Knapen_AOT/AOT_stimuli/pictures/0990_fw.png	132.47463703155518	
80	74.47701954841614	picture	0		96	78.0	/experiments/Knapen_AOT/AOT_stimuli/pictures/1689_fw.png	132.48388385772705	0.798842191696167
80	75.26777791976929	response	0	j		78.0	/experiments/Knapen_AOT/AOT_stimuli/pictures/1689_fw.png	133.2746422290802	
81	75.2758617401123	picture	0		100	79.0	/experiments/Knapen_AOT/AOT_stimuli/pictures/0775_fw.png	133.28272604942322	0.8333604335784912
81	76.10106468200684	response	0	j		79.0	/experiments/Knapen_AOT/AOT_stimuli/pictures/0775_fw.png	134.10792899131775	
82	76.1092221736908	picture	0		77	80.0	/experiments/Knapen_AOT/AOT_stimuli/pictures/1840_fw.png	134.1160864830017	0.6456222534179688
82	76.74277544021606	response	0	j		80.0	/experiments/Knapen_AOT/AOT_stimuli/pictures/1840_fw.png	134.74963974952698	
83	76.75484442710876	picture	0		79	81.0	/experiments/Knapen_AOT/AOT_stimuli/pictures/1181_fw.png	134.76170873641968	0.6627795696258545
83	77.39464020729065	response	0	j		81.0	/experiments/Knapen_AOT/AOT_stimuli/pictures/1181_fw.png	135.40150451660156	
84	77.41762399673462	picture	0		104	82.0	/experiments/Knapen_AOT/AOT_stimuli/pictures/1768_fw.png	135.42448830604553	0.8749568462371826
84	78.27614307403564	response	0	k		82.0	/experiments/Knapen_AOT/AOT_stimuli/pictures/1768_fw.png	136.28300738334656	
85	78.2925808429718	picture	0		82	83.0	/experiments/Knapen_AOT/AOT_stimuli/pictures/1918_fw.png	136.29944515228271	0.6916599273681641
85	78.968017578125	response	0	j		83.0	/experiments/Knapen_AOT/AOT_stimuli/pictures/1918_fw.png	136.9748818874359	
86	78.98424077033997	picture	0		108	84.0	/experiments/Knapen_AOT/AOT_stimuli/pictures/1259_fw.png	136.99110507965088	0.9083831310272217
86	79.87611865997314	response	0	k		84.0	/experiments/Knapen_AOT/AOT_stimuli/pictures/1259_fw.png	137.88298296928406	
87	79.89262390136719	picture	0		118	85.0	/experiments/Knapen_AOT/AOT_stimuli/pictures/0777_fw.png	137.8994882106781	0.9916648864746094
87	80.86786842346191	response	0	k		85.0	/experiments/Knapen_AOT/AOT_stimuli/pictures/0777_fw.png	138.87473273277283	
88	80.8842887878418	picture	0		95	86.0	/experiments/Knapen_AOT/AOT_stimuli/pictures/1269_fw.png	138.8911530971527	0.7999944686889648
88	81.66781640052795	response	0	k		86.0	/experiments/Knapen_AOT/AOT_stimuli/pictures/1269_fw.png	139.67468070983887	
89	81.68428325653076	picture	0		73	87.0	/experiments/Knapen_AOT/AOT_stimuli/pictures/1428_fw.png	139.69114756584167	0.6167161464691162
89	82.28448581695557	response	0	j		87.0	/experiments/Knapen_AOT/AOT_stimuli/pictures/1428_fw.png	140.29135012626648	
90	82.30099940299988	picture	0		99	88.0	/experiments/Knapen_AOT/AOT_stimuli/pictures/0714_fw.png	140.3078637123108	0.8288655281066895
90	83.11782431602478	response	0	k		88.0	/experiments/Knapen_AOT/AOT_stimuli/pictures/0714_fw.png	141.1246886253357	
91	83.12986493110657	picture	0		97	89.0	/experiments/Knapen_AOT/AOT_stimuli/pictures/1086_fw.png	141.13672924041748	0.8055877685546875
91	83.92617082595825	response	0	k		89.0	/experiments/Knapen_AOT/AOT_stimuli/pictures/1086_fw.png	141.93303513526917	
92	83.93545269966125	picture	0		68	90.0	/experiments/Knapen_AOT/AOT_stimuli/pictures/0415_fw.png	141.94231700897217	0.5694429874420166
92	84.49291920661926	response	0	j		90.0	/experiments/Knapen_AOT/AOT_stimuli/pictures/0415_fw.png	142.49978351593018	
93	84.50489568710327	picture	0		234	91.0	/experiments/Knapen_AOT/AOT_stimuli/pictures/0111_fw.png	142.51175999641418	1.9544847011566162
93	86.44287276268005	response	0	k		91.0	/experiments/Knapen_AOT/AOT_stimuli/pictures/0111_fw.png	144.44973707199097	
94	86.45938038825989	picture	0		73	92.0	/experiments/Knapen_AOT/AOT_stimuli/pictures/1883_fw.png	144.4662446975708	0.6166579723358154
94	87.05958390235901	response	0	j		92.0	/experiments/Knapen_AOT/AOT_stimuli/pictures/1883_fw.png	145.06644821166992	
95	87.0760383605957	picture	0		569	93.0	/experiments/Knapen_AOT/AOT_stimuli/pictures/0143_fw.png	145.08290266990662	4.750067472457886
95	91.80216097831726	response	0	k		93.0	/experiments/Knapen_AOT/AOT_stimuli/pictures/0143_fw.png	149.80902528762817	
96	91.82610583305359	picture	0		102	94.0	/experiments/Knapen_AOT/AOT_stimuli/pictures/1957_fw.png	149.8329701423645	0.8583545684814453
96	92.66795206069946	response	0	k		94.0	/experiments/Knapen_AOT/AOT_stimuli/pictures/1957_fw.png	150.67481637001038	
97	92.68446040153503	picture	0		98	95.0	/experiments/Knapen_AOT/AOT_stimuli/pictures/1645_fw.png	150.69132471084595	0.8205099105834961
97	93.49296569824219	response	0	k		95.0	/experiments/Knapen_AOT/AOT_stimuli/pictures/1645_fw.png	151.4998300075531	
98	93.50497031211853	picture	0		101	96.0	/experiments/Knapen_AOT/AOT_stimuli/pictures/0531_fw.png	151.51183462142944	0.8403222560882568
98	94.33461999893188	response	0	k		96.0	/experiments/Knapen_AOT/AOT_stimuli/pictures/0531_fw.png	152.3414843082428	
99	94.34529256820679	picture	0		130	97.0	/experiments/Knapen_AOT/AOT_stimuli/pictures/0346_fw.png	152.3521568775177	1.0832977294921875
99	95.41060781478882	response	0	k		97.0	/experiments/Knapen_AOT/AOT_stimuli/pictures/0346_fw.png	153.41747212409973	
100	95.42859029769897	picture	0		85	98.0	/experiments/Knapen_AOT/AOT_stimuli/pictures/1351_fw.png	153.4354546070099	0.7142462730407715
100	96.12657570838928	response	0	j		98.0	/experiments/Knapen_AOT/AOT_stimuli/pictures/1351_fw.png	154.1334400177002	
101	96.14283657073975	picture	0		95	99.0	/experiments/Knapen_AOT/AOT_stimuli/pictures/2013_fw.png	154.14970088005066	0.7926888465881348
101	96.92636156082153	response	0	j		99.0	/experiments/Knapen_AOT/AOT_stimuli/pictures/2013_fw.png	154.93322587013245	
102	96.93552541732788	picture	0		73	100.0	/experiments/Knapen_AOT/AOT_stimuli/pictures/1762_fw.png	154.9423897266388	0.611121416091919
102	97.53467392921448	response	0	j		100.0	/experiments/Knapen_AOT/AOT_stimuli/pictures/1762_fw.png	155.5415382385254	
103	97.5466468334198	picture	0		101	101.0	/experiments/Knapen_AOT/AOT_stimuli/pictures/0822_fw.png	155.5535111427307	0.8461859226226807
103	98.37647771835327	response	0	j		101.0	/experiments/Knapen_AOT/AOT_stimuli/pictures/0822_fw.png	156.38334202766418	
104	98.39283275604248	picture	0		80	102.0	/experiments/Knapen_AOT/AOT_stimuli/pictures/0645_fw.png	156.3996970653534	0.6677277088165283
104	99.05144262313843	response	0	j		102.0	/experiments/Knapen_AOT/AOT_stimuli/pictures/0645_fw.png	157.05830693244934	
105	99.06056046485901	picture	0		176	103.0	/experiments/Knapen_AOT/AOT_stimuli/pictures/0894_fw.png	157.06742477416992	1.4722466468811035
105	100.51805567741394	response	0	k		103.0	/experiments/Knapen_AOT/AOT_stimuli/pictures/0894_fw.png	158.52491998672485	
106	100.53280711174011	picture	0		132	104.0	/experiments/Knapen_AOT/AOT_stimuli/pictures/1358_fw.png	158.53967142105103	1.1100757122039795
106	101.62645936012268	response	0	k		104.0	/experiments/Knapen_AOT/AOT_stimuli/pictures/1358_fw.png	159.6333236694336	
107	101.64288282394409	picture	0		92	105.0	/experiments/Knapen_AOT/AOT_stimuli/pictures/1366_fw.png	159.649747133255	0.7718605995178223
107	102.3940122127533	response	0	k		105.0	/experiments/Knapen_AOT/AOT_stimuli/pictures/1366_fw.png	160.4008765220642	
108	102.41474342346191	picture	0		118	106.0	/experiments/Knapen_AOT/AOT_stimuli/pictures/0751_fw.png	160.42160773277283	0.994828462600708
108	103.38720226287842	response	0	k		106.0	/experiments/Knapen_AOT/AOT_stimuli/pictures/0751_fw.png	161.39406657218933	
109	103.40957188606262	picture	0		85	107.0	/experiments/Knapen_AOT/AOT_stimuli/pictures/0718_fw.png	161.41643619537354	0.7135169506072998
109	104.10975503921509	response	0	j		107.0	/experiments/Knapen_AOT/AOT_stimuli/pictures/0718_fw.png	162.116619348526	
110	104.12308883666992	picture	0		91	108.0	/experiments/Knapen_AOT/AOT_stimuli/pictures/2163_fw.png	162.12995314598083	0.7638719081878662
110	104.87648272514343	response	0	j		108.0	/experiments/Knapen_AOT/AOT_stimuli/pictures/2163_fw.png	162.88334703445435	
111	104.88696074485779	picture	0		89	109.0	/experiments/Knapen_AOT/AOT_stimuli/pictures/1542_fw.png	162.8938250541687	0.7430622577667236
111	105.61813235282898	response	0	j		109.0	/experiments/Knapen_AOT/AOT_stimuli/pictures/1542_fw.png	163.6249966621399	
112	105.63002300262451	picture	0		136	110.0	/experiments/Knapen_AOT/AOT_stimuli/pictures/0125_fw.png	163.63688731193542	1.1379659175872803
112	106.75147747993469	response	0	k		110.0	/experiments/Knapen_AOT/AOT_stimuli/pictures/0125_fw.png	164.7583417892456	
113	106.76798892021179	picture	0		82	111.0	/experiments/Knapen_AOT/AOT_stimuli/pictures/0498_fw.png	164.7748532295227	0.6916673183441162
113	107.44315481185913	response	0	k		111.0	/experiments/Knapen_AOT/AOT_stimuli/pictures/0498_fw.png	165.45001912117004	
114	107.45965623855591	picture	0		92	112.0	/experiments/Knapen_AOT/AOT_stimuli/pictures/0703_fw.png	165.46652054786682	0.767615795135498
114	108.21812033653259	response	0	k		112.0	/experiments/Knapen_AOT/AOT_stimuli/pictures/0703_fw.png	166.2249846458435	
115	108.2272720336914	picture	0		114	113.0	/experiments/Knapen_AOT/AOT_stimuli/pictures/1459_fw.png	166.23413634300232	0.957369327545166
115	109.16815543174744	response	0	k		113.0	/experiments/Knapen_AOT/AOT_stimuli/pictures/1459_fw.png	167.17501974105835	
116	109.18464136123657	picture	0		183	114.0	/experiments/Knapen_AOT/AOT_stimuli/pictures/0391_fw.png	167.19150567054749	1.533351182937622
116	110.70150899887085	response	0	k		114.0	/experiments/Knapen_AOT/AOT_stimuli/pictures/0391_fw.png	168.70837330818176	
117	110.7179925441742	picture	0		502	115.0	/experiments/Knapen_AOT/AOT_stimuli/pictures/1460_fw.png	168.7248568534851	4.183359146118164
117	114.89325189590454	response	0	j		115.0	/experiments/Knapen_AOT/AOT_stimuli/pictures/1460_fw.png	172.90011620521545	
118	114.90135169029236	picture	0		101	116.0	/experiments/Knapen_AOT/AOT_stimuli/pictures/2149_fw.png	172.90821599960327	0.8468286991119385
118	115.73488759994507	response	0	k		116.0	/experiments/Knapen_AOT/AOT_stimuli/pictures/2149_fw.png	173.74175190925598	
119	115.7481803894043	picture	0		97	117.0	/experiments/Knapen_AOT/AOT_stimuli/pictures/2168_fw.png	173.7550446987152	0.8199033737182617
119	116.55159211158752	response	0	k		117.0	/experiments/Knapen_AOT/AOT_stimuli/pictures/2168_fw.png	174.55845642089844	
120	116.56808376312256	picture	0		81	118.0	/experiments/Knapen_AOT/AOT_stimuli/pictures/2131_fw.png	174.57494807243347	0.683351993560791
120	117.2349545955658	response	0	k		118.0	/experiments/Knapen_AOT/AOT_stimuli/pictures/2131_fw.png	175.2418189048767	
121	117.25143575668335	picture	0		81	119.0	/experiments/Knapen_AOT/AOT_stimuli/pictures/1205_fw.png	175.25830006599426	0.6833205223083496
121	117.91839075088501	response	0	k		119.0	/experiments/Knapen_AOT/AOT_stimuli/pictures/1205_fw.png	175.92525506019592	
122	117.9347562789917	picture	0		107	120.0	/experiments/Knapen_AOT/AOT_stimuli/pictures/2177_fw.png	175.9416205883026	0.8967485427856445
122	118.8184597492218	response	0	j		120.0	/experiments/Knapen_AOT/AOT_stimuli/pictures/2177_fw.png	176.82532405853271	
123	118.83150482177734	picture	0		135	121.0	/experiments/Knapen_AOT/AOT_stimuli/pictures/1230_fw.png	176.83836913108826	1.1319735050201416
123	119.95165157318115	response	0	k		121.0	/experiments/Knapen_AOT/AOT_stimuli/pictures/1230_fw.png	177.95851588249207	
124	119.96347832679749	picture	0		96	122.0	/experiments/Knapen_AOT/AOT_stimuli/pictures/1587_fw.png	177.9703426361084	0.8046517372131348
124	120.751713514328	response	0	k		122.0	/experiments/Knapen_AOT/AOT_stimuli/pictures/1587_fw.png	178.75857782363892	
125	120.76813006401062	picture	0		97	123.0	/experiments/Knapen_AOT/AOT_stimuli/pictures/0205_fw.png	178.77499437332153	0.8134019374847412
125	121.56835794448853	response	0	j		123.0	/experiments/Knapen_AOT/AOT_stimuli/pictures/0205_fw.png	179.57522225379944	
126	121.58153200149536	picture	0		122	124.0	/experiments/Knapen_AOT/AOT_stimuli/pictures/0921_fw.png	179.58839631080627	1.020841360092163
126	122.59343719482422	response	0	j		124.0	/experiments/Knapen_AOT/AOT_stimuli/pictures/0921_fw.png	180.60030150413513	
127	122.60237336158752	picture	0		122	125.0	/experiments/Knapen_AOT/AOT_stimuli/pictures/1895_fw.png	180.60923767089844	1.0208840370178223
127	123.61006116867065	response	0	k		125.0	/experiments/Knapen_AOT/AOT_stimuli/pictures/1895_fw.png	181.61692547798157	
128	123.62325739860535	picture	0		77	126.0	/experiments/Knapen_AOT/AOT_stimuli/pictures/0190_fw.png	181.63012170791626	0.6457784175872803
128	124.26000595092773	response	0	j		126.0	/experiments/Knapen_AOT/AOT_stimuli/pictures/0190_fw.png	182.26687026023865	
129	124.26903581619263	picture	0		117	127.0	/experiments/Knapen_AOT/AOT_stimuli/pictures/0326_fw.png	182.27590012550354	0.9792037010192871
129	125.23503255844116	response	0	k		127.0	/experiments/Knapen_AOT/AOT_stimuli/pictures/0326_fw.png	183.24189686775208	
130	125.24823951721191	picture	0		73	128.0	/experiments/Knapen_AOT/AOT_stimuli/pictures/0476_fw.png	183.25510382652283	0.6115729808807373
130	125.85169315338135	response	0	j		128.0	/experiments/Knapen_AOT/AOT_stimuli/pictures/0476_fw.png	183.85855746269226	
131	125.85981249809265	picture	0		111	129.0	/experiments/Knapen_AOT/AOT_stimuli/pictures/0748_fw.png	183.86667680740356	0.9333970546722412
131	126.77668762207031	response	0	j		129.0	/experiments/Knapen_AOT/AOT_stimuli/pictures/0748_fw.png	184.78355193138123	
132	126.79320955276489	picture	0		74	130.0	/experiments/Knapen_AOT/AOT_stimuli/pictures/0506_fw.png	184.8000738620758	0.6216859817504883
132	127.3941421508789	response	0	j		130.0	/experiments/Knapen_AOT/AOT_stimuli/pictures/0506_fw.png	185.40100646018982	
133	127.41489553451538	picture	0		336	131.0	/experiments/Knapen_AOT/AOT_stimuli/pictures/1175_fw.png	185.4217598438263	2.798546552658081
133	130.2017538547516	response	0	k		131.0	/experiments/Knapen_AOT/AOT_stimuli/pictures/1175_fw.png	188.2086181640625	
134	130.21344208717346	picture	0		73	132.0	/experiments/Knapen_AOT/AOT_stimuli/pictures/1894_fw.png	188.22030639648438	0.6131491661071777
134	130.81027746200562	response	0	j		132.0	/experiments/Knapen_AOT/AOT_stimuli/pictures/1894_fw.png	188.81714177131653	
135	130.82659125328064	picture	0		153	133.0	/experiments/Knapen_AOT/AOT_stimuli/pictures/0051_fw.png	188.83345556259155	1.2758841514587402
135	132.09346199035645	response	0	k		133.0	/experiments/Knapen_AOT/AOT_stimuli/pictures/0051_fw.png	190.10032629966736	
136	132.10247540473938	picture	0		96	134.0	/experiments/Knapen_AOT/AOT_stimuli/pictures/0741_fw.png	190.1093397140503	0.7990942001342773
136	132.89346599578857	response	0	k		134.0	/experiments/Knapen_AOT/AOT_stimuli/pictures/0741_fw.png	190.9003303050995	
137	132.90156960487366	picture	0		116	135.0	/experiments/Knapen_AOT/AOT_stimuli/pictures/0124_fw.png	190.90843391418457	0.971705436706543
137	133.86010479927063	response	0	k		135.0	/experiments/Knapen_AOT/AOT_stimuli/pictures/0124_fw.png	191.86696910858154	
138	133.8732750415802	picture	0		113	136.0	/experiments/Knapen_AOT/AOT_stimuli/pictures/2164_fw.png	191.8801393508911	0.9533474445343018
138	134.80256295204163	response	0	j		136.0	/experiments/Knapen_AOT/AOT_stimuli/pictures/2164_fw.png	192.80942726135254	
139	134.8266224861145	picture	0		110	137.0	/experiments/Knapen_AOT/AOT_stimuli/pictures/1072_fw.png	192.83348679542542	0.9216842651367188
139	135.73521542549133	response	0	k		137.0	/experiments/Knapen_AOT/AOT_stimuli/pictures/1072_fw.png	193.74207973480225	
140	135.74830675125122	picture	0		81	138.0	/experiments/Knapen_AOT/AOT_stimuli/pictures/0173_fw.png	193.75517106056213	0.6805722713470459
140	136.41862630844116	response	0	j		138.0	/experiments/Knapen_AOT/AOT_stimuli/pictures/0173_fw.png	194.42549061775208	
141	136.42887902259827	picture	0		129	139.0	/experiments/Knapen_AOT/AOT_stimuli/pictures/0330_fw.png	194.43574333190918	1.0811114311218262
141	137.49356126785278	response	0	k		139.0	/experiments/Knapen_AOT/AOT_stimuli/pictures/0330_fw.png	195.5004255771637	
142	137.5099904537201	picture	0		91	140.0	/experiments/Knapen_AOT/AOT_stimuli/pictures/0908_fw.png	195.516854763031	0.7666842937469482
142	138.26029419898987	response	0	j		140.0	/experiments/Knapen_AOT/AOT_stimuli/pictures/0908_fw.png	196.26715850830078	
143	138.27667474746704	picture	0		147	141.0	/experiments/Knapen_AOT/AOT_stimuli/pictures/0587_fw.png	196.28353905677795	1.2285895347595215
143	139.49354457855225	response	0	k		141.0	/experiments/Knapen_AOT/AOT_stimuli/pictures/0587_fw.png	197.50040888786316	
144	139.50526428222656	picture	0		90	142.0	/experiments/Knapen_AOT/AOT_stimuli/pictures/1539_fw.png	197.51212859153748	0.7547504901885986
144	140.2435381412506	response	0	k		142.0	/experiments/Knapen_AOT/AOT_stimuli/pictures/1539_fw.png	198.25040245056152	
145	140.26001477241516	picture	0		87	143.0	/experiments/Knapen_AOT/AOT_stimuli/pictures/1186_fw.png	198.26687908172607	0.7333531379699707
145	140.97707438468933	response	0	j		143.0	/experiments/Knapen_AOT/AOT_stimuli/pictures/1186_fw.png	198.98393869400024	
146	140.99336791038513	picture	0		151	144.0	/experiments/Knapen_AOT/AOT_stimuli/pictures/0095_fw.png	199.00023221969604	1.261979579925537
146	142.24358487129211	response	0	k		144.0	/experiments/Knapen_AOT/AOT_stimuli/pictures/0095_fw.png	200.25044918060303	
147	142.25534749031067	picture	0		83	145.0	/experiments/Knapen_AOT/AOT_stimuli/pictures/2124_fw.png	200.26221179962158	0.6880183219909668
147	142.93526411056519	response	0	k		145.0	/experiments/Knapen_AOT/AOT_stimuli/pictures/2124_fw.png	200.9421284198761	
148	142.94336581230164	picture	0		163	146.0	/experiments/Knapen_AOT/AOT_stimuli/pictures/0407_fw.png	200.95023012161255	1.366729736328125
148	144.2936282157898	response	0	k		146.0	/experiments/Knapen_AOT/AOT_stimuli/pictures/0407_fw.png	202.3004925251007	
149	144.31009554862976	picture	0		85	147.0	/experiments/Knapen_AOT/AOT_stimuli/pictures/1013_fw.png	202.31695985794067	0.7091426849365234
149	145.01032400131226	response	0	j		147.0	/experiments/Knapen_AOT/AOT_stimuli/pictures/1013_fw.png	203.01718831062317	
150	145.01923823356628	picture	0		71	148.0	/experiments/Knapen_AOT/AOT_stimuli/pictures/1719_fw.png	203.0261025428772	0.5992391109466553
150	145.59553170204163	response	0	j		148.0	/experiments/Knapen_AOT/AOT_stimuli/pictures/1719_fw.png	203.60239601135254	
151	145.61847734451294	picture	0		98	149.0	/experiments/Knapen_AOT/AOT_stimuli/pictures/0857_fw.png	203.62534165382385	0.8249974250793457
151	146.42700791358948	response	0	k		149.0	/experiments/Knapen_AOT/AOT_stimuli/pictures/0857_fw.png	204.4338722229004	
152	146.44347476959229	picture	0		117	150.0	/experiments/Knapen_AOT/AOT_stimuli/pictures/1055_fw.png	204.4503390789032	0.9833266735076904
152	147.41036248207092	response	0	j		150.0	/experiments/Knapen_AOT/AOT_stimuli/pictures/1055_fw.png	205.41722679138184	
153	147.42680144309998	picture	0		92	151.0	/experiments/Knapen_AOT/AOT_stimuli/pictures/1414_fw.png	205.4336657524109	0.7750062942504883
153	148.18539381027222	response	0	k		151.0	/experiments/Knapen_AOT/AOT_stimuli/pictures/1414_fw.png	206.19225811958313	
154	148.20180773735046	picture	0		93	152.0	/experiments/Knapen_AOT/AOT_stimuli/pictures/0446_fw.png	206.20867204666138	0.7833709716796875
154	148.96881532669067	response	0	k		152.0	/experiments/Knapen_AOT/AOT_stimuli/pictures/0446_fw.png	206.9756796360016	
155	148.98517870903015	picture	0		89	153.0	/experiments/Knapen_AOT/AOT_stimuli/pictures/0324_fw.png	206.99204301834106	0.742344856262207
155	149.71866631507874	response	0	j		153.0	/experiments/Knapen_AOT/AOT_stimuli/pictures/0324_fw.png	207.72553062438965	
156	149.72752356529236	picture	0		124	154.0	/experiments/Knapen_AOT/AOT_stimuli/pictures/0537_fw.png	207.73438787460327	1.0348093509674072
156	150.752046585083	response	0	j		154.0	/experiments/Knapen_AOT/AOT_stimuli/pictures/0537_fw.png	208.75891089439392	
157	150.76233291625977	picture	0		111	155.0	/experiments/Knapen_AOT/AOT_stimuli/pictures/0729_fw.png	208.76919722557068	0.9236187934875488
157	151.67694687843323	response	0	j		155.0	/experiments/Knapen_AOT/AOT_stimuli/pictures/0729_fw.png	209.68381118774414	
158	151.68595170974731	picture	0		87	156.0	/experiments/Knapen_AOT/AOT_stimuli/pictures/0556_fw.png	209.69281601905823	0.8658828735351562
158	152.39448952674866	response	0	j		156.0	/experiments/Knapen_AOT/AOT_stimuli/pictures/0556_fw.png	210.40135383605957	
159	152.55183458328247	picture	0		80	157.0	/experiments/Knapen_AOT/AOT_stimuli/pictures/2042_fw.png	210.55869889259338	0.6750390529632568
159	153.21052193641663	response	0	j		157.0	/experiments/Knapen_AOT/AOT_stimuli/pictures/2042_fw.png	211.21738624572754	
160	153.22687363624573	picture	0		115	158.0	/experiments/Knapen_AOT/AOT_stimuli/pictures/0390_fw.png	211.23373794555664	0.9666562080383301
160	154.1770453453064	response	0	k		158.0	/experiments/Knapen_AOT/AOT_stimuli/pictures/0390_fw.png	212.1839096546173	
161	154.19352984428406	picture	0		85	159.0	/experiments/Knapen_AOT/AOT_stimuli/pictures/0518_fw.png	212.20039415359497	0.7285327911376953
161	154.89373993873596	response	0	k		159.0	/experiments/Knapen_AOT/AOT_stimuli/pictures/0518_fw.png	212.90060424804688	
162	154.92206263542175	picture	0		106	160.0	/experiments/Knapen_AOT/AOT_stimuli/pictures/0660_fw.png	212.92892694473267	0.8882253170013428
162	155.79373335838318	response	0	k		160.0	/experiments/Knapen_AOT/AOT_stimuli/pictures/0660_fw.png	213.8005976676941	
163	155.8102879524231	picture	0		128	161.0	/experiments/Knapen_AOT/AOT_stimuli/pictures/0442_fw.png	213.817152261734	1.0701217651367188
163	156.8687436580658	response	0	k		161.0	/experiments/Knapen_AOT/AOT_stimuli/pictures/0442_fw.png	214.8756079673767	
164	156.88040971755981	picture	0		75	162.0	/experiments/Knapen_AOT/AOT_stimuli/pictures/1574_fw.png	214.88727402687073	0.6298332214355469
164	157.49380040168762	response	0	k		162.0	/experiments/Knapen_AOT/AOT_stimuli/pictures/1574_fw.png	215.50066471099854	
165	157.51024293899536	picture	0		98	163.0	/experiments/Knapen_AOT/AOT_stimuli/pictures/0056_fw.png	215.51710724830627	0.8215734958648682
165	158.31874871253967	response	0	k		163.0	/experiments/Knapen_AOT/AOT_stimuli/pictures/0056_fw.png	216.3256130218506	
166	158.33181643486023	picture	0		89	164.0	/experiments/Knapen_AOT/AOT_stimuli/pictures/0312_fw.png	216.33868074417114	0.7499854564666748
166	159.06877374649048	response	0	j		164.0	/experiments/Knapen_AOT/AOT_stimuli/pictures/0312_fw.png	217.0756380558014	
167	159.0818018913269	picture	0		126	165.0	/experiments/Knapen_AOT/AOT_stimuli/pictures/1197_fw.png	217.08866620063782	1.055652379989624
167	160.12770915031433	response	0	j		165.0	/experiments/Knapen_AOT/AOT_stimuli/pictures/1197_fw.png	218.13457345962524	
168	160.13745427131653	picture	0		90	166.0	/experiments/Knapen_AOT/AOT_stimuli/pictures/0770_fw.png	218.14431858062744	0.7561848163604736
168	160.87717247009277	response	0	k		166.0	/experiments/Knapen_AOT/AOT_stimuli/pictures/0770_fw.png	218.8840367794037	
169	160.893639087677	picture	0		164	167.0	/experiments/Knapen_AOT/AOT_stimuli/pictures/0523_fw.png	218.90050339698792	1.3750886917114258
169	162.2521731853485	response	0	k		167.0	/experiments/Knapen_AOT/AOT_stimuli/pictures/0523_fw.png	220.25903749465942	
170	162.26872777938843	picture	0		143	168.0	/experiments/Knapen_AOT/AOT_stimuli/pictures/0546_fw.png	220.27559208869934	1.1999166011810303
170	163.4522044658661	response	0	k		168.0	/experiments/Knapen_AOT/AOT_stimuli/pictures/0546_fw.png	221.459068775177	
171	163.46864438056946	picture	0		84	169.0	/experiments/Knapen_AOT/AOT_stimuli/pictures/1907_fw.png	221.47550868988037	0.7083549499511719
171	164.1605100631714	response	0	j		169.0	/experiments/Knapen_AOT/AOT_stimuli/pictures/1907_fw.png	222.1673743724823	
172	164.17699933052063	picture	0		75	170.0	/experiments/Knapen_AOT/AOT_stimuli/pictures/1524_fw.png	222.18386363983154	0.6270575523376465
172	164.78629565238953	response	0	j		170.0	/experiments/Knapen_AOT/AOT_stimuli/pictures/1524_fw.png	222.79315996170044	
173	164.80405688285828	picture	0		97	171.0	/experiments/Knapen_AOT/AOT_stimuli/pictures/1315_fw.png	222.8109211921692	0.8146483898162842
173	165.60235571861267	response	0	k		171.0	/experiments/Knapen_AOT/AOT_stimuli/pictures/1315_fw.png	223.60922002792358	
174	165.61870527267456	picture	0		92	172.0	/experiments/Knapen_AOT/AOT_stimuli/pictures/0689_fw.png	223.62556958198547	0.7749979496002197
174	166.3772487640381	response	0	j		172.0	/experiments/Knapen_AOT/AOT_stimuli/pictures/0689_fw.png	224.384113073349	
175	166.39370322227478	picture	0		107	173.0	/experiments/Knapen_AOT/AOT_stimuli/pictures/2161_fw.png	224.4005675315857	0.8964905738830566
175	167.27724051475525	response	0	k		173.0	/experiments/Knapen_AOT/AOT_stimuli/pictures/2161_fw.png	225.28410482406616	
176	167.29019379615784	picture	0		127	174.0	/experiments/Knapen_AOT/AOT_stimuli/pictures/1868_fw.png	225.29705810546875	1.0618562698364258
176	168.33566451072693	response	0	k		174.0	/experiments/Knapen_AOT/AOT_stimuli/pictures/1868_fw.png	226.34252882003784	
177	168.35205006599426	picture	0		86	175.0	/experiments/Knapen_AOT/AOT_stimuli/pictures/1921_fw.png	226.35891437530518	0.7250270843505859
177	169.06060194969177	response	0	j		175.0	/experiments/Knapen_AOT/AOT_stimuli/pictures/1921_fw.png	227.06746625900269	
178	169.07707715034485	picture	0		191	176.0	/experiments/Knapen_AOT/AOT_stimuli/pictures/1956_fw.png	227.08394145965576	1.6000339984893799
178	170.6606101989746	response	0	k		176.0	/experiments/Knapen_AOT/AOT_stimuli/pictures/1956_fw.png	228.66747450828552	
179	170.67711114883423	picture	0		74	177.0	/experiments/Knapen_AOT/AOT_stimuli/pictures/1302_fw.png	228.68397545814514	0.6250674724578857
179	171.28566551208496	response	0	j		177.0	/experiments/Knapen_AOT/AOT_stimuli/pictures/1302_fw.png	229.29252982139587	
180	171.30217862129211	picture	0		159	178.0	/experiments/Knapen_AOT/AOT_stimuli/pictures/1059_fw.png	229.30904293060303	1.3282418251037598
180	172.61917543411255	response	0	k		178.0	/experiments/Knapen_AOT/AOT_stimuli/pictures/1059_fw.png	230.62603974342346	
181	172.63042044639587	picture	0		95	179.0	/experiments/Knapen_AOT/AOT_stimuli/pictures/1942_fw.png	230.6372847557068	0.7967276573181152
181	173.41059851646423	response	0	k		179.0	/experiments/Knapen_AOT/AOT_stimuli/pictures/1942_fw.png	231.41746282577515	
182	173.427148103714	picture	0		94	180.0	/experiments/Knapen_AOT/AOT_stimuli/pictures/0464_fw.png	231.4340124130249	0.7916271686553955
182	174.19469618797302	response	0	k		180.0	/experiments/Knapen_AOT/AOT_stimuli/pictures/0464_fw.png	232.20156049728394	
183	174.21877527236938	picture	0		95	181.0	/experiments/Knapen_AOT/AOT_stimuli/pictures/0230_fw.png	232.2256395816803	0.8000259399414062
183	175.00235080718994	response	0	k		181.0	/experiments/Knapen_AOT/AOT_stimuli/pictures/0230_fw.png	233.00921511650085	
184	175.0188012123108	picture	0		115	182.0	/experiments/Knapen_AOT/AOT_stimuli/pictures/0032_fw.png	233.0256655216217	0.9666709899902344
184	175.969144821167	response	0	j		182.0	/experiments/Knapen_AOT/AOT_stimuli/pictures/0032_fw.png	233.9760091304779	
185	175.98547220230103	picture	0		352	183.0	/experiments/Knapen_AOT/AOT_stimuli/pictures/0593_fw.png	233.99233651161194	2.936673402786255
185	178.91069078445435	response	0	k		183.0	/experiments/Knapen_AOT/AOT_stimuli/pictures/0593_fw.png	236.91755509376526	
186	178.92214560508728	picture	0		84	184.0	/experiments/Knapen_AOT/AOT_stimuli/pictures/0090_fw.png	236.9290099143982	0.7050788402557373
186	179.6107280254364	response	0	j		184.0	/experiments/Knapen_AOT/AOT_stimuli/pictures/0090_fw.png	237.61759233474731	
187	179.62722444534302	picture	0		85	185.0	/experiments/Knapen_AOT/AOT_stimuli/pictures/1095_fw.png	237.63408875465393	0.7116649150848389
187	180.32740378379822	response	0	j		185.0	/experiments/Knapen_AOT/AOT_stimuli/pictures/1095_fw.png	238.33426809310913	
188	180.33888936042786	picture	0		84	186.0	/experiments/Knapen_AOT/AOT_stimuli/pictures/0915_fw.png	238.34575366973877	0.7014036178588867
188	181.02737998962402	response	0	k		186.0	/experiments/Knapen_AOT/AOT_stimuli/pictures/0915_fw.png	239.03424429893494	
189	181.04029297828674	picture	0		119	187.0	/experiments/Knapen_AOT/AOT_stimuli/pictures/1669_fw.png	239.04715728759766	0.9930598735809326
189	182.01907348632812	response	0	k		187.0	/experiments/Knapen_AOT/AOT_stimuli/pictures/1669_fw.png	240.02593779563904	
190	182.03335285186768	picture	0		102	188.0	/experiments/Knapen_AOT/AOT_stimuli/pictures/1634_fw.png	240.0402171611786	0.860567569732666
190	182.87740802764893	response	0	k		188.0	/experiments/Knapen_AOT/AOT_stimuli/pictures/1634_fw.png	240.88427233695984	
191	182.89392042160034	picture	0		75	189.0	/experiments/Knapen_AOT/AOT_stimuli/pictures/1999_fw.png	240.90078473091125	0.633314847946167
191	183.51074481010437	response	0	j		189.0	/experiments/Knapen_AOT/AOT_stimuli/pictures/1999_fw.png	241.51760911941528	
192	183.5272352695465	picture	0		99	190.0	/experiments/Knapen_AOT/AOT_stimuli/pictures/2055_fw.png	241.53409957885742	0.825594425201416
192	184.34408044815063	response	0	k		190.0	/experiments/Knapen_AOT/AOT_stimuli/pictures/2055_fw.png	242.35094475746155	
193	184.35282969474792	picture	0		94	191.0	/experiments/Knapen_AOT/AOT_stimuli/pictures/1356_fw.png	242.35969400405884	0.791090726852417
193	185.12744331359863	response	0	k		191.0	/experiments/Knapen_AOT/AOT_stimuli/pictures/1356_fw.png	243.13430762290955	
194	185.14392042160034	picture	0		88	192.0	/experiments/Knapen_AOT/AOT_stimuli/pictures/1810_fw.png	243.15078473091125	0.7366971969604492
194	185.86916589736938	response	0	j		192.0	/experiments/Knapen_AOT/AOT_stimuli/pictures/1810_fw.png	243.8760302066803	
195	185.8806176185608	picture	0		98	193.0	/experiments/Knapen_AOT/AOT_stimuli/pictures/1157_fw.png	243.8874819278717	0.8217387199401855
195	186.6858401298523	response	0	j		193.0	/experiments/Knapen_AOT/AOT_stimuli/pictures/1157_fw.png	244.6927044391632	
196	186.70235633850098	picture	0		115	194.0	/experiments/Knapen_AOT/AOT_stimuli/pictures/1256_fw.png	244.7092206478119	0.9629676342010498
196	187.65245461463928	response	0	k		194.0	/experiments/Knapen_AOT/AOT_stimuli/pictures/1256_fw.png	245.6593189239502	
197	187.66532397270203	picture	0		99	195.0	/experiments/Knapen_AOT/AOT_stimuli/pictures/0771_fw.png	245.67218828201294	0.8370609283447266
197	188.4858317375183	response	0	k		195.0	/experiments/Knapen_AOT/AOT_stimuli/pictures/0771_fw.png	246.49269604682922	
198	188.50238490104675	picture	0		132	196.0	/experiments/Knapen_AOT/AOT_stimuli/pictures/0811_fw.png	246.50924921035767	1.1004517078399658
198	189.58774995803833	response	0	k		196.0	/experiments/Knapen_AOT/AOT_stimuli/pictures/0811_fw.png	247.59461426734924	
199	189.60283660888672	picture	0		88	197.0	/experiments/Knapen_AOT/AOT_stimuli/pictures/0166_fw.png	247.60970091819763	0.7411632537841797
199	190.32754850387573	response	0	j		197.0	/experiments/Knapen_AOT/AOT_stimuli/pictures/0166_fw.png	248.33441281318665	
200	190.3439998626709	picture	0		106	198.0	/experiments/Knapen_AOT/AOT_stimuli/pictures/0114_fw.png	248.3508641719818	0.8916759490966797
200	191.2192304134369	response	0	j		198.0	/experiments/Knapen_AOT/AOT_stimuli/pictures/0114_fw.png	249.2260947227478	
201	191.23567581176758	picture	0		91	199.0	/experiments/Knapen_AOT/AOT_stimuli/pictures/0875_fw.png	249.2425401210785	0.7630617618560791
201	191.98589158058167	response	0	j		199.0	/experiments/Knapen_AOT/AOT_stimuli/pictures/0875_fw.png	249.99275588989258	
202	191.99873757362366	picture	0		102	200.0	/experiments/Knapen_AOT/AOT_stimuli/pictures/0213_fw.png	250.00560188293457	0.8541364669799805
202	192.8443946838379	response	0	j		200.0	/experiments/Knapen_AOT/AOT_stimuli/pictures/0213_fw.png	250.8512589931488	
203	192.85287404060364	picture	0		87	201.0	/experiments/Knapen_AOT/AOT_stimuli/pictures/1589_fw.png	250.85973834991455	0.7328219413757324
203	193.56929636001587	response	0	j		201.0	/experiments/Knapen_AOT/AOT_stimuli/pictures/1589_fw.png	251.57616066932678	
204	193.58569598197937	picture	0		100	202.0	/experiments/Knapen_AOT/AOT_stimuli/pictures/1044_fw.png	251.59256029129028	0.8416945934295654
204	194.41096425056458	response	0	k		202.0	/experiments/Knapen_AOT/AOT_stimuli/pictures/1044_fw.png	252.4178285598755	
205	194.42739057540894	picture	0		84	203.0	/experiments/Knapen_AOT/AOT_stimuli/pictures/1976_fw.png	252.43425488471985	0.7032747268676758
205	195.11928915977478	response	0	j		203.0	/experiments/Knapen_AOT/AOT_stimuli/pictures/1976_fw.png	253.1261534690857	
206	195.1306653022766	picture	0		81	204.0	/experiments/Knapen_AOT/AOT_stimuli/pictures/0646_fw.png	253.13752961158752	0.6800582408905029
206	195.7944986820221	response	0	j		204.0	/experiments/Knapen_AOT/AOT_stimuli/pictures/0646_fw.png	253.801362991333	
207	195.81072354316711	picture	0		96	205.0	/experiments/Knapen_AOT/AOT_stimuli/pictures/0669_fw.png	253.81758785247803	0.8083834648132324
207	196.60392832756042	response	0	j		205.0	/experiments/Knapen_AOT/AOT_stimuli/pictures/0669_fw.png	254.61079263687134	
208	196.61910700798035	picture	0		86	206.0	/experiments/Knapen_AOT/AOT_stimuli/pictures/1573_fw.png	254.62597131729126	0.7249555587768555
208	197.32760381698608	response	0	j		206.0	/experiments/Knapen_AOT/AOT_stimuli/pictures/1573_fw.png	255.334468126297	
209	197.3440625667572	picture	0		96	207.0	/experiments/Knapen_AOT/AOT_stimuli/pictures/1206_fw.png	255.35092687606812	0.8005037307739258
209	198.1359829902649	response	0	j		207.0	/experiments/Knapen_AOT/AOT_stimuli/pictures/1206_fw.png	256.1428472995758	
210	198.14456629753113	picture	0		87	208.0	/experiments/Knapen_AOT/AOT_stimuli/pictures/1666_fw.png	256.15143060684204	0.7292225360870361
210	198.86093163490295	response	0	j		208.0	/experiments/Knapen_AOT/AOT_stimuli/pictures/1666_fw.png	256.86779594421387	
211	198.87378883361816	picture	0		112	209.0	/experiments/Knapen_AOT/AOT_stimuli/pictures/0753_fw.png	256.8806531429291	0.9369947910308838
211	199.78672075271606	response	0	j		209.0	/experiments/Knapen_AOT/AOT_stimuli/pictures/0753_fw.png	257.793585062027	
212	199.81078362464905	picture	0		106	210.0	/experiments/Knapen_AOT/AOT_stimuli/pictures/0459_fw.png	257.81764793395996	0.889399528503418
212	200.68597984313965	response	0	j		210.0	/experiments/Knapen_AOT/AOT_stimuli/pictures/0459_fw.png	258.69284415245056	
213	200.70018315315247	picture	0		97	211.0	/experiments/Knapen_AOT/AOT_stimuli/pictures/0909_fw.png	258.7070474624634	0.8189723491668701
213	201.50285243988037	response	0	k		211.0	/experiments/Knapen_AOT/AOT_stimuli/pictures/0909_fw.png	259.5097167491913	
214	201.51915550231934	picture	0		260	212.0	/experiments/Knapen_AOT/AOT_stimuli/pictures/0892_fw.png	259.52601981163025	2.167062997817993
214	203.6778335571289	response	0	k		212.0	/experiments/Knapen_AOT/AOT_stimuli/pictures/0892_fw.png	261.6846978664398	
215	203.68621850013733	picture	0		254	213.0	/experiments/Knapen_AOT/AOT_stimuli/pictures/1482_fw.png	261.69308280944824	2.12469744682312
215	205.78674721717834	response	0	k		213.0	/experiments/Knapen_AOT/AOT_stimuli/pictures/1482_fw.png	263.79361152648926	
216	205.81091594696045	picture	0		801	214.0	/experiments/Knapen_AOT/AOT_stimuli/pictures/0049_fw.png	263.81778025627136	6.683356046676636
216	212.47779536247253	response	0	k		214.0	/experiments/Knapen_AOT/AOT_stimuli/pictures/0049_fw.png	270.48465967178345	
217	212.49427199363708	picture	0		116	215.0	/experiments/Knapen_AOT/AOT_stimuli/pictures/2113_fw.png	270.501136302948	0.9750282764434814
217	213.4528362751007	response	0	k		215.0	/experiments/Knapen_AOT/AOT_stimuli/pictures/2113_fw.png	271.4597005844116	
218	213.46930027008057	picture	0		80	216.0	/experiments/Knapen_AOT/AOT_stimuli/pictures/1403_fw.png	271.4761645793915	0.6749956607818604
218	214.12793016433716	response	0	j		216.0	/experiments/Knapen_AOT/AOT_stimuli/pictures/1403_fw.png	272.13479447364807	
219	214.14429593086243	picture	0		99	217.0	/experiments/Knapen_AOT/AOT_stimuli/pictures/1249_fw.png	272.15116024017334	0.833341121673584
219	214.96142148971558	response	0	k		217.0	/experiments/Knapen_AOT/AOT_stimuli/pictures/1249_fw.png	272.9682857990265	
220	214.977637052536	picture	0		73	218.0	/experiments/Knapen_AOT/AOT_stimuli/pictures/1808_fw.png	272.9845013618469	0.6166825294494629
220	215.5778636932373	response	0	j		218.0	/experiments/Knapen_AOT/AOT_stimuli/pictures/1808_fw.png	273.5847280025482	
221	215.59431958198547	picture	0		111	219.0	/experiments/Knapen_AOT/AOT_stimuli/pictures/0202_fw.png	273.6011838912964	0.9254109859466553
221	216.51117491722107	response	0	k		219.0	/experiments/Knapen_AOT/AOT_stimuli/pictures/0202_fw.png	274.518039226532	
222	216.51973056793213	picture	0		116	220.0	/experiments/Knapen_AOT/AOT_stimuli/pictures/1618_fw.png	274.52659487724304	0.9722294807434082
222	217.47810125350952	response	0	j		220.0	/experiments/Knapen_AOT/AOT_stimuli/pictures/1618_fw.png	275.48496556282043	
223	217.49196004867554	picture	0		104	221.0	/experiments/Knapen_AOT/AOT_stimuli/pictures/0238_fw.png	275.49882435798645	0.8750107288360596
223	218.35282063484192	response	0	j		221.0	/experiments/Knapen_AOT/AOT_stimuli/pictures/0238_fw.png	276.35968494415283	
224	218.3669707775116	picture	0		94	222.0	/experiments/Knapen_AOT/AOT_stimuli/pictures/1087_fw.png	276.3738350868225	0.7940788269042969
224	219.14456987380981	response	0	k		222.0	/experiments/Knapen_AOT/AOT_stimuli/pictures/1087_fw.png	277.1514341831207	
225	219.1610496044159	picture	0		117	223.0	/experiments/Knapen_AOT/AOT_stimuli/pictures/0468_fw.png	277.1679139137268	0.9833192825317383
225	220.12790203094482	response	0	k		223.0	/experiments/Knapen_AOT/AOT_stimuli/pictures/0468_fw.png	278.13476634025574	
226	220.14436888694763	picture	0		94	224.0	/experiments/Knapen_AOT/AOT_stimuli/pictures/1869_fw.png	278.15123319625854	0.7920677661895752
226	220.9198293685913	response	0	k		224.0	/experiments/Knapen_AOT/AOT_stimuli/pictures/1869_fw.png	278.9266936779022	
227	220.9364366531372	picture	0		86	225.0	/experiments/Knapen_AOT/AOT_stimuli/pictures/1451_fw.png	278.9433009624481	0.722252607345581
227	221.64460492134094	response	0	j		225.0	/experiments/Knapen_AOT/AOT_stimuli/pictures/1451_fw.png	279.65146923065186	
228	221.6586892604828	picture	0		92	226.0	/experiments/Knapen_AOT/AOT_stimuli/pictures/0471_fw.png	279.6655535697937	0.7708375453948975
228	222.4195921421051	response	0	k		226.0	/experiments/Knapen_AOT/AOT_stimuli/pictures/0471_fw.png	280.426456451416	
229	222.42952680587769	picture	0		121	227.0	/experiments/Knapen_AOT/AOT_stimuli/pictures/1624_fw.png	280.4363911151886	1.0148746967315674
229	223.42792201042175	response	0	j		227.0	/experiments/Knapen_AOT/AOT_stimuli/pictures/1624_fw.png	281.43478631973267	
230	223.44440150260925	picture	0		80	228.0	/experiments/Knapen_AOT/AOT_stimuli/pictures/0934_fw.png	281.45126581192017	0.6750504970550537
230	224.10298466682434	response	0	j		228.0	/experiments/Knapen_AOT/AOT_stimuli/pictures/0934_fw.png	282.10984897613525	
231	224.1194519996643	picture	0		165	229.0	/experiments/Knapen_AOT/AOT_stimuli/pictures/0825_fw.png	282.1263163089752	1.3833341598510742
231	225.48632144927979	response	0	j		229.0	/experiments/Knapen_AOT/AOT_stimuli/pictures/0825_fw.png	283.4931857585907	
232	225.50278615951538	picture	0		122	230.0	/experiments/Knapen_AOT/AOT_stimuli/pictures/0207_fw.png	283.5096504688263	1.025007963180542
232	226.51130414009094	response	0	k		230.0	/experiments/Knapen_AOT/AOT_stimuli/pictures/0207_fw.png	284.51816844940186	
233	226.52779412269592	picture	0		95	231.0	/experiments/Knapen_AOT/AOT_stimuli/pictures/2063_fw.png	284.53465843200684	0.8000140190124512
233	227.31134462356567	response	0	j		231.0	/experiments/Knapen_AOT/AOT_stimuli/pictures/2063_fw.png	285.3182089328766	
234	227.32780814170837	picture	0		137	232.0	/experiments/Knapen_AOT/AOT_stimuli/pictures/0604_fw.png	285.3346724510193	1.1433815956115723
234	228.4613311290741	response	0	k		232.0	/experiments/Knapen_AOT/AOT_stimuli/pictures/0604_fw.png	286.468195438385	
235	228.47118973731995	picture	0		86	233.0	/experiments/Knapen_AOT/AOT_stimuli/pictures/0291_fw.png	286.47805404663086	0.7232985496520996
235	229.17086243629456	response	0	j		233.0	/experiments/Knapen_AOT/AOT_stimuli/pictures/0291_fw.png	287.17772674560547	
236	229.19448828697205	picture	0		129	234.0	/experiments/Knapen_AOT/AOT_stimuli/pictures/2059_fw.png	287.20135259628296	1.0753381252288818
236	230.26127862930298	response	0	j		234.0	/experiments/Knapen_AOT/AOT_stimuli/pictures/2059_fw.png	288.2681429386139	
237	230.26982641220093	picture	0		160	235.0	/experiments/Knapen_AOT/AOT_stimuli/pictures/0816_fw.png	288.27669072151184	1.341353416442871
237	231.59470415115356	response	0	k		235.0	/experiments/Knapen_AOT/AOT_stimuli/pictures/0816_fw.png	289.6015684604645	
238	231.6111798286438	picture	0		75	236.0	/experiments/Knapen_AOT/AOT_stimuli/pictures/1199_fw.png	289.6180441379547	0.6333341598510742
238	232.2280204296112	response	0	j		236.0	/experiments/Knapen_AOT/AOT_stimuli/pictures/1199_fw.png	290.2348847389221	
239	232.24451398849487	picture	0		186	237.0	/experiments/Knapen_AOT/AOT_stimuli/pictures/2081_fw.png	290.2513782978058	1.5530116558074951
239	233.78001427650452	response	0	k		237.0	/experiments/Knapen_AOT/AOT_stimuli/pictures/2081_fw.png	291.78687858581543	
240	233.79752564430237	picture	0		87	238.0	/experiments/Knapen_AOT/AOT_stimuli/pictures/1858_fw.png	291.8043899536133	0.7222981452941895
240	234.51138377189636	response	0	j		238.0	/experiments/Knapen_AOT/AOT_stimuli/pictures/1858_fw.png	292.5182480812073	
241	234.51982378959656	picture	0		93	239.0	/experiments/Knapen_AOT/AOT_stimuli/pictures/2015_fw.png	292.52668809890747	0.783076286315918
241	235.286470413208	response	0	k		239.0	/experiments/Knapen_AOT/AOT_stimuli/pictures/2015_fw.png	293.2933347225189	
242	235.30290007591248	picture	0		120	240.0	/experiments/Knapen_AOT/AOT_stimuli/pictures/1301_fw.png	293.3097643852234	1.0083367824554443
242	236.29475665092468	response	0	k		240.0	/experiments/Knapen_AOT/AOT_stimuli/pictures/1301_fw.png	294.3016209602356	
243	236.31123685836792	picture	0		80	241.0	/experiments/Knapen_AOT/AOT_stimuli/pictures/0910_fw.png	294.31810116767883	0.6750326156616211
243	236.9626715183258	response	0	k		241.0	/experiments/Knapen_AOT/AOT_stimuli/pictures/0910_fw.png	294.9695358276367	
244	236.98626947402954	picture	0		114	242.0	/experiments/Knapen_AOT/AOT_stimuli/pictures/0640_fw.png	294.99313378334045	0.9583225250244141
244	237.9281759262085	response	0	k		242.0	/experiments/Knapen_AOT/AOT_stimuli/pictures/0640_fw.png	295.9350402355194	
245	237.94459199905396	picture	0		147	243.0	/experiments/Knapen_AOT/AOT_stimuli/pictures/1828_fw.png	295.95145630836487	1.2333335876464844
245	239.16145825386047	response	0	j		243.0	/experiments/Knapen_AOT/AOT_stimuli/pictures/1828_fw.png	297.1683225631714	
246	239.17792558670044	picture	0		102	244.0	/experiments/Knapen_AOT/AOT_stimuli/pictures/0437_fw.png	297.18478989601135	0.8584146499633789
246	240.01979565620422	response	0	k		244.0	/experiments/Knapen_AOT/AOT_stimuli/pictures/0437_fw.png	298.02665996551514	
247	240.03634023666382	picture	0		95	245.0	/experiments/Knapen_AOT/AOT_stimuli/pictures/0992_fw.png	298.04320454597473	0.799973726272583
247	240.81980895996094	response	0	j		245.0	/experiments/Knapen_AOT/AOT_stimuli/pictures/0992_fw.png	298.82667326927185	
248	240.8363139629364	picture	0		115	246.0	/experiments/Knapen_AOT/AOT_stimuli/pictures/1053_fw.png	298.8431782722473	0.9666604995727539
248	241.7866451740265	response	0	j		246.0	/experiments/Knapen_AOT/AOT_stimuli/pictures/1053_fw.png	299.7935094833374	
249	241.80297446250916	picture	0		110	247.0	/experiments/Knapen_AOT/AOT_stimuli/pictures/1385_fw.png	299.80983877182007	0.9183523654937744
249	242.7115786075592	response	0	k		247.0	/experiments/Knapen_AOT/AOT_stimuli/pictures/1385_fw.png	300.7184429168701	
250	242.72132682800293	picture	0		315	248.0	/experiments/Knapen_AOT/AOT_stimuli/pictures/1432_fw.png	300.72819113731384	2.6317145824432373
250	245.33681225776672	response	0	j		248.0	/experiments/Knapen_AOT/AOT_stimuli/pictures/1432_fw.png	303.34367656707764	
251	245.35304141044617	picture	0		87	249.0	/experiments/Knapen_AOT/AOT_stimuli/pictures/0942_fw.png	303.3599057197571	0.7294347286224365
251	246.06988978385925	response	0	k		249.0	/experiments/Knapen_AOT/AOT_stimuli/pictures/0942_fw.png	304.07675409317017	
252	246.0824761390686	picture	0		84	250.0	/experiments/Knapen_AOT/AOT_stimuli/pictures/0675_fw.png	304.0893404483795	0.7122468948364258
252	246.7705433368683	response	0	j		250.0	/experiments/Knapen_AOT/AOT_stimuli/pictures/0675_fw.png	304.7774076461792	
253	246.79472303390503	picture	0		496	251.0	/experiments/Knapen_AOT/AOT_stimuli/pictures/1693_fw.png	304.80158734321594	4.141742944717407
253	250.91993522644043	response	0	k		251.0	/experiments/Knapen_AOT/AOT_stimuli/pictures/1693_fw.png	308.92679953575134	
254	250.93646597862244	picture	0		79	252.0	/experiments/Knapen_AOT/AOT_stimuli/pictures/1852_fw.png	308.94333028793335	0.6666347980499268
254	251.58681392669678	response	0	j		252.0	/experiments/Knapen_AOT/AOT_stimuli/pictures/1852_fw.png	309.5936782360077	
255	251.60310077667236	picture	0		95	253.0	/experiments/Knapen_AOT/AOT_stimuli/pictures/1659_fw.png	309.6099650859833	0.8000009059906006
255	252.3867163658142	response	0	j		253.0	/experiments/Knapen_AOT/AOT_stimuli/pictures/1659_fw.png	310.3935806751251	
256	252.40310168266296	picture	0		92	254.0	/experiments/Knapen_AOT/AOT_stimuli/pictures/0820_fw.png	310.4099659919739	0.77504563331604
256	253.1617283821106	response	0	j		254.0	/experiments/Knapen_AOT/AOT_stimuli/pictures/0820_fw.png	311.1685926914215	
257	253.178147315979	picture	0		128	255.0	/experiments/Knapen_AOT/AOT_stimuli/pictures/0564_fw.png	311.1850116252899	1.0709936618804932
257	254.23665070533752	response	0	k		255.0	/experiments/Knapen_AOT/AOT_stimuli/pictures/0564_fw.png	312.24351501464844	
258	254.2491409778595	picture	0		97	256.0	/experiments/Knapen_AOT/AOT_stimuli/pictures/1149_fw.png	312.2560052871704	0.8123388290405273
258	255.0450587272644	response	0	j		256.0	/experiments/Knapen_AOT/AOT_stimuli/pictures/1149_fw.png	313.0519230365753	
259	255.06147980690002	picture	0		101	257.0	/experiments/Knapen_AOT/AOT_stimuli/pictures/0182_fw.png	313.06834411621094	0.8499953746795654
259	255.89498496055603	response	0	j		257.0	/experiments/Knapen_AOT/AOT_stimuli/pictures/0182_fw.png	313.90184926986694	
260	255.9114751815796	picture	0		124	258.0	/experiments/Knapen_AOT/AOT_stimuli/pictures/0968_fw.png	313.9183394908905	1.0417146682739258
260	256.93671011924744	response	0	j		258.0	/experiments/Knapen_AOT/AOT_stimuli/pictures/0968_fw.png	314.94357442855835	
261	256.9531898498535	picture	0		79	259.0	/experiments/Knapen_AOT/AOT_stimuli/pictures/0717_fw.png	314.96005415916443	0.6666855812072754
261	257.6034162044525	response	0	j		259.0	/experiments/Knapen_AOT/AOT_stimuli/pictures/0717_fw.png	315.6102805137634	
262	257.6198754310608	picture	0		103	260.0	/experiments/Knapen_AOT/AOT_stimuli/pictures/1591_fw.png	315.6267397403717	0.8666305541992188
262	258.4700164794922	response	0	k		260.0	/experiments/Knapen_AOT/AOT_stimuli/pictures/1591_fw.png	316.4768807888031	
263	258.48650598526	picture	0		84	261.0	/experiments/Knapen_AOT/AOT_stimuli/pictures/0071_fw.png	316.4933702945709	0.7083325386047363
263	259.1710674762726	response	0	j		261.0	/experiments/Knapen_AOT/AOT_stimuli/pictures/0071_fw.png	317.1779317855835	
264	259.19483852386475	picture	0		115	262.0	/experiments/Knapen_AOT/AOT_stimuli/pictures/0923_fw.png	317.20170283317566	0.9667196273803711
264	260.14507365226746	response	0	k		262.0	/experiments/Knapen_AOT/AOT_stimuli/pictures/0923_fw.png	318.15193796157837	
265	260.1615581512451	picture	0		261	263.0	/experiments/Knapen_AOT/AOT_stimuli/pictures/0009_fw.png	318.16842246055603	2.1778371334075928
265	262.3283898830414	response	0	j		263.0	/experiments/Knapen_AOT/AOT_stimuli/pictures/0009_fw.png	320.3352541923523	
266	262.3393952846527	picture	0		77	264.0	/experiments/Knapen_AOT/AOT_stimuli/pictures/1756_fw.png	320.3462595939636	0.6471676826477051
266	262.96312832832336	response	0	j		264.0	/experiments/Knapen_AOT/AOT_stimuli/pictures/1756_fw.png	320.9699926376343	
267	262.9865629673004	picture	0		117	265.0	/experiments/Knapen_AOT/AOT_stimuli/pictures/0344_fw.png	320.9934272766113	0.9833636283874512
267	263.953444480896	response	0	k		265.0	/experiments/Knapen_AOT/AOT_stimuli/pictures/0344_fw.png	321.9603087902069	
268	263.96992659568787	picture	0		122	266.0	/experiments/Knapen_AOT/AOT_stimuli/pictures/0435_fw.png	321.9767909049988	1.0250177383422852
268	264.97086334228516	response	0	k		266.0	/experiments/Knapen_AOT/AOT_stimuli/pictures/0435_fw.png	322.97772765159607	
269	264.99494433403015	picture	0		91	267.0	/experiments/Knapen_AOT/AOT_stimuli/pictures/1299_fw.png	323.00180864334106	0.7666800022125244
269	265.7453556060791	response	0	j		267.0	/experiments/Knapen_AOT/AOT_stimuli/pictures/1299_fw.png	323.75221991539	
270	265.7616243362427	picture	0		96	268.0	/experiments/Knapen_AOT/AOT_stimuli/pictures/0882_fw.png	323.7684886455536	0.808316707611084
270	266.553777217865	response	0	k		268.0	/experiments/Knapen_AOT/AOT_stimuli/pictures/0882_fw.png	324.5606415271759	
271	266.56994104385376	picture	0		113	269.0	/experiments/Knapen_AOT/AOT_stimuli/pictures/0768_fw.png	324.5768053531647	0.950045108795166
271	267.5035037994385	response	0	k		269.0	/experiments/Knapen_AOT/AOT_stimuli/pictures/0768_fw.png	325.5103681087494	
272	267.5199861526489	picture	0		72	270.0	/experiments/Knapen_AOT/AOT_stimuli/pictures/1838_fw.png	325.52685046195984	0.6083312034606934
272	268.11203169822693	response	0	j		270.0	/experiments/Knapen_AOT/AOT_stimuli/pictures/1838_fw.png	326.11889600753784	
273	268.1283173561096	picture	0		97	271.0	/experiments/Knapen_AOT/AOT_stimuli/pictures/1805_fw.png	326.13518166542053	0.8166568279266357
273	268.9285144805908	response	0	k		271.0	/experiments/Knapen_AOT/AOT_stimuli/pictures/1805_fw.png	326.93537878990173	
274	268.94497418403625	picture	0		85	272.0	/experiments/Knapen_AOT/AOT_stimuli/pictures/1113_fw.png	326.95183849334717	0.7166922092437744
274	269.645215511322	response	0	k		272.0	/experiments/Knapen_AOT/AOT_stimuli/pictures/1113_fw.png	327.65207982063293	
275	269.66166639328003	picture	0		108	273.0	/experiments/Knapen_AOT/AOT_stimuli/pictures/1975_fw.png	327.66853070259094	0.9083199501037598
275	270.5535089969635	response	0	j		273.0	/experiments/Knapen_AOT/AOT_stimuli/pictures/1975_fw.png	328.5603733062744	
276	270.5699863433838	picture	0		194	274.0	/experiments/Knapen_AOT/AOT_stimuli/pictures/0244_fw.png	328.5768506526947	1.6167094707489014
276	272.1717162132263	response	0	k		274.0	/experiments/Knapen_AOT/AOT_stimuli/pictures/0244_fw.png	330.17858052253723	
277	272.1866958141327	picture	0		96	275.0	/experiments/Knapen_AOT/AOT_stimuli/pictures/0311_fw.png	330.1935601234436	0.8056421279907227
277	272.97088718414307	response	0	k		275.0	/experiments/Knapen_AOT/AOT_stimuli/pictures/0311_fw.png	330.977751493454	
278	272.9923379421234	picture	0		103	276.0	/experiments/Knapen_AOT/AOT_stimuli/pictures/0538_fw.png	330.9992022514343	0.869365930557251
278	273.8452410697937	response	0	k		276.0	/experiments/Knapen_AOT/AOT_stimuli/pictures/0538_fw.png	331.8521053791046	
279	273.86170387268066	picture	0		100	277.0	/experiments/Knapen_AOT/AOT_stimuli/pictures/1948_fw.png	331.8685681819916	0.8416717052459717
279	274.68706822395325	response	0	j		277.0	/experiments/Knapen_AOT/AOT_stimuli/pictures/1948_fw.png	332.69393253326416	
280	274.70337557792664	picture	0		101	278.0	/experiments/Knapen_AOT/AOT_stimuli/pictures/2165_fw.png	332.71023988723755	0.850043773651123
280	275.5369818210602	response	0	k		278.0	/experiments/Knapen_AOT/AOT_stimuli/pictures/2165_fw.png	333.5438461303711	
281	275.55341935157776	picture	0		113	279.0	/experiments/Knapen_AOT/AOT_stimuli/pictures/0890_fw.png	333.5602836608887	0.9500086307525635
281	276.48699259757996	response	0	k		279.0	/experiments/Knapen_AOT/AOT_stimuli/pictures/0890_fw.png	334.49385690689087	
282	276.5034279823303	picture	0		93	280.0	/experiments/Knapen_AOT/AOT_stimuli/pictures/0362_fw.png	334.51029229164124	0.7833192348480225
282	277.27042627334595	response	0	k		280.0	/experiments/Knapen_AOT/AOT_stimuli/pictures/0362_fw.png	335.27729058265686	
283	277.28674721717834	picture	0		160	281.0	/experiments/Knapen_AOT/AOT_stimuli/pictures/1239_fw.png	335.29361152648926	1.3417112827301025
283	278.6119680404663	response	0	k		281.0	/experiments/Knapen_AOT/AOT_stimuli/pictures/1239_fw.png	336.6188323497772	
284	278.62845849990845	picture	0		87	282.0	/experiments/Knapen_AOT/AOT_stimuli/pictures/0024_fw.png	336.63532280921936	0.7333042621612549
284	279.3453719615936	response	0	j		282.0	/experiments/Knapen_AOT/AOT_stimuli/pictures/0024_fw.png	337.35223627090454	
285	279.3617627620697	picture	0		118	283.0	/experiments/Knapen_AOT/AOT_stimuli/pictures/0776_fw.png	337.3686270713806	0.9918756484985352
285	280.33708596229553	response	0	k		283.0	/experiments/Knapen_AOT/AOT_stimuli/pictures/0776_fw.png	338.34395027160645	
286	280.35363841056824	picture	0		114	284.0	/experiments/Knapen_AOT/AOT_stimuli/pictures/0867_fw.png	338.36050271987915	0.9582908153533936
286	281.29533314704895	response	0	j		284.0	/experiments/Knapen_AOT/AOT_stimuli/pictures/0867_fw.png	339.30219745635986	
287	281.31192922592163	picture	0		88	285.0	/experiments/Knapen_AOT/AOT_stimuli/pictures/1977_fw.png	339.31879353523254	0.7416102886199951
287	282.03706097602844	response	0	k		285.0	/experiments/Knapen_AOT/AOT_stimuli/pictures/1977_fw.png	340.04392528533936	
288	282.0535395145416	picture	0		96	286.0	/experiments/Knapen_AOT/AOT_stimuli/pictures/0074_fw.png	340.06040382385254	0.8083145618438721
288	282.8453824520111	response	0	j		286.0	/experiments/Knapen_AOT/AOT_stimuli/pictures/0074_fw.png	340.852246761322	
289	282.8618540763855	picture	0		114	287.0	/experiments/Knapen_AOT/AOT_stimuli/pictures/1665_fw.png	340.8687183856964	0.9583494663238525
289	283.80370020866394	response	0	k		287.0	/experiments/Knapen_AOT/AOT_stimuli/pictures/1665_fw.png	341.81056451797485	
290	283.82020354270935	picture	0		91	288.0	/experiments/Knapen_AOT/AOT_stimuli/pictures/2075_fw.png	341.82706785202026	0.7666881084442139
290	284.56330013275146	response	0	j		288.0	/experiments/Knapen_AOT/AOT_stimuli/pictures/2075_fw.png	342.5701644420624	
291	284.58689165115356	picture	0		90	289.0	/experiments/Knapen_AOT/AOT_stimuli/pictures/1288_fw.png	342.5937559604645	0.7583975791931152
291	285.32872319221497	response	0	k		289.0	/experiments/Knapen_AOT/AOT_stimuli/pictures/1288_fw.png	343.3355875015259	
292	285.3452892303467	picture	0		274	290.0	/experiments/Knapen_AOT/AOT_stimuli/pictures/0239_fw.png	343.3521535396576	2.2916040420532227
292	287.62036418914795	response	0	j		290.0	/experiments/Knapen_AOT/AOT_stimuli/pictures/0239_fw.png	345.62722849845886	
293	287.6368932723999	picture	0		84	291.0	/experiments/Knapen_AOT/AOT_stimuli/pictures/0451_fw.png	345.6437575817108	0.7027645111083984
293	288.3287296295166	response	0	j		291.0	/experiments/Knapen_AOT/AOT_stimuli/pictures/0451_fw.png	346.3355939388275	
294	288.3396577835083	picture	0		112	292.0	/experiments/Knapen_AOT/AOT_stimuli/pictures/1272_fw.png	346.3465220928192	0.9389102458953857
294	289.26206493377686	response	0	j		292.0	/experiments/Knapen_AOT/AOT_stimuli/pictures/1272_fw.png	347.26892924308777	
295	289.2785680294037	picture	0		91	293.0	/experiments/Knapen_AOT/AOT_stimuli/pictures/1881_fw.png	347.2854323387146	0.7666952610015869
295	290.028767824173	response	0	k		293.0	/experiments/Knapen_AOT/AOT_stimuli/pictures/1881_fw.png	348.0356321334839	
296	290.0452632904053	picture	0		259	294.0	/experiments/Knapen_AOT/AOT_stimuli/pictures/1279_fw.png	348.0521275997162	2.1666743755340576
296	292.19546723365784	response	0	k		294.0	/experiments/Knapen_AOT/AOT_stimuli/pictures/1279_fw.png	350.20233154296875	
297	292.21193766593933	picture	0		82	295.0	/experiments/Knapen_AOT/AOT_stimuli/pictures/0241_fw.png	350.21880197525024	0.6835379600524902
297	292.8871479034424	response	0	k		295.0	/experiments/Knapen_AOT/AOT_stimuli/pictures/0241_fw.png	350.8940122127533	
298	292.8954756259918	picture	0		100	296.0	/experiments/Knapen_AOT/AOT_stimuli/pictures/1077_fw.png	350.90233993530273	0.841477632522583
298	293.7204747200012	response	0	k		296.0	/experiments/Knapen_AOT/AOT_stimuli/pictures/1077_fw.png	351.72733902931213	
299	293.7369532585144	picture	0		101	297.0	/experiments/Knapen_AOT/AOT_stimuli/pictures/1582_fw.png	351.7438175678253	0.8499894142150879
299	294.56373357772827	response	0	k		297.0	/experiments/Knapen_AOT/AOT_stimuli/pictures/1582_fw.png	352.5705978870392	
300	294.5869426727295	picture	0		153	298.0	/experiments/Knapen_AOT/AOT_stimuli/pictures/0046_fw.png	352.5938069820404	1.283379316329956
300	295.8538451194763	response	0	k		298.0	/experiments/Knapen_AOT/AOT_stimuli/pictures/0046_fw.png	353.86070942878723	
301	295.87032198905945	picture	0		99	299.0	/experiments/Knapen_AOT/AOT_stimuli/pictures/1411_fw.png	353.87718629837036	0.833350419998169
301	296.68724370002747	response	0	k		299.0	/experiments/Knapen_AOT/AOT_stimuli/pictures/1411_fw.png	354.6941080093384	
302	296.7036724090576	picture	0		140	300.0	/experiments/Knapen_AOT/AOT_stimuli/pictures/1085_fw.png	354.71053671836853	1.175050973892212
302	297.86217641830444	response	0	j		300.0	/experiments/Knapen_AOT/AOT_stimuli/pictures/1085_fw.png	355.86904072761536	
303	297.87872338294983	picture	0		107	301.0	/experiments/Knapen_AOT/AOT_stimuli/pictures/2090_fw.png	355.88558769226074	0.8999793529510498
303	298.7550435066223	response	0	j		301.0	/experiments/Knapen_AOT/AOT_stimuli/pictures/2090_fw.png	356.7619078159332	
304	298.7787027359009	picture	0		96	302.0	/experiments/Knapen_AOT/AOT_stimuli/pictures/1981_fw.png	356.7855670452118	0.8083148002624512
304	299.56303787231445	response	0	j		302.0	/experiments/Knapen_AOT/AOT_stimuli/pictures/1981_fw.png	357.56990218162537	
305	299.58701753616333	picture	0		122	303.0	/experiments/Knapen_AOT/AOT_stimuli/pictures/2043_fw.png	357.59388184547424	1.025029182434082
305	300.595636844635	response	0	k		303.0	/experiments/Knapen_AOT/AOT_stimuli/pictures/2043_fw.png	358.6025011539459	
306	300.6120467185974	picture	0		147	304.0	/experiments/Knapen_AOT/AOT_stimuli/pictures/1811_fw.png	358.6189110279083	1.2333405017852783
306	301.828932762146	response	0	k		304.0	/experiments/Knapen_AOT/AOT_stimuli/pictures/1811_fw.png	359.8357970714569	
307	301.8453872203827	picture	0		99	305.0	/experiments/Knapen_AOT/AOT_stimuli/pictures/0800_fw.png	359.8522515296936	0.8333244323730469
307	302.66231536865234	response	0	k		305.0	/experiments/Knapen_AOT/AOT_stimuli/pictures/0800_fw.png	360.66917967796326	
308	302.67871165275574	picture	0		132	306.0	/experiments/Knapen_AOT/AOT_stimuli/pictures/0841_fw.png	360.68557596206665	1.108381748199463
308	303.770929813385	response	0	k		306.0	/experiments/Knapen_AOT/AOT_stimuli/pictures/0841_fw.png	361.7777941226959	
309	303.7870934009552	picture	0		112	307.0	/experiments/Knapen_AOT/AOT_stimuli/pictures/1551_fw.png	361.7939577102661	0.9416427612304688
309	304.7122941017151	response	0	k		307.0	/experiments/Knapen_AOT/AOT_stimuli/pictures/1551_fw.png	362.719158411026	
310	304.72873616218567	picture	0		188	308.0	/experiments/Knapen_AOT/AOT_stimuli/pictures/1045_fw.png	362.7356004714966	1.5750644207000732
310	306.28729248046875	response	0	k		308.0	/experiments/Knapen_AOT/AOT_stimuli/pictures/1045_fw.png	364.29415678977966	
311	306.30380058288574	picture	0		98	309.0	/experiments/Knapen_AOT/AOT_stimuli/pictures/1400_fw.png	364.31066489219666	0.824986457824707
311	307.1123032569885	response	0	k		309.0	/experiments/Knapen_AOT/AOT_stimuli/pictures/1400_fw.png	365.11916756629944	
312	307.12878704071045	picture	0		74	310.0	/experiments/Knapen_AOT/AOT_stimuli/pictures/1654_fw.png	365.13565135002136	0.6250138282775879
312	307.7373549938202	response	0	j		310.0	/experiments/Knapen_AOT/AOT_stimuli/pictures/1654_fw.png	365.7442193031311	
313	307.75380086898804	picture	0		117	311.0	/experiments/Knapen_AOT/AOT_stimuli/pictures/1192_fw.png	365.76066517829895	0.9833574295043945
313	308.720641374588	response	0	k		311.0	/experiments/Knapen_AOT/AOT_stimuli/pictures/1192_fw.png	366.7275056838989	
314	308.73715829849243	picture	0		138	312.0	/experiments/Knapen_AOT/AOT_stimuli/pictures/0862_fw.png	366.74402260780334	1.158332109451294
314	309.87899804115295	response	0	k		312.0	/experiments/Knapen_AOT/AOT_stimuli/pictures/0862_fw.png	367.88586235046387	
315	309.8954904079437	picture	0		82	313.0	/experiments/Knapen_AOT/AOT_stimuli/pictures/0563_fw.png	367.90235471725464	0.6874029636383057
315	310.56339144706726	response	0	j		313.0	/experiments/Knapen_AOT/AOT_stimuli/pictures/0563_fw.png	368.5702557563782	
316	310.58289337158203	picture	0		75	314.0	/experiments/Knapen_AOT/AOT_stimuli/pictures/0258_fw.png	368.58975768089294	0.629300594329834
316	311.19569396972656	response	0	j		314.0	/experiments/Knapen_AOT/AOT_stimuli/pictures/0258_fw.png	369.2025582790375	
317	311.21219396591187	picture	0		116	315.0	/experiments/Knapen_AOT/AOT_stimuli/pictures/2098_fw.png	369.2190582752228	0.9749741554260254
317	312.17072772979736	response	0	k		315.0	/experiments/Knapen_AOT/AOT_stimuli/pictures/2098_fw.png	370.1775920391083	
318	312.1871681213379	picture	0		79	316.0	/experiments/Knapen_AOT/AOT_stimuli/pictures/0218_fw.png	370.1940324306488	0.6666717529296875
318	312.83742594718933	response	0	j		316.0	/experiments/Knapen_AOT/AOT_stimuli/pictures/0218_fw.png	370.84429025650024	
319	312.8538398742676	picture	0		109	317.0	/experiments/Knapen_AOT/AOT_stimuli/pictures/0395_fw.png	370.8607041835785	0.9166989326477051
319	313.7468693256378	response	0	k		317.0	/experiments/Knapen_AOT/AOT_stimuli/pictures/0395_fw.png	371.75373363494873	
320	313.7705388069153	picture	0		120	318.0	/experiments/Knapen_AOT/AOT_stimuli/pictures/0960_fw.png	371.7774031162262	1.0083353519439697
320	314.7550239562988	response	0	k		318.0	/experiments/Knapen_AOT/AOT_stimuli/pictures/0960_fw.png	372.76188826560974	
321	314.77887415885925	picture	0		100	319.0	/experiments/Knapen_AOT/AOT_stimuli/pictures/0337_fw.png	372.78573846817017	0.8416788578033447
321	315.60407161712646	response	0	j		319.0	/experiments/Knapen_AOT/AOT_stimuli/pictures/0337_fw.png	373.6109359264374	
322	315.6205530166626	picture	0		192	320.0	/experiments/Knapen_AOT/AOT_stimuli/pictures/1538_fw.png	373.6274173259735	1.6083588600158691
322	317.21241426467896	response	0	k		320.0	/experiments/Knapen_AOT/AOT_stimuli/pictures/1538_fw.png	375.21927857398987	
323	317.22891187667847	picture	0		142	321.0	/experiments/Knapen_AOT/AOT_stimuli/pictures/0481_fw.png	375.2357761859894	1.1916630268096924
323	318.4040939807892	response	0	k		321.0	/experiments/Knapen_AOT/AOT_stimuli/pictures/0481_fw.png	376.4109582901001	
324	318.42057490348816	picture	0		103	322.0	/experiments/Knapen_AOT/AOT_stimuli/pictures/0255_fw.png	376.4274392127991	0.8667118549346924
324	319.2707884311676	response	0	k		322.0	/experiments/Knapen_AOT/AOT_stimuli/pictures/0255_fw.png	377.2776527404785	
325	319.28728675842285	picture	0		95	323.0	/experiments/Knapen_AOT/AOT_stimuli/pictures/1657_fw.png	377.29415106773376	0.8000216484069824
325	320.07079696655273	response	0	k		323.0	/experiments/Knapen_AOT/AOT_stimuli/pictures/1657_fw.png	378.07766127586365	
326	320.08730840682983	picture	0		81	324.0	/experiments/Knapen_AOT/AOT_stimuli/pictures/1667_fw.png	378.09417271614075	0.6833136081695557
326	320.7472767829895	response	0	j		324.0	/experiments/Knapen_AOT/AOT_stimuli/pictures/1667_fw.png	378.7541410923004	
327	320.7706220149994	picture	0		135	325.0	/experiments/Knapen_AOT/AOT_stimuli/pictures/1774_fw.png	378.7774863243103	1.1333427429199219
327	321.88748836517334	response	0	j		325.0	/experiments/Knapen_AOT/AOT_stimuli/pictures/1774_fw.png	379.89435267448425	
328	321.9039647579193	picture	0		122	326.0	/experiments/Knapen_AOT/AOT_stimuli/pictures/0963_fw.png	379.9108290672302	1.0250301361083984
328	322.9125669002533	response	0	k		326.0	/experiments/Knapen_AOT/AOT_stimuli/pictures/0963_fw.png	380.9194312095642	
329	322.9289948940277	picture	0		104	327.0	/experiments/Knapen_AOT/AOT_stimuli/pictures/1194_fw.png	380.9358592033386	0.8750183582305908
329	323.78756880760193	response	0	j		327.0	/experiments/Knapen_AOT/AOT_stimuli/pictures/1194_fw.png	381.79443311691284	
330	323.8040132522583	picture	0		154	328.0	/experiments/Knapen_AOT/AOT_stimuli/pictures/1323_fw.png	381.8108775615692	1.2916686534881592
330	325.0792427062988	response	0	j		328.0	/experiments/Knapen_AOT/AOT_stimuli/pictures/1323_fw.png	383.08610701560974	
331	325.09568190574646	picture	0		119	329.0	/experiments/Knapen_AOT/AOT_stimuli/pictures/0184_fw.png	383.1025462150574	1.0000152587890625
331	326.07923412323	response	0	k		329.0	/experiments/Knapen_AOT/AOT_stimuli/pictures/0184_fw.png	384.0860984325409	
332	326.0956971645355	picture	0		122	330.0	/experiments/Knapen_AOT/AOT_stimuli/pictures/1117_fw.png	384.10256147384644	1.0249900817871094
332	327.1042504310608	response	0	k		330.0	/experiments/Knapen_AOT/AOT_stimuli/pictures/1117_fw.png	385.1111147403717	
333	327.12068724632263	picture	0		72	331.0	/experiments/Knapen_AOT/AOT_stimuli/pictures/0879_fw.png	385.12755155563354	0.6083474159240723
333	327.71262288093567	response	0	j		331.0	/experiments/Knapen_AOT/AOT_stimuli/pictures/0879_fw.png	385.7194871902466	
334	327.7290346622467	picture	0		107	332.0	/experiments/Knapen_AOT/AOT_stimuli/pictures/0130_fw.png	385.7358989715576	0.9000260829925537
334	328.61257338523865	response	0	k		332.0	/experiments/Knapen_AOT/AOT_stimuli/pictures/0130_fw.png	386.61943769454956	
335	328.62906074523926	picture	0		87	333.0	/experiments/Knapen_AOT/AOT_stimuli/pictures/2023_fw.png	386.63592505455017	0.7333197593688965
335	329.34587717056274	response	0	j		333.0	/experiments/Knapen_AOT/AOT_stimuli/pictures/2023_fw.png	387.35274147987366	
336	329.36238050460815	picture	0		109	334.0	/experiments/Knapen_AOT/AOT_stimuli/pictures/0295_fw.png	387.36924481391907	0.9166808128356934
336	330.2626156806946	response	0	j		334.0	/experiments/Knapen_AOT/AOT_stimuli/pictures/0295_fw.png	388.2694799900055	
337	330.27906131744385	picture	0		119	335.0	/experiments/Knapen_AOT/AOT_stimuli/pictures/0815_fw.png	388.28592562675476	1.0000426769256592
337	331.2626004219055	response	0	k		335.0	/experiments/Knapen_AOT/AOT_stimuli/pictures/0815_fw.png	389.26946473121643	
338	331.2791039943695	picture	0		114	336.0	/experiments/Knapen_AOT/AOT_stimuli/pictures/1112_fw.png	389.2859683036804	0.9583208560943604
338	332.2209849357605	response	0	k		336.0	/experiments/Knapen_AOT/AOT_stimuli/pictures/1112_fw.png	390.2278492450714	
339	332.23742485046387	picture	0		84	337.0	/experiments/Knapen_AOT/AOT_stimuli/pictures/0186_fw.png	390.2442891597748	0.7083370685577393
339	332.92295575141907	response	0	k		337.0	/experiments/Knapen_AOT/AOT_stimuli/pictures/0186_fw.png	390.92982006073	
340	332.9457619190216	picture	0		124	338.0	/experiments/Knapen_AOT/AOT_stimuli/pictures/0601_fw.png	390.9526262283325	1.041689395904541
340	333.97096967697144	response	0	k		338.0	/experiments/Knapen_AOT/AOT_stimuli/pictures/0601_fw.png	391.97783398628235	
341	333.98745131492615	picture	0		78	339.0	/experiments/Knapen_AOT/AOT_stimuli/pictures/1076_fw.png	391.99431562423706	0.6583375930786133
341	334.6292884349823	response	0	k		339.0	/experiments/Knapen_AOT/AOT_stimuli/pictures/1076_fw.png	392.6361527442932	
342	334.64578890800476	picture	0		233	340.0	/experiments/Knapen_AOT/AOT_stimuli/pictures/0022_fw.png	392.6526532173157	1.9500317573547363
342	336.57935094833374	response	0	k		340.0	/experiments/Knapen_AOT/AOT_stimuli/pictures/0022_fw.png	394.58621525764465	
343	336.5958206653595	picture	0		153	341.0	/experiments/Knapen_AOT/AOT_stimuli/pictures/0790_fw.png	394.6026849746704	1.283369541168213
343	337.8626799583435	response	0	k		341.0	/experiments/Knapen_AOT/AOT_stimuli/pictures/0790_fw.png	395.8695442676544	
344	337.8791902065277	picture	0		83	342.0	/experiments/Knapen_AOT/AOT_stimuli/pictures/0341_fw.png	395.8860545158386	0.6999828815460205
344	338.5630795955658	response	0	j		342.0	/experiments/Knapen_AOT/AOT_stimuli/pictures/0341_fw.png	396.5699439048767	
345	338.57917308807373	picture	0		217	343.0	/experiments/Knapen_AOT/AOT_stimuli/pictures/0103_fw.png	396.58603739738464	1.8166940212249756
345	340.37965202331543	response	0	k		343.0	/experiments/Knapen_AOT/AOT_stimuli/pictures/0103_fw.png	398.38651633262634	
346	340.3958671092987	picture	0		82	344.0	/experiments/Knapen_AOT/AOT_stimuli/pictures/0181_fw.png	398.4027314186096	0.6916868686676025
346	341.0710554122925	response	0	j		344.0	/experiments/Knapen_AOT/AOT_stimuli/pictures/0181_fw.png	399.0779197216034	
347	341.0875539779663	picture	0		78	345.0	/experiments/Knapen_AOT/AOT_stimuli/pictures/1493_fw.png	399.0944182872772	0.6583335399627686
347	341.7294020652771	response	0	j		345.0	/experiments/Knapen_AOT/AOT_stimuli/pictures/1493_fw.png	399.736266374588	
348	341.7458875179291	picture	0		86	346.0	/experiments/Knapen_AOT/AOT_stimuli/pictures/0439_fw.png	399.75275182724	0.7250797748565674
348	342.4544930458069	response	0	j		346.0	/experiments/Knapen_AOT/AOT_stimuli/pictures/0439_fw.png	400.4613573551178	
349	342.47096729278564	picture	0		84	347.0	/experiments/Knapen_AOT/AOT_stimuli/pictures/0789_fw.png	400.47783160209656	0.7082605361938477
349	343.16292667388916	response	0	j		347.0	/experiments/Knapen_AOT/AOT_stimuli/pictures/0789_fw.png	401.1697909832001	
350	343.1792278289795	picture	0		100	348.0	/experiments/Knapen_AOT/AOT_stimuli/pictures/1800_fw.png	401.1860921382904	0.8416666984558105
350	344.0044062137604	response	0	k		348.0	/experiments/Knapen_AOT/AOT_stimuli/pictures/1800_fw.png	402.0112705230713	
351	344.0208945274353	picture	0		110	349.0	/experiments/Knapen_AOT/AOT_stimuli/pictures/1204_fw.png	402.0277588367462	0.9250202178955078
351	344.9295189380646	response	0	k		349.0	/experiments/Knapen_AOT/AOT_stimuli/pictures/1204_fw.png	402.9363832473755	
352	344.9459147453308	picture	0		106	350.0	/experiments/Knapen_AOT/AOT_stimuli/pictures/0871_fw.png	402.9527790546417	0.8917665481567383
352	345.8211238384247	response	0	k		350.0	/experiments/Knapen_AOT/AOT_stimuli/pictures/0871_fw.png	403.8279881477356	
353	345.83768129348755	picture	0		69	351.0	/experiments/Knapen_AOT/AOT_stimuli/pictures/1011_fw.png	403.84454560279846	0.5833141803741455
353	346.40451073646545	response	0	j		351.0	/experiments/Knapen_AOT/AOT_stimuli/pictures/1011_fw.png	404.41137504577637	
354	346.4209954738617	picture	0		87	352.0	/experiments/Knapen_AOT/AOT_stimuli/pictures/0759_fw.png	404.4278597831726	0.7332861423492432
354	347.1311218738556	response	0	j		352.0	/experiments/Knapen_AOT/AOT_stimuli/pictures/0759_fw.png	405.1379861831665	
355	347.15428161621094	picture	0		114	353.0	/experiments/Knapen_AOT/AOT_stimuli/pictures/2145_fw.png	405.16114592552185	0.9583780765533447
355	348.09614539146423	response	0	k		353.0	/experiments/Knapen_AOT/AOT_stimuli/pictures/2145_fw.png	406.10300970077515	
356	348.1126596927643	picture	0		94	354.0	/experiments/Knapen_AOT/AOT_stimuli/pictures/1711_fw.png	406.1195240020752	0.7916369438171387
356	348.8878126144409	response	0	k		354.0	/experiments/Knapen_AOT/AOT_stimuli/pictures/1711_fw.png	406.89467692375183	
357	348.9042966365814	picture	0		94	355.0	/experiments/Knapen_AOT/AOT_stimuli/pictures/1129_fw.png	406.91116094589233	0.7916717529296875
357	349.6795425415039	response	0	k		355.0	/experiments/Knapen_AOT/AOT_stimuli/pictures/1129_fw.png	407.6864068508148	
358	349.6959683895111	picture	0		80	356.0	/experiments/Knapen_AOT/AOT_stimuli/pictures/0381_fw.png	407.702832698822	0.675044059753418
358	350.3475248813629	response	0	k		356.0	/experiments/Knapen_AOT/AOT_stimuli/pictures/0381_fw.png	408.3543891906738	
359	350.3710124492645	picture	0		90	357.0	/experiments/Knapen_AOT/AOT_stimuli/pictures/1832_fw.png	408.37787675857544	0.7582991123199463
359	351.1128649711609	response	0	j		357.0	/experiments/Knapen_AOT/AOT_stimuli/pictures/1832_fw.png	409.1197292804718	
360	351.1293115615845	picture	0		89	358.0	/experiments/Knapen_AOT/AOT_stimuli/pictures/0149_fw.png	409.1361758708954	0.7500076293945312
360	351.86283326148987	response	0	j		358.0	/experiments/Knapen_AOT/AOT_stimuli/pictures/0149_fw.png	409.8696975708008	
361	351.879319190979	picture	0		99	359.0	/experiments/Knapen_AOT/AOT_stimuli/pictures/0138_fw.png	409.8861835002899	0.8333694934844971
361	352.6961760520935	response	0	j		359.0	/experiments/Knapen_AOT/AOT_stimuli/pictures/0138_fw.png	410.7030403614044	
362	352.7126886844635	stim	0		307			410.7195529937744	2.577030897140503
362	355.26983642578125	response	0	space				413.27670073509216	
