trial_nr	onset	event_type	phase	response	nr_frames	picture_index	picture_file	onset_abs	duration
0	0.15855789184570312	stim	0		669			112.61032390594482	5.649377107620239
0	5.766427993774414	response	0	space				118.21819400787354	
2	5.807934999465942	picture	0		180	0.0	/experiments/knapen_aot/AOT/AOT_stimuli/pictures/1718_fw.png	118.25970101356506	1.508368968963623
2	7.299721956253052	response	0	j		0.0	/experiments/knapen_aot/AOT/AOT_stimuli/pictures/1718_fw.png	119.75148797035217	
3	7.316303968429565	picture	0		101	1.0	/experiments/knapen_aot/AOT/AOT_stimuli/pictures/0812_fw.png	119.76806998252869	0.8426809310913086
3	8.149738788604736	response	0	j		1.0	/experiments/knapen_aot/AOT/AOT_stimuli/pictures/0812_fw.png	120.60150480270386	
4	8.158984899520874	picture	0		95	2.0	/experiments/knapen_aot/AOT/AOT_stimuli/pictures/0787_fw.png	120.61075091362	0.7989659309387207
4	8.941484928131104	response	0	k		2.0	/experiments/knapen_aot/AOT/AOT_stimuli/pictures/0787_fw.png	121.39325094223022	
5	8.957950830459595	picture	0		132	3.0	/experiments/knapen_aot/AOT/AOT_stimuli/pictures/1320_fw.png	121.40971684455872	1.1032710075378418
5	10.049683809280396	response	0	k		3.0	/experiments/knapen_aot/AOT/AOT_stimuli/pictures/1320_fw.png	122.50144982337952	
6	10.061221837997437	picture	0		93	4.0	/experiments/knapen_aot/AOT/AOT_stimuli/pictures/1603_fw.png	122.51298785209656	0.7800431251525879
6	10.825559854507446	response	0	j		4.0	/experiments/knapen_aot/AOT/AOT_stimuli/pictures/1603_fw.png	123.27732586860657	
7	10.841264963150024	picture	0		129	5.0	/experiments/knapen_aot/AOT/AOT_stimuli/pictures/0862_fw.png	123.29303097724915	1.0880088806152344
7	11.908824920654297	response	0	j		5.0	/experiments/knapen_aot/AOT/AOT_stimuli/pictures/0862_fw.png	124.36059093475342	
8	11.929273843765259	picture	0		119	6.0	/experiments/knapen_aot/AOT/AOT_stimuli/pictures/1196_fw.png	124.38103985786438	1.0068860054016113
8	12.916371822357178	response	0	k		6.0	/experiments/knapen_aot/AOT/AOT_stimuli/pictures/1196_fw.png	125.3681378364563	
9	12.93615984916687	picture	0		160	7.0	/experiments/knapen_aot/AOT/AOT_stimuli/pictures/1736_fw.png	125.38792586326599	1.333320140838623
9	14.258044004440308	response	0	k		7.0	/experiments/knapen_aot/AOT/AOT_stimuli/pictures/1736_fw.png	126.70981001853943	
10	14.269479990005493	picture	0		154	8.0	/experiments/knapen_aot/AOT/AOT_stimuli/pictures/0110_fw.png	126.72124600410461	1.2846858501434326
10	15.54138994216919	response	0	j		8.0	/experiments/knapen_aot/AOT/AOT_stimuli/pictures/0110_fw.png	127.99315595626831	
11	15.554165840148926	picture	0		108	9.0	/experiments/knapen_aot/AOT/AOT_stimuli/pictures/1128_fw.png	128.00593185424805	0.8962221145629883
11	16.44133996963501	response	0	k		9.0	/experiments/knapen_aot/AOT/AOT_stimuli/pictures/1128_fw.png	128.89310598373413	
12	16.450387954711914	picture	0		93	10.0	/experiments/knapen_aot/AOT/AOT_stimuli/pictures/1668_fw.png	128.90215396881104	0.7774109840393066
12	17.209690809249878	response	0	j		10.0	/experiments/knapen_aot/AOT/AOT_stimuli/pictures/1668_fw.png	129.661456823349	
13	17.22779893875122	picture	0		130	11.0	/experiments/knapen_aot/AOT/AOT_stimuli/pictures/1038_fw.png	129.67956495285034	1.0903210639953613
13	18.29976987838745	response	0	j		11.0	/experiments/knapen_aot/AOT/AOT_stimuli/pictures/1038_fw.png	130.75153589248657	
14	18.318120002746582	picture	0		152	12.0	/experiments/knapen_aot/AOT/AOT_stimuli/pictures/0461_fw.png	130.7698860168457	1.2814068794250488
14	19.575562000274658	response	0	k		12.0	/experiments/knapen_aot/AOT/AOT_stimuli/pictures/0461_fw.png	132.02732801437378	
15	19.59952688217163	picture	0		114	13.0	/experiments/knapen_aot/AOT/AOT_stimuli/pictures/0832_fw.png	132.05129289627075	0.9666879177093506
15	20.541393995285034	response	0	k		13.0	/experiments/knapen_aot/AOT/AOT_stimuli/pictures/0832_fw.png	132.99316000938416	
16	20.56621479988098	picture	0		87	14.0	/experiments/knapen_aot/AOT/AOT_stimuli/pictures/0548_fw.png	133.0179808139801	0.7333312034606934
16	21.283798933029175	response	0	j		14.0	/experiments/knapen_aot/AOT/AOT_stimuli/pictures/0548_fw.png	133.7355649471283	
17	21.299546003341675	picture	0		99	15.0	/experiments/knapen_aot/AOT/AOT_stimuli/pictures/0995_fw.png	133.7513120174408	0.8333358764648438
17	22.117210865020752	response	0	k		15.0	/experiments/knapen_aot/AOT/AOT_stimuli/pictures/0995_fw.png	134.56897687911987	
18	22.13288187980652	picture	0		88	16.0	/experiments/knapen_aot/AOT/AOT_stimuli/pictures/2025_fw.png	134.58464789390564	0.7341220378875732
18	22.858022928237915	response	0	k		16.0	/experiments/knapen_aot/AOT/AOT_stimuli/pictures/2025_fw.png	135.30978894233704	
19	22.867003917694092	picture	0		91	17.0	/experiments/knapen_aot/AOT/AOT_stimuli/pictures/0613_fw.png	135.3187699317932	0.7658588886260986
19	23.61713695526123	response	0	j		17.0	/experiments/knapen_aot/AOT/AOT_stimuli/pictures/0613_fw.png	136.06890296936035	
20	23.63286280632019	picture	0		111	18.0	/experiments/knapen_aot/AOT/AOT_stimuli/pictures/0309_fw.png	136.0846288204193	0.9281871318817139
20	24.549649953842163	response	0	k		18.0	/experiments/knapen_aot/AOT/AOT_stimuli/pictures/0309_fw.png	137.00141596794128	
21	24.561049938201904	picture	0		85	19.0	/experiments/knapen_aot/AOT/AOT_stimuli/pictures/2166_fw.png	137.01281595230103	0.7083039283752441
21	25.258105993270874	response	0	j		19.0	/experiments/knapen_aot/AOT/AOT_stimuli/pictures/2166_fw.png	137.70987200737	
22	25.26935386657715	picture	0		83	20.0	/experiments/knapen_aot/AOT/AOT_stimuli/pictures/0443_fw.png	137.72111988067627	0.6969261169433594
22	25.950594902038574	response	0	k		20.0	/experiments/knapen_aot/AOT/AOT_stimuli/pictures/0443_fw.png	138.4023609161377	
23	25.966279983520508	picture	0		93	21.0	/experiments/knapen_aot/AOT/AOT_stimuli/pictures/0870_fw.png	138.41804599761963	0.7757449150085449
23	26.73306179046631	response	0	k		21.0	/experiments/knapen_aot/AOT/AOT_stimuli/pictures/0870_fw.png	139.18482780456543	
24	26.742024898529053	picture	0		102	22.0	/experiments/knapen_aot/AOT/AOT_stimuli/pictures/0134_fw.png	139.19379091262817	0.8537321090698242
24	27.57725691795349	response	0	k		22.0	/experiments/knapen_aot/AOT/AOT_stimuli/pictures/0134_fw.png	140.0290229320526	
25	27.595757007598877	picture	0		102	23.0	/experiments/knapen_aot/AOT/AOT_stimuli/pictures/1497_fw.png	140.047523021698	0.8472139835357666
25	28.433180809020996	response	0	k		23.0	/experiments/knapen_aot/AOT/AOT_stimuli/pictures/1497_fw.png	140.88494682312012	
26	28.442970991134644	picture	0		138	24.0	/experiments/knapen_aot/AOT/AOT_stimuli/pictures/1304_fw.png	140.89473700523376	1.156566858291626
26	29.577030897140503	response	0	k		24.0	/experiments/knapen_aot/AOT/AOT_stimuli/pictures/1304_fw.png	142.02879691123962	
27	29.59953784942627	picture	0		84	25.0	/experiments/knapen_aot/AOT/AOT_stimuli/pictures/0823_fw.png	142.0513038635254	0.7045371532440186
27	30.291399002075195	response	0	j		25.0	/experiments/knapen_aot/AOT/AOT_stimuli/pictures/0823_fw.png	142.74316501617432	
28	30.304075002670288	picture	0		89	26.0	/experiments/knapen_aot/AOT/AOT_stimuli/pictures/0848_fw.png	142.7558410167694	0.745438814163208
28	31.03377079963684	response	0	k		26.0	/experiments/knapen_aot/AOT/AOT_stimuli/pictures/0848_fw.png	143.48553681373596	
29	31.049513816833496	picture	0		84	27.0	/experiments/knapen_aot/AOT/AOT_stimuli/pictures/1611_fw.png	143.50127983093262	0.7083311080932617
29	31.742278814315796	response	0	j		27.0	/experiments/knapen_aot/AOT/AOT_stimuli/pictures/1611_fw.png	144.19404482841492	
30	31.757844924926758	picture	0		90	28.0	/experiments/knapen_aot/AOT/AOT_stimuli/pictures/0582_fw.png	144.20961093902588	0.7583279609680176
30	32.499581813812256	response	0	k		28.0	/experiments/knapen_aot/AOT/AOT_stimuli/pictures/0582_fw.png	144.95134782791138	
31	32.516172885894775	picture	0		82	29.0	/experiments/knapen_aot/AOT/AOT_stimuli/pictures/0381_fw.png	144.9679388999939	0.6916830539703369
31	33.191287994384766	response	0	k		29.0	/experiments/knapen_aot/AOT/AOT_stimuli/pictures/0381_fw.png	145.6430540084839	
32	33.20785593986511	picture	0		92	30.0	/experiments/knapen_aot/AOT/AOT_stimuli/pictures/1527_fw.png	145.65962195396423	0.7916538715362549
32	33.966277837753296	response	0	k		30.0	/experiments/knapen_aot/AOT/AOT_stimuli/pictures/1527_fw.png	146.41804385185242	
33	33.99950981140137	picture	0		83	31.0	/experiments/knapen_aot/AOT/AOT_stimuli/pictures/1188_fw.png	146.4512758255005	0.7083160877227783
33	34.68299579620361	response	0	j		31.0	/experiments/knapen_aot/AOT/AOT_stimuli/pictures/1188_fw.png	147.13476181030273	
34	34.707825899124146	picture	0		98	32.0	/experiments/knapen_aot/AOT/AOT_stimuli/pictures/0782_fw.png	147.15959191322327	0.8333160877227783
34	35.5162239074707	response	0	j		32.0	/experiments/knapen_aot/AOT/AOT_stimuli/pictures/0782_fw.png	147.96798992156982	
35	35.541141986846924	picture	0		87	33.0	/experiments/knapen_aot/AOT/AOT_stimuli/pictures/1867_fw.png	147.99290800094604	0.7333478927612305
35	36.25798678398132	response	0	k		33.0	/experiments/knapen_aot/AOT/AOT_stimuli/pictures/1867_fw.png	148.70975279808044	
36	36.274489879608154	picture	0		87	34.0	/experiments/knapen_aot/AOT/AOT_stimuli/pictures/1644_fw.png	148.72625589370728	0.7333409786224365
36	36.99225091934204	response	0	k		34.0	/experiments/knapen_aot/AOT/AOT_stimuli/pictures/1644_fw.png	149.44401693344116	
37	37.00783085823059	picture	0		112	35.0	/experiments/knapen_aot/AOT/AOT_stimuli/pictures/0147_fw.png	149.4595968723297	0.9351389408111572
37	37.93296480178833	response	0	k		35.0	/experiments/knapen_aot/AOT/AOT_stimuli/pictures/0147_fw.png	150.38473081588745	
38	37.94296979904175	picture	0		184	36.0	/experiments/knapen_aot/AOT/AOT_stimuli/pictures/0923_fw.png	150.39473581314087	1.5345981121063232
38	39.46627688407898	response	0	k		36.0	/experiments/knapen_aot/AOT/AOT_stimuli/pictures/0923_fw.png	151.9180428981781	
39	39.47756791114807	picture	0		88	37.0	/experiments/knapen_aot/AOT/AOT_stimuli/pictures/0720_fw.png	151.9293339252472	0.7385449409484863
39	40.193081855773926	response	0	j		37.0	/experiments/knapen_aot/AOT/AOT_stimuli/pictures/0720_fw.png	152.64484786987305	
40	40.21611285209656	picture	0		79	38.0	/experiments/knapen_aot/AOT/AOT_stimuli/pictures/0970_fw.png	152.66787886619568	0.66668701171875
40	40.86714482307434	response	0	j		38.0	/experiments/knapen_aot/AOT/AOT_stimuli/pictures/0970_fw.png	153.31891083717346	
41	40.88279986381531	picture	0		277	39.0	/experiments/knapen_aot/AOT/AOT_stimuli/pictures/1002_fw.png	153.33456587791443	2.3166909217834473
41	43.18295979499817	response	0	k		39.0	/experiments/knapen_aot/AOT/AOT_stimuli/pictures/1002_fw.png	155.6347258090973	
42	43.199490785598755	picture	0		110	40.0	/experiments/knapen_aot/AOT/AOT_stimuli/pictures/1839_fw.png	155.65125679969788	0.9174602031707764
42	44.10789084434509	response	0	k		40.0	/experiments/knapen_aot/AOT/AOT_stimuli/pictures/1839_fw.png	156.5596568584442	
43	44.11695098876953	picture	0		73	41.0	/experiments/knapen_aot/AOT/AOT_stimuli/pictures/0429_fw.png	156.56871700286865	0.6105568408966064
43	44.7162549495697	response	0	j		41.0	/experiments/knapen_aot/AOT/AOT_stimuli/pictures/0429_fw.png	157.16802096366882	
44	44.72750782966614	picture	0		81	42.0	/experiments/knapen_aot/AOT/AOT_stimuli/pictures/0554_fw.png	157.17927384376526	0.6736249923706055
44	45.3847758769989	response	0	j		42.0	/experiments/knapen_aot/AOT/AOT_stimuli/pictures/0554_fw.png	157.83654189109802	
45	45.40113282203674	picture	0		82	43.0	/experiments/knapen_aot/AOT/AOT_stimuli/pictures/1998_fw.png	157.85289883613586	0.6900219917297363
45	46.075339794158936	response	0	j		43.0	/experiments/knapen_aot/AOT/AOT_stimuli/pictures/1998_fw.png	158.52710580825806	
46	46.09115481376648	picture	0		98	44.0	/experiments/knapen_aot/AOT/AOT_stimuli/pictures/1113_fw.png	158.5429208278656	0.824970006942749
46	46.89958596229553	response	0	k		44.0	/experiments/knapen_aot/AOT/AOT_stimuli/pictures/1113_fw.png	159.35135197639465	
47	46.91612482070923	picture	0		105	45.0	/experiments/knapen_aot/AOT/AOT_stimuli/pictures/0411_fw.png	159.36789083480835	0.8833200931549072
47	47.7837438583374	response	0	j		45.0	/experiments/knapen_aot/AOT/AOT_stimuli/pictures/0411_fw.png	160.23550987243652	
48	47.799444913864136	picture	0		92	46.0	/experiments/knapen_aot/AOT/AOT_stimuli/pictures/0402_fw.png	160.25121092796326	0.7749700546264648
48	48.55792999267578	response	0	j		46.0	/experiments/knapen_aot/AOT/AOT_stimuli/pictures/0402_fw.png	161.0096960067749	
49	48.5744149684906	picture	0		117	47.0	/experiments/knapen_aot/AOT/AOT_stimuli/pictures/0241_fw.png	161.02618098258972	0.9916808605194092
49	49.541242837905884	response	0	k		47.0	/experiments/knapen_aot/AOT/AOT_stimuli/pictures/0241_fw.png	161.993008852005	
50	49.56609582901001	picture	0		80	48.0	/experiments/knapen_aot/AOT/AOT_stimuli/pictures/0946_fw.png	162.01786184310913	0.6833641529083252
50	50.21794295310974	response	0	j		48.0	/experiments/knapen_aot/AOT/AOT_stimuli/pictures/0946_fw.png	162.66970896720886	
51	50.249459981918335	picture	0		84	49.0	/experiments/knapen_aot/AOT/AOT_stimuli/pictures/1067_fw.png	162.70122599601746	0.7166099548339844
51	50.94121599197388	response	0	j		49.0	/experiments/knapen_aot/AOT/AOT_stimuli/pictures/1067_fw.png	163.392982006073	
52	50.96606993675232	picture	0		104	50.0	/experiments/knapen_aot/AOT/AOT_stimuli/pictures/0040_fw.png	163.41783595085144	0.875079870223999
52	51.82535982131958	response	0	j		50.0	/experiments/knapen_aot/AOT/AOT_stimuli/pictures/0040_fw.png	164.2771258354187	
53	51.84114980697632	picture	0		99	51.0	/experiments/knapen_aot/AOT/AOT_stimuli/pictures/0568_fw.png	164.29291582107544	0.8332490921020508
53	52.65870499610901	response	0	k		51.0	/experiments/knapen_aot/AOT/AOT_stimuli/pictures/0568_fw.png	165.11047101020813	
54	52.67439889907837	picture	0		99	52.0	/experiments/knapen_aot/AOT/AOT_stimuli/pictures/2047_fw.png	165.1261649131775	0.8333220481872559
54	53.49199891090393	response	0	k		52.0	/experiments/knapen_aot/AOT/AOT_stimuli/pictures/2047_fw.png	165.94376492500305	
55	53.507720947265625	picture	0		99	53.0	/experiments/knapen_aot/AOT/AOT_stimuli/pictures/0343_fw.png	165.95948696136475	0.8335490226745605
55	54.32547187805176	response	0	j		53.0	/experiments/knapen_aot/AOT/AOT_stimuli/pictures/0343_fw.png	166.77723789215088	
56	54.341269969940186	picture	0		202	54.0	/experiments/knapen_aot/AOT/AOT_stimuli/pictures/1040_fw.png	166.7930359840393	1.6847338676452637
56	56.00939178466797	response	0	k		54.0	/experiments/knapen_aot/AOT/AOT_stimuli/pictures/1040_fw.png	168.4611577987671	
57	56.02600383758545	picture	0		163	55.0	/experiments/knapen_aot/AOT/AOT_stimuli/pictures/2082_fw.png	168.47776985168457	1.3610961437225342
57	57.374520778656006	response	0	k		55.0	/experiments/knapen_aot/AOT/AOT_stimuli/pictures/2082_fw.png	169.82628679275513	
58	57.38709998130798	picture	0		127	56.0	/experiments/knapen_aot/AOT/AOT_stimuli/pictures/0307_fw.png	169.8388659954071	1.0555369853973389
58	58.426328897476196	response	0	j		56.0	/experiments/knapen_aot/AOT/AOT_stimuli/pictures/0307_fw.png	170.87809491157532	
59	58.44263696670532	picture	0		92	57.0	/experiments/knapen_aot/AOT/AOT_stimuli/pictures/1112_fw.png	170.89440298080444	0.7734110355377197
59	59.20023989677429	response	0	k		57.0	/experiments/knapen_aot/AOT/AOT_stimuli/pictures/1112_fw.png	171.6520059108734	
60	59.21604800224304	picture	0		90	58.0	/experiments/knapen_aot/AOT/AOT_stimuli/pictures/0056_fw.png	171.66781401634216	0.7544238567352295
60	59.95777893066406	response	0	k		58.0	/experiments/knapen_aot/AOT/AOT_stimuli/pictures/0056_fw.png	172.40954494476318	
61	59.97047185897827	picture	0		95	59.0	/experiments/knapen_aot/AOT/AOT_stimuli/pictures/2006_fw.png	172.4222378730774	0.7955849170684814
61	60.74958777427673	response	0	k		59.0	/experiments/knapen_aot/AOT/AOT_stimuli/pictures/2006_fw.png	173.20135378837585	
62	60.76605677604675	picture	0		262	60.0	/experiments/knapen_aot/AOT/AOT_stimuli/pictures/1299_fw.png	173.21782279014587	2.1916921138763428
62	62.941139936447144	response	0	k		60.0	/experiments/knapen_aot/AOT/AOT_stimuli/pictures/1299_fw.png	175.39290595054626	
63	62.957748889923096	picture	0		102	61.0	/experiments/knapen_aot/AOT/AOT_stimuli/pictures/2072_fw.png	175.40951490402222	0.8749339580535889
63	63.79951786994934	response	0	k		61.0	/experiments/knapen_aot/AOT/AOT_stimuli/pictures/2072_fw.png	176.25128388404846	
64	63.832682847976685	picture	0		176	62.0	/experiments/knapen_aot/AOT/AOT_stimuli/pictures/1506_fw.png	176.2844488620758	1.485016107559204
64	65.2911148071289	response	0	k		62.0	/experiments/knapen_aot/AOT/AOT_stimuli/pictures/1506_fw.png	177.74288082122803	
65	65.31769895553589	picture	0		95	63.0	/experiments/knapen_aot/AOT/AOT_stimuli/pictures/1625_fw.png	177.769464969635	0.7983348369598389
65	66.09947681427002	response	0	k		63.0	/experiments/knapen_aot/AOT/AOT_stimuli/pictures/1625_fw.png	178.55124282836914	
66	66.11603379249573	picture	0		85	64.0	/experiments/knapen_aot/AOT/AOT_stimuli/pictures/0120_fw.png	178.56779980659485	0.7166671752929688
66	66.80958485603333	response	0	j		64.0	/experiments/knapen_aot/AOT/AOT_stimuli/pictures/0120_fw.png	179.26135087013245	
67	66.8327009677887	picture	0		107	65.0	/experiments/knapen_aot/AOT/AOT_stimuli/pictures/2154_fw.png	179.28446698188782	0.8999998569488525
67	67.71636700630188	response	0	k		65.0	/experiments/knapen_aot/AOT/AOT_stimuli/pictures/2154_fw.png	180.168133020401	
68	67.73270082473755	picture	0		69	66.0	/experiments/knapen_aot/AOT/AOT_stimuli/pictures/2016_fw.png	180.18446683883667	0.5779831409454346
68	68.29948592185974	response	0	j		66.0	/experiments/knapen_aot/AOT/AOT_stimuli/pictures/2016_fw.png	180.75125193595886	
69	68.31068396568298	picture	0		81	67.0	/experiments/knapen_aot/AOT/AOT_stimuli/pictures/1223_fw.png	180.7624499797821	0.6736259460449219
69	68.97450280189514	response	0	k		67.0	/experiments/knapen_aot/AOT/AOT_stimuli/pictures/1223_fw.png	181.42626881599426	
70	68.9843099117279	picture	0		87	68.0	/experiments/knapen_aot/AOT/AOT_stimuli/pictures/0428_fw.png	181.43607592582703	0.7317020893096924
70	69.70023894309998	response	0	k		68.0	/experiments/knapen_aot/AOT/AOT_stimuli/pictures/0428_fw.png	182.1520049571991	
71	69.7160120010376	picture	0		100	69.0	/experiments/knapen_aot/AOT/AOT_stimuli/pictures/1454_fw.png	182.16777801513672	0.837622880935669
71	70.5411479473114	response	0	j		69.0	/experiments/knapen_aot/AOT/AOT_stimuli/pictures/1454_fw.png	182.99291396141052	
72	70.55363488197327	picture	0		108	70.0	/experiments/knapen_aot/AOT/AOT_stimuli/pictures/1350_fw.png	183.0054008960724	0.8965508937835693
72	71.43458485603333	response	0	j		70.0	/experiments/knapen_aot/AOT/AOT_stimuli/pictures/1350_fw.png	183.88635087013245	
73	71.45018577575684	picture	0		91	71.0	/experiments/knapen_aot/AOT/AOT_stimuli/pictures/1815_fw.png	183.90195178985596	0.7658321857452393
73	72.20038294792175	response	0	j		71.0	/experiments/knapen_aot/AOT/AOT_stimuli/pictures/1815_fw.png	184.65214896202087	
74	72.21601796150208	picture	0		96	72.0	/experiments/knapen_aot/AOT/AOT_stimuli/pictures/0505_fw.png	184.6677839756012	0.8028829097747803
74	73.00114393234253	response	0	k		72.0	/experiments/knapen_aot/AOT/AOT_stimuli/pictures/0505_fw.png	185.45290994644165	
75	73.01890087127686	picture	0		123	73.0	/experiments/knapen_aot/AOT/AOT_stimuli/pictures/0026_fw.png	185.47066688537598	1.030432939529419
75	74.02613687515259	response	0	j		73.0	/experiments/knapen_aot/AOT/AOT_stimuli/pictures/0026_fw.png	186.4779028892517	
76	74.04933381080627	picture	0		100	74.0	/experiments/knapen_aot/AOT/AOT_stimuli/pictures/0586_fw.png	186.5010998249054	0.8416430950164795
76	74.87444877624512	response	0	k		74.0	/experiments/knapen_aot/AOT/AOT_stimuli/pictures/0586_fw.png	187.32621479034424	
77	74.89097690582275	picture	0		95	75.0	/experiments/knapen_aot/AOT/AOT_stimuli/pictures/1662_fw.png	187.34274291992188	0.7945899963378906
77	75.67443799972534	response	0	j		75.0	/experiments/knapen_aot/AOT/AOT_stimuli/pictures/1662_fw.png	188.12620401382446	
78	75.68556690216064	picture	0		87	76.0	/experiments/knapen_aot/AOT/AOT_stimuli/pictures/0833_fw.png	188.13733291625977	0.7228379249572754
78	76.39954280853271	response	0	j		76.0	/experiments/knapen_aot/AOT/AOT_stimuli/pictures/0833_fw.png	188.85130882263184	
79	76.40840482711792	picture	0		122	77.0	/experiments/knapen_aot/AOT/AOT_stimuli/pictures/0865_fw.png	188.86017084121704	1.0241949558258057
79	77.41018581390381	response	0	k		77.0	/experiments/knapen_aot/AOT/AOT_stimuli/pictures/0865_fw.png	189.86195182800293	
80	77.43259978294373	picture	0		124	78.0	/experiments/knapen_aot/AOT/AOT_stimuli/pictures/0086_fw.png	189.88436579704285	1.066716194152832
80	78.45771980285645	response	0	k		78.0	/experiments/knapen_aot/AOT/AOT_stimuli/pictures/0086_fw.png	190.90948581695557	
81	78.49931597709656	picture	0		90	79.0	/experiments/knapen_aot/AOT/AOT_stimuli/pictures/2102_fw.png	190.95108199119568	0.769514799118042
81	79.23447895050049	response	0	j		79.0	/experiments/knapen_aot/AOT/AOT_stimuli/pictures/2102_fw.png	191.6862449645996	
82	79.2688307762146	picture	0		102	80.0	/experiments/knapen_aot/AOT/AOT_stimuli/pictures/2003_fw.png	191.72059679031372	0.8637881278991699
82	80.10777878761292	response	0	k		80.0	/experiments/knapen_aot/AOT/AOT_stimuli/pictures/2003_fw.png	192.55954480171204	
83	80.13261890411377	picture	0		109	81.0	/experiments/knapen_aot/AOT/AOT_stimuli/pictures/1433_fw.png	192.5843849182129	0.9166738986968994
83	81.0261960029602	response	0	k		81.0	/experiments/knapen_aot/AOT/AOT_stimuli/pictures/1433_fw.png	193.47796201705933	
84	81.04929280281067	picture	0		75	82.0	/experiments/knapen_aot/AOT/AOT_stimuli/pictures/0842_fw.png	193.5010588169098	0.6292781829833984
84	81.6661307811737	response	0	j		82.0	/experiments/knapen_aot/AOT/AOT_stimuli/pictures/0842_fw.png	194.11789679527283	
85	81.67857098579407	picture	0		96	83.0	/experiments/knapen_aot/AOT/AOT_stimuli/pictures/0313_fw.png	194.1303369998932	0.804049015045166
85	82.46608877182007	response	0	k		83.0	/experiments/knapen_aot/AOT/AOT_stimuli/pictures/0313_fw.png	194.9178547859192	
86	82.48262000083923	picture	0		116	84.0	/experiments/knapen_aot/AOT/AOT_stimuli/pictures/1368_fw.png	194.93438601493835	0.9674539566040039
86	83.43450999259949	response	0	j		84.0	/experiments/knapen_aot/AOT/AOT_stimuli/pictures/1368_fw.png	195.8862760066986	
87	83.45007395744324	picture	0		100	85.0	/experiments/knapen_aot/AOT/AOT_stimuli/pictures/0677_fw.png	195.90183997154236	0.83341383934021
87	84.2744369506836	response	0	k		85.0	/experiments/knapen_aot/AOT/AOT_stimuli/pictures/0677_fw.png	196.72620296478271	
88	84.28348779678345	picture	0		96	86.0	/experiments/knapen_aot/AOT/AOT_stimuli/pictures/0250_fw.png	196.73525381088257	0.8074359893798828
88	85.0751678943634	response	0	j		86.0	/experiments/knapen_aot/AOT/AOT_stimuli/pictures/0250_fw.png	197.52693390846252	
89	85.09092378616333	picture	0		86	87.0	/experiments/knapen_aot/AOT/AOT_stimuli/pictures/1503_fw.png	197.54268980026245	0.7195301055908203
89	85.79946398735046	response	0	k		87.0	/experiments/knapen_aot/AOT/AOT_stimuli/pictures/1503_fw.png	198.25123000144958	
90	85.81045389175415	picture	0		116	88.0	/experiments/knapen_aot/AOT/AOT_stimuli/pictures/0645_fw.png	198.26221990585327	0.9653310775756836
90	86.766117811203	response	0	k		88.0	/experiments/knapen_aot/AOT/AOT_stimuli/pictures/0645_fw.png	199.21788382530212	
91	86.77578496932983	picture	0		73	89.0	/experiments/knapen_aot/AOT/AOT_stimuli/pictures/1533_fw.png	199.22755098342896	0.6151959896087646
91	87.37442994117737	response	0	j		89.0	/experiments/knapen_aot/AOT/AOT_stimuli/pictures/1533_fw.png	199.8261959552765	
92	87.3909809589386	picture	0		84	90.0	/experiments/knapen_aot/AOT/AOT_stimuli/pictures/1701_fw.png	199.84274697303772	0.7041640281677246
92	88.0827260017395	response	0	k		90.0	/experiments/knapen_aot/AOT/AOT_stimuli/pictures/1701_fw.png	200.53449201583862	
93	88.09514498710632	picture	0		80	91.0	/experiments/knapen_aot/AOT/AOT_stimuli/pictures/0926_fw.png	200.54691100120544	0.6666948795318604
93	88.74939489364624	response	0	j		91.0	/experiments/knapen_aot/AOT/AOT_stimuli/pictures/0926_fw.png	201.20116090774536	
94	88.76183986663818	picture	0		126	92.0	/experiments/knapen_aot/AOT/AOT_stimuli/pictures/1359_fw.png	201.2136058807373	1.0541200637817383
94	89.799400806427	response	0	k		92.0	/experiments/knapen_aot/AOT/AOT_stimuli/pictures/1359_fw.png	202.25116682052612	
95	89.81595993041992	picture	0		110	93.0	/experiments/knapen_aot/AOT/AOT_stimuli/pictures/1342_fw.png	202.26772594451904	0.9249410629272461
95	90.72441482543945	response	0	j		93.0	/experiments/knapen_aot/AOT/AOT_stimuli/pictures/1342_fw.png	203.17618083953857	
96	90.74090099334717	picture	0		90	94.0	/experiments/knapen_aot/AOT/AOT_stimuli/pictures/0462_fw.png	203.1926670074463	0.7583818435668945
96	91.48268580436707	response	0	k		94.0	/experiments/knapen_aot/AOT/AOT_stimuli/pictures/0462_fw.png	203.9344518184662	
97	91.49928283691406	picture	0		105	95.0	/experiments/knapen_aot/AOT/AOT_stimuli/pictures/1231_fw.png	203.95104885101318	0.8832230567932129
97	92.36608600616455	response	0	k		95.0	/experiments/knapen_aot/AOT/AOT_stimuli/pictures/1231_fw.png	204.81785202026367	
98	92.38250589370728	picture	0		73	96.0	/experiments/knapen_aot/AOT/AOT_stimuli/pictures/1026_fw.png	204.8342719078064	0.6417419910430908
98	92.9826807975769	response	0	j		96.0	/experiments/knapen_aot/AOT/AOT_stimuli/pictures/1026_fw.png	205.43444681167603	
99	93.02424788475037	picture	0		98	97.0	/experiments/knapen_aot/AOT/AOT_stimuli/pictures/1917_fw.png	205.4760138988495	0.8348050117492676
99	93.82610177993774	response	0	j		97.0	/experiments/knapen_aot/AOT/AOT_stimuli/pictures/1917_fw.png	206.27786779403687	
100	93.85905289649963	picture	0		95	98.0	/experiments/knapen_aot/AOT/AOT_stimuli/pictures/1184_fw.png	206.31081891059875	0.8068258762359619
100	94.63450288772583	response	0	j		98.0	/experiments/knapen_aot/AOT/AOT_stimuli/pictures/1184_fw.png	207.08626890182495	
101	94.6658787727356	picture	0		78	99.0	/experiments/knapen_aot/AOT/AOT_stimuli/pictures/0912_fw.png	207.11764478683472	0.6583671569824219
101	95.30766797065735	response	0	j		99.0	/experiments/knapen_aot/AOT/AOT_stimuli/pictures/0912_fw.png	207.75943398475647	
102	95.32424592971802	picture	0		92	100.0	/experiments/knapen_aot/AOT/AOT_stimuli/pictures/1168_fw.png	207.77601194381714	0.7708699703216553
102	96.08270788192749	response	0	j		100.0	/experiments/knapen_aot/AOT/AOT_stimuli/pictures/1168_fw.png	208.5344738960266	
103	96.09511590003967	picture	0		78	101.0	/experiments/knapen_aot/AOT/AOT_stimuli/pictures/0688_fw.png	208.5468819141388	0.65419602394104
103	96.73270678520203	response	0	k		101.0	/experiments/knapen_aot/AOT/AOT_stimuli/pictures/0688_fw.png	209.18447279930115	
104	96.74931192398071	picture	0		107	102.0	/experiments/knapen_aot/AOT/AOT_stimuli/pictures/1062_fw.png	209.20107793807983	0.8943569660186768
104	97.62597489356995	response	0	k		102.0	/experiments/knapen_aot/AOT/AOT_stimuli/pictures/1062_fw.png	210.07774090766907	
105	97.64366888999939	picture	0		88	103.0	/experiments/knapen_aot/AOT/AOT_stimuli/pictures/0606_fw.png	210.0954349040985	0.7361159324645996
105	98.36603093147278	response	0	j		103.0	/experiments/knapen_aot/AOT/AOT_stimuli/pictures/0606_fw.png	210.8177969455719	
106	98.37978482246399	picture	0		82	104.0	/experiments/knapen_aot/AOT/AOT_stimuli/pictures/0301_fw.png	210.8315508365631	0.6874849796295166
106	99.05103993415833	response	0	j		104.0	/experiments/knapen_aot/AOT/AOT_stimuli/pictures/0301_fw.png	211.50280594825745	
107	99.0672698020935	picture	0		86	105.0	/experiments/knapen_aot/AOT/AOT_stimuli/pictures/1619_fw.png	211.51903581619263	0.7154850959777832
107	99.7743468284607	response	0	j		105.0	/experiments/knapen_aot/AOT/AOT_stimuli/pictures/1619_fw.png	212.22611284255981	
108	99.78275489807129	picture	0		82	106.0	/experiments/knapen_aot/AOT/AOT_stimuli/pictures/2159_fw.png	212.2345209121704	0.6873130798339844
108	100.4510338306427	response	0	j		106.0	/experiments/knapen_aot/AOT/AOT_stimuli/pictures/2159_fw.png	212.90279984474182	
109	100.47006797790527	picture	0		80	107.0	/experiments/knapen_aot/AOT/AOT_stimuli/pictures/0981_fw.png	212.9218339920044	0.6666228771209717
109	101.1243348121643	response	0	j		107.0	/experiments/knapen_aot/AOT/AOT_stimuli/pictures/0981_fw.png	213.57610082626343	
110	101.13669085502625	picture	0		72	108.0	/experiments/knapen_aot/AOT/AOT_stimuli/pictures/0656_fw.png	213.58845686912537	0.5972349643707275
110	101.72439384460449	response	0	k		108.0	/experiments/knapen_aot/AOT/AOT_stimuli/pictures/0656_fw.png	214.1761598587036	
111	101.73392581939697	picture	0		97	109.0	/experiments/knapen_aot/AOT/AOT_stimuli/pictures/0886_fw.png	214.1856918334961	0.8124961853027344
111	102.5326828956604	response	0	k		109.0	/experiments/knapen_aot/AOT/AOT_stimuli/pictures/0886_fw.png	214.98444890975952	
112	102.5464220046997	picture	0		89	110.0	/experiments/knapen_aot/AOT/AOT_stimuli/pictures/1991_fw.png	214.99818801879883	0.7499709129333496
112	103.28262281417847	response	0	j		110.0	/experiments/knapen_aot/AOT/AOT_stimuli/pictures/1991_fw.png	215.7343888282776	
113	103.29639291763306	picture	0		75	111.0	/experiments/knapen_aot/AOT/AOT_stimuli/pictures/1509_fw.png	215.74815893173218	0.6319470405578613
113	103.91599798202515	response	0	k		111.0	/experiments/knapen_aot/AOT/AOT_stimuli/pictures/1509_fw.png	216.36776399612427	
114	103.92833995819092	picture	0		89	112.0	/experiments/knapen_aot/AOT/AOT_stimuli/pictures/1256_fw.png	216.38010597229004	0.7431209087371826
114	104.65094590187073	response	0	j		112.0	/experiments/knapen_aot/AOT/AOT_stimuli/pictures/1256_fw.png	217.10271191596985	
115	104.6714608669281	picture	0		95	113.0	/experiments/knapen_aot/AOT/AOT_stimuli/pictures/0790_fw.png	217.12322688102722	0.8026869297027588
115	105.45100498199463	response	0	k		113.0	/experiments/knapen_aot/AOT/AOT_stimuli/pictures/0790_fw.png	217.90277099609375	
116	105.47414779663086	picture	0		132	114.0	/experiments/knapen_aot/AOT/AOT_stimuli/pictures/1582_fw.png	217.92591381072998	1.1083362102508545
116	106.5659248828888	response	0	k		114.0	/experiments/knapen_aot/AOT/AOT_stimuli/pictures/1582_fw.png	219.01769089698792	
117	106.58248400688171	picture	0		106	115.0	/experiments/knapen_aot/AOT/AOT_stimuli/pictures/0765_fw.png	219.03425002098083	0.8916919231414795
117	107.45761394500732	response	0	k		115.0	/experiments/knapen_aot/AOT/AOT_stimuli/pictures/0765_fw.png	219.90937995910645	
118	107.4741759300232	picture	0		79	116.0	/experiments/knapen_aot/AOT/AOT_stimuli/pictures/1072_fw.png	219.92594194412231	0.6763498783111572
118	108.12431979179382	response	0	j		116.0	/experiments/knapen_aot/AOT/AOT_stimuli/pictures/1072_fw.png	220.57608580589294	
119	108.15052580833435	picture	0		87	117.0	/experiments/knapen_aot/AOT/AOT_stimuli/pictures/1162_fw.png	220.60229182243347	0.7403240203857422
119	108.86599278450012	response	0	k		117.0	/experiments/knapen_aot/AOT/AOT_stimuli/pictures/1162_fw.png	221.31775879859924	
120	108.89084982872009	picture	0		77	118.0	/experiments/knapen_aot/AOT/AOT_stimuli/pictures/1877_fw.png	221.3426158428192	0.6583211421966553
120	109.52432298660278	response	0	j		118.0	/experiments/knapen_aot/AOT/AOT_stimuli/pictures/1877_fw.png	221.9760890007019	
121	109.54917097091675	picture	0		81	119.0	/experiments/knapen_aot/AOT/AOT_stimuli/pictures/1598_fw.png	222.00093698501587	0.6833579540252686
121	110.21599888801575	response	0	k		119.0	/experiments/knapen_aot/AOT/AOT_stimuli/pictures/1598_fw.png	222.66776490211487	
122	110.23252892494202	picture	0		83	120.0	/experiments/knapen_aot/AOT/AOT_stimuli/pictures/0130_fw.png	222.68429493904114	0.6999599933624268
122	110.91598987579346	response	0	j		120.0	/experiments/knapen_aot/AOT/AOT_stimuli/pictures/0130_fw.png	223.36775588989258	
123	110.93248891830444	picture	0		112	121.0	/experiments/knapen_aot/AOT/AOT_stimuli/pictures/0742_fw.png	223.38425493240356	0.9416570663452148
123	111.8576169013977	response	0	j		121.0	/experiments/knapen_aot/AOT/AOT_stimuli/pictures/0742_fw.png	224.30938291549683	
124	111.87414598464966	picture	0		88	122.0	/experiments/knapen_aot/AOT/AOT_stimuli/pictures/0924_fw.png	224.32591199874878	0.734673023223877
124	112.5993139743805	response	0	k		122.0	/experiments/knapen_aot/AOT/AOT_stimuli/pictures/0924_fw.png	225.05107998847961	
125	112.60881900787354	picture	0		98	123.0	/experiments/knapen_aot/AOT/AOT_stimuli/pictures/1198_fw.png	225.06058502197266	0.819490909576416
125	113.41597080230713	response	0	k		123.0	/experiments/knapen_aot/AOT/AOT_stimuli/pictures/1198_fw.png	225.86773681640625	
126	113.42830991744995	picture	0		87	124.0	/experiments/knapen_aot/AOT/AOT_stimuli/pictures/1363_fw.png	225.88007593154907	0.7221369743347168
126	114.14096593856812	response	0	j		124.0	/experiments/knapen_aot/AOT/AOT_stimuli/pictures/1363_fw.png	226.59273195266724	
127	114.15044689178467	picture	0		87	125.0	/experiments/knapen_aot/AOT/AOT_stimuli/pictures/0689_fw.png	226.6022129058838	0.7291820049285889
127	114.865966796875	response	0	k		125.0	/experiments/knapen_aot/AOT/AOT_stimuli/pictures/0689_fw.png	227.31773281097412	
128	114.87962889671326	picture	0		80	126.0	/experiments/knapen_aot/AOT/AOT_stimuli/pictures/1170_fw.png	227.33139491081238	0.6736240386962891
128	115.54095077514648	response	0	k		126.0	/experiments/knapen_aot/AOT/AOT_stimuli/pictures/1170_fw.png	227.9927167892456	
129	115.55325293540955	picture	0		82	127.0	/experiments/knapen_aot/AOT/AOT_stimuli/pictures/1607_fw.png	228.00501894950867	0.6805720329284668
129	116.22424697875977	response	0	k		127.0	/experiments/knapen_aot/AOT/AOT_stimuli/pictures/1607_fw.png	228.6760129928589	
130	116.23382496833801	picture	0		109	128.0	/experiments/knapen_aot/AOT/AOT_stimuli/pictures/1452_fw.png	228.68559098243713	0.9153330326080322
130	117.13277196884155	response	0	k		128.0	/experiments/knapen_aot/AOT/AOT_stimuli/pictures/1452_fw.png	229.58453798294067	
131	117.14915800094604	picture	0		171	129.0	/experiments/knapen_aot/AOT/AOT_stimuli/pictures/1687_fw.png	229.60092401504517	1.4249777793884277
131	118.56588888168335	response	0	j		129.0	/experiments/knapen_aot/AOT/AOT_stimuli/pictures/1687_fw.png	231.01765489578247	
132	118.57413578033447	picture	0		216	130.0	/experiments/knapen_aot/AOT/AOT_stimuli/pictures/0597_fw.png	231.0259017944336	1.808420181274414
132	120.36596894264221	response	0	j		130.0	/experiments/knapen_aot/AOT/AOT_stimuli/pictures/0597_fw.png	232.81773495674133	
133	120.38255596160889	picture	0		84	131.0	/experiments/knapen_aot/AOT/AOT_stimuli/pictures/0780_fw.png	232.834321975708	0.7054059505462646
133	121.07426881790161	response	0	j		131.0	/experiments/knapen_aot/AOT/AOT_stimuli/pictures/0780_fw.png	233.52603483200073	
134	121.08796191215515	picture	0		87	132.0	/experiments/knapen_aot/AOT/AOT_stimuli/pictures/0101_fw.png	233.53972792625427	0.7361969947814941
134	121.80761480331421	response	0	j		132.0	/experiments/knapen_aot/AOT/AOT_stimuli/pictures/0101_fw.png	234.25938081741333	
135	121.82415890693665	picture	0		87	133.0	/experiments/knapen_aot/AOT/AOT_stimuli/pictures/1114_fw.png	234.27592492103577	0.7333109378814697
135	122.54111886024475	response	0	k		133.0	/experiments/knapen_aot/AOT/AOT_stimuli/pictures/1114_fw.png	234.99288487434387	
136	122.55746984481812	picture	0		80	134.0	/experiments/knapen_aot/AOT/AOT_stimuli/pictures/0674_fw.png	235.00923585891724	0.6833579540252686
136	123.21597599983215	response	0	j		134.0	/experiments/knapen_aot/AOT/AOT_stimuli/pictures/0674_fw.png	235.66774201393127	
137	123.24082779884338	picture	0		80	135.0	/experiments/knapen_aot/AOT/AOT_stimuli/pictures/1101_fw.png	235.6925938129425	0.6832680702209473
137	123.89928698539734	response	0	k		135.0	/experiments/knapen_aot/AOT/AOT_stimuli/pictures/1101_fw.png	236.35105299949646	
138	123.92409586906433	picture	0		79	136.0	/experiments/knapen_aot/AOT/AOT_stimuli/pictures/0205_fw.png	236.37586188316345	0.6750140190124512
138	124.57425284385681	response	0	j		136.0	/experiments/knapen_aot/AOT/AOT_stimuli/pictures/0205_fw.png	237.02601885795593	
139	124.59910988807678	picture	0		82	137.0	/experiments/knapen_aot/AOT/AOT_stimuli/pictures/1610_fw.png	237.0508759021759	0.683366060256958
139	125.27418279647827	response	0	k		137.0	/experiments/knapen_aot/AOT/AOT_stimuli/pictures/1610_fw.png	237.7259488105774	
140	125.28247594833374	picture	0		132	138.0	/experiments/knapen_aot/AOT/AOT_stimuli/pictures/1290_fw.png	237.73424196243286	1.1082570552825928
140	126.37424278259277	response	0	k		138.0	/experiments/knapen_aot/AOT/AOT_stimuli/pictures/1290_fw.png	238.8260087966919	
141	126.39073300361633	picture	0		147	139.0	/experiments/knapen_aot/AOT/AOT_stimuli/pictures/1016_fw.png	238.84249901771545	1.23350191116333
141	127.60758996009827	response	0	k		139.0	/experiments/knapen_aot/AOT/AOT_stimuli/pictures/1016_fw.png	240.0593559741974	
142	127.62423491477966	picture	0		96	140.0	/experiments/knapen_aot/AOT/AOT_stimuli/pictures/0766_fw.png	240.07600092887878	0.8082480430603027
142	128.41583395004272	response	0	k		140.0	/experiments/knapen_aot/AOT/AOT_stimuli/pictures/0766_fw.png	240.86759996414185	
143	128.43248295783997	picture	0		100	141.0	/experiments/knapen_aot/AOT/AOT_stimuli/pictures/0441_fw.png	240.8842489719391	0.8359279632568359
143	129.25081992149353	response	0	k		141.0	/experiments/knapen_aot/AOT/AOT_stimuli/pictures/0441_fw.png	241.70258593559265	
144	129.2684109210968	picture	0		97	142.0	/experiments/knapen_aot/AOT/AOT_stimuli/pictures/1287_fw.png	241.72017693519592	0.8139839172363281
144	130.05927395820618	response	0	j		142.0	/experiments/knapen_aot/AOT/AOT_stimuli/pictures/1287_fw.png	242.5110399723053	
145	130.08239483833313	picture	0		79	143.0	/experiments/knapen_aot/AOT/AOT_stimuli/pictures/1602_fw.png	242.53416085243225	0.6583390235900879
145	130.7325839996338	response	0	k		143.0	/experiments/knapen_aot/AOT/AOT_stimuli/pictures/1602_fw.png	243.1843500137329	
146	130.74073386192322	picture	0		88	144.0	/experiments/knapen_aot/AOT/AOT_stimuli/pictures/0914_fw.png	243.19249987602234	0.7359681129455566
146	131.45921182632446	response	0	k		144.0	/experiments/knapen_aot/AOT/AOT_stimuli/pictures/0914_fw.png	243.91097784042358	
147	131.47670197486877	picture	0		87	145.0	/experiments/knapen_aot/AOT/AOT_stimuli/pictures/2012_fw.png	243.9284679889679	0.7223989963531494
147	132.19088697433472	response	0	j		145.0	/experiments/knapen_aot/AOT/AOT_stimuli/pictures/2012_fw.png	244.64265298843384	
148	132.19910097122192	picture	0		88	146.0	/experiments/knapen_aot/AOT/AOT_stimuli/pictures/1289_fw.png	244.65086698532104	0.7416298389434814
148	132.92421698570251	response	0	j		146.0	/experiments/knapen_aot/AOT/AOT_stimuli/pictures/1289_fw.png	245.37598299980164	
149	132.9407308101654	picture	0		142	147.0	/experiments/knapen_aot/AOT/AOT_stimuli/pictures/1430_fw.png	245.39249682426453	1.1888611316680908
149	134.11588287353516	response	0	j		147.0	/experiments/knapen_aot/AOT/AOT_stimuli/pictures/1430_fw.png	246.56764888763428	
150	134.1295919418335	picture	0		338	148.0	/experiments/knapen_aot/AOT/AOT_stimuli/pictures/0364_fw.png	246.58135795593262	2.8277809619903564
150	136.94081687927246	response	0	j		148.0	/experiments/knapen_aot/AOT/AOT_stimuli/pictures/0364_fw.png	249.39258289337158	
151	136.95737290382385	picture	0		176	149.0	/experiments/knapen_aot/AOT/AOT_stimuli/pictures/1281_fw.png	249.40913891792297	1.4846439361572266
151	138.41581797599792	response	0	j		149.0	/experiments/knapen_aot/AOT/AOT_stimuli/pictures/1281_fw.png	250.86758399009705	
152	138.44201683998108	picture	0		94	150.0	/experiments/knapen_aot/AOT/AOT_stimuli/pictures/1824_fw.png	250.8937828540802	0.7986500263214111
152	139.2158899307251	response	0	j		150.0	/experiments/knapen_aot/AOT/AOT_stimuli/pictures/1824_fw.png	251.66765594482422	
153	139.2406668663025	picture	0		95	151.0	/experiments/knapen_aot/AOT/AOT_stimuli/pictures/0839_fw.png	251.6924328804016	0.7917859554290771
153	140.0241379737854	response	0	k		151.0	/experiments/knapen_aot/AOT/AOT_stimuli/pictures/0839_fw.png	252.47590398788452	
154	140.03245282173157	picture	0		128	152.0	/experiments/knapen_aot/AOT/AOT_stimuli/pictures/1691_fw.png	252.4842188358307	1.0692031383514404
154	141.09088397026062	response	0	k		152.0	/experiments/knapen_aot/AOT/AOT_stimuli/pictures/1691_fw.png	253.54264998435974	
155	141.101655960083	picture	0		95	153.0	/experiments/knapen_aot/AOT/AOT_stimuli/pictures/2130_fw.png	253.55342197418213	0.7916579246520996
155	141.88254284858704	response	0	j		153.0	/experiments/knapen_aot/AOT/AOT_stimuli/pictures/2130_fw.png	254.33430886268616	
156	141.8933138847351	picture	0		102	154.0	/experiments/knapen_aot/AOT/AOT_stimuli/pictures/0327_fw.png	254.34507989883423	0.8541369438171387
156	142.73248386383057	response	0	j		154.0	/experiments/knapen_aot/AOT/AOT_stimuli/pictures/0327_fw.png	255.1842498779297	
157	142.74745082855225	picture	0		91	155.0	/experiments/knapen_aot/AOT/AOT_stimuli/pictures/1862_fw.png	255.19921684265137	0.7638461589813232
157	143.49913692474365	response	0	j		155.0	/experiments/knapen_aot/AOT/AOT_stimuli/pictures/1862_fw.png	255.95090293884277	
158	143.51129698753357	picture	0		100	156.0	/experiments/knapen_aot/AOT/AOT_stimuli/pictures/2156_fw.png	255.9630630016327	0.8333728313446045
158	144.33251881599426	response	0	k		156.0	/experiments/knapen_aot/AOT/AOT_stimuli/pictures/2156_fw.png	256.7842848300934	
159	144.34466981887817	picture	0		90	157.0	/experiments/knapen_aot/AOT/AOT_stimuli/pictures/1935_fw.png	256.7964358329773	0.7543470859527588
159	145.08252000808716	response	0	k		157.0	/experiments/knapen_aot/AOT/AOT_stimuli/pictures/1935_fw.png	257.5342860221863	
160	145.09901690483093	picture	0		80	158.0	/experiments/knapen_aot/AOT/AOT_stimuli/pictures/0991_fw.png	257.55078291893005	0.6750030517578125
160	145.75750398635864	response	0	j		158.0	/experiments/knapen_aot/AOT/AOT_stimuli/pictures/0991_fw.png	258.20927000045776	
161	145.77401995658875	picture	0		86	159.0	/experiments/knapen_aot/AOT/AOT_stimuli/pictures/0824_fw.png	258.22578597068787	0.7249429225921631
161	146.48249578475952	response	0	k		159.0	/experiments/knapen_aot/AOT/AOT_stimuli/pictures/0824_fw.png	258.93426179885864	
162	146.4989628791809	picture	0		92	160.0	/experiments/knapen_aot/AOT/AOT_stimuli/pictures/1954_fw.png	258.95072889328003	0.7693040370941162
162	147.2508008480072	response	0	j		160.0	/experiments/knapen_aot/AOT/AOT_stimuli/pictures/1954_fw.png	259.7025668621063	
163	147.26826691627502	picture	0		93	161.0	/experiments/knapen_aot/AOT/AOT_stimuli/pictures/1531_fw.png	259.72003293037415	0.7777490615844727
163	148.02743577957153	response	0	k		161.0	/experiments/knapen_aot/AOT/AOT_stimuli/pictures/1531_fw.png	260.47920179367065	
164	148.0460159778595	picture	0		110	162.0	/experiments/knapen_aot/AOT/AOT_stimuli/pictures/0136_fw.png	260.4977819919586	0.9280328750610352
164	148.95754289627075	response	0	k		162.0	/experiments/knapen_aot/AOT/AOT_stimuli/pictures/0136_fw.png	261.4093089103699	
165	148.97404885292053	picture	0		100	163.0	/experiments/knapen_aot/AOT/AOT_stimuli/pictures/2097_fw.png	261.42581486701965	0.8358769416809082
165	149.79916191101074	response	0	k		163.0	/experiments/knapen_aot/AOT/AOT_stimuli/pictures/2097_fw.png	262.25092792510986	
166	149.80992579460144	picture	0		81	164.0	/experiments/knapen_aot/AOT/AOT_stimuli/pictures/0546_fw.png	262.26169180870056	0.6807661056518555
166	150.46753883361816	response	0	j		164.0	/experiments/knapen_aot/AOT/AOT_stimuli/pictures/0546_fw.png	262.9193048477173	
167	150.4906919002533	picture	0		82	165.0	/experiments/knapen_aot/AOT/AOT_stimuli/pictures/0423_fw.png	262.9424579143524	0.6916460990905762
167	151.1657679080963	response	0	j		165.0	/experiments/knapen_aot/AOT/AOT_stimuli/pictures/0423_fw.png	263.61753392219543	
168	151.18233799934387	picture	0		74	166.0	/experiments/knapen_aot/AOT/AOT_stimuli/pictures/1210_fw.png	263.634104013443	0.6250379085540771
168	151.79084396362305	response	0	k		166.0	/experiments/knapen_aot/AOT/AOT_stimuli/pictures/1210_fw.png	264.24260997772217	
169	151.80737590789795	picture	0		97	167.0	/experiments/knapen_aot/AOT/AOT_stimuli/pictures/1530_fw.png	264.25914192199707	0.8165900707244873
169	152.60750079154968	response	0	k		167.0	/experiments/knapen_aot/AOT/AOT_stimuli/pictures/1530_fw.png	265.0592668056488	
170	152.62396597862244	picture	0		88	168.0	/experiments/knapen_aot/AOT/AOT_stimuli/pictures/1827_fw.png	265.07573199272156	0.7583668231964111
170	153.34914088249207	response	0	k		168.0	/experiments/knapen_aot/AOT/AOT_stimuli/pictures/1827_fw.png	265.8009068965912	
171	153.38233280181885	picture	0		87	169.0	/experiments/knapen_aot/AOT/AOT_stimuli/pictures/1994_fw.png	265.83409881591797	0.7416691780090332
171	154.09915399551392	response	0	j		169.0	/experiments/knapen_aot/AOT/AOT_stimuli/pictures/1994_fw.png	266.55092000961304	
172	154.12400197982788	picture	0		73	170.0	/experiments/knapen_aot/AOT/AOT_stimuli/pictures/0233_fw.png	266.575767993927	0.62493896484375
172	154.72413682937622	response	0	k		170.0	/experiments/knapen_aot/AOT/AOT_stimuli/pictures/0233_fw.png	267.17590284347534	
173	154.74894094467163	picture	0		81	171.0	/experiments/knapen_aot/AOT/AOT_stimuli/pictures/1200_fw.png	267.20070695877075	0.6833930015563965
173	155.41581392288208	response	0	j		171.0	/experiments/knapen_aot/AOT/AOT_stimuli/pictures/1200_fw.png	267.8675799369812	
174	155.43233394622803	picture	0		87	172.0	/experiments/knapen_aot/AOT/AOT_stimuli/pictures/0725_fw.png	267.88409996032715	0.8430578708648682
174	156.14927887916565	response	0	k		172.0	/experiments/knapen_aot/AOT/AOT_stimuli/pictures/0725_fw.png	268.60104489326477	
175	156.2753918170929	picture	0		75	173.0	/experiments/knapen_aot/AOT/AOT_stimuli/pictures/1189_fw.png	268.727157831192	1.9442100524902344
175	156.89081287384033	response	0	k		173.0	/experiments/knapen_aot/AOT/AOT_stimuli/pictures/1189_fw.png	269.34257888793945	
176	158.21960186958313	picture	0		14	174.0	/experiments/knapen_aot/AOT/AOT_stimuli/pictures/1355_fw.png	270.67136788368225	0.12108993530273438
176	158.32416081428528	response	0	k		174.0	/experiments/knapen_aot/AOT/AOT_stimuli/pictures/1355_fw.png	270.7759268283844	
177	158.34069180488586	picture	0		252	175.0	/experiments/knapen_aot/AOT/AOT_stimuli/pictures/1753_fw.png	270.792457818985	2.101032018661499
177	160.4323148727417	response	0	k		175.0	/experiments/knapen_aot/AOT/AOT_stimuli/pictures/1753_fw.png	272.8840808868408	
178	160.44172382354736	picture	0		270	176.0	/experiments/knapen_aot/AOT/AOT_stimuli/pictures/0810_fw.png	272.8934898376465	2.2499489784240723
178	162.68240690231323	response	0	k		176.0	/experiments/knapen_aot/AOT/AOT_stimuli/pictures/0810_fw.png	275.13417291641235	
179	162.69167280197144	picture	0		90	177.0	/experiments/knapen_aot/AOT/AOT_stimuli/pictures/1584_fw.png	275.14343881607056	0.7572920322418213
179	163.4323627948761	response	0	j		177.0	/experiments/knapen_aot/AOT/AOT_stimuli/pictures/1584_fw.png	275.8841288089752	
180	163.44896483421326	picture	0		91	178.0	/experiments/knapen_aot/AOT/AOT_stimuli/pictures/0412_fw.png	275.9007308483124	0.7635140419006348
180	164.19907188415527	response	0	j		178.0	/experiments/knapen_aot/AOT/AOT_stimuli/pictures/0412_fw.png	276.6508378982544	
181	164.2124788761139	picture	0		165	179.0	/experiments/knapen_aot/AOT/AOT_stimuli/pictures/0756_fw.png	276.664244890213	1.3819830417633057
181	165.5824499130249	response	0	k		179.0	/experiments/knapen_aot/AOT/AOT_stimuli/pictures/0756_fw.png	278.034215927124	
182	165.5944619178772	picture	0		94	180.0	/experiments/knapen_aot/AOT/AOT_stimuli/pictures/0542_fw.png	278.0462279319763	0.7916219234466553
182	166.37404799461365	response	0	j		180.0	/experiments/knapen_aot/AOT/AOT_stimuli/pictures/0542_fw.png	278.82581400871277	
183	166.38608384132385	picture	0		114	181.0	/experiments/knapen_aot/AOT/AOT_stimuli/pictures/1676_fw.png	278.837849855423	0.9513790607452393
183	167.32405495643616	response	0	j		181.0	/experiments/knapen_aot/AOT/AOT_stimuli/pictures/1676_fw.png	279.7758209705353	
184	167.3374629020691	picture	0		80	182.0	/experiments/knapen_aot/AOT/AOT_stimuli/pictures/0034_fw.png	279.7892289161682	0.673638105392456
184	167.99904799461365	response	0	j		182.0	/experiments/knapen_aot/AOT/AOT_stimuli/pictures/0034_fw.png	280.45081400871277	
185	168.01110100746155	picture	0		83	183.0	/experiments/knapen_aot/AOT/AOT_stimuli/pictures/2098_fw.png	280.46286702156067	0.6961867809295654
185	168.6907148361206	response	0	j		183.0	/experiments/knapen_aot/AOT/AOT_stimuli/pictures/2098_fw.png	281.1424808502197	
186	168.7072877883911	picture	0		154	184.0	/experiments/knapen_aot/AOT/AOT_stimuli/pictures/1332_fw.png	281.15905380249023	1.2916450500488281
186	169.98241591453552	response	0	k		184.0	/experiments/knapen_aot/AOT/AOT_stimuli/pictures/1332_fw.png	282.43418192863464	
187	169.99893283843994	picture	0		107	185.0	/experiments/knapen_aot/AOT/AOT_stimuli/pictures/1767_fw.png	282.45069885253906	0.8940880298614502
187	170.8757779598236	response	0	j		185.0	/experiments/knapen_aot/AOT/AOT_stimuli/pictures/1767_fw.png	283.32754397392273	
188	170.8930208683014	picture	0		85	186.0	/experiments/knapen_aot/AOT/AOT_stimuli/pictures/0746_fw.png	283.3447868824005	0.7142529487609863
188	171.59074592590332	response	0	k		186.0	/experiments/knapen_aot/AOT/AOT_stimuli/pictures/0746_fw.png	284.04251194000244	
189	171.60727381706238	picture	0		98	187.0	/experiments/knapen_aot/AOT/AOT_stimuli/pictures/0873_fw.png	284.0590398311615	0.8250100612640381
189	172.41582584381104	response	0	k		187.0	/experiments/knapen_aot/AOT/AOT_stimuli/pictures/0873_fw.png	284.86759185791016	
190	172.43228387832642	picture	0		101	188.0	/experiments/knapen_aot/AOT/AOT_stimuli/pictures/1105_fw.png	284.88404989242554	0.8428540229797363
190	173.25913190841675	response	0	j		188.0	/experiments/knapen_aot/AOT/AOT_stimuli/pictures/1105_fw.png	285.71089792251587	
191	173.27513790130615	picture	0		93	189.0	/experiments/knapen_aot/AOT/AOT_stimuli/pictures/2175_fw.png	285.7269039154053	0.7775790691375732
191	174.0407269001007	response	0	j		189.0	/experiments/knapen_aot/AOT/AOT_stimuli/pictures/2175_fw.png	286.49249291419983	
192	174.05271697044373	picture	0		97	190.0	/experiments/knapen_aot/AOT/AOT_stimuli/pictures/0650_fw.png	286.50448298454285	0.8057060241699219
192	174.84903979301453	response	0	j		190.0	/experiments/knapen_aot/AOT/AOT_stimuli/pictures/0650_fw.png	287.30080580711365	
193	174.85842299461365	picture	0		90	191.0	/experiments/knapen_aot/AOT/AOT_stimuli/pictures/1265_fw.png	287.31018900871277	0.750067949295044
193	175.59904098510742	response	0	k		191.0	/experiments/knapen_aot/AOT/AOT_stimuli/pictures/1265_fw.png	288.05080699920654	
194	175.6084909439087	picture	0		111	192.0	/experiments/knapen_aot/AOT/AOT_stimuli/pictures/0179_fw.png	288.0602569580078	0.9321410655975342
194	176.52538990974426	response	0	k		192.0	/experiments/knapen_aot/AOT/AOT_stimuli/pictures/0179_fw.png	288.9771559238434	
195	176.54063200950623	picture	0		102	193.0	/experiments/knapen_aot/AOT/AOT_stimuli/pictures/0858_fw.png	288.99239802360535	0.8583087921142578
195	177.3824667930603	response	0	j		193.0	/experiments/knapen_aot/AOT/AOT_stimuli/pictures/0858_fw.png	289.8342328071594	
196	177.39894080162048	picture	0		100	194.0	/experiments/knapen_aot/AOT/AOT_stimuli/pictures/0183_fw.png	289.8507068157196	0.8416430950164795
196	178.2241268157959	response	0	k		194.0	/experiments/knapen_aot/AOT/AOT_stimuli/pictures/0183_fw.png	290.675892829895	
197	178.24058389663696	picture	0		87	195.0	/experiments/knapen_aot/AOT/AOT_stimuli/pictures/1560_fw.png	290.6923499107361	0.7333540916442871
197	178.9575319290161	response	0	k		195.0	/experiments/knapen_aot/AOT/AOT_stimuli/pictures/1560_fw.png	291.40929794311523	
198	178.97393798828125	picture	0		94	196.0	/experiments/knapen_aot/AOT/AOT_stimuli/pictures/0451_fw.png	291.42570400238037	0.7916839122772217
198	179.7491009235382	response	0	j		196.0	/experiments/knapen_aot/AOT/AOT_stimuli/pictures/0451_fw.png	292.20086693763733	
199	179.76562190055847	picture	0		81	197.0	/experiments/knapen_aot/AOT/AOT_stimuli/pictures/0942_fw.png	292.2173879146576	0.6832709312438965
199	180.43243980407715	response	0	j		197.0	/experiments/knapen_aot/AOT/AOT_stimuli/pictures/0942_fw.png	292.88420581817627	
200	180.44889283180237	picture	0		93	198.0	/experiments/knapen_aot/AOT/AOT_stimuli/pictures/1967_fw.png	292.9006588459015	0.783350944519043
200	181.21573185920715	response	0	k		198.0	/experiments/knapen_aot/AOT/AOT_stimuli/pictures/1967_fw.png	293.6674978733063	
201	181.2322437763214	picture	0		88	199.0	/experiments/knapen_aot/AOT/AOT_stimuli/pictures/1793_fw.png	293.68400979042053	0.7416980266571045
201	181.95742082595825	response	0	j		199.0	/experiments/knapen_aot/AOT/AOT_stimuli/pictures/1793_fw.png	294.4091868400574	
202	181.97394180297852	picture	0		125	200.0	/experiments/knapen_aot/AOT/AOT_stimuli/pictures/0311_fw.png	294.42570781707764	1.049936056137085
202	183.0073778629303	response	0	j		200.0	/experiments/knapen_aot/AOT/AOT_stimuli/pictures/0311_fw.png	295.4591438770294	
203	183.0238778591156	picture	0		403	201.0	/experiments/knapen_aot/AOT/AOT_stimuli/pictures/1538_fw.png	295.4756438732147	3.3620400428771973
203	186.37403798103333	response	0	k		201.0	/experiments/knapen_aot/AOT/AOT_stimuli/pictures/1538_fw.png	298.82580399513245	
204	186.3859179019928	picture	0		100	202.0	/experiments/knapen_aot/AOT/AOT_stimuli/pictures/1073_fw.png	298.8376839160919	0.8379960060119629
204	187.2075378894806	response	0	k		202.0	/experiments/knapen_aot/AOT/AOT_stimuli/pictures/1073_fw.png	299.6593039035797	
205	187.22391390800476	picture	0		76	203.0	/experiments/knapen_aot/AOT/AOT_stimuli/pictures/1938_fw.png	299.6756799221039	0.6345958709716797
205	187.84904193878174	response	0	k		203.0	/experiments/knapen_aot/AOT/AOT_stimuli/pictures/1938_fw.png	300.30080795288086	
206	187.85850977897644	picture	0		91	204.0	/experiments/knapen_aot/AOT/AOT_stimuli/pictures/0897_fw.png	300.31027579307556	0.765404224395752
206	188.60863590240479	response	0	k		204.0	/experiments/knapen_aot/AOT/AOT_stimuli/pictures/0897_fw.png	301.0604019165039	
207	188.6239140033722	picture	0		92	205.0	/experiments/knapen_aot/AOT/AOT_stimuli/pictures/1156_fw.png	301.0756800174713	0.7689290046691895
207	189.38236689567566	response	0	k		205.0	/experiments/knapen_aot/AOT/AOT_stimuli/pictures/1156_fw.png	301.8341329097748	
208	189.39284300804138	picture	0		100	206.0	/experiments/knapen_aot/AOT/AOT_stimuli/pictures/1585_fw.png	301.8446090221405	0.8393988609313965
208	190.21571397781372	response	0	j		206.0	/experiments/knapen_aot/AOT/AOT_stimuli/pictures/1585_fw.png	302.66747999191284	
209	190.23224186897278	picture	0		75	207.0	/experiments/knapen_aot/AOT/AOT_stimuli/pictures/0813_fw.png	302.6840078830719	0.6332831382751465
209	190.8490068912506	response	0	j		207.0	/experiments/knapen_aot/AOT/AOT_stimuli/pictures/0813_fw.png	303.30077290534973	
210	190.86552500724792	picture	0		89	208.0	/experiments/knapen_aot/AOT/AOT_stimuli/pictures/1979_fw.png	303.31729102134705	0.7427608966827393
210	191.59900879859924	response	0	j		208.0	/experiments/knapen_aot/AOT/AOT_stimuli/pictures/1979_fw.png	304.05077481269836	
211	191.60828590393066	picture	0		83	209.0	/experiments/knapen_aot/AOT/AOT_stimuli/pictures/0317_fw.png	304.0600519180298	0.6942610740661621
211	192.2840919494629	response	0	j		209.0	/experiments/knapen_aot/AOT/AOT_stimuli/pictures/0317_fw.png	304.735857963562	
212	192.30254697799683	picture	0		84	210.0	/experiments/knapen_aot/AOT/AOT_stimuli/pictures/0224_fw.png	304.75431299209595	0.7046308517456055
212	192.99072194099426	response	0	j		210.0	/experiments/knapen_aot/AOT/AOT_stimuli/pictures/0224_fw.png	305.4424879550934	
213	193.00717782974243	picture	0		106	211.0	/experiments/knapen_aot/AOT/AOT_stimuli/pictures/2126_fw.png	305.45894384384155	0.8916971683502197
213	193.87581181526184	response	0	k		211.0	/experiments/knapen_aot/AOT/AOT_stimuli/pictures/2126_fw.png	306.32757782936096	
214	193.89887499809265	picture	0		71	212.0	/experiments/knapen_aot/AOT/AOT_stimuli/pictures/1216_fw.png	306.3506410121918	0.5999629497528076
214	194.47571396827698	response	0	j		212.0	/experiments/knapen_aot/AOT/AOT_stimuli/pictures/1216_fw.png	306.9274799823761	
215	194.49883794784546	picture	0		86	213.0	/experiments/knapen_aot/AOT/AOT_stimuli/pictures/1048_fw.png	306.9506039619446	0.7250409126281738
215	195.20734786987305	response	0	k		213.0	/experiments/knapen_aot/AOT/AOT_stimuli/pictures/1048_fw.png	307.65911388397217	
216	195.22387886047363	picture	0		74	214.0	/experiments/knapen_aot/AOT/AOT_stimuli/pictures/1247_fw.png	307.67564487457275	0.6249849796295166
216	195.83227682113647	response	0	j		214.0	/experiments/knapen_aot/AOT/AOT_stimuli/pictures/1247_fw.png	308.2840428352356	
217	195.84886384010315	picture	0		91	215.0	/experiments/knapen_aot/AOT/AOT_stimuli/pictures/0816_fw.png	308.30062985420227	0.7592110633850098
217	196.59894394874573	response	0	k		215.0	/experiments/knapen_aot/AOT/AOT_stimuli/pictures/0816_fw.png	309.05070996284485	
218	196.60807490348816	picture	0		79	216.0	/experiments/knapen_aot/AOT/AOT_stimuli/pictures/1613_fw.png	309.0598409175873	0.6596860885620117
218	197.25725483894348	response	0	k		216.0	/experiments/knapen_aot/AOT/AOT_stimuli/pictures/1613_fw.png	309.7090208530426	
219	197.26776099205017	picture	0		103	217.0	/experiments/knapen_aot/AOT/AOT_stimuli/pictures/1864_fw.png	309.7195270061493	0.8644399642944336
219	198.11556887626648	response	0	j		217.0	/experiments/knapen_aot/AOT/AOT_stimuli/pictures/1864_fw.png	310.5673348903656	
220	198.1322009563446	picture	0		103	218.0	/experiments/knapen_aot/AOT/AOT_stimuli/pictures/1592_fw.png	310.5839669704437	0.8666238784790039
220	198.98320698738098	response	0	j		218.0	/experiments/knapen_aot/AOT/AOT_stimuli/pictures/1592_fw.png	311.4349730014801	
221	198.9988248348236	picture	0		101	219.0	/experiments/knapen_aot/AOT/AOT_stimuli/pictures/0610_fw.png	311.45059084892273	0.8502480983734131
221	199.8323049545288	response	0	j		219.0	/experiments/knapen_aot/AOT/AOT_stimuli/pictures/0610_fw.png	312.28407096862793	
222	199.84907293319702	picture	0		80	220.0	/experiments/knapen_aot/AOT/AOT_stimuli/pictures/0658_fw.png	312.30083894729614	0.6686580181121826
222	200.507239818573	response	0	k		220.0	/experiments/knapen_aot/AOT/AOT_stimuli/pictures/0658_fw.png	312.9590058326721	
223	200.5177309513092	picture	0		79	221.0	/experiments/knapen_aot/AOT/AOT_stimuli/pictures/0844_fw.png	312.9694969654083	0.6597459316253662
223	201.16553783416748	response	0	j		221.0	/experiments/knapen_aot/AOT/AOT_stimuli/pictures/0844_fw.png	313.6173038482666	
224	201.17747688293457	picture	0		88	222.0	/experiments/knapen_aot/AOT/AOT_stimuli/pictures/2090_fw.png	313.6292428970337	0.7380340099334717
224	201.8989338874817	response	0	j		222.0	/experiments/knapen_aot/AOT/AOT_stimuli/pictures/2090_fw.png	314.3506999015808	
225	201.91551089286804	picture	0		85	223.0	/experiments/knapen_aot/AOT/AOT_stimuli/pictures/0350_fw.png	314.36727690696716	0.7166600227355957
225	202.61560988426208	response	0	k		223.0	/experiments/knapen_aot/AOT/AOT_stimuli/pictures/0350_fw.png	315.0673758983612	
226	202.63217091560364	picture	0		90	224.0	/experiments/knapen_aot/AOT/AOT_stimuli/pictures/1944_fw.png	315.08393692970276	0.7535948753356934
226	203.37392282485962	response	0	k		224.0	/experiments/knapen_aot/AOT/AOT_stimuli/pictures/1944_fw.png	315.82568883895874	
227	203.38576579093933	picture	0		103	225.0	/experiments/knapen_aot/AOT/AOT_stimuli/pictures/1820_fw.png	315.83753180503845	0.8630790710449219
227	204.23227190971375	response	0	k		225.0	/experiments/knapen_aot/AOT/AOT_stimuli/pictures/1820_fw.png	316.68403792381287	
228	204.24884486198425	picture	0		159	226.0	/experiments/knapen_aot/AOT/AOT_stimuli/pictures/1052_fw.png	316.7006108760834	1.3333549499511719
228	205.56636786460876	response	0	k		226.0	/experiments/knapen_aot/AOT/AOT_stimuli/pictures/1052_fw.png	318.0181338787079	
229	205.58219981193542	picture	0		122	227.0	/experiments/knapen_aot/AOT/AOT_stimuli/pictures/1732_fw.png	318.03396582603455	1.025163173675537
229	206.59060883522034	response	0	k		227.0	/experiments/knapen_aot/AOT/AOT_stimuli/pictures/1732_fw.png	319.04237484931946	
230	206.60736298561096	picture	0		88	228.0	/experiments/knapen_aot/AOT/AOT_stimuli/pictures/1960_fw.png	319.0591289997101	0.7414507865905762
230	207.33224177360535	response	0	k		228.0	/experiments/knapen_aot/AOT/AOT_stimuli/pictures/1960_fw.png	319.78400778770447	
231	207.34881377220154	picture	0		109	229.0	/experiments/knapen_aot/AOT/AOT_stimuli/pictures/1750_fw.png	319.80057978630066	0.9166851043701172
231	208.24894881248474	response	0	j		229.0	/experiments/knapen_aot/AOT/AOT_stimuli/pictures/1750_fw.png	320.70071482658386	
232	208.26549887657166	picture	0		87	230.0	/experiments/knapen_aot/AOT/AOT_stimuli/pictures/0951_fw.png	320.7172648906708	0.7333309650421143
232	208.98305487632751	response	0	k		230.0	/experiments/knapen_aot/AOT/AOT_stimuli/pictures/0951_fw.png	321.43482089042664	
233	208.99882984161377	picture	0		89	231.0	/experiments/knapen_aot/AOT/AOT_stimuli/pictures/1699_fw.png	321.4505958557129	0.7499990463256836
233	209.73303294181824	response	0	j		231.0	/experiments/knapen_aot/AOT/AOT_stimuli/pictures/1699_fw.png	322.18479895591736	
234	209.74882888793945	picture	0		125	232.0	/experiments/knapen_aot/AOT/AOT_stimuli/pictures/1762_fw.png	322.2005949020386	1.0499849319458008
234	210.78219485282898	response	0	j		232.0	/experiments/knapen_aot/AOT/AOT_stimuli/pictures/1762_fw.png	323.2339608669281	
235	210.79881381988525	picture	0		97	233.0	/experiments/knapen_aot/AOT/AOT_stimuli/pictures/1740_fw.png	323.2505798339844	0.816673994064331
235	211.59893989562988	response	0	j		233.0	/experiments/knapen_aot/AOT/AOT_stimuli/pictures/1740_fw.png	324.050705909729	
236	211.61548781394958	picture	0		67	234.0	/experiments/knapen_aot/AOT/AOT_stimuli/pictures/1159_fw.png	324.0672538280487	0.5618770122528076
236	212.16564679145813	response	0	j		234.0	/experiments/knapen_aot/AOT/AOT_stimuli/pictures/1159_fw.png	324.61741280555725	
237	212.1773648262024	picture	0		88	235.0	/experiments/knapen_aot/AOT/AOT_stimuli/pictures/0195_fw.png	324.6291308403015	0.7382900714874268
237	212.89970183372498	response	0	k		235.0	/experiments/knapen_aot/AOT/AOT_stimuli/pictures/0195_fw.png	325.3514678478241	
238	212.91565489768982	picture	0		179	236.0	/experiments/knapen_aot/AOT/AOT_stimuli/pictures/1663_fw.png	325.36742091178894	1.6505460739135742
238	214.39969396591187	response	0	k		236.0	/experiments/knapen_aot/AOT/AOT_stimuli/pictures/1663_fw.png	326.851459980011	
239	214.5662009716034	picture	0		93	237.0	/experiments/knapen_aot/AOT/AOT_stimuli/pictures/1646_fw.png	327.0179669857025	0.7777888774871826
239	215.33225178718567	response	0	k		237.0	/experiments/knapen_aot/AOT/AOT_stimuli/pictures/1646_fw.png	327.7840178012848	
240	215.34398984909058	picture	0		92	238.0	/experiments/knapen_aot/AOT/AOT_stimuli/pictures/0452_fw.png	327.7957558631897	0.7639141082763672
240	216.09209990501404	response	0	k		238.0	/experiments/knapen_aot/AOT/AOT_stimuli/pictures/0452_fw.png	328.54386591911316	
241	216.10790395736694	picture	0		94	239.0	/experiments/knapen_aot/AOT/AOT_stimuli/pictures/1369_fw.png	328.55966997146606	0.7908890247344971
241	216.8754518032074	response	0	j		239.0	/experiments/knapen_aot/AOT/AOT_stimuli/pictures/1369_fw.png	329.3272178173065	
242	216.89879298210144	picture	0		88	240.0	/experiments/knapen_aot/AOT/AOT_stimuli/pictures/1993_fw.png	329.35055899620056	0.736846923828125
242	217.6238808631897	response	0	k		240.0	/experiments/knapen_aot/AOT/AOT_stimuli/pictures/1993_fw.png	330.0756468772888	
243	217.63563990592957	picture	0		83	241.0	/experiments/knapen_aot/AOT/AOT_stimuli/pictures/1575_fw.png	330.0874059200287	0.696497917175293
243	218.31625080108643	response	0	k		241.0	/experiments/knapen_aot/AOT/AOT_stimuli/pictures/1575_fw.png	330.76801681518555	
244	218.33213782310486	picture	0		99	242.0	/experiments/knapen_aot/AOT/AOT_stimuli/pictures/1615_fw.png	330.783903837204	0.8332991600036621
244	219.1496307849884	response	0	j		242.0	/experiments/knapen_aot/AOT/AOT_stimuli/pictures/1615_fw.png	331.6013967990875	
245	219.16543698310852	picture	0		106	243.0	/experiments/knapen_aot/AOT/AOT_stimuli/pictures/0874_fw.png	331.61720299720764	0.8916618824005127
245	220.040531873703	response	0	k		243.0	/experiments/knapen_aot/AOT/AOT_stimuli/pictures/0874_fw.png	332.4922978878021	
246	220.05709886550903	picture	0		233	244.0	/experiments/knapen_aot/AOT/AOT_stimuli/pictures/0435_fw.png	332.50886487960815	1.9500889778137207
246	221.99056386947632	response	0	j		244.0	/experiments/knapen_aot/AOT/AOT_stimuli/pictures/0435_fw.png	334.44232988357544	
247	222.00718784332275	picture	0		76	245.0	/experiments/knapen_aot/AOT/AOT_stimuli/pictures/1898_fw.png	334.4589538574219	0.6415939331054688
247	222.6322147846222	response	0	j		245.0	/experiments/knapen_aot/AOT/AOT_stimuli/pictures/1898_fw.png	335.0839807987213	
248	222.64878177642822	picture	0		88	246.0	/experiments/knapen_aot/AOT/AOT_stimuli/pictures/1620_fw.png	335.10054779052734	0.7367920875549316
248	223.37382698059082	response	0	j		246.0	/experiments/knapen_aot/AOT/AOT_stimuli/pictures/1620_fw.png	335.82559299468994	
249	223.38557386398315	picture	0		72	247.0	/experiments/knapen_aot/AOT/AOT_stimuli/pictures/1035_fw.png	335.8373398780823	0.6048381328582764
249	223.9738450050354	response	0	k		247.0	/experiments/knapen_aot/AOT/AOT_stimuli/pictures/1035_fw.png	336.4256110191345	
250	223.99041199684143	picture	0		78	248.0	/experiments/knapen_aot/AOT/AOT_stimuli/pictures/0834_fw.png	336.44217801094055	0.6583428382873535
250	224.6322329044342	response	0	j		248.0	/experiments/knapen_aot/AOT/AOT_stimuli/pictures/0834_fw.png	337.0839989185333	
251	224.64875483512878	picture	0		75	249.0	/experiments/knapen_aot/AOT/AOT_stimuli/pictures/1984_fw.png	337.1005208492279	0.6333611011505127
251	225.26551580429077	response	0	j		249.0	/experiments/knapen_aot/AOT/AOT_stimuli/pictures/1984_fw.png	337.7172818183899	
252	225.2821159362793	picture	0		91	250.0	/experiments/knapen_aot/AOT/AOT_stimuli/pictures/0679_fw.png	337.7338819503784	0.7666969299316406
252	226.03214979171753	response	0	j		250.0	/experiments/knapen_aot/AOT/AOT_stimuli/pictures/0679_fw.png	338.48391580581665	
253	226.04881286621094	picture	0		97	251.0	/experiments/knapen_aot/AOT/AOT_stimuli/pictures/0061_fw.png	338.50057888031006	0.8165850639343262
253	226.8488597869873	response	0	j		251.0	/experiments/knapen_aot/AOT/AOT_stimuli/pictures/0061_fw.png	339.3006258010864	
254	226.86539793014526	picture	0		78	252.0	/experiments/knapen_aot/AOT/AOT_stimuli/pictures/1349_fw.png	339.3171639442444	0.6749889850616455
254	227.50032782554626	response	0	k		252.0	/experiments/knapen_aot/AOT/AOT_stimuli/pictures/1349_fw.png	339.9520938396454	
255	227.5403869152069	picture	0		189	253.0	/experiments/knapen_aot/AOT/AOT_stimuli/pictures/1296_fw.png	339.99215292930603	1.5833430290222168
255	229.10790491104126	response	0	k		253.0	/experiments/knapen_aot/AOT/AOT_stimuli/pictures/1296_fw.png	341.5596709251404	
256	229.12372994422913	picture	0		346	254.0	/experiments/knapen_aot/AOT/AOT_stimuli/pictures/1243_fw.png	341.57549595832825	2.891676902770996
256	231.9988169670105	response	0	k		254.0	/experiments/knapen_aot/AOT/AOT_stimuli/pictures/1243_fw.png	344.4505829811096	
257	232.01540684700012	picture	0		115	255.0	/experiments/knapen_aot/AOT/AOT_stimuli/pictures/1185_fw.png	344.46717286109924	0.9749679565429688
257	232.96550989151	response	0	j		255.0	/experiments/knapen_aot/AOT/AOT_stimuli/pictures/1185_fw.png	345.41727590560913	
258	232.9903748035431	picture	0		163	256.0	/experiments/knapen_aot/AOT/AOT_stimuli/pictures/1961_fw.png	345.4421408176422	1.3666951656341553
258	234.34049582481384	response	0	j		256.0	/experiments/knapen_aot/AOT/AOT_stimuli/pictures/1961_fw.png	346.79226183891296	
259	234.35706996917725	picture	0		74	257.0	/experiments/knapen_aot/AOT/AOT_stimuli/pictures/0298_fw.png	346.80883598327637	0.6250078678131104
259	234.9655089378357	response	0	j		257.0	/experiments/knapen_aot/AOT/AOT_stimuli/pictures/0298_fw.png	347.4172749519348	
260	234.98207783699036	picture	0		85	258.0	/experiments/knapen_aot/AOT/AOT_stimuli/pictures/0143_fw.png	347.4338438510895	0.716637134552002
260	235.6752917766571	response	0	k		258.0	/experiments/knapen_aot/AOT/AOT_stimuli/pictures/0143_fw.png	348.1270577907562	
261	235.69871497154236	picture	0		116	259.0	/experiments/knapen_aot/AOT/AOT_stimuli/pictures/1345_fw.png	348.1504809856415	0.971519947052002
261	236.65714693069458	response	0	k		259.0	/experiments/knapen_aot/AOT/AOT_stimuli/pictures/1345_fw.png	349.1089129447937	
262	236.67023491859436	picture	0		124	260.0	/experiments/knapen_aot/AOT/AOT_stimuli/pictures/0883_fw.png	349.1220009326935	1.0452148914337158
262	237.69268989562988	response	0	k		260.0	/experiments/knapen_aot/AOT/AOT_stimuli/pictures/0883_fw.png	350.144455909729	
263	237.71544981002808	picture	0		113	261.0	/experiments/knapen_aot/AOT/AOT_stimuli/pictures/1400_fw.png	350.1672158241272	0.9499750137329102
263	238.64947891235352	response	0	j		261.0	/experiments/knapen_aot/AOT/AOT_stimuli/pictures/1400_fw.png	351.10124492645264	
264	238.665424823761	picture	0		90	262.0	/experiments/knapen_aot/AOT/AOT_stimuli/pictures/0776_fw.png	351.1171908378601	0.7582690715789795
264	239.4071009159088	response	0	k		262.0	/experiments/knapen_aot/AOT/AOT_stimuli/pictures/0776_fw.png	351.85886693000793	
265	239.42369389533997	picture	0		85	263.0	/experiments/knapen_aot/AOT/AOT_stimuli/pictures/0036_fw.png	351.8754599094391	0.7187941074371338
265	240.1238729953766	response	0	k		263.0	/experiments/knapen_aot/AOT/AOT_stimuli/pictures/0036_fw.png	352.5756390094757	
266	240.1424880027771	picture	0		90	264.0	/experiments/knapen_aot/AOT/AOT_stimuli/pictures/1258_fw.png	352.5942540168762	0.7498610019683838
266	240.87530279159546	response	0	j		264.0	/experiments/knapen_aot/AOT/AOT_stimuli/pictures/1258_fw.png	353.3270688056946	
267	240.89234900474548	picture	0		150	265.0	/experiments/knapen_aot/AOT/AOT_stimuli/pictures/0055_fw.png	353.3441150188446	1.2500278949737549
267	242.1321759223938	response	0	j		265.0	/experiments/knapen_aot/AOT/AOT_stimuli/pictures/0055_fw.png	354.5839419364929	
268	242.14237689971924	picture	0		120	266.0	/experiments/knapen_aot/AOT/AOT_stimuli/pictures/1449_fw.png	354.59414291381836	1.0063068866729736
268	243.13212895393372	response	0	k		266.0	/experiments/knapen_aot/AOT/AOT_stimuli/pictures/1449_fw.png	355.58389496803284	
269	243.1486837863922	picture	0		134	267.0	/experiments/knapen_aot/AOT/AOT_stimuli/pictures/1145_fw.png	355.60044980049133	1.1250050067901611
269	244.25711178779602	response	0	j		267.0	/experiments/knapen_aot/AOT/AOT_stimuli/pictures/1145_fw.png	356.70887780189514	
270	244.27368879318237	picture	0		110	268.0	/experiments/knapen_aot/AOT/AOT_stimuli/pictures/1709_fw.png	356.7254548072815	0.9249911308288574
270	245.1821219921112	response	0	k		268.0	/experiments/knapen_aot/AOT/AOT_stimuli/pictures/1709_fw.png	357.6338880062103	
271	245.19867992401123	picture	0		96	269.0	/experiments/knapen_aot/AOT/AOT_stimuli/pictures/1928_fw.png	357.65044593811035	0.8083310127258301
271	245.99043989181519	response	0	j		269.0	/experiments/knapen_aot/AOT/AOT_stimuli/pictures/1928_fw.png	358.4422059059143	
272	246.00701093673706	picture	0		90	270.0	/experiments/knapen_aot/AOT/AOT_stimuli/pictures/0538_fw.png	358.4587769508362	0.7583198547363281
272	246.74877095222473	response	0	j		270.0	/experiments/knapen_aot/AOT/AOT_stimuli/pictures/0538_fw.png	359.20053696632385	
273	246.7653307914734	picture	0		88	271.0	/experiments/knapen_aot/AOT/AOT_stimuli/pictures/0664_fw.png	359.2170968055725	0.7416870594024658
273	247.48423600196838	response	0	j		271.0	/experiments/knapen_aot/AOT/AOT_stimuli/pictures/0664_fw.png	359.9360020160675	
274	247.50701785087585	picture	0		80	272.0	/experiments/knapen_aot/AOT/AOT_stimuli/pictures/0150_fw.png	359.958783864975	0.6700029373168945
274	248.16539478302002	response	0	k		272.0	/experiments/knapen_aot/AOT/AOT_stimuli/pictures/0150_fw.png	360.61716079711914	
275	248.17702078819275	picture	0		93	273.0	/experiments/knapen_aot/AOT/AOT_stimuli/pictures/2089_fw.png	360.62878680229187	0.7801401615142822
275	248.9411199092865	response	0	k		273.0	/experiments/knapen_aot/AOT/AOT_stimuli/pictures/2089_fw.png	361.3928859233856	
276	248.95716094970703	picture	0		120	274.0	/experiments/knapen_aot/AOT/AOT_stimuli/pictures/2031_fw.png	361.40892696380615	1.0081360340118408
276	249.94873189926147	response	0	k		274.0	/experiments/knapen_aot/AOT/AOT_stimuli/pictures/2031_fw.png	362.4004979133606	
277	249.96529698371887	picture	0		165	275.0	/experiments/knapen_aot/AOT/AOT_stimuli/pictures/1055_fw.png	362.417062997818	1.3783278465270996
277	251.33198881149292	response	0	k		275.0	/experiments/knapen_aot/AOT/AOT_stimuli/pictures/1055_fw.png	363.78375482559204	
278	251.34362483024597	picture	0		120	276.0	/experiments/knapen_aot/AOT/AOT_stimuli/pictures/1407_fw.png	363.7953908443451	1.0049769878387451
278	252.3320620059967	response	0	k		276.0	/experiments/knapen_aot/AOT/AOT_stimuli/pictures/1407_fw.png	364.7838280200958	
279	252.34860181808472	picture	0		78	277.0	/experiments/knapen_aot/AOT/AOT_stimuli/pictures/1302_fw.png	364.80036783218384	0.6583471298217773
279	252.99035692214966	response	0	j		277.0	/experiments/knapen_aot/AOT/AOT_stimuli/pictures/1302_fw.png	365.4421229362488	
280	253.0069489479065	picture	0		87	278.0	/experiments/knapen_aot/AOT/AOT_stimuli/pictures/0685_fw.png	365.4587149620056	0.7333159446716309
280	253.7168309688568	response	0	j		278.0	/experiments/knapen_aot/AOT/AOT_stimuli/pictures/0685_fw.png	366.16859698295593	
281	253.74026489257812	picture	0		104	279.0	/experiments/knapen_aot/AOT/AOT_stimuli/pictures/1902_fw.png	366.19203090667725	0.8750050067901611
281	254.59870290756226	response	0	j		279.0	/experiments/knapen_aot/AOT/AOT_stimuli/pictures/1902_fw.png	367.0504689216614	
282	254.6152698993683	picture	0		91	280.0	/experiments/knapen_aot/AOT/AOT_stimuli/pictures/0958_fw.png	367.0670359134674	0.7631540298461914
282	255.36533188819885	response	0	j		280.0	/experiments/knapen_aot/AOT/AOT_stimuli/pictures/0958_fw.png	367.817097902298	
283	255.37842392921448	picture	0		98	281.0	/experiments/knapen_aot/AOT/AOT_stimuli/pictures/1144_fw.png	367.8301899433136	0.8285260200500488
283	256.19094800949097	response	0	k		281.0	/experiments/knapen_aot/AOT/AOT_stimuli/pictures/1144_fw.png	368.6427140235901	
284	256.2069499492645	picture	0		94	282.0	/experiments/knapen_aot/AOT/AOT_stimuli/pictures/1455_fw.png	368.65871596336365	0.7916610240936279
284	256.9826149940491	response	0	j		282.0	/experiments/knapen_aot/AOT/AOT_stimuli/pictures/1455_fw.png	369.4343810081482	
285	256.99861097335815	picture	0		84	283.0	/experiments/knapen_aot/AOT/AOT_stimuli/pictures/2109_fw.png	369.4503769874573	0.7083120346069336
285	257.68364691734314	response	0	j		283.0	/experiments/knapen_aot/AOT/AOT_stimuli/pictures/2109_fw.png	370.13541293144226	
286	257.7069230079651	picture	0		103	284.0	/experiments/knapen_aot/AOT/AOT_stimuli/pictures/0590_fw.png	370.1586890220642	0.8666567802429199
286	258.55701780319214	response	0	j		284.0	/experiments/knapen_aot/AOT/AOT_stimuli/pictures/0590_fw.png	371.00878381729126	
287	258.573579788208	picture	0		84	285.0	/experiments/knapen_aot/AOT/AOT_stimuli/pictures/2105_fw.png	371.02534580230713	0.7005631923675537
287	259.2654159069061	response	0	j		285.0	/experiments/knapen_aot/AOT/AOT_stimuli/pictures/2105_fw.png	371.71718192100525	
288	259.27414298057556	picture	0		83	286.0	/experiments/knapen_aot/AOT/AOT_stimuli/pictures/0990_fw.png	371.7259089946747	0.6994478702545166
288	259.9569869041443	response	0	k		286.0	/experiments/knapen_aot/AOT/AOT_stimuli/pictures/0990_fw.png	372.4087529182434	
289	259.9735908508301	picture	0		106	287.0	/experiments/knapen_aot/AOT/AOT_stimuli/pictures/2122_fw.png	372.4253568649292	0.8916361331939697
289	260.84868478775024	response	0	j		287.0	/experiments/knapen_aot/AOT/AOT_stimuli/pictures/2122_fw.png	373.30045080184937	
290	260.86522698402405	picture	0		105	288.0	/experiments/knapen_aot/AOT/AOT_stimuli/pictures/1658_fw.png	373.31699299812317	0.8833329677581787
290	261.732706785202	response	0	j		288.0	/experiments/knapen_aot/AOT/AOT_stimuli/pictures/1658_fw.png	374.18447279930115	
291	261.7485599517822	picture	0		88	289.0	/experiments/knapen_aot/AOT/AOT_stimuli/pictures/1659_fw.png	374.20032596588135	0.7417278289794922
291	262.4736399650574	response	0	k		289.0	/experiments/knapen_aot/AOT/AOT_stimuli/pictures/1659_fw.png	374.9254059791565	
292	262.4902877807617	picture	0		81	290.0	/experiments/knapen_aot/AOT/AOT_stimuli/pictures/1445_fw.png	374.94205379486084	0.6832671165466309
292	263.1569998264313	response	0	j		290.0	/experiments/knapen_aot/AOT/AOT_stimuli/pictures/1445_fw.png	375.6087658405304	
293	263.17355489730835	picture	0		138	291.0	/experiments/knapen_aot/AOT/AOT_stimuli/pictures/1088_fw.png	375.62532091140747	1.158423900604248
293	264.3086278438568	response	0	j		291.0	/experiments/knapen_aot/AOT/AOT_stimuli/pictures/1088_fw.png	376.76039385795593	
294	264.3319787979126	picture	0		84	292.0	/experiments/knapen_aot/AOT/AOT_stimuli/pictures/1896_fw.png	376.7837448120117	0.7082340717315674
294	265.02417492866516	response	0	j		292.0	/experiments/knapen_aot/AOT/AOT_stimuli/pictures/1896_fw.png	377.4759409427643	
295	265.04021286964417	picture	0		101	293.0	/experiments/knapen_aot/AOT/AOT_stimuli/pictures/0072_fw.png	377.4919788837433	0.8501031398773193
295	265.8736369609833	response	0	j		293.0	/experiments/knapen_aot/AOT/AOT_stimuli/pictures/0072_fw.png	378.3254029750824	
296	265.8903160095215	picture	0		90	294.0	/experiments/knapen_aot/AOT/AOT_stimuli/pictures/1734_fw.png	378.3420820236206	0.7582828998565674
296	266.6320378780365	response	0	k		294.0	/experiments/knapen_aot/AOT/AOT_stimuli/pictures/1734_fw.png	379.0838038921356	
297	266.64859890937805	picture	0		86	295.0	/experiments/knapen_aot/AOT/AOT_stimuli/pictures/1814_fw.png	379.1003649234772	0.7249948978424072
297	267.35753297805786	response	0	k		295.0	/experiments/knapen_aot/AOT/AOT_stimuli/pictures/1814_fw.png	379.809298992157	
298	267.37359380722046	picture	0		113	296.0	/experiments/knapen_aot/AOT/AOT_stimuli/pictures/0091_fw.png	379.8253598213196	0.9499821662902832
298	268.3003017902374	response	0	j		296.0	/experiments/knapen_aot/AOT/AOT_stimuli/pictures/0091_fw.png	380.75206780433655	
299	268.32357597351074	picture	0		104	297.0	/experiments/knapen_aot/AOT/AOT_stimuli/pictures/1798_fw.png	380.77534198760986	0.8750388622283936
299	269.18200492858887	response	0	j		297.0	/experiments/knapen_aot/AOT/AOT_stimuli/pictures/1798_fw.png	381.633770942688	
300	269.19861483573914	picture	0		112	298.0	/experiments/knapen_aot/AOT/AOT_stimuli/pictures/1724_fw.png	381.65038084983826	0.941633939743042
300	270.12364196777344	response	0	k		298.0	/experiments/knapen_aot/AOT/AOT_stimuli/pictures/1724_fw.png	382.57540798187256	
301	270.1402487754822	picture	0		218	299.0	/experiments/knapen_aot/AOT/AOT_stimuli/pictures/1757_fw.png	382.5920147895813	1.8250060081481934
301	271.9486939907074	response	0	k		299.0	/experiments/knapen_aot/AOT/AOT_stimuli/pictures/1757_fw.png	384.4004600048065	
302	271.96525478363037	picture	0		92	300.0	/experiments/knapen_aot/AOT/AOT_stimuli/pictures/1006_fw.png	384.4170207977295	0.767132043838501
302	272.7236568927765	response	0	j		300.0	/experiments/knapen_aot/AOT/AOT_stimuli/pictures/1006_fw.png	385.1754229068756	
303	272.7323868274689	picture	0		107	301.0	/experiments/knapen_aot/AOT/AOT_stimuli/pictures/0966_fw.png	385.184152841568	0.8995201587677002
303	273.61527585983276	response	0	j		301.0	/experiments/knapen_aot/AOT/AOT_stimuli/pictures/0966_fw.png	386.0670418739319	
304	273.6319069862366	picture	0		89	302.0	/experiments/knapen_aot/AOT/AOT_stimuli/pictures/1742_fw.png	386.0836730003357	0.7499589920043945
304	274.36528396606445	response	0	j		302.0	/experiments/knapen_aot/AOT/AOT_stimuli/pictures/1742_fw.png	386.8170499801636	
305	274.38186597824097	picture	0		75	303.0	/experiments/knapen_aot/AOT/AOT_stimuli/pictures/1097_fw.png	386.8336319923401	0.6333448886871338
305	274.99859595298767	response	0	k		303.0	/experiments/knapen_aot/AOT/AOT_stimuli/pictures/1097_fw.png	387.4503619670868	
306	275.0152108669281	picture	0		116	304.0	/experiments/knapen_aot/AOT/AOT_stimuli/pictures/1700_fw.png	387.4669768810272	0.9670629501342773
306	275.9735848903656	response	0	k		304.0	/experiments/knapen_aot/AOT/AOT_stimuli/pictures/1700_fw.png	388.4253509044647	
307	275.9822738170624	picture	0		86	305.0	/experiments/knapen_aot/AOT/AOT_stimuli/pictures/1104_fw.png	388.4340398311615	0.724574089050293
307	276.69076681137085	response	0	j		305.0	/experiments/knapen_aot/AOT/AOT_stimuli/pictures/1104_fw.png	389.14253282546997	
308	276.70684790611267	picture	0		103	306.0	/experiments/knapen_aot/AOT/AOT_stimuli/pictures/2013_fw.png	389.1586139202118	0.8587229251861572
308	277.5569498538971	response	0	k		306.0	/experiments/knapen_aot/AOT/AOT_stimuli/pictures/2013_fw.png	390.0087158679962	
309	277.5655708312988	picture	0		96	307.0	/experiments/knapen_aot/AOT/AOT_stimuli/pictures/0956_fw.png	390.01733684539795	0.8079221248626709
309	278.3573567867279	response	0	j		307.0	/experiments/knapen_aot/AOT/AOT_stimuli/pictures/0956_fw.png	390.809122800827	
310	278.3734929561615	picture	0		101	308.0	/experiments/knapen_aot/AOT/AOT_stimuli/pictures/1590_fw.png	390.8252589702606	0.8448648452758789
310	279.2069158554077	response	0	k		308.0	/experiments/knapen_aot/AOT/AOT_stimuli/pictures/1590_fw.png	391.65868186950684	
311	279.2183578014374	picture	0		114	309.0	/experiments/knapen_aot/AOT/AOT_stimuli/pictures/1858_fw.png	391.6701238155365	0.9514491558074951
311	280.15691590309143	response	0	k		309.0	/experiments/knapen_aot/AOT/AOT_stimuli/pictures/1858_fw.png	392.60868191719055	
312	280.1698069572449	picture	0		84	310.0	/experiments/knapen_aot/AOT/AOT_stimuli/pictures/0297_fw.png	392.621572971344	0.7036809921264648
312	280.85732889175415	response	0	j		310.0	/experiments/knapen_aot/AOT/AOT_stimuli/pictures/0297_fw.png	393.30909490585327	
313	280.87348794937134	picture	0		99	311.0	/experiments/knapen_aot/AOT/AOT_stimuli/pictures/0367_fw.png	393.32525396347046	0.8333489894866943
313	281.69066882133484	response	0	k		311.0	/experiments/knapen_aot/AOT/AOT_stimuli/pictures/0367_fw.png	394.14243483543396	
314	281.70683693885803	picture	0		86	312.0	/experiments/knapen_aot/AOT/AOT_stimuli/pictures/1406_fw.png	394.15860295295715	0.7250289916992188
314	282.4152548313141	response	0	j		312.0	/experiments/knapen_aot/AOT/AOT_stimuli/pictures/1406_fw.png	394.8670208454132	
315	282.43186593055725	picture	0		85	313.0	/experiments/knapen_aot/AOT/AOT_stimuli/pictures/1777_fw.png	394.8836319446564	0.7166459560394287
315	283.1251208782196	response	0	k		313.0	/experiments/knapen_aot/AOT/AOT_stimuli/pictures/1777_fw.png	395.5768868923187	
316	283.1485118865967	picture	0		93	314.0	/experiments/knapen_aot/AOT/AOT_stimuli/pictures/0062_fw.png	395.6002779006958	0.7832770347595215
316	283.9083938598633	response	0	k		314.0	/experiments/knapen_aot/AOT/AOT_stimuli/pictures/0062_fw.png	396.3601598739624	
317	283.9317889213562	picture	0		119	315.0	/experiments/knapen_aot/AOT/AOT_stimuli/pictures/0365_fw.png	396.3835549354553	0.9948840141296387
317	284.9085249900818	response	0	k		315.0	/experiments/knapen_aot/AOT/AOT_stimuli/pictures/0365_fw.png	397.3602910041809	
318	284.92667293548584	picture	0		88	316.0	/experiments/knapen_aot/AOT/AOT_stimuli/pictures/1673_fw.png	397.37843894958496	0.7384769916534424
318	285.6489758491516	response	0	j		316.0	/experiments/knapen_aot/AOT/AOT_stimuli/pictures/1673_fw.png	398.10074186325073	
319	285.6651499271393	picture	0		112	317.0	/experiments/knapen_aot/AOT/AOT_stimuli/pictures/1099_fw.png	398.1169159412384	0.9417018890380859
319	286.59024596214294	response	0	k		317.0	/experiments/knapen_aot/AOT/AOT_stimuli/pictures/1099_fw.png	399.04201197624207	
320	286.60685181617737	picture	0		95	318.0	/experiments/knapen_aot/AOT/AOT_stimuli/pictures/0117_fw.png	399.0586178302765	0.7999651432037354
320	287.3903548717499	response	0	j		318.0	/experiments/knapen_aot/AOT/AOT_stimuli/pictures/0117_fw.png	399.842120885849	
321	287.4068169593811	picture	0		103	319.0	/experiments/knapen_aot/AOT/AOT_stimuli/pictures/1733_fw.png	399.8585829734802	0.8600759506225586
321	288.2568988800049	response	0	k		319.0	/experiments/knapen_aot/AOT/AOT_stimuli/pictures/1733_fw.png	400.708664894104	
322	288.26689291000366	picture	0		285	320.0	/experiments/knapen_aot/AOT/AOT_stimuli/pictures/0925_fw.png	400.7186589241028	2.3816940784454346
322	290.63192081451416	response	0	k		320.0	/experiments/knapen_aot/AOT/AOT_stimuli/pictures/0925_fw.png	403.0836868286133	
323	290.6485869884491	picture	0		88	321.0	/experiments/knapen_aot/AOT/AOT_stimuli/pictures/1169_fw.png	403.1003530025482	0.7415339946746826
323	291.37356090545654	response	0	j		321.0	/experiments/knapen_aot/AOT/AOT_stimuli/pictures/1169_fw.png	403.82532691955566	
324	291.3901209831238	picture	0		78	322.0	/experiments/knapen_aot/AOT/AOT_stimuli/pictures/2018_fw.png	403.8418869972229	0.6583638191223145
324	292.03186678886414	response	0	j		322.0	/experiments/knapen_aot/AOT/AOT_stimuli/pictures/2018_fw.png	404.48363280296326	
325	292.0484848022461	picture	0		90	323.0	/experiments/knapen_aot/AOT/AOT_stimuli/pictures/1891_fw.png	404.5002508163452	0.7582931518554688
325	292.7902147769928	response	0	j		323.0	/experiments/knapen_aot/AOT/AOT_stimuli/pictures/1891_fw.png	405.2419807910919	
326	292.80677795410156	picture	0		77	324.0	/experiments/knapen_aot/AOT/AOT_stimuli/pictures/1561_fw.png	405.2585439682007	0.6502690315246582
326	293.4405779838562	response	0	k		324.0	/experiments/knapen_aot/AOT/AOT_stimuli/pictures/1561_fw.png	405.8923439979553	
327	293.4570469856262	picture	0		75	325.0	/experiments/knapen_aot/AOT/AOT_stimuli/pictures/0660_fw.png	405.90881299972534	0.633065938949585
327	294.07357597351074	response	0	j		325.0	/experiments/knapen_aot/AOT/AOT_stimuli/pictures/0660_fw.png	406.52534198760986	
328	294.0901129245758	picture	0		102	326.0	/experiments/knapen_aot/AOT/AOT_stimuli/pictures/1936_fw.png	406.5418789386749	0.8583409786224365
328	294.925087928772	response	0	j		326.0	/experiments/knapen_aot/AOT/AOT_stimuli/pictures/1936_fw.png	407.3768539428711	
329	294.94845390319824	picture	0		91	327.0	/experiments/knapen_aot/AOT/AOT_stimuli/pictures/1313_fw.png	407.40021991729736	0.766679048538208
329	295.69209480285645	response	0	j		327.0	/experiments/knapen_aot/AOT/AOT_stimuli/pictures/1313_fw.png	408.14386081695557	
330	295.71513295173645	picture	0		123	328.0	/experiments/knapen_aot/AOT/AOT_stimuli/pictures/1722_fw.png	408.16689896583557	1.0339560508728027
330	296.7250998020172	response	0	j		328.0	/experiments/knapen_aot/AOT/AOT_stimuli/pictures/1722_fw.png	409.17686581611633	
331	296.74908900260925	picture	0		114	329.0	/experiments/knapen_aot/AOT/AOT_stimuli/pictures/0921_fw.png	409.2008550167084	0.9576678276062012
331	297.69062089920044	response	0	j		329.0	/experiments/knapen_aot/AOT/AOT_stimuli/pictures/0921_fw.png	410.14238691329956	
332	297.70675683021545	picture	0		86	330.0	/experiments/knapen_aot/AOT/AOT_stimuli/pictures/0499_fw.png	410.1585228443146	0.7251391410827637
332	298.41516280174255	response	0	k		330.0	/experiments/knapen_aot/AOT/AOT_stimuli/pictures/0499_fw.png	410.8669288158417	
333	298.4318959712982	picture	0		86	331.0	/experiments/knapen_aot/AOT/AOT_stimuli/pictures/1595_fw.png	410.88366198539734	0.7248818874359131
333	299.13336992263794	response	0	k		331.0	/experiments/knapen_aot/AOT/AOT_stimuli/pictures/1595_fw.png	411.58513593673706	
334	299.15677785873413	picture	0		97	332.0	/experiments/knapen_aot/AOT/AOT_stimuli/pictures/2108_fw.png	411.60854387283325	0.8166821002960205
334	299.9568598270416	response	0	j		332.0	/experiments/knapen_aot/AOT/AOT_stimuli/pictures/2108_fw.png	412.40862584114075	
335	299.97345995903015	picture	0		95	333.0	/experiments/knapen_aot/AOT/AOT_stimuli/pictures/1741_fw.png	412.4252259731293	0.8005659580230713
335	300.7568287849426	response	0	j		333.0	/experiments/knapen_aot/AOT/AOT_stimuli/pictures/1741_fw.png	413.20859479904175	
336	300.7740259170532	picture	0		113	334.0	/experiments/knapen_aot/AOT/AOT_stimuli/pictures/1182_fw.png	413.22579193115234	0.949394941329956
336	301.70688486099243	response	0	k		334.0	/experiments/knapen_aot/AOT/AOT_stimuli/pictures/1182_fw.png	414.15865087509155	
337	301.7234208583832	picture	0		112	335.0	/experiments/knapen_aot/AOT/AOT_stimuli/pictures/0421_fw.png	414.1751868724823	0.9416530132293701
337	302.6488709449768	response	0	j		335.0	/experiments/knapen_aot/AOT/AOT_stimuli/pictures/0421_fw.png	415.1006369590759	
338	302.66507387161255	picture	0		86	336.0	/experiments/knapen_aot/AOT/AOT_stimuli/pictures/1214_fw.png	415.11683988571167	0.725006103515625
338	303.3735017776489	response	0	k		336.0	/experiments/knapen_aot/AOT/AOT_stimuli/pictures/1214_fw.png	415.82526779174805	
339	303.3900799751282	picture	0		83	337.0	/experiments/knapen_aot/AOT/AOT_stimuli/pictures/1504_fw.png	415.8418459892273	0.6999969482421875
339	304.07350897789	response	0	k		337.0	/experiments/knapen_aot/AOT/AOT_stimuli/pictures/1504_fw.png	416.52527499198914	
340	304.09007692337036	picture	0		115	338.0	/experiments/knapen_aot/AOT/AOT_stimuli/pictures/0552_fw.png	416.5418429374695	0.9666938781738281
340	305.04016399383545	response	0	k		338.0	/experiments/knapen_aot/AOT/AOT_stimuli/pictures/0552_fw.png	417.49193000793457	
341	305.0567708015442	picture	0		79	339.0	/experiments/knapen_aot/AOT/AOT_stimuli/pictures/0599_fw.png	417.5085368156433	0.6666491031646729
341	305.7068657875061	response	0	j		339.0	/experiments/knapen_aot/AOT/AOT_stimuli/pictures/0599_fw.png	418.1586318016052	
342	305.72341990470886	picture	0		101	340.0	/experiments/knapen_aot/AOT/AOT_stimuli/pictures/0986_fw.png	418.175185918808	0.8499798774719238
342	306.556843996048	response	0	k		340.0	/experiments/knapen_aot/AOT/AOT_stimuli/pictures/0986_fw.png	419.0086100101471	
343	306.5733997821808	picture	0		150	341.0	/experiments/knapen_aot/AOT/AOT_stimuli/pictures/1574_fw.png	419.0251657962799	1.2583351135253906
343	307.8154728412628	response	0	j		341.0	/experiments/knapen_aot/AOT/AOT_stimuli/pictures/1574_fw.png	420.26723885536194	
344	307.8317348957062	picture	0		101	342.0	/experiments/knapen_aot/AOT/AOT_stimuli/pictures/2056_fw.png	420.2835009098053	0.8500120639801025
344	308.66514682769775	response	0	j		342.0	/experiments/knapen_aot/AOT/AOT_stimuli/pictures/2056_fw.png	421.1169128417969	
345	308.6817469596863	picture	0		109	343.0	/experiments/knapen_aot/AOT/AOT_stimuli/pictures/0898_fw.png	421.1335129737854	0.9166250228881836
345	309.58179783821106	response	0	j		343.0	/experiments/knapen_aot/AOT/AOT_stimuli/pictures/0898_fw.png	422.0335638523102	
346	309.59837198257446	picture	0		84	344.0	/experiments/knapen_aot/AOT/AOT_stimuli/pictures/0204_fw.png	422.0501379966736	0.7083218097686768
346	310.29013180732727	response	0	j		344.0	/experiments/knapen_aot/AOT/AOT_stimuli/pictures/0204_fw.png	422.7418978214264	
347	310.30669379234314	picture	0		80	345.0	/experiments/knapen_aot/AOT/AOT_stimuli/pictures/1515_fw.png	422.75845980644226	0.6755180358886719
347	310.9651257991791	response	0	k		345.0	/experiments/knapen_aot/AOT/AOT_stimuli/pictures/1515_fw.png	423.4168918132782	
348	310.9822118282318	picture	0		161	346.0	/experiments/knapen_aot/AOT/AOT_stimuli/pictures/0934_fw.png	423.43397784233093	1.3495559692382812
348	312.3083667755127	response	0	k		346.0	/experiments/knapen_aot/AOT/AOT_stimuli/pictures/0934_fw.png	424.7601327896118	
349	312.3317677974701	picture	0		104	347.0	/experiments/knapen_aot/AOT/AOT_stimuli/pictures/0243_fw.png	424.7835338115692	0.874946117401123
349	313.19045782089233	response	0	k		347.0	/experiments/knapen_aot/AOT/AOT_stimuli/pictures/0243_fw.png	425.64222383499146	
350	313.2067139148712	picture	0		105	348.0	/experiments/knapen_aot/AOT/AOT_stimuli/pictures/0177_fw.png	425.65847992897034	0.8833608627319336
350	314.0734529495239	response	0	k		348.0	/experiments/knapen_aot/AOT/AOT_stimuli/pictures/0177_fw.png	426.52521896362305	
351	314.09007477760315	picture	0		200	349.0	/experiments/knapen_aot/AOT/AOT_stimuli/pictures/0325_fw.png	426.54184079170227	1.6750280857086182
351	315.7483639717102	response	0	k		349.0	/experiments/knapen_aot/AOT/AOT_stimuli/pictures/0325_fw.png	428.2001299858093	
352	315.76510286331177	picture	0		87	350.0	/experiments/knapen_aot/AOT/AOT_stimuli/pictures/0018_fw.png	428.2168688774109	0.7334239482879639
352	316.4820308685303	response	0	k		350.0	/experiments/knapen_aot/AOT/AOT_stimuli/pictures/0018_fw.png	428.9337968826294	
353	316.49852681159973	picture	0		81	351.0	/experiments/knapen_aot/AOT/AOT_stimuli/pictures/0235_fw.png	428.95029282569885	0.6832091808319092
353	317.1651518344879	response	0	j		351.0	/experiments/knapen_aot/AOT/AOT_stimuli/pictures/0235_fw.png	429.61691784858704	
354	317.18173599243164	picture	0		166	352.0	/experiments/knapen_aot/AOT/AOT_stimuli/pictures/0843_fw.png	429.63350200653076	1.3916609287261963
354	318.55679988861084	response	0	k		352.0	/experiments/knapen_aot/AOT/AOT_stimuli/pictures/0843_fw.png	431.00856590270996	
355	318.57339692115784	picture	0		136	353.0	/experiments/knapen_aot/AOT/AOT_stimuli/pictures/0894_fw.png	431.02516293525696	1.1416840553283691
355	319.69851779937744	response	0	k		353.0	/experiments/knapen_aot/AOT/AOT_stimuli/pictures/0894_fw.png	432.15028381347656	
356	319.7150809764862	picture	0		87	354.0	/experiments/knapen_aot/AOT/AOT_stimuli/pictures/1973_fw.png	432.1668469905853	0.7332649230957031
356	320.43185591697693	response	0	j		354.0	/experiments/knapen_aot/AOT/AOT_stimuli/pictures/1973_fw.png	432.88362193107605	
357	320.4483458995819	picture	0		189	355.0	/experiments/knapen_aot/AOT/AOT_stimuli/pictures/0169_fw.png	432.90011191368103	1.583362102508545
357	322.01514196395874	response	0	j		355.0	/experiments/knapen_aot/AOT/AOT_stimuli/pictures/0169_fw.png	434.46690797805786	
358	322.03170800209045	picture	0		82	356.0	/experiments/knapen_aot/AOT/AOT_stimuli/pictures/0045_fw.png	434.4834740161896	0.6916928291320801
358	322.70677280426025	response	0	j		356.0	/experiments/knapen_aot/AOT/AOT_stimuli/pictures/0045_fw.png	435.1585388183594	
359	322.72340083122253	picture	0		85	357.0	/experiments/knapen_aot/AOT/AOT_stimuli/pictures/1842_fw.png	435.17516684532166	0.7175619602203369
359	323.423476934433	response	0	k		357.0	/experiments/knapen_aot/AOT/AOT_stimuli/pictures/1842_fw.png	435.8752429485321	
360	323.44096279144287	picture	0		85	358.0	/experiments/knapen_aot/AOT/AOT_stimuli/pictures/1632_fw.png	435.892728805542	0.715705156326294
360	324.1333317756653	response	0	j		358.0	/experiments/knapen_aot/AOT/AOT_stimuli/pictures/1632_fw.png	436.5850977897644	
361	324.15666794776917	picture	0		115	359.0	/experiments/knapen_aot/AOT/AOT_stimuli/pictures/1554_fw.png	436.6084339618683	0.9642200469970703
361	325.1069428920746	response	0	j		359.0	/experiments/knapen_aot/AOT/AOT_stimuli/pictures/1554_fw.png	437.5587089061737	
362	325.12088799476624	stim	0		1485			437.57265400886536	12.381661891937256
362	337.49001383781433	response	0	space				449.94177985191345	
