trial_nr	onset	event_type	phase	response	nr_frames	picture_index	picture_file	onset_abs	duration
0	0.21371006965637207	stim	0		1017			166.40479612350464	8.544626951217651
0	8.691904067993164	response	0	space				174.88299012184143	
2	8.758337020874023	picture	0		126	0.0	/experiments/knapen_AOT/AOT_stimuli/pictures/1198_fw.png	174.9494230747223	1.0751709938049316
2	9.800143003463745	response	0	j		0.0	/experiments/knapen_AOT/AOT_stimuli/pictures/1198_fw.png	175.991229057312	
3	9.833508014678955	picture	0		178	1.0	/experiments/knapen_AOT/AOT_stimuli/pictures/1677_fw.png	176.02459406852722	1.524893045425415
3	11.308636903762817	response	0	j		1.0	/experiments/knapen_AOT/AOT_stimuli/pictures/1677_fw.png	177.49972295761108	
4	11.35840106010437	picture	0		85	2.0	/experiments/knapen_AOT/AOT_stimuli/pictures/0662_fw.png	177.54948711395264	0.7583189010620117
4	12.058538913726807	response	0	j		2.0	/experiments/knapen_AOT/AOT_stimuli/pictures/0662_fw.png	178.24962496757507	
5	12.116719961166382	picture	0		290	3.0	/experiments/knapen_AOT/AOT_stimuli/pictures/1399_fw.png	178.30780601501465	2.4583230018615723
5	14.525307893753052	response	0	k		3.0	/experiments/knapen_AOT/AOT_stimuli/pictures/1399_fw.png	180.71639394760132	
6	14.575042963027954	picture	0		94	4.0	/experiments/knapen_AOT/AOT_stimuli/pictures/0493_fw.png	180.76612901687622	0.8123569488525391
6	15.35021710395813	response	0	j		4.0	/experiments/knapen_AOT/AOT_stimuli/pictures/0493_fw.png	181.5413031578064	
7	15.387399911880493	picture	0		142	5.0	/experiments/knapen_AOT/AOT_stimuli/pictures/1888_fw.png	181.57848596572876	1.2084310054779053
7	16.55199098587036	response	0	k		5.0	/experiments/knapen_AOT/AOT_stimuli/pictures/1888_fw.png	182.74307703971863	
8	16.5958309173584	picture	0		151	6.0	/experiments/knapen_AOT/AOT_stimuli/pictures/1991_fw.png	182.78691697120667	1.2959940433502197
8	17.841989040374756	response	0	j		6.0	/experiments/knapen_AOT/AOT_stimuli/pictures/1991_fw.png	184.03307509422302	
9	17.891824960708618	picture	0		394	7.0	/experiments/knapen_AOT/AOT_stimuli/pictures/0224_fw.png	184.08291101455688	3.3167080879211426
9	21.16031789779663	response	0	k		7.0	/experiments/knapen_AOT/AOT_stimuli/pictures/0224_fw.png	187.3514039516449	
10	21.20853304862976	picture	0		184	8.0	/experiments/knapen_AOT/AOT_stimuli/pictures/0515_fw.png	187.39961910247803	1.5608768463134766
10	22.7337589263916	response	0	j		8.0	/experiments/knapen_AOT/AOT_stimuli/pictures/0515_fw.png	188.92484498023987	
11	22.769409894943237	picture	0		90	9.0	/experiments/knapen_AOT/AOT_stimuli/pictures/1063_fw.png	188.9604959487915	0.7807981967926025
11	23.508689880371094	response	0	j		9.0	/experiments/knapen_AOT/AOT_stimuli/pictures/1063_fw.png	189.69977593421936	
12	23.55020809173584	picture	0		554	10.0	/experiments/knapen_AOT/AOT_stimuli/pictures/2013_fw.png	189.7412941455841	4.658442974090576
12	28.152177095413208	response	0	k		10.0	/experiments/knapen_AOT/AOT_stimuli/pictures/2013_fw.png	194.34326314926147	
13	28.208651065826416	picture	0		87	11.0	/experiments/knapen_AOT/AOT_stimuli/pictures/1246_fw.png	194.39973711967468	0.7761998176574707
13	28.925477981567383	response	0	j		11.0	/experiments/knapen_AOT/AOT_stimuli/pictures/1246_fw.png	195.11656403541565	
14	28.984850883483887	picture	0		124	12.0	/experiments/knapen_AOT/AOT_stimuli/pictures/0443_fw.png	195.17593693733215	1.0623841285705566
14	30.008758068084717	response	0	k		12.0	/experiments/knapen_AOT/AOT_stimuli/pictures/0443_fw.png	196.19984412193298	
15	30.047235012054443	picture	0		88	13.0	/experiments/knapen_AOT/AOT_stimuli/pictures/0275_fw.png	196.2383210659027	0.763916015625
15	30.76862406730652	response	0	j		13.0	/experiments/knapen_AOT/AOT_stimuli/pictures/0275_fw.png	196.95971012115479	
16	30.811151027679443	picture	0		137	14.0	/experiments/knapen_AOT/AOT_stimuli/pictures/0930_fw.png	197.0022370815277	1.1807990074157715
16	31.94209599494934	response	0	j		14.0	/experiments/knapen_AOT/AOT_stimuli/pictures/0930_fw.png	198.1331820487976	
17	31.991950035095215	picture	0		90	15.0	/experiments/knapen_AOT/AOT_stimuli/pictures/2085_fw.png	198.18303608894348	0.8001010417938232
17	32.73381805419922	response	0	j		15.0	/experiments/knapen_AOT/AOT_stimuli/pictures/2085_fw.png	198.92490410804749	
18	32.79205107688904	picture	0		86	16.0	/experiments/knapen_AOT/AOT_stimuli/pictures/0161_fw.png	198.9831371307373	0.7690749168395996
18	33.50058698654175	response	0	j		16.0	/experiments/knapen_AOT/AOT_stimuli/pictures/0161_fw.png	199.69167304039001	
19	33.56112599372864	picture	0		175	17.0	/experiments/knapen_AOT/AOT_stimuli/pictures/2164_fw.png	199.7522120475769	1.4860398769378662
19	35.00901007652283	response	0	j		17.0	/experiments/knapen_AOT/AOT_stimuli/pictures/2164_fw.png	201.2000961303711	
20	35.047165870666504	picture	0		153	18.0	/experiments/knapen_AOT/AOT_stimuli/pictures/1822_fw.png	201.23825192451477	1.3056960105895996
20	36.31713891029358	response	0	k		18.0	/experiments/knapen_AOT/AOT_stimuli/pictures/1822_fw.png	202.50822496414185	
21	36.3528618812561	picture	0		90	19.0	/experiments/knapen_AOT/AOT_stimuli/pictures/1381_fw.png	202.54394793510437	0.8057980537414551
21	37.092140913009644	response	0	j		19.0	/experiments/knapen_AOT/AOT_stimuli/pictures/1381_fw.png	203.2832269668579	
22	37.15865993499756	picture	0		235	20.0	/experiments/knapen_AOT/AOT_stimuli/pictures/1248_fw.png	203.34974598884583	2.0500900745391846
22	39.10901999473572	response	0	k		20.0	/experiments/knapen_AOT/AOT_stimuli/pictures/1248_fw.png	205.30010604858398	
23	39.20875000953674	picture	0		119	21.0	/experiments/knapen_AOT/AOT_stimuli/pictures/0130_fw.png	205.399836063385	1.0249989032745361
23	40.192188024520874	response	0	j		21.0	/experiments/knapen_AOT/AOT_stimuli/pictures/0130_fw.png	206.38327407836914	
24	40.23374891281128	picture	0		393	22.0	/experiments/knapen_AOT/AOT_stimuli/pictures/0997_fw.png	206.42483496665955	3.3250441551208496
24	43.500680923461914	response	0	k		22.0	/experiments/knapen_AOT/AOT_stimuli/pictures/0997_fw.png	209.69176697731018	
25	43.55879306793213	picture	0		105	23.0	/experiments/knapen_AOT/AOT_stimuli/pictures/0056_fw.png	209.7498791217804	0.9166779518127441
25	44.425610065460205	response	0	k		23.0	/experiments/knapen_AOT/AOT_stimuli/pictures/0056_fw.png	210.61669611930847	
26	44.47547101974487	picture	0		122	24.0	/experiments/knapen_AOT/AOT_stimuli/pictures/0682_fw.png	210.66655707359314	1.0302989482879639
26	45.48400807380676	response	0	k		24.0	/experiments/knapen_AOT/AOT_stimuli/pictures/0682_fw.png	211.67509412765503	
27	45.50576996803284	picture	0		346	25.0	/experiments/knapen_AOT/AOT_stimuli/pictures/0711_fw.png	211.6968560218811	2.916590929031372
27	48.37716197967529	response	0	j		25.0	/experiments/knapen_AOT/AOT_stimuli/pictures/0711_fw.png	214.56824803352356	
28	48.42236089706421	picture	0		89	26.0	/experiments/knapen_AOT/AOT_stimuli/pictures/1066_fw.png	214.61344695091248	0.7708191871643066
28	49.1523380279541	response	0	j		26.0	/experiments/knapen_AOT/AOT_stimuli/pictures/1066_fw.png	215.34342408180237	
29	49.193180084228516	picture	0		109	27.0	/experiments/knapen_AOT/AOT_stimuli/pictures/1413_fw.png	215.38426613807678	0.9376089572906494
29	50.09231901168823	response	0	j		27.0	/experiments/knapen_AOT/AOT_stimuli/pictures/1413_fw.png	216.2834050655365	
30	50.130789041519165	picture	0		96	28.0	/experiments/knapen_AOT/AOT_stimuli/pictures/0464_fw.png	216.32187509536743	0.8281888961791992
30	50.925638914108276	response	0	j		28.0	/experiments/knapen_AOT/AOT_stimuli/pictures/0464_fw.png	217.11672496795654	
31	50.958977937698364	picture	0		144	29.0	/experiments/knapen_AOT/AOT_stimuli/pictures/0240_fw.png	217.15006399154663	1.241549015045166
31	52.150853872299194	response	0	j		29.0	/experiments/knapen_AOT/AOT_stimuli/pictures/0240_fw.png	218.34193992614746	
32	52.20052695274353	picture	0		131	30.0	/experiments/knapen_AOT/AOT_stimuli/pictures/1135_fw.png	218.3916130065918	1.1416809558868408
32	53.28401207923889	response	0	k		30.0	/experiments/knapen_AOT/AOT_stimuli/pictures/1135_fw.png	219.47509813308716	
33	53.34220790863037	picture	0		97	31.0	/experiments/knapen_AOT/AOT_stimuli/pictures/0460_fw.png	219.53329396247864	0.8510301113128662
33	54.14236807823181	response	0	j		31.0	/experiments/knapen_AOT/AOT_stimuli/pictures/0460_fw.png	220.33345413208008	
34	54.19323801994324	picture	0		112	32.0	/experiments/knapen_AOT/AOT_stimuli/pictures/0596_fw.png	220.3843240737915	0.949105978012085
34	55.11735987663269	response	0	k		32.0	/experiments/knapen_AOT/AOT_stimuli/pictures/0596_fw.png	221.30844593048096	
35	55.14234399795532	picture	0		92	33.0	/experiments/knapen_AOT/AOT_stimuli/pictures/0890_fw.png	221.3334300518036	0.7939629554748535
35	55.90076804161072	response	0	j		33.0	/experiments/knapen_AOT/AOT_stimuli/pictures/0890_fw.png	222.09185409545898	
36	55.936306953430176	picture	0		177	34.0	/experiments/knapen_AOT/AOT_stimuli/pictures/0478_fw.png	222.12739300727844	1.522711992263794
36	57.40097188949585	response	0	j		34.0	/experiments/knapen_AOT/AOT_stimuli/pictures/0478_fw.png	223.59205794334412	
37	57.45901894569397	picture	0		89	35.0	/experiments/knapen_AOT/AOT_stimuli/pictures/0149_fw.png	223.65010499954224	0.7760300636291504
37	58.18567109107971	response	0	k		35.0	/experiments/knapen_AOT/AOT_stimuli/pictures/0149_fw.png	224.37675714492798	
38	58.23504900932312	picture	0		109	36.0	/experiments/knapen_AOT/AOT_stimuli/pictures/0924_fw.png	224.4261350631714	0.948936939239502
38	59.134133100509644	response	0	k		36.0	/experiments/knapen_AOT/AOT_stimuli/pictures/0924_fw.png	225.3252191543579	
39	59.18398594856262	picture	0		135	37.0	/experiments/knapen_AOT/AOT_stimuli/pictures/1462_fw.png	225.3750720024109	1.1551830768585205
39	60.30079698562622	response	0	k		37.0	/experiments/knapen_AOT/AOT_stimuli/pictures/1462_fw.png	226.4918830394745	
40	60.33916902542114	picture	0		125	38.0	/experiments/knapen_AOT/AOT_stimuli/pictures/0274_fw.png	226.5302550792694	1.069800853729248
40	61.369035959243774	response	0	k		38.0	/experiments/knapen_AOT/AOT_stimuli/pictures/0274_fw.png	227.56012201309204	
41	61.40896987915039	picture	0		772	39.0	/experiments/knapen_AOT/AOT_stimuli/pictures/0876_fw.png	227.60005593299866	6.483530044555664
41	67.84260392189026	response	0	k		39.0	/experiments/knapen_AOT/AOT_stimuli/pictures/0876_fw.png	234.03368997573853	
42	67.89249992370605	picture	0		112	40.0	/experiments/knapen_AOT/AOT_stimuli/pictures/1801_fw.png	234.08358597755432	0.9833049774169922
42	68.81757593154907	response	0	j		40.0	/experiments/knapen_AOT/AOT_stimuli/pictures/1801_fw.png	235.00866198539734	
43	68.87580490112305	picture	0		296	41.0	/experiments/knapen_AOT/AOT_stimuli/pictures/0627_fw.png	235.0668909549713	2.5188581943511963
43	71.33432388305664	response	0	j		41.0	/experiments/knapen_AOT/AOT_stimuli/pictures/0627_fw.png	237.5254099369049	
44	71.39466309547424	picture	0		88	42.0	/experiments/knapen_AOT/AOT_stimuli/pictures/0046_fw.png	237.5857491493225	0.772939920425415
44	72.11772203445435	response	0	k		42.0	/experiments/knapen_AOT/AOT_stimuli/pictures/0046_fw.png	238.3088080883026	
45	72.16760301589966	picture	0		93	43.0	/experiments/knapen_AOT/AOT_stimuli/pictures/0092_fw.png	238.35868906974792	0.8082139492034912
45	72.93427205085754	response	0	j		43.0	/experiments/knapen_AOT/AOT_stimuli/pictures/0092_fw.png	239.1253581047058	
46	72.97581696510315	picture	0		126	44.0	/experiments/knapen_AOT/AOT_stimuli/pictures/0777_fw.png	239.16690301895142	1.0788390636444092
46	74.01765298843384	response	0	j		44.0	/experiments/knapen_AOT/AOT_stimuli/pictures/0777_fw.png	240.2087390422821	
47	74.05465602874756	picture	0		111	45.0	/experiments/knapen_AOT/AOT_stimuli/pictures/0113_fw.png	240.24574208259583	0.9512548446655273
47	74.96084809303284	response	0	j		45.0	/experiments/knapen_AOT/AOT_stimuli/pictures/0113_fw.png	241.1519341468811	
48	75.00591087341309	picture	0		117	46.0	/experiments/knapen_AOT/AOT_stimuli/pictures/1517_fw.png	241.19699692726135	0.9949991703033447
48	75.96944189071655	response	0	k		46.0	/experiments/knapen_AOT/AOT_stimuli/pictures/1517_fw.png	242.16052794456482	
49	76.00091004371643	picture	0		86	47.0	/experiments/knapen_AOT/AOT_stimuli/pictures/1725_fw.png	242.1919960975647	0.7480919361114502
49	76.70933604240417	response	0	j		47.0	/experiments/knapen_AOT/AOT_stimuli/pictures/1725_fw.png	242.90042209625244	
50	76.74900197982788	picture	0		230	48.0	/experiments/knapen_AOT/AOT_stimuli/pictures/0168_fw.png	242.94008803367615	1.9686310291290283
50	78.65939497947693	response	0	k		48.0	/experiments/knapen_AOT/AOT_stimuli/pictures/0168_fw.png	244.8504810333252	
51	78.71763300895691	picture	0		125	49.0	/experiments/knapen_AOT/AOT_stimuli/pictures/0356_fw.png	244.90871906280518	1.0916070938110352
51	79.75106692314148	response	0	k		49.0	/experiments/knapen_AOT/AOT_stimuli/pictures/0356_fw.png	245.94215297698975	
52	79.80924010276794	picture	0		163	50.0	/experiments/knapen_AOT/AOT_stimuli/pictures/1007_fw.png	246.0003261566162	1.3917248249053955
52	81.15274500846863	response	0	k		50.0	/experiments/knapen_AOT/AOT_stimuli/pictures/1007_fw.png	247.3438310623169	
53	81.20096492767334	picture	0		458	51.0	/experiments/knapen_AOT/AOT_stimuli/pictures/0359_fw.png	247.3920509815216	3.841679096221924
53	85.00957894325256	response	0	j		51.0	/experiments/knapen_AOT/AOT_stimuli/pictures/0359_fw.png	251.20066499710083	
54	85.04264402389526	picture	0		98	52.0	/experiments/knapen_AOT/AOT_stimuli/pictures/2124_fw.png	251.23373007774353	0.8833169937133789
54	85.8511130809784	response	0	k		52.0	/experiments/knapen_AOT/AOT_stimuli/pictures/2124_fw.png	252.04219913482666	
55	85.92596101760864	picture	0		201	53.0	/experiments/knapen_AOT/AOT_stimuli/pictures/0501_fw.png	252.1170470714569	1.7188448905944824
55	87.59279990196228	response	0	k		53.0	/experiments/knapen_AOT/AOT_stimuli/pictures/0501_fw.png	253.78388595581055	
56	87.64480590820312	picture	0		232	54.0	/experiments/knapen_AOT/AOT_stimuli/pictures/0196_fw.png	253.8358919620514	1.965273141860962
56	89.56116890907288	response	0	k		54.0	/experiments/knapen_AOT/AOT_stimuli/pictures/0196_fw.png	255.75225496292114	
57	89.61007905006409	picture	0		162	55.0	/experiments/knapen_AOT/AOT_stimuli/pictures/0062_fw.png	255.80116510391235	1.5416648387908936
57	90.9511981010437	response	0	j		55.0	/experiments/knapen_AOT/AOT_stimuli/pictures/0062_fw.png	257.14228415489197	
58	91.15174388885498	picture	0		90	56.0	/experiments/knapen_AOT/AOT_stimuli/pictures/1532_fw.png	257.34282994270325	0.7910561561584473
58	91.89285802841187	response	0	k		56.0	/experiments/knapen_AOT/AOT_stimuli/pictures/1532_fw.png	258.08394408226013	
59	91.94280004501343	picture	0		222	57.0	/experiments/knapen_AOT/AOT_stimuli/pictures/2081_fw.png	258.1338860988617	1.8917388916015625
59	93.7776849269867	response	0	k		57.0	/experiments/knapen_AOT/AOT_stimuli/pictures/2081_fw.png	259.96877098083496	
60	93.83453893661499	picture	0		92	58.0	/experiments/knapen_AOT/AOT_stimuli/pictures/0001_fw.png	260.02562499046326	0.8104500770568848
60	94.59287405014038	response	0	j		58.0	/experiments/knapen_AOT/AOT_stimuli/pictures/0001_fw.png	260.78396010398865	
61	94.64498901367188	picture	0		102	59.0	/experiments/knapen_AOT/AOT_stimuli/pictures/0762_fw.png	260.83607506752014	0.881119966506958
61	95.48468494415283	response	0	k		59.0	/experiments/knapen_AOT/AOT_stimuli/pictures/0762_fw.png	261.6757709980011	
62	95.52610898017883	picture	0		115	60.0	/experiments/knapen_AOT/AOT_stimuli/pictures/0976_fw.png	261.7171950340271	0.9870069026947021
62	96.47621989250183	response	0	j		60.0	/experiments/knapen_AOT/AOT_stimuli/pictures/0976_fw.png	262.6673059463501	
63	96.51311588287354	picture	0		86	61.0	/experiments/knapen_AOT/AOT_stimuli/pictures/0058_fw.png	262.7042019367218	0.7568740844726562
63	97.21804308891296	response	0	j		61.0	/experiments/knapen_AOT/AOT_stimuli/pictures/0058_fw.png	263.40912914276123	
64	97.26998996734619	picture	0		125	62.0	/experiments/knapen_AOT/AOT_stimuli/pictures/0592_fw.png	263.46107602119446	1.0694890022277832
64	98.30126190185547	response	0	k		62.0	/experiments/knapen_AOT/AOT_stimuli/pictures/0592_fw.png	264.49234795570374	
65	98.33947896957397	picture	0		84	63.0	/experiments/knapen_AOT/AOT_stimuli/pictures/0584_fw.png	264.53056502342224	0.7283871173858643
65	99.034677028656	response	0	j		63.0	/experiments/knapen_AOT/AOT_stimuli/pictures/0584_fw.png	265.2257630825043	
66	99.06786608695984	picture	0		117	64.0	/experiments/knapen_AOT/AOT_stimuli/pictures/0761_fw.png	265.2589521408081	1.0008258819580078
66	100.03472709655762	response	0	k		64.0	/experiments/knapen_AOT/AOT_stimuli/pictures/0761_fw.png	266.2258131504059	
67	100.06869196891785	picture	0		109	65.0	/experiments/knapen_AOT/AOT_stimuli/pictures/0758_fw.png	266.2597780227661	0.9374170303344727
67	100.96136808395386	response	0	k		65.0	/experiments/knapen_AOT/AOT_stimuli/pictures/0758_fw.png	267.1524541378021	
68	101.00610899925232	picture	0		168	66.0	/experiments/knapen_AOT/AOT_stimuli/pictures/1917_fw.png	267.1971950531006	1.4374070167541504
68	102.39302802085876	response	0	j		66.0	/experiments/knapen_AOT/AOT_stimuli/pictures/1917_fw.png	268.58411407470703	
69	102.44351601600647	picture	0		108	67.0	/experiments/knapen_AOT/AOT_stimuli/pictures/2112_fw.png	268.63460206985474	0.9445888996124268
69	103.33468389511108	response	0	j		67.0	/experiments/knapen_AOT/AOT_stimuli/pictures/2112_fw.png	269.52576994895935	
70	103.3881049156189	picture	0		96	68.0	/experiments/knapen_AOT/AOT_stimuli/pictures/1082_fw.png	269.57919096946716	0.8402361869812012
70	104.16955494880676	response	0	k		68.0	/experiments/knapen_AOT/AOT_stimuli/pictures/1082_fw.png	270.36064100265503	
71	104.2283411026001	picture	0		106	69.0	/experiments/knapen_AOT/AOT_stimuli/pictures/1521_fw.png	270.41942715644836	0.9097888469696045
71	105.10133695602417	response	0	k		69.0	/experiments/knapen_AOT/AOT_stimuli/pictures/1521_fw.png	271.29242300987244	
72	105.1381299495697	picture	0		92	70.0	/experiments/knapen_AOT/AOT_stimuli/pictures/0952_fw.png	271.32921600341797	0.7916889190673828
72	105.89301490783691	response	0	j		70.0	/experiments/knapen_AOT/AOT_stimuli/pictures/0952_fw.png	272.0841009616852	
73	105.92981886863708	picture	0		96	71.0	/experiments/knapen_AOT/AOT_stimuli/pictures/0233_fw.png	272.12090492248535	0.8262991905212402
73	106.71810507774353	response	0	j		71.0	/experiments/knapen_AOT/AOT_stimuli/pictures/0233_fw.png	272.9091911315918	
74	106.75611805915833	picture	0		98	72.0	/experiments/knapen_AOT/AOT_stimuli/pictures/0075_fw.png	272.9472041130066	0.8618979454040527
74	107.55309700965881	response	0	j		72.0	/experiments/knapen_AOT/AOT_stimuli/pictures/0075_fw.png	273.7441830635071	
75	107.61801600456238	picture	0		140	73.0	/experiments/knapen_AOT/AOT_stimuli/pictures/0284_fw.png	273.80910205841064	1.349992036819458
75	108.77711200714111	response	0	k		73.0	/experiments/knapen_AOT/AOT_stimuli/pictures/0284_fw.png	274.9681980609894	
76	108.96800804138184	picture	0		783	74.0	/experiments/knapen_AOT/AOT_stimuli/pictures/0305_fw.png	275.1590940952301	6.550065994262695
76	115.48555588722229	response	0	k		74.0	/experiments/knapen_AOT/AOT_stimuli/pictures/0305_fw.png	281.67664194107056	
77	115.51807403564453	picture	0		112	75.0	/experiments/knapen_AOT/AOT_stimuli/pictures/1500_fw.png	281.7091600894928	0.9673590660095215
77	116.44383788108826	response	0	j		75.0	/experiments/knapen_AOT/AOT_stimuli/pictures/1500_fw.png	282.6349239349365	
78	116.48543310165405	picture	0		89	76.0	/experiments/knapen_AOT/AOT_stimuli/pictures/1425_fw.png	282.6765191555023	0.7993319034576416
78	117.2182080745697	response	0	j		76.0	/experiments/knapen_AOT/AOT_stimuli/pictures/1425_fw.png	283.40929412841797	
79	117.2847650051117	picture	0		224	77.0	/experiments/knapen_AOT/AOT_stimuli/pictures/1080_fw.png	283.47585105895996	1.9296929836273193
79	119.14331698417664	response	0	k		77.0	/experiments/knapen_AOT/AOT_stimuli/pictures/1080_fw.png	285.3344030380249	
80	119.21445798873901	picture	0		97	78.0	/experiments/knapen_AOT/AOT_stimuli/pictures/0594_fw.png	285.4055440425873	0.840399980545044
80	120.01819705963135	response	0	k		78.0	/experiments/knapen_AOT/AOT_stimuli/pictures/0594_fw.png	286.2092831134796	
81	120.05485796928406	picture	0		545	79.0	/experiments/knapen_AOT/AOT_stimuli/pictures/2168_fw.png	286.2459440231323	4.563308954238892
81	124.57820987701416	response	0	k		79.0	/experiments/knapen_AOT/AOT_stimuli/pictures/2168_fw.png	290.7692959308624	
82	124.61816692352295	picture	0		118	80.0	/experiments/knapen_AOT/AOT_stimuli/pictures/1487_fw.png	290.8092529773712	1.0130970478057861
82	125.58669996261597	response	0	j		80.0	/experiments/knapen_AOT/AOT_stimuli/pictures/1487_fw.png	291.77778601646423	
83	125.63126397132874	picture	0		502	81.0	/experiments/knapen_AOT/AOT_stimuli/pictures/2074_fw.png	291.822350025177	4.220286130905151
83	129.80178594589233	response	0	j		81.0	/experiments/knapen_AOT/AOT_stimuli/pictures/2074_fw.png	295.9928719997406	
84	129.8515501022339	picture	0		135	82.0	/experiments/knapen_AOT/AOT_stimuli/pictures/0398_fw.png	296.04263615608215	1.1548538208007812
84	130.96177506446838	response	0	k		82.0	/experiments/knapen_AOT/AOT_stimuli/pictures/0398_fw.png	297.15286111831665	
85	131.00640392303467	picture	0		87	83.0	/experiments/knapen_AOT/AOT_stimuli/pictures/0939_fw.png	297.19748997688293	0.7535130977630615
85	131.71839809417725	response	0	j		83.0	/experiments/knapen_AOT/AOT_stimuli/pictures/0939_fw.png	297.9094841480255	
86	131.75991702079773	picture	0		83	84.0	/experiments/knapen_AOT/AOT_stimuli/pictures/1637_fw.png	297.951003074646	0.7917020320892334
86	132.4439799785614	response	0	j		84.0	/experiments/knapen_AOT/AOT_stimuli/pictures/1637_fw.png	298.63506603240967	
87	132.55161905288696	picture	0		160	85.0	/experiments/knapen_AOT/AOT_stimuli/pictures/0608_fw.png	298.74270510673523	1.3921358585357666
87	133.8767819404602	response	0	k		85.0	/experiments/knapen_AOT/AOT_stimuli/pictures/0608_fw.png	300.0678679943085	
88	133.94375491142273	picture	0		97	86.0	/experiments/knapen_AOT/AOT_stimuli/pictures/1593_fw.png	300.134840965271	0.8411979675292969
88	134.737242937088	response	0	j		86.0	/experiments/knapen_AOT/AOT_stimuli/pictures/1593_fw.png	300.9283289909363	
89	134.78495287895203	picture	0		175	87.0	/experiments/knapen_AOT/AOT_stimuli/pictures/1489_fw.png	300.9760389328003	1.4834041595458984
89	136.2356719970703	response	0	k		87.0	/experiments/knapen_AOT/AOT_stimuli/pictures/1489_fw.png	302.4267580509186	
90	136.26835703849792	picture	0		117	88.0	/experiments/knapen_AOT/AOT_stimuli/pictures/1535_fw.png	302.4594430923462	1.0250658988952637
90	137.23581504821777	response	0	j		88.0	/experiments/knapen_AOT/AOT_stimuli/pictures/1535_fw.png	303.42690110206604	
91	137.2934229373932	picture	0		146	89.0	/experiments/knapen_AOT/AOT_stimuli/pictures/2035_fw.png	303.48450899124146	1.2916080951690674
91	138.50197196006775	response	0	k		89.0	/experiments/knapen_AOT/AOT_stimuli/pictures/2035_fw.png	304.693058013916	
92	138.58503103256226	picture	0		132	90.0	/experiments/knapen_AOT/AOT_stimuli/pictures/1388_fw.png	304.7761170864105	1.141700029373169
92	139.67684888839722	response	0	j		90.0	/experiments/knapen_AOT/AOT_stimuli/pictures/1388_fw.png	305.8679349422455	
93	139.72673106193542	picture	0		98	91.0	/experiments/knapen_AOT/AOT_stimuli/pictures/1369_fw.png	305.9178171157837	0.8422269821166992
93	140.53518104553223	response	0	j		91.0	/experiments/knapen_AOT/AOT_stimuli/pictures/1369_fw.png	306.7262670993805	
94	140.56895804405212	picture	0		91	92.0	/experiments/knapen_AOT/AOT_stimuli/pictures/1253_fw.png	306.7600440979004	0.79109787940979
94	141.3191568851471	response	0	j		92.0	/experiments/knapen_AOT/AOT_stimuli/pictures/1253_fw.png	307.51024293899536	
95	141.3600559234619	picture	0		108	93.0	/experiments/knapen_AOT/AOT_stimuli/pictures/0288_fw.png	307.5511419773102	0.9588489532470703
95	142.26854801177979	response	0	k		93.0	/experiments/knapen_AOT/AOT_stimuli/pictures/0288_fw.png	308.45963406562805	
96	142.31890487670898	picture	0		124	94.0	/experiments/knapen_AOT/AOT_stimuli/pictures/0314_fw.png	308.50999093055725	1.0661430358886719
96	143.34352803230286	response	0	k		94.0	/experiments/knapen_AOT/AOT_stimuli/pictures/0314_fw.png	309.5346140861511	
97	143.38504791259766	picture	0		140	95.0	/experiments/knapen_AOT/AOT_stimuli/pictures/1025_fw.png	309.5761339664459	1.1978721618652344
97	144.54363489151	response	0	j		95.0	/experiments/knapen_AOT/AOT_stimuli/pictures/1025_fw.png	310.7347209453583	
98	144.5829200744629	picture	0		252	96.0	/experiments/knapen_AOT/AOT_stimuli/pictures/1502_fw.png	310.77400612831116	2.131840944290161
98	146.67698287963867	response	0	k		96.0	/experiments/knapen_AOT/AOT_stimuli/pictures/1502_fw.png	312.86806893348694	
99	146.71476101875305	picture	0		82	97.0	/experiments/knapen_AOT/AOT_stimuli/pictures/1118_fw.png	312.9058470726013	0.8203189373016357
99	147.3854489326477	response	0	j		97.0	/experiments/knapen_AOT/AOT_stimuli/pictures/1118_fw.png	313.576534986496	
100	147.5350799560547	picture	0		230	98.0	/experiments/knapen_AOT/AOT_stimuli/pictures/1086_fw.png	313.72616600990295	1.9501140117645264
100	149.44409108161926	response	0	k		98.0	/experiments/knapen_AOT/AOT_stimuli/pictures/1086_fw.png	315.63517713546753	
101	149.4851939678192	picture	0		127	99.0	/experiments/knapen_AOT/AOT_stimuli/pictures/1446_fw.png	315.6762800216675	1.0768189430236816
101	150.5354039669037	response	0	k		99.0	/experiments/knapen_AOT/AOT_stimuli/pictures/1446_fw.png	316.72649002075195	
102	150.5620129108429	picture	0		525	100.0	/experiments/knapen_AOT/AOT_stimuli/pictures/0582_fw.png	316.75309896469116	4.4066221714019775
102	154.92713403701782	response	0	k		100.0	/experiments/knapen_AOT/AOT_stimuli/pictures/0582_fw.png	321.1182200908661	
103	154.96863508224487	picture	0		98	101.0	/experiments/knapen_AOT/AOT_stimuli/pictures/1134_fw.png	321.15972113609314	0.8434460163116455
103	155.7702600955963	response	0	j		101.0	/experiments/knapen_AOT/AOT_stimuli/pictures/1134_fw.png	321.9613461494446	
104	155.81208109855652	picture	0		95	102.0	/experiments/knapen_AOT/AOT_stimuli/pictures/1199_fw.png	322.0031671524048	0.8194599151611328
104	156.5937008857727	response	0	j		102.0	/experiments/knapen_AOT/AOT_stimuli/pictures/1199_fw.png	322.784786939621	
105	156.63154101371765	picture	0		96	103.0	/experiments/knapen_AOT/AOT_stimuli/pictures/0943_fw.png	322.8226270675659	0.8542039394378662
105	157.41873002052307	response	0	k		103.0	/experiments/knapen_AOT/AOT_stimuli/pictures/0943_fw.png	323.60981607437134	
106	157.48574495315552	picture	0		181	104.0	/experiments/knapen_AOT/AOT_stimuli/pictures/0433_fw.png	323.6768310070038	1.5495150089263916
106	158.97867107391357	response	0	k		104.0	/experiments/knapen_AOT/AOT_stimuli/pictures/0433_fw.png	325.16975712776184	
107	159.0352599620819	picture	0		101	105.0	/experiments/knapen_AOT/AOT_stimuli/pictures/1434_fw.png	325.2263460159302	0.8750100135803223
107	159.86883997917175	response	0	j		105.0	/experiments/knapen_AOT/AOT_stimuli/pictures/1434_fw.png	326.05992603302	
108	159.91026997566223	picture	0		90	106.0	/experiments/knapen_AOT/AOT_stimuli/pictures/0178_fw.png	326.1013560295105	0.7834250926971436
108	160.65250492095947	response	0	j		106.0	/experiments/knapen_AOT/AOT_stimuli/pictures/0178_fw.png	326.84359097480774	
109	160.69369506835938	picture	0		108	107.0	/experiments/knapen_AOT/AOT_stimuli/pictures/0080_fw.png	326.88478112220764	0.9249308109283447
109	161.57890605926514	response	0	k		107.0	/experiments/knapen_AOT/AOT_stimuli/pictures/0080_fw.png	327.7699921131134	
110	161.61862587928772	picture	0		219	108.0	/experiments/knapen_AOT/AOT_stimuli/pictures/1849_fw.png	327.809711933136	1.8667261600494385
110	163.43571710586548	response	0	j		108.0	/experiments/knapen_AOT/AOT_stimuli/pictures/1849_fw.png	329.62680315971375	
111	163.48535203933716	picture	0		204	109.0	/experiments/knapen_AOT/AOT_stimuli/pictures/0807_fw.png	329.6764380931854	1.7294909954071045
111	165.17050909996033	response	0	k		109.0	/experiments/knapen_AOT/AOT_stimuli/pictures/0807_fw.png	331.3615951538086	
112	165.21484303474426	picture	0		92	110.0	/experiments/knapen_AOT/AOT_stimuli/pictures/1733_fw.png	331.40592908859253	0.7955379486083984
112	165.96220207214355	response	0	j		110.0	/experiments/knapen_AOT/AOT_stimuli/pictures/1733_fw.png	332.1532881259918	
113	166.01038098335266	picture	0		92	111.0	/experiments/knapen_AOT/AOT_stimuli/pictures/0472_fw.png	332.2014670372009	0.7948029041290283
113	166.7620189189911	response	0	j		111.0	/experiments/knapen_AOT/AOT_stimuli/pictures/0472_fw.png	332.95310497283936	
114	166.8051838874817	picture	0		127	112.0	/experiments/knapen_AOT/AOT_stimuli/pictures/0605_fw.png	332.99626994132996	1.1135680675506592
114	167.8522789478302	response	0	j		112.0	/experiments/knapen_AOT/AOT_stimuli/pictures/0605_fw.png	334.04336500167847	
115	167.91875195503235	picture	0		204	113.0	/experiments/knapen_AOT/AOT_stimuli/pictures/1132_fw.png	334.1098380088806	1.7416861057281494
115	169.61082696914673	response	0	k		113.0	/experiments/knapen_AOT/AOT_stimuli/pictures/1132_fw.png	335.801913022995	
116	169.6604380607605	picture	0		125	114.0	/experiments/knapen_AOT/AOT_stimuli/pictures/2120_fw.png	335.85152411460876	1.0685288906097412
116	170.694237947464	response	0	k		114.0	/experiments/knapen_AOT/AOT_stimuli/pictures/2120_fw.png	336.88532400131226	
117	170.72896695137024	picture	0		95	115.0	/experiments/knapen_AOT/AOT_stimuli/pictures/1943_fw.png	336.9200530052185	0.8193371295928955
117	171.510586977005	response	0	k		115.0	/experiments/knapen_AOT/AOT_stimuli/pictures/1943_fw.png	337.70167303085327	
118	171.54830408096313	picture	0		107	116.0	/experiments/knapen_AOT/AOT_stimuli/pictures/1603_fw.png	337.7393901348114	0.9456048011779785
118	172.42723989486694	response	0	k		116.0	/experiments/knapen_AOT/AOT_stimuli/pictures/1603_fw.png	338.6183259487152	
119	172.4939088821411	picture	0		197	117.0	/experiments/knapen_AOT/AOT_stimuli/pictures/1933_fw.png	338.6849949359894	1.6723740100860596
119	174.1273000240326	response	0	k		117.0	/experiments/knapen_AOT/AOT_stimuli/pictures/1933_fw.png	340.31838607788086	
120	174.16628289222717	picture	0		94	118.0	/experiments/knapen_AOT/AOT_stimuli/pictures/0821_fw.png	340.35736894607544	0.8192369937896729
120	174.94426703453064	response	0	j		118.0	/experiments/knapen_AOT/AOT_stimuli/pictures/0821_fw.png	341.1353530883789	
121	174.98551988601685	picture	0		88	119.0	/experiments/knapen_AOT/AOT_stimuli/pictures/0440_fw.png	341.1766059398651	0.7666420936584473
121	175.71062207221985	response	0	j		119.0	/experiments/knapen_AOT/AOT_stimuli/pictures/0440_fw.png	341.9017081260681	
122	175.7521619796753	picture	0		278	120.0	/experiments/knapen_AOT/AOT_stimuli/pictures/1778_fw.png	341.94324803352356	2.366774082183838
122	178.06072402000427	response	0	j		120.0	/experiments/knapen_AOT/AOT_stimuli/pictures/1778_fw.png	344.25181007385254	
123	178.11893606185913	picture	0		161	121.0	/experiments/knapen_AOT/AOT_stimuli/pictures/1003_fw.png	344.3100221157074	1.3916358947753906
123	179.4523549079895	response	0	k		121.0	/experiments/knapen_AOT/AOT_stimuli/pictures/1003_fw.png	345.64344096183777	
124	179.51057195663452	picture	0		114	122.0	/experiments/knapen_AOT/AOT_stimuli/pictures/0638_fw.png	345.7016580104828	0.9749929904937744
124	180.45235896110535	response	0	j		122.0	/experiments/knapen_AOT/AOT_stimuli/pictures/0638_fw.png	346.6434450149536	
125	180.4855649471283	picture	0		149	123.0	/experiments/knapen_AOT/AOT_stimuli/pictures/0138_fw.png	346.67665100097656	1.275036096572876
125	181.7190659046173	response	0	k		123.0	/experiments/knapen_AOT/AOT_stimuli/pictures/0138_fw.png	347.9101519584656	
126	181.76060104370117	picture	0		135	124.0	/experiments/knapen_AOT/AOT_stimuli/pictures/0054_fw.png	347.95168709754944	1.1766619682312012
126	182.87741494178772	response	0	k		124.0	/experiments/knapen_AOT/AOT_stimuli/pictures/0054_fw.png	349.068500995636	
127	182.93726301193237	picture	0		115	125.0	/experiments/knapen_AOT/AOT_stimuli/pictures/0159_fw.png	349.12834906578064	1.0069549083709717
127	183.8857159614563	response	0	j		125.0	/experiments/knapen_AOT/AOT_stimuli/pictures/0159_fw.png	350.07680201530457	
128	183.94421792030334	picture	0		390	126.0	/experiments/knapen_AOT/AOT_stimuli/pictures/1031_fw.png	350.1353039741516	3.2916290760040283
128	187.18599700927734	response	0	j		126.0	/experiments/knapen_AOT/AOT_stimuli/pictures/1031_fw.png	353.3770830631256	
129	187.23584699630737	picture	0		109	127.0	/experiments/knapen_AOT/AOT_stimuli/pictures/0110_fw.png	353.42693305015564	0.951448917388916
129	188.13582110404968	response	0	k		127.0	/experiments/knapen_AOT/AOT_stimuli/pictures/0110_fw.png	354.32690715789795	
130	188.1872959136963	picture	0		118	128.0	/experiments/knapen_AOT/AOT_stimuli/pictures/2059_fw.png	354.37838196754456	1.015104055404663
130	189.1544210910797	response	0	k		128.0	/experiments/knapen_AOT/AOT_stimuli/pictures/2059_fw.png	355.345507144928	
131	189.20239996910095	picture	0		123	129.0	/experiments/knapen_AOT/AOT_stimuli/pictures/1040_fw.png	355.3934860229492	1.058311939239502
131	190.21915102005005	response	0	k		129.0	/experiments/knapen_AOT/AOT_stimuli/pictures/1040_fw.png	356.4102370738983	
132	190.26071190834045	picture	0		134	130.0	/experiments/knapen_AOT/AOT_stimuli/pictures/0795_fw.png	356.4517979621887	1.1419341564178467
132	191.36262798309326	response	0	k		130.0	/experiments/knapen_AOT/AOT_stimuli/pictures/0795_fw.png	357.5537140369415	
133	191.4026460647583	picture	0		148	131.0	/experiments/knapen_AOT/AOT_stimuli/pictures/1993_fw.png	357.59373211860657	1.2747650146484375
133	192.6274859905243	response	0	k		131.0	/experiments/knapen_AOT/AOT_stimuli/pictures/1993_fw.png	358.81857204437256	
134	192.67741107940674	picture	0		352	132.0	/experiments/knapen_AOT/AOT_stimuli/pictures/1655_fw.png	358.868497133255	2.961249828338623
134	195.6027319431305	response	0	k		132.0	/experiments/knapen_AOT/AOT_stimuli/pictures/1655_fw.png	361.79381799697876	
135	195.63866090774536	picture	0		326	133.0	/experiments/knapen_AOT/AOT_stimuli/pictures/0316_fw.png	361.8297469615936	2.7431139945983887
135	198.34435296058655	response	0	k		133.0	/experiments/knapen_AOT/AOT_stimuli/pictures/0316_fw.png	364.5354390144348	
136	198.38177490234375	picture	0		104	134.0	/experiments/knapen_AOT/AOT_stimuli/pictures/1659_fw.png	364.572860956192	0.8957509994506836
136	199.23613500595093	response	0	j		134.0	/experiments/knapen_AOT/AOT_stimuli/pictures/1659_fw.png	365.4272210597992	
137	199.27752590179443	picture	0		990	135.0	/experiments/knapen_AOT/AOT_stimuli/pictures/1478_fw.png	365.4686119556427	8.308458089828491
137	207.51954793930054	response	0	k		135.0	/experiments/knapen_AOT/AOT_stimuli/pictures/1478_fw.png	373.7106339931488	
138	207.58598399162292	picture	0		106	136.0	/experiments/knapen_AOT/AOT_stimuli/pictures/1789_fw.png	373.7770700454712	0.9333009719848633
138	208.46103596687317	response	0	k		136.0	/experiments/knapen_AOT/AOT_stimuli/pictures/1789_fw.png	374.65212202072144	
139	208.5192849636078	picture	0		142	137.0	/experiments/knapen_AOT/AOT_stimuli/pictures/0185_fw.png	374.71037101745605	1.2168560028076172
139	209.69459795951843	response	0	j		137.0	/experiments/knapen_AOT/AOT_stimuli/pictures/0185_fw.png	375.8856840133667	
140	209.7361409664154	picture	0		151	138.0	/experiments/knapen_AOT/AOT_stimuli/pictures/1957_fw.png	375.9272270202637	1.291567087173462
140	210.98627400398254	response	0	j		138.0	/experiments/knapen_AOT/AOT_stimuli/pictures/1957_fw.png	377.1773600578308	
141	211.02770805358887	picture	0		93	139.0	/experiments/knapen_AOT/AOT_stimuli/pictures/0099_fw.png	377.21879410743713	0.8195078372955322
141	211.78760695457458	response	0	j		139.0	/experiments/knapen_AOT/AOT_stimuli/pictures/0099_fw.png	377.97869300842285	
142	211.8472158908844	picture	0		195	140.0	/experiments/knapen_AOT/AOT_stimuli/pictures/0018_fw.png	378.03830194473267	1.680474042892456
142	213.46121788024902	response	0	k		140.0	/experiments/knapen_AOT/AOT_stimuli/pictures/0018_fw.png	379.6523039340973	
143	213.52768993377686	picture	0		145	141.0	/experiments/knapen_AOT/AOT_stimuli/pictures/1406_fw.png	379.7187759876251	1.258371114730835
143	214.72784805297852	response	0	k		141.0	/experiments/knapen_AOT/AOT_stimuli/pictures/1406_fw.png	380.9189341068268	
144	214.7860610485077	picture	0		124	142.0	/experiments/knapen_AOT/AOT_stimuli/pictures/0287_fw.png	380.97714710235596	1.054276943206787
144	215.81117486953735	response	0	k		142.0	/experiments/knapen_AOT/AOT_stimuli/pictures/0287_fw.png	382.0022609233856	
145	215.84033799171448	picture	0		105	143.0	/experiments/knapen_AOT/AOT_stimuli/pictures/1309_fw.png	382.03142404556274	0.9041240215301514
145	216.70301699638367	response	0	j		143.0	/experiments/knapen_AOT/AOT_stimuli/pictures/1309_fw.png	382.89410305023193	
146	216.74446201324463	picture	0		135	144.0	/experiments/knapen_AOT/AOT_stimuli/pictures/0459_fw.png	382.9355480670929	1.158397912979126
146	217.8612949848175	response	0	k		144.0	/experiments/knapen_AOT/AOT_stimuli/pictures/0459_fw.png	384.05238103866577	
147	217.90285992622375	picture	0		210	145.0	/experiments/knapen_AOT/AOT_stimuli/pictures/2139_fw.png	384.093945980072	1.7916359901428223
147	219.64469408988953	response	0	k		145.0	/experiments/knapen_AOT/AOT_stimuli/pictures/2139_fw.png	385.8357801437378	
148	219.69449591636658	picture	0		103	146.0	/experiments/knapen_AOT/AOT_stimuli/pictures/1505_fw.png	385.88558197021484	0.891571044921875
148	220.54453086853027	response	0	k		146.0	/experiments/knapen_AOT/AOT_stimuli/pictures/1505_fw.png	386.73561692237854	
149	220.58606696128845	picture	0		105	147.0	/experiments/knapen_AOT/AOT_stimuli/pictures/0964_fw.png	386.7771530151367	0.9001500606536865
149	221.4530599117279	response	0	k		147.0	/experiments/knapen_AOT/AOT_stimuli/pictures/0964_fw.png	387.6441459655762	
150	221.48621702194214	picture	0		97	148.0	/experiments/knapen_AOT/AOT_stimuli/pictures/0855_fw.png	387.6773030757904	0.8333969116210938
150	222.2862470149994	response	0	j		148.0	/experiments/knapen_AOT/AOT_stimuli/pictures/0855_fw.png	388.47733306884766	
151	222.31961393356323	picture	0		223	149.0	/experiments/knapen_AOT/AOT_stimuli/pictures/0321_fw.png	388.5106999874115	1.888848066329956
151	224.16290807724	response	0	k		149.0	/experiments/knapen_AOT/AOT_stimuli/pictures/0321_fw.png	390.35399413108826	
152	224.2084619998932	picture	0		117	150.0	/experiments/knapen_AOT/AOT_stimuli/pictures/0079_fw.png	390.39954805374146	1.0069339275360107
152	225.1712188720703	response	0	k		150.0	/experiments/knapen_AOT/AOT_stimuli/pictures/0079_fw.png	391.3623049259186	
153	225.2153959274292	picture	0		550	151.0	/experiments/knapen_AOT/AOT_stimuli/pictures/0371_fw.png	391.40648198127747	4.638857126235962
153	229.7864830493927	response	0	k		151.0	/experiments/knapen_AOT/AOT_stimuli/pictures/0371_fw.png	395.97756910324097	
154	229.85425305366516	picture	0		83	152.0	/experiments/knapen_AOT/AOT_stimuli/pictures/0543_fw.png	396.0453391075134	0.7084980010986328
154	230.5363359451294	response	0	j		152.0	/experiments/knapen_AOT/AOT_stimuli/pictures/0543_fw.png	396.72742199897766	
155	230.5627510547638	picture	0		282	153.0	/experiments/knapen_AOT/AOT_stimuli/pictures/1232_fw.png	396.75383710861206	2.398533821105957
155	232.91145706176758	response	0	k		153.0	/experiments/knapen_AOT/AOT_stimuli/pictures/1232_fw.png	399.10254311561584	
156	232.96128487586975	picture	0		105	154.0	/experiments/knapen_AOT/AOT_stimuli/pictures/1675_fw.png	399.152370929718	0.925023078918457
156	233.82808709144592	response	0	j		154.0	/experiments/knapen_AOT/AOT_stimuli/pictures/1675_fw.png	400.0191731452942	
157	233.8863079547882	picture	0		132	155.0	/experiments/knapen_AOT/AOT_stimuli/pictures/0570_fw.png	400.0773940086365	1.1277780532836914
157	234.97131609916687	response	0	k		155.0	/experiments/knapen_AOT/AOT_stimuli/pictures/0570_fw.png	401.16240215301514	
158	235.0140860080719	picture	0		129	156.0	/experiments/knapen_AOT/AOT_stimuli/pictures/0915_fw.png	401.20517206192017	1.0973100662231445
158	236.07819390296936	response	0	j		156.0	/experiments/knapen_AOT/AOT_stimuli/pictures/0915_fw.png	402.2692799568176	
159	236.11139607429504	picture	0		207	157.0	/experiments/knapen_AOT/AOT_stimuli/pictures/0748_fw.png	402.3024821281433	1.7583608627319336
159	237.82818603515625	response	0	j		157.0	/experiments/knapen_AOT/AOT_stimuli/pictures/0748_fw.png	404.0192720890045	
160	237.86975693702698	picture	0		124	158.0	/experiments/knapen_AOT/AOT_stimuli/pictures/1496_fw.png	404.06084299087524	1.0750510692596436
160	238.89483404159546	response	0	k		158.0	/experiments/knapen_AOT/AOT_stimuli/pictures/1496_fw.png	405.0859200954437	
161	238.94480800628662	picture	0		111	159.0	/experiments/knapen_AOT/AOT_stimuli/pictures/1516_fw.png	405.1358940601349	0.9748668670654297
161	239.86163687705994	response	0	j		159.0	/experiments/knapen_AOT/AOT_stimuli/pictures/1516_fw.png	406.0527229309082	
162	239.91967487335205	picture	0		111	160.0	/experiments/knapen_AOT/AOT_stimuli/pictures/0286_fw.png	406.1107609272003	0.9583261013031006
162	240.836580991745	response	0	j		160.0	/experiments/knapen_AOT/AOT_stimuli/pictures/0286_fw.png	407.02766704559326	
163	240.87800097465515	picture	0		94	161.0	/experiments/knapen_AOT/AOT_stimuli/pictures/2101_fw.png	407.0690870285034	0.8097639083862305
163	241.65329504013062	response	0	k		161.0	/experiments/knapen_AOT/AOT_stimuli/pictures/2101_fw.png	407.8443810939789	
164	241.68776488304138	picture	0		115	162.0	/experiments/knapen_AOT/AOT_stimuli/pictures/0506_fw.png	407.87885093688965	1.0069570541381836
164	242.6365430355072	response	0	k		162.0	/experiments/knapen_AOT/AOT_stimuli/pictures/0506_fw.png	408.82762908935547	
165	242.69472193717957	picture	0		185	163.0	/experiments/knapen_AOT/AOT_stimuli/pictures/1529_fw.png	408.88580799102783	1.5916900634765625
165	244.22823810577393	response	0	k		163.0	/experiments/knapen_AOT/AOT_stimuli/pictures/1529_fw.png	410.4193241596222	
166	244.28641200065613	picture	0		107	164.0	/experiments/knapen_AOT/AOT_stimuli/pictures/1148_fw.png	410.4774980545044	0.9223001003265381
166	245.16308093070984	response	0	k		164.0	/experiments/knapen_AOT/AOT_stimuli/pictures/1148_fw.png	411.3541669845581	
167	245.20871210098267	picture	0		100	165.0	/experiments/knapen_AOT/AOT_stimuli/pictures/0325_fw.png	411.39979815483093	0.8693828582763672
167	246.03666996955872	response	0	k		165.0	/experiments/knapen_AOT/AOT_stimuli/pictures/0325_fw.png	412.227756023407	
168	246.07809495925903	picture	0		126	166.0	/experiments/knapen_AOT/AOT_stimuli/pictures/1281_fw.png	412.2691810131073	1.1027450561523438
168	247.11990404129028	response	0	k		166.0	/experiments/knapen_AOT/AOT_stimuli/pictures/1281_fw.png	413.31099009513855	
169	247.18084001541138	picture	0		110	167.0	/experiments/knapen_AOT/AOT_stimuli/pictures/0078_fw.png	413.37192606925964	0.9444730281829834
169	248.08662009239197	response	0	k		167.0	/experiments/knapen_AOT/AOT_stimuli/pictures/0078_fw.png	414.27770614624023	
170	248.12531304359436	picture	0		255	168.0	/experiments/knapen_AOT/AOT_stimuli/pictures/1093_fw.png	414.3163990974426	2.1612648963928223
170	250.24498009681702	response	0	k		168.0	/experiments/knapen_AOT/AOT_stimuli/pictures/1093_fw.png	416.4360661506653	
171	250.28657793998718	picture	0		397	169.0	/experiments/knapen_AOT/AOT_stimuli/pictures/1365_fw.png	416.47766399383545	3.3584201335906982
171	253.58682703971863	response	0	k		169.0	/experiments/knapen_AOT/AOT_stimuli/pictures/1365_fw.png	419.7779130935669	
172	253.64499807357788	picture	0		121	170.0	/experiments/knapen_AOT/AOT_stimuli/pictures/1251_fw.png	419.83608412742615	1.0499098300933838
172	254.64506101608276	response	0	j		170.0	/experiments/knapen_AOT/AOT_stimuli/pictures/1251_fw.png	420.83614706993103	
173	254.69490790367126	picture	0		115	171.0	/experiments/knapen_AOT/AOT_stimuli/pictures/0264_fw.png	420.88599395751953	0.9917151927947998
173	255.64505195617676	response	0	k		171.0	/experiments/knapen_AOT/AOT_stimuli/pictures/0264_fw.png	421.836138010025	
174	255.68662309646606	picture	0		181	172.0	/experiments/knapen_AOT/AOT_stimuli/pictures/1038_fw.png	421.87770915031433	1.558288812637329
174	257.18004298210144	response	0	k		172.0	/experiments/knapen_AOT/AOT_stimuli/pictures/1038_fw.png	423.3711290359497	
175	257.2449119091034	picture	0		114	173.0	/experiments/knapen_AOT/AOT_stimuli/pictures/1859_fw.png	423.43599796295166	1.000046968460083
175	258.18002796173096	response	0	k		173.0	/experiments/knapen_AOT/AOT_stimuli/pictures/1859_fw.png	424.3711140155792	
176	258.2449588775635	picture	0		254	174.0	/experiments/knapen_AOT/AOT_stimuli/pictures/1108_fw.png	424.43604493141174	2.1442291736602783
176	260.3535940647125	response	0	k		174.0	/experiments/knapen_AOT/AOT_stimuli/pictures/1108_fw.png	426.5446801185608	
177	260.38918805122375	picture	0		162	175.0	/experiments/knapen_AOT/AOT_stimuli/pictures/0906_fw.png	426.580274105072	1.3808319568634033
177	261.72857689857483	response	0	k		175.0	/experiments/knapen_AOT/AOT_stimuli/pictures/0906_fw.png	427.9196629524231	
178	261.77002000808716	picture	0		120	176.0	/experiments/knapen_AOT/AOT_stimuli/pictures/2073_fw.png	427.9611060619354	1.050036907196045
178	262.75493001937866	response	0	k		176.0	/experiments/knapen_AOT/AOT_stimuli/pictures/2073_fw.png	428.94601607322693	
179	262.8200569152832	picture	0		88	177.0	/experiments/knapen_AOT/AOT_stimuli/pictures/0083_fw.png	429.01114296913147	0.7665941715240479
179	263.5451030731201	response	0	j		177.0	/experiments/knapen_AOT/AOT_stimuli/pictures/0083_fw.png	429.7361891269684	
180	263.58665108680725	picture	0		124	178.0	/experiments/knapen_AOT/AOT_stimuli/pictures/0277_fw.png	429.7777371406555	1.091717004776001
180	264.61189699172974	response	0	j		178.0	/experiments/knapen_AOT/AOT_stimuli/pictures/0277_fw.png	430.802983045578	
181	264.67836809158325	picture	0		109	179.0	/experiments/knapen_AOT/AOT_stimuli/pictures/2163_fw.png	430.8694541454315	0.9401447772979736
181	265.5717918872833	response	0	k		179.0	/experiments/knapen_AOT/AOT_stimuli/pictures/2163_fw.png	431.7628779411316	
182	265.6185128688812	picture	0		182	180.0	/experiments/knapen_AOT/AOT_stimuli/pictures/1431_fw.png	431.8095989227295	1.5694191455841064
182	267.1286699771881	response	0	j		180.0	/experiments/knapen_AOT/AOT_stimuli/pictures/1431_fw.png	433.3197560310364	
183	267.18793201446533	picture	0		104	181.0	/experiments/knapen_AOT/AOT_stimuli/pictures/1531_fw.png	433.3790180683136	0.8959529399871826
183	268.0451810359955	response	0	k		181.0	/experiments/knapen_AOT/AOT_stimuli/pictures/1531_fw.png	434.23626708984375	
184	268.0838849544525	picture	0		93	182.0	/experiments/knapen_AOT/AOT_stimuli/pictures/0418_fw.png	434.2749710083008	0.805495023727417
184	268.8536629676819	response	0	j		182.0	/experiments/knapen_AOT/AOT_stimuli/pictures/0418_fw.png	435.04474902153015	
185	268.88937997817993	picture	0		126	183.0	/experiments/knapen_AOT/AOT_stimuli/pictures/2050_fw.png	435.0804660320282	1.0723669528961182
185	269.9285569190979	response	0	j		183.0	/experiments/knapen_AOT/AOT_stimuli/pictures/2050_fw.png	436.11964297294617	
186	269.96174693107605	picture	0		205	184.0	/experiments/knapen_AOT/AOT_stimuli/pictures/1026_fw.png	436.1528329849243	1.733323097229004
186	271.66207098960876	response	0	j		184.0	/experiments/knapen_AOT/AOT_stimuli/pictures/1026_fw.png	437.85315704345703	
187	271.69507002830505	picture	0		189	185.0	/experiments/knapen_AOT/AOT_stimuli/pictures/0812_fw.png	437.8861560821533	1.6039528846740723
187	273.2620749473572	response	0	j		185.0	/experiments/knapen_AOT/AOT_stimuli/pictures/0812_fw.png	439.45316100120544	
188	273.2990229129791	picture	0		118	186.0	/experiments/knapen_AOT/AOT_stimuli/pictures/1346_fw.png	439.4901089668274	1.0128421783447266
188	274.27028608322144	response	0	j		186.0	/experiments/knapen_AOT/AOT_stimuli/pictures/1346_fw.png	440.4613721370697	
189	274.31186509132385	picture	0		116	187.0	/experiments/knapen_AOT/AOT_stimuli/pictures/0862_fw.png	440.5029511451721	0.9999969005584717
189	275.2702839374542	response	0	j		187.0	/experiments/knapen_AOT/AOT_stimuli/pictures/0862_fw.png	441.4613699913025	
190	275.3118619918823	picture	0		107	188.0	/experiments/knapen_AOT/AOT_stimuli/pictures/0937_fw.png	441.5029480457306	0.9179489612579346
190	276.19526290893555	response	0	k		188.0	/experiments/knapen_AOT/AOT_stimuli/pictures/0937_fw.png	442.3863489627838	
191	276.22981095314026	picture	0		160	189.0	/experiments/knapen_AOT/AOT_stimuli/pictures/1718_fw.png	442.4208970069885	1.3820409774780273
191	277.5537700653076	response	0	k		189.0	/experiments/knapen_AOT/AOT_stimuli/pictures/1718_fw.png	443.7448561191559	
192	277.6118519306183	picture	0		108	190.0	/experiments/knapen_AOT/AOT_stimuli/pictures/2133_fw.png	443.80293798446655	0.966663122177124
192	278.5037009716034	response	0	j		190.0	/experiments/knapen_AOT/AOT_stimuli/pictures/2133_fw.png	444.69478702545166	
193	278.5785150527954	picture	0		112	191.0	/experiments/knapen_AOT/AOT_stimuli/pictures/1620_fw.png	444.7696011066437	0.9666719436645508
193	279.50368309020996	response	0	j		191.0	/experiments/knapen_AOT/AOT_stimuli/pictures/1620_fw.png	445.6947691440582	
194	279.54518699645996	picture	0		124	192.0	/experiments/knapen_AOT/AOT_stimuli/pictures/1094_fw.png	445.7362730503082	1.0595660209655762
194	280.56374406814575	response	0	j		192.0	/experiments/knapen_AOT/AOT_stimuli/pictures/1094_fw.png	446.754830121994	
195	280.60475301742554	picture	0		95	193.0	/experiments/knapen_AOT/AOT_stimuli/pictures/0854_fw.png	446.7958390712738	0.8194129467010498
195	281.38704204559326	response	0	j		193.0	/experiments/knapen_AOT/AOT_stimuli/pictures/0854_fw.png	447.5781280994415	
196	281.4241659641266	picture	0		137	194.0	/experiments/knapen_AOT/AOT_stimuli/pictures/1464_fw.png	447.61525201797485	1.1877291202545166
196	282.547061920166	response	0	j		194.0	/experiments/knapen_AOT/AOT_stimuli/pictures/1464_fw.png	448.7381479740143	
197	282.6118950843811	picture	0		225	195.0	/experiments/knapen_AOT/AOT_stimuli/pictures/1205_fw.png	448.80298113822937	1.916705846786499
197	284.4788908958435	response	0	j		195.0	/experiments/knapen_AOT/AOT_stimuli/pictures/1205_fw.png	450.6699769496918	
198	284.5286009311676	picture	0		111	196.0	/experiments/knapen_AOT/AOT_stimuli/pictures/0151_fw.png	450.71968698501587	0.9584090709686279
198	285.4454081058502	response	0	j		196.0	/experiments/knapen_AOT/AOT_stimuli/pictures/0151_fw.png	451.6364941596985	
199	285.48701000213623	picture	0		171	197.0	/experiments/knapen_AOT/AOT_stimuli/pictures/0226_fw.png	451.6780960559845	1.4666919708251953
199	286.904011964798	response	0	k		197.0	/experiments/knapen_AOT/AOT_stimuli/pictures/0226_fw.png	453.09509801864624	
200	286.9537019729614	picture	0		90	198.0	/experiments/knapen_AOT/AOT_stimuli/pictures/0285_fw.png	453.1447880268097	0.7999300956726074
200	287.6954290866852	response	0	j		198.0	/experiments/knapen_AOT/AOT_stimuli/pictures/0285_fw.png	453.88651514053345	
201	287.75363206863403	picture	0		98	199.0	/experiments/knapen_AOT/AOT_stimuli/pictures/1786_fw.png	453.9447181224823	0.8858869075775146
201	288.55531787872314	response	0	k		199.0	/experiments/knapen_AOT/AOT_stimuli/pictures/1786_fw.png	454.7464039325714	
202	288.63951897621155	picture	0		118	200.0	/experiments/knapen_AOT/AOT_stimuli/pictures/1203_fw.png	454.8306050300598	1.0308279991149902
202	289.61214303970337	response	0	k		200.0	/experiments/knapen_AOT/AOT_stimuli/pictures/1203_fw.png	455.80322909355164	
203	289.67034697532654	picture	0		558	201.0	/experiments/knapen_AOT/AOT_stimuli/pictures/0212_fw.png	455.8614330291748	4.691762924194336
203	294.31235694885254	response	0	j		201.0	/experiments/knapen_AOT/AOT_stimuli/pictures/0212_fw.png	460.5034430027008	
204	294.3621098995209	picture	0		100	202.0	/experiments/knapen_AOT/AOT_stimuli/pictures/0530_fw.png	460.55319595336914	0.8539371490478516
204	295.1872069835663	response	0	k		202.0	/experiments/knapen_AOT/AOT_stimuli/pictures/0530_fw.png	461.37829303741455	
205	295.2160470485687	picture	0		158	203.0	/experiments/knapen_AOT/AOT_stimuli/pictures/1279_fw.png	461.407133102417	1.362879991531372
205	296.52069997787476	response	0	k		203.0	/experiments/knapen_AOT/AOT_stimuli/pictures/1279_fw.png	462.711786031723	
206	296.5789270401001	picture	0		217	204.0	/experiments/knapen_AOT/AOT_stimuli/pictures/0176_fw.png	462.77001309394836	1.849937915802002
206	298.37227392196655	response	0	j		204.0	/experiments/knapen_AOT/AOT_stimuli/pictures/0176_fw.png	464.5633599758148	
207	298.4288649559021	picture	0		129	205.0	/experiments/knapen_AOT/AOT_stimuli/pictures/0970_fw.png	464.61995100975037	1.0999219417572021
207	299.49562788009644	response	0	j		205.0	/experiments/knapen_AOT/AOT_stimuli/pictures/0970_fw.png	465.6867139339447	
208	299.5287868976593	picture	0		114	206.0	/experiments/knapen_AOT/AOT_stimuli/pictures/1237_fw.png	465.71987295150757	0.9833660125732422
208	300.4706199169159	response	0	k		206.0	/experiments/knapen_AOT/AOT_stimuli/pictures/1237_fw.png	466.66170597076416	
209	300.51215291023254	picture	0		103	207.0	/experiments/knapen_AOT/AOT_stimuli/pictures/0675_fw.png	466.7032389640808	0.884498119354248
209	301.35568404197693	response	0	k		207.0	/experiments/knapen_AOT/AOT_stimuli/pictures/0675_fw.png	467.5467700958252	
210	301.3966510295868	picture	0		96	208.0	/experiments/knapen_AOT/AOT_stimuli/pictures/0773_fw.png	467.58773708343506	0.8489558696746826
210	302.1804909706116	response	0	k		208.0	/experiments/knapen_AOT/AOT_stimuli/pictures/0773_fw.png	468.37157702445984	
211	302.2456068992615	picture	0		106	209.0	/experiments/knapen_AOT/AOT_stimuli/pictures/1325_fw.png	468.43669295310974	0.928765058517456
211	303.12066102027893	response	0	j		209.0	/experiments/knapen_AOT/AOT_stimuli/pictures/1325_fw.png	469.3117470741272	
212	303.17437195777893	picture	0		250	210.0	/experiments/knapen_AOT/AOT_stimuli/pictures/1934_fw.png	469.3654580116272	2.104556083679199
212	305.2457768917084	response	0	j		210.0	/experiments/knapen_AOT/AOT_stimuli/pictures/1934_fw.png	471.43686294555664	
213	305.27892804145813	picture	0		217	211.0	/experiments/knapen_AOT/AOT_stimuli/pictures/1898_fw.png	471.4700140953064	1.858306884765625
213	307.0791189670563	response	0	k		211.0	/experiments/knapen_AOT/AOT_stimuli/pictures/1898_fw.png	473.27020502090454	
214	307.13723492622375	picture	0		124	212.0	/experiments/knapen_AOT/AOT_stimuli/pictures/1555_fw.png	473.328320980072	1.0858020782470703
214	308.15563702583313	response	0	j		212.0	/experiments/knapen_AOT/AOT_stimuli/pictures/1555_fw.png	474.3467230796814	
215	308.2230370044708	picture	0		101	213.0	/experiments/knapen_AOT/AOT_stimuli/pictures/1921_fw.png	474.4141230583191	0.9236609935760498
215	309.07071900367737	response	0	j		213.0	/experiments/knapen_AOT/AOT_stimuli/pictures/1921_fw.png	475.26180505752563	
216	309.1466979980469	picture	0		180	214.0	/experiments/knapen_AOT/AOT_stimuli/pictures/2000_fw.png	475.33778405189514	1.532310962677002
216	310.6376039981842	response	0	k		214.0	/experiments/knapen_AOT/AOT_stimuli/pictures/2000_fw.png	476.82869005203247	
217	310.6790089607239	picture	0		133	215.0	/experiments/knapen_AOT/AOT_stimuli/pictures/0265_fw.png	476.87009501457214	1.1342799663543701
217	311.77240800857544	response	0	j		215.0	/experiments/knapen_AOT/AOT_stimuli/pictures/0265_fw.png	477.9634940624237	
218	311.81328892707825	picture	0		102	216.0	/experiments/knapen_AOT/AOT_stimuli/pictures/1174_fw.png	478.0043749809265	0.8991169929504395
218	312.6541109085083	response	0	k		216.0	/experiments/knapen_AOT/AOT_stimuli/pictures/1174_fw.png	478.84519696235657	
219	312.7124059200287	picture	0		152	217.0	/experiments/knapen_AOT/AOT_stimuli/pictures/1354_fw.png	478.90349197387695	1.316580057144165
219	313.96416091918945	response	0	k		217.0	/experiments/knapen_AOT/AOT_stimuli/pictures/1354_fw.png	480.1552469730377	
220	314.02898597717285	picture	0		105	218.0	/experiments/knapen_AOT/AOT_stimuli/pictures/0139_fw.png	480.2200720310211	0.8834929466247559
220	314.89594292640686	response	0	k		218.0	/experiments/knapen_AOT/AOT_stimuli/pictures/0139_fw.png	481.0870289802551	
221	314.9124789237976	picture	0		111	219.0	/experiments/knapen_AOT/AOT_stimuli/pictures/1042_fw.png	481.1035649776459	0.9564101696014404
221	315.82913398742676	response	0	k		219.0	/experiments/knapen_AOT/AOT_stimuli/pictures/1042_fw.png	482.020220041275	
222	315.86888909339905	picture	0		236	220.0	/experiments/knapen_AOT/AOT_stimuli/pictures/1817_fw.png	482.0599751472473	2.0018839836120605
222	317.82920503616333	response	0	k		220.0	/experiments/knapen_AOT/AOT_stimuli/pictures/1817_fw.png	484.0202910900116	
223	317.8707730770111	picture	0		92	221.0	/experiments/knapen_AOT/AOT_stimuli/pictures/0236_fw.png	484.0618591308594	0.8000228404998779
223	318.6292130947113	response	0	k		221.0	/experiments/knapen_AOT/AOT_stimuli/pictures/0236_fw.png	484.82029914855957	
224	318.670795917511	picture	0		100	222.0	/experiments/knapen_AOT/AOT_stimuli/pictures/1746_fw.png	484.86188197135925	0.8583581447601318
224	319.49599409103394	response	0	k		222.0	/experiments/knapen_AOT/AOT_stimuli/pictures/1746_fw.png	485.6870801448822	
225	319.5291540622711	picture	0		114	223.0	/experiments/knapen_AOT/AOT_stimuli/pictures/1818_fw.png	485.7202401161194	0.9785768985748291
225	320.47101497650146	response	0	k		223.0	/experiments/knapen_AOT/AOT_stimuli/pictures/1818_fw.png	486.66210103034973	
226	320.50773096084595	picture	0		1177	224.0	/experiments/knapen_AOT/AOT_stimuli/pictures/0248_fw.png	486.6988170146942	9.833395004272461
226	330.3044180870056	response	0	k		224.0	/experiments/knapen_AOT/AOT_stimuli/pictures/0248_fw.png	496.4955041408539	
227	330.3411259651184	picture	0		1196	225.0	/experiments/knapen_AOT/AOT_stimuli/pictures/1672_fw.png	496.5322120189667	10.004882097244263
227	340.29629588127136	response	0	j		225.0	/experiments/knapen_AOT/AOT_stimuli/pictures/1672_fw.png	506.48738193511963	
228	340.34600806236267	picture	0		89	226.0	/experiments/knapen_AOT/AOT_stimuli/pictures/1904_fw.png	506.53709411621094	0.7869598865509033
228	341.0795180797577	response	0	k		226.0	/experiments/knapen_AOT/AOT_stimuli/pictures/1904_fw.png	507.27060413360596	
229	341.1329679489136	picture	0		128	227.0	/experiments/knapen_AOT/AOT_stimuli/pictures/0763_fw.png	507.32405400276184	1.1047179698944092
229	342.18104791641235	response	0	k		227.0	/experiments/knapen_AOT/AOT_stimuli/pictures/0763_fw.png	508.3721339702606	
230	342.237685918808	picture	0		127	228.0	/experiments/knapen_AOT/AOT_stimuli/pictures/0004_fw.png	508.42877197265625	1.191756010055542
230	343.2880029678345	response	0	k		228.0	/experiments/knapen_AOT/AOT_stimuli/pictures/0004_fw.png	509.47908902168274	
231	343.4294419288635	picture	0		127	229.0	/experiments/knapen_AOT/AOT_stimuli/pictures/1055_fw.png	509.6205279827118	1.099951982498169
231	344.4802849292755	response	0	k		229.0	/experiments/knapen_AOT/AOT_stimuli/pictures/1055_fw.png	510.6713709831238	
232	344.5293939113617	picture	0		1025	230.0	/experiments/knapen_AOT/AOT_stimuli/pictures/0423_fw.png	510.72047996520996	8.568859100341797
232	353.06312799453735	response	0	k		230.0	/experiments/knapen_AOT/AOT_stimuli/pictures/0423_fw.png	519.2542140483856	
233	353.0982530117035	picture	0		113	231.0	/experiments/knapen_AOT/AOT_stimuli/pictures/0431_fw.png	519.2893390655518	0.9931070804595947
233	354.02967500686646	response	0	k		231.0	/experiments/knapen_AOT/AOT_stimuli/pictures/0431_fw.png	520.2207610607147	
234	354.0913600921631	picture	0		445	232.0	/experiments/knapen_AOT/AOT_stimuli/pictures/2116_fw.png	520.2824461460114	3.846552848815918
234	357.78128600120544	response	0	k		232.0	/experiments/knapen_AOT/AOT_stimuli/pictures/2116_fw.png	523.9723720550537	
235	357.937912940979	picture	0		110	233.0	/experiments/knapen_AOT/AOT_stimuli/pictures/1291_fw.png	524.1289989948273	0.9521770477294922
235	358.846529006958	response	0	k		233.0	/experiments/knapen_AOT/AOT_stimuli/pictures/1291_fw.png	525.0376150608063	
236	358.8900899887085	picture	0		158	234.0	/experiments/knapen_AOT/AOT_stimuli/pictures/2084_fw.png	525.0811760425568	1.3645079135894775
236	360.196387052536	response	0	j		234.0	/experiments/knapen_AOT/AOT_stimuli/pictures/2084_fw.png	526.3874731063843	
237	360.254597902298	picture	0		119	235.0	/experiments/knapen_AOT/AOT_stimuli/pictures/1277_fw.png	526.4456839561462	1.0417370796203613
237	361.2381498813629	response	0	j		235.0	/experiments/knapen_AOT/AOT_stimuli/pictures/1277_fw.png	527.4292359352112	
238	361.29633498191833	picture	0		88	236.0	/experiments/knapen_AOT/AOT_stimuli/pictures/2156_fw.png	527.4874210357666	0.7832739353179932
238	362.02209305763245	response	0	j		236.0	/experiments/knapen_AOT/AOT_stimuli/pictures/2156_fw.png	528.2131791114807	
239	362.0796089172363	picture	0		89	237.0	/experiments/knapen_AOT/AOT_stimuli/pictures/0120_fw.png	528.2706949710846	0.7916779518127441
239	362.8138270378113	response	0	k		237.0	/experiments/knapen_AOT/AOT_stimuli/pictures/0120_fw.png	529.0049130916595	
240	362.8712868690491	picture	0		103	238.0	/experiments/knapen_AOT/AOT_stimuli/pictures/2106_fw.png	529.0623729228973	0.916741132736206
240	363.7215669155121	response	0	j		238.0	/experiments/knapen_AOT/AOT_stimuli/pictures/2106_fw.png	529.9126529693604	
241	363.7880280017853	picture	0		95	239.0	/experiments/knapen_AOT/AOT_stimuli/pictures/1574_fw.png	529.9791140556335	0.8519759178161621
241	364.5648760795593	response	0	k		239.0	/experiments/knapen_AOT/AOT_stimuli/pictures/1574_fw.png	530.7559621334076	
242	364.64000391960144	picture	0		762	240.0	/experiments/knapen_AOT/AOT_stimuli/pictures/1567_fw.png	530.8310899734497	6.389750957489014
242	370.9804849624634	response	0	k		240.0	/experiments/knapen_AOT/AOT_stimuli/pictures/1567_fw.png	537.1715710163116	
243	371.02975487709045	picture	0		105	241.0	/experiments/knapen_AOT/AOT_stimuli/pictures/1319_fw.png	537.2208409309387	0.9367032051086426
243	371.8972749710083	response	0	k		241.0	/experiments/knapen_AOT/AOT_stimuli/pictures/1319_fw.png	538.0883610248566	
244	371.9664580821991	picture	0		108	242.0	/experiments/knapen_AOT/AOT_stimuli/pictures/0358_fw.png	538.1575441360474	0.9301779270172119
244	372.8556339740753	response	0	j		242.0	/experiments/knapen_AOT/AOT_stimuli/pictures/0358_fw.png	539.0467200279236	
245	372.8966360092163	picture	0		362	243.0	/experiments/knapen_AOT/AOT_stimuli/pictures/1974_fw.png	539.0877220630646	3.042156934738159
245	375.9050579071045	response	0	k		243.0	/experiments/knapen_AOT/AOT_stimuli/pictures/1974_fw.png	542.0961439609528	
246	375.93879294395447	picture	0		77	244.0	/experiments/knapen_AOT/AOT_stimuli/pictures/0171_fw.png	542.1298789978027	0.6828310489654541
246	376.5654790401459	response	0	j		244.0	/experiments/knapen_AOT/AOT_stimuli/pictures/0171_fw.png	542.7565650939941	
247	376.6216239929199	picture	0		97	245.0	/experiments/knapen_AOT/AOT_stimuli/pictures/0877_fw.png	542.8127100467682	0.8582038879394531
247	377.42164301872253	response	0	k		245.0	/experiments/knapen_AOT/AOT_stimuli/pictures/0877_fw.png	543.6127290725708	
248	377.4798278808594	picture	0		113	246.0	/experiments/knapen_AOT/AOT_stimuli/pictures/0555_fw.png	543.6709139347076	0.9750142097473145
248	378.4133379459381	response	0	k		246.0	/experiments/knapen_AOT/AOT_stimuli/pictures/0555_fw.png	544.6044239997864	
249	378.4548420906067	picture	0		95	247.0	/experiments/knapen_AOT/AOT_stimuli/pictures/1556_fw.png	544.645928144455	0.831204891204834
249	379.2383189201355	response	0	k		247.0	/experiments/knapen_AOT/AOT_stimuli/pictures/1556_fw.png	545.4294049739838	
250	379.2860469818115	picture	0		121	248.0	/experiments/knapen_AOT/AOT_stimuli/pictures/1340_fw.png	545.4771330356598	1.0485379695892334
250	380.28845596313477	response	0	j		248.0	/experiments/knapen_AOT/AOT_stimuli/pictures/1340_fw.png	546.479542016983	
251	380.33458495140076	picture	0		200	249.0	/experiments/knapen_AOT/AOT_stimuli/pictures/1734_fw.png	546.525671005249	1.7203519344329834
251	381.99672198295593	response	0	k		249.0	/experiments/knapen_AOT/AOT_stimuli/pictures/1734_fw.png	548.1878080368042	
252	382.05493688583374	picture	0		105	250.0	/experiments/knapen_AOT/AOT_stimuli/pictures/1918_fw.png	548.246022939682	0.9116311073303223
252	382.9218690395355	response	0	k		250.0	/experiments/knapen_AOT/AOT_stimuli/pictures/1918_fw.png	549.1129550933838	
253	382.96656799316406	picture	0		225	251.0	/experiments/knapen_AOT/AOT_stimuli/pictures/0958_fw.png	549.1576540470123	1.9217109680175781
253	384.830157995224	response	0	j		251.0	/experiments/knapen_AOT/AOT_stimuli/pictures/0958_fw.png	551.0212440490723	
254	384.88827896118164	picture	0		96	252.0	/experiments/knapen_AOT/AOT_stimuli/pictures/0302_fw.png	551.0793650150299	0.833359956741333
254	385.6801369190216	response	0	j		252.0	/experiments/knapen_AOT/AOT_stimuli/pictures/0302_fw.png	551.8712229728699	
255	385.721638917923	picture	0		129	253.0	/experiments/knapen_AOT/AOT_stimuli/pictures/0266_fw.png	551.9127249717712	1.1061341762542725
255	386.7817029953003	response	0	k		253.0	/experiments/knapen_AOT/AOT_stimuli/pictures/0266_fw.png	552.9727890491486	
256	386.82777309417725	picture	0		234	254.0	/experiments/knapen_AOT/AOT_stimuli/pictures/0759_fw.png	553.0188591480255	1.9856488704681396
256	388.7650520801544	response	0	k		254.0	/experiments/knapen_AOT/AOT_stimuli/pictures/0759_fw.png	554.9561381340027	
257	388.8134219646454	picture	0		275	255.0	/experiments/knapen_AOT/AOT_stimuli/pictures/0569_fw.png	555.0045080184937	2.3198959827423096
257	391.096971988678	response	0	k		255.0	/experiments/knapen_AOT/AOT_stimuli/pictures/0569_fw.png	557.2880580425262	
258	391.1333179473877	picture	0		192	256.0	/experiments/knapen_AOT/AOT_stimuli/pictures/0888_fw.png	557.324404001236	1.630061149597168
258	392.7219660282135	response	0	k		256.0	/experiments/knapen_AOT/AOT_stimuli/pictures/0888_fw.png	558.9130520820618	
259	392.76337909698486	picture	0		100	257.0	/experiments/knapen_AOT/AOT_stimuli/pictures/0326_fw.png	558.9544651508331	0.8666658401489258
259	393.58847403526306	response	0	k		257.0	/experiments/knapen_AOT/AOT_stimuli/pictures/0326_fw.png	559.7795600891113	
260	393.6300449371338	picture	0		113	258.0	/experiments/knapen_AOT/AOT_stimuli/pictures/0752_fw.png	559.821130990982	0.9750151634216309
260	394.55695509910583	response	0	k		258.0	/experiments/knapen_AOT/AOT_stimuli/pictures/0752_fw.png	560.7480411529541	
261	394.6050601005554	picture	0		118	259.0	/experiments/knapen_AOT/AOT_stimuli/pictures/0545_fw.png	560.7961461544037	1.0249919891357422
261	395.57353687286377	response	0	k		259.0	/experiments/knapen_AOT/AOT_stimuli/pictures/0545_fw.png	561.764622926712	
262	395.63005208969116	picture	0		201	260.0	/experiments/knapen_AOT/AOT_stimuli/pictures/0335_fw.png	561.8211381435394	1.718695878982544
262	397.2969970703125	response	0	k		260.0	/experiments/knapen_AOT/AOT_stimuli/pictures/0335_fw.png	563.4880831241608	
263	397.3487479686737	picture	0		237	261.0	/experiments/knapen_AOT/AOT_stimuli/pictures/0691_fw.png	563.539834022522	2.006829023361206
263	399.314080953598	response	0	k		261.0	/experiments/knapen_AOT/AOT_stimuli/pictures/0691_fw.png	565.5051670074463	
264	399.3555769920349	picture	0		147	262.0	/experiments/knapen_AOT/AOT_stimuli/pictures/0385_fw.png	565.5466630458832	1.243185043334961
264	400.56567907333374	response	0	j		262.0	/experiments/knapen_AOT/AOT_stimuli/pictures/0385_fw.png	566.756765127182	
265	400.5987620353699	picture	0		194	263.0	/experiments/knapen_AOT/AOT_stimuli/pictures/1864_fw.png	566.7898480892181	1.6647658348083496
265	402.2052729129791	response	0	j		263.0	/experiments/knapen_AOT/AOT_stimuli/pictures/1864_fw.png	568.3963589668274	
266	402.2635278701782	picture	0		179	264.0	/experiments/knapen_AOT/AOT_stimuli/pictures/1769_fw.png	568.4546139240265	1.5500221252441406
266	403.74711203575134	response	0	k		264.0	/experiments/knapen_AOT/AOT_stimuli/pictures/1769_fw.png	569.9381980895996	
267	403.81354999542236	picture	0		194	265.0	/experiments/knapen_AOT/AOT_stimuli/pictures/0864_fw.png	570.0046360492706	1.6333489418029785
267	405.4220190048218	response	0	k		265.0	/experiments/knapen_AOT/AOT_stimuli/pictures/0864_fw.png	571.61310505867	
268	405.44689893722534	picture	0		95	266.0	/experiments/knapen_AOT/AOT_stimuli/pictures/1954_fw.png	571.6379849910736	0.8416850566864014
268	406.23083090782166	response	0	j		266.0	/experiments/knapen_AOT/AOT_stimuli/pictures/1954_fw.png	572.4219169616699	
269	406.28858399391174	picture	0		138	267.0	/experiments/knapen_AOT/AOT_stimuli/pictures/1387_fw.png	572.47967004776	1.1851990222930908
269	407.43037390708923	response	0	j		267.0	/experiments/knapen_AOT/AOT_stimuli/pictures/1387_fw.png	573.6214599609375	
270	407.47378301620483	picture	0		94	268.0	/experiments/knapen_AOT/AOT_stimuli/pictures/1099_fw.png	573.6648690700531	0.823145866394043
270	408.24705505371094	response	0	k		268.0	/experiments/knapen_AOT/AOT_stimuli/pictures/1099_fw.png	574.4381411075592	
271	408.2969288825989	picture	0		145	269.0	/experiments/knapen_AOT/AOT_stimuli/pictures/0336_fw.png	574.4880149364471	1.258310079574585
271	409.49722695350647	response	0	k		269.0	/experiments/knapen_AOT/AOT_stimuli/pictures/0336_fw.png	575.6883130073547	
272	409.55523896217346	picture	0		217	270.0	/experiments/knapen_AOT/AOT_stimuli/pictures/0588_fw.png	575.7463250160217	1.8351659774780273
272	411.34876894950867	response	0	k		270.0	/experiments/knapen_AOT/AOT_stimuli/pictures/0588_fw.png	577.5398550033569	
273	411.3904049396515	picture	0		86	271.0	/experiments/knapen_AOT/AOT_stimuli/pictures/1510_fw.png	577.5814909934998	0.7648630142211914
273	412.0972580909729	response	0	k		271.0	/experiments/knapen_AOT/AOT_stimuli/pictures/1510_fw.png	578.2883441448212	
274	412.1552679538727	picture	0		128	272.0	/experiments/knapen_AOT/AOT_stimuli/pictures/1486_fw.png	578.346354007721	1.1171491146087646
274	413.2137870788574	response	0	k		272.0	/experiments/knapen_AOT/AOT_stimuli/pictures/1486_fw.png	579.4048731327057	
275	413.27241706848145	picture	0		159	273.0	/experiments/knapen_AOT/AOT_stimuli/pictures/1846_fw.png	579.4635031223297	1.3579280376434326
275	414.5821120738983	response	0	k		273.0	/experiments/knapen_AOT/AOT_stimuli/pictures/1846_fw.png	580.7731981277466	
276	414.6303451061249	picture	0		134	274.0	/experiments/knapen_AOT/AOT_stimuli/pictures/2159_fw.png	580.8214311599731	1.1351678371429443
276	415.7388789653778	response	0	k		274.0	/experiments/knapen_AOT/AOT_stimuli/pictures/2159_fw.png	581.9299650192261	
277	415.7655129432678	picture	0		131	275.0	/experiments/knapen_AOT/AOT_stimuli/pictures/2148_fw.png	581.9565989971161	1.1399040222167969
277	416.8638310432434	response	0	k		275.0	/experiments/knapen_AOT/AOT_stimuli/pictures/2148_fw.png	583.0549170970917	
278	416.9054169654846	picture	0		94	276.0	/experiments/knapen_AOT/AOT_stimuli/pictures/2003_fw.png	583.0965030193329	0.8252890110015869
278	417.68058800697327	response	0	k		276.0	/experiments/knapen_AOT/AOT_stimuli/pictures/2003_fw.png	583.8716740608215	
279	417.7307059764862	picture	0		108	277.0	/experiments/knapen_AOT/AOT_stimuli/pictures/1540_fw.png	583.9217920303345	0.9514000415802002
279	418.6222150325775	response	0	k		277.0	/experiments/knapen_AOT/AOT_stimuli/pictures/1540_fw.png	584.8133010864258	
280	418.6821060180664	picture	0		190	278.0	/experiments/knapen_AOT/AOT_stimuli/pictures/0383_fw.png	584.8731920719147	1.6250050067901611
280	420.2556629180908	response	0	j		278.0	/experiments/knapen_AOT/AOT_stimuli/pictures/0383_fw.png	586.4467489719391	
281	420.30711102485657	picture	0		911	279.0	/experiments/knapen_AOT/AOT_stimuli/pictures/0852_fw.png	586.4981970787048	7.62348198890686
281	427.88910388946533	response	0	j		279.0	/experiments/knapen_AOT/AOT_stimuli/pictures/0852_fw.png	594.0801899433136	
282	427.9305930137634	picture	0		97	280.0	/experiments/knapen_AOT/AOT_stimuli/pictures/1841_fw.png	594.1216790676117	0.8500339984893799
282	428.7309989929199	response	0	k		280.0	/experiments/knapen_AOT/AOT_stimuli/pictures/1841_fw.png	594.9220850467682	
283	428.7806270122528	picture	0		91	281.0	/experiments/knapen_AOT/AOT_stimuli/pictures/0698_fw.png	594.9717130661011	0.7916200160980225
283	429.5308270454407	response	0	j		281.0	/experiments/knapen_AOT/AOT_stimuli/pictures/0698_fw.png	595.7219130992889	
284	429.57224702835083	picture	0		102	282.0	/experiments/knapen_AOT/AOT_stimuli/pictures/0352_fw.png	595.7633330821991	0.8833508491516113
284	430.4140839576721	response	0	k		282.0	/experiments/knapen_AOT/AOT_stimuli/pictures/0352_fw.png	596.6051700115204	
285	430.45559787750244	picture	0		107	283.0	/experiments/knapen_AOT/AOT_stimuli/pictures/0344_fw.png	596.6466839313507	0.9250140190124512
285	431.3391170501709	response	0	k		283.0	/experiments/knapen_AOT/AOT_stimuli/pictures/0344_fw.png	597.5302031040192	
286	431.3806118965149	picture	0		253	284.0	/experiments/knapen_AOT/AOT_stimuli/pictures/1333_fw.png	597.5716979503632	2.158367156982422
286	433.4810440540314	response	0	k		284.0	/experiments/knapen_AOT/AOT_stimuli/pictures/1333_fw.png	599.6721301078796	
287	433.5389790534973	picture	0		119	285.0	/experiments/knapen_AOT/AOT_stimuli/pictures/1511_fw.png	599.7300651073456	1.050004005432129
287	434.5227360725403	response	0	k		285.0	/experiments/knapen_AOT/AOT_stimuli/pictures/1511_fw.png	600.7138221263885	
288	434.58898305892944	picture	0		144	286.0	/experiments/knapen_AOT/AOT_stimuli/pictures/1278_fw.png	600.7800691127777	1.2184770107269287
288	435.7742989063263	response	0	k		286.0	/experiments/knapen_AOT/AOT_stimuli/pictures/1278_fw.png	601.9653849601746	
289	435.8074600696564	picture	0		137	287.0	/experiments/knapen_AOT/AOT_stimuli/pictures/0948_fw.png	601.9985461235046	1.189957857131958
289	436.9394910335541	response	0	j		287.0	/experiments/knapen_AOT/AOT_stimuli/pictures/0948_fw.png	603.1305770874023	
290	436.99741792678833	picture	0		92	288.0	/experiments/knapen_AOT/AOT_stimuli/pictures/1890_fw.png	603.1885039806366	0.816845178604126
290	437.74915194511414	response	0	j		288.0	/experiments/knapen_AOT/AOT_stimuli/pictures/1890_fw.png	603.9402379989624	
291	437.81426310539246	picture	0		134	289.0	/experiments/knapen_AOT/AOT_stimuli/pictures/1624_fw.png	604.0053491592407	1.1665048599243164
291	438.9225878715515	response	0	j		289.0	/experiments/knapen_AOT/AOT_stimuli/pictures/1624_fw.png	605.1136739253998	
292	438.9807679653168	picture	0		915	290.0	/experiments/knapen_AOT/AOT_stimuli/pictures/1396_fw.png	605.171854019165	7.658383131027222
292	446.5976490974426	response	0	k		290.0	/experiments/knapen_AOT/AOT_stimuli/pictures/1396_fw.png	612.7887351512909	
293	446.639151096344	picture	0		91	291.0	/experiments/knapen_AOT/AOT_stimuli/pictures/0028_fw.png	612.8302371501923	0.8001739978790283
293	447.38928604125977	response	0	k		291.0	/experiments/knapen_AOT/AOT_stimuli/pictures/0028_fw.png	613.580372095108	
294	447.439325094223	picture	0		127	292.0	/experiments/knapen_AOT/AOT_stimuli/pictures/0724_fw.png	613.6304111480713	1.1042358875274658
294	448.48931193351746	response	0	j		292.0	/experiments/knapen_AOT/AOT_stimuli/pictures/0724_fw.png	614.6803979873657	
295	448.5435609817505	picture	0		102	293.0	/experiments/knapen_AOT/AOT_stimuli/pictures/0457_fw.png	614.7346470355988	0.8889660835266113
295	449.37430596351624	response	0	k		293.0	/experiments/knapen_AOT/AOT_stimuli/pictures/0457_fw.png	615.5653920173645	
296	449.4325270652771	picture	0		167	294.0	/experiments/knapen_AOT/AOT_stimuli/pictures/1177_fw.png	615.6236131191254	1.4096410274505615
296	450.81450390815735	response	0	k		294.0	/experiments/knapen_AOT/AOT_stimuli/pictures/1177_fw.png	617.0055899620056	
297	450.84216809272766	picture	0		102	295.0	/experiments/knapen_AOT/AOT_stimuli/pictures/0669_fw.png	617.0332541465759	0.8749969005584717
297	451.68115401268005	response	0	k		295.0	/experiments/knapen_AOT/AOT_stimuli/pictures/0669_fw.png	617.8722400665283	
298	451.71716499328613	picture	0		97	296.0	/experiments/knapen_AOT/AOT_stimuli/pictures/0511_fw.png	617.9082510471344	0.8387610912322998
298	452.5144031047821	response	0	j		296.0	/experiments/knapen_AOT/AOT_stimuli/pictures/0511_fw.png	618.7054891586304	
299	452.55592608451843	picture	0		93	297.0	/experiments/knapen_AOT/AOT_stimuli/pictures/1806_fw.png	618.7470121383667	0.8001148700714111
299	453.32289004325867	response	0	j		297.0	/experiments/knapen_AOT/AOT_stimuli/pictures/1806_fw.png	619.5139760971069	
300	453.35604095458984	picture	0		339	298.0	/experiments/knapen_AOT/AOT_stimuli/pictures/0770_fw.png	619.5471270084381	2.854212999343872
300	456.1660189628601	response	0	j		298.0	/experiments/knapen_AOT/AOT_stimuli/pictures/0770_fw.png	622.3571050167084	
301	456.2102539539337	picture	0		131	299.0	/experiments/knapen_AOT/AOT_stimuli/pictures/0946_fw.png	622.401340007782	1.1290991306304932
301	457.2894868850708	response	0	k		299.0	/experiments/knapen_AOT/AOT_stimuli/pictures/0946_fw.png	623.4805729389191	
302	457.3393530845642	picture	0		79	300.0	/experiments/knapen_AOT/AOT_stimuli/pictures/1404_fw.png	623.5304391384125	0.7082779407501221
302	457.98937797546387	response	0	k		300.0	/experiments/knapen_AOT/AOT_stimuli/pictures/1404_fw.png	624.1804640293121	
303	458.04763102531433	picture	0		96	301.0	/experiments/knapen_AOT/AOT_stimuli/pictures/1910_fw.png	624.2387170791626	0.8501238822937012
303	458.8394570350647	response	0	k		301.0	/experiments/knapen_AOT/AOT_stimuli/pictures/1910_fw.png	625.030543088913	
304	458.89775490760803	picture	0		234	302.0	/experiments/knapen_AOT/AOT_stimuli/pictures/1012_fw.png	625.0888409614563	1.9832360744476318
304	460.83960795402527	response	0	k		302.0	/experiments/knapen_AOT/AOT_stimuli/pictures/1012_fw.png	627.0306940078735	
305	460.88099098205566	picture	0		126	303.0	/experiments/knapen_AOT/AOT_stimuli/pictures/0879_fw.png	627.0720770359039	1.0932579040527344
305	461.9230089187622	response	0	k		303.0	/experiments/knapen_AOT/AOT_stimuli/pictures/0879_fw.png	628.1140949726105	
306	461.9742488861084	picture	0		168	304.0	/experiments/knapen_AOT/AOT_stimuli/pictures/0201_fw.png	628.1653349399567	1.4484710693359375
306	463.3578259944916	response	0	j		304.0	/experiments/knapen_AOT/AOT_stimuli/pictures/0201_fw.png	629.5489120483398	
307	463.42271995544434	picture	0		108	305.0	/experiments/knapen_AOT/AOT_stimuli/pictures/1636_fw.png	629.6138060092926	0.9681861400604248
307	464.31460189819336	response	0	j		305.0	/experiments/knapen_AOT/AOT_stimuli/pictures/1636_fw.png	630.5056879520416	
308	464.39090609550476	picture	0		124	306.0	/experiments/knapen_AOT/AOT_stimuli/pictures/0867_fw.png	630.581992149353	1.0651509761810303
308	465.4145450592041	response	0	j		306.0	/experiments/knapen_AOT/AOT_stimuli/pictures/0867_fw.png	631.6056311130524	
309	465.4560570716858	picture	0		86	307.0	/experiments/knapen_AOT/AOT_stimuli/pictures/0902_fw.png	631.6471431255341	0.7500250339508057
309	466.15773606300354	response	0	k		307.0	/experiments/knapen_AOT/AOT_stimuli/pictures/0902_fw.png	632.3488221168518	
310	466.2060821056366	picture	0		136	308.0	/experiments/knapen_AOT/AOT_stimuli/pictures/0866_fw.png	632.3971681594849	1.1919047832489014
310	467.3312940597534	response	0	k		308.0	/experiments/knapen_AOT/AOT_stimuli/pictures/0866_fw.png	633.5223801136017	
311	467.3979868888855	picture	0		91	309.0	/experiments/knapen_AOT/AOT_stimuli/pictures/2033_fw.png	633.5890729427338	0.8054711818695068
311	468.1479649543762	response	0	k		309.0	/experiments/knapen_AOT/AOT_stimuli/pictures/2033_fw.png	634.3390510082245	
312	468.203458070755	picture	0		125	310.0	/experiments/knapen_AOT/AOT_stimuli/pictures/1605_fw.png	634.3945441246033	1.069375991821289
312	469.2395989894867	response	0	j		310.0	/experiments/knapen_AOT/AOT_stimuli/pictures/1605_fw.png	635.430685043335	
313	469.2728340625763	picture	0		104	311.0	/experiments/knapen_AOT/AOT_stimuli/pictures/1186_fw.png	635.4639201164246	0.8999760150909424
313	470.13127088546753	response	0	k		311.0	/experiments/knapen_AOT/AOT_stimuli/pictures/1186_fw.png	636.3223569393158	
314	470.17281007766724	picture	0		260	312.0	/experiments/knapen_AOT/AOT_stimuli/pictures/0680_fw.png	636.3638961315155	2.218118906021118
314	472.33128809928894	response	0	j		312.0	/experiments/knapen_AOT/AOT_stimuli/pictures/0680_fw.png	638.5223741531372	
315	472.39092898368835	picture	0		102	313.0	/experiments/knapen_AOT/AOT_stimuli/pictures/2117_fw.png	638.5820150375366	0.8985550403594971
315	473.2313709259033	response	0	k		313.0	/experiments/knapen_AOT/AOT_stimuli/pictures/2117_fw.png	639.4224569797516	
316	473.28948402404785	picture	0		241	314.0	/experiments/knapen_AOT/AOT_stimuli/pictures/2065_fw.png	639.4805700778961	2.033392906188965
316	475.2897598743439	response	0	k		314.0	/experiments/knapen_AOT/AOT_stimuli/pictures/2065_fw.png	641.4808459281921	
317	475.3228769302368	picture	0		451	315.0	/experiments/knapen_AOT/AOT_stimuli/pictures/0427_fw.png	641.5139629840851	3.808350086212158
317	479.0731248855591	response	0	k		315.0	/experiments/knapen_AOT/AOT_stimuli/pictures/0427_fw.png	645.2642109394073	
318	479.131227016449	picture	0		216	316.0	/experiments/knapen_AOT/AOT_stimuli/pictures/1541_fw.png	645.3223130702972	1.8333549499511719
318	480.923171043396	response	0	j		316.0	/experiments/knapen_AOT/AOT_stimuli/pictures/1541_fw.png	647.1142570972443	
319	480.96458196640015	picture	0		89	317.0	/experiments/knapen_AOT/AOT_stimuli/pictures/0432_fw.png	647.1556680202484	0.7750580310821533
319	481.69808888435364	response	0	k		317.0	/experiments/knapen_AOT/AOT_stimuli/pictures/0432_fw.png	647.8891749382019	
320	481.7396399974823	picture	0		118	318.0	/experiments/knapen_AOT/AOT_stimuli/pictures/0634_fw.png	647.9307260513306	1.033371925354004
320	482.7148540019989	response	0	k		318.0	/experiments/knapen_AOT/AOT_stimuli/pictures/0634_fw.png	648.9059400558472	
321	482.7730119228363	picture	0		130	319.0	/experiments/knapen_AOT/AOT_stimuli/pictures/1642_fw.png	648.9640979766846	1.1251521110534668
321	483.8481900691986	response	0	j		319.0	/experiments/knapen_AOT/AOT_stimuli/pictures/1642_fw.png	650.0392761230469	
322	483.89816403388977	picture	0		132	320.0	/experiments/knapen_AOT/AOT_stimuli/pictures/0297_fw.png	650.089250087738	1.1414690017700195
322	484.9898040294647	response	0	k		320.0	/experiments/knapen_AOT/AOT_stimuli/pictures/0297_fw.png	651.180890083313	
323	485.0396330356598	picture	0		132	321.0	/experiments/knapen_AOT/AOT_stimuli/pictures/2075_fw.png	651.230719089508	1.1291868686676025
323	486.13164496421814	response	0	k		321.0	/experiments/knapen_AOT/AOT_stimuli/pictures/2075_fw.png	652.3227310180664	
324	486.1688199043274	picture	0		112	322.0	/experiments/knapen_AOT/AOT_stimuli/pictures/0681_fw.png	652.3599059581757	0.962522029876709
324	487.0898859500885	response	0	j		322.0	/experiments/knapen_AOT/AOT_stimuli/pictures/0681_fw.png	653.2809720039368	
325	487.1313419342041	picture	0		112	323.0	/experiments/knapen_AOT/AOT_stimuli/pictures/0687_fw.png	653.3224279880524	0.9666860103607178
325	488.0566508769989	response	0	k		323.0	/experiments/knapen_AOT/AOT_stimuli/pictures/0687_fw.png	654.2477369308472	
326	488.0980279445648	picture	0		266	324.0	/experiments/knapen_AOT/AOT_stimuli/pictures/1208_fw.png	654.2891139984131	2.244442939758301
326	490.3066599369049	response	0	j		324.0	/experiments/knapen_AOT/AOT_stimuli/pictures/1208_fw.png	656.4977459907532	
327	490.3424708843231	picture	0		99	325.0	/experiments/knapen_AOT/AOT_stimuli/pictures/0313_fw.png	656.5335569381714	0.8639280796051025
327	491.14991998672485	response	0	j		325.0	/experiments/knapen_AOT/AOT_stimuli/pictures/0313_fw.png	657.3410060405731	
328	491.2063989639282	picture	0		197	326.0	/experiments/knapen_AOT/AOT_stimuli/pictures/1095_fw.png	657.3974850177765	1.6833300590515137
328	492.8399510383606	response	0	k		326.0	/experiments/knapen_AOT/AOT_stimuli/pictures/1095_fw.png	659.0310370922089	
329	492.88972902297974	picture	0		135	327.0	/experiments/knapen_AOT/AOT_stimuli/pictures/1712_fw.png	659.080815076828	1.1751019954681396
329	494.0066440105438	response	0	j		327.0	/experiments/knapen_AOT/AOT_stimuli/pictures/1712_fw.png	660.1977300643921	
330	494.0648310184479	picture	0		181	328.0	/experiments/knapen_AOT/AOT_stimuli/pictures/2010_fw.png	660.2559170722961	1.5347380638122559
330	495.5582880973816	response	0	j		328.0	/experiments/knapen_AOT/AOT_stimuli/pictures/2010_fw.png	661.7493741512299	
331	495.59956908226013	picture	0		103	329.0	/experiments/knapen_AOT/AOT_stimuli/pictures/1263_fw.png	661.7906551361084	0.89028000831604
331	496.44824290275574	response	0	k		329.0	/experiments/knapen_AOT/AOT_stimuli/pictures/1263_fw.png	662.639328956604	
332	496.4898490905762	picture	0		188	330.0	/experiments/knapen_AOT/AOT_stimuli/pictures/1075_fw.png	662.6809351444244	1.6096398830413818
332	498.04829502105713	response	0	j		330.0	/experiments/knapen_AOT/AOT_stimuli/pictures/1075_fw.png	664.2393810749054	
333	498.09948897361755	picture	0		88	331.0	/experiments/knapen_AOT/AOT_stimuli/pictures/1030_fw.png	664.2905750274658	0.7819828987121582
333	498.8232960700989	response	0	j		331.0	/experiments/knapen_AOT/AOT_stimuli/pictures/1030_fw.png	665.0143821239471	
334	498.8814718723297	picture	0		117	332.0	/experiments/knapen_AOT/AOT_stimuli/pictures/1282_fw.png	665.072557926178	1.0250282287597656
334	499.84834599494934	response	0	k		332.0	/experiments/knapen_AOT/AOT_stimuli/pictures/1282_fw.png	666.0394320487976	
335	499.9065001010895	picture	0		694	333.0	/experiments/knapen_AOT/AOT_stimuli/pictures/0309_fw.png	666.0975861549377	5.8167219161987305
335	505.6819529533386	response	0	j		333.0	/experiments/knapen_AOT/AOT_stimuli/pictures/0309_fw.png	671.8730390071869	
336	505.7232220172882	picture	0		102	334.0	/experiments/knapen_AOT/AOT_stimuli/pictures/1103_fw.png	671.9143080711365	0.883465051651001
336	506.5584580898285	response	0	j		334.0	/experiments/knapen_AOT/AOT_stimuli/pictures/1103_fw.png	672.7495441436768	
337	506.6066870689392	picture	0		86	335.0	/experiments/knapen_AOT/AOT_stimuli/pictures/1879_fw.png	672.7977731227875	0.7707638740539551
337	507.31512093544006	response	0	k		335.0	/experiments/knapen_AOT/AOT_stimuli/pictures/1879_fw.png	673.5062069892883	
338	507.37745094299316	picture	0		394	336.0	/experiments/knapen_AOT/AOT_stimuli/pictures/0508_fw.png	673.5685369968414	3.320852041244507
338	510.6484398841858	response	0	k		336.0	/experiments/knapen_AOT/AOT_stimuli/pictures/0508_fw.png	676.8395259380341	
339	510.69830298423767	picture	0		449	337.0	/experiments/knapen_AOT/AOT_stimuli/pictures/0940_fw.png	676.8893890380859	3.7833900451660156
339	514.4320559501648	response	0	j		337.0	/experiments/knapen_AOT/AOT_stimuli/pictures/0940_fw.png	680.6231420040131	
340	514.4816930294037	picture	0		108	338.0	/experiments/knapen_AOT/AOT_stimuli/pictures/0280_fw.png	680.672779083252	0.916672945022583
340	515.3668580055237	response	0	k		338.0	/experiments/knapen_AOT/AOT_stimuli/pictures/0280_fw.png	681.557944059372	
341	515.3983659744263	picture	0		131	339.0	/experiments/knapen_AOT/AOT_stimuli/pictures/0247_fw.png	681.5894520282745	1.1333320140838623
341	516.4818480014801	response	0	k		339.0	/experiments/knapen_AOT/AOT_stimuli/pictures/0247_fw.png	682.6729340553284	
342	516.5316979885101	picture	0		128	340.0	/experiments/knapen_AOT/AOT_stimuli/pictures/0392_fw.png	682.7227840423584	1.1096088886260986
342	517.5835108757019	response	0	k		340.0	/experiments/knapen_AOT/AOT_stimuli/pictures/0392_fw.png	683.7745969295502	
343	517.6413068771362	picture	0		89	341.0	/experiments/knapen_AOT/AOT_stimuli/pictures/2067_fw.png	683.8323929309845	0.8264532089233398
343	518.3834810256958	response	0	k		341.0	/experiments/knapen_AOT/AOT_stimuli/pictures/2067_fw.png	684.5745670795441	
344	518.4677600860596	picture	0		95	342.0	/experiments/knapen_AOT/AOT_stimuli/pictures/1667_fw.png	684.6588461399078	0.8402438163757324
344	519.2486140727997	response	0	j		342.0	/experiments/knapen_AOT/AOT_stimuli/pictures/1667_fw.png	685.439700126648	
345	519.3080039024353	picture	0		237	343.0	/experiments/knapen_AOT/AOT_stimuli/pictures/0661_fw.png	685.4990899562836	2.0071029663085938
345	521.2735688686371	response	0	k		343.0	/experiments/knapen_AOT/AOT_stimuli/pictures/0661_fw.png	687.4646549224854	
346	521.3151068687439	picture	0		93	344.0	/experiments/knapen_AOT/AOT_stimuli/pictures/1247_fw.png	687.5061929225922	0.8333590030670166
346	522.082083940506	response	0	j		344.0	/experiments/knapen_AOT/AOT_stimuli/pictures/1247_fw.png	688.2731699943542	
347	522.1484658718109	picture	0		101	345.0	/experiments/knapen_AOT/AOT_stimuli/pictures/1724_fw.png	688.3395519256592	0.883364200592041
347	522.9752569198608	response	0	k		345.0	/experiments/knapen_AOT/AOT_stimuli/pictures/1724_fw.png	689.1663429737091	
348	523.031830072403	picture	0		126	346.0	/experiments/knapen_AOT/AOT_stimuli/pictures/2174_fw.png	689.2229161262512	1.1083378791809082
348	524.073667049408	response	0	k		346.0	/experiments/knapen_AOT/AOT_stimuli/pictures/2174_fw.png	690.2647531032562	
349	524.1401679515839	picture	0		96	347.0	/experiments/knapen_AOT/AOT_stimuli/pictures/1242_fw.png	690.3312540054321	0.8345990180969238
349	524.932018995285	response	0	k		347.0	/experiments/knapen_AOT/AOT_stimuli/pictures/1242_fw.png	691.1231050491333	
350	524.9747669696808	picture	0		93	348.0	/experiments/knapen_AOT/AOT_stimuli/pictures/0754_fw.png	691.165853023529	0.7987251281738281
350	525.7403500080109	response	0	j		348.0	/experiments/knapen_AOT/AOT_stimuli/pictures/0754_fw.png	691.9314360618591	
351	525.7734920978546	picture	0		120	349.0	/experiments/knapen_AOT/AOT_stimuli/pictures/0177_fw.png	691.9645781517029	1.0416779518127441
351	526.7586450576782	response	0	k		349.0	/experiments/knapen_AOT/AOT_stimuli/pictures/0177_fw.png	692.9497311115265	
352	526.8151700496674	picture	0		113	350.0	/experiments/knapen_AOT/AOT_stimuli/pictures/1554_fw.png	693.0062561035156	0.9750359058380127
352	527.7486798763275	response	0	k		350.0	/experiments/knapen_AOT/AOT_stimuli/pictures/1554_fw.png	693.9397659301758	
353	527.7902059555054	picture	0		181	351.0	/experiments/knapen_AOT/AOT_stimuli/pictures/1111_fw.png	693.9812920093536	1.5666589736938477
353	529.2903928756714	response	0	k		351.0	/experiments/knapen_AOT/AOT_stimuli/pictures/1111_fw.png	695.4814789295197	
354	529.3568649291992	picture	0		145	352.0	/experiments/knapen_AOT/AOT_stimuli/pictures/0799_fw.png	695.5479509830475	1.2289750576019287
354	530.5503830909729	response	0	k		352.0	/experiments/knapen_AOT/AOT_stimuli/pictures/0799_fw.png	696.7414691448212	
355	530.5858399868011	picture	0		98	353.0	/experiments/knapen_AOT/AOT_stimuli/pictures/1010_fw.png	696.7769260406494	0.8544130325317383
355	531.3835890293121	response	0	k		353.0	/experiments/knapen_AOT/AOT_stimuli/pictures/1010_fw.png	697.5746750831604	
356	531.4402530193329	picture	0		115	354.0	/experiments/knapen_AOT/AOT_stimuli/pictures/2146_fw.png	697.6313390731812	1.0000040531158447
356	532.3903810977936	response	0	k		354.0	/experiments/knapen_AOT/AOT_stimuli/pictures/2146_fw.png	698.5814671516418	
357	532.4402570724487	picture	0		139	355.0	/experiments/knapen_AOT/AOT_stimuli/pictures/1101_fw.png	698.631343126297	1.20123291015625
357	533.5903959274292	response	0	j		355.0	/experiments/knapen_AOT/AOT_stimuli/pictures/1101_fw.png	699.7814819812775	
358	533.641489982605	picture	0		98	356.0	/experiments/knapen_AOT/AOT_stimuli/pictures/1453_fw.png	699.8325760364532	0.8655269145965576
358	534.4488129615784	response	0	k		356.0	/experiments/knapen_AOT/AOT_stimuli/pictures/1453_fw.png	700.6398990154266	
359	534.5070168972015	picture	0		90	357.0	/experiments/knapen_AOT/AOT_stimuli/pictures/0551_fw.png	700.6981029510498	0.7832801342010498
359	535.2488079071045	response	0	j		357.0	/experiments/knapen_AOT/AOT_stimuli/pictures/0551_fw.png	701.4398939609528	
360	535.2902970314026	picture	0		102	358.0	/experiments/knapen_AOT/AOT_stimuli/pictures/0632_fw.png	701.4813830852509	0.8917009830474854
360	536.132266998291	response	0	j		358.0	/experiments/knapen_AOT/AOT_stimuli/pictures/0632_fw.png	702.3233530521393	
361	536.1819980144501	picture	0		122	359.0	/experiments/knapen_AOT/AOT_stimuli/pictures/0034_fw.png	702.3730840682983	1.0666589736938477
361	537.1904199123383	response	0	k		359.0	/experiments/knapen_AOT/AOT_stimuli/pictures/0034_fw.png	703.3815059661865	
362	537.2486569881439	stim	0		126			703.4397430419922	1.1001091003417969
362	538.2906329631805	response	0	space				704.4817190170288	
