trial_nr	onset	event_type	phase	response	nr_frames	picture_index	picture_file	onset_abs	duration
0	0.21522092819213867	stim	0		335			111.5903959274292	2.8054308891296387
0	2.9961748123168945	response	0	space				114.37134981155396	
2	3.0206518173217773	picture	0		91	0.0	/experiments/knapen_AOT/AOT_stimuli/pictures/0558_fw.png	114.39582681655884	0.8121240139007568
2	3.8129568099975586	response	0	k		0.0	/experiments/knapen_AOT/AOT_stimuli/pictures/0558_fw.png	115.18813180923462	
3	3.832775831222534	picture	0		117	1.0	/experiments/knapen_AOT/AOT_stimuli/pictures/2085_fw.png	115.2079508304596	0.9796590805053711
3	4.803255796432495	response	0	j		1.0	/experiments/knapen_AOT/AOT_stimuli/pictures/2085_fw.png	116.17843079566956	
4	4.812434911727905	picture	0		100	2.0	/experiments/knapen_AOT/AOT_stimuli/pictures/0470_fw.png	116.18760991096497	0.8333930969238281
4	5.6365368366241455	response	0	k		2.0	/experiments/knapen_AOT/AOT_stimuli/pictures/0470_fw.png	117.0117118358612	
5	5.645828008651733	picture	0		120	3.0	/experiments/knapen_AOT/AOT_stimuli/pictures/0669_fw.png	117.0210030078888	1.0001568794250488
5	6.636554956436157	response	0	j		3.0	/experiments/knapen_AOT/AOT_stimuli/pictures/0669_fw.png	118.01172995567322	
6	6.645984888076782	picture	0		184	4.0	/experiments/knapen_AOT/AOT_stimuli/pictures/1803_fw.png	118.02115988731384	1.5344340801239014
6	8.163236856460571	response	0	k		4.0	/experiments/knapen_AOT/AOT_stimuli/pictures/1803_fw.png	119.53841185569763	
7	8.180418968200684	picture	0		150	5.0	/experiments/knapen_AOT/AOT_stimuli/pictures/1027_fw.png	119.55559396743774	1.2501728534698486
7	9.420078992843628	response	0	k		5.0	/experiments/knapen_AOT/AOT_stimuli/pictures/1027_fw.png	120.79525399208069	
8	9.430591821670532	picture	0		113	6.0	/experiments/knapen_AOT/AOT_stimuli/pictures/1961_fw.png	120.80576682090759	0.9443581104278564
8	10.35499882698059	response	0	k		6.0	/experiments/knapen_AOT/AOT_stimuli/pictures/1961_fw.png	121.73017382621765	
9	10.374949932098389	picture	0		303	7.0	/experiments/knapen_AOT/AOT_stimuli/pictures/2176_fw.png	121.75012493133545	2.583338975906372
9	12.938331842422485	response	0	j		7.0	/experiments/knapen_AOT/AOT_stimuli/pictures/2176_fw.png	124.31350684165955	
10	12.95828890800476	picture	0		159	8.0	/experiments/knapen_AOT/AOT_stimuli/pictures/0235_fw.png	124.33346390724182	1.333353042602539
10	14.278383016586304	response	0	k		8.0	/experiments/knapen_AOT/AOT_stimuli/pictures/0235_fw.png	125.65355801582336	
11	14.2916419506073	picture	0		100	9.0	/experiments/knapen_AOT/AOT_stimuli/pictures/1241_fw.png	125.66681694984436	0.8403549194335938
11	15.12020993232727	response	0	j		9.0	/experiments/knapen_AOT/AOT_stimuli/pictures/1241_fw.png	126.49538493156433	
12	15.131996870040894	picture	0		97	10.0	/experiments/knapen_AOT/AOT_stimuli/pictures/0728_fw.png	126.50717186927795	0.8055651187896729
12	15.92836594581604	response	0	j		10.0	/experiments/knapen_AOT/AOT_stimuli/pictures/0728_fw.png	127.3035409450531	
13	15.937561988830566	picture	0		95	11.0	/experiments/knapen_AOT/AOT_stimuli/pictures/1134_fw.png	127.31273698806763	0.7916429042816162
13	16.720129013061523	response	0	k		11.0	/experiments/knapen_AOT/AOT_stimuli/pictures/1134_fw.png	128.09530401229858	
14	16.729204893112183	picture	0		88	12.0	/experiments/knapen_AOT/AOT_stimuli/pictures/1272_fw.png	128.10437989234924	0.7361209392547607
14	17.453396797180176	response	0	j		12.0	/experiments/knapen_AOT/AOT_stimuli/pictures/1272_fw.png	128.82857179641724	
15	17.465325832366943	picture	0		101	13.0	/experiments/knapen_AOT/AOT_stimuli/pictures/1753_fw.png	128.840500831604	0.8403031826019287
15	18.295116901397705	response	0	j		13.0	/experiments/knapen_AOT/AOT_stimuli/pictures/1753_fw.png	129.67029190063477	
16	18.305629014968872	picture	0		117	14.0	/experiments/knapen_AOT/AOT_stimuli/pictures/0180_fw.png	129.68080401420593	0.9726309776306152
16	19.270120859146118	response	0	k		14.0	/experiments/knapen_AOT/AOT_stimuli/pictures/0180_fw.png	130.64529585838318	
17	19.278259992599487	picture	0		104	15.0	/experiments/knapen_AOT/AOT_stimuli/pictures/2008_fw.png	130.65343499183655	0.8677279949188232
17	20.136753797531128	response	0	j		15.0	/experiments/knapen_AOT/AOT_stimuli/pictures/2008_fw.png	131.5119287967682	
18	20.14598798751831	picture	0		83	16.0	/experiments/knapen_AOT/AOT_stimuli/pictures/2122_fw.png	131.52116298675537	0.6943438053131104
18	20.82845401763916	response	0	k		16.0	/experiments/knapen_AOT/AOT_stimuli/pictures/2122_fw.png	132.20362901687622	
19	20.84033179283142	picture	0		111	17.0	/experiments/knapen_AOT/AOT_stimuli/pictures/0839_fw.png	132.21550679206848	0.9237442016601562
19	21.746680974960327	response	0	j		17.0	/experiments/knapen_AOT/AOT_stimuli/pictures/0839_fw.png	133.1218559741974	
20	21.764075994491577	picture	0		117	18.0	/experiments/knapen_AOT/AOT_stimuli/pictures/1095_fw.png	133.13925099372864	0.9725849628448486
20	22.728487968444824	response	0	k		18.0	/experiments/knapen_AOT/AOT_stimuli/pictures/1095_fw.png	134.10366296768188	
21	22.736660957336426	picture	0		83	19.0	/experiments/knapen_AOT/AOT_stimuli/pictures/1814_fw.png	134.1118359565735	0.6940178871154785
21	23.42014980316162	response	0	j		19.0	/experiments/knapen_AOT/AOT_stimuli/pictures/1814_fw.png	134.79532480239868	
22	23.430678844451904	picture	0		97	20.0	/experiments/knapen_AOT/AOT_stimuli/pictures/0504_fw.png	134.80585384368896	0.805974006652832
22	24.22848391532898	response	0	k		20.0	/experiments/knapen_AOT/AOT_stimuli/pictures/0504_fw.png	135.60365891456604	
23	24.236652851104736	picture	0		87	21.0	/experiments/knapen_AOT/AOT_stimuli/pictures/0044_fw.png	135.6118278503418	0.7287170886993408
23	24.946674823760986	response	0	k		21.0	/experiments/knapen_AOT/AOT_stimuli/pictures/0044_fw.png	136.32184982299805	
24	24.965369939804077	picture	0		97	22.0	/experiments/knapen_AOT/AOT_stimuli/pictures/0438_fw.png	136.34054493904114	0.8055770397186279
24	25.755028009414673	response	0	k		22.0	/experiments/knapen_AOT/AOT_stimuli/pictures/0438_fw.png	137.13020300865173	
25	25.770946979522705	picture	0		104	23.0	/experiments/knapen_AOT/AOT_stimuli/pictures/1125_fw.png	137.14612197875977	0.8680598735809326
25	26.628528833389282	response	0	k		23.0	/experiments/knapen_AOT/AOT_stimuli/pictures/1125_fw.png	138.00370383262634	
26	26.639006853103638	picture	0		105	24.0	/experiments/knapen_AOT/AOT_stimuli/pictures/1756_fw.png	138.0141818523407	0.8750040531158447
26	27.503515005111694	response	0	k		24.0	/experiments/knapen_AOT/AOT_stimuli/pictures/1756_fw.png	138.87869000434875	
27	27.514010906219482	picture	0		95	25.0	/experiments/knapen_AOT/AOT_stimuli/pictures/1476_fw.png	138.88918590545654	0.7916769981384277
27	28.295202016830444	response	0	j		25.0	/experiments/knapen_AOT/AOT_stimuli/pictures/1476_fw.png	139.6703770160675	
28	28.30568790435791	picture	0		89	26.0	/experiments/knapen_AOT/AOT_stimuli/pictures/1934_fw.png	139.68086290359497	0.7431130409240723
28	29.03693699836731	response	0	k		26.0	/experiments/knapen_AOT/AOT_stimuli/pictures/1934_fw.png	140.41211199760437	
29	29.048800945281982	picture	0		92	27.0	/experiments/knapen_AOT/AOT_stimuli/pictures/1577_fw.png	140.42397594451904	0.7639429569244385
29	29.803539991378784	response	0	j		27.0	/experiments/knapen_AOT/AOT_stimuli/pictures/1577_fw.png	141.17871499061584	
30	29.81274390220642	picture	0		125	28.0	/experiments/knapen_AOT/AOT_stimuli/pictures/0907_fw.png	141.18791890144348	1.0415561199188232
30	30.845247983932495	response	0	j		28.0	/experiments/knapen_AOT/AOT_stimuli/pictures/0907_fw.png	142.22042298316956	
31	30.854300022125244	picture	0		96	29.0	/experiments/knapen_AOT/AOT_stimuli/pictures/0023_fw.png	142.2294750213623	0.7991218566894531
31	31.645274877548218	response	0	j		29.0	/experiments/knapen_AOT/AOT_stimuli/pictures/0023_fw.png	143.02044987678528	
32	31.653421878814697	picture	0		94	30.0	/experiments/knapen_AOT/AOT_stimuli/pictures/0431_fw.png	143.02859687805176	0.784276008605957
32	32.42856001853943	response	0	k		30.0	/experiments/knapen_AOT/AOT_stimuli/pictures/0431_fw.png	143.8037350177765	
33	32.437697887420654	picture	0		89	31.0	/experiments/knapen_AOT/AOT_stimuli/pictures/1744_fw.png	143.81287288665771	0.7431180477142334
33	33.17030882835388	response	0	k		31.0	/experiments/knapen_AOT/AOT_stimuli/pictures/1744_fw.png	144.54548382759094	
34	33.18081593513489	picture	0		107	32.0	/experiments/knapen_AOT/AOT_stimuli/pictures/0556_fw.png	144.55599093437195	0.8893270492553711
34	34.06211495399475	response	0	k		32.0	/experiments/knapen_AOT/AOT_stimuli/pictures/0556_fw.png	145.4372899532318	
35	34.07014298439026	picture	0		87	33.0	/experiments/knapen_AOT/AOT_stimuli/pictures/1021_fw.png	145.44531798362732	0.7286758422851562
35	34.78697490692139	response	0	j		33.0	/experiments/knapen_AOT/AOT_stimuli/pictures/1021_fw.png	146.16214990615845	
36	34.798818826675415	picture	0		125	34.0	/experiments/knapen_AOT/AOT_stimuli/pictures/0196_fw.png	146.17399382591248	1.0416390895843506
36	35.828704833984375	response	0	k		34.0	/experiments/knapen_AOT/AOT_stimuli/pictures/0196_fw.png	147.20387983322144	
37	35.840457916259766	picture	0		145	35.0	/experiments/knapen_AOT/AOT_stimuli/pictures/1232_fw.png	147.21563291549683	1.2084589004516602
37	37.03718900680542	response	0	k		35.0	/experiments/knapen_AOT/AOT_stimuli/pictures/1232_fw.png	148.41236400604248	
38	37.048916816711426	picture	0		110	36.0	/experiments/knapen_AOT/AOT_stimuli/pictures/1020_fw.png	148.4240918159485	0.9165651798248291
38	37.95365500450134	response	0	j		36.0	/experiments/knapen_AOT/AOT_stimuli/pictures/1020_fw.png	149.3288300037384	
39	37.965481996536255	picture	0		82	37.0	/experiments/knapen_AOT/AOT_stimuli/pictures/1482_fw.png	149.34065699577332	0.6805589199066162
39	38.637032985687256	response	0	j		37.0	/experiments/knapen_AOT/AOT_stimuli/pictures/1482_fw.png	150.01220798492432	
40	38.64604091644287	picture	0		93	38.0	/experiments/knapen_AOT/AOT_stimuli/pictures/1926_fw.png	150.02121591567993	0.7777810096740723
40	39.41219782829285	response	0	k		38.0	/experiments/knapen_AOT/AOT_stimuli/pictures/1926_fw.png	150.7873728275299	
41	39.42382192611694	picture	0		86	39.0	/experiments/knapen_AOT/AOT_stimuli/pictures/1310_fw.png	150.798996925354	0.7153279781341553
41	40.121845960617065	response	0	k		39.0	/experiments/knapen_AOT/AOT_stimuli/pictures/1310_fw.png	151.49702095985413	
42	40.1391499042511	picture	0		82	40.0	/experiments/knapen_AOT/AOT_stimuli/pictures/0258_fw.png	151.51432490348816	0.6810519695281982
42	40.812187910079956	response	0	j		40.0	/experiments/knapen_AOT/AOT_stimuli/pictures/0258_fw.png	152.18736290931702	
43	40.8202018737793	picture	0		88	41.0	/experiments/knapen_AOT/AOT_stimuli/pictures/2157_fw.png	152.19537687301636	0.7355759143829346
43	41.538798809051514	response	0	k		41.0	/experiments/knapen_AOT/AOT_stimuli/pictures/2157_fw.png	152.91397380828857	
44	41.55577778816223	picture	0		100	42.0	/experiments/knapen_AOT/AOT_stimuli/pictures/0140_fw.png	152.9309527873993	0.8334200382232666
44	42.378737926483154	response	0	j		42.0	/experiments/knapen_AOT/AOT_stimuli/pictures/0140_fw.png	153.75391292572021	
45	42.3891978263855	picture	0		88	43.0	/experiments/knapen_AOT/AOT_stimuli/pictures/0152_fw.png	153.76437282562256	0.7360661029815674
45	43.112106800079346	response	0	k		43.0	/experiments/knapen_AOT/AOT_stimuli/pictures/0152_fw.png	154.4872817993164	
46	43.125263929367065	picture	0		102	44.0	/experiments/knapen_AOT/AOT_stimuli/pictures/0843_fw.png	154.50043892860413	0.8541519641876221
46	43.97042489051819	response	0	j		44.0	/experiments/knapen_AOT/AOT_stimuli/pictures/0843_fw.png	155.34559988975525	
47	43.97941589355469	picture	0		82	45.0	/experiments/knapen_AOT/AOT_stimuli/pictures/1839_fw.png	155.35459089279175	0.6875119209289551
47	44.65384101867676	response	0	j		45.0	/experiments/knapen_AOT/AOT_stimuli/pictures/1839_fw.png	156.02901601791382	
48	44.66692781448364	picture	0		114	46.0	/experiments/knapen_AOT/AOT_stimuli/pictures/0667_fw.png	156.0421028137207	0.9583930969238281
48	45.6121609210968	response	0	k		46.0	/experiments/knapen_AOT/AOT_stimuli/pictures/0667_fw.png	156.98733592033386	
49	45.62532091140747	picture	0		109	47.0	/experiments/knapen_AOT/AOT_stimuli/pictures/0213_fw.png	157.00049591064453	0.916640043258667
49	46.5220308303833	response	0	j		47.0	/experiments/knapen_AOT/AOT_stimuli/pictures/0213_fw.png	157.89720582962036	
50	46.54196095466614	picture	0		115	48.0	/experiments/knapen_AOT/AOT_stimuli/pictures/0278_fw.png	157.9171359539032	0.9652810096740723
50	47.49546194076538	response	0	j		48.0	/experiments/knapen_AOT/AOT_stimuli/pictures/0278_fw.png	158.87063694000244	
51	47.50724196434021	picture	0		133	49.0	/experiments/knapen_AOT/AOT_stimuli/pictures/2175_fw.png	158.88241696357727	1.1048049926757812
51	48.60379886627197	response	0	k		49.0	/experiments/knapen_AOT/AOT_stimuli/pictures/2175_fw.png	159.97897386550903	
52	48.61204695701599	picture	0		81	50.0	/experiments/knapen_AOT/AOT_stimuli/pictures/0571_fw.png	159.98722195625305	0.6938619613647461
52	49.29549288749695	response	0	k		50.0	/experiments/knapen_AOT/AOT_stimuli/pictures/0571_fw.png	160.670667886734	
53	49.30590891838074	picture	0		87	51.0	/experiments/knapen_AOT/AOT_stimuli/pictures/0600_fw.png	160.6810839176178	0.7228529453277588
53	50.02050185203552	response	0	j		51.0	/experiments/knapen_AOT/AOT_stimuli/pictures/0600_fw.png	161.39567685127258	
54	50.028761863708496	picture	0		85	52.0	/experiments/knapen_AOT/AOT_stimuli/pictures/1162_fw.png	161.40393686294556	0.7082679271697998
54	50.721967935562134	response	0	j		52.0	/experiments/knapen_AOT/AOT_stimuli/pictures/1162_fw.png	162.0971429347992	
55	50.737029790878296	picture	0		231	53.0	/experiments/knapen_AOT/AOT_stimuli/pictures/0812_fw.png	162.11220479011536	1.9299042224884033
55	52.6539409160614	response	0	k		53.0	/experiments/knapen_AOT/AOT_stimuli/pictures/0812_fw.png	164.02911591529846	
56	52.6669340133667	picture	0		126	54.0	/experiments/knapen_AOT/AOT_stimuli/pictures/1845_fw.png	164.04210901260376	1.0555939674377441
56	53.70566201210022	response	0	k		54.0	/experiments/knapen_AOT/AOT_stimuli/pictures/1845_fw.png	165.08083701133728	
57	53.72252798080444	picture	0		140	55.0	/experiments/knapen_AOT/AOT_stimuli/pictures/0188_fw.png	165.0977029800415	1.1666839122772217
57	54.87895894050598	response	0	k		55.0	/experiments/knapen_AOT/AOT_stimuli/pictures/0188_fw.png	166.25413393974304	
58	54.889211893081665	picture	0		106	56.0	/experiments/knapen_AOT/AOT_stimuli/pictures/1630_fw.png	166.26438689231873	0.8819859027862549
58	55.76223587989807	response	0	j		56.0	/experiments/knapen_AOT/AOT_stimuli/pictures/1630_fw.png	167.13741087913513	
59	55.77119779586792	picture	0		101	57.0	/experiments/knapen_AOT/AOT_stimuli/pictures/0034_fw.png	167.14637279510498	0.8409490585327148
59	56.603946924209595	response	0	j		57.0	/experiments/knapen_AOT/AOT_stimuli/pictures/0034_fw.png	167.97912192344666	
60	56.612146854400635	picture	0		129	58.0	/experiments/knapen_AOT/AOT_stimuli/pictures/0655_fw.png	167.9873218536377	1.0757391452789307
60	57.67896485328674	response	0	k		58.0	/experiments/knapen_AOT/AOT_stimuli/pictures/0655_fw.png	169.0541398525238	
61	57.687885999679565	picture	0		102	59.0	/experiments/knapen_AOT/AOT_stimuli/pictures/0395_fw.png	169.06306099891663	0.8542189598083496
61	58.52230191230774	response	0	k		59.0	/experiments/knapen_AOT/AOT_stimuli/pictures/0395_fw.png	169.8974769115448	
62	58.542104959487915	picture	0		100	60.0	/experiments/knapen_AOT/AOT_stimuli/pictures/0778_fw.png	169.91727995872498	0.840224027633667
62	59.3706169128418	response	0	k		60.0	/experiments/knapen_AOT/AOT_stimuli/pictures/0778_fw.png	170.74579191207886	
63	59.38232898712158	picture	0		101	61.0	/experiments/knapen_AOT/AOT_stimuli/pictures/0506_fw.png	170.75750398635864	0.8403968811035156
63	60.21231198310852	response	0	j		61.0	/experiments/knapen_AOT/AOT_stimuli/pictures/0506_fw.png	171.58748698234558	
64	60.2227258682251	picture	0		99	62.0	/experiments/knapen_AOT/AOT_stimuli/pictures/1825_fw.png	171.59790086746216	0.8262629508972168
64	61.037309885025024	response	0	k		62.0	/experiments/knapen_AOT/AOT_stimuli/pictures/1825_fw.png	172.41248488426208	
65	61.048988819122314	picture	0		100	63.0	/experiments/knapen_AOT/AOT_stimuli/pictures/1324_fw.png	172.42416381835938	0.8333389759063721
65	61.87084078788757	response	0	k		63.0	/experiments/knapen_AOT/AOT_stimuli/pictures/1324_fw.png	173.24601578712463	
66	61.88232779502869	picture	0		86	64.0	/experiments/knapen_AOT/AOT_stimuli/pictures/1763_fw.png	173.25750279426575	0.7153642177581787
66	62.58730697631836	response	0	j		64.0	/experiments/knapen_AOT/AOT_stimuli/pictures/1763_fw.png	173.96248197555542	
67	62.597692012786865	picture	0		90	65.0	/experiments/knapen_AOT/AOT_stimuli/pictures/0419_fw.png	173.97286701202393	0.7500278949737549
67	63.33731698989868	response	0	k		65.0	/experiments/knapen_AOT/AOT_stimuli/pictures/0419_fw.png	174.71249198913574	
68	63.34771990776062	picture	0		91	66.0	/experiments/knapen_AOT/AOT_stimuli/pictures/0169_fw.png	174.72289490699768	0.7569661140441895
68	64.08890080451965	response	0	k		66.0	/experiments/knapen_AOT/AOT_stimuli/pictures/0169_fw.png	175.4640758037567	
69	64.10468602180481	picture	0		81	67.0	/experiments/knapen_AOT/AOT_stimuli/pictures/0776_fw.png	175.47986102104187	0.6742119789123535
69	64.77074384689331	response	0	k		67.0	/experiments/knapen_AOT/AOT_stimuli/pictures/0776_fw.png	176.14591884613037	
70	64.77889800071716	picture	0		80	68.0	/experiments/knapen_AOT/AOT_stimuli/pictures/0407_fw.png	176.15407299995422	0.66666579246521
70	65.43807291984558	response	0	k		68.0	/experiments/knapen_AOT/AOT_stimuli/pictures/0407_fw.png	176.81324791908264	
71	65.44556379318237	picture	0		83	69.0	/experiments/knapen_AOT/AOT_stimuli/pictures/0987_fw.png	176.82073879241943	0.6937360763549805
71	66.12223792076111	response	0	k		69.0	/experiments/knapen_AOT/AOT_stimuli/pictures/0987_fw.png	177.49741291999817	
72	66.13929986953735	picture	0		105	70.0	/experiments/knapen_AOT/AOT_stimuli/pictures/1284_fw.png	177.5144748687744	0.8750100135803223
72	67.00402688980103	response	0	k		70.0	/experiments/knapen_AOT/AOT_stimuli/pictures/1284_fw.png	178.3792018890381	
73	67.01430988311768	picture	0		108	71.0	/experiments/knapen_AOT/AOT_stimuli/pictures/0690_fw.png	178.38948488235474	0.9028439521789551
73	67.8974277973175	response	0	j		71.0	/experiments/knapen_AOT/AOT_stimuli/pictures/0690_fw.png	179.27260279655457	
74	67.91715383529663	picture	0		112	72.0	/experiments/knapen_AOT/AOT_stimuli/pictures/1335_fw.png	179.2923288345337	0.9305419921875
74	68.83739495277405	response	0	j		72.0	/experiments/knapen_AOT/AOT_stimuli/pictures/1335_fw.png	180.2125699520111	
75	68.84769582748413	picture	0		101	73.0	/experiments/knapen_AOT/AOT_stimuli/pictures/2167_fw.png	180.2228708267212	0.8403701782226562
75	69.67907786369324	response	0	j		73.0	/experiments/knapen_AOT/AOT_stimuli/pictures/2167_fw.png	181.0542528629303	
76	69.68806600570679	picture	0		93	74.0	/experiments/knapen_AOT/AOT_stimuli/pictures/2134_fw.png	181.06324100494385	0.7777228355407715
76	70.45422983169556	response	0	k		74.0	/experiments/knapen_AOT/AOT_stimuli/pictures/2134_fw.png	181.82940483093262	
77	70.46578884124756	picture	0		95	75.0	/experiments/knapen_AOT/AOT_stimuli/pictures/0170_fw.png	181.84096384048462	0.7916231155395508
77	71.24579691886902	response	0	k		75.0	/experiments/knapen_AOT/AOT_stimuli/pictures/0170_fw.png	182.62097191810608	
78	71.25741195678711	picture	0		103	76.0	/experiments/knapen_AOT/AOT_stimuli/pictures/2155_fw.png	182.63258695602417	0.8548879623413086
78	72.0973858833313	response	0	k		76.0	/experiments/knapen_AOT/AOT_stimuli/pictures/2155_fw.png	183.47256088256836	
79	72.11229991912842	picture	0		86	77.0	/experiments/knapen_AOT/AOT_stimuli/pictures/1256_fw.png	183.48747491836548	0.7216570377349854
79	72.82096695899963	response	0	j		77.0	/experiments/knapen_AOT/AOT_stimuli/pictures/1256_fw.png	184.1961419582367	
80	72.8339569568634	picture	0		82	78.0	/experiments/knapen_AOT/AOT_stimuli/pictures/0517_fw.png	184.20913195610046	0.6803979873657227
80	73.49754786491394	response	0	j		78.0	/experiments/knapen_AOT/AOT_stimuli/pictures/0517_fw.png	184.872722864151	
81	73.51435494422913	picture	0		96	79.0	/experiments/knapen_AOT/AOT_stimuli/pictures/1518_fw.png	184.8895299434662	0.7987658977508545
81	74.29734802246094	response	0	k		79.0	/experiments/knapen_AOT/AOT_stimuli/pictures/1518_fw.png	185.672523021698	
82	74.31312084197998	picture	0		116	80.0	/experiments/knapen_AOT/AOT_stimuli/pictures/2107_fw.png	185.68829584121704	0.9658901691436768
82	75.2708969116211	response	0	k		80.0	/experiments/knapen_AOT/AOT_stimuli/pictures/2107_fw.png	186.64607191085815	
83	75.27901101112366	picture	0		84	81.0	/experiments/knapen_AOT/AOT_stimuli/pictures/2001_fw.png	186.65418601036072	0.7008168697357178
83	75.97093081474304	response	0	j		81.0	/experiments/knapen_AOT/AOT_stimuli/pictures/2001_fw.png	187.3461058139801	
84	75.97982788085938	picture	0		77	82.0	/experiments/knapen_AOT/AOT_stimuli/pictures/1932_fw.png	187.35500288009644	0.6457200050354004
84	76.61249780654907	response	0	j		82.0	/experiments/knapen_AOT/AOT_stimuli/pictures/1932_fw.png	187.98767280578613	
85	76.62554788589478	picture	0		308	83.0	/experiments/knapen_AOT/AOT_stimuli/pictures/1757_fw.png	188.00072288513184	2.562433958053589
85	79.17932391166687	response	0	j		83.0	/experiments/knapen_AOT/AOT_stimuli/pictures/1757_fw.png	190.55449891090393	
86	79.18798184394836	picture	0		88	84.0	/experiments/knapen_AOT/AOT_stimuli/pictures/1437_fw.png	190.56315684318542	0.7362420558929443
86	79.90599584579468	response	0	k		84.0	/experiments/knapen_AOT/AOT_stimuli/pictures/1437_fw.png	191.28117084503174	
87	79.92422389984131	picture	0		188	85.0	/experiments/knapen_AOT/AOT_stimuli/pictures/1966_fw.png	191.29939889907837	1.5692980289459229
87	81.47251081466675	response	0	j		85.0	/experiments/knapen_AOT/AOT_stimuli/pictures/1966_fw.png	192.8476858139038	
88	81.49352192878723	picture	0		75	86.0	/experiments/knapen_AOT/AOT_stimuli/pictures/1654_fw.png	192.8686969280243	0.6320500373840332
88	82.11257195472717	response	0	j		86.0	/experiments/knapen_AOT/AOT_stimuli/pictures/1654_fw.png	193.48774695396423	
89	82.12557196617126	picture	0		94	87.0	/experiments/knapen_AOT/AOT_stimuli/pictures/0520_fw.png	193.50074696540833	0.7847559452056885
89	82.89661002159119	response	0	k		87.0	/experiments/knapen_AOT/AOT_stimuli/pictures/0520_fw.png	194.27178502082825	
90	82.91032791137695	picture	0		88	88.0	/experiments/knapen_AOT/AOT_stimuli/pictures/1774_fw.png	194.285502910614	0.7360498905181885
90	83.63763999938965	response	0	k		88.0	/experiments/knapen_AOT/AOT_stimuli/pictures/1774_fw.png	195.0128149986267	
91	83.64637780189514	picture	0		97	89.0	/experiments/knapen_AOT/AOT_stimuli/pictures/0796_fw.png	195.0215528011322	0.812615156173706
91	84.4459719657898	response	0	j		89.0	/experiments/knapen_AOT/AOT_stimuli/pictures/0796_fw.png	195.82114696502686	
92	84.45899295806885	picture	0		119	90.0	/experiments/knapen_AOT/AOT_stimuli/pictures/0281_fw.png	195.8341679573059	0.9930520057678223
92	85.43829989433289	response	0	j		90.0	/experiments/knapen_AOT/AOT_stimuli/pictures/0281_fw.png	196.81347489356995	
93	85.45204496383667	picture	0		99	91.0	/experiments/knapen_AOT/AOT_stimuli/pictures/1183_fw.png	196.82721996307373	0.8270950317382812
93	86.27157187461853	response	0	k		91.0	/experiments/knapen_AOT/AOT_stimuli/pictures/1183_fw.png	197.6467468738556	
94	86.27913999557495	picture	0		102	92.0	/experiments/knapen_AOT/AOT_stimuli/pictures/0422_fw.png	197.654314994812	0.8533937931060791
94	87.12101697921753	response	0	j		92.0	/experiments/knapen_AOT/AOT_stimuli/pictures/0422_fw.png	198.4961919784546	
95	87.13253378868103	picture	0		72	93.0	/experiments/knapen_AOT/AOT_stimuli/pictures/1047_fw.png	198.5077087879181	0.5973222255706787
95	87.72098898887634	response	0	j		93.0	/experiments/knapen_AOT/AOT_stimuli/pictures/1047_fw.png	199.0961639881134	
96	87.72985601425171	picture	0		73	94.0	/experiments/knapen_AOT/AOT_stimuli/pictures/1519_fw.png	199.10503101348877	0.6110579967498779
96	88.3293559551239	response	0	j		94.0	/experiments/knapen_AOT/AOT_stimuli/pictures/1519_fw.png	199.70453095436096	
97	88.34091401100159	picture	0		85	95.0	/experiments/knapen_AOT/AOT_stimuli/pictures/0594_fw.png	199.71608901023865	0.7083339691162109
97	89.03770399093628	response	0	k		95.0	/experiments/knapen_AOT/AOT_stimuli/pictures/0594_fw.png	200.41287899017334	
98	89.0492479801178	picture	0		103	96.0	/experiments/knapen_AOT/AOT_stimuli/pictures/0701_fw.png	200.42442297935486	0.8549599647521973
98	89.88927578926086	response	0	k		96.0	/experiments/knapen_AOT/AOT_stimuli/pictures/0701_fw.png	201.26445078849792	
99	89.90420794487	picture	0		79	97.0	/experiments/knapen_AOT/AOT_stimuli/pictures/0387_fw.png	201.27938294410706	0.6589229106903076
99	90.55435585975647	response	0	k		97.0	/experiments/knapen_AOT/AOT_stimuli/pictures/0387_fw.png	201.92953085899353	
100	90.5631308555603	picture	0		78	98.0	/experiments/knapen_AOT/AOT_stimuli/pictures/2021_fw.png	201.93830585479736	0.6528480052947998
100	91.20441794395447	response	0	k		98.0	/experiments/knapen_AOT/AOT_stimuli/pictures/2021_fw.png	202.57959294319153	
101	91.2159788608551	picture	0		81	99.0	/experiments/knapen_AOT/AOT_stimuli/pictures/0121_fw.png	202.59115386009216	0.6735761165618896
101	91.87268781661987	response	0	k		99.0	/experiments/knapen_AOT/AOT_stimuli/pictures/0121_fw.png	203.24786281585693	
102	91.88955497741699	picture	0		99	100.0	/experiments/knapen_AOT/AOT_stimuli/pictures/0985_fw.png	203.26472997665405	0.8263888359069824
102	92.7044198513031	response	0	j		100.0	/experiments/knapen_AOT/AOT_stimuli/pictures/0985_fw.png	204.07959485054016	
103	92.71594381332397	picture	0		81	101.0	/experiments/knapen_AOT/AOT_stimuli/pictures/1069_fw.png	204.09111881256104	0.7083280086517334
103	93.41279292106628	response	0	k		101.0	/experiments/knapen_AOT/AOT_stimuli/pictures/1069_fw.png	204.78796792030334	
104	93.42427182197571	picture	0		86	102.0	/experiments/knapen_AOT/AOT_stimuli/pictures/0290_fw.png	204.79944682121277	0.7153501510620117
104	94.12941980361938	response	0	j		102.0	/experiments/knapen_AOT/AOT_stimuli/pictures/0290_fw.png	205.50459480285645	
105	94.13962197303772	picture	0		110	103.0	/experiments/knapen_AOT/AOT_stimuli/pictures/1078_fw.png	205.51479697227478	0.9166538715362549
105	95.04612398147583	response	0	k		103.0	/experiments/knapen_AOT/AOT_stimuli/pictures/1078_fw.png	206.4212989807129	
106	95.05627584457397	picture	0		85	104.0	/experiments/knapen_AOT/AOT_stimuli/pictures/1773_fw.png	206.43145084381104	0.7082710266113281
106	95.7544629573822	response	0	j		104.0	/experiments/knapen_AOT/AOT_stimuli/pictures/1773_fw.png	207.12963795661926	
107	95.7645468711853	picture	0		95	105.0	/experiments/knapen_AOT/AOT_stimuli/pictures/0639_fw.png	207.13972187042236	0.791680097579956
107	96.54612183570862	response	0	k		105.0	/experiments/knapen_AOT/AOT_stimuli/pictures/0639_fw.png	207.92129683494568	
108	96.55622696876526	picture	0		80	106.0	/experiments/knapen_AOT/AOT_stimuli/pictures/1141_fw.png	207.93140196800232	0.6668288707733154
108	97.21278285980225	response	0	k		106.0	/experiments/knapen_AOT/AOT_stimuli/pictures/1141_fw.png	208.5879578590393	
109	97.22305583953857	picture	0		93	107.0	/experiments/knapen_AOT/AOT_stimuli/pictures/0423_fw.png	208.59823083877563	0.7777261734008789
109	97.98791098594666	response	0	k		107.0	/experiments/knapen_AOT/AOT_stimuli/pictures/0423_fw.png	209.36308598518372	
110	98.00078201293945	picture	0		128	108.0	/experiments/knapen_AOT/AOT_stimuli/pictures/1780_fw.png	209.3759570121765	1.0624737739562988
110	99.0544638633728	response	0	k		108.0	/experiments/knapen_AOT/AOT_stimuli/pictures/1780_fw.png	210.42963886260986	
111	99.06325578689575	picture	0		84	109.0	/experiments/knapen_AOT/AOT_stimuli/pictures/0579_fw.png	210.4384307861328	0.7014122009277344
111	99.754469871521	response	0	k		109.0	/experiments/knapen_AOT/AOT_stimuli/pictures/0579_fw.png	211.12964487075806	
112	99.76466798782349	picture	0		127	110.0	/experiments/knapen_AOT/AOT_stimuli/pictures/1129_fw.png	211.13984298706055	1.0625100135803223
112	100.81341290473938	response	0	j		110.0	/experiments/knapen_AOT/AOT_stimuli/pictures/1129_fw.png	212.18858790397644	
113	100.82717800140381	picture	0		75	111.0	/experiments/knapen_AOT/AOT_stimuli/pictures/1081_fw.png	212.20235300064087	0.6320040225982666
113	101.43991184234619	response	0	k		111.0	/experiments/knapen_AOT/AOT_stimuli/pictures/1081_fw.png	212.81508684158325	
114	101.45918202400208	picture	0		148	112.0	/experiments/knapen_AOT/AOT_stimuli/pictures/0668_fw.png	212.83435702323914	1.2290418148040771
114	102.6727728843689	response	0	j		112.0	/experiments/knapen_AOT/AOT_stimuli/pictures/0668_fw.png	214.04794788360596	
115	102.68822383880615	picture	0		71	113.0	/experiments/knapen_AOT/AOT_stimuli/pictures/1620_fw.png	214.0633988380432	0.5972270965576172
115	103.26435494422913	response	0	k		113.0	/experiments/knapen_AOT/AOT_stimuli/pictures/1620_fw.png	214.6395299434662	
116	103.28545093536377	picture	0		95	114.0	/experiments/knapen_AOT/AOT_stimuli/pictures/1531_fw.png	214.66062593460083	0.7987349033355713
116	104.06491780281067	response	0	j		114.0	/experiments/knapen_AOT/AOT_stimuli/pictures/1531_fw.png	215.44009280204773	
117	104.08418583869934	picture	0		109	115.0	/experiments/knapen_AOT/AOT_stimuli/pictures/1215_fw.png	215.4593608379364	0.9097340106964111
117	104.98012495040894	response	0	k		115.0	/experiments/knapen_AOT/AOT_stimuli/pictures/1215_fw.png	216.355299949646	
118	104.99391984939575	picture	0		86	116.0	/experiments/knapen_AOT/AOT_stimuli/pictures/1305_fw.png	216.3690948486328	0.7221431732177734
118	105.70459985733032	response	0	k		116.0	/experiments/knapen_AOT/AOT_stimuli/pictures/1305_fw.png	217.07977485656738	
119	105.71606302261353	picture	0		80	117.0	/experiments/knapen_AOT/AOT_stimuli/pictures/0502_fw.png	217.0912380218506	0.6666169166564941
119	106.37130379676819	response	0	j		117.0	/experiments/knapen_AOT/AOT_stimuli/pictures/0502_fw.png	217.74647879600525	
120	106.38267993927002	picture	0		93	118.0	/experiments/knapen_AOT/AOT_stimuli/pictures/1344_fw.png	217.75785493850708	0.7778890132904053
120	107.14678883552551	response	0	j		118.0	/experiments/knapen_AOT/AOT_stimuli/pictures/1344_fw.png	218.52196383476257	
121	107.16056895256042	picture	0		90	119.0	/experiments/knapen_AOT/AOT_stimuli/pictures/1670_fw.png	218.53574395179749	0.7568569183349609
121	107.90474581718445	response	0	j		119.0	/experiments/knapen_AOT/AOT_stimuli/pictures/1670_fw.png	219.2799208164215	
122	107.91742587089539	picture	0		117	120.0	/experiments/knapen_AOT/AOT_stimuli/pictures/0829_fw.png	219.29260087013245	0.972257137298584
122	108.87979388237	response	0	j		120.0	/experiments/knapen_AOT/AOT_stimuli/pictures/0829_fw.png	220.25496888160706	
123	108.88968300819397	picture	0		95	121.0	/experiments/knapen_AOT/AOT_stimuli/pictures/0943_fw.png	220.26485800743103	0.7916419506072998
123	109.66452693939209	response	0	k		121.0	/experiments/knapen_AOT/AOT_stimuli/pictures/0943_fw.png	221.03970193862915	
124	109.68132495880127	picture	0		130	122.0	/experiments/knapen_AOT/AOT_stimuli/pictures/1312_fw.png	221.05649995803833	1.0834519863128662
124	110.75466179847717	response	0	j		122.0	/experiments/knapen_AOT/AOT_stimuli/pictures/1312_fw.png	222.12983679771423	
125	110.76477694511414	picture	0		90	123.0	/experiments/knapen_AOT/AOT_stimuli/pictures/2036_fw.png	222.1399519443512	0.7499618530273438
125	111.50466394424438	response	0	k		123.0	/experiments/knapen_AOT/AOT_stimuli/pictures/2036_fw.png	222.87983894348145	
126	111.51473879814148	picture	0		97	124.0	/experiments/knapen_AOT/AOT_stimuli/pictures/0104_fw.png	222.88991379737854	0.8124580383300781
126	112.3136157989502	response	0	j		124.0	/experiments/knapen_AOT/AOT_stimuli/pictures/0104_fw.png	223.68879079818726	
127	112.32719683647156	picture	0		92	125.0	/experiments/knapen_AOT/AOT_stimuli/pictures/0485_fw.png	223.70237183570862	0.7708361148834229
127	113.08799600601196	response	0	j		125.0	/experiments/knapen_AOT/AOT_stimuli/pictures/0485_fw.png	224.46317100524902	
128	113.09803295135498	picture	0		94	126.0	/experiments/knapen_AOT/AOT_stimuli/pictures/0077_fw.png	224.47320795059204	0.7847838401794434
128	113.86475396156311	response	0	k		126.0	/experiments/knapen_AOT/AOT_stimuli/pictures/0077_fw.png	225.23992896080017	
129	113.88281679153442	picture	0		79	127.0	/experiments/knapen_AOT/AOT_stimuli/pictures/0507_fw.png	225.25799179077148	0.6596732139587402
129	114.52982497215271	response	0	k		127.0	/experiments/knapen_AOT/AOT_stimuli/pictures/0507_fw.png	225.90499997138977	
130	114.54249000549316	picture	0		70	128.0	/experiments/knapen_AOT/AOT_stimuli/pictures/0206_fw.png	225.91766500473022	0.5834038257598877
130	115.11303186416626	response	0	k		128.0	/experiments/knapen_AOT/AOT_stimuli/pictures/0206_fw.png	226.48820686340332	
131	115.12589383125305	picture	0		109	129.0	/experiments/knapen_AOT/AOT_stimuli/pictures/1621_fw.png	226.5010688304901	0.9097821712493896
131	116.0219898223877	response	0	j		129.0	/experiments/knapen_AOT/AOT_stimuli/pictures/1621_fw.png	227.39716482162476	
132	116.03567600250244	picture	0		87	130.0	/experiments/knapen_AOT/AOT_stimuli/pictures/1764_fw.png	227.4108510017395	0.7291398048400879
132	116.75474882125854	response	0	k		130.0	/experiments/knapen_AOT/AOT_stimuli/pictures/1764_fw.png	228.1299238204956	
133	116.76481580734253	picture	0		168	131.0	/experiments/knapen_AOT/AOT_stimuli/pictures/2060_fw.png	228.1399908065796	1.4026141166687012
133	118.15489196777344	response	0	j		131.0	/experiments/knapen_AOT/AOT_stimuli/pictures/2060_fw.png	229.5300669670105	
134	118.16742992401123	picture	0		83	132.0	/experiments/knapen_AOT/AOT_stimuli/pictures/1944_fw.png	229.5426049232483	0.6875669956207275
134	118.83960199356079	response	0	k		132.0	/experiments/knapen_AOT/AOT_stimuli/pictures/1944_fw.png	230.21477699279785	
135	118.85499691963196	picture	0		109	133.0	/experiments/knapen_AOT/AOT_stimuli/pictures/0743_fw.png	230.23017191886902	0.909761905670166
135	119.75476789474487	response	0	k		133.0	/experiments/knapen_AOT/AOT_stimuli/pictures/0743_fw.png	231.12994289398193	
136	119.76475882530212	picture	0		98	134.0	/experiments/knapen_AOT/AOT_stimuli/pictures/1170_fw.png	231.13993382453918	0.8194589614868164
136	120.57143688201904	response	0	k		134.0	/experiments/knapen_AOT/AOT_stimuli/pictures/1170_fw.png	231.9466118812561	
137	120.58421778678894	picture	0		88	135.0	/experiments/knapen_AOT/AOT_stimuli/pictures/0580_fw.png	231.959392786026	0.7291200160980225
137	121.30485081672668	response	0	j		135.0	/experiments/knapen_AOT/AOT_stimuli/pictures/0580_fw.png	232.68002581596375	
138	121.31333780288696	picture	0		93	136.0	/experiments/knapen_AOT/AOT_stimuli/pictures/0220_fw.png	232.68851280212402	0.7778401374816895
138	122.07978296279907	response	0	j		136.0	/experiments/knapen_AOT/AOT_stimuli/pictures/0220_fw.png	233.45495796203613	
139	122.09117794036865	picture	0		74	137.0	/experiments/knapen_AOT/AOT_stimuli/pictures/1592_fw.png	233.4663529396057	0.6180510520935059
139	122.69646286964417	response	0	k		137.0	/experiments/knapen_AOT/AOT_stimuli/pictures/1592_fw.png	234.07163786888123	
140	122.70922899246216	picture	0		94	138.0	/experiments/knapen_AOT/AOT_stimuli/pictures/0315_fw.png	234.08440399169922	0.7848308086395264
140	123.48016786575317	response	0	k		138.0	/experiments/knapen_AOT/AOT_stimuli/pictures/0315_fw.png	234.85534286499023	
141	123.49405980110168	picture	0		91	139.0	/experiments/knapen_AOT/AOT_stimuli/pictures/0221_fw.png	234.86923480033875	0.7638280391693115
141	124.23973178863525	response	0	j		139.0	/experiments/knapen_AOT/AOT_stimuli/pictures/0221_fw.png	235.61490678787231	
142	124.257887840271	picture	0		78	140.0	/experiments/knapen_AOT/AOT_stimuli/pictures/1103_fw.png	235.63306283950806	0.6804711818695068
142	124.92989993095398	response	0	k		140.0	/experiments/knapen_AOT/AOT_stimuli/pictures/1103_fw.png	236.30507493019104	
143	124.9383590221405	picture	0		113	141.0	/experiments/knapen_AOT/AOT_stimuli/pictures/1258_fw.png	236.31353402137756	0.9445319175720215
143	125.87152695655823	response	0	k		141.0	/experiments/knapen_AOT/AOT_stimuli/pictures/1258_fw.png	237.2467019557953	
144	125.88289093971252	picture	0		90	142.0	/experiments/knapen_AOT/AOT_stimuli/pictures/2154_fw.png	237.25806593894958	0.7552039623260498
144	126.62154293060303	response	0	j		142.0	/experiments/knapen_AOT/AOT_stimuli/pictures/2154_fw.png	237.9967179298401	
145	126.63809490203857	picture	0		82	143.0	/experiments/knapen_AOT/AOT_stimuli/pictures/1289_fw.png	238.01326990127563	0.6892030239105225
145	127.31355094909668	response	0	k		143.0	/experiments/knapen_AOT/AOT_stimuli/pictures/1289_fw.png	238.68872594833374	
146	127.3272979259491	picture	0		89	144.0	/experiments/knapen_AOT/AOT_stimuli/pictures/0194_fw.png	238.70247292518616	0.7500050067901611
146	128.06355381011963	response	0	j		144.0	/experiments/knapen_AOT/AOT_stimuli/pictures/0194_fw.png	239.4387288093567	
147	128.07730293273926	picture	0		84	145.0	/experiments/knapen_AOT/AOT_stimuli/pictures/1392_fw.png	239.45247793197632	0.7083249092102051
147	128.77187299728394	response	0	j		145.0	/experiments/knapen_AOT/AOT_stimuli/pictures/1392_fw.png	240.147047996521	
148	128.78562784194946	picture	0		82	146.0	/experiments/knapen_AOT/AOT_stimuli/pictures/1778_fw.png	240.16080284118652	0.6876111030578613
148	129.45642495155334	response	0	k		146.0	/experiments/knapen_AOT/AOT_stimuli/pictures/1778_fw.png	240.8315999507904	
149	129.47323894500732	picture	0		83	147.0	/experiments/knapen_AOT/AOT_stimuli/pictures/2144_fw.png	240.84841394424438	0.6944699287414551
149	130.1550488471985	response	0	j		147.0	/experiments/knapen_AOT/AOT_stimuli/pictures/2144_fw.png	241.53022384643555	
150	130.16770887374878	picture	0		111	148.0	/experiments/knapen_AOT/AOT_stimuli/pictures/1602_fw.png	241.54288387298584	0.9235551357269287
150	131.07993698120117	response	0	j		148.0	/experiments/knapen_AOT/AOT_stimuli/pictures/1602_fw.png	242.45511198043823	
151	131.0912640094757	picture	0		87	149.0	/experiments/knapen_AOT/AOT_stimuli/pictures/1507_fw.png	242.46643900871277	0.7221498489379883
151	131.80499386787415	response	0	k		149.0	/experiments/knapen_AOT/AOT_stimuli/pictures/1507_fw.png	243.1801688671112	
152	131.8134138584137	picture	0		115	150.0	/experiments/knapen_AOT/AOT_stimuli/pictures/1729_fw.png	243.18858885765076	0.9583899974822998
152	132.7633159160614	response	0	k		150.0	/experiments/knapen_AOT/AOT_stimuli/pictures/1729_fw.png	244.13849091529846	
153	132.771803855896	picture	0		103	151.0	/experiments/knapen_AOT/AOT_stimuli/pictures/1819_fw.png	244.14697885513306	0.8611500263214111
153	133.6216299533844	response	0	j		151.0	/experiments/knapen_AOT/AOT_stimuli/pictures/1819_fw.png	244.99680495262146	
154	133.6329538822174	picture	0		76	152.0	/experiments/knapen_AOT/AOT_stimuli/pictures/1917_fw.png	245.00812888145447	0.6319921016693115
154	134.25514793395996	response	0	k		152.0	/experiments/knapen_AOT/AOT_stimuli/pictures/1917_fw.png	245.63032293319702	
155	134.26494598388672	picture	0		83	153.0	/experiments/knapen_AOT/AOT_stimuli/pictures/0415_fw.png	245.64012098312378	0.6943819522857666
155	134.94674587249756	response	0	j		153.0	/experiments/knapen_AOT/AOT_stimuli/pictures/0415_fw.png	246.32192087173462	
156	134.95932793617249	picture	0		99	154.0	/experiments/knapen_AOT/AOT_stimuli/pictures/0860_fw.png	246.33450293540955	0.8264989852905273
156	135.77195382118225	response	0	j		154.0	/experiments/knapen_AOT/AOT_stimuli/pictures/0860_fw.png	247.1471288204193	
157	135.785826921463	picture	0		103	155.0	/experiments/knapen_AOT/AOT_stimuli/pictures/1826_fw.png	247.16100192070007	0.8609650135040283
157	136.63157296180725	response	0	j		155.0	/experiments/knapen_AOT/AOT_stimuli/pictures/1826_fw.png	248.0067479610443	
158	136.64679193496704	picture	0		88	156.0	/experiments/knapen_AOT/AOT_stimuli/pictures/1946_fw.png	248.0219669342041	0.7361900806427002
158	137.37168383598328	response	0	k		156.0	/experiments/knapen_AOT/AOT_stimuli/pictures/1946_fw.png	248.74685883522034	
159	137.38298201560974	picture	0		83	157.0	/experiments/knapen_AOT/AOT_stimuli/pictures/1066_fw.png	248.7581570148468	0.6968748569488525
159	138.06363797187805	response	0	k		157.0	/experiments/knapen_AOT/AOT_stimuli/pictures/1066_fw.png	249.4388129711151	
160	138.0798568725586	picture	0		122	158.0	/experiments/knapen_AOT/AOT_stimuli/pictures/1643_fw.png	249.45503187179565	1.0184390544891357
160	139.08834385871887	response	0	k		158.0	/experiments/knapen_AOT/AOT_stimuli/pictures/1643_fw.png	250.46351885795593	
161	139.09829592704773	picture	0		92	159.0	/experiments/knapen_AOT/AOT_stimuli/pictures/1588_fw.png	250.4734709262848	0.7709009647369385
161	139.85531401634216	response	0	k		159.0	/experiments/knapen_AOT/AOT_stimuli/pictures/1588_fw.png	251.23048901557922	
162	139.86919689178467	picture	0		345	160.0	/experiments/knapen_AOT/AOT_stimuli/pictures/1502_fw.png	251.24437189102173	2.881801128387451
162	142.73841190338135	response	0	j		160.0	/experiments/knapen_AOT/AOT_stimuli/pictures/1502_fw.png	254.1135869026184	
163	142.75099802017212	picture	0		92	161.0	/experiments/knapen_AOT/AOT_stimuli/pictures/0696_fw.png	254.12617301940918	0.7639827728271484
163	143.50511288642883	response	0	j		161.0	/experiments/knapen_AOT/AOT_stimuli/pictures/0696_fw.png	254.8802878856659	
164	143.51498079299927	picture	0		123	162.0	/experiments/knapen_AOT/AOT_stimuli/pictures/1615_fw.png	254.89015579223633	1.0278511047363281
164	144.53028202056885	response	0	k		162.0	/experiments/knapen_AOT/AOT_stimuli/pictures/1615_fw.png	255.9054570198059	
165	144.5428318977356	picture	0		117	163.0	/experiments/knapen_AOT/AOT_stimuli/pictures/2094_fw.png	255.91800689697266	0.9721341133117676
165	145.50513982772827	response	0	k		163.0	/experiments/knapen_AOT/AOT_stimuli/pictures/2094_fw.png	256.88031482696533	
166	145.51496601104736	picture	0		101	164.0	/experiments/knapen_AOT/AOT_stimuli/pictures/1116_fw.png	256.8901410102844	0.8402819633483887
166	146.3467938899994	response	0	j		164.0	/experiments/knapen_AOT/AOT_stimuli/pictures/1116_fw.png	257.72196888923645	
167	146.35524797439575	picture	0		87	165.0	/experiments/knapen_AOT/AOT_stimuli/pictures/1015_fw.png	257.7304229736328	0.7291820049285889
167	147.07189202308655	response	0	j		165.0	/experiments/knapen_AOT/AOT_stimuli/pictures/1015_fw.png	258.4470670223236	
168	147.08442997932434	picture	0		92	166.0	/experiments/knapen_AOT/AOT_stimuli/pictures/1399_fw.png	258.4596049785614	0.7638838291168213
168	147.83166980743408	response	0	k		166.0	/experiments/knapen_AOT/AOT_stimuli/pictures/1399_fw.png	259.20684480667114	
169	147.84831380844116	picture	0		102	167.0	/experiments/knapen_AOT/AOT_stimuli/pictures/2102_fw.png	259.2234888076782	0.8542129993438721
169	148.6887228488922	response	0	k		167.0	/experiments/knapen_AOT/AOT_stimuli/pictures/2102_fw.png	260.0638978481293	
170	148.70252680778503	picture	0		96	168.0	/experiments/knapen_AOT/AOT_stimuli/pictures/1303_fw.png	260.0777018070221	0.8055272102355957
170	149.49687790870667	response	0	k		168.0	/experiments/knapen_AOT/AOT_stimuli/pictures/1303_fw.png	260.8720529079437	
171	149.50805401802063	picture	0		108	169.0	/experiments/knapen_AOT/AOT_stimuli/pictures/1868_fw.png	260.8832290172577	0.9028348922729492
171	150.39706087112427	response	0	j		169.0	/experiments/knapen_AOT/AOT_stimuli/pictures/1868_fw.png	261.7722358703613	
172	150.41088891029358	picture	0		80	170.0	/experiments/knapen_AOT/AOT_stimuli/pictures/1591_fw.png	261.78606390953064	0.6735429763793945
172	151.0718560218811	response	0	j		170.0	/experiments/knapen_AOT/AOT_stimuli/pictures/1591_fw.png	262.44703102111816	
173	151.08443188667297	picture	0		85	171.0	/experiments/knapen_AOT/AOT_stimuli/pictures/1848_fw.png	262.45960688591003	0.7084529399871826
173	151.78034090995789	response	0	j		171.0	/experiments/knapen_AOT/AOT_stimuli/pictures/1848_fw.png	263.15551590919495	
174	151.79288482666016	picture	0		106	172.0	/experiments/knapen_AOT/AOT_stimuli/pictures/1091_fw.png	263.1680598258972	0.887253999710083
174	152.66356992721558	response	0	j		172.0	/experiments/knapen_AOT/AOT_stimuli/pictures/1091_fw.png	264.03874492645264	
175	152.68013882637024	picture	0		93	173.0	/experiments/knapen_AOT/AOT_stimuli/pictures/1051_fw.png	264.0553138256073	0.7793309688568115
175	153.44685697555542	response	0	k		173.0	/experiments/knapen_AOT/AOT_stimuli/pictures/1051_fw.png	264.8220319747925	
176	153.45946979522705	picture	0		88	174.0	/experiments/knapen_AOT/AOT_stimuli/pictures/0529_fw.png	264.8346447944641	0.7291171550750732
176	154.1802408695221	response	0	j		174.0	/experiments/knapen_AOT/AOT_stimuli/pictures/0529_fw.png	265.55541586875916	
177	154.18858695030212	picture	0		91	175.0	/experiments/knapen_AOT/AOT_stimuli/pictures/1886_fw.png	265.5637619495392	0.7639648914337158
177	154.9387698173523	response	0	j		175.0	/experiments/knapen_AOT/AOT_stimuli/pictures/1886_fw.png	266.31394481658936	
178	154.95255184173584	picture	0		89	176.0	/experiments/knapen_AOT/AOT_stimuli/pictures/1204_fw.png	266.3277268409729	0.7500481605529785
178	155.68876886367798	response	0	k		176.0	/experiments/knapen_AOT/AOT_stimuli/pictures/1204_fw.png	267.06394386291504	
179	155.70260000228882	picture	0		82	177.0	/experiments/knapen_AOT/AOT_stimuli/pictures/1642_fw.png	267.0777750015259	0.6875429153442383
179	156.38027095794678	response	0	k		177.0	/experiments/knapen_AOT/AOT_stimuli/pictures/1642_fw.png	267.75544595718384	
180	156.39014291763306	picture	0		89	178.0	/experiments/knapen_AOT/AOT_stimuli/pictures/0368_fw.png	267.7653179168701	0.7484009265899658
180	157.12190079689026	response	0	k		178.0	/experiments/knapen_AOT/AOT_stimuli/pictures/0368_fw.png	268.4970757961273	
181	157.13854384422302	picture	0		89	179.0	/experiments/knapen_AOT/AOT_stimuli/pictures/1595_fw.png	268.5137188434601	0.744549036026001
181	157.87194800376892	response	0	j		179.0	/experiments/knapen_AOT/AOT_stimuli/pictures/1595_fw.png	269.247123003006	
182	157.88309288024902	picture	0		77	180.0	/experiments/knapen_AOT/AOT_stimuli/pictures/2112_fw.png	269.2582678794861	0.6388900279998779
182	158.5137538909912	response	0	k		180.0	/experiments/knapen_AOT/AOT_stimuli/pictures/2112_fw.png	269.88892889022827	
183	158.5219829082489	picture	0		82	181.0	/experiments/knapen_AOT/AOT_stimuli/pictures/0336_fw.png	269.89715790748596	0.6876220703125
183	159.1905279159546	response	0	k		181.0	/experiments/knapen_AOT/AOT_stimuli/pictures/0336_fw.png	270.56570291519165	
184	159.2096049785614	picture	0		152	182.0	/experiments/knapen_AOT/AOT_stimuli/pictures/0052_fw.png	270.58477997779846	1.2638189792633057
184	160.46363282203674	response	0	j		182.0	/experiments/knapen_AOT/AOT_stimuli/pictures/0052_fw.png	271.8388078212738	
185	160.4734239578247	picture	0		85	183.0	/experiments/knapen_AOT/AOT_stimuli/pictures/1583_fw.png	271.84859895706177	0.7082960605621338
185	161.17204999923706	response	0	k		183.0	/experiments/knapen_AOT/AOT_stimuli/pictures/1583_fw.png	272.5472249984741	
186	161.18172001838684	picture	0		104	184.0	/experiments/knapen_AOT/AOT_stimuli/pictures/0753_fw.png	272.5568950176239	0.868107795715332
186	162.03865480422974	response	0	j		184.0	/experiments/knapen_AOT/AOT_stimuli/pictures/0753_fw.png	273.4138298034668	
187	162.04982781410217	picture	0		85	185.0	/experiments/knapen_AOT/AOT_stimuli/pictures/1504_fw.png	273.42500281333923	0.7430241107940674
187	162.78035688400269	response	0	k		185.0	/experiments/knapen_AOT/AOT_stimuli/pictures/1504_fw.png	274.15553188323975	
188	162.79285192489624	picture	0		107	186.0	/experiments/knapen_AOT/AOT_stimuli/pictures/1236_fw.png	274.1680269241333	0.8888859748840332
188	163.67209792137146	response	0	j		186.0	/experiments/knapen_AOT/AOT_stimuli/pictures/1236_fw.png	275.0472729206085	
189	163.68173789978027	picture	0		88	187.0	/experiments/knapen_AOT/AOT_stimuli/pictures/0307_fw.png	275.05691289901733	0.7361719608306885
189	164.39878702163696	response	0	k		187.0	/experiments/knapen_AOT/AOT_stimuli/pictures/0307_fw.png	275.773962020874	
190	164.41790986061096	picture	0		246	188.0	/experiments/knapen_AOT/AOT_stimuli/pictures/0803_fw.png	275.793084859848	2.0485119819641113
190	166.45538187026978	response	0	k		188.0	/experiments/knapen_AOT/AOT_stimuli/pictures/0803_fw.png	277.83055686950684	
191	166.46642184257507	picture	0		74	189.0	/experiments/knapen_AOT/AOT_stimuli/pictures/1421_fw.png	277.84159684181213	0.6182551383972168
191	167.0720739364624	response	0	k		189.0	/experiments/knapen_AOT/AOT_stimuli/pictures/1421_fw.png	278.44724893569946	
192	167.0846769809723	picture	0		118	190.0	/experiments/knapen_AOT/AOT_stimuli/pictures/1783_fw.png	278.45985198020935	0.9791529178619385
192	168.0553789138794	response	0	j		190.0	/experiments/knapen_AOT/AOT_stimuli/pictures/1783_fw.png	279.43055391311646	
193	168.06382989883423	picture	0		162	191.0	/experiments/knapen_AOT/AOT_stimuli/pictures/1142_fw.png	279.4390048980713	1.354017972946167
193	169.39869093894958	response	0	j		191.0	/experiments/knapen_AOT/AOT_stimuli/pictures/1142_fw.png	280.77386593818665	
194	169.4178478717804	picture	0		173	192.0	/experiments/knapen_AOT/AOT_stimuli/pictures/1246_fw.png	280.79302287101746	1.4374480247497559
194	170.84716296195984	response	0	j		192.0	/experiments/knapen_AOT/AOT_stimuli/pictures/1246_fw.png	282.2223379611969	
195	170.85529589653015	picture	0		107	193.0	/experiments/knapen_AOT/AOT_stimuli/pictures/1136_fw.png	282.2304708957672	0.9000329971313477
195	171.73893189430237	response	0	k		193.0	/experiments/knapen_AOT/AOT_stimuli/pictures/1136_fw.png	283.11410689353943	
196	171.7553288936615	picture	0		96	194.0	/experiments/knapen_AOT/AOT_stimuli/pictures/0545_fw.png	283.13050389289856	0.801659107208252
196	172.5471248626709	response	0	k		194.0	/experiments/knapen_AOT/AOT_stimuli/pictures/0545_fw.png	283.92229986190796	
197	172.55698800086975	picture	0		72	195.0	/experiments/knapen_AOT/AOT_stimuli/pictures/1637_fw.png	283.9321630001068	0.6040298938751221
197	173.1473298072815	response	0	k		195.0	/experiments/knapen_AOT/AOT_stimuli/pictures/1637_fw.png	284.52250480651855	
198	173.16101789474487	picture	0		91	196.0	/experiments/knapen_AOT/AOT_stimuli/pictures/2153_fw.png	284.53619289398193	0.7638919353485107
198	173.9137899875641	response	0	k		196.0	/experiments/knapen_AOT/AOT_stimuli/pictures/2153_fw.png	285.28896498680115	
199	173.92490983009338	picture	0		118	197.0	/experiments/knapen_AOT/AOT_stimuli/pictures/0826_fw.png	285.30008482933044	0.9861881732940674
199	174.8973548412323	response	0	j		197.0	/experiments/knapen_AOT/AOT_stimuli/pictures/0826_fw.png	286.27252984046936	
200	174.91109800338745	picture	0		83	198.0	/experiments/knapen_AOT/AOT_stimuli/pictures/0222_fw.png	286.2862730026245	0.6943478584289551
200	175.59045791625977	response	0	k		198.0	/experiments/knapen_AOT/AOT_stimuli/pictures/0222_fw.png	286.9656329154968	
201	175.6054458618164	picture	0		92	199.0	/experiments/knapen_AOT/AOT_stimuli/pictures/1445_fw.png	286.98062086105347	0.7708909511566162
201	176.3639829158783	response	0	k		199.0	/experiments/knapen_AOT/AOT_stimuli/pictures/1445_fw.png	287.73915791511536	
202	176.37633681297302	picture	0		109	200.0	/experiments/knapen_AOT/AOT_stimuli/pictures/1924_fw.png	287.7515118122101	0.9097840785980225
202	177.2723789215088	response	0	k		200.0	/experiments/knapen_AOT/AOT_stimuli/pictures/1924_fw.png	288.64755392074585	
203	177.28612089157104	picture	0		196	201.0	/experiments/knapen_AOT/AOT_stimuli/pictures/0894_fw.png	288.6612958908081	1.6387240886688232
203	178.91405582427979	response	0	k		201.0	/experiments/knapen_AOT/AOT_stimuli/pictures/0894_fw.png	290.28923082351685	
204	178.92484498023987	picture	0		79	202.0	/experiments/knapen_AOT/AOT_stimuli/pictures/2068_fw.png	290.30001997947693	0.6599388122558594
204	179.57226490974426	response	0	j		202.0	/experiments/knapen_AOT/AOT_stimuli/pictures/2068_fw.png	290.9474399089813	
205	179.58478379249573	picture	0		92	203.0	/experiments/knapen_AOT/AOT_stimuli/pictures/0590_fw.png	290.9599587917328	0.7638421058654785
205	180.3389389514923	response	0	k		203.0	/experiments/knapen_AOT/AOT_stimuli/pictures/0590_fw.png	291.71411395072937	
206	180.3486258983612	picture	0		96	204.0	/experiments/knapen_AOT/AOT_stimuli/pictures/0412_fw.png	291.72380089759827	0.7986030578613281
206	181.1389558315277	response	0	k		204.0	/experiments/knapen_AOT/AOT_stimuli/pictures/0412_fw.png	292.51413083076477	
207	181.14722895622253	picture	0		105	205.0	/experiments/knapen_AOT/AOT_stimuli/pictures/0884_fw.png	292.5224039554596	0.8748688697814941
207	182.01392793655396	response	0	k		205.0	/experiments/knapen_AOT/AOT_stimuli/pictures/0884_fw.png	293.389102935791	
208	182.02209782600403	picture	0		97	206.0	/experiments/knapen_AOT/AOT_stimuli/pictures/0566_fw.png	293.3972728252411	0.8126220703125
208	182.82241797447205	response	0	k		206.0	/experiments/knapen_AOT/AOT_stimuli/pictures/0566_fw.png	294.1975929737091	
209	182.83471989631653	picture	0		89	207.0	/experiments/knapen_AOT/AOT_stimuli/pictures/2050_fw.png	294.2098948955536	0.7457599639892578
209	183.56408596038818	response	0	j		207.0	/experiments/knapen_AOT/AOT_stimuli/pictures/2050_fw.png	294.93926095962524	
210	183.5804798603058	picture	0		105	208.0	/experiments/knapen_AOT/AOT_stimuli/pictures/1057_fw.png	294.95565485954285	0.8791501522064209
210	184.4473159313202	response	0	j		208.0	/experiments/knapen_AOT/AOT_stimuli/pictures/1057_fw.png	295.82249093055725	
211	184.4596300125122	picture	0		101	209.0	/experiments/knapen_AOT/AOT_stimuli/pictures/1686_fw.png	295.83480501174927	0.840324878692627
211	185.28912901878357	response	0	k		209.0	/experiments/knapen_AOT/AOT_stimuli/pictures/1686_fw.png	296.66430401802063	
212	185.29995489120483	picture	0		109	210.0	/experiments/knapen_AOT/AOT_stimuli/pictures/1706_fw.png	296.6751298904419	0.9096848964691162
212	186.19052386283875	response	0	k		210.0	/experiments/knapen_AOT/AOT_stimuli/pictures/1706_fw.png	297.5656988620758	
213	186.20963978767395	picture	0		112	211.0	/experiments/knapen_AOT/AOT_stimuli/pictures/1668_fw.png	297.584814786911	0.9305510520935059
213	187.1308479309082	response	0	k		211.0	/experiments/knapen_AOT/AOT_stimuli/pictures/1668_fw.png	298.50602293014526	
214	187.14019083976746	picture	0		85	212.0	/experiments/knapen_AOT/AOT_stimuli/pictures/0295_fw.png	298.5153658390045	0.7084779739379883
214	187.839035987854	response	0	k		212.0	/experiments/knapen_AOT/AOT_stimuli/pictures/0295_fw.png	299.21421098709106	
215	187.84866881370544	picture	0		73	213.0	/experiments/knapen_AOT/AOT_stimuli/pictures/0856_fw.png	299.2238438129425	0.6110391616821289
215	188.44736790657043	response	0	k		213.0	/experiments/knapen_AOT/AOT_stimuli/pictures/0856_fw.png	299.8225429058075	
216	188.45970797538757	picture	0		98	214.0	/experiments/knapen_AOT/AOT_stimuli/pictures/1916_fw.png	299.83488297462463	0.8124790191650391
216	189.26410484313965	response	0	k		214.0	/experiments/knapen_AOT/AOT_stimuli/pictures/1916_fw.png	300.6392798423767	
217	189.2721869945526	picture	0		91	215.0	/experiments/knapen_AOT/AOT_stimuli/pictures/1137_fw.png	300.6473619937897	0.7638728618621826
217	190.0223469734192	response	0	k		215.0	/experiments/knapen_AOT/AOT_stimuli/pictures/1137_fw.png	301.39752197265625	
218	190.0360598564148	picture	0		86	216.0	/experiments/knapen_AOT/AOT_stimuli/pictures/0048_fw.png	301.41123485565186	0.7222030162811279
218	190.74740982055664	response	0	j		216.0	/experiments/knapen_AOT/AOT_stimuli/pictures/0048_fw.png	302.1225848197937	
219	190.75826287269592	picture	0		91	217.0	/experiments/knapen_AOT/AOT_stimuli/pictures/1679_fw.png	302.133437871933	0.7569661140441895
219	191.50585389137268	response	0	k		217.0	/experiments/knapen_AOT/AOT_stimuli/pictures/1679_fw.png	302.88102889060974	
220	191.5152289867401	picture	0		146	218.0	/experiments/knapen_AOT/AOT_stimuli/pictures/2033_fw.png	302.8904039859772	1.2153749465942383
220	192.72242188453674	response	0	k		218.0	/experiments/knapen_AOT/AOT_stimuli/pictures/2033_fw.png	304.0975968837738	
221	192.73060393333435	picture	0		174	219.0	/experiments/knapen_AOT/AOT_stimuli/pictures/0364_fw.png	304.1057789325714	1.4515149593353271
221	194.16582083702087	response	0	k		219.0	/experiments/knapen_AOT/AOT_stimuli/pictures/0364_fw.png	305.54099583625793	
222	194.18211889266968	picture	0		95	220.0	/experiments/knapen_AOT/AOT_stimuli/pictures/0821_fw.png	305.55729389190674	0.7916641235351562
222	194.9574408531189	response	0	j		220.0	/experiments/knapen_AOT/AOT_stimuli/pictures/0821_fw.png	306.33261585235596	
223	194.97378301620483	picture	0		170	221.0	/experiments/knapen_AOT/AOT_stimuli/pictures/0548_fw.png	306.3489580154419	1.4319448471069336
223	196.37400197982788	response	0	k		221.0	/experiments/knapen_AOT/AOT_stimuli/pictures/0548_fw.png	307.74917697906494	
224	196.40572786331177	picture	0		82	222.0	/experiments/knapen_AOT/AOT_stimuli/pictures/0604_fw.png	307.7809028625488	0.6859490871429443
224	197.0809199810028	response	0	k		222.0	/experiments/knapen_AOT/AOT_stimuli/pictures/0604_fw.png	308.45609498023987	
225	197.0916769504547	picture	0		70	223.0	/experiments/knapen_AOT/AOT_stimuli/pictures/0417_fw.png	308.4668519496918	0.5833230018615723
225	197.6641869544983	response	0	k		223.0	/experiments/knapen_AOT/AOT_stimuli/pictures/0417_fw.png	309.03936195373535	
226	197.67499995231628	picture	0		112	224.0	/experiments/knapen_AOT/AOT_stimuli/pictures/1590_fw.png	309.05017495155334	0.9390828609466553
226	198.59757089614868	response	0	k		224.0	/experiments/knapen_AOT/AOT_stimuli/pictures/1590_fw.png	309.97274589538574	
227	198.61408281326294	picture	0		94	225.0	/experiments/knapen_AOT/AOT_stimuli/pictures/1226_fw.png	309.9892578125	0.7916040420532227
227	199.38246178627014	response	0	j		225.0	/experiments/knapen_AOT/AOT_stimuli/pictures/1226_fw.png	310.7576367855072	
228	199.40568685531616	picture	0		80	226.0	/experiments/knapen_AOT/AOT_stimuli/pictures/1972_fw.png	310.7808618545532	0.6721401214599609
228	200.06418681144714	response	0	j		226.0	/experiments/knapen_AOT/AOT_stimuli/pictures/1972_fw.png	311.4393618106842	
229	200.07782697677612	picture	0		127	227.0	/experiments/knapen_AOT/AOT_stimuli/pictures/0846_fw.png	311.4530019760132	1.069605827331543
229	201.13105297088623	response	0	k		227.0	/experiments/knapen_AOT/AOT_stimuli/pictures/0846_fw.png	312.5062279701233	
230	201.14743280410767	picture	0		99	228.0	/experiments/knapen_AOT/AOT_stimuli/pictures/0576_fw.png	312.5226078033447	0.8263411521911621
230	201.95745396614075	response	0	j		228.0	/experiments/knapen_AOT/AOT_stimuli/pictures/0576_fw.png	313.3326289653778	
231	201.97377395629883	picture	0		123	229.0	/experiments/knapen_AOT/AOT_stimuli/pictures/2007_fw.png	313.3489489555359	1.0276620388031006
231	202.98241686820984	response	0	j		229.0	/experiments/knapen_AOT/AOT_stimuli/pictures/2007_fw.png	314.3575918674469	
232	203.00143599510193	picture	0		86	230.0	/experiments/knapen_AOT/AOT_stimuli/pictures/1804_fw.png	314.376610994339	0.7153120040893555
232	203.70593690872192	response	0	j		230.0	/experiments/knapen_AOT/AOT_stimuli/pictures/1804_fw.png	315.081111907959	
233	203.71674799919128	picture	0		114	231.0	/experiments/knapen_AOT/AOT_stimuli/pictures/1430_fw.png	315.09192299842834	0.9513638019561768
233	204.6559510231018	response	0	j		231.0	/experiments/knapen_AOT/AOT_stimuli/pictures/1430_fw.png	316.03112602233887	
234	204.66811180114746	picture	0		186	232.0	/experiments/knapen_AOT/AOT_stimuli/pictures/1473_fw.png	316.0432868003845	1.5833520889282227
234	206.23938488960266	response	0	k		232.0	/experiments/knapen_AOT/AOT_stimuli/pictures/1473_fw.png	317.6145598888397	
235	206.25146389007568	picture	0		94	233.0	/experiments/knapen_AOT/AOT_stimuli/pictures/1835_fw.png	317.62663888931274	0.7847321033477783
235	207.0225977897644	response	0	k		233.0	/experiments/knapen_AOT/AOT_stimuli/pictures/1835_fw.png	318.39777278900146	
236	207.03619599342346	picture	0		83	234.0	/experiments/knapen_AOT/AOT_stimuli/pictures/0767_fw.png	318.4113709926605	0.694584846496582
236	207.72268080711365	response	0	k		234.0	/experiments/knapen_AOT/AOT_stimuli/pictures/0767_fw.png	319.0978558063507	
237	207.73078083992004	picture	0		106	235.0	/experiments/knapen_AOT/AOT_stimuli/pictures/2100_fw.png	319.1059558391571	0.8916831016540527
237	208.60594487190247	response	0	k		235.0	/experiments/knapen_AOT/AOT_stimuli/pictures/2100_fw.png	319.9811198711395	
238	208.6224639415741	picture	0		81	236.0	/experiments/knapen_AOT/AOT_stimuli/pictures/0702_fw.png	319.99763894081116	0.6776158809661865
238	209.2894308567047	response	0	k		236.0	/experiments/knapen_AOT/AOT_stimuli/pictures/0702_fw.png	320.6646058559418	
239	209.30007982254028	picture	0		137	237.0	/experiments/knapen_AOT/AOT_stimuli/pictures/2046_fw.png	320.67525482177734	1.1390671730041504
239	210.43114495277405	response	0	k		237.0	/experiments/knapen_AOT/AOT_stimuli/pictures/2046_fw.png	321.8063199520111	
240	210.43914699554443	picture	0		82	238.0	/experiments/knapen_AOT/AOT_stimuli/pictures/0184_fw.png	321.8143219947815	0.6873948574066162
240	211.1144859790802	response	0	k		238.0	/experiments/knapen_AOT/AOT_stimuli/pictures/0184_fw.png	322.48966097831726	
241	211.12654185295105	picture	0		73	239.0	/experiments/knapen_AOT/AOT_stimuli/pictures/1213_fw.png	322.5017168521881	0.6042759418487549
241	211.72272491455078	response	0	k		239.0	/experiments/knapen_AOT/AOT_stimuli/pictures/1213_fw.png	323.09789991378784	
242	211.7308177947998	picture	0		102	240.0	/experiments/knapen_AOT/AOT_stimuli/pictures/0053_fw.png	323.10599279403687	0.8540530204772949
242	212.5658688545227	response	0	j		240.0	/experiments/knapen_AOT/AOT_stimuli/pictures/0053_fw.png	323.94104385375977	
243	212.5848708152771	picture	0		103	241.0	/experiments/knapen_AOT/AOT_stimuli/pictures/0921_fw.png	323.96004581451416	0.8626830577850342
243	213.43124198913574	response	0	j		241.0	/experiments/knapen_AOT/AOT_stimuli/pictures/0921_fw.png	324.8064169883728	
244	213.44755387306213	picture	0		75	242.0	/experiments/knapen_AOT/AOT_stimuli/pictures/1075_fw.png	324.8227288722992	0.6303889751434326
244	214.06433582305908	response	0	k		242.0	/experiments/knapen_AOT/AOT_stimuli/pictures/1075_fw.png	325.43951082229614	
245	214.07794284820557	picture	0		77	243.0	/experiments/knapen_AOT/AOT_stimuli/pictures/1491_fw.png	325.4531178474426	0.6458370685577393
245	214.7145118713379	response	0	k		243.0	/experiments/knapen_AOT/AOT_stimuli/pictures/1491_fw.png	326.08968687057495	
246	214.7237799167633	picture	0		88	244.0	/experiments/knapen_AOT/AOT_stimuli/pictures/0934_fw.png	326.09895491600037	0.7404570579528809
246	215.44775891304016	response	0	k		244.0	/experiments/knapen_AOT/AOT_stimuli/pictures/0934_fw.png	326.8229339122772	
247	215.4642369747162	picture	0		113	245.0	/experiments/knapen_AOT/AOT_stimuli/pictures/1396_fw.png	326.83941197395325	0.9470329284667969
247	216.39770793914795	response	0	k		245.0	/experiments/knapen_AOT/AOT_stimuli/pictures/1396_fw.png	327.772882938385	
248	216.41126990318298	picture	0		172	246.0	/experiments/knapen_AOT/AOT_stimuli/pictures/1604_fw.png	327.78644490242004	1.4375219345092773
248	217.83945894241333	response	0	j		246.0	/experiments/knapen_AOT/AOT_stimuli/pictures/1604_fw.png	329.2146339416504	
249	217.84879183769226	picture	0		91	247.0	/experiments/knapen_AOT/AOT_stimuli/pictures/1083_fw.png	329.2239668369293	0.7654709815979004
249	218.5978000164032	response	0	j		247.0	/experiments/knapen_AOT/AOT_stimuli/pictures/1083_fw.png	329.97297501564026	
250	218.61426281929016	picture	0		84	248.0	/experiments/knapen_AOT/AOT_stimuli/pictures/1546_fw.png	329.9894378185272	0.6999931335449219
250	219.30622386932373	response	0	k		248.0	/experiments/knapen_AOT/AOT_stimuli/pictures/1546_fw.png	330.6813988685608	
251	219.31425595283508	picture	0		90	249.0	/experiments/knapen_AOT/AOT_stimuli/pictures/0689_fw.png	330.68943095207214	0.7500078678131104
251	220.05627489089966	response	0	j		249.0	/experiments/knapen_AOT/AOT_stimuli/pictures/0689_fw.png	331.4314498901367	
252	220.0642638206482	picture	0		106	250.0	/experiments/knapen_AOT/AOT_stimuli/pictures/0181_fw.png	331.43943881988525	0.8887131214141846
252	220.93944096565247	response	0	j		250.0	/experiments/knapen_AOT/AOT_stimuli/pictures/0181_fw.png	332.3146159648895	
253	220.95297694206238	picture	0		97	251.0	/experiments/knapen_AOT/AOT_stimuli/pictures/1847_fw.png	332.32815194129944	0.8126349449157715
253	221.7493770122528	response	0	k		251.0	/experiments/knapen_AOT/AOT_stimuli/pictures/1847_fw.png	333.12455201148987	
254	221.76561188697815	picture	0		99	252.0	/experiments/knapen_AOT/AOT_stimuli/pictures/0623_fw.png	333.1407868862152	0.8262920379638672
254	222.58118796348572	response	0	k		252.0	/experiments/knapen_AOT/AOT_stimuli/pictures/0623_fw.png	333.9563629627228	
255	222.59190392494202	picture	0		77	253.0	/experiments/knapen_AOT/AOT_stimuli/pictures/1453_fw.png	333.9670789241791	0.6474630832672119
255	223.22289085388184	response	0	k		253.0	/experiments/knapen_AOT/AOT_stimuli/pictures/1453_fw.png	334.5980658531189	
256	223.23936700820923	picture	0		82	254.0	/experiments/knapen_AOT/AOT_stimuli/pictures/1912_fw.png	334.6145420074463	0.6858668327331543
256	223.9146478176117	response	0	j		254.0	/experiments/knapen_AOT/AOT_stimuli/pictures/1912_fw.png	335.28982281684875	
257	223.92523384094238	picture	0		123	255.0	/experiments/knapen_AOT/AOT_stimuli/pictures/1723_fw.png	335.30040884017944	1.0277881622314453
257	224.9327609539032	response	0	j		255.0	/experiments/knapen_AOT/AOT_stimuli/pictures/1723_fw.png	336.30793595314026	
258	224.95302200317383	picture	0		120	256.0	/experiments/knapen_AOT/AOT_stimuli/pictures/1426_fw.png	336.3281970024109	1.0069668292999268
258	225.94102883338928	response	0	k		256.0	/experiments/knapen_AOT/AOT_stimuli/pictures/1426_fw.png	337.31620383262634	
259	225.95998883247375	picture	0		100	257.0	/experiments/knapen_AOT/AOT_stimuli/pictures/1044_fw.png	337.3351638317108	0.8332991600036621
259	226.78135800361633	response	0	k		257.0	/experiments/knapen_AOT/AOT_stimuli/pictures/1044_fw.png	338.1565330028534	
260	226.79328799247742	picture	0		88	258.0	/experiments/knapen_AOT/AOT_stimuli/pictures/0968_fw.png	338.1684629917145	0.7294249534606934
260	227.51459097862244	response	0	k		258.0	/experiments/knapen_AOT/AOT_stimuli/pictures/0968_fw.png	338.8897659778595	
261	227.5227129459381	picture	0		102	259.0	/experiments/knapen_AOT/AOT_stimuli/pictures/1660_fw.png	338.89788794517517	0.85400390625
261	228.35783791542053	response	0	k		259.0	/experiments/knapen_AOT/AOT_stimuli/pictures/1660_fw.png	339.7330129146576	
262	228.3767168521881	picture	0		88	260.0	/experiments/knapen_AOT/AOT_stimuli/pictures/0582_fw.png	339.75189185142517	0.729356050491333
262	229.09799790382385	response	0	j		260.0	/experiments/knapen_AOT/AOT_stimuli/pictures/0582_fw.png	340.4731729030609	
263	229.10607290267944	picture	0		83	261.0	/experiments/knapen_AOT/AOT_stimuli/pictures/0642_fw.png	340.4812479019165	0.694180965423584
263	229.78962182998657	response	0	k		261.0	/experiments/knapen_AOT/AOT_stimuli/pictures/0642_fw.png	341.16479682922363	
264	229.80025386810303	picture	0		144	262.0	/experiments/knapen_AOT/AOT_stimuli/pictures/0435_fw.png	341.1754288673401	1.2014529705047607
264	230.98976302146912	response	0	j		262.0	/experiments/knapen_AOT/AOT_stimuli/pictures/0435_fw.png	342.3649380207062	
265	231.0017068386078	picture	0		109	263.0	/experiments/knapen_AOT/AOT_stimuli/pictures/0864_fw.png	342.37688183784485	0.9097261428833008
265	231.89793395996094	response	0	k		263.0	/experiments/knapen_AOT/AOT_stimuli/pictures/0864_fw.png	343.273108959198	
266	231.9114329814911	picture	0		115	264.0	/experiments/knapen_AOT/AOT_stimuli/pictures/1452_fw.png	343.28660798072815	0.9652359485626221
266	232.8647599220276	response	0	k		264.0	/experiments/knapen_AOT/AOT_stimuli/pictures/1452_fw.png	344.23993492126465	
267	232.8766689300537	picture	0		133	265.0	/experiments/knapen_AOT/AOT_stimuli/pictures/0472_fw.png	344.25184392929077	1.1128859519958496
267	233.9730110168457	response	0	j		265.0	/experiments/knapen_AOT/AOT_stimuli/pictures/0472_fw.png	345.34818601608276	
268	233.98955488204956	picture	0		100	266.0	/experiments/knapen_AOT/AOT_stimuli/pictures/2040_fw.png	345.3647298812866	0.8416650295257568
268	234.8146150112152	response	0	k		266.0	/experiments/knapen_AOT/AOT_stimuli/pictures/2040_fw.png	346.18979001045227	
269	234.83121991157532	picture	0		126	267.0	/experiments/knapen_AOT/AOT_stimuli/pictures/0416_fw.png	346.2063949108124	1.052448034286499
269	235.87303495407104	response	0	k		267.0	/experiments/knapen_AOT/AOT_stimuli/pictures/0416_fw.png	347.2482099533081	
270	235.88366794586182	picture	0		106	268.0	/experiments/knapen_AOT/AOT_stimuli/pictures/0348_fw.png	347.2588429450989	0.8820688724517822
270	236.7496838569641	response	0	k		268.0	/experiments/knapen_AOT/AOT_stimuli/pictures/0348_fw.png	348.1248588562012	
271	236.7657368183136	picture	0		87	269.0	/experiments/knapen_AOT/AOT_stimuli/pictures/0244_fw.png	348.14091181755066	0.7290520668029785
271	237.48133397102356	response	0	j		269.0	/experiments/knapen_AOT/AOT_stimuli/pictures/0244_fw.png	348.8565089702606	
272	237.49478888511658	picture	0		94	270.0	/experiments/knapen_AOT/AOT_stimuli/pictures/1082_fw.png	348.86996388435364	0.7917840480804443
272	238.27300095558167	response	0	k		270.0	/experiments/knapen_AOT/AOT_stimuli/pictures/1082_fw.png	349.6481759548187	
273	238.28657293319702	picture	0		80	271.0	/experiments/knapen_AOT/AOT_stimuli/pictures/0706_fw.png	349.6617479324341	0.673508882522583
273	238.9414029121399	response	0	k		271.0	/experiments/knapen_AOT/AOT_stimuli/pictures/0706_fw.png	350.31657791137695	
274	238.9600818157196	picture	0		143	272.0	/experiments/knapen_AOT/AOT_stimuli/pictures/1299_fw.png	350.33525681495667	1.19441819190979
274	240.13315987586975	response	0	j		272.0	/experiments/knapen_AOT/AOT_stimuli/pictures/1299_fw.png	351.5083348751068	
275	240.1545000076294	picture	0		98	273.0	/experiments/knapen_AOT/AOT_stimuli/pictures/1710_fw.png	351.52967500686646	0.8195469379425049
275	240.96471691131592	response	0	j		273.0	/experiments/knapen_AOT/AOT_stimuli/pictures/1710_fw.png	352.339891910553	
276	240.9740469455719	picture	0		109	274.0	/experiments/knapen_AOT/AOT_stimuli/pictures/1536_fw.png	352.34922194480896	0.9096949100494385
276	241.87318897247314	response	0	k		274.0	/experiments/knapen_AOT/AOT_stimuli/pictures/1536_fw.png	353.2483639717102	
277	241.88374185562134	picture	0		80	275.0	/experiments/knapen_AOT/AOT_stimuli/pictures/1208_fw.png	353.2589168548584	0.6666290760040283
277	242.53293895721436	response	0	k		275.0	/experiments/knapen_AOT/AOT_stimuli/pictures/1208_fw.png	353.9081139564514	
278	242.55037093162537	picture	0		84	276.0	/experiments/knapen_AOT/AOT_stimuli/pictures/0271_fw.png	353.9255459308624	0.7014350891113281
278	243.2398669719696	response	0	j		276.0	/experiments/knapen_AOT/AOT_stimuli/pictures/0271_fw.png	354.61504197120667	
279	243.2518060207367	picture	0		89	277.0	/experiments/knapen_AOT/AOT_stimuli/pictures/1613_fw.png	354.62698101997375	0.7461338043212891
279	243.9815549850464	response	0	j		277.0	/experiments/knapen_AOT/AOT_stimuli/pictures/1613_fw.png	355.35672998428345	
280	243.99793982505798	picture	0		103	278.0	/experiments/knapen_AOT/AOT_stimuli/pictures/1822_fw.png	355.37311482429504	0.9000141620635986
280	244.88148093223572	response	0	j		278.0	/experiments/knapen_AOT/AOT_stimuli/pictures/1822_fw.png	356.2566559314728	
281	244.89795398712158	picture	0		94	279.0	/experiments/knapen_AOT/AOT_stimuli/pictures/0635_fw.png	356.27312898635864	0.7844038009643555
281	245.67321300506592	response	0	j		279.0	/experiments/knapen_AOT/AOT_stimuli/pictures/0635_fw.png	357.048388004303	
282	245.68235778808594	picture	0		90	280.0	/experiments/knapen_AOT/AOT_stimuli/pictures/2037_fw.png	357.057532787323	0.7501170635223389
282	246.42322301864624	response	0	k		280.0	/experiments/knapen_AOT/AOT_stimuli/pictures/2037_fw.png	357.7983980178833	
283	246.43247485160828	picture	0		144	281.0	/experiments/knapen_AOT/AOT_stimuli/pictures/1192_fw.png	357.80764985084534	1.2013280391693115
283	247.62328100204468	response	0	j		281.0	/experiments/knapen_AOT/AOT_stimuli/pictures/1192_fw.png	358.99845600128174	
284	247.6338028907776	picture	0		95	282.0	/experiments/knapen_AOT/AOT_stimuli/pictures/1187_fw.png	359.00897789001465	0.791611909866333
284	248.41496181488037	response	0	k		282.0	/experiments/knapen_AOT/AOT_stimuli/pictures/1187_fw.png	359.79013681411743	
285	248.42541480064392	picture	0		104	283.0	/experiments/knapen_AOT/AOT_stimuli/pictures/0597_fw.png	359.800589799881	0.8680551052093506
285	249.28149580955505	response	0	k		283.0	/experiments/knapen_AOT/AOT_stimuli/pictures/0597_fw.png	360.6566708087921	
286	249.29346990585327	picture	0		102	284.0	/experiments/knapen_AOT/AOT_stimuli/pictures/0990_fw.png	360.66864490509033	0.8545780181884766
286	250.12480878829956	response	0	j		284.0	/experiments/knapen_AOT/AOT_stimuli/pictures/0990_fw.png	361.4999837875366	
287	250.14804792404175	picture	0		165	285.0	/experiments/knapen_AOT/AOT_stimuli/pictures/1820_fw.png	361.5232229232788	1.3751070499420166
287	251.50814986228943	response	0	k		285.0	/experiments/knapen_AOT/AOT_stimuli/pictures/1820_fw.png	362.8833248615265	
288	251.52315497398376	picture	0		81	286.0	/experiments/knapen_AOT/AOT_stimuli/pictures/0764_fw.png	362.8983299732208	0.6832640171051025
288	252.1900589466095	response	0	j		286.0	/experiments/knapen_AOT/AOT_stimuli/pictures/0764_fw.png	363.56523394584656	
289	252.20641899108887	picture	0		195	287.0	/experiments/knapen_AOT/AOT_stimuli/pictures/1377_fw.png	363.5815939903259	1.628767967224121
289	253.8233518600464	response	0	k		287.0	/experiments/knapen_AOT/AOT_stimuli/pictures/1377_fw.png	365.19852685928345	
290	253.835186958313	picture	0		219	288.0	/experiments/knapen_AOT/AOT_stimuli/pictures/0658_fw.png	365.21036195755005	1.8264410495758057
290	255.6483337879181	response	0	j		288.0	/experiments/knapen_AOT/AOT_stimuli/pictures/0658_fw.png	367.02350878715515	
291	255.6616280078888	picture	0		91	289.0	/experiments/knapen_AOT/AOT_stimuli/pictures/1624_fw.png	367.03680300712585	0.7640128135681152
291	256.41513681411743	response	0	k		289.0	/experiments/knapen_AOT/AOT_stimuli/pictures/1624_fw.png	367.7903118133545	
292	256.4256408214569	picture	0		87	290.0	/experiments/knapen_AOT/AOT_stimuli/pictures/1964_fw.png	367.80081582069397	0.7225301265716553
292	257.1399338245392	response	0	k		290.0	/experiments/knapen_AOT/AOT_stimuli/pictures/1964_fw.png	368.51510882377625	
293	257.14817094802856	picture	0		81	291.0	/experiments/knapen_AOT/AOT_stimuli/pictures/0284_fw.png	368.5233459472656	0.6800918579101562
293	257.8151009082794	response	0	j		291.0	/experiments/knapen_AOT/AOT_stimuli/pictures/0284_fw.png	369.1902759075165	
294	257.8282628059387	picture	0		79	292.0	/experiments/knapen_AOT/AOT_stimuli/pictures/1216_fw.png	369.2034378051758	0.6667170524597168
294	258.48168182373047	response	0	j		292.0	/experiments/knapen_AOT/AOT_stimuli/pictures/1216_fw.png	369.85685682296753	
295	258.49497985839844	picture	0		84	293.0	/experiments/knapen_AOT/AOT_stimuli/pictures/1876_fw.png	369.8701548576355	0.7083280086517334
295	259.1900939941406	response	0	j		293.0	/experiments/knapen_AOT/AOT_stimuli/pictures/1876_fw.png	370.5652689933777	
296	259.20330786705017	picture	0		99	294.0	/experiments/knapen_AOT/AOT_stimuli/pictures/0638_fw.png	370.57848286628723	0.8333230018615723
296	260.02334785461426	response	0	k		294.0	/experiments/knapen_AOT/AOT_stimuli/pictures/0638_fw.png	371.3985228538513	
297	260.03663086891174	picture	0		84	295.0	/experiments/knapen_AOT/AOT_stimuli/pictures/1844_fw.png	371.4118058681488	0.7083151340484619
297	260.7248659133911	response	0	k		295.0	/experiments/knapen_AOT/AOT_stimuli/pictures/1844_fw.png	372.1000409126282	
298	260.7449460029602	picture	0		79	296.0	/experiments/knapen_AOT/AOT_stimuli/pictures/2148_fw.png	372.12012100219727	0.6699368953704834
298	261.3984389305115	response	0	j		296.0	/experiments/knapen_AOT/AOT_stimuli/pictures/2148_fw.png	372.77361392974854	
299	261.4148828983307	picture	0		72	297.0	/experiments/knapen_AOT/AOT_stimuli/pictures/1276_fw.png	372.79005789756775	0.6082921028137207
299	262.00674295425415	response	0	k		297.0	/experiments/knapen_AOT/AOT_stimuli/pictures/1276_fw.png	373.3819179534912	
300	262.0231750011444	picture	0		100	298.0	/experiments/knapen_AOT/AOT_stimuli/pictures/1725_fw.png	373.39835000038147	0.8417379856109619
300	262.8484888076782	response	0	k		298.0	/experiments/knapen_AOT/AOT_stimuli/pictures/1725_fw.png	374.2236638069153	
301	262.86491298675537	picture	0		81	299.0	/experiments/knapen_AOT/AOT_stimuli/pictures/0488_fw.png	374.24008798599243	0.6786818504333496
301	263.52499198913574	response	0	j		299.0	/experiments/knapen_AOT/AOT_stimuli/pictures/0488_fw.png	374.9001669883728	
302	263.5435948371887	picture	0		85	300.0	/experiments/knapen_AOT/AOT_stimuli/pictures/0114_fw.png	374.9187698364258	0.7083780765533447
302	264.24016785621643	response	0	k		300.0	/experiments/knapen_AOT/AOT_stimuli/pictures/0114_fw.png	375.6153428554535	
303	264.25197291374207	picture	0		146	301.0	/experiments/knapen_AOT/AOT_stimuli/pictures/1701_fw.png	375.6271479129791	1.2212789058685303
303	265.456748008728	response	0	j		301.0	/experiments/knapen_AOT/AOT_stimuli/pictures/1701_fw.png	376.8319230079651	
304	265.4732518196106	picture	0		93	302.0	/experiments/knapen_AOT/AOT_stimuli/pictures/2076_fw.png	376.84842681884766	0.7786920070648193
304	266.24016785621643	response	0	k		302.0	/experiments/knapen_AOT/AOT_stimuli/pictures/2076_fw.png	377.6153428554535	
305	266.2519438266754	picture	0		83	303.0	/experiments/knapen_AOT/AOT_stimuli/pictures/1250_fw.png	377.6271188259125	0.6963300704956055
305	266.9317259788513	response	0	k		303.0	/experiments/knapen_AOT/AOT_stimuli/pictures/1250_fw.png	378.3069009780884	
306	266.948273897171	picture	0		79	304.0	/experiments/knapen_AOT/AOT_stimuli/pictures/1000_fw.png	378.3234488964081	0.6667060852050781
306	267.5984959602356	response	0	k		304.0	/experiments/knapen_AOT/AOT_stimuli/pictures/1000_fw.png	378.97367095947266	
307	267.6149799823761	picture	0		95	305.0	/experiments/knapen_AOT/AOT_stimuli/pictures/1282_fw.png	378.99015498161316	0.7967209815979004
307	268.3985228538513	response	0	k		305.0	/experiments/knapen_AOT/AOT_stimuli/pictures/1282_fw.png	379.7736978530884	
308	268.411700963974	picture	0		95	306.0	/experiments/knapen_AOT/AOT_stimuli/pictures/1111_fw.png	379.78687596321106	0.7985999584197998
308	269.1985909938812	response	0	j		306.0	/experiments/knapen_AOT/AOT_stimuli/pictures/1111_fw.png	380.5737659931183	
309	269.2103009223938	picture	0		83	307.0	/experiments/knapen_AOT/AOT_stimuli/pictures/0659_fw.png	380.58547592163086	0.6963310241699219
309	269.8902678489685	response	0	k		307.0	/experiments/knapen_AOT/AOT_stimuli/pictures/0659_fw.png	381.26544284820557	
310	269.9066319465637	picture	0		93	308.0	/experiments/knapen_AOT/AOT_stimuli/pictures/0303_fw.png	381.2818069458008	0.7759299278259277
310	270.67350602149963	response	0	k		308.0	/experiments/knapen_AOT/AOT_stimuli/pictures/0303_fw.png	382.0486810207367	
311	270.68256187438965	picture	0		84	309.0	/experiments/knapen_AOT/AOT_stimuli/pictures/1634_fw.png	382.0577368736267	0.7014961242675781
311	271.37345480918884	response	0	j		309.0	/experiments/knapen_AOT/AOT_stimuli/pictures/1634_fw.png	382.7486298084259	
312	271.3840579986572	picture	0		105	310.0	/experiments/knapen_AOT/AOT_stimuli/pictures/0294_fw.png	382.7592329978943	0.8749008178710938
312	272.24850702285767	response	0	k		310.0	/experiments/knapen_AOT/AOT_stimuli/pictures/0294_fw.png	383.6236820220947	
313	272.2589588165283	picture	0		80	311.0	/experiments/knapen_AOT/AOT_stimuli/pictures/1600_fw.png	383.6341338157654	0.6727421283721924
313	272.90832901000977	response	0	j		311.0	/experiments/knapen_AOT/AOT_stimuli/pictures/1600_fw.png	384.2835040092468	
314	272.9317009449005	picture	0		111	312.0	/experiments/knapen_AOT/AOT_stimuli/pictures/0745_fw.png	384.3068759441376	0.9250268936157227
314	273.8485839366913	response	0	j		312.0	/experiments/knapen_AOT/AOT_stimuli/pictures/0745_fw.png	385.22375893592834	
315	273.85672783851624	picture	0		100	313.0	/experiments/knapen_AOT/AOT_stimuli/pictures/0644_fw.png	385.2319028377533	0.8334541320800781
315	274.6818838119507	response	0	k		313.0	/experiments/knapen_AOT/AOT_stimuli/pictures/0644_fw.png	386.05705881118774	
316	274.6901819705963	picture	0		95	314.0	/experiments/knapen_AOT/AOT_stimuli/pictures/1829_fw.png	386.0653569698334	0.7979698181152344
316	275.47366189956665	response	0	j		314.0	/experiments/knapen_AOT/AOT_stimuli/pictures/1829_fw.png	386.8488368988037	
317	275.48815178871155	picture	0		88	315.0	/experiments/knapen_AOT/AOT_stimuli/pictures/0969_fw.png	386.8633267879486	0.7435522079467773
317	276.21534180641174	response	0	j		315.0	/experiments/knapen_AOT/AOT_stimuli/pictures/0969_fw.png	387.5905168056488	
318	276.2317039966583	picture	0		82	316.0	/experiments/knapen_AOT/AOT_stimuli/pictures/1587_fw.png	387.6068789958954	0.6870260238647461
318	276.90036487579346	response	0	j		316.0	/experiments/knapen_AOT/AOT_stimuli/pictures/1587_fw.png	388.2755398750305	
319	276.91873002052307	picture	0		81	317.0	/experiments/knapen_AOT/AOT_stimuli/pictures/0513_fw.png	388.29390501976013	0.6736009120941162
319	277.5819079875946	response	0	k		317.0	/experiments/knapen_AOT/AOT_stimuli/pictures/0513_fw.png	388.95708298683167	
320	277.5923309326172	picture	0		136	318.0	/experiments/knapen_AOT/AOT_stimuli/pictures/1203_fw.png	388.96750593185425	1.1319708824157715
320	278.7153868675232	response	0	j		318.0	/experiments/knapen_AOT/AOT_stimuli/pictures/1203_fw.png	390.09056186676025	
321	278.72430181503296	picture	0		87	319.0	/experiments/knapen_AOT/AOT_stimuli/pictures/1563_fw.png	390.09947681427	0.7291491031646729
321	279.4403808116913	response	0	j		319.0	/experiments/knapen_AOT/AOT_stimuli/pictures/1563_fw.png	390.81555581092834	
322	279.45345091819763	picture	0		94	320.0	/experiments/knapen_AOT/AOT_stimuli/pictures/1988_fw.png	390.8286259174347	0.79168701171875
322	280.231920003891	response	0	k		320.0	/experiments/knapen_AOT/AOT_stimuli/pictures/1988_fw.png	391.60709500312805	
323	280.2451379299164	picture	0		94	321.0	/experiments/knapen_AOT/AOT_stimuli/pictures/0234_fw.png	391.62031292915344	0.7950530052185059
323	281.02376198768616	response	0	j		321.0	/experiments/knapen_AOT/AOT_stimuli/pictures/0234_fw.png	392.3989369869232	
324	281.0401909351349	picture	0		103	322.0	/experiments/knapen_AOT/AOT_stimuli/pictures/1730_fw.png	392.41536593437195	0.8916418552398682
324	281.908597946167	response	0	j		322.0	/experiments/knapen_AOT/AOT_stimuli/pictures/1730_fw.png	393.28377294540405	
325	281.93183279037476	picture	0		115	323.0	/experiments/knapen_AOT/AOT_stimuli/pictures/0219_fw.png	393.3070077896118	0.9591760635375977
325	282.87538290023804	response	0	k		323.0	/experiments/knapen_AOT/AOT_stimuli/pictures/0219_fw.png	394.2505578994751	
326	282.89100885391235	picture	0		96	324.0	/experiments/knapen_AOT/AOT_stimuli/pictures/1788_fw.png	394.2661838531494	0.8075399398803711
326	283.67545199394226	response	0	k		324.0	/experiments/knapen_AOT/AOT_stimuli/pictures/1788_fw.png	395.0506269931793	
327	283.6985487937927	picture	0		118	325.0	/experiments/knapen_AOT/AOT_stimuli/pictures/0236_fw.png	395.0737237930298	0.9916121959686279
327	284.6738588809967	response	0	j		325.0	/experiments/knapen_AOT/AOT_stimuli/pictures/0236_fw.png	396.04903388023376	
328	284.69016098976135	picture	0		106	326.0	/experiments/knapen_AOT/AOT_stimuli/pictures/0539_fw.png	396.0653359889984	0.8916788101196289
328	285.56539487838745	response	0	j		326.0	/experiments/knapen_AOT/AOT_stimuli/pictures/0539_fw.png	396.9405698776245	
329	285.581839799881	picture	0		72	327.0	/experiments/knapen_AOT/AOT_stimuli/pictures/1806_fw.png	396.95701479911804	0.6008310317993164
329	286.17377400398254	response	0	j		327.0	/experiments/knapen_AOT/AOT_stimuli/pictures/1806_fw.png	397.5489490032196	
330	286.1826708316803	picture	0		110	328.0	/experiments/knapen_AOT/AOT_stimuli/pictures/0065_fw.png	397.55784583091736	0.9242041110992432
330	287.0837059020996	response	0	j		328.0	/experiments/knapen_AOT/AOT_stimuli/pictures/0065_fw.png	398.45888090133667	
331	287.10687494277954	picture	0		144	329.0	/experiments/knapen_AOT/AOT_stimuli/pictures/0136_fw.png	398.4820499420166	1.2009670734405518
331	288.29214692115784	response	0	k		329.0	/experiments/knapen_AOT/AOT_stimuli/pictures/0136_fw.png	399.6673219203949	
332	288.3078420162201	picture	0		84	330.0	/experiments/knapen_AOT/AOT_stimuli/pictures/0878_fw.png	399.68301701545715	0.7013199329376221
332	288.9988248348236	response	0	k		330.0	/experiments/knapen_AOT/AOT_stimuli/pictures/0878_fw.png	400.37399983406067	
333	289.0091619491577	picture	0		85	331.0	/experiments/knapen_AOT/AOT_stimuli/pictures/0813_fw.png	400.3843369483948	0.7144198417663574
333	289.7003149986267	response	0	j		331.0	/experiments/knapen_AOT/AOT_stimuli/pictures/0813_fw.png	401.07548999786377	
334	289.7235817909241	picture	0		117	332.0	/experiments/knapen_AOT/AOT_stimuli/pictures/1658_fw.png	401.09875679016113	0.979992151260376
334	290.68364691734314	response	0	k		332.0	/experiments/knapen_AOT/AOT_stimuli/pictures/1658_fw.png	402.0588219165802	
335	290.70357394218445	picture	0		96	333.0	/experiments/knapen_AOT/AOT_stimuli/pictures/1094_fw.png	402.0787489414215	0.8116860389709473
335	291.49202394485474	response	0	k		333.0	/experiments/knapen_AOT/AOT_stimuli/pictures/1094_fw.png	402.8671989440918	
336	291.5152599811554	picture	0		107	334.0	/experiments/knapen_AOT/AOT_stimuli/pictures/1748_fw.png	402.89043498039246	0.8966219425201416
336	292.39887499809265	response	0	k		334.0	/experiments/knapen_AOT/AOT_stimuli/pictures/1748_fw.png	403.7740499973297	
337	292.41188192367554	picture	0		86	335.0	/experiments/knapen_AOT/AOT_stimuli/pictures/0273_fw.png	403.7870569229126	0.7222800254821777
337	293.12395882606506	response	0	j		335.0	/experiments/knapen_AOT/AOT_stimuli/pictures/0273_fw.png	404.4991338253021	
338	293.1341619491577	picture	0		87	336.0	/experiments/knapen_AOT/AOT_stimuli/pictures/0817_fw.png	404.5093369483948	0.7228119373321533
338	293.8488929271698	response	0	j		336.0	/experiments/knapen_AOT/AOT_stimuli/pictures/0817_fw.png	405.22406792640686	
339	293.85697388648987	picture	0		103	337.0	/experiments/knapen_AOT/AOT_stimuli/pictures/1382_fw.png	405.23214888572693	0.8667020797729492
339	294.70712780952454	response	0	k		337.0	/experiments/knapen_AOT/AOT_stimuli/pictures/1382_fw.png	406.0823028087616	
340	294.7236759662628	picture	0		105	338.0	/experiments/knapen_AOT/AOT_stimuli/pictures/0903_fw.png	406.0988509654999	0.8832869529724121
340	295.59049582481384	response	0	k		338.0	/experiments/knapen_AOT/AOT_stimuli/pictures/0903_fw.png	406.9656708240509	
341	295.60696291923523	picture	0		216	339.0	/experiments/knapen_AOT/AOT_stimuli/pictures/0929_fw.png	406.9821379184723	1.8083829879760742
341	297.39900279045105	response	0	k		339.0	/experiments/knapen_AOT/AOT_stimuli/pictures/0929_fw.png	408.7741777896881	
342	297.4153459072113	picture	0		155	340.0	/experiments/knapen_AOT/AOT_stimuli/pictures/0399_fw.png	408.79052090644836	1.2952098846435547
342	298.69200801849365	response	0	j		340.0	/experiments/knapen_AOT/AOT_stimuli/pictures/0399_fw.png	410.0671830177307	
343	298.71055579185486	picture	0		94	341.0	/experiments/knapen_AOT/AOT_stimuli/pictures/1918_fw.png	410.0857307910919	0.7847511768341064
343	299.47575402259827	response	0	j		341.0	/experiments/knapen_AOT/AOT_stimuli/pictures/1918_fw.png	410.8509290218353	
344	299.49530696868896	picture	0		136	342.0	/experiments/knapen_AOT/AOT_stimuli/pictures/1755_fw.png	410.870481967926	1.1450998783111572
344	300.62406396865845	response	0	k		342.0	/experiments/knapen_AOT/AOT_stimuli/pictures/1755_fw.png	411.9992389678955	
345	300.6404068470001	picture	0		93	343.0	/experiments/knapen_AOT/AOT_stimuli/pictures/0040_fw.png	412.0155818462372	0.7784881591796875
345	301.4072518348694	response	0	k		343.0	/experiments/knapen_AOT/AOT_stimuli/pictures/0040_fw.png	412.78242683410645	
346	301.4188950061798	picture	0		128	344.0	/experiments/knapen_AOT/AOT_stimuli/pictures/0205_fw.png	412.79407000541687	1.0715270042419434
346	302.46722888946533	response	0	k		344.0	/experiments/knapen_AOT/AOT_stimuli/pictures/0205_fw.png	413.8424038887024	
347	302.49042201042175	picture	0		86	345.0	/experiments/knapen_AOT/AOT_stimuli/pictures/0376_fw.png	413.8655970096588	0.7249808311462402
347	303.19917583465576	response	0	j		345.0	/experiments/knapen_AOT/AOT_stimuli/pictures/0376_fw.png	414.5743508338928	
348	303.215402841568	picture	0		95	346.0	/experiments/knapen_AOT/AOT_stimuli/pictures/1196_fw.png	414.59057784080505	0.800011157989502
348	303.9990539550781	response	0	k		346.0	/experiments/knapen_AOT/AOT_stimuli/pictures/1196_fw.png	415.3742289543152	
349	304.0154139995575	picture	0		119	347.0	/experiments/knapen_AOT/AOT_stimuli/pictures/0717_fw.png	415.39058899879456	1.0000348091125488
349	304.9990568161011	response	0	j		347.0	/experiments/knapen_AOT/AOT_stimuli/pictures/0717_fw.png	416.37423181533813	
350	305.01544880867004	picture	0		95	348.0	/experiments/knapen_AOT/AOT_stimuli/pictures/1541_fw.png	416.3906238079071	0.7925231456756592
350	305.7990939617157	response	0	k		348.0	/experiments/knapen_AOT/AOT_stimuli/pictures/1541_fw.png	417.17426896095276	
351	305.8079719543457	picture	0		103	349.0	/experiments/knapen_AOT/AOT_stimuli/pictures/1851_fw.png	417.18314695358276	0.8610448837280273
351	306.65059995651245	response	0	k		349.0	/experiments/knapen_AOT/AOT_stimuli/pictures/1851_fw.png	418.0257749557495	
352	306.66901683807373	picture	0		84	350.0	/experiments/knapen_AOT/AOT_stimuli/pictures/1759_fw.png	418.0441918373108	0.704841136932373
352	307.357314825058	response	0	j		350.0	/experiments/knapen_AOT/AOT_stimuli/pictures/1759_fw.png	418.73248982429504	
353	307.3738579750061	picture	0		87	351.0	/experiments/knapen_AOT/AOT_stimuli/pictures/2078_fw.png	418.74903297424316	0.7256970405578613
353	308.08384895324707	response	0	k		351.0	/experiments/knapen_AOT/AOT_stimuli/pictures/2078_fw.png	419.45902395248413	
354	308.09955501556396	picture	0		85	352.0	/experiments/knapen_AOT/AOT_stimuli/pictures/0569_fw.png	419.474730014801	0.7083108425140381
354	308.7991418838501	response	0	j		352.0	/experiments/knapen_AOT/AOT_stimuli/pictures/0569_fw.png	420.17431688308716	
355	308.807865858078	picture	0		94	353.0	/experiments/knapen_AOT/AOT_stimuli/pictures/2032_fw.png	420.18304085731506	0.7849011421203613
355	309.5823349952698	response	0	j		353.0	/experiments/knapen_AOT/AOT_stimuli/pictures/2032_fw.png	420.95750999450684	
356	309.59276700019836	picture	0		109	354.0	/experiments/knapen_AOT/AOT_stimuli/pictures/1890_fw.png	420.9679419994354	0.9095299243927002
356	310.4838569164276	response	0	k		354.0	/experiments/knapen_AOT/AOT_stimuli/pictures/1890_fw.png	421.8590319156647	
357	310.50229692459106	picture	0		115	355.0	/experiments/knapen_AOT/AOT_stimuli/pictures/0165_fw.png	421.8774719238281	0.9583399295806885
357	311.4491539001465	response	0	j		355.0	/experiments/knapen_AOT/AOT_stimuli/pictures/0165_fw.png	422.82432889938354	
358	311.46063685417175	picture	0		94	356.0	/experiments/knapen_AOT/AOT_stimuli/pictures/1101_fw.png	422.8358118534088	0.7847330570220947
358	312.23243379592896	response	0	j		356.0	/experiments/knapen_AOT/AOT_stimuli/pictures/1101_fw.png	423.607608795166	
359	312.24536991119385	picture	0		60	357.0	/experiments/knapen_AOT/AOT_stimuli/pictures/2160_fw.png	423.6205449104309	0.5451850891113281
359	312.77418398857117	response	0	j		357.0	/experiments/knapen_AOT/AOT_stimuli/pictures/2160_fw.png	424.1493589878082	
360	312.7905550003052	picture	0		83	358.0	/experiments/knapen_AOT/AOT_stimuli/pictures/1538_fw.png	424.16572999954224	0.7000219821929932
360	313.4674208164215	response	0	j		358.0	/experiments/knapen_AOT/AOT_stimuli/pictures/1538_fw.png	424.84259581565857	
361	313.49057698249817	picture	0		111	359.0	/experiments/knapen_AOT/AOT_stimuli/pictures/1229_fw.png	424.86575198173523	0.9284408092498779
361	314.4074318408966	response	0	k		359.0	/experiments/knapen_AOT/AOT_stimuli/pictures/1229_fw.png	425.78260684013367	
362	314.41901779174805	stim	0		615			425.7941927909851	5.13362717628479
362	315.2158319950104	response	0	k				426.59100699424744	
362	319.53793501853943	response	0	space				430.9131100177765	
