trial_nr	onset	event_type	phase	response	nr_frames	picture_index	picture_file	onset_abs	duration
0	0.15125489234924316	stim	0		644			121.67912793159485	5.390149116516113
0	3.8998520374298096	response	0	return				125.42772507667542	
0	4.599758863449097	response	0	return				126.1276319026947	
0	5.508125066757202	response	0	space				127.03599810600281	
2	5.5414040088653564	picture	0		262	0.0	/experiments/knapen_aot/AOT/AOT_stimuli/pictures/1073_fw.png	127.06927704811096	2.200216054916382
2	7.7165138721466064	response	0	k		0.0	/experiments/knapen_aot/AOT/AOT_stimuli/pictures/1073_fw.png	129.2443869113922	
3	7.741620063781738	picture	0		199	1.0	/experiments/knapen_aot/AOT/AOT_stimuli/pictures/0088_fw.png	129.26949310302734	1.6663999557495117
3	9.391455888748169	response	0	k		1.0	/experiments/knapen_aot/AOT/AOT_stimuli/pictures/0088_fw.png	130.91932892799377	
4	9.40802001953125	picture	0		135	2.0	/experiments/knapen_aot/AOT/AOT_stimuli/pictures/2072_fw.png	130.93589305877686	1.1332738399505615
4	10.524791955947876	response	0	j		2.0	/experiments/knapen_aot/AOT/AOT_stimuli/pictures/2072_fw.png	132.05266499519348	
5	10.541293859481812	picture	0		101	3.0	/experiments/knapen_aot/AOT/AOT_stimuli/pictures/2067_fw.png	132.06916689872742	0.8501451015472412
5	11.374837875366211	response	0	j		3.0	/experiments/knapen_aot/AOT/AOT_stimuli/pictures/2067_fw.png	132.90271091461182	
6	11.391438961029053	picture	0		135	4.0	/experiments/knapen_aot/AOT/AOT_stimuli/pictures/0691_fw.png	132.91931200027466	1.12764310836792
6	12.508116006851196	response	0	k		4.0	/experiments/knapen_aot/AOT/AOT_stimuli/pictures/0691_fw.png	134.0359890460968	
7	12.519082069396973	picture	0		140	5.0	/experiments/knapen_aot/AOT/AOT_stimuli/pictures/0993_fw.png	134.04695510864258	1.180600881576538
7	13.674782037734985	response	0	k		5.0	/experiments/knapen_aot/AOT/AOT_stimuli/pictures/0993_fw.png	135.2026550769806	
8	13.69968295097351	picture	0		114	6.0	/experiments/knapen_aot/AOT/AOT_stimuli/pictures/1698_fw.png	135.22755599021912	0.9587171077728271
8	14.641433000564575	response	0	k		6.0	/experiments/knapen_aot/AOT/AOT_stimuli/pictures/1698_fw.png	136.16930603981018	
9	14.658400058746338	picture	0		105	7.0	/experiments/knapen_aot/AOT/AOT_stimuli/pictures/1726_fw.png	136.18627309799194	0.8829488754272461
9	15.52469801902771	response	0	k		7.0	/experiments/knapen_aot/AOT/AOT_stimuli/pictures/1726_fw.png	137.05257105827332	
10	15.541348934173584	picture	0		79	8.0	/experiments/knapen_aot/AOT/AOT_stimuli/pictures/0948_fw.png	137.0692219734192	0.6582870483398438
10	16.191459894180298	response	0	j		8.0	/experiments/knapen_aot/AOT/AOT_stimuli/pictures/0948_fw.png	137.7193329334259	
11	16.199635982513428	picture	0		84	9.0	/experiments/knapen_aot/AOT/AOT_stimuli/pictures/1702_fw.png	137.72750902175903	0.7013370990753174
11	16.891480922698975	response	0	j		9.0	/experiments/knapen_aot/AOT/AOT_stimuli/pictures/1702_fw.png	138.41935396194458	
12	16.900973081588745	picture	0		87	10.0	/experiments/knapen_aot/AOT/AOT_stimuli/pictures/1037_fw.png	138.42884612083435	0.7292678356170654
12	17.60959506034851	response	0	k		10.0	/experiments/knapen_aot/AOT/AOT_stimuli/pictures/1037_fw.png	139.13746809959412	
13	17.63024091720581	picture	0		102	11.0	/experiments/knapen_aot/AOT/AOT_stimuli/pictures/1778_fw.png	139.15811395645142	0.8540699481964111
13	18.474695920944214	response	0	j		11.0	/experiments/knapen_aot/AOT/AOT_stimuli/pictures/1778_fw.png	140.00256896018982	
14	18.48431086540222	picture	0		79	12.0	/experiments/knapen_aot/AOT/AOT_stimuli/pictures/1785_fw.png	140.01218390464783	0.6667501926422119
14	19.133028030395508	response	0	k		12.0	/experiments/knapen_aot/AOT/AOT_stimuli/pictures/1785_fw.png	140.6609010696411	
15	19.151061058044434	picture	0		112	13.0	/experiments/knapen_aot/AOT/AOT_stimuli/pictures/1085_fw.png	140.67893409729004	0.940234899520874
15	20.074692010879517	response	0	j		13.0	/experiments/knapen_aot/AOT/AOT_stimuli/pictures/1085_fw.png	141.60256505012512	
16	20.091295957565308	picture	0		90	14.0	/experiments/knapen_aot/AOT/AOT_stimuli/pictures/0555_fw.png	141.6191689968109	0.7582759857177734
16	20.826294898986816	response	0	k		14.0	/experiments/knapen_aot/AOT/AOT_stimuli/pictures/0555_fw.png	142.35416793823242	
17	20.84957194328308	picture	0		95	15.0	/experiments/knapen_aot/AOT/AOT_stimuli/pictures/0394_fw.png	142.3774449825287	0.800041913986206
17	21.626303911209106	response	0	k		15.0	/experiments/knapen_aot/AOT/AOT_stimuli/pictures/0394_fw.png	143.1541769504547	
18	21.649613857269287	picture	0		135	16.0	/experiments/knapen_aot/AOT/AOT_stimuli/pictures/0128_fw.png	143.1774868965149	1.133324146270752
18	22.766413927078247	response	0	k		16.0	/experiments/knapen_aot/AOT/AOT_stimuli/pictures/0128_fw.png	144.29428696632385	
19	22.78293800354004	picture	0		85	17.0	/experiments/knapen_aot/AOT/AOT_stimuli/pictures/1469_fw.png	144.31081104278564	0.7083499431610107
19	23.48306894302368	response	0	k		17.0	/experiments/knapen_aot/AOT/AOT_stimuli/pictures/1469_fw.png	145.0109419822693	
20	23.49128794670105	picture	0		88	18.0	/experiments/knapen_aot/AOT/AOT_stimuli/pictures/0861_fw.png	145.01916098594666	0.7430429458618164
20	24.209558963775635	response	0	k		18.0	/experiments/knapen_aot/AOT/AOT_stimuli/pictures/0861_fw.png	145.73743200302124	
21	24.234330892562866	picture	0		86	19.0	/experiments/knapen_aot/AOT/AOT_stimuli/pictures/1630_fw.png	145.76220393180847	0.7152860164642334
21	24.941357851028442	response	0	j		19.0	/experiments/knapen_aot/AOT/AOT_stimuli/pictures/1630_fw.png	146.46923089027405	
22	24.9496169090271	picture	0		90	20.0	/experiments/knapen_aot/AOT/AOT_stimuli/pictures/0608_fw.png	146.4774899482727	0.758371114730835
22	25.691367864608765	response	0	j		20.0	/experiments/knapen_aot/AOT/AOT_stimuli/pictures/0608_fw.png	147.21924090385437	
23	25.707988023757935	picture	0		87	21.0	/experiments/knapen_aot/AOT/AOT_stimuli/pictures/1461_fw.png	147.23586106300354	0.7276308536529541
23	26.417890071868896	response	0	j		21.0	/experiments/knapen_aot/AOT/AOT_stimuli/pictures/1461_fw.png	147.9457631111145	
24	26.43561887741089	picture	0		98	22.0	/experiments/knapen_aot/AOT/AOT_stimuli/pictures/1759_fw.png	147.9634919166565	0.8224730491638184
24	27.2413649559021	response	0	j		22.0	/experiments/knapen_aot/AOT/AOT_stimuli/pictures/1759_fw.png	148.7692379951477	
25	27.258091926574707	picture	0		139	23.0	/experiments/knapen_aot/AOT/AOT_stimuli/pictures/1731_fw.png	148.7859649658203	1.1664690971374512
25	28.401357889175415	response	0	k		23.0	/experiments/knapen_aot/AOT/AOT_stimuli/pictures/1731_fw.png	149.92923092842102	
26	28.424561023712158	picture	0		162	24.0	/experiments/knapen_aot/AOT/AOT_stimuli/pictures/0787_fw.png	149.95243406295776	1.358402967453003
26	29.766371965408325	response	0	j		24.0	/experiments/knapen_aot/AOT/AOT_stimuli/pictures/0787_fw.png	151.29424500465393	
27	29.78296399116516	picture	0		146	25.0	/experiments/knapen_aot/AOT/AOT_stimuli/pictures/0409_fw.png	151.31083703041077	1.2290570735931396
27	30.99136185646057	response	0	j		25.0	/experiments/knapen_aot/AOT/AOT_stimuli/pictures/0409_fw.png	152.51923489570618	
28	31.0120210647583	picture	0		96	26.0	/experiments/knapen_aot/AOT/AOT_stimuli/pictures/0939_fw.png	152.5398941040039	0.8042709827423096
28	31.792898893356323	response	0	k		26.0	/experiments/knapen_aot/AOT/AOT_stimuli/pictures/0939_fw.png	153.32077193260193	
29	31.81629204750061	picture	0		93	27.0	/experiments/knapen_aot/AOT/AOT_stimuli/pictures/1863_fw.png	153.34416508674622	0.77907395362854
29	32.58295798301697	response	0	j		27.0	/experiments/knapen_aot/AOT/AOT_stimuli/pictures/1863_fw.png	154.11083102226257	
30	32.59536600112915	picture	0		82	28.0	/experiments/knapen_aot/AOT/AOT_stimuli/pictures/0950_fw.png	154.12323904037476	0.6804769039154053
30	33.26638603210449	response	0	j		28.0	/experiments/knapen_aot/AOT/AOT_stimuli/pictures/0950_fw.png	154.7942590713501	
31	33.275842905044556	picture	0		142	29.0	/experiments/knapen_aot/AOT/AOT_stimuli/pictures/0019_fw.png	154.80371594429016	1.1904499530792236
31	34.44973707199097	response	0	j		29.0	/experiments/knapen_aot/AOT/AOT_stimuli/pictures/0019_fw.png	155.97761011123657	
32	34.46629285812378	picture	0		105	30.0	/experiments/knapen_aot/AOT/AOT_stimuli/pictures/0485_fw.png	155.99416589736938	0.8789470195770264
32	35.33302402496338	response	0	j		30.0	/experiments/knapen_aot/AOT/AOT_stimuli/pictures/0485_fw.png	156.86089706420898	
33	35.345239877700806	picture	0		137	31.0	/experiments/knapen_aot/AOT/AOT_stimuli/pictures/2179_fw.png	156.8731129169464	1.138890027999878
33	36.47468304634094	response	0	j		31.0	/experiments/knapen_aot/AOT/AOT_stimuli/pictures/2179_fw.png	158.00255608558655	
34	36.484129905700684	picture	0		114	32.0	/experiments/knapen_aot/AOT/AOT_stimuli/pictures/2073_fw.png	158.0120029449463	0.9583621025085449
34	37.417850971221924	response	0	k		32.0	/experiments/knapen_aot/AOT/AOT_stimuli/pictures/2073_fw.png	158.94572401046753	
35	37.44249200820923	picture	0		131	33.0	/experiments/knapen_aot/AOT/AOT_stimuli/pictures/1676_fw.png	158.97036504745483	1.0987918376922607
35	38.524653911590576	response	0	k		33.0	/experiments/knapen_aot/AOT/AOT_stimuli/pictures/1676_fw.png	160.05252695083618	
36	38.54128384590149	picture	0		103	34.0	/experiments/knapen_aot/AOT/AOT_stimuli/pictures/1810_fw.png	160.0691568851471	0.8665790557861328
36	39.391286849975586	response	0	j		34.0	/experiments/knapen_aot/AOT/AOT_stimuli/pictures/1810_fw.png	160.9191598892212	
37	39.40786290168762	picture	0		93	35.0	/experiments/knapen_aot/AOT/AOT_stimuli/pictures/1614_fw.png	160.93573594093323	0.791741132736206
37	40.17463994026184	response	0	j		35.0	/experiments/knapen_aot/AOT/AOT_stimuli/pictures/1614_fw.png	161.70251297950745	
38	40.19960403442383	picture	0		483	36.0	/experiments/knapen_aot/AOT/AOT_stimuli/pictures/0803_fw.png	161.72747707366943	4.034474849700928
38	44.20953702926636	response	0	j		36.0	/experiments/knapen_aot/AOT/AOT_stimuli/pictures/0803_fw.png	165.73741006851196	
39	44.234078884124756	picture	0		124	37.0	/experiments/knapen_aot/AOT/AOT_stimuli/pictures/0889_fw.png	165.76195192337036	1.0346989631652832
39	45.25794696807861	response	0	j		37.0	/experiments/knapen_aot/AOT/AOT_stimuli/pictures/0889_fw.png	166.78582000732422	
40	45.26877784729004	picture	0		101	38.0	/experiments/knapen_aot/AOT/AOT_stimuli/pictures/1728_fw.png	166.79665088653564	0.8403010368347168
40	46.09961485862732	response	0	j		38.0	/experiments/knapen_aot/AOT/AOT_stimuli/pictures/1728_fw.png	167.62748789787292	
41	46.109078884124756	picture	0		108	39.0	/experiments/knapen_aot/AOT/AOT_stimuli/pictures/0361_fw.png	167.63695192337036	0.9166951179504395
41	46.99280786514282	response	0	j		39.0	/experiments/knapen_aot/AOT/AOT_stimuli/pictures/0361_fw.png	168.52068090438843	
42	47.025774002075195	picture	0		96	40.0	/experiments/knapen_aot/AOT/AOT_stimuli/pictures/1851_fw.png	168.5536470413208	0.8071448802947998
42	47.80953907966614	response	0	k		40.0	/experiments/knapen_aot/AOT/AOT_stimuli/pictures/1851_fw.png	169.33741211891174	
43	47.832918882369995	picture	0		108	41.0	/experiments/knapen_aot/AOT/AOT_stimuli/pictures/1882_fw.png	169.3607919216156	0.9081940650939941
43	48.724611043930054	response	0	j		41.0	/experiments/knapen_aot/AOT/AOT_stimuli/pictures/1882_fw.png	170.25248408317566	
44	48.74111294746399	picture	0		108	42.0	/experiments/knapen_aot/AOT/AOT_stimuli/pictures/0846_fw.png	170.2689859867096	0.9097020626068115
44	49.626041889190674	response	0	k		42.0	/experiments/knapen_aot/AOT/AOT_stimuli/pictures/0846_fw.png	171.15391492843628	
45	49.6508150100708	picture	0		98	43.0	/experiments/knapen_aot/AOT/AOT_stimuli/pictures/2092_fw.png	171.1786880493164	0.8263440132141113
45	50.45783185958862	response	0	j		43.0	/experiments/knapen_aot/AOT/AOT_stimuli/pictures/2092_fw.png	171.98570489883423	
46	50.47715902328491	picture	0		98	44.0	/experiments/knapen_aot/AOT/AOT_stimuli/pictures/0998_fw.png	172.00503206253052	0.8223109245300293
46	51.28291702270508	response	0	k		44.0	/experiments/knapen_aot/AOT/AOT_stimuli/pictures/0998_fw.png	172.81079006195068	
47	51.29946994781494	picture	0		107	45.0	/experiments/knapen_aot/AOT/AOT_stimuli/pictures/2023_fw.png	172.82734298706055	0.9002299308776855
47	52.18288993835449	response	0	k		45.0	/experiments/knapen_aot/AOT/AOT_stimuli/pictures/2023_fw.png	173.7107629776001	
48	52.19969987869263	picture	0		197	46.0	/experiments/knapen_aot/AOT/AOT_stimuli/pictures/0940_fw.png	173.72757291793823	1.6498980522155762
48	53.832879066467285	response	0	j		46.0	/experiments/knapen_aot/AOT/AOT_stimuli/pictures/0940_fw.png	175.3607521057129	
49	53.8495979309082	picture	0		147	47.0	/experiments/knapen_aot/AOT/AOT_stimuli/pictures/1466_fw.png	175.3774709701538	1.2331979274749756
49	55.06627106666565	response	0	k		47.0	/experiments/knapen_aot/AOT/AOT_stimuli/pictures/1466_fw.png	176.59414410591125	
50	55.08279585838318	picture	0		100	48.0	/experiments/knapen_aot/AOT/AOT_stimuli/pictures/1316_fw.png	176.61066889762878	0.8387460708618164
50	55.907881021499634	response	0	k		48.0	/experiments/knapen_aot/AOT/AOT_stimuli/pictures/1316_fw.png	177.43575406074524	
51	55.921541929244995	picture	0		85	49.0	/experiments/knapen_aot/AOT/AOT_stimuli/pictures/0951_fw.png	177.4494149684906	0.7198889255523682
51	56.6177818775177	response	0	j		49.0	/experiments/knapen_aot/AOT/AOT_stimuli/pictures/0951_fw.png	178.1456549167633	
52	56.64143085479736	picture	0		112	50.0	/experiments/knapen_aot/AOT/AOT_stimuli/pictures/0430_fw.png	178.16930389404297	0.9415230751037598
52	57.56627297401428	response	0	j		50.0	/experiments/knapen_aot/AOT/AOT_stimuli/pictures/0430_fw.png	179.0941460132599	
53	57.58295392990112	picture	0		87	51.0	/experiments/knapen_aot/AOT/AOT_stimuli/pictures/1283_fw.png	179.11082696914673	0.7332539558410645
53	58.299593925476074	response	0	j		51.0	/experiments/knapen_aot/AOT/AOT_stimuli/pictures/1283_fw.png	179.82746696472168	
54	58.31620788574219	picture	0		100	52.0	/experiments/knapen_aot/AOT/AOT_stimuli/pictures/0119_fw.png	179.8440809249878	0.8416080474853516
54	59.14122700691223	response	0	j		52.0	/experiments/knapen_aot/AOT/AOT_stimuli/pictures/0119_fw.png	180.66910004615784	
55	59.15781593322754	picture	0		88	53.0	/experiments/knapen_aot/AOT/AOT_stimuli/pictures/1078_fw.png	180.68568897247314	0.7416839599609375
55	59.88288497924805	response	0	j		53.0	/experiments/knapen_aot/AOT/AOT_stimuli/pictures/1078_fw.png	181.41075801849365	
56	59.89949989318848	picture	0		98	54.0	/experiments/knapen_aot/AOT/AOT_stimuli/pictures/1183_fw.png	181.42737293243408	0.8206100463867188
56	60.707907915115356	response	0	k		54.0	/experiments/knapen_aot/AOT/AOT_stimuli/pictures/1183_fw.png	182.23578095436096	
57	60.720109939575195	picture	0		98	55.0	/experiments/knapen_aot/AOT/AOT_stimuli/pictures/1825_fw.png	182.2479829788208	0.8210499286651611
57	61.52456998825073	response	0	k		55.0	/experiments/knapen_aot/AOT/AOT_stimuli/pictures/1825_fw.png	183.05244302749634	
58	61.541159868240356	picture	0		91	56.0	/experiments/knapen_aot/AOT/AOT_stimuli/pictures/0547_fw.png	183.06903290748596	0.7666351795196533
58	62.291226863861084	response	0	j		56.0	/experiments/knapen_aot/AOT/AOT_stimuli/pictures/0547_fw.png	183.8190999031067	
59	62.30779504776001	picture	0		87	57.0	/experiments/knapen_aot/AOT/AOT_stimuli/pictures/1251_fw.png	183.83566808700562	0.733335018157959
59	63.02452087402344	response	0	k		57.0	/experiments/knapen_aot/AOT/AOT_stimuli/pictures/1251_fw.png	184.55239391326904	
60	63.04113006591797	picture	0		103	58.0	/experiments/knapen_aot/AOT/AOT_stimuli/pictures/1836_fw.png	184.56900310516357	0.8667500019073486
60	63.89123797416687	response	0	j		58.0	/experiments/knapen_aot/AOT/AOT_stimuli/pictures/1836_fw.png	185.41911101341248	
61	63.90788006782532	picture	0		92	59.0	/experiments/knapen_aot/AOT/AOT_stimuli/pictures/0161_fw.png	185.43575310707092	0.770427942276001
61	64.66619896888733	response	0	j		59.0	/experiments/knapen_aot/AOT/AOT_stimuli/pictures/0161_fw.png	186.19407200813293	
62	64.67830801010132	picture	0		114	60.0	/experiments/knapen_aot/AOT/AOT_stimuli/pictures/1923_fw.png	186.20618104934692	0.9584150314331055
62	65.61612105369568	response	0	j		60.0	/experiments/knapen_aot/AOT/AOT_stimuli/pictures/1923_fw.png	187.14399409294128	
63	65.63672304153442	picture	0		91	61.0	/experiments/knapen_aot/AOT/AOT_stimuli/pictures/1919_fw.png	187.16459608078003	0.7627580165863037
63	66.37613296508789	response	0	k		61.0	/experiments/knapen_aot/AOT/AOT_stimuli/pictures/1919_fw.png	187.9040060043335	
64	66.39948105812073	picture	0		107	62.0	/experiments/knapen_aot/AOT/AOT_stimuli/pictures/1025_fw.png	187.92735409736633	0.9000678062438965
64	67.28287291526794	response	0	k		62.0	/experiments/knapen_aot/AOT/AOT_stimuli/pictures/1025_fw.png	188.81074595451355	
65	67.29954886436462	picture	0		113	63.0	/experiments/knapen_aot/AOT/AOT_stimuli/pictures/1520_fw.png	188.82742190361023	0.9500980377197266
65	68.23284006118774	response	0	k		63.0	/experiments/knapen_aot/AOT/AOT_stimuli/pictures/1520_fw.png	189.76071310043335	
66	68.24964690208435	picture	0		90	64.0	/experiments/knapen_aot/AOT/AOT_stimuli/pictures/1048_fw.png	189.77751994132996	0.7581889629364014
66	68.98437285423279	response	0	k		64.0	/experiments/knapen_aot/AOT/AOT_stimuli/pictures/1048_fw.png	190.5122458934784	
67	69.00783586502075	picture	0		77	65.0	/experiments/knapen_aot/AOT/AOT_stimuli/pictures/2062_fw.png	190.53570890426636	0.6498792171478271
67	69.64119791984558	response	0	k		65.0	/experiments/knapen_aot/AOT/AOT_stimuli/pictures/2062_fw.png	191.1690709590912	
68	69.65771508216858	picture	0		96	66.0	/experiments/knapen_aot/AOT/AOT_stimuli/pictures/0758_fw.png	191.18558812141418	0.8053069114685059
68	70.44949793815613	response	0	j		66.0	/experiments/knapen_aot/AOT/AOT_stimuli/pictures/0758_fw.png	191.97737097740173	
69	70.46302199363708	picture	0		232	67.0	/experiments/knapen_aot/AOT/AOT_stimuli/pictures/1915_fw.png	191.9908950328827	1.944694995880127
69	72.38442206382751	response	0	k		67.0	/experiments/knapen_aot/AOT/AOT_stimuli/pictures/1915_fw.png	193.91229510307312	
70	72.40771698951721	picture	0		111	68.0	/experiments/knapen_aot/AOT/AOT_stimuli/pictures/0086_fw.png	193.93559002876282	0.9336929321289062
70	73.32454586029053	response	0	k		68.0	/experiments/knapen_aot/AOT/AOT_stimuli/pictures/0086_fw.png	194.85241889953613	
71	73.34140992164612	picture	0		114	69.0	/experiments/knapen_aot/AOT/AOT_stimuli/pictures/0791_fw.png	194.86928296089172	0.958061933517456
71	74.28285503387451	response	0	k		69.0	/experiments/knapen_aot/AOT/AOT_stimuli/pictures/0791_fw.png	195.81072807312012	
72	74.29947185516357	picture	0		93	70.0	/experiments/knapen_aot/AOT/AOT_stimuli/pictures/0433_fw.png	195.82734489440918	0.7832231521606445
72	75.06614804267883	response	0	j		70.0	/experiments/knapen_aot/AOT/AOT_stimuli/pictures/0433_fw.png	196.59402108192444	
73	75.08269500732422	picture	0		81	71.0	/experiments/knapen_aot/AOT/AOT_stimuli/pictures/0171_fw.png	196.61056804656982	0.6833748817443848
73	75.74943494796753	response	0	j		71.0	/experiments/knapen_aot/AOT/AOT_stimuli/pictures/0171_fw.png	197.27730798721313	
74	75.7660698890686	picture	0		79	72.0	/experiments/knapen_aot/AOT/AOT_stimuli/pictures/0559_fw.png	197.2939429283142	0.6666860580444336
74	76.41612195968628	response	0	k		72.0	/experiments/knapen_aot/AOT/AOT_stimuli/pictures/0559_fw.png	197.94399499893188	
75	76.43275594711304	picture	0		95	73.0	/experiments/knapen_aot/AOT/AOT_stimuli/pictures/0562_fw.png	197.96062898635864	0.794032096862793
75	77.21607208251953	response	0	k		73.0	/experiments/knapen_aot/AOT/AOT_stimuli/pictures/0562_fw.png	198.74394512176514	
76	77.22678804397583	picture	0		140	74.0	/experiments/knapen_aot/AOT/AOT_stimuli/pictures/1557_fw.png	198.75466108322144	1.1736738681793213
76	78.37593793869019	response	0	j		74.0	/experiments/knapen_aot/AOT/AOT_stimuli/pictures/1557_fw.png	199.9038109779358	
77	78.40046191215515	picture	0		98	75.0	/experiments/knapen_aot/AOT/AOT_stimuli/pictures/0878_fw.png	199.92833495140076	0.8238770961761475
77	79.20098996162415	response	0	k		75.0	/experiments/knapen_aot/AOT/AOT_stimuli/pictures/0878_fw.png	200.72886300086975	
78	79.2243390083313	picture	0		81	76.0	/experiments/knapen_aot/AOT/AOT_stimuli/pictures/1570_fw.png	200.7522120475769	0.676084041595459
78	79.89108204841614	response	0	k		76.0	/experiments/knapen_aot/AOT/AOT_stimuli/pictures/1570_fw.png	201.41895508766174	
79	79.90042304992676	picture	0		139	77.0	/experiments/knapen_aot/AOT/AOT_stimuli/pictures/1236_fw.png	201.42829608917236	1.1666679382324219
79	81.04945588111877	response	0	j		77.0	/experiments/knapen_aot/AOT/AOT_stimuli/pictures/1236_fw.png	202.57732892036438	
80	81.06709098815918	picture	0		88	78.0	/experiments/knapen_aot/AOT/AOT_stimuli/pictures/0552_fw.png	202.59496402740479	0.7430269718170166
80	81.7843930721283	response	0	j		78.0	/experiments/knapen_aot/AOT/AOT_stimuli/pictures/0552_fw.png	203.3122661113739	
81	81.8101179599762	picture	0		99	79.0	/experiments/knapen_aot/AOT/AOT_stimuli/pictures/1997_fw.png	203.3379909992218	0.8334639072418213
81	82.6245059967041	response	0	k		79.0	/experiments/knapen_aot/AOT/AOT_stimuli/pictures/1997_fw.png	204.1523790359497	
82	82.64358186721802	picture	0		89	80.0	/experiments/knapen_aot/AOT/AOT_stimuli/pictures/1754_fw.png	204.17145490646362	0.7474319934844971
82	83.36767601966858	response	0	k		80.0	/experiments/knapen_aot/AOT/AOT_stimuli/pictures/1754_fw.png	204.89554905891418	
83	83.39101386070251	picture	0		114	81.0	/experiments/knapen_aot/AOT/AOT_stimuli/pictures/1661_fw.png	204.91888689994812	0.9583370685577393
83	84.33277606964111	response	0	k		81.0	/experiments/knapen_aot/AOT/AOT_stimuli/pictures/1661_fw.png	205.86064910888672	
84	84.34935092926025	picture	0		113	82.0	/experiments/knapen_aot/AOT/AOT_stimuli/pictures/1433_fw.png	205.87722396850586	0.9500539302825928
84	85.28278398513794	response	0	j		82.0	/experiments/knapen_aot/AOT/AOT_stimuli/pictures/1433_fw.png	206.81065702438354	
85	85.29940485954285	picture	0		110	83.0	/experiments/knapen_aot/AOT/AOT_stimuli/pictures/0342_fw.png	206.82727789878845	0.9204840660095215
85	86.20779204368591	response	0	j		83.0	/experiments/knapen_aot/AOT/AOT_stimuli/pictures/0342_fw.png	207.73566508293152	
86	86.21988892555237	picture	0		104	84.0	/experiments/knapen_aot/AOT/AOT_stimuli/pictures/0916_fw.png	207.74776196479797	0.8714549541473389
86	87.0743989944458	response	0	j		84.0	/experiments/knapen_aot/AOT/AOT_stimuli/pictures/0916_fw.png	208.6022720336914	
87	87.0913438796997	picture	0		85	85.0	/experiments/knapen_aot/AOT/AOT_stimuli/pictures/1592_fw.png	208.6192169189453	0.7163729667663574
87	87.78432488441467	response	0	k		85.0	/experiments/knapen_aot/AOT/AOT_stimuli/pictures/1592_fw.png	209.31219792366028	
88	87.80771684646606	picture	0		92	86.0	/experiments/knapen_aot/AOT/AOT_stimuli/pictures/1398_fw.png	209.33558988571167	0.7733831405639648
88	88.5661039352417	response	0	k		86.0	/experiments/knapen_aot/AOT/AOT_stimuli/pictures/1398_fw.png	210.0939769744873	
89	88.58109998703003	picture	0		154	87.0	/experiments/knapen_aot/AOT/AOT_stimuli/pictures/0985_fw.png	210.10897302627563	1.2933709621429443
89	89.85779285430908	response	0	k		87.0	/experiments/knapen_aot/AOT/AOT_stimuli/pictures/0985_fw.png	211.3856658935547	
90	89.87447094917297	picture	0		91	88.0	/experiments/knapen_aot/AOT/AOT_stimuli/pictures/0252_fw.png	211.40234398841858	0.7619791030883789
90	90.62449288368225	response	0	j		88.0	/experiments/knapen_aot/AOT/AOT_stimuli/pictures/0252_fw.png	212.15236592292786	
91	90.63645005226135	picture	0		92	89.0	/experiments/knapen_aot/AOT/AOT_stimuli/pictures/1679_fw.png	212.16432309150696	0.7638299465179443
91	91.38444304466248	response	0	k		89.0	/experiments/knapen_aot/AOT/AOT_stimuli/pictures/1679_fw.png	212.91231608390808	
92	91.4002799987793	picture	0		103	90.0	/experiments/knapen_aot/AOT/AOT_stimuli/pictures/1013_fw.png	212.9281530380249	0.8682260513305664
92	92.24942994117737	response	0	k		90.0	/experiments/knapen_aot/AOT/AOT_stimuli/pictures/1013_fw.png	213.77730298042297	
93	92.26850605010986	picture	0		106	91.0	/experiments/knapen_aot/AOT/AOT_stimuli/pictures/0775_fw.png	213.79637908935547	0.8891048431396484
93	93.1410300731659	response	0	j		91.0	/experiments/knapen_aot/AOT/AOT_stimuli/pictures/0775_fw.png	214.6689031124115	
94	93.15761089324951	picture	0		83	92.0	/experiments/knapen_aot/AOT/AOT_stimuli/pictures/1415_fw.png	214.68548393249512	0.7000429630279541
94	93.8411009311676	response	0	j		92.0	/experiments/knapen_aot/AOT/AOT_stimuli/pictures/1415_fw.png	215.3689739704132	
95	93.85765385627747	picture	0		77	93.0	/experiments/knapen_aot/AOT/AOT_stimuli/pictures/1257_fw.png	215.38552689552307	0.6500279903411865
95	94.49104499816895	response	0	k		93.0	/experiments/knapen_aot/AOT/AOT_stimuli/pictures/1257_fw.png	216.01891803741455	
96	94.50768184661865	picture	0		135	94.0	/experiments/knapen_aot/AOT/AOT_stimuli/pictures/2128_fw.png	216.03555488586426	1.1332781314849854
96	95.62443089485168	response	0	k		94.0	/experiments/knapen_aot/AOT/AOT_stimuli/pictures/2128_fw.png	217.1523039340973	
97	95.64095997810364	picture	0		123	95.0	/experiments/knapen_aot/AOT/AOT_stimuli/pictures/1996_fw.png	217.16883301734924	1.0371639728546143
97	96.65768885612488	response	0	k		95.0	/experiments/knapen_aot/AOT/AOT_stimuli/pictures/1996_fw.png	218.18556189537048	
98	96.67812395095825	picture	0		236	96.0	/experiments/knapen_aot/AOT/AOT_stimuli/pictures/0620_fw.png	218.20599699020386	1.9721879959106445
98	98.63276600837708	response	0	k		96.0	/experiments/knapen_aot/AOT/AOT_stimuli/pictures/0620_fw.png	220.16063904762268	
99	98.6503119468689	picture	0		91	97.0	/experiments/knapen_aot/AOT/AOT_stimuli/pictures/0441_fw.png	220.1781849861145	0.7656960487365723
99	99.3993308544159	response	0	j		97.0	/experiments/knapen_aot/AOT/AOT_stimuli/pictures/0441_fw.png	220.9272038936615	
100	99.41600799560547	picture	0		88	98.0	/experiments/knapen_aot/AOT/AOT_stimuli/pictures/1873_fw.png	220.94388103485107	0.7416460514068604
100	100.14108395576477	response	0	j		98.0	/experiments/knapen_aot/AOT/AOT_stimuli/pictures/1873_fw.png	221.66895699501038	
101	100.15765404701233	picture	0		106	99.0	/experiments/knapen_aot/AOT/AOT_stimuli/pictures/1550_fw.png	221.68552708625793	0.8916280269622803
101	101.0327398777008	response	0	k		99.0	/experiments/knapen_aot/AOT/AOT_stimuli/pictures/1550_fw.png	222.5606129169464	
102	101.04928207397461	picture	0		297	100.0	/experiments/knapen_aot/AOT/AOT_stimuli/pictures/0211_fw.png	222.57715511322021	2.483287811279297
102	103.51607203483582	response	0	k		100.0	/experiments/knapen_aot/AOT/AOT_stimuli/pictures/0211_fw.png	225.04394507408142	
103	103.5325698852539	picture	0		128	101.0	/experiments/knapen_aot/AOT/AOT_stimuli/pictures/1313_fw.png	225.0604429244995	1.075057029724121
103	104.59103393554688	response	0	k		101.0	/experiments/knapen_aot/AOT/AOT_stimuli/pictures/1313_fw.png	226.11890697479248	
104	104.60762691497803	picture	0		77	102.0	/experiments/knapen_aot/AOT/AOT_stimuli/pictures/1421_fw.png	226.13549995422363	0.650001049041748
104	105.24106907844543	response	0	j		102.0	/experiments/knapen_aot/AOT/AOT_stimuli/pictures/1421_fw.png	226.76894211769104	
105	105.25762796401978	picture	0		93	103.0	/experiments/knapen_aot/AOT/AOT_stimuli/pictures/0750_fw.png	226.78550100326538	0.783405065536499
105	106.02439785003662	response	0	j		103.0	/experiments/knapen_aot/AOT/AOT_stimuli/pictures/0750_fw.png	227.55227088928223	
106	106.04103302955627	picture	0		86	104.0	/experiments/knapen_aot/AOT/AOT_stimuli/pictures/2127_fw.png	227.56890606880188	0.7249839305877686
106	106.74950504302979	response	0	j		104.0	/experiments/knapen_aot/AOT/AOT_stimuli/pictures/2127_fw.png	228.2773780822754	
107	106.76601696014404	picture	0		131	105.0	/experiments/knapen_aot/AOT/AOT_stimuli/pictures/1126_fw.png	228.29388999938965	1.0999441146850586
107	107.84952902793884	response	0	k		105.0	/experiments/knapen_aot/AOT/AOT_stimuli/pictures/1126_fw.png	229.37740206718445	
108	107.8659610748291	picture	0		465	106.0	/experiments/knapen_aot/AOT/AOT_stimuli/pictures/0201_fw.png	229.3938341140747	3.8833069801330566
108	111.73274493217468	response	0	j		106.0	/experiments/knapen_aot/AOT/AOT_stimuli/pictures/0201_fw.png	233.2606179714203	
109	111.74926805496216	picture	0		178	107.0	/experiments/knapen_aot/AOT/AOT_stimuli/pictures/0700_fw.png	233.27714109420776	1.4917049407958984
109	113.22441291809082	response	0	k		107.0	/experiments/knapen_aot/AOT/AOT_stimuli/pictures/0700_fw.png	234.75228595733643	
110	113.24097299575806	picture	0		87	108.0	/experiments/knapen_aot/AOT/AOT_stimuli/pictures/1686_fw.png	234.76884603500366	0.7333018779754639
110	113.9508318901062	response	0	j		108.0	/experiments/knapen_aot/AOT/AOT_stimuli/pictures/1686_fw.png	235.4787049293518	
111	113.97427487373352	picture	0		86	109.0	/experiments/knapen_aot/AOT/AOT_stimuli/pictures/1495_fw.png	235.50214791297913	0.7250800132751465
111	114.68268704414368	response	0	j		109.0	/experiments/knapen_aot/AOT/AOT_stimuli/pictures/1495_fw.png	236.21056008338928	
112	114.69935488700867	picture	0		97	110.0	/experiments/knapen_aot/AOT/AOT_stimuli/pictures/0987_fw.png	236.22722792625427	0.8166220188140869
112	115.49935793876648	response	0	j		110.0	/experiments/knapen_aot/AOT/AOT_stimuli/pictures/0987_fw.png	237.02723097801208	
113	115.51597690582275	picture	0		121	111.0	/experiments/knapen_aot/AOT/AOT_stimuli/pictures/1291_fw.png	237.04384994506836	1.0166239738464355
113	116.51600790023804	response	0	k		111.0	/experiments/knapen_aot/AOT/AOT_stimuli/pictures/1291_fw.png	238.04388093948364	
114	116.53260087966919	picture	0		96	112.0	/experiments/knapen_aot/AOT/AOT_stimuli/pictures/1756_fw.png	238.0604739189148	0.8083591461181641
114	117.32430005073547	response	0	j		112.0	/experiments/knapen_aot/AOT/AOT_stimuli/pictures/1756_fw.png	238.85217308998108	
115	117.34096002578735	picture	0		84	113.0	/experiments/knapen_aot/AOT/AOT_stimuli/pictures/1951_fw.png	238.86883306503296	0.7083008289337158
115	118.0326669216156	response	0	j		113.0	/experiments/knapen_aot/AOT/AOT_stimuli/pictures/1951_fw.png	239.5605399608612	
116	118.04926085472107	picture	0		119	114.0	/experiments/knapen_aot/AOT/AOT_stimuli/pictures/1489_fw.png	239.57713389396667	1.0035920143127441
116	119.0326600074768	response	0	j		114.0	/experiments/knapen_aot/AOT/AOT_stimuli/pictures/1489_fw.png	240.5605330467224	
117	119.05285286903381	picture	0		96	115.0	/experiments/knapen_aot/AOT/AOT_stimuli/pictures/0598_fw.png	240.58072590827942	0.8047440052032471
117	119.8409960269928	response	0	k		115.0	/experiments/knapen_aot/AOT/AOT_stimuli/pictures/0598_fw.png	241.3688690662384	
118	119.85759687423706	picture	0		126	116.0	/experiments/knapen_aot/AOT/AOT_stimuli/pictures/1689_fw.png	241.38546991348267	1.0582551956176758
118	120.90020704269409	response	0	k		116.0	/experiments/knapen_aot/AOT/AOT_stimuli/pictures/1689_fw.png	242.4280800819397	
119	120.91585206985474	picture	0		98	117.0	/experiments/knapen_aot/AOT/AOT_stimuli/pictures/2014_fw.png	242.44372510910034	0.8250818252563477
119	121.72431206703186	response	0	k		117.0	/experiments/knapen_aot/AOT/AOT_stimuli/pictures/2014_fw.png	243.25218510627747	
120	121.74093389511108	picture	0		88	118.0	/experiments/knapen_aot/AOT/AOT_stimuli/pictures/0814_fw.png	243.2688069343567	0.7354710102081299
120	122.46603202819824	response	0	j		118.0	/experiments/knapen_aot/AOT/AOT_stimuli/pictures/0814_fw.png	243.99390506744385	
121	122.47640490531921	picture	0		90	119.0	/experiments/knapen_aot/AOT/AOT_stimuli/pictures/0282_fw.png	244.00427794456482	0.7500231266021729
121	123.21597599983215	response	0	j		119.0	/experiments/knapen_aot/AOT/AOT_stimuli/pictures/0282_fw.png	244.74384903907776	
122	123.22642803192139	picture	0		99	120.0	/experiments/knapen_aot/AOT/AOT_stimuli/pictures/1767_fw.png	244.754301071167	0.826326847076416
122	124.04094386100769	response	0	k		120.0	/experiments/knapen_aot/AOT/AOT_stimuli/pictures/1767_fw.png	245.5688169002533	
123	124.0527548789978	picture	0		88	121.0	/experiments/knapen_aot/AOT/AOT_stimuli/pictures/1324_fw.png	245.5806279182434	0.7380921840667725
123	124.76768898963928	response	0	j		121.0	/experiments/knapen_aot/AOT/AOT_stimuli/pictures/1324_fw.png	246.2955620288849	
124	124.79084706306458	picture	0		89	122.0	/experiments/knapen_aot/AOT/AOT_stimuli/pictures/0800_fw.png	246.31872010231018	0.7501068115234375
124	125.52429795265198	response	0	j		122.0	/experiments/knapen_aot/AOT/AOT_stimuli/pictures/0800_fw.png	247.05217099189758	
125	125.54095387458801	picture	0		143	123.0	/experiments/knapen_aot/AOT/AOT_stimuli/pictures/1470_fw.png	247.06882691383362	1.1998810768127441
125	126.72423005104065	response	0	k		123.0	/experiments/knapen_aot/AOT/AOT_stimuli/pictures/1470_fw.png	248.25210309028625	
126	126.74083495140076	picture	0		106	124.0	/experiments/knapen_aot/AOT/AOT_stimuli/pictures/0419_fw.png	248.26870799064636	0.8883109092712402
126	127.6159930229187	response	0	k		124.0	/experiments/knapen_aot/AOT/AOT_stimuli/pictures/0419_fw.png	249.1438660621643	
127	127.629145860672	picture	0		91	125.0	/experiments/knapen_aot/AOT/AOT_stimuli/pictures/2139_fw.png	249.1570188999176	0.7700560092926025
127	128.3825969696045	response	0	j		125.0	/experiments/knapen_aot/AOT/AOT_stimuli/pictures/2139_fw.png	249.9104700088501	
128	128.3992018699646	picture	0		94	126.0	/experiments/knapen_aot/AOT/AOT_stimuli/pictures/0178_fw.png	249.9270749092102	0.7924051284790039
128	129.1743278503418	response	0	k		126.0	/experiments/knapen_aot/AOT/AOT_stimuli/pictures/0178_fw.png	250.7022008895874	
129	129.1916069984436	picture	0		145	127.0	/experiments/knapen_aot/AOT/AOT_stimuli/pictures/0304_fw.png	250.7194800376892	1.2159309387207031
129	130.390958070755	response	0	j		127.0	/experiments/knapen_aot/AOT/AOT_stimuli/pictures/0304_fw.png	251.9188311100006	
130	130.4075379371643	picture	0		91	128.0	/experiments/knapen_aot/AOT/AOT_stimuli/pictures/0607_fw.png	251.9354109764099	0.7666170597076416
130	131.15154695510864	response	0	k		128.0	/experiments/knapen_aot/AOT/AOT_stimuli/pictures/0607_fw.png	252.67941999435425	
131	131.17415499687195	picture	0		78	129.0	/experiments/knapen_aot/AOT/AOT_stimuli/pictures/0332_fw.png	252.70202803611755	0.6582789421081543
131	131.81663990020752	response	0	k		129.0	/experiments/knapen_aot/AOT/AOT_stimuli/pictures/0332_fw.png	253.34451293945312	
132	131.8324339389801	picture	0		98	130.0	/experiments/knapen_aot/AOT/AOT_stimuli/pictures/1019_fw.png	253.3603069782257	0.8317880630493164
132	132.64095902442932	response	0	j		130.0	/experiments/knapen_aot/AOT/AOT_stimuli/pictures/1019_fw.png	254.16883206367493	
133	132.66422200202942	picture	0		89	131.0	/experiments/knapen_aot/AOT/AOT_stimuli/pictures/1103_fw.png	254.19209504127502	0.751572847366333
133	133.40001606941223	response	0	k		131.0	/experiments/knapen_aot/AOT/AOT_stimuli/pictures/1103_fw.png	254.92788910865784	
134	133.41579484939575	picture	0		102	132.0	/experiments/knapen_aot/AOT/AOT_stimuli/pictures/1572_fw.png	254.94366788864136	0.8591060638427734
134	134.25760507583618	response	0	k		132.0	/experiments/knapen_aot/AOT/AOT_stimuli/pictures/1572_fw.png	255.7854781150818	
135	134.27490091323853	picture	0		85	133.0	/experiments/knapen_aot/AOT/AOT_stimuli/pictures/0972_fw.png	255.80277395248413	0.7160141468048096
135	134.9742648601532	response	0	k		133.0	/experiments/knapen_aot/AOT/AOT_stimuli/pictures/0972_fw.png	256.5021378993988	
136	134.99091506004333	picture	0		107	134.0	/experiments/knapen_aot/AOT/AOT_stimuli/pictures/1538_fw.png	256.51878809928894	0.8999419212341309
136	135.87423396110535	response	0	k		134.0	/experiments/knapen_aot/AOT/AOT_stimuli/pictures/1538_fw.png	257.40210700035095	
137	135.89085698127747	picture	0		92	135.0	/experiments/knapen_aot/AOT/AOT_stimuli/pictures/0408_fw.png	257.41873002052307	0.7749669551849365
137	136.65001392364502	response	0	j		135.0	/experiments/knapen_aot/AOT/AOT_stimuli/pictures/0408_fw.png	258.1778869628906	
138	136.6658239364624	picture	0		88	136.0	/experiments/knapen_aot/AOT/AOT_stimuli/pictures/1276_fw.png	258.193696975708	0.7417490482330322
138	137.39088892936707	response	0	j		136.0	/experiments/knapen_aot/AOT/AOT_stimuli/pictures/1276_fw.png	258.91876196861267	
139	137.40757298469543	picture	0		102	137.0	/experiments/knapen_aot/AOT/AOT_stimuli/pictures/1123_fw.png	258.93544602394104	0.8582890033721924
139	138.24921703338623	response	0	k		137.0	/experiments/knapen_aot/AOT/AOT_stimuli/pictures/1123_fw.png	259.77709007263184	
140	138.26586198806763	picture	0		169	138.0	/experiments/knapen_aot/AOT/AOT_stimuli/pictures/2035_fw.png	259.79373502731323	1.4166078567504883
140	139.6658799648285	response	0	k		138.0	/experiments/knapen_aot/AOT/AOT_stimuli/pictures/2035_fw.png	261.1937530040741	
141	139.68246984481812	picture	0		82	139.0	/experiments/knapen_aot/AOT/AOT_stimuli/pictures/1597_fw.png	261.2103428840637	0.691688060760498
141	140.35822796821594	response	0	j		139.0	/experiments/knapen_aot/AOT/AOT_stimuli/pictures/1597_fw.png	261.88610100746155	
142	140.3741579055786	picture	0		162	140.0	/experiments/knapen_aot/AOT/AOT_stimuli/pictures/1807_fw.png	261.9020309448242	1.3520750999450684
142	141.71591806411743	response	0	k		140.0	/experiments/knapen_aot/AOT/AOT_stimuli/pictures/1807_fw.png	263.24379110336304	
143	141.72623300552368	picture	0		134	141.0	/experiments/knapen_aot/AOT/AOT_stimuli/pictures/2082_fw.png	263.2541060447693	1.1228599548339844
143	142.83256697654724	response	0	k		141.0	/experiments/knapen_aot/AOT/AOT_stimuli/pictures/2082_fw.png	264.36044001579285	
144	142.84909296035767	picture	0		82	142.0	/experiments/knapen_aot/AOT/AOT_stimuli/pictures/0905_fw.png	264.37696599960327	0.6917068958282471
144	143.52491402626038	response	0	k		142.0	/experiments/knapen_aot/AOT/AOT_stimuli/pictures/0905_fw.png	265.052787065506	
145	143.5407998561859	picture	0		378	143.0	/experiments/knapen_aot/AOT/AOT_stimuli/pictures/1790_fw.png	265.0686728954315	3.158346176147461
145	146.6825568675995	response	0	k		143.0	/experiments/knapen_aot/AOT/AOT_stimuli/pictures/1790_fw.png	268.2104299068451	
146	146.69914603233337	picture	0		257	144.0	/experiments/knapen_aot/AOT/AOT_stimuli/pictures/2150_fw.png	268.227019071579	2.1582999229431152
146	148.8325550556183	response	0	k		144.0	/experiments/knapen_aot/AOT/AOT_stimuli/pictures/2150_fw.png	270.3604280948639	
147	148.8574459552765	picture	0		92	145.0	/experiments/knapen_aot/AOT/AOT_stimuli/pictures/0484_fw.png	270.3853189945221	0.7749900817871094
147	149.6158800125122	response	0	j		145.0	/experiments/knapen_aot/AOT/AOT_stimuli/pictures/0484_fw.png	271.1437530517578	
148	149.6324360370636	picture	0		99	146.0	/experiments/knapen_aot/AOT/AOT_stimuli/pictures/0283_fw.png	271.1603090763092	0.8333568572998047
148	150.4491879940033	response	0	k		146.0	/experiments/knapen_aot/AOT/AOT_stimuli/pictures/0283_fw.png	271.9770610332489	
149	150.4657928943634	picture	0		418	147.0	/experiments/knapen_aot/AOT/AOT_stimuli/pictures/0527_fw.png	271.993665933609	3.491641044616699
149	153.93406701087952	response	0	k		147.0	/experiments/knapen_aot/AOT/AOT_stimuli/pictures/0527_fw.png	275.4619400501251	
150	153.9574339389801	picture	0		104	148.0	/experiments/knapen_aot/AOT/AOT_stimuli/pictures/0704_fw.png	275.4853069782257	0.8749599456787109
150	154.8164529800415	response	0	k		148.0	/experiments/knapen_aot/AOT/AOT_stimuli/pictures/0704_fw.png	276.3443260192871	
151	154.8323938846588	picture	0		107	149.0	/experiments/knapen_aot/AOT/AOT_stimuli/pictures/0150_fw.png	276.3602669239044	0.9000320434570312
151	155.71585202217102	response	0	j		149.0	/experiments/knapen_aot/AOT/AOT_stimuli/pictures/0150_fw.png	277.2437250614166	
152	155.73242592811584	picture	0		83	150.0	/experiments/knapen_aot/AOT/AOT_stimuli/pictures/1272_fw.png	277.26029896736145	0.695065975189209
152	156.41582894325256	response	0	k		150.0	/experiments/knapen_aot/AOT/AOT_stimuli/pictures/1272_fw.png	277.94370198249817	
153	156.42749190330505	picture	0		90	151.0	/experiments/knapen_aot/AOT/AOT_stimuli/pictures/0340_fw.png	277.95536494255066	0.7549149990081787
153	157.16580200195312	response	0	j		151.0	/experiments/knapen_aot/AOT/AOT_stimuli/pictures/0340_fw.png	278.69367504119873	
154	157.18240690231323	picture	0		90	152.0	/experiments/knapen_aot/AOT/AOT_stimuli/pictures/2016_fw.png	278.71027994155884	0.7520289421081543
154	157.92417907714844	response	0	k		152.0	/experiments/knapen_aot/AOT/AOT_stimuli/pictures/2016_fw.png	279.45205211639404	
155	157.9344358444214	picture	0		82	153.0	/experiments/knapen_aot/AOT/AOT_stimuli/pictures/0677_fw.png	279.462308883667	0.6896371841430664
155	158.60810804367065	response	0	k		153.0	/experiments/knapen_aot/AOT/AOT_stimuli/pictures/0677_fw.png	280.13598108291626	
156	158.62407302856445	picture	0		410	154.0	/experiments/knapen_aot/AOT/AOT_stimuli/pictures/0167_fw.png	280.15194606781006	3.4249930381774902
156	162.03258204460144	response	0	k		154.0	/experiments/knapen_aot/AOT/AOT_stimuli/pictures/0167_fw.png	283.56045508384705	
157	162.04906606674194	picture	0		135	155.0	/experiments/knapen_aot/AOT/AOT_stimuli/pictures/0892_fw.png	283.57693910598755	1.1333508491516113
157	163.15898299217224	response	0	k		155.0	/experiments/knapen_aot/AOT/AOT_stimuli/pictures/0892_fw.png	284.68685603141785	
158	163.18241691589355	picture	0		117	156.0	/experiments/knapen_aot/AOT/AOT_stimuli/pictures/0768_fw.png	284.71028995513916	0.9881191253662109
158	164.14230704307556	response	0	j		156.0	/experiments/knapen_aot/AOT/AOT_stimuli/pictures/0768_fw.png	285.67018008232117	
159	164.17053604125977	picture	0		91	157.0	/experiments/knapen_aot/AOT/AOT_stimuli/pictures/1859_fw.png	285.69840908050537	0.7707469463348389
159	164.92414498329163	response	0	j		157.0	/experiments/knapen_aot/AOT/AOT_stimuli/pictures/1859_fw.png	286.45201802253723	
160	164.9412829875946	picture	0		109	158.0	/experiments/knapen_aot/AOT/AOT_stimuli/pictures/2051_fw.png	286.4691560268402	0.9163119792938232
160	165.84082508087158	response	0	j		158.0	/experiments/knapen_aot/AOT/AOT_stimuli/pictures/2051_fw.png	287.3686981201172	
161	165.85759496688843	picture	0		90	159.0	/experiments/knapen_aot/AOT/AOT_stimuli/pictures/0588_fw.png	287.38546800613403	0.7582080364227295
161	166.59907507896423	response	0	k		159.0	/experiments/knapen_aot/AOT/AOT_stimuli/pictures/0588_fw.png	288.12694811820984	
162	166.61580300331116	picture	0		126	160.0	/experiments/knapen_aot/AOT/AOT_stimuli/pictures/0742_fw.png	288.14367604255676	1.05464506149292
162	167.6574728488922	response	0	k		160.0	/experiments/knapen_aot/AOT/AOT_stimuli/pictures/0742_fw.png	289.1853458881378	
163	167.67044806480408	picture	0		112	161.0	/experiments/knapen_aot/AOT/AOT_stimuli/pictures/1812_fw.png	289.1983211040497	0.9453859329223633
163	168.59908986091614	response	0	k		161.0	/experiments/knapen_aot/AOT/AOT_stimuli/pictures/1812_fw.png	290.12696290016174	
164	168.61583399772644	picture	0		237	162.0	/experiments/knapen_aot/AOT/AOT_stimuli/pictures/1907_fw.png	290.14370703697205	1.9781510829925537
164	170.58248901367188	response	0	k		162.0	/experiments/knapen_aot/AOT/AOT_stimuli/pictures/1907_fw.png	292.1103620529175	
165	170.593985080719	picture	0		93	163.0	/experiments/knapen_aot/AOT/AOT_stimuli/pictures/1262_fw.png	292.1218581199646	0.780059814453125
165	171.35070896148682	response	0	k		163.0	/experiments/knapen_aot/AOT/AOT_stimuli/pictures/1262_fw.png	292.8785820007324	
166	171.37404489517212	picture	0		94	164.0	/experiments/knapen_aot/AOT/AOT_stimuli/pictures/0042_fw.png	292.9019179344177	0.7916581630706787
166	172.1496229171753	response	0	k		164.0	/experiments/knapen_aot/AOT/AOT_stimuli/pictures/0042_fw.png	293.6774959564209	
167	172.1657030582428	picture	0		93	165.0	/experiments/knapen_aot/AOT/AOT_stimuli/pictures/0740_fw.png	293.6935760974884	0.7832369804382324
167	172.9256248474121	response	0	j		165.0	/experiments/knapen_aot/AOT/AOT_stimuli/pictures/0740_fw.png	294.4534978866577	
168	172.94894003868103	picture	0		86	166.0	/experiments/knapen_aot/AOT/AOT_stimuli/pictures/0576_fw.png	294.47681307792664	0.7250828742980957
168	173.65741205215454	response	0	k		166.0	/experiments/knapen_aot/AOT/AOT_stimuli/pictures/0576_fw.png	295.18528509140015	
169	173.67402291297913	picture	0		84	167.0	/experiments/knapen_aot/AOT/AOT_stimuli/pictures/1096_fw.png	295.20189595222473	0.7083079814910889
169	174.3657419681549	response	0	j		167.0	/experiments/knapen_aot/AOT/AOT_stimuli/pictures/1096_fw.png	295.8936150074005	
170	174.38233089447021	picture	0		81	168.0	/experiments/knapen_aot/AOT/AOT_stimuli/pictures/1427_fw.png	295.9102039337158	0.68385910987854
170	175.0490710735321	response	0	k		168.0	/experiments/knapen_aot/AOT/AOT_stimuli/pictures/1427_fw.png	296.5769441127777	
171	175.06619000434875	picture	0		112	169.0	/experiments/knapen_aot/AOT/AOT_stimuli/pictures/2158_fw.png	296.59406304359436	0.9495608806610107
171	175.9907078742981	response	0	j		169.0	/experiments/knapen_aot/AOT/AOT_stimuli/pictures/2158_fw.png	297.5185809135437	
172	176.01575088500977	picture	0		137	170.0	/experiments/knapen_aot/AOT/AOT_stimuli/pictures/0673_fw.png	297.54362392425537	1.1498851776123047
172	177.14232206344604	response	0	k		170.0	/experiments/knapen_aot/AOT/AOT_stimuli/pictures/0673_fw.png	298.67019510269165	
173	177.16563606262207	picture	0		101	171.0	/experiments/knapen_aot/AOT/AOT_stimuli/pictures/0469_fw.png	298.6935091018677	0.8586869239807129
173	177.9990758895874	response	0	k		171.0	/experiments/knapen_aot/AOT/AOT_stimuli/pictures/0469_fw.png	299.526948928833	
174	178.02432298660278	picture	0		189	172.0	/experiments/knapen_aot/AOT/AOT_stimuli/pictures/0059_fw.png	299.5521960258484	1.5830130577087402
174	179.59066200256348	response	0	j		172.0	/experiments/knapen_aot/AOT/AOT_stimuli/pictures/0059_fw.png	301.1185350418091	
175	179.60733604431152	picture	0		96	173.0	/experiments/knapen_aot/AOT/AOT_stimuli/pictures/0778_fw.png	301.13520908355713	0.808372974395752
175	180.3995680809021	response	0	k		173.0	/experiments/knapen_aot/AOT/AOT_stimuli/pictures/0778_fw.png	301.9274411201477	
176	180.41570901870728	picture	0		113	174.0	/experiments/knapen_aot/AOT/AOT_stimuli/pictures/1448_fw.png	301.9435820579529	0.9499118328094482
176	181.342365026474	response	0	k		174.0	/experiments/knapen_aot/AOT/AOT_stimuli/pictures/1448_fw.png	302.8702380657196	
177	181.36562085151672	picture	0		208	175.0	/experiments/knapen_aot/AOT/AOT_stimuli/pictures/2008_fw.png	302.89349389076233	1.7421960830688477
177	183.09069991111755	response	0	j		175.0	/experiments/knapen_aot/AOT/AOT_stimuli/pictures/2008_fw.png	304.61857295036316	
178	183.10781693458557	picture	0		99	176.0	/experiments/knapen_aot/AOT/AOT_stimuli/pictures/1772_fw.png	304.6356899738312	0.8333950042724609
178	183.91714787483215	response	0	j		176.0	/experiments/knapen_aot/AOT/AOT_stimuli/pictures/1772_fw.png	305.44502091407776	
179	183.94121193885803	picture	0		94	177.0	/experiments/knapen_aot/AOT/AOT_stimuli/pictures/0947_fw.png	305.46908497810364	0.7910840511322021
179	184.71571898460388	response	0	k		177.0	/experiments/knapen_aot/AOT/AOT_stimuli/pictures/0947_fw.png	306.2435920238495	
180	184.73229598999023	picture	0		86	178.0	/experiments/knapen_aot/AOT/AOT_stimuli/pictures/1761_fw.png	306.26016902923584	0.7253890037536621
180	185.4412350654602	response	0	k		178.0	/experiments/knapen_aot/AOT/AOT_stimuli/pictures/1761_fw.png	306.9691081047058	
181	185.4576849937439	picture	0		110	179.0	/experiments/knapen_aot/AOT/AOT_stimuli/pictures/0970_fw.png	306.9855580329895	0.9209420680999756
181	186.3657259941101	response	0	k		179.0	/experiments/knapen_aot/AOT/AOT_stimuli/pictures/0970_fw.png	307.8935990333557	
182	186.37862706184387	picture	0		87	180.0	/experiments/knapen_aot/AOT/AOT_stimuli/pictures/1065_fw.png	307.9065001010895	0.7369799613952637
182	187.09906697273254	response	0	k		180.0	/experiments/knapen_aot/AOT/AOT_stimuli/pictures/1065_fw.png	308.62694001197815	
183	187.11560702323914	picture	0		103	181.0	/experiments/knapen_aot/AOT/AOT_stimuli/pictures/0136_fw.png	308.64348006248474	0.867271900177002
183	187.96570205688477	response	0	k		181.0	/experiments/knapen_aot/AOT/AOT_stimuli/pictures/0136_fw.png	309.49357509613037	
184	187.98287892341614	picture	0		83	182.0	/experiments/knapen_aot/AOT/AOT_stimuli/pictures/0124_fw.png	309.51075196266174	0.6993250846862793
184	188.66570901870728	response	0	j		182.0	/experiments/knapen_aot/AOT/AOT_stimuli/pictures/0124_fw.png	310.1935820579529	
185	188.68220400810242	picture	0		91	183.0	/experiments/knapen_aot/AOT/AOT_stimuli/pictures/0907_fw.png	310.210077047348	0.7670960426330566
185	189.43234491348267	response	0	k		183.0	/experiments/knapen_aot/AOT/AOT_stimuli/pictures/0907_fw.png	310.96021795272827	
186	189.44930005073547	picture	0		165	184.0	/experiments/knapen_aot/AOT/AOT_stimuli/pictures/1801_fw.png	310.9771730899811	1.3829560279846191
186	190.81616401672363	response	0	j		184.0	/experiments/knapen_aot/AOT/AOT_stimuli/pictures/1801_fw.png	312.34403705596924	
187	190.8322560787201	picture	0		88	185.0	/experiments/knapen_aot/AOT/AOT_stimuli/pictures/1150_fw.png	312.3601291179657	0.7416768074035645
187	191.55734300613403	response	0	k		185.0	/experiments/knapen_aot/AOT/AOT_stimuli/pictures/1150_fw.png	313.08521604537964	
188	191.57393288612366	picture	0		111	186.0	/experiments/knapen_aot/AOT/AOT_stimuli/pictures/0017_fw.png	313.10180592536926	0.9335510730743408
188	192.49072289466858	response	0	j		186.0	/experiments/knapen_aot/AOT/AOT_stimuli/pictures/0017_fw.png	314.0185959339142	
189	192.507483959198	picture	0		103	187.0	/experiments/knapen_aot/AOT/AOT_stimuli/pictures/1928_fw.png	314.0353569984436	0.8664751052856445
189	193.35786199569702	response	0	k		187.0	/experiments/knapen_aot/AOT/AOT_stimuli/pictures/1928_fw.png	314.8857350349426	
190	193.37395906448364	picture	0		85	188.0	/experiments/knapen_aot/AOT/AOT_stimuli/pictures/1984_fw.png	314.90183210372925	0.7128767967224121
190	194.07398390769958	response	0	k		188.0	/experiments/knapen_aot/AOT/AOT_stimuli/pictures/1984_fw.png	315.6018569469452	
191	194.08683586120605	picture	0		316	189.0	/experiments/knapen_aot/AOT/AOT_stimuli/pictures/1107_fw.png	315.61470890045166	2.6388981342315674
191	196.7073450088501	response	0	k		189.0	/experiments/knapen_aot/AOT/AOT_stimuli/pictures/1107_fw.png	318.2352180480957	
192	196.72573399543762	picture	0		84	190.0	/experiments/knapen_aot/AOT/AOT_stimuli/pictures/0520_fw.png	318.2536070346832	0.7013840675354004
192	197.4155728816986	response	0	k		190.0	/experiments/knapen_aot/AOT/AOT_stimuli/pictures/0520_fw.png	318.9434459209442	
193	197.42711806297302	picture	0		99	191.0	/experiments/knapen_aot/AOT/AOT_stimuli/pictures/1296_fw.png	318.9549911022186	0.8301730155944824
193	198.24065685272217	response	0	k		191.0	/experiments/knapen_aot/AOT/AOT_stimuli/pictures/1296_fw.png	319.7685298919678	
194	198.2572910785675	picture	0		159	192.0	/experiments/knapen_aot/AOT/AOT_stimuli/pictures/1720_fw.png	319.7851641178131	1.33329176902771
194	199.57399892807007	response	0	j		192.0	/experiments/knapen_aot/AOT/AOT_stimuli/pictures/1720_fw.png	321.1018719673157	
195	199.59058284759521	picture	0		329	193.0	/experiments/knapen_aot/AOT/AOT_stimuli/pictures/1890_fw.png	321.1184558868408	2.7948100566864014
195	202.3175928592682	response	0	j		193.0	/experiments/knapen_aot/AOT/AOT_stimuli/pictures/1890_fw.png	323.8454658985138	
196	202.38539290428162	picture	0		198	194.0	/experiments/knapen_aot/AOT/AOT_stimuli/pictures/1594_fw.png	323.9132659435272	1.6555030345916748
196	204.02435207366943	response	0	j		194.0	/experiments/knapen_aot/AOT/AOT_stimuli/pictures/1594_fw.png	325.55222511291504	
197	204.0408959388733	picture	0		88	195.0	/experiments/knapen_aot/AOT/AOT_stimuli/pictures/0826_fw.png	325.5687689781189	0.7473311424255371
197	204.76556086540222	response	0	k		195.0	/experiments/knapen_aot/AOT/AOT_stimuli/pictures/0826_fw.png	326.2934339046478	
198	204.78822708129883	picture	0		132	196.0	/experiments/knapen_aot/AOT/AOT_stimuli/pictures/0025_fw.png	326.31610012054443	1.1040968894958496
198	205.8822100162506	response	0	k		196.0	/experiments/knapen_aot/AOT/AOT_stimuli/pictures/0025_fw.png	327.4100830554962	
199	205.89232397079468	picture	0		102	197.0	/experiments/knapen_aot/AOT/AOT_stimuli/pictures/1922_fw.png	327.4201970100403	0.8610539436340332
199	206.73265290260315	response	0	k		197.0	/experiments/knapen_aot/AOT/AOT_stimuli/pictures/1922_fw.png	328.26052594184875	
200	206.7533779144287	picture	0		97	198.0	/experiments/knapen_aot/AOT/AOT_stimuli/pictures/1900_fw.png	328.2812509536743	0.8126389980316162
200	207.54889106750488	response	0	j		198.0	/experiments/knapen_aot/AOT/AOT_stimuli/pictures/1900_fw.png	329.0767641067505	
201	207.56601691246033	picture	0		96	199.0	/experiments/knapen_aot/AOT/AOT_stimuli/pictures/1444_fw.png	329.09388995170593	0.8077700138092041
201	208.35765600204468	response	0	j		199.0	/experiments/knapen_aot/AOT/AOT_stimuli/pictures/1444_fw.png	329.8855290412903	
202	208.37378692626953	picture	0		98	200.0	/experiments/knapen_aot/AOT/AOT_stimuli/pictures/0984_fw.png	329.90165996551514	0.8252880573272705
202	209.1822738647461	response	0	j		200.0	/experiments/knapen_aot/AOT/AOT_stimuli/pictures/0984_fw.png	330.7101469039917	
203	209.1990749835968	picture	0		100	201.0	/experiments/knapen_aot/AOT/AOT_stimuli/pictures/1797_fw.png	330.7269480228424	0.8414340019226074
203	210.02429795265198	response	0	j		201.0	/experiments/knapen_aot/AOT/AOT_stimuli/pictures/1797_fw.png	331.5521709918976	
204	210.0405089855194	picture	0		96	202.0	/experiments/knapen_aot/AOT/AOT_stimuli/pictures/1475_fw.png	331.568382024765	0.8100380897521973
204	210.83230805397034	response	0	j		202.0	/experiments/knapen_aot/AOT/AOT_stimuli/pictures/1475_fw.png	332.36018109321594	
205	210.8505470752716	picture	0		125	203.0	/experiments/knapen_aot/AOT/AOT_stimuli/pictures/0592_fw.png	332.3784201145172	1.0486299991607666
205	211.8822979927063	response	0	j		203.0	/experiments/knapen_aot/AOT/AOT_stimuli/pictures/0592_fw.png	333.4101710319519	
206	211.89917707443237	picture	0		110	204.0	/experiments/knapen_aot/AOT/AOT_stimuli/pictures/1458_fw.png	333.427050113678	0.9246490001678467
206	212.80721807479858	response	0	j		204.0	/experiments/knapen_aot/AOT/AOT_stimuli/pictures/1458_fw.png	334.3350911140442	
207	212.82382607460022	picture	0		99	205.0	/experiments/knapen_aot/AOT/AOT_stimuli/pictures/0215_fw.png	334.3516991138458	0.833319902420044
207	213.64058184623718	response	0	j		205.0	/experiments/knapen_aot/AOT/AOT_stimuli/pictures/0215_fw.png	335.1684548854828	
208	213.65714597702026	picture	0		106	206.0	/experiments/knapen_aot/AOT/AOT_stimuli/pictures/1306_fw.png	335.18501901626587	0.8916289806365967
208	214.53224205970764	response	0	j		206.0	/experiments/knapen_aot/AOT/AOT_stimuli/pictures/1306_fw.png	336.06011509895325	
209	214.54877495765686	picture	0		123	207.0	/experiments/knapen_aot/AOT/AOT_stimuli/pictures/0672_fw.png	336.07664799690247	1.03354811668396
209	215.56601691246033	response	0	j		207.0	/experiments/knapen_aot/AOT/AOT_stimuli/pictures/0672_fw.png	337.09388995170593	
210	215.58232307434082	picture	0		98	208.0	/experiments/knapen_aot/AOT/AOT_stimuli/pictures/0459_fw.png	337.1101961135864	0.8249349594116211
210	216.3906319141388	response	0	k		208.0	/experiments/knapen_aot/AOT/AOT_stimuli/pictures/0459_fw.png	337.9185049533844	
211	216.40725803375244	picture	0		135	209.0	/experiments/knapen_aot/AOT/AOT_stimuli/pictures/0578_fw.png	337.93513107299805	1.1331579685211182
211	217.52428889274597	response	0	k		209.0	/experiments/knapen_aot/AOT/AOT_stimuli/pictures/0578_fw.png	339.0521619319916	
212	217.54041600227356	picture	0		99	210.0	/experiments/knapen_aot/AOT/AOT_stimuli/pictures/1589_fw.png	339.06828904151917	0.8334250450134277
212	218.35753202438354	response	0	k		210.0	/experiments/knapen_aot/AOT/AOT_stimuli/pictures/1589_fw.png	339.88540506362915	
213	218.373841047287	picture	0		99	211.0	/experiments/knapen_aot/AOT/AOT_stimuli/pictures/1816_fw.png	339.9017140865326	0.8378469944000244
213	219.19090294837952	response	0	j		211.0	/experiments/knapen_aot/AOT/AOT_stimuli/pictures/1816_fw.png	340.7187759876251	
214	219.211688041687	picture	0		122	212.0	/experiments/knapen_aot/AOT/AOT_stimuli/pictures/1773_fw.png	340.7395610809326	1.0287559032440186
214	220.22390699386597	response	0	j		212.0	/experiments/knapen_aot/AOT/AOT_stimuli/pictures/1773_fw.png	341.7517800331116	
215	220.24044394493103	picture	0		146	213.0	/experiments/knapen_aot/AOT/AOT_stimuli/pictures/0455_fw.png	341.76831698417664	1.2281179428100586
215	221.44897603988647	response	0	j		213.0	/experiments/knapen_aot/AOT/AOT_stimuli/pictures/0455_fw.png	342.9768490791321	
216	221.4685618877411	picture	0		139	214.0	/experiments/knapen_aot/AOT/AOT_stimuli/pictures/0936_fw.png	342.9964349269867	1.1636171340942383
216	222.6155469417572	response	0	j		214.0	/experiments/knapen_aot/AOT/AOT_stimuli/pictures/0936_fw.png	344.1434199810028	
217	222.63217902183533	picture	0		105	215.0	/experiments/knapen_aot/AOT/AOT_stimuli/pictures/0649_fw.png	344.16005206108093	0.8780889511108398
217	223.49192595481873	response	0	k		215.0	/experiments/knapen_aot/AOT/AOT_stimuli/pictures/0649_fw.png	345.01979899406433	
218	223.51026797294617	picture	0		84	216.0	/experiments/knapen_aot/AOT/AOT_stimuli/pictures/1450_fw.png	345.0381410121918	0.7082550525665283
218	224.1989140510559	response	0	k		216.0	/experiments/knapen_aot/AOT/AOT_stimuli/pictures/1450_fw.png	345.7267870903015	
219	224.2185230255127	picture	0		190	217.0	/experiments/knapen_aot/AOT/AOT_stimuli/pictures/1246_fw.png	345.7463960647583	1.5886459350585938
219	225.79058599472046	response	0	k		217.0	/experiments/knapen_aot/AOT/AOT_stimuli/pictures/1246_fw.png	347.31845903396606	
220	225.8071689605713	picture	0		119	218.0	/experiments/knapen_aot/AOT/AOT_stimuli/pictures/1505_fw.png	347.3350419998169	0.9946739673614502
220	226.7905490398407	response	0	k		218.0	/experiments/knapen_aot/AOT/AOT_stimuli/pictures/1505_fw.png	348.3184220790863	
221	226.80184292793274	picture	0		93	219.0	/experiments/knapen_aot/AOT/AOT_stimuli/pictures/0475_fw.png	348.32971596717834	0.7777421474456787
221	227.5658049583435	response	0	k		219.0	/experiments/knapen_aot/AOT/AOT_stimuli/pictures/0475_fw.png	349.0936779975891	
222	227.57958507537842	picture	0		104	220.0	/experiments/knapen_aot/AOT/AOT_stimuli/pictures/1285_fw.png	349.107458114624	0.8775959014892578
222	228.4408049583435	response	0	j		220.0	/experiments/knapen_aot/AOT/AOT_stimuli/pictures/1285_fw.png	349.9686779975891	
223	228.45718097686768	picture	0		77	221.0	/experiments/knapen_aot/AOT/AOT_stimuli/pictures/1719_fw.png	349.9850540161133	0.6499879360198975
223	229.09051704406738	response	0	j		221.0	/experiments/knapen_aot/AOT/AOT_stimuli/pictures/1719_fw.png	350.618390083313	
224	229.10716891288757	picture	0		111	222.0	/experiments/knapen_aot/AOT/AOT_stimuli/pictures/1858_fw.png	350.6350419521332	0.9332301616668701
224	230.02430987358093	response	0	j		222.0	/experiments/knapen_aot/AOT/AOT_stimuli/pictures/1858_fw.png	351.55218291282654	
225	230.04039907455444	picture	0		92	223.0	/experiments/knapen_aot/AOT/AOT_stimuli/pictures/1560_fw.png	351.56827211380005	0.7753489017486572
225	230.79882502555847	response	0	j		223.0	/experiments/knapen_aot/AOT/AOT_stimuli/pictures/1560_fw.png	352.3266980648041	
226	230.8157479763031	picture	0		137	224.0	/experiments/knapen_aot/AOT/AOT_stimuli/pictures/0405_fw.png	352.3436210155487	1.1497960090637207
226	231.94885993003845	response	0	k		224.0	/experiments/knapen_aot/AOT/AOT_stimuli/pictures/0405_fw.png	353.47673296928406	
227	231.96554398536682	picture	0		90	225.0	/experiments/knapen_aot/AOT/AOT_stimuli/pictures/2047_fw.png	353.4934170246124	0.7582509517669678
227	232.70034289360046	response	0	j		225.0	/experiments/knapen_aot/AOT/AOT_stimuli/pictures/2047_fw.png	354.22821593284607	
228	232.7237949371338	picture	0		105	226.0	/experiments/knapen_aot/AOT/AOT_stimuli/pictures/0739_fw.png	354.2516679763794	0.8833560943603516
228	233.59053587913513	response	0	j		226.0	/experiments/knapen_aot/AOT/AOT_stimuli/pictures/0739_fw.png	355.11840891838074	
229	233.60715103149414	picture	0		102	227.0	/experiments/knapen_aot/AOT/AOT_stimuli/pictures/1948_fw.png	355.13502407073975	0.8583099842071533
229	234.44881987571716	response	0	j		227.0	/experiments/knapen_aot/AOT/AOT_stimuli/pictures/1948_fw.png	355.97669291496277	
230	234.4654610157013	picture	0		99	228.0	/experiments/knapen_aot/AOT/AOT_stimuli/pictures/0067_fw.png	355.9933340549469	0.8336930274963379
230	235.28216004371643	response	0	j		228.0	/experiments/knapen_aot/AOT/AOT_stimuli/pictures/0067_fw.png	356.81003308296204	
231	235.29915404319763	picture	0		137	229.0	/experiments/knapen_aot/AOT/AOT_stimuli/pictures/0060_fw.png	356.82702708244324	1.1496119499206543
231	236.4321789741516	response	0	j		229.0	/experiments/knapen_aot/AOT/AOT_stimuli/pictures/0060_fw.png	357.9600520133972	
232	236.4487659931183	picture	0		89	230.0	/experiments/knapen_aot/AOT/AOT_stimuli/pictures/1087_fw.png	357.9766390323639	0.7499940395355225
232	237.18215703964233	response	0	k		230.0	/experiments/knapen_aot/AOT/AOT_stimuli/pictures/1087_fw.png	358.71003007888794	
233	237.1987600326538	picture	0		103	231.0	/experiments/knapen_aot/AOT/AOT_stimuli/pictures/0168_fw.png	358.7266330718994	0.866657018661499
233	238.04884600639343	response	0	j		231.0	/experiments/knapen_aot/AOT/AOT_stimuli/pictures/0168_fw.png	359.57671904563904	
234	238.0654170513153	picture	0		116	232.0	/experiments/knapen_aot/AOT/AOT_stimuli/pictures/1657_fw.png	359.5932900905609	0.9834418296813965
234	239.02401399612427	response	0	j		232.0	/experiments/knapen_aot/AOT/AOT_stimuli/pictures/1657_fw.png	360.5518870353699	
235	239.0488588809967	picture	0		93	233.0	/experiments/knapen_aot/AOT/AOT_stimuli/pictures/0655_fw.png	360.5767319202423	0.7832281589508057
235	239.8156819343567	response	0	k		233.0	/experiments/knapen_aot/AOT/AOT_stimuli/pictures/0655_fw.png	361.3435549736023	
236	239.8320870399475	picture	0		127	234.0	/experiments/knapen_aot/AOT/AOT_stimuli/pictures/1478_fw.png	361.3599600791931	1.0666580200195312
236	240.882159948349	response	0	j		234.0	/experiments/knapen_aot/AOT/AOT_stimuli/pictures/1478_fw.png	362.4100329875946	
237	240.89874505996704	picture	0		100	235.0	/experiments/knapen_aot/AOT/AOT_stimuli/pictures/1041_fw.png	362.42661809921265	0.8416309356689453
237	241.7169690132141	response	0	j		235.0	/experiments/knapen_aot/AOT/AOT_stimuli/pictures/1041_fw.png	363.2448420524597	
238	241.740375995636	picture	0		86	236.0	/experiments/knapen_aot/AOT/AOT_stimuli/pictures/0581_fw.png	363.2682490348816	0.7249479293823242
238	242.44882488250732	response	0	k		236.0	/experiments/knapen_aot/AOT/AOT_stimuli/pictures/0581_fw.png	363.97669792175293	
239	242.4653239250183	picture	0		117	237.0	/experiments/knapen_aot/AOT/AOT_stimuli/pictures/0396_fw.png	363.9931969642639	0.9834330081939697
239	243.4321460723877	response	0	j		237.0	/experiments/knapen_aot/AOT/AOT_stimuli/pictures/0396_fw.png	364.9600191116333	
240	243.44875693321228	picture	0		91	238.0	/experiments/knapen_aot/AOT/AOT_stimuli/pictures/0815_fw.png	364.9766299724579	0.7666900157928467
240	244.1988549232483	response	0	j		238.0	/experiments/knapen_aot/AOT/AOT_stimuli/pictures/0815_fw.png	365.7267279624939	
241	244.21544694900513	picture	0		112	239.0	/experiments/knapen_aot/AOT/AOT_stimuli/pictures/1284_fw.png	365.74331998825073	0.9416229724884033
241	245.14046096801758	response	0	k		239.0	/experiments/knapen_aot/AOT/AOT_stimuli/pictures/1284_fw.png	366.6683340072632	
242	245.15706992149353	picture	0		91	240.0	/experiments/knapen_aot/AOT/AOT_stimuli/pictures/1193_fw.png	366.68494296073914	0.7626769542694092
242	245.9004418849945	response	0	j		240.0	/experiments/knapen_aot/AOT/AOT_stimuli/pictures/1193_fw.png	367.4283149242401	
243	245.91974687576294	picture	0		107	241.0	/experiments/knapen_aot/AOT/AOT_stimuli/pictures/1036_fw.png	367.44761991500854	0.8957560062408447
243	246.79886507987976	response	0	j		241.0	/experiments/knapen_aot/AOT/AOT_stimuli/pictures/1036_fw.png	368.32673811912537	
244	246.81550288200378	picture	0		98	242.0	/experiments/knapen_aot/AOT/AOT_stimuli/pictures/0144_fw.png	368.3433759212494	0.8264431953430176
244	247.623792886734	response	0	k		242.0	/experiments/knapen_aot/AOT/AOT_stimuli/pictures/0144_fw.png	369.1516659259796	
245	247.6419460773468	picture	0		94	243.0	/experiments/knapen_aot/AOT/AOT_stimuli/pictures/0470_fw.png	369.1698191165924	0.7901148796081543
245	248.41547298431396	response	0	k		243.0	/experiments/knapen_aot/AOT/AOT_stimuli/pictures/0470_fw.png	369.94334602355957	
246	248.43206095695496	picture	0		90	244.0	/experiments/knapen_aot/AOT/AOT_stimuli/pictures/0255_fw.png	369.95993399620056	0.7583351135253906
246	249.17378306388855	response	0	j		244.0	/experiments/knapen_aot/AOT/AOT_stimuli/pictures/0255_fw.png	370.70165610313416	
247	249.19039607048035	picture	0		97	245.0	/experiments/knapen_aot/AOT/AOT_stimuli/pictures/1386_fw.png	370.71826910972595	0.8195159435272217
247	249.99045395851135	response	0	j		245.0	/experiments/knapen_aot/AOT/AOT_stimuli/pictures/1386_fw.png	371.51832699775696	
248	250.00991201400757	picture	0		86	246.0	/experiments/knapen_aot/AOT/AOT_stimuli/pictures/0256_fw.png	371.5377850532532	0.7222578525543213
248	250.7085518836975	response	0	k		246.0	/experiments/knapen_aot/AOT/AOT_stimuli/pictures/0256_fw.png	372.2364249229431	
249	250.7321698665619	picture	0		111	247.0	/experiments/knapen_aot/AOT/AOT_stimuli/pictures/0324_fw.png	372.2600429058075	0.9332079887390137
249	251.64890503883362	response	0	k		247.0	/experiments/knapen_aot/AOT/AOT_stimuli/pictures/0324_fw.png	373.1767780780792	
250	251.6653778553009	picture	0		126	248.0	/experiments/knapen_aot/AOT/AOT_stimuli/pictures/0388_fw.png	373.1932508945465	1.0528631210327148
250	252.7003948688507	response	0	k		248.0	/experiments/knapen_aot/AOT/AOT_stimuli/pictures/0388_fw.png	374.2282679080963	
251	252.71824097633362	picture	0		90	249.0	/experiments/knapen_aot/AOT/AOT_stimuli/pictures/1419_fw.png	374.2461140155792	0.7569310665130615
251	253.457181930542	response	0	k		249.0	/experiments/knapen_aot/AOT/AOT_stimuli/pictures/1419_fw.png	374.9850549697876	
252	253.47517204284668	picture	0		102	250.0	/experiments/knapen_aot/AOT/AOT_stimuli/pictures/0840_fw.png	375.0030450820923	0.8569159507751465
252	254.3155288696289	response	0	j		250.0	/experiments/knapen_aot/AOT/AOT_stimuli/pictures/0840_fw.png	375.8434019088745	
253	254.33208799362183	picture	0		129	251.0	/experiments/knapen_aot/AOT/AOT_stimuli/pictures/1705_fw.png	375.85996103286743	1.0832750797271729
253	255.39893007278442	response	0	j		251.0	/experiments/knapen_aot/AOT/AOT_stimuli/pictures/1705_fw.png	376.92680311203003	
254	255.415363073349	picture	0		103	252.0	/experiments/knapen_aot/AOT/AOT_stimuli/pictures/2136_fw.png	376.9432361125946	0.8666529655456543
254	256.2654299736023	response	0	j		252.0	/experiments/knapen_aot/AOT/AOT_stimuli/pictures/2136_fw.png	377.7933030128479	
255	256.28201603889465	picture	0		96	253.0	/experiments/knapen_aot/AOT/AOT_stimuli/pictures/1856_fw.png	377.80988907814026	0.8181419372558594
255	257.07375502586365	response	0	k		253.0	/experiments/knapen_aot/AOT/AOT_stimuli/pictures/1856_fw.png	378.60162806510925	
256	257.1001579761505	picture	0		103	254.0	/experiments/knapen_aot/AOT/AOT_stimuli/pictures/0122_fw.png	378.6280310153961	0.8680479526519775
256	257.9487099647522	response	0	j		254.0	/experiments/knapen_aot/AOT/AOT_stimuli/pictures/0122_fw.png	379.4765830039978	
257	257.9682059288025	picture	0		122	255.0	/experiments/knapen_aot/AOT/AOT_stimuli/pictures/0575_fw.png	379.4960789680481	1.0220890045166016
257	258.9737410545349	response	0	k		255.0	/experiments/knapen_aot/AOT/AOT_stimuli/pictures/0575_fw.png	380.5016140937805	
258	258.9902949333191	picture	0		98	256.0	/experiments/knapen_aot/AOT/AOT_stimuli/pictures/1788_fw.png	380.5181679725647	0.8251481056213379
258	259.7987358570099	response	0	k		256.0	/experiments/knapen_aot/AOT/AOT_stimuli/pictures/1788_fw.png	381.3266088962555	
259	259.81544303894043	picture	0		101	257.0	/experiments/knapen_aot/AOT/AOT_stimuli/pictures/0573_fw.png	381.34331607818604	0.8502399921417236
259	260.648854970932	response	0	j		257.0	/experiments/knapen_aot/AOT/AOT_stimuli/pictures/0573_fw.png	382.1767280101776	
260	260.66568303108215	picture	0		93	258.0	/experiments/knapen_aot/AOT/AOT_stimuli/pictures/0446_fw.png	382.19355607032776	0.7829709053039551
260	261.4320259094238	response	0	k		258.0	/experiments/knapen_aot/AOT/AOT_stimuli/pictures/0446_fw.png	382.95989894866943	
261	261.4486539363861	picture	0		95	259.0	/experiments/knapen_aot/AOT/AOT_stimuli/pictures/0364_fw.png	382.9765269756317	0.7999439239501953
261	262.23215985298157	response	0	k		259.0	/experiments/knapen_aot/AOT/AOT_stimuli/pictures/0364_fw.png	383.7600328922272	
262	262.2485978603363	picture	0		165	260.0	/experiments/knapen_aot/AOT/AOT_stimuli/pictures/1947_fw.png	383.7764708995819	1.3793439865112305
262	263.6154148578644	response	0	j		260.0	/experiments/knapen_aot/AOT/AOT_stimuli/pictures/1947_fw.png	385.14328789711	
263	263.62794184684753	picture	0		90	261.0	/experiments/knapen_aot/AOT/AOT_stimuli/pictures/2101_fw.png	385.15581488609314	0.7623751163482666
263	264.3737459182739	response	0	k		261.0	/experiments/knapen_aot/AOT/AOT_stimuli/pictures/2101_fw.png	385.90161895751953	
264	264.3903169631958	picture	0		102	262.0	/experiments/knapen_aot/AOT/AOT_stimuli/pictures/1151_fw.png	385.9181900024414	0.8582930564880371
264	265.2321059703827	response	0	j		262.0	/experiments/knapen_aot/AOT/AOT_stimuli/pictures/1151_fw.png	386.7599790096283	
265	265.24861001968384	picture	0		104	263.0	/experiments/knapen_aot/AOT/AOT_stimuli/pictures/1173_fw.png	386.77648305892944	0.8750529289245605
265	266.10015296936035	response	0	k		263.0	/experiments/knapen_aot/AOT/AOT_stimuli/pictures/1173_fw.png	387.62802600860596	
266	266.1236629486084	picture	0		89	264.0	/experiments/knapen_aot/AOT/AOT_stimuli/pictures/0114_fw.png	387.651535987854	0.7472100257873535
266	266.8570878505707	response	0	k		264.0	/experiments/knapen_aot/AOT/AOT_stimuli/pictures/0114_fw.png	388.3849608898163	
267	266.87087297439575	picture	0		95	265.0	/experiments/knapen_aot/AOT/AOT_stimuli/pictures/2164_fw.png	388.39874601364136	0.7986209392547607
267	267.6570589542389	response	0	k		265.0	/experiments/knapen_aot/AOT/AOT_stimuli/pictures/2164_fw.png	389.1849319934845	
268	267.6694939136505	picture	0		90	266.0	/experiments/knapen_aot/AOT/AOT_stimuli/pictures/2020_fw.png	389.1973669528961	0.76249098777771
268	268.41536808013916	response	0	j		266.0	/experiments/knapen_aot/AOT/AOT_stimuli/pictures/2020_fw.png	389.94324111938477	
269	268.4319849014282	picture	0		91	267.0	/experiments/knapen_aot/AOT/AOT_stimuli/pictures/1003_fw.png	389.9598579406738	0.7665841579437256
269	269.1819579601288	response	0	j		267.0	/experiments/knapen_aot/AOT/AOT_stimuli/pictures/1003_fw.png	390.7098309993744	
270	269.19856905937195	picture	0		86	268.0	/experiments/knapen_aot/AOT/AOT_stimuli/pictures/1254_fw.png	390.72644209861755	0.727855920791626
270	269.9070210456848	response	0	j		268.0	/experiments/knapen_aot/AOT/AOT_stimuli/pictures/1254_fw.png	391.4348940849304	
271	269.9264249801636	picture	0		79	269.0	/experiments/knapen_aot/AOT/AOT_stimuli/pictures/2175_fw.png	391.4542980194092	0.663856029510498
271	270.5736699104309	response	0	k		269.0	/experiments/knapen_aot/AOT/AOT_stimuli/pictures/2175_fw.png	392.1015429496765	
272	270.5902810096741	picture	0		110	270.0	/experiments/knapen_aot/AOT/AOT_stimuli/pictures/2033_fw.png	392.1181540489197	0.9251408576965332
272	271.49181294441223	response	0	k		270.0	/experiments/knapen_aot/AOT/AOT_stimuli/pictures/2033_fw.png	393.01968598365784	
273	271.5154218673706	picture	0		101	271.0	/experiments/knapen_aot/AOT/AOT_stimuli/pictures/1393_fw.png	393.0432949066162	0.8498530387878418
273	272.3487079143524	response	0	k		271.0	/experiments/knapen_aot/AOT/AOT_stimuli/pictures/1393_fw.png	393.876580953598	
274	272.36527490615845	picture	0		81	272.0	/experiments/knapen_aot/AOT/AOT_stimuli/pictures/1940_fw.png	393.89314794540405	0.6833009719848633
274	273.03201603889465	response	0	j		272.0	/experiments/knapen_aot/AOT/AOT_stimuli/pictures/1940_fw.png	394.55988907814026	
275	273.0485758781433	picture	0		81	273.0	/experiments/knapen_aot/AOT/AOT_stimuli/pictures/2123_fw.png	394.5764489173889	0.6833620071411133
275	273.71536207199097	response	0	j		273.0	/experiments/knapen_aot/AOT/AOT_stimuli/pictures/2123_fw.png	395.2432351112366	
276	273.7319378852844	picture	0		98	274.0	/experiments/knapen_aot/AOT/AOT_stimuli/pictures/0566_fw.png	395.25981092453003	0.825031042098999
276	274.54034900665283	response	0	j		274.0	/experiments/knapen_aot/AOT/AOT_stimuli/pictures/0566_fw.png	396.06822204589844	
277	274.5569689273834	picture	0		79	275.0	/experiments/knapen_aot/AOT/AOT_stimuli/pictures/2173_fw.png	396.084841966629	0.666640043258667
277	275.2069010734558	response	0	k		275.0	/experiments/knapen_aot/AOT/AOT_stimuli/pictures/2173_fw.png	396.7347741127014	
278	275.2236089706421	picture	0		108	276.0	/experiments/knapen_aot/AOT/AOT_stimuli/pictures/1198_fw.png	396.7514820098877	0.9083850383758545
278	276.1153419017792	response	0	j		276.0	/experiments/knapen_aot/AOT/AOT_stimuli/pictures/1198_fw.png	397.6432149410248	
279	276.13199400901794	picture	0		103	277.0	/experiments/knapen_aot/AOT/AOT_stimuli/pictures/1579_fw.png	397.65986704826355	0.8667080402374268
279	276.9820249080658	response	0	j		277.0	/experiments/knapen_aot/AOT/AOT_stimuli/pictures/1579_fw.png	398.5098979473114	
280	276.99870204925537	picture	0		101	278.0	/experiments/knapen_aot/AOT/AOT_stimuli/pictures/1023_fw.png	398.526575088501	0.8498928546905518
280	277.8320050239563	response	0	j		278.0	/experiments/knapen_aot/AOT/AOT_stimuli/pictures/1023_fw.png	399.3598780632019	
281	277.8485949039459	picture	0		91	279.0	/experiments/knapen_aot/AOT/AOT_stimuli/pictures/1911_fw.png	399.3764679431915	0.7666630744934082
281	278.5986518859863	response	0	k		279.0	/experiments/knapen_aot/AOT/AOT_stimuli/pictures/1911_fw.png	400.12652492523193	
282	278.61525797843933	picture	0		81	280.0	/experiments/knapen_aot/AOT/AOT_stimuli/pictures/1286_fw.png	400.14313101768494	0.6833019256591797
282	279.2752480506897	response	0	j		280.0	/experiments/knapen_aot/AOT/AOT_stimuli/pictures/1286_fw.png	400.8031210899353	
283	279.2985599040985	picture	0		89	281.0	/experiments/knapen_aot/AOT/AOT_stimuli/pictures/0858_fw.png	400.8264329433441	0.750054121017456
283	280.0320029258728	response	0	k		281.0	/experiments/knapen_aot/AOT/AOT_stimuli/pictures/0858_fw.png	401.5598759651184	
284	280.04861402511597	picture	0		98	282.0	/experiments/knapen_aot/AOT/AOT_stimuli/pictures/1081_fw.png	401.5764870643616	0.8249409198760986
284	280.8570568561554	response	0	j		282.0	/experiments/knapen_aot/AOT/AOT_stimuli/pictures/1081_fw.png	402.384929895401	
285	280.87355494499207	picture	0		100	283.0	/experiments/knapen_aot/AOT/AOT_stimuli/pictures/0986_fw.png	402.40142798423767	0.8374519348144531
285	281.6919379234314	response	0	j		283.0	/experiments/knapen_aot/AOT/AOT_stimuli/pictures/0986_fw.png	403.219810962677	
286	281.7110068798065	picture	0		77	284.0	/experiments/knapen_aot/AOT/AOT_stimuli/pictures/0115_fw.png	403.2388799190521	0.6459360122680664
286	282.3404588699341	response	0	k		284.0	/experiments/knapen_aot/AOT/AOT_stimuli/pictures/0115_fw.png	403.8683319091797	
287	282.3569428920746	picture	0		92	285.0	/experiments/knapen_aot/AOT/AOT_stimuli/pictures/1005_fw.png	403.8848159313202	0.775022029876709
287	283.11533093452454	response	0	j		285.0	/experiments/knapen_aot/AOT/AOT_stimuli/pictures/1005_fw.png	404.64320397377014	
288	283.1319649219513	picture	0		83	286.0	/experiments/knapen_aot/AOT/AOT_stimuli/pictures/2064_fw.png	404.6598379611969	0.6999189853668213
288	283.81533193588257	response	0	k		286.0	/experiments/knapen_aot/AOT/AOT_stimuli/pictures/2064_fw.png	405.3432049751282	
289	283.8318839073181	picture	0		132	287.0	/experiments/knapen_aot/AOT/AOT_stimuli/pictures/1706_fw.png	405.3597569465637	1.108314037322998
289	284.92365288734436	response	0	j		287.0	/experiments/knapen_aot/AOT/AOT_stimuli/pictures/1706_fw.png	406.45152592658997	
290	284.9401979446411	picture	0		96	288.0	/experiments/knapen_aot/AOT/AOT_stimuli/pictures/0266_fw.png	406.4680709838867	0.8084399700164795
290	285.7319760322571	response	0	k		288.0	/experiments/knapen_aot/AOT/AOT_stimuli/pictures/0266_fw.png	407.2598490715027	
291	285.7486379146576	picture	0		116	289.0	/experiments/knapen_aot/AOT/AOT_stimuli/pictures/1634_fw.png	407.2765109539032	0.9752750396728516
291	286.70696806907654	response	0	j		289.0	/experiments/knapen_aot/AOT/AOT_stimuli/pictures/1634_fw.png	408.23484110832214	
292	286.72391295433044	picture	0		176	290.0	/experiments/knapen_aot/AOT/AOT_stimuli/pictures/1956_fw.png	408.25178599357605	1.474618911743164
292	288.18194103240967	response	0	k		290.0	/experiments/knapen_aot/AOT/AOT_stimuli/pictures/1956_fw.png	409.7098140716553	
293	288.1985318660736	picture	0		115	291.0	/experiments/knapen_aot/AOT/AOT_stimuli/pictures/0016_fw.png	409.7264049053192	0.9707851409912109
293	289.14873003959656	response	0	k		291.0	/experiments/knapen_aot/AOT/AOT_stimuli/pictures/0016_fw.png	410.67660307884216	
294	289.1693170070648	picture	0		97	292.0	/experiments/knapen_aot/AOT/AOT_stimuli/pictures/0280_fw.png	410.6971900463104	0.8125710487365723
294	289.9652850627899	response	0	j		292.0	/experiments/knapen_aot/AOT/AOT_stimuli/pictures/0280_fw.png	411.4931581020355	
295	289.9818880558014	picture	0		90	293.0	/experiments/knapen_aot/AOT/AOT_stimuli/pictures/0498_fw.png	411.509761095047	0.7582888603210449
295	290.7235610485077	response	0	j		293.0	/experiments/knapen_aot/AOT/AOT_stimuli/pictures/0498_fw.png	412.2514340877533	
296	290.74017691612244	picture	0		214	294.0	/experiments/knapen_aot/AOT/AOT_stimuli/pictures/0080_fw.png	412.26804995536804	1.7917370796203613
296	292.5152289867401	response	0	k		294.0	/experiments/knapen_aot/AOT/AOT_stimuli/pictures/0080_fw.png	414.0431020259857	
297	292.5319139957428	picture	0		96	295.0	/experiments/knapen_aot/AOT/AOT_stimuli/pictures/1426_fw.png	414.0597870349884	0.8109869956970215
297	293.32355093955994	response	0	j		295.0	/experiments/knapen_aot/AOT/AOT_stimuli/pictures/1426_fw.png	414.85142397880554	
298	293.3429009914398	picture	0		105	296.0	/experiments/knapen_aot/AOT/AOT_stimuli/pictures/0349_fw.png	414.8707740306854	0.8806130886077881
298	294.20686507225037	response	0	j		296.0	/experiments/knapen_aot/AOT/AOT_stimuli/pictures/0349_fw.png	415.734738111496	
299	294.2235140800476	picture	0		113	297.0	/experiments/knapen_aot/AOT/AOT_stimuli/pictures/0991_fw.png	415.7513871192932	0.9499998092651367
299	295.1569118499756	response	0	k		297.0	/experiments/knapen_aot/AOT/AOT_stimuli/pictures/0991_fw.png	416.6847848892212	
300	295.17351388931274	picture	0		92	298.0	/experiments/knapen_aot/AOT/AOT_stimuli/pictures/1055_fw.png	416.70138692855835	0.7749910354614258
300	295.9319660663605	response	0	j		298.0	/experiments/knapen_aot/AOT/AOT_stimuli/pictures/1055_fw.png	417.4598391056061	
301	295.94850492477417	picture	0		94	299.0	/experiments/knapen_aot/AOT/AOT_stimuli/pictures/2167_fw.png	417.4763779640198	0.7917799949645996
301	296.7236170768738	response	0	j		299.0	/experiments/knapen_aot/AOT/AOT_stimuli/pictures/2167_fw.png	418.2514901161194	
302	296.74028491973877	picture	0		92	300.0	/experiments/knapen_aot/AOT/AOT_stimuli/pictures/1456_fw.png	418.2681579589844	0.7749090194702148
302	297.4985580444336	response	0	j		300.0	/experiments/knapen_aot/AOT/AOT_stimuli/pictures/1456_fw.png	419.0264310836792	
303	297.515193939209	picture	0		90	301.0	/experiments/knapen_aot/AOT/AOT_stimuli/pictures/0277_fw.png	419.0430669784546	0.8207769393920898
303	298.2568578720093	response	0	k		301.0	/experiments/knapen_aot/AOT/AOT_stimuli/pictures/0277_fw.png	419.7847309112549	
304	298.3359708786011	picture	0		141	302.0	/experiments/knapen_aot/AOT/AOT_stimuli/pictures/1168_fw.png	419.8638439178467	1.179440975189209
304	299.49857807159424	response	0	k		302.0	/experiments/knapen_aot/AOT/AOT_stimuli/pictures/1168_fw.png	421.02645111083984	
305	299.5154118537903	picture	0		78	303.0	/experiments/knapen_aot/AOT/AOT_stimuli/pictures/0047_fw.png	421.0432848930359	0.6607301235198975
305	300.1569809913635	response	0	k		303.0	/experiments/knapen_aot/AOT/AOT_stimuli/pictures/0047_fw.png	421.68485403060913	
306	300.1761419773102	picture	0		76	304.0	/experiments/knapen_aot/AOT/AOT_stimuli/pictures/0582_fw.png	421.7040150165558	0.6390230655670166
306	300.79857993125916	response	0	j		304.0	/experiments/knapen_aot/AOT/AOT_stimuli/pictures/0582_fw.png	422.32645297050476	
307	300.8151650428772	picture	0		151	305.0	/experiments/knapen_aot/AOT/AOT_stimuli/pictures/1158_fw.png	422.3430380821228	1.266860008239746
307	302.0584189891815	response	0	k		305.0	/experiments/knapen_aot/AOT/AOT_stimuli/pictures/1158_fw.png	423.5862920284271	
308	302.08202505111694	picture	0		151	306.0	/experiments/knapen_aot/AOT/AOT_stimuli/pictures/0102_fw.png	423.60989809036255	1.266455888748169
308	303.3319230079651	response	0	j		306.0	/experiments/knapen_aot/AOT/AOT_stimuli/pictures/0102_fw.png	424.8597960472107	
309	303.3484809398651	picture	0		139	307.0	/experiments/knapen_aot/AOT/AOT_stimuli/pictures/1821_fw.png	424.8763539791107	1.1667490005493164
309	304.4985239505768	response	0	k		307.0	/experiments/knapen_aot/AOT/AOT_stimuli/pictures/1821_fw.png	426.0263969898224	
310	304.51522994041443	picture	0		87	308.0	/experiments/knapen_aot/AOT/AOT_stimuli/pictures/1808_fw.png	426.04310297966003	0.7333059310913086
310	305.2319769859314	response	0	j		308.0	/experiments/knapen_aot/AOT/AOT_stimuli/pictures/1808_fw.png	426.759850025177	
311	305.24853587150574	picture	0		114	309.0	/experiments/knapen_aot/AOT/AOT_stimuli/pictures/1295_fw.png	426.77640891075134	0.9583251476287842
311	306.1902160644531	response	0	k		309.0	/experiments/knapen_aot/AOT/AOT_stimuli/pictures/1295_fw.png	427.71808910369873	
312	306.2068610191345	picture	0		133	310.0	/experiments/knapen_aot/AOT/AOT_stimuli/pictures/0489_fw.png	427.7347340583801	1.1166260242462158
312	307.3068890571594	response	0	k		310.0	/experiments/knapen_aot/AOT/AOT_stimuli/pictures/0489_fw.png	428.83476209640503	
313	307.32348704338074	picture	0		89	311.0	/experiments/knapen_aot/AOT/AOT_stimuli/pictures/0579_fw.png	428.85136008262634	0.7623398303985596
313	308.0499908924103	response	0	k		311.0	/experiments/knapen_aot/AOT/AOT_stimuli/pictures/0579_fw.png	429.5778639316559	
314	308.0858268737793	picture	0		105	312.0	/experiments/knapen_aot/AOT/AOT_stimuli/pictures/1880_fw.png	429.6136999130249	0.8796930313110352
314	308.9485230445862	response	0	j		312.0	/experiments/knapen_aot/AOT/AOT_stimuli/pictures/1880_fw.png	430.4763960838318	
315	308.96551990509033	picture	0		115	313.0	/experiments/knapen_aot/AOT/AOT_stimuli/pictures/1052_fw.png	430.49339294433594	0.9675781726837158
315	309.9152190685272	response	0	j		313.0	/experiments/knapen_aot/AOT/AOT_stimuli/pictures/1052_fw.png	431.4430921077728	
316	309.93309807777405	picture	0		106	314.0	/experiments/knapen_aot/AOT/AOT_stimuli/pictures/0804_fw.png	431.46097111701965	0.8904008865356445
316	310.80691385269165	response	0	k		314.0	/experiments/knapen_aot/AOT/AOT_stimuli/pictures/0804_fw.png	432.33478689193726	
317	310.8234989643097	picture	0		78	315.0	/experiments/knapen_aot/AOT/AOT_stimuli/pictures/0074_fw.png	432.3513720035553	0.658282995223999
317	311.45839285850525	response	0	k		315.0	/experiments/knapen_aot/AOT/AOT_stimuli/pictures/0074_fw.png	432.98626589775085	
318	311.4817819595337	picture	0		104	316.0	/experiments/knapen_aot/AOT/AOT_stimuli/pictures/0050_fw.png	433.0096549987793	0.8749580383300781
318	312.34020495414734	response	0	k		316.0	/experiments/knapen_aot/AOT/AOT_stimuli/pictures/0050_fw.png	433.86807799339294	
319	312.35673999786377	picture	0		80	317.0	/experiments/knapen_aot/AOT/AOT_stimuli/pictures/1243_fw.png	433.8846130371094	0.6750359535217285
319	313.01519799232483	response	0	j		317.0	/experiments/knapen_aot/AOT/AOT_stimuli/pictures/1243_fw.png	434.54307103157043	
320	313.0317759513855	picture	0		83	318.0	/experiments/knapen_aot/AOT/AOT_stimuli/pictures/0385_fw.png	434.5596489906311	0.6928250789642334
320	313.7151770591736	response	0	j		318.0	/experiments/knapen_aot/AOT/AOT_stimuli/pictures/0385_fw.png	435.2430500984192	
321	313.72460103034973	picture	0		91	319.0	/experiments/knapen_aot/AOT/AOT_stimuli/pictures/1779_fw.png	435.25247406959534	0.7654838562011719
321	314.46666502952576	response	0	j		319.0	/experiments/knapen_aot/AOT/AOT_stimuli/pictures/1779_fw.png	435.99453806877136	
322	314.4900848865509	picture	0		120	320.0	/experiments/knapen_aot/AOT/AOT_stimuli/pictures/0766_fw.png	436.0179579257965	1.0083560943603516
322	315.47501587867737	response	0	j		320.0	/experiments/knapen_aot/AOT/AOT_stimuli/pictures/0766_fw.png	437.002888917923	
323	315.49844098091125	picture	0		116	321.0	/experiments/knapen_aot/AOT/AOT_stimuli/pictures/0934_fw.png	437.02631402015686	0.9749879837036133
323	316.449991941452	response	0	k		321.0	/experiments/knapen_aot/AOT/AOT_stimuli/pictures/0934_fw.png	437.97786498069763	
324	316.47342896461487	picture	0		92	322.0	/experiments/knapen_aot/AOT/AOT_stimuli/pictures/0901_fw.png	438.0013020038605	0.7750270366668701
324	317.2318148612976	response	0	j		322.0	/experiments/knapen_aot/AOT/AOT_stimuli/pictures/0901_fw.png	438.7596879005432	
325	317.24845600128174	picture	0		89	323.0	/experiments/knapen_aot/AOT/AOT_stimuli/pictures/1529_fw.png	438.77632904052734	0.7499370574951172
325	317.9818170070648	response	0	k		323.0	/experiments/knapen_aot/AOT/AOT_stimuli/pictures/1529_fw.png	439.5096900463104	
326	317.99839305877686	picture	0		82	324.0	/experiments/knapen_aot/AOT/AOT_stimuli/pictures/1110_fw.png	439.52626609802246	0.6920039653778076
326	318.6666638851166	response	0	j		324.0	/experiments/knapen_aot/AOT/AOT_stimuli/pictures/1110_fw.png	440.1945369243622	
327	318.69039702415466	picture	0		88	325.0	/experiments/knapen_aot/AOT/AOT_stimuli/pictures/0577_fw.png	440.21827006340027	0.74257493019104
327	319.41514587402344	response	0	k		325.0	/experiments/knapen_aot/AOT/AOT_stimuli/pictures/0577_fw.png	440.94301891326904	
328	319.4329719543457	picture	0		98	326.0	/experiments/knapen_aot/AOT/AOT_stimuli/pictures/2057_fw.png	440.9608449935913	0.8238089084625244
328	320.24015188217163	response	0	k		326.0	/experiments/knapen_aot/AOT/AOT_stimuli/pictures/2057_fw.png	441.76802492141724	
329	320.2567808628082	picture	0		98	327.0	/experiments/knapen_aot/AOT/AOT_stimuli/pictures/1958_fw.png	441.78465390205383	0.8256611824035645
329	321.05830097198486	response	0	k		327.0	/experiments/knapen_aot/AOT/AOT_stimuli/pictures/1958_fw.png	442.58617401123047	
330	321.0824420452118	picture	0		118	328.0	/experiments/knapen_aot/AOT/AOT_stimuli/pictures/0238_fw.png	442.6103150844574	0.9909899234771729
330	322.050164937973	response	0	j		328.0	/experiments/knapen_aot/AOT/AOT_stimuli/pictures/0238_fw.png	443.5780379772186	
331	322.07343196868896	picture	0		129	329.0	/experiments/knapen_aot/AOT/AOT_stimuli/pictures/2070_fw.png	443.60130500793457	1.0834159851074219
331	323.14015197753906	response	0	j		329.0	/experiments/knapen_aot/AOT/AOT_stimuli/pictures/2070_fw.png	444.66802501678467	
332	323.1568479537964	picture	0		130	330.0	/experiments/knapen_aot/AOT/AOT_stimuli/pictures/0822_fw.png	444.684720993042	1.0915470123291016
332	324.2318289279938	response	0	k		330.0	/experiments/knapen_aot/AOT/AOT_stimuli/pictures/0822_fw.png	445.7597019672394	
333	324.2483949661255	picture	0		76	331.0	/experiments/knapen_aot/AOT/AOT_stimuli/pictures/0288_fw.png	445.7762680053711	0.6428370475769043
333	324.87349700927734	response	0	k		331.0	/experiments/knapen_aot/AOT/AOT_stimuli/pictures/0288_fw.png	446.40137004852295	
334	324.8912320137024	picture	0		96	332.0	/experiments/knapen_aot/AOT/AOT_stimuli/pictures/1875_fw.png	446.419105052948	0.8071608543395996
334	325.6817898750305	response	0	k		332.0	/experiments/knapen_aot/AOT/AOT_stimuli/pictures/1875_fw.png	447.2096629142761	
335	325.698392868042	picture	0		87	333.0	/experiments/knapen_aot/AOT/AOT_stimuli/pictures/1305_fw.png	447.2262659072876	0.7345850467681885
335	326.41517186164856	response	0	j		333.0	/experiments/knapen_aot/AOT/AOT_stimuli/pictures/1305_fw.png	447.94304490089417	
336	326.4329779148102	picture	0		531	334.0	/experiments/knapen_aot/AOT/AOT_stimuli/pictures/0229_fw.png	447.9608509540558	4.43205714225769
336	330.8416349887848	response	0	k		334.0	/experiments/knapen_aot/AOT/AOT_stimuli/pictures/0229_fw.png	452.3695080280304	
337	330.86503505706787	picture	0		96	335.0	/experiments/knapen_aot/AOT/AOT_stimuli/pictures/1142_fw.png	452.3929080963135	0.8108608722686768
337	331.6501190662384	response	0	j		335.0	/experiments/knapen_aot/AOT/AOT_stimuli/pictures/1142_fw.png	453.177992105484	
338	331.67589592933655	picture	0		87	336.0	/experiments/knapen_aot/AOT/AOT_stimuli/pictures/0870_fw.png	453.20376896858215	0.7308599948883057
338	332.39010286331177	response	0	k		336.0	/experiments/knapen_aot/AOT/AOT_stimuli/pictures/0870_fw.png	453.9179759025574	
339	332.40675592422485	picture	0		96	337.0	/experiments/knapen_aot/AOT/AOT_stimuli/pictures/1510_fw.png	453.93462896347046	0.8083069324493408
339	333.1984360218048	response	0	j		337.0	/experiments/knapen_aot/AOT/AOT_stimuli/pictures/1510_fw.png	454.7263090610504	
340	333.2150628566742	picture	0		96	338.0	/experiments/knapen_aot/AOT/AOT_stimuli/pictures/0919_fw.png	454.7429358959198	0.8150360584259033
340	334.0067069530487	response	0	j		338.0	/experiments/knapen_aot/AOT/AOT_stimuli/pictures/0919_fw.png	455.5345799922943	
341	334.0300989151001	picture	0		92	339.0	/experiments/knapen_aot/AOT/AOT_stimuli/pictures/1338_fw.png	455.5579719543457	0.777764081954956
341	334.79010486602783	response	0	k		339.0	/experiments/knapen_aot/AOT/AOT_stimuli/pictures/1338_fw.png	456.31797790527344	
342	334.80786299705505	picture	0		153	340.0	/experiments/knapen_aot/AOT/AOT_stimuli/pictures/0627_fw.png	456.33573603630066	1.2825610637664795
342	336.0734279155731	response	0	j		340.0	/experiments/knapen_aot/AOT/AOT_stimuli/pictures/0627_fw.png	457.6013009548187	
343	336.09042406082153	picture	0		257	341.0	/experiments/knapen_aot/AOT/AOT_stimuli/pictures/1774_fw.png	457.61829710006714	2.149761915206909
343	338.22340393066406	response	0	k		341.0	/experiments/knapen_aot/AOT/AOT_stimuli/pictures/1774_fw.png	459.75127696990967	
344	338.24018597602844	picture	0		90	342.0	/experiments/knapen_aot/AOT/AOT_stimuli/pictures/1591_fw.png	459.76805901527405	0.7582330703735352
344	338.98175406455994	response	0	j		342.0	/experiments/knapen_aot/AOT/AOT_stimuli/pictures/1591_fw.png	460.50962710380554	
345	338.998419046402	picture	0		121	343.0	/experiments/knapen_aot/AOT/AOT_stimuli/pictures/1407_fw.png	460.5262920856476	1.0583019256591797
345	339.99843287467957	response	0	j		343.0	/experiments/knapen_aot/AOT/AOT_stimuli/pictures/1407_fw.png	461.52630591392517	
346	340.05672097206116	picture	0		79	344.0	/experiments/knapen_aot/AOT/AOT_stimuli/pictures/1384_fw.png	461.58459401130676	0.6749908924102783
346	340.7067840099335	response	0	k		344.0	/experiments/knapen_aot/AOT/AOT_stimuli/pictures/1384_fw.png	462.2346570491791	
347	340.73171186447144	picture	0		118	345.0	/experiments/knapen_aot/AOT/AOT_stimuli/pictures/1556_fw.png	462.25958490371704	0.99173903465271
347	341.70669889450073	response	0	j		345.0	/experiments/knapen_aot/AOT/AOT_stimuli/pictures/1556_fw.png	463.23457193374634	
348	341.72345089912415	picture	0		378	346.0	/experiments/knapen_aot/AOT/AOT_stimuli/pictures/0891_fw.png	463.25132393836975	3.1608500480651855
348	344.8581700325012	response	0	k		346.0	/experiments/knapen_aot/AOT/AOT_stimuli/pictures/0891_fw.png	466.3860430717468	
349	344.88430094718933	picture	0		91	347.0	/experiments/knapen_aot/AOT/AOT_stimuli/pictures/0729_fw.png	466.41217398643494	0.7640330791473389
349	345.62492299079895	response	0	k		347.0	/experiments/knapen_aot/AOT/AOT_stimuli/pictures/0729_fw.png	467.15279603004456	
350	345.64833402633667	picture	0		85	348.0	/experiments/knapen_aot/AOT/AOT_stimuli/pictures/0194_fw.png	467.1762070655823	0.7166259288787842
350	346.3484010696411	response	0	k		348.0	/experiments/knapen_aot/AOT/AOT_stimuli/pictures/0194_fw.png	467.8762741088867	
351	346.36495995521545	picture	0		80	349.0	/experiments/knapen_aot/AOT/AOT_stimuli/pictures/0929_fw.png	467.89283299446106	0.6751348972320557
351	347.02339005470276	response	0	k		349.0	/experiments/knapen_aot/AOT/AOT_stimuli/pictures/0929_fw.png	468.55126309394836	
352	347.0400948524475	picture	0		131	350.0	/experiments/knapen_aot/AOT/AOT_stimuli/pictures/1868_fw.png	468.5679678916931	1.100992202758789
352	348.12339186668396	response	0	j		350.0	/experiments/knapen_aot/AOT/AOT_stimuli/pictures/1868_fw.png	469.65126490592957	
353	348.1410870552063	picture	0		92	351.0	/experiments/knapen_aot/AOT/AOT_stimuli/pictures/1164_fw.png	469.6689600944519	0.7740719318389893
353	348.89836406707764	response	0	j		351.0	/experiments/knapen_aot/AOT/AOT_stimuli/pictures/1164_fw.png	470.42623710632324	
354	348.9151589870453	picture	0		75	352.0	/experiments/knapen_aot/AOT/AOT_stimuli/pictures/0542_fw.png	470.4430320262909	0.6333880424499512
354	349.53169798851013	response	0	k		352.0	/experiments/knapen_aot/AOT/AOT_stimuli/pictures/0542_fw.png	471.05957102775574	
355	349.54854702949524	picture	0		142	353.0	/experiments/knapen_aot/AOT/AOT_stimuli/pictures/0611_fw.png	471.07642006874084	1.191391944885254
355	350.723356962204	response	0	j		353.0	/experiments/knapen_aot/AOT/AOT_stimuli/pictures/0611_fw.png	472.2512300014496	
356	350.7399389743805	picture	0		121	354.0	/experiments/knapen_aot/AOT/AOT_stimuli/pictures/0922_fw.png	472.2678120136261	1.019484043121338
356	351.740051984787	response	0	j		354.0	/experiments/knapen_aot/AOT/AOT_stimuli/pictures/0922_fw.png	473.2679250240326	
357	351.75942301750183	picture	0		112	355.0	/experiments/knapen_aot/AOT/AOT_stimuli/pictures/2050_fw.png	473.28729605674744	0.9388918876647949
357	352.68169689178467	response	0	k		355.0	/experiments/knapen_aot/AOT/AOT_stimuli/pictures/2050_fw.png	474.2095699310303	
358	352.6983149051666	picture	0		95	356.0	/experiments/knapen_aot/AOT/AOT_stimuli/pictures/0629_fw.png	474.22618794441223	0.8000149726867676
358	353.4817259311676	response	0	k		356.0	/experiments/knapen_aot/AOT/AOT_stimuli/pictures/0629_fw.png	475.0095989704132	
359	353.4983298778534	picture	0		123	357.0	/experiments/knapen_aot/AOT/AOT_stimuli/pictures/0263_fw.png	475.026202917099	1.033339023590088
359	354.51500606536865	response	0	j		357.0	/experiments/knapen_aot/AOT/AOT_stimuli/pictures/0263_fw.png	476.04287910461426	
360	354.5316689014435	picture	0		129	358.0	/experiments/knapen_aot/AOT/AOT_stimuli/pictures/1233_fw.png	476.0595419406891	1.083301067352295
360	355.59836196899414	response	0	k		358.0	/experiments/knapen_aot/AOT/AOT_stimuli/pictures/1233_fw.png	477.12623500823975	
361	355.6149699687958	picture	0		168	359.0	/experiments/knapen_aot/AOT/AOT_stimuli/pictures/0771_fw.png	477.1428430080414	1.4082300662994385
361	357.0067150592804	response	0	k		359.0	/experiments/knapen_aot/AOT/AOT_stimuli/pictures/0771_fw.png	478.534588098526	
362	357.0232000350952	stim	0		925			478.5510730743408	7.708377838134766
362	361.34001088142395	response	0	k				482.86788392066956	
362	364.72336602211	response	0	space				486.2512390613556	
