trial_nr	onset	event_type	phase	response	nr_frames	picture_index	picture_file	onset_abs	duration
0	0.21047496795654297	stim	0		1127			145.74088191986084	9.409649133682251
0	9.600090980529785	response	0	space				155.13049793243408	
2	9.620124101638794	picture	0		148	0.0	/experiments/knapen_AOT/AOT_stimuli/pictures/0098_fw.png	155.1505310535431	1.2297799587249756
2	10.841773986816406	response	0	k		0.0	/experiments/knapen_AOT/AOT_stimuli/pictures/0098_fw.png	156.3721809387207	
3	10.84990406036377	picture	0		186	1.0	/experiments/knapen_AOT/AOT_stimuli/pictures/0872_fw.png	156.38031101226807	1.5549640655517578
3	12.391798973083496	response	0	k		1.0	/experiments/knapen_AOT/AOT_stimuli/pictures/0872_fw.png	157.9222059249878	
4	12.404868125915527	picture	0		181	2.0	/experiments/knapen_AOT/AOT_stimuli/pictures/1239_fw.png	157.93527507781982	1.5138709545135498
4	13.901634931564331	response	0	k		2.0	/experiments/knapen_AOT/AOT_stimuli/pictures/1239_fw.png	159.43204188346863	
5	13.918739080429077	picture	0		215	3.0	/experiments/knapen_AOT/AOT_stimuli/pictures/0575_fw.png	159.44914603233337	1.7916810512542725
5	15.693488121032715	response	0	k		3.0	/experiments/knapen_AOT/AOT_stimuli/pictures/0575_fw.png	161.223895072937	
6	15.71042013168335	picture	0		124	4.0	/experiments/knapen_AOT/AOT_stimuli/pictures/1931_fw.png	161.24082708358765	1.034895896911621
6	16.7334201335907	response	0	k		4.0	/experiments/knapen_AOT/AOT_stimuli/pictures/1931_fw.png	162.263827085495	
7	16.74531602859497	picture	0		162	5.0	/experiments/knapen_AOT/AOT_stimuli/pictures/1844_fw.png	162.27572298049927	1.3470830917358398
7	18.083488941192627	response	0	k		5.0	/experiments/knapen_AOT/AOT_stimuli/pictures/1844_fw.png	163.61389589309692	
8	18.09239912033081	picture	0		93	6.0	/experiments/knapen_AOT/AOT_stimuli/pictures/0088_fw.png	163.6228060722351	0.7778968811035156
8	18.858459949493408	response	0	k		6.0	/experiments/knapen_AOT/AOT_stimuli/pictures/0088_fw.png	164.3888669013977	
9	18.870296001434326	picture	0		110	7.0	/experiments/knapen_AOT/AOT_stimuli/pictures/2015_fw.png	164.40070295333862	0.9167320728302002
9	19.775191068649292	response	0	j		7.0	/experiments/knapen_AOT/AOT_stimuli/pictures/2015_fw.png	165.3055980205536	
10	19.787028074264526	picture	0		104	8.0	/experiments/knapen_AOT/AOT_stimuli/pictures/1847_fw.png	165.31743502616882	0.8681108951568604
10	20.641865968704224	response	0	j		8.0	/experiments/knapen_AOT/AOT_stimuli/pictures/1847_fw.png	166.17227292060852	
11	20.655138969421387	picture	0		228	9.0	/experiments/knapen_AOT/AOT_stimuli/pictures/1699_fw.png	166.18554592132568	1.9095711708068848
11	22.55108094215393	response	0	k		9.0	/experiments/knapen_AOT/AOT_stimuli/pictures/1699_fw.png	168.08148789405823	
12	22.56471014022827	picture	0		294	10.0	/experiments/knapen_AOT/AOT_stimuli/pictures/0644_fw.png	168.09511709213257	2.4522299766540527
12	25.00867199897766	response	0	k		10.0	/experiments/knapen_AOT/AOT_stimuli/pictures/0644_fw.png	170.53907895088196	
13	25.016940116882324	picture	0		115	11.0	/experiments/knapen_AOT/AOT_stimuli/pictures/0734_fw.png	170.54734706878662	0.9581358432769775
13	25.966907024383545	response	0	j		11.0	/experiments/knapen_AOT/AOT_stimuli/pictures/0734_fw.png	171.49731397628784	
14	25.9750759601593	picture	0		126	12.0	/experiments/knapen_AOT/AOT_stimuli/pictures/0484_fw.png	171.5054829120636	1.0550391674041748
14	27.017133951187134	response	0	k		12.0	/experiments/knapen_AOT/AOT_stimuli/pictures/0484_fw.png	172.54754090309143	
15	27.030115127563477	picture	0		105	13.0	/experiments/knapen_AOT/AOT_stimuli/pictures/0104_fw.png	172.56052207946777	0.8820028305053711
15	27.893460035324097	response	0	k		13.0	/experiments/knapen_AOT/AOT_stimuli/pictures/0104_fw.png	173.4238669872284	
16	27.912117958068848	picture	0		122	14.0	/experiments/knapen_AOT/AOT_stimuli/pictures/1322_fw.png	173.44252490997314	1.0139031410217285
16	28.91008710861206	response	0	k		14.0	/experiments/knapen_AOT/AOT_stimuli/pictures/1322_fw.png	174.44049406051636	
17	28.926021099090576	picture	0		88	15.0	/experiments/knapen_AOT/AOT_stimuli/pictures/1942_fw.png	174.45642805099487	0.7360999584197998
17	29.650323152542114	response	0	j		15.0	/experiments/knapen_AOT/AOT_stimuli/pictures/1942_fw.png	175.1807301044464	
18	29.662121057510376	picture	0		219	16.0	/experiments/knapen_AOT/AOT_stimuli/pictures/0511_fw.png	175.19252800941467	1.826214075088501
18	31.47541308403015	response	0	j		16.0	/experiments/knapen_AOT/AOT_stimuli/pictures/0511_fw.png	177.00582003593445	
19	31.488335132598877	picture	0		122	17.0	/experiments/knapen_AOT/AOT_stimuli/pictures/0042_fw.png	177.01874208450317	1.0487289428710938
19	32.5253119468689	response	0	j		17.0	/experiments/knapen_AOT/AOT_stimuli/pictures/0042_fw.png	178.0557188987732	
20	32.53706407546997	picture	0		139	18.0	/experiments/knapen_AOT/AOT_stimuli/pictures/1976_fw.png	178.06747102737427	1.1597988605499268
20	33.67703104019165	response	0	k		18.0	/experiments/knapen_AOT/AOT_stimuli/pictures/1976_fw.png	179.20743799209595	
21	33.6968629360199	picture	0		100	19.0	/experiments/knapen_AOT/AOT_stimuli/pictures/2043_fw.png	179.2272698879242	0.8402659893035889
21	34.525471925735474	response	0	j		19.0	/experiments/knapen_AOT/AOT_stimuli/pictures/2043_fw.png	180.05587887763977	
22	34.537128925323486	picture	0		96	20.0	/experiments/knapen_AOT/AOT_stimuli/pictures/0284_fw.png	180.06753587722778	0.79854416847229
22	35.325390100479126	response	0	j		20.0	/experiments/knapen_AOT/AOT_stimuli/pictures/0284_fw.png	180.85579705238342	
23	35.335673093795776	picture	0		146	21.0	/experiments/knapen_AOT/AOT_stimuli/pictures/2016_fw.png	180.86608004570007	1.215399980545044
23	36.54201793670654	response	0	k		21.0	/experiments/knapen_AOT/AOT_stimuli/pictures/2016_fw.png	182.07242488861084	
24	36.55107307434082	picture	0		237	22.0	/experiments/knapen_AOT/AOT_stimuli/pictures/1529_fw.png	182.08148002624512	1.9789929389953613
24	38.51722192764282	response	0	j		22.0	/experiments/knapen_AOT/AOT_stimuli/pictures/1529_fw.png	184.04762887954712	
25	38.53006601333618	picture	0		90	23.0	/experiments/knapen_AOT/AOT_stimuli/pictures/0832_fw.png	184.06047296524048	0.7570531368255615
25	39.26869201660156	response	0	j		23.0	/experiments/knapen_AOT/AOT_stimuli/pictures/0832_fw.png	184.79909896850586	
26	39.28711915016174	picture	0		106	24.0	/experiments/knapen_AOT/AOT_stimuli/pictures/0340_fw.png	184.81752610206604	0.8819558620452881
26	40.15883207321167	response	0	j		24.0	/experiments/knapen_AOT/AOT_stimuli/pictures/0340_fw.png	185.68923902511597	
27	40.16907501220703	picture	0		123	25.0	/experiments/knapen_AOT/AOT_stimuli/pictures/0908_fw.png	185.69948196411133	1.0277910232543945
27	41.18379497528076	response	0	j		25.0	/experiments/knapen_AOT/AOT_stimuli/pictures/0908_fw.png	186.71420192718506	
28	41.196866035461426	picture	0		108	26.0	/experiments/knapen_AOT/AOT_stimuli/pictures/1114_fw.png	186.72727298736572	0.8957929611206055
28	42.07689595222473	response	0	k		26.0	/experiments/knapen_AOT/AOT_stimuli/pictures/1114_fw.png	187.60730290412903	
29	42.09265899658203	picture	0		272	27.0	/experiments/knapen_AOT/AOT_stimuli/pictures/1181_fw.png	187.62306594848633	2.2707841396331787
29	44.350502014160156	response	0	k		27.0	/experiments/knapen_AOT/AOT_stimuli/pictures/1181_fw.png	189.88090896606445	
30	44.36344313621521	picture	0		112	28.0	/experiments/knapen_AOT/AOT_stimuli/pictures/1486_fw.png	189.8938500881195	0.9306318759918213
30	45.27738308906555	response	0	j		28.0	/experiments/knapen_AOT/AOT_stimuli/pictures/1486_fw.png	190.80779004096985	
31	45.29407501220703	picture	0		112	29.0	/experiments/knapen_AOT/AOT_stimuli/pictures/1717_fw.png	190.82448196411133	0.9312570095062256
31	46.21793007850647	response	0	j		29.0	/experiments/knapen_AOT/AOT_stimuli/pictures/1717_fw.png	191.74833703041077	
32	46.22533202171326	picture	0		154	30.0	/experiments/knapen_AOT/AOT_stimuli/pictures/1992_fw.png	191.75573897361755	1.2841041088104248
32	47.500483989715576	response	0	k		30.0	/experiments/knapen_AOT/AOT_stimuli/pictures/1992_fw.png	193.03089094161987	
33	47.50943613052368	picture	0		162	31.0	/experiments/knapen_AOT/AOT_stimuli/pictures/0999_fw.png	193.03984308242798	1.3540458679199219
33	48.8505699634552	response	0	j		31.0	/experiments/knapen_AOT/AOT_stimuli/pictures/0999_fw.png	194.3809769153595	
34	48.8634819984436	picture	0		142	32.0	/experiments/knapen_AOT/AOT_stimuli/pictures/1441_fw.png	194.3938889503479	1.1876089572906494
34	50.04225301742554	response	0	j		32.0	/experiments/knapen_AOT/AOT_stimuli/pictures/1441_fw.png	195.57265996932983	
35	50.05109095573425	picture	0		108	33.0	/experiments/knapen_AOT/AOT_stimuli/pictures/0282_fw.png	195.58149790763855	0.9028511047363281
35	50.94236397743225	response	0	j		33.0	/experiments/knapen_AOT/AOT_stimuli/pictures/0282_fw.png	196.47277092933655	
36	50.95394206047058	picture	0		116	34.0	/experiments/knapen_AOT/AOT_stimuli/pictures/2091_fw.png	196.48434901237488	0.9652829170227051
36	51.90893292427063	response	0	j		34.0	/experiments/knapen_AOT/AOT_stimuli/pictures/2091_fw.png	197.43933987617493	
37	51.919224977493286	picture	0		109	35.0	/experiments/knapen_AOT/AOT_stimuli/pictures/0578_fw.png	197.44963192939758	0.9096291065216064
37	52.817413091659546	response	0	k		35.0	/experiments/knapen_AOT/AOT_stimuli/pictures/0578_fw.png	198.34782004356384	
38	52.82885408401489	picture	0		505	36.0	/experiments/knapen_AOT/AOT_stimuli/pictures/0211_fw.png	198.3592610359192	4.208287954330444
38	57.02565097808838	response	0	k		36.0	/experiments/knapen_AOT/AOT_stimuli/pictures/0211_fw.png	202.55605792999268	
39	57.03714203834534	picture	0		129	37.0	/experiments/knapen_AOT/AOT_stimuli/pictures/0330_fw.png	202.56754899024963	1.0765740871429443
39	58.10061502456665	response	0	k		37.0	/experiments/knapen_AOT/AOT_stimuli/pictures/0330_fw.png	203.63102197647095	
40	58.11371612548828	picture	0		148	38.0	/experiments/knapen_AOT/AOT_stimuli/pictures/0177_fw.png	203.64412307739258	1.22916579246521
40	59.33404994010925	response	0	k		38.0	/experiments/knapen_AOT/AOT_stimuli/pictures/0177_fw.png	204.86445689201355	
41	59.34288191795349	picture	0		137	39.0	/experiments/knapen_AOT/AOT_stimuli/pictures/1797_fw.png	204.8732888698578	1.1458070278167725
41	60.46948504447937	response	0	j		39.0	/experiments/knapen_AOT/AOT_stimuli/pictures/1797_fw.png	205.99989199638367	
42	60.488688945770264	picture	0		146	40.0	/experiments/knapen_AOT/AOT_stimuli/pictures/1902_fw.png	206.01909589767456	1.2221992015838623
42	61.700688123703	response	0	j		40.0	/experiments/knapen_AOT/AOT_stimuli/pictures/1902_fw.png	207.2310950756073	
43	61.710888147354126	picture	0		161	41.0	/experiments/knapen_AOT/AOT_stimuli/pictures/1875_fw.png	207.24129509925842	1.3403148651123047
43	63.04243206977844	response	0	k		41.0	/experiments/knapen_AOT/AOT_stimuli/pictures/1875_fw.png	208.57283902168274	
44	63.05120301246643	picture	0		112	42.0	/experiments/knapen_AOT/AOT_stimuli/pictures/1978_fw.png	208.58160996437073	0.9375529289245605
44	63.97584009170532	response	0	k		42.0	/experiments/knapen_AOT/AOT_stimuli/pictures/1978_fw.png	209.50624704360962	
45	63.98875594139099	picture	0		129	43.0	/experiments/knapen_AOT/AOT_stimuli/pictures/0444_fw.png	209.5191628932953	1.0701789855957031
45	65.0439281463623	response	0	k		43.0	/experiments/knapen_AOT/AOT_stimuli/pictures/0444_fw.png	210.5743350982666	
46	65.0589349269867	picture	0		131	44.0	/experiments/knapen_AOT/AOT_stimuli/pictures/2003_fw.png	210.589341878891	1.0965170860290527
46	66.14245700836182	response	0	k		44.0	/experiments/knapen_AOT/AOT_stimuli/pictures/2003_fw.png	211.6728639602661	
47	66.15545201301575	picture	0		249	45.0	/experiments/knapen_AOT/AOT_stimuli/pictures/0413_fw.png	211.68585896492004	2.083219051361084
47	68.2258939743042	response	0	j		45.0	/experiments/knapen_AOT/AOT_stimuli/pictures/0413_fw.png	213.7563009262085	
48	68.23867106437683	picture	0		312	46.0	/experiments/knapen_AOT/AOT_stimuli/pictures/1695_fw.png	213.76907801628113	2.6042299270629883
48	70.83422708511353	response	0	j		46.0	/experiments/knapen_AOT/AOT_stimuli/pictures/1695_fw.png	216.36463403701782	
49	70.84290099143982	picture	0		95	47.0	/experiments/knapen_AOT/AOT_stimuli/pictures/1811_fw.png	216.37330794334412	0.791633129119873
49	71.6258659362793	response	0	j		47.0	/experiments/knapen_AOT/AOT_stimuli/pictures/1811_fw.png	217.1562728881836	
50	71.63453412055969	picture	0		115	48.0	/experiments/knapen_AOT/AOT_stimuli/pictures/0357_fw.png	217.164941072464	0.9584619998931885
50	72.58416700363159	response	0	k		48.0	/experiments/knapen_AOT/AOT_stimuli/pictures/0357_fw.png	218.1145739555359	
51	72.59299612045288	picture	0		94	49.0	/experiments/knapen_AOT/AOT_stimuli/pictures/1871_fw.png	218.12340307235718	0.7846319675445557
51	73.36752510070801	response	0	j		49.0	/experiments/knapen_AOT/AOT_stimuli/pictures/1871_fw.png	218.8979320526123	
52	73.37762808799744	picture	0		168	50.0	/experiments/knapen_AOT/AOT_stimuli/pictures/0170_fw.png	218.90803503990173	1.4027609825134277
52	74.7675850391388	response	0	j		50.0	/experiments/knapen_AOT/AOT_stimuli/pictures/0170_fw.png	220.2979919910431	
53	74.78038907051086	picture	0		108	51.0	/experiments/knapen_AOT/AOT_stimuli/pictures/1064_fw.png	220.31079602241516	0.8958399295806885
53	75.66095805168152	response	0	k		51.0	/experiments/knapen_AOT/AOT_stimuli/pictures/1064_fw.png	221.19136500358582	
54	75.67622900009155	picture	0		116	52.0	/experiments/knapen_AOT/AOT_stimuli/pictures/1485_fw.png	221.20663595199585	0.9661650657653809
54	76.63475203514099	response	0	k		52.0	/experiments/knapen_AOT/AOT_stimuli/pictures/1485_fw.png	222.1651589870453	
55	76.64239406585693	picture	0		106	53.0	/experiments/knapen_AOT/AOT_stimuli/pictures/0379_fw.png	222.17280101776123	0.8880529403686523
55	77.51755213737488	response	0	k		53.0	/experiments/knapen_AOT/AOT_stimuli/pictures/0379_fw.png	223.04795908927917	
56	77.53044700622559	picture	0		111	54.0	/experiments/knapen_AOT/AOT_stimuli/pictures/1990_fw.png	223.06085395812988	0.9236440658569336
56	78.43589210510254	response	0	j		54.0	/experiments/knapen_AOT/AOT_stimuli/pictures/1990_fw.png	223.96629905700684	
57	78.45409107208252	picture	0		103	55.0	/experiments/knapen_AOT/AOT_stimuli/pictures/0377_fw.png	223.98449802398682	0.8550260066986084
57	79.30147314071655	response	0	j		55.0	/experiments/knapen_AOT/AOT_stimuli/pictures/0377_fw.png	224.83188009262085	
58	79.30911707878113	picture	0		96	56.0	/experiments/knapen_AOT/AOT_stimuli/pictures/0458_fw.png	224.83952403068542	0.8255019187927246
58	80.12598395347595	response	0	j		56.0	/experiments/knapen_AOT/AOT_stimuli/pictures/0458_fw.png	225.65639090538025	
59	80.13461899757385	picture	0		115	57.0	/experiments/knapen_AOT/AOT_stimuli/pictures/1646_fw.png	225.66502594947815	0.9583799839019775
59	81.08430814743042	response	0	j		57.0	/experiments/knapen_AOT/AOT_stimuli/pictures/1646_fw.png	226.61471509933472	
60	81.09299898147583	picture	0		152	58.0	/experiments/knapen_AOT/AOT_stimuli/pictures/0039_fw.png	226.62340593338013	1.2708189487457275
60	82.35110592842102	response	0	k		58.0	/experiments/knapen_AOT/AOT_stimuli/pictures/0039_fw.png	227.88151288032532	
61	82.36381793022156	picture	0		87	59.0	/experiments/knapen_AOT/AOT_stimuli/pictures/1161_fw.png	227.89422488212585	0.7222411632537842
61	83.07596397399902	response	0	j		59.0	/experiments/knapen_AOT/AOT_stimuli/pictures/1161_fw.png	228.60637092590332	
62	83.08605909347534	picture	0		102	60.0	/experiments/knapen_AOT/AOT_stimuli/pictures/0281_fw.png	228.61646604537964	0.8481168746948242
62	83.92645001411438	response	0	j		60.0	/experiments/knapen_AOT/AOT_stimuli/pictures/0281_fw.png	229.45685696601868	
63	83.93417596817017	picture	0		511	61.0	/experiments/knapen_AOT/AOT_stimuli/pictures/0289_fw.png	229.46458292007446	4.262952089309692
63	88.18446803092957	response	0	j		61.0	/experiments/knapen_AOT/AOT_stimuli/pictures/0289_fw.png	233.71487498283386	
64	88.19712805747986	picture	0		151	62.0	/experiments/knapen_AOT/AOT_stimuli/pictures/0945_fw.png	233.72753500938416	1.257080078125
64	89.43594598770142	response	0	k		62.0	/experiments/knapen_AOT/AOT_stimuli/pictures/0945_fw.png	234.9663529396057	
65	89.45420813560486	picture	0		138	63.0	/experiments/knapen_AOT/AOT_stimuli/pictures/1197_fw.png	234.98461508750916	1.1467599868774414
65	90.59318804740906	response	0	j		63.0	/experiments/knapen_AOT/AOT_stimuli/pictures/1197_fw.png	236.12359499931335	
66	90.6009681224823	picture	0		104	64.0	/experiments/knapen_AOT/AOT_stimuli/pictures/0461_fw.png	236.1313750743866	0.8671298027038574
66	91.45940613746643	response	0	j		64.0	/experiments/knapen_AOT/AOT_stimuli/pictures/0461_fw.png	236.98981308937073	
67	91.46809792518616	picture	0		103	65.0	/experiments/knapen_AOT/AOT_stimuli/pictures/0774_fw.png	236.99850487709045	0.8610801696777344
67	92.31777000427246	response	0	k		65.0	/experiments/knapen_AOT/AOT_stimuli/pictures/0774_fw.png	237.84817695617676	
68	92.32917809486389	picture	0		251	66.0	/experiments/knapen_AOT/AOT_stimuli/pictures/0522_fw.png	237.8595850467682	2.0902130603790283
68	94.4095230102539	response	0	j		66.0	/experiments/knapen_AOT/AOT_stimuli/pictures/0522_fw.png	239.9399299621582	
69	94.41939115524292	picture	0		126	67.0	/experiments/knapen_AOT/AOT_stimuli/pictures/1763_fw.png	239.94979810714722	1.0486807823181152
69	95.4594521522522	response	0	j		67.0	/experiments/knapen_AOT/AOT_stimuli/pictures/1763_fw.png	240.9898591041565	
70	95.46807193756104	picture	0		216	68.0	/experiments/knapen_AOT/AOT_stimuli/pictures/0438_fw.png	240.99847888946533	1.8055801391601562
70	97.25986814498901	response	0	j		68.0	/experiments/knapen_AOT/AOT_stimuli/pictures/0438_fw.png	242.7902750968933	
71	97.27365207672119	picture	0		118	69.0	/experiments/knapen_AOT/AOT_stimuli/pictures/0902_fw.png	242.8040590286255	0.9862120151519775
71	98.24437212944031	response	0	j		69.0	/experiments/knapen_AOT/AOT_stimuli/pictures/0902_fw.png	243.7747790813446	
72	98.25986409187317	picture	0		116	70.0	/experiments/knapen_AOT/AOT_stimuli/pictures/1668_fw.png	243.79027104377747	0.9662199020385742
72	99.21098399162292	response	0	k		70.0	/experiments/knapen_AOT/AOT_stimuli/pictures/1668_fw.png	244.74139094352722	
73	99.22608399391174	picture	0		126	71.0	/experiments/knapen_AOT/AOT_stimuli/pictures/1075_fw.png	244.75649094581604	1.0545461177825928
73	100.26799201965332	response	0	j		71.0	/experiments/knapen_AOT/AOT_stimuli/pictures/1075_fw.png	245.79839897155762	
74	100.28063011169434	picture	0		115	72.0	/experiments/knapen_AOT/AOT_stimuli/pictures/1475_fw.png	245.81103706359863	0.9584510326385498
74	101.219810962677	response	0	k		72.0	/experiments/knapen_AOT/AOT_stimuli/pictures/1475_fw.png	246.7502179145813	
75	101.23908114433289	picture	0		100	73.0	/experiments/knapen_AOT/AOT_stimuli/pictures/0135_fw.png	246.76948809623718	0.8333108425140381
75	102.05952596664429	response	0	j		73.0	/experiments/knapen_AOT/AOT_stimuli/pictures/0135_fw.png	247.58993291854858	
76	102.07239198684692	picture	0		93	74.0	/experiments/knapen_AOT/AOT_stimuli/pictures/0018_fw.png	247.60279893875122	0.7707631587982178
76	102.82784795761108	response	0	j		74.0	/experiments/knapen_AOT/AOT_stimuli/pictures/0018_fw.png	248.35825490951538	
77	102.84315514564514	picture	0		88	75.0	/experiments/knapen_AOT/AOT_stimuli/pictures/0565_fw.png	248.37356209754944	0.7361178398132324
77	103.5680091381073	response	0	j		75.0	/experiments/knapen_AOT/AOT_stimuli/pictures/0565_fw.png	249.0984160900116	
78	103.57927298545837	picture	0		175	76.0	/experiments/knapen_AOT/AOT_stimuli/pictures/1596_fw.png	249.10967993736267	1.4582290649414062
78	105.01960706710815	response	0	k		76.0	/experiments/knapen_AOT/AOT_stimuli/pictures/1596_fw.png	250.55001401901245	
79	105.03750205039978	picture	0		164	77.0	/experiments/knapen_AOT/AOT_stimuli/pictures/0256_fw.png	250.56790900230408	1.3680698871612549
79	106.39310598373413	response	0	j		77.0	/experiments/knapen_AOT/AOT_stimuli/pictures/0256_fw.png	251.92351293563843	
80	106.40557193756104	picture	0		88	78.0	/experiments/knapen_AOT/AOT_stimuli/pictures/0031_fw.png	251.93597888946533	0.737227201461792
80	107.13503098487854	response	0	k		78.0	/experiments/knapen_AOT/AOT_stimuli/pictures/0031_fw.png	252.66543793678284	
81	107.14279913902283	picture	0		251	79.0	/experiments/knapen_AOT/AOT_stimuli/pictures/1523_fw.png	252.67320609092712	2.0961828231811523
81	109.21970200538635	response	0	k		79.0	/experiments/knapen_AOT/AOT_stimuli/pictures/1523_fw.png	254.75010895729065	
82	109.23898196220398	picture	0		95	80.0	/experiments/knapen_AOT/AOT_stimuli/pictures/1127_fw.png	254.76938891410828	0.7986760139465332
82	110.01958012580872	response	0	j		80.0	/experiments/knapen_AOT/AOT_stimuli/pictures/1127_fw.png	255.549987077713	
83	110.03765797615051	picture	0		146	81.0	/experiments/knapen_AOT/AOT_stimuli/pictures/1534_fw.png	255.5680649280548	1.2153191566467285
83	111.24302792549133	response	0	j		81.0	/experiments/knapen_AOT/AOT_stimuli/pictures/1534_fw.png	256.77343487739563	
84	111.25297713279724	picture	0		105	82.0	/experiments/knapen_AOT/AOT_stimuli/pictures/1579_fw.png	256.78338408470154	0.8749539852142334
84	112.11809396743774	response	0	k		82.0	/experiments/knapen_AOT/AOT_stimuli/pictures/1579_fw.png	257.64850091934204	
85	112.12793111801147	picture	0		103	83.0	/experiments/knapen_AOT/AOT_stimuli/pictures/1964_fw.png	257.65833806991577	0.8612120151519775
85	112.97647094726562	response	0	j		83.0	/experiments/knapen_AOT/AOT_stimuli/pictures/1964_fw.png	258.5068778991699	
86	112.98914313316345	picture	0		98	84.0	/experiments/knapen_AOT/AOT_stimuli/pictures/1886_fw.png	258.51955008506775	0.8124308586120605
86	113.79312801361084	response	0	j		84.0	/experiments/knapen_AOT/AOT_stimuli/pictures/1886_fw.png	259.32353496551514	
87	113.80157399177551	picture	0		111	85.0	/experiments/knapen_AOT/AOT_stimuli/pictures/0765_fw.png	259.3319809436798	0.9247300624847412
87	114.71836614608765	response	0	k		85.0	/experiments/knapen_AOT/AOT_stimuli/pictures/0765_fw.png	260.24877309799194	
88	114.72630405426025	picture	0		122	86.0	/experiments/knapen_AOT/AOT_stimuli/pictures/1630_fw.png	260.25671100616455	1.019697904586792
88	115.7347309589386	response	0	j		86.0	/experiments/knapen_AOT/AOT_stimuli/pictures/1630_fw.png	261.2651379108429	
89	115.74600195884705	picture	0		131	87.0	/experiments/knapen_AOT/AOT_stimuli/pictures/0875_fw.png	261.27640891075134	1.0903620719909668
89	116.82660102844238	response	0	k		87.0	/experiments/knapen_AOT/AOT_stimuli/pictures/0875_fw.png	262.3570079803467	
90	116.83636403083801	picture	0		121	88.0	/experiments/knapen_AOT/AOT_stimuli/pictures/0962_fw.png	262.3667709827423	1.0068869590759277
90	117.83489108085632	response	0	j		88.0	/experiments/knapen_AOT/AOT_stimuli/pictures/0962_fw.png	263.3652980327606	
91	117.84325098991394	picture	0		142	89.0	/experiments/knapen_AOT/AOT_stimuli/pictures/0536_fw.png	263.37365794181824	1.1876070499420166
91	119.01158404350281	response	0	k		89.0	/experiments/knapen_AOT/AOT_stimuli/pictures/0536_fw.png	264.5419909954071	
92	119.03085803985596	picture	0		122	90.0	/experiments/knapen_AOT/AOT_stimuli/pictures/0346_fw.png	264.56126499176025	1.0138039588928223
92	120.03478693962097	response	0	j		90.0	/experiments/knapen_AOT/AOT_stimuli/pictures/0346_fw.png	265.56519389152527	
93	120.04466199874878	picture	0		127	91.0	/experiments/knapen_AOT/AOT_stimuli/pictures/0654_fw.png	265.5750689506531	1.0625700950622559
93	121.09341406822205	response	0	k		91.0	/experiments/knapen_AOT/AOT_stimuli/pictures/0654_fw.png	266.62382102012634	
94	121.10723209381104	picture	0		330	92.0	/experiments/knapen_AOT/AOT_stimuli/pictures/0573_fw.png	266.63763904571533	2.7568199634552
94	123.85160899162292	response	0	k		92.0	/experiments/knapen_AOT/AOT_stimuli/pictures/0573_fw.png	269.3820159435272	
95	123.86405205726624	picture	0		86	93.0	/experiments/knapen_AOT/AOT_stimuli/pictures/0075_fw.png	269.39445900917053	0.7223939895629883
95	124.57648205757141	response	0	k		93.0	/experiments/knapen_AOT/AOT_stimuli/pictures/0075_fw.png	270.1068890094757	
96	124.58644604682922	picture	0		213	94.0	/experiments/knapen_AOT/AOT_stimuli/pictures/1944_fw.png	270.1168529987335	1.7776410579681396
96	126.35161900520325	response	0	k		94.0	/experiments/knapen_AOT/AOT_stimuli/pictures/1944_fw.png	271.88202595710754	
97	126.36408710479736	picture	0		86	95.0	/experiments/knapen_AOT/AOT_stimuli/pictures/0041_fw.png	271.89449405670166	0.7292258739471436
97	127.08487010002136	response	0	k		95.0	/experiments/knapen_AOT/AOT_stimuli/pictures/0041_fw.png	272.61527705192566	
98	127.0933129787445	picture	0		97	96.0	/experiments/knapen_AOT/AOT_stimuli/pictures/1471_fw.png	272.6237199306488	0.8125400543212891
98	127.89320492744446	response	0	j		96.0	/experiments/knapen_AOT/AOT_stimuli/pictures/1471_fw.png	273.42361187934875	
99	127.9058530330658	picture	0		291	97.0	/experiments/knapen_AOT/AOT_stimuli/pictures/1004_fw.png	273.4362599849701	2.4235150814056396
99	130.3182990550995	response	0	j		97.0	/experiments/knapen_AOT/AOT_stimuli/pictures/1004_fw.png	275.8487060070038	
100	130.32936811447144	picture	0		247	98.0	/experiments/knapen_AOT/AOT_stimuli/pictures/0314_fw.png	275.85977506637573	2.055598020553589
100	132.37667798995972	response	0	k		98.0	/experiments/knapen_AOT/AOT_stimuli/pictures/0314_fw.png	277.907084941864	
101	132.38496613502502	picture	0		112	99.0	/experiments/knapen_AOT/AOT_stimuli/pictures/0494_fw.png	277.9153730869293	0.9375739097595215
101	133.31011295318604	response	0	k		99.0	/experiments/knapen_AOT/AOT_stimuli/pictures/0494_fw.png	278.84051990509033	
102	133.32254004478455	picture	0		108	100.0	/experiments/knapen_AOT/AOT_stimuli/pictures/0086_fw.png	278.85294699668884	0.8958358764648438
102	134.20312213897705	response	0	j		100.0	/experiments/knapen_AOT/AOT_stimuli/pictures/0086_fw.png	279.73352909088135	
103	134.2183759212494	picture	0		100	101.0	/experiments/knapen_AOT/AOT_stimuli/pictures/2032_fw.png	279.7487828731537	0.8333590030670166
103	135.04333901405334	response	0	j		101.0	/experiments/knapen_AOT/AOT_stimuli/pictures/2032_fw.png	280.57374596595764	
104	135.0517349243164	picture	0		145	102.0	/experiments/knapen_AOT/AOT_stimuli/pictures/1207_fw.png	280.5821418762207	1.2083539962768555
104	136.2516770362854	response	0	j		102.0	/experiments/knapen_AOT/AOT_stimuli/pictures/1207_fw.png	281.7820839881897	
105	136.26008892059326	picture	0		98	103.0	/experiments/knapen_AOT/AOT_stimuli/pictures/0525_fw.png	281.79049587249756	0.8194141387939453
105	137.06837511062622	response	0	k		103.0	/experiments/knapen_AOT/AOT_stimuli/pictures/0525_fw.png	282.5987820625305	
106	137.0795030593872	picture	0		134	104.0	/experiments/knapen_AOT/AOT_stimuli/pictures/0185_fw.png	282.6099100112915	1.1180648803710938
106	138.17844915390015	response	0	k		104.0	/experiments/knapen_AOT/AOT_stimuli/pictures/0185_fw.png	283.70885610580444	
107	138.1975679397583	picture	0		616	105.0	/experiments/knapen_AOT/AOT_stimuli/pictures/1163_fw.png	283.7279748916626	5.131909132003784
107	143.31845712661743	response	0	j		105.0	/experiments/knapen_AOT/AOT_stimuli/pictures/1163_fw.png	288.84886407852173	
108	143.32947707176208	picture	0		95	106.0	/experiments/knapen_AOT/AOT_stimuli/pictures/0311_fw.png	288.8598840236664	0.7917990684509277
108	144.11006999015808	response	0	j		106.0	/experiments/knapen_AOT/AOT_stimuli/pictures/0311_fw.png	289.6404769420624	
109	144.121276140213	picture	0		110	107.0	/experiments/knapen_AOT/AOT_stimuli/pictures/1295_fw.png	289.6516830921173	0.9167559146881104
109	145.02681493759155	response	0	j		107.0	/experiments/knapen_AOT/AOT_stimuli/pictures/1295_fw.png	290.55722188949585	
110	145.03803205490112	picture	0		160	108.0	/experiments/knapen_AOT/AOT_stimuli/pictures/1674_fw.png	290.5684390068054	1.3332440853118896
110	146.36025309562683	response	0	j		108.0	/experiments/knapen_AOT/AOT_stimuli/pictures/1674_fw.png	291.8906600475311	
111	146.371276140213	picture	0		105	109.0	/experiments/knapen_AOT/AOT_stimuli/pictures/1338_fw.png	291.9016830921173	0.8750219345092773
111	147.2351269721985	response	0	k		109.0	/experiments/knapen_AOT/AOT_stimuli/pictures/1338_fw.png	292.7655339241028	
112	147.2462980747223	picture	0		121	110.0	/experiments/knapen_AOT/AOT_stimuli/pictures/1915_fw.png	292.7767050266266	1.006932020187378
112	148.24345707893372	response	0	j		110.0	/experiments/knapen_AOT/AOT_stimuli/pictures/1915_fw.png	293.773864030838	
113	148.25323009490967	picture	0		109	111.0	/experiments/knapen_AOT/AOT_stimuli/pictures/1985_fw.png	293.78363704681396	0.9097499847412109
113	149.15182304382324	response	0	j		111.0	/experiments/knapen_AOT/AOT_stimuli/pictures/1985_fw.png	294.68222999572754	
114	149.16298007965088	picture	0		140	112.0	/experiments/knapen_AOT/AOT_stimuli/pictures/1450_fw.png	294.6933870315552	1.1666510105133057
114	150.31849312782288	response	0	k		112.0	/experiments/knapen_AOT/AOT_stimuli/pictures/1450_fw.png	295.8489000797272	
115	150.32963109016418	picture	0		137	113.0	/experiments/knapen_AOT/AOT_stimuli/pictures/1758_fw.png	295.8600380420685	1.1389319896697998
115	151.46037197113037	response	0	k		113.0	/experiments/knapen_AOT/AOT_stimuli/pictures/1758_fw.png	296.99077892303467	
116	151.46856307983398	picture	0		96	114.0	/experiments/knapen_AOT/AOT_stimuli/pictures/0271_fw.png	296.9989700317383	0.7998299598693848
116	152.26045608520508	response	0	j		114.0	/experiments/knapen_AOT/AOT_stimuli/pictures/0271_fw.png	297.7908630371094	
117	152.26839303970337	picture	0		486	115.0	/experiments/knapen_AOT/AOT_stimuli/pictures/1288_fw.png	297.79879999160767	4.054291009902954
117	156.31045293807983	response	0	j		115.0	/experiments/knapen_AOT/AOT_stimuli/pictures/1288_fw.png	301.84085988998413	
118	156.32268404960632	picture	0		112	116.0	/experiments/knapen_AOT/AOT_stimuli/pictures/1878_fw.png	301.8530910015106	0.9306619167327881
118	157.24359107017517	response	0	j		116.0	/experiments/knapen_AOT/AOT_stimuli/pictures/1878_fw.png	302.77399802207947	
119	157.2533459663391	picture	0		759	117.0	/experiments/knapen_AOT/AOT_stimuli/pictures/1810_fw.png	302.7837529182434	6.3262810707092285
119	163.56204104423523	response	0	k		117.0	/experiments/knapen_AOT/AOT_stimuli/pictures/1810_fw.png	309.0924479961395	
120	163.57962703704834	picture	0		180	118.0	/experiments/knapen_AOT/AOT_stimuli/pictures/0592_fw.png	309.11003398895264	1.500035047531128
120	165.06873202323914	response	0	j		118.0	/experiments/knapen_AOT/AOT_stimuli/pictures/0592_fw.png	310.59913897514343	
121	165.07966208457947	picture	0		100	119.0	/experiments/knapen_AOT/AOT_stimuli/pictures/0714_fw.png	310.61006903648376	0.8334698677062988
121	165.9020290374756	response	0	k		119.0	/experiments/knapen_AOT/AOT_stimuli/pictures/0714_fw.png	311.4324359893799	
122	165.91313195228577	picture	0		125	120.0	/experiments/knapen_AOT/AOT_stimuli/pictures/1100_fw.png	311.44353890419006	1.0416460037231445
122	166.94372415542603	response	0	k		120.0	/experiments/knapen_AOT/AOT_stimuli/pictures/1100_fw.png	312.4741311073303	
123	166.9547779560089	picture	0		156	121.0	/experiments/knapen_AOT/AOT_stimuli/pictures/1853_fw.png	312.4851849079132	1.298673152923584
123	168.24374914169312	response	0	k		121.0	/experiments/knapen_AOT/AOT_stimuli/pictures/1853_fw.png	313.7741560935974	
124	168.2534511089325	picture	0		554	122.0	/experiments/knapen_AOT/AOT_stimuli/pictures/1279_fw.png	313.7838580608368	4.617919921875
124	172.86063504219055	response	0	k		122.0	/experiments/knapen_AOT/AOT_stimuli/pictures/1279_fw.png	318.39104199409485	
125	172.8713710308075	picture	0		406	123.0	/experiments/knapen_AOT/AOT_stimuli/pictures/0240_fw.png	318.4017779827118	3.381989002227783
125	176.24392795562744	response	0	k		123.0	/experiments/knapen_AOT/AOT_stimuli/pictures/0240_fw.png	321.77433490753174	
126	176.25336003303528	picture	0		119	124.0	/experiments/knapen_AOT/AOT_stimuli/pictures/0851_fw.png	321.7837669849396	0.9931380748748779
126	177.23550701141357	response	0	k		124.0	/experiments/knapen_AOT/AOT_stimuli/pictures/0851_fw.png	322.76591396331787	
127	177.24649810791016	picture	0		106	125.0	/experiments/knapen_AOT/AOT_stimuli/pictures/0095_fw.png	322.77690505981445	0.8819599151611328
127	178.118891954422	response	0	k		125.0	/experiments/knapen_AOT/AOT_stimuli/pictures/0095_fw.png	323.6492989063263	
128	178.1284580230713	picture	0		120	126.0	/experiments/knapen_AOT/AOT_stimuli/pictures/0936_fw.png	323.6588649749756	1.0000090599060059
128	179.1189260482788	response	0	j		126.0	/experiments/knapen_AOT/AOT_stimuli/pictures/0936_fw.png	324.6493330001831	
129	179.1284670829773	picture	0		99	127.0	/experiments/knapen_AOT/AOT_stimuli/pictures/1510_fw.png	324.6588740348816	0.8264498710632324
129	179.9372980594635	response	0	k		127.0	/experiments/knapen_AOT/AOT_stimuli/pictures/1510_fw.png	325.4677050113678	
130	179.95491695404053	picture	0		117	128.0	/experiments/knapen_AOT/AOT_stimuli/pictures/1467_fw.png	325.4853239059448	0.9722490310668945
130	180.91899704933167	response	0	k		128.0	/experiments/knapen_AOT/AOT_stimuli/pictures/1467_fw.png	326.44940400123596	
131	180.92716598510742	picture	0		128	129.0	/experiments/knapen_AOT/AOT_stimuli/pictures/1653_fw.png	326.4575729370117	1.069375991821289
131	181.98557901382446	response	0	j		129.0	/experiments/knapen_AOT/AOT_stimuli/pictures/1653_fw.png	327.51598596572876	
132	181.9965419769287	picture	0		167	130.0	/experiments/knapen_AOT/AOT_stimuli/pictures/1662_fw.png	327.526948928833	1.3889269828796387
132	183.37732100486755	response	0	k		130.0	/experiments/knapen_AOT/AOT_stimuli/pictures/1662_fw.png	328.90772795677185	
133	183.38546895980835	picture	0		118	131.0	/experiments/knapen_AOT/AOT_stimuli/pictures/0744_fw.png	328.91587591171265	0.9860730171203613
133	184.35385394096375	response	0	k		131.0	/experiments/knapen_AOT/AOT_stimuli/pictures/0744_fw.png	329.88426089286804	
134	184.3715419769287	picture	0		163	132.0	/experiments/knapen_AOT/AOT_stimuli/pictures/0977_fw.png	329.901948928833	1.3610610961914062
134	185.71900010108948	response	0	k		132.0	/experiments/knapen_AOT/AOT_stimuli/pictures/0977_fw.png	331.2494070529938	
135	185.73260307312012	picture	0		105	133.0	/experiments/knapen_AOT/AOT_stimuli/pictures/0206_fw.png	331.2630100250244	0.9168329238891602
135	186.63568806648254	response	0	k		133.0	/experiments/knapen_AOT/AOT_stimuli/pictures/0206_fw.png	332.16609501838684	
136	186.64943599700928	picture	0		121	134.0	/experiments/knapen_AOT/AOT_stimuli/pictures/1189_fw.png	332.1798429489136	1.0138981342315674
136	187.65236115455627	response	0	k		134.0	/experiments/knapen_AOT/AOT_stimuli/pictures/1189_fw.png	333.18276810646057	
137	187.66333413124084	picture	0		103	135.0	/experiments/knapen_AOT/AOT_stimuli/pictures/1726_fw.png	333.19374108314514	0.8556468486785889
137	188.51068997383118	response	0	j		135.0	/experiments/knapen_AOT/AOT_stimuli/pictures/1726_fw.png	334.0410969257355	
138	188.51898097991943	picture	0		601	136.0	/experiments/knapen_AOT/AOT_stimuli/pictures/1403_fw.png	334.04938793182373	5.012290954589844
138	193.5192630290985	response	0	k		136.0	/experiments/knapen_AOT/AOT_stimuli/pictures/1403_fw.png	339.0496699810028	
139	193.53127193450928	picture	0		221	137.0	/experiments/knapen_AOT/AOT_stimuli/pictures/1678_fw.png	339.0616788864136	1.8402681350708008
139	195.3607621192932	response	0	k		137.0	/experiments/knapen_AOT/AOT_stimuli/pictures/1678_fw.png	340.8911690711975	
140	195.37154006958008	picture	0		166	138.0	/experiments/knapen_AOT/AOT_stimuli/pictures/1584_fw.png	340.9019470214844	1.3819780349731445
140	196.73744297027588	response	0	k		138.0	/experiments/knapen_AOT/AOT_stimuli/pictures/1584_fw.png	342.2678499221802	
141	196.75351810455322	picture	0		93	139.0	/experiments/knapen_AOT/AOT_stimuli/pictures/0229_fw.png	342.2839250564575	0.7778689861297607
141	197.51929903030396	response	0	k		139.0	/experiments/knapen_AOT/AOT_stimuli/pictures/0229_fw.png	343.04970598220825	
142	197.53138709068298	picture	0		104	140.0	/experiments/knapen_AOT/AOT_stimuli/pictures/2060_fw.png	343.0617940425873	0.8680469989776611
142	198.38581609725952	response	0	k		140.0	/experiments/knapen_AOT/AOT_stimuli/pictures/2060_fw.png	343.9162230491638	
143	198.39943408966064	picture	0		137	141.0	/experiments/knapen_AOT/AOT_stimuli/pictures/1790_fw.png	343.92984104156494	1.1458690166473389
143	199.5292820930481	response	0	k		141.0	/experiments/knapen_AOT/AOT_stimuli/pictures/1790_fw.png	345.0596890449524	
144	199.54530310630798	picture	0		135	142.0	/experiments/knapen_AOT/AOT_stimuli/pictures/0859_fw.png	345.0757100582123	1.1250879764556885
144	200.6608989238739	response	0	k		142.0	/experiments/knapen_AOT/AOT_stimuli/pictures/0859_fw.png	346.1913058757782	
145	200.67039108276367	picture	0		93	143.0	/experiments/knapen_AOT/AOT_stimuli/pictures/0030_fw.png	346.20079803466797	0.7778089046478271
145	201.4360740184784	response	0	k		143.0	/experiments/knapen_AOT/AOT_stimuli/pictures/0030_fw.png	346.9664809703827	
146	201.4481999874115	picture	0		182	144.0	/experiments/knapen_AOT/AOT_stimuli/pictures/0889_fw.png	346.9786069393158	1.5138540267944336
146	202.95255303382874	response	0	k		144.0	/experiments/knapen_AOT/AOT_stimuli/pictures/0889_fw.png	348.48295998573303	
147	202.96205401420593	picture	0		89	145.0	/experiments/knapen_AOT/AOT_stimuli/pictures/1130_fw.png	348.49246096611023	0.7430050373077393
147	203.69426798820496	response	0	j		145.0	/experiments/knapen_AOT/AOT_stimuli/pictures/1130_fw.png	349.22467494010925	
148	203.70505905151367	picture	0		155	146.0	/experiments/knapen_AOT/AOT_stimuli/pictures/0606_fw.png	349.23546600341797	1.2917649745941162
148	204.9858820438385	response	0	j		146.0	/experiments/knapen_AOT/AOT_stimuli/pictures/0606_fw.png	350.5162889957428	
149	204.9968240261078	picture	0		102	147.0	/experiments/knapen_AOT/AOT_stimuli/pictures/1219_fw.png	350.5272309780121	0.8473300933837891
149	205.8360719680786	response	0	k		147.0	/experiments/knapen_AOT/AOT_stimuli/pictures/1219_fw.png	351.3664789199829	
150	205.84415411949158	picture	0		100	148.0	/experiments/knapen_AOT/AOT_stimuli/pictures/0557_fw.png	351.3745610713959	0.8333079814910889
150	206.6693320274353	response	0	k		148.0	/experiments/knapen_AOT/AOT_stimuli/pictures/0557_fw.png	352.1997389793396	
151	206.67746210098267	picture	0		124	149.0	/experiments/knapen_AOT/AOT_stimuli/pictures/0002_fw.png	352.20786905288696	1.0346770286560059
151	207.70262813568115	response	0	k		149.0	/experiments/knapen_AOT/AOT_stimuli/pictures/0002_fw.png	353.23303508758545	
152	207.71213912963867	picture	0		279	150.0	/experiments/knapen_AOT/AOT_stimuli/pictures/0698_fw.png	353.24254608154297	2.326225996017456
152	210.02771997451782	response	0	k		150.0	/experiments/knapen_AOT/AOT_stimuli/pictures/0698_fw.png	355.5581269264221	
153	210.03836512565613	picture	0		220	151.0	/experiments/knapen_AOT/AOT_stimuli/pictures/1947_fw.png	355.5687720775604	1.8333070278167725
153	211.86114501953125	response	0	j		151.0	/experiments/knapen_AOT/AOT_stimuli/pictures/1947_fw.png	357.39155197143555	
154	211.8716721534729	picture	0		152	152.0	/experiments/knapen_AOT/AOT_stimuli/pictures/1723_fw.png	357.4020791053772	1.2641799449920654
154	213.12103509902954	response	0	j		152.0	/experiments/knapen_AOT/AOT_stimuli/pictures/1723_fw.png	358.65144205093384	
155	213.13585209846497	picture	0		133	153.0	/experiments/knapen_AOT/AOT_stimuli/pictures/1762_fw.png	358.66625905036926	1.1109349727630615
155	214.23614501953125	response	0	j		153.0	/experiments/knapen_AOT/AOT_stimuli/pictures/1762_fw.png	359.76655197143555	
156	214.24678707122803	picture	0		155	154.0	/experiments/knapen_AOT/AOT_stimuli/pictures/0616_fw.png	359.7771940231323	1.2916650772094727
156	215.52096104621887	response	0	j		154.0	/experiments/knapen_AOT/AOT_stimuli/pictures/0616_fw.png	361.05136799812317	
157	215.5384521484375	picture	0		93	155.0	/experiments/knapen_AOT/AOT_stimuli/pictures/0817_fw.png	361.0688591003418	0.7726199626922607
157	216.29595398902893	response	0	j		155.0	/experiments/knapen_AOT/AOT_stimuli/pictures/0817_fw.png	361.8263609409332	
158	216.31107211112976	picture	0		119	156.0	/experiments/knapen_AOT/AOT_stimuli/pictures/0653_fw.png	361.84147906303406	0.9914958477020264
158	217.29446411132812	response	0	k		156.0	/experiments/knapen_AOT/AOT_stimuli/pictures/0653_fw.png	362.8248710632324	
159	217.3025679588318	picture	0		97	157.0	/experiments/knapen_AOT/AOT_stimuli/pictures/0210_fw.png	362.8329749107361	0.8124551773071289
159	218.09586095809937	response	0	k		157.0	/experiments/knapen_AOT/AOT_stimuli/pictures/0210_fw.png	363.62626791000366	
160	218.11502313613892	picture	0		113	158.0	/experiments/knapen_AOT/AOT_stimuli/pictures/1553_fw.png	363.6454300880432	0.9375669956207275
160	219.04447102546692	response	0	j		158.0	/experiments/knapen_AOT/AOT_stimuli/pictures/1553_fw.png	364.5748779773712	
161	219.05259013175964	picture	0		82	159.0	/experiments/knapen_AOT/AOT_stimuli/pictures/2017_fw.png	364.58299708366394	0.687371015548706
161	219.727872133255	response	0	k		159.0	/experiments/knapen_AOT/AOT_stimuli/pictures/2017_fw.png	365.2582790851593	
162	219.73996114730835	picture	0		158	160.0	/experiments/knapen_AOT/AOT_stimuli/pictures/0901_fw.png	365.27036809921265	1.3126838207244873
162	221.04447197914124	response	0	k		160.0	/experiments/knapen_AOT/AOT_stimuli/pictures/0901_fw.png	366.57487893104553	
163	221.05264496803284	picture	0		1606	161.0	/experiments/knapen_AOT/AOT_stimuli/pictures/0615_fw.png	366.58305191993713	13.388671159744263
163	234.4280071258545	response	0	k		161.0	/experiments/knapen_AOT/AOT_stimuli/pictures/0615_fw.png	379.9584140777588	
164	234.4413161277771	picture	0		106	162.0	/experiments/knapen_AOT/AOT_stimuli/pictures/1652_fw.png	379.9717230796814	0.888981819152832
164	235.31961512565613	response	0	k		162.0	/experiments/knapen_AOT/AOT_stimuli/pictures/1652_fw.png	380.8500220775604	
165	235.33029794692993	picture	0		143	163.0	/experiments/knapen_AOT/AOT_stimuli/pictures/1116_fw.png	380.86070489883423	1.1945381164550781
165	236.51141905784607	response	0	k		163.0	/experiments/knapen_AOT/AOT_stimuli/pictures/1116_fw.png	382.04182600975037	
166	236.524836063385	picture	0		87	164.0	/experiments/knapen_AOT/AOT_stimuli/pictures/1873_fw.png	382.0552430152893	0.7290599346160889
166	237.24462604522705	response	0	k		164.0	/experiments/knapen_AOT/AOT_stimuli/pictures/1873_fw.png	382.77503299713135	
167	237.2538959980011	picture	0		88	165.0	/experiments/knapen_AOT/AOT_stimuli/pictures/2037_fw.png	382.7843029499054	0.7361459732055664
167	237.97804999351501	response	0	k		165.0	/experiments/knapen_AOT/AOT_stimuli/pictures/2037_fw.png	383.5084569454193	
168	237.99004197120667	picture	0		127	166.0	/experiments/knapen_AOT/AOT_stimuli/pictures/1201_fw.png	383.52044892311096	1.0555381774902344
168	239.0363359451294	response	0	k		166.0	/experiments/knapen_AOT/AOT_stimuli/pictures/1201_fw.png	384.5667428970337	
169	239.0455801486969	picture	0		1589	167.0	/experiments/knapen_AOT/AOT_stimuli/pictures/2108_fw.png	384.5759871006012	13.243106842041016
169	252.2715620994568	response	0	k		167.0	/experiments/knapen_AOT/AOT_stimuli/pictures/2108_fw.png	397.8019690513611	
170	252.28868699073792	picture	0		82	168.0	/experiments/knapen_AOT/AOT_stimuli/pictures/1254_fw.png	397.8190939426422	0.7084181308746338
170	252.98653101921082	response	0	j		168.0	/experiments/knapen_AOT/AOT_stimuli/pictures/1254_fw.png	398.5169379711151	
171	252.99710512161255	picture	0		101	169.0	/experiments/knapen_AOT/AOT_stimuli/pictures/0666_fw.png	398.52751207351685	0.8476269245147705
171	253.82823514938354	response	0	j		169.0	/experiments/knapen_AOT/AOT_stimuli/pictures/0666_fw.png	399.35864210128784	
172	253.84473204612732	picture	0		138	170.0	/experiments/knapen_AOT/AOT_stimuli/pictures/0695_fw.png	399.3751389980316	1.1523940563201904
172	254.98654413223267	response	0	j		170.0	/experiments/knapen_AOT/AOT_stimuli/pictures/0695_fw.png	400.51695108413696	
173	254.9971261024475	picture	0		133	171.0	/experiments/knapen_AOT/AOT_stimuli/pictures/1011_fw.png	400.5275330543518	1.111119031906128
173	256.0949010848999	response	0	j		171.0	/experiments/knapen_AOT/AOT_stimuli/pictures/1011_fw.png	401.6253080368042	
174	256.10824513435364	picture	0		596	172.0	/experiments/knapen_AOT/AOT_stimuli/pictures/1050_fw.png	401.63865208625793	4.972141981124878
174	261.06321597099304	response	0	k		172.0	/experiments/knapen_AOT/AOT_stimuli/pictures/1050_fw.png	406.59362292289734	
175	261.0803871154785	picture	0		124	173.0	/experiments/knapen_AOT/AOT_stimuli/pictures/0421_fw.png	406.6107940673828	1.0349140167236328
175	262.10342502593994	response	0	k		173.0	/experiments/knapen_AOT/AOT_stimuli/pictures/0421_fw.png	407.63383197784424	
176	262.11530113220215	picture	0		227	174.0	/experiments/knapen_AOT/AOT_stimuli/pictures/0347_fw.png	407.64570808410645	1.8887789249420166
176	263.9951000213623	response	0	j		174.0	/experiments/knapen_AOT/AOT_stimuli/pictures/0347_fw.png	409.5255069732666	
177	264.00408005714417	picture	0		100	175.0	/experiments/knapen_AOT/AOT_stimuli/pictures/1020_fw.png	409.53448700904846	0.8333559036254883
177	264.82834792137146	response	0	k		175.0	/experiments/knapen_AOT/AOT_stimuli/pictures/1020_fw.png	410.35875487327576	
178	264.83743596076965	picture	0		391	176.0	/experiments/knapen_AOT/AOT_stimuli/pictures/0825_fw.png	410.36784291267395	3.2576651573181152
178	268.08677101135254	response	0	j		176.0	/experiments/knapen_AOT/AOT_stimuli/pictures/0825_fw.png	413.61717796325684	
179	268.09510111808777	picture	0		104	177.0	/experiments/knapen_AOT/AOT_stimuli/pictures/0400_fw.png	413.62550806999207	0.86739182472229
179	268.95342111587524	response	0	j		177.0	/experiments/knapen_AOT/AOT_stimuli/pictures/0400_fw.png	414.48382806777954	
180	268.96249294281006	picture	0		100	178.0	/experiments/knapen_AOT/AOT_stimuli/pictures/2165_fw.png	414.49289989471436	0.8333430290222168
180	269.7867600917816	response	0	j		178.0	/experiments/knapen_AOT/AOT_stimuli/pictures/2165_fw.png	415.3171670436859	
181	269.7958359718323	picture	0		751	179.0	/experiments/knapen_AOT/AOT_stimuli/pictures/1473_fw.png	415.3262429237366	6.263859987258911
181	276.0385329723358	response	0	k		179.0	/experiments/knapen_AOT/AOT_stimuli/pictures/1473_fw.png	421.5689399242401	
182	276.0596959590912	picture	0		127	180.0	/experiments/knapen_AOT/AOT_stimuli/pictures/0849_fw.png	421.5901029109955	1.0626120567321777
182	277.11183500289917	response	0	j		180.0	/experiments/knapen_AOT/AOT_stimuli/pictures/0849_fw.png	422.64224195480347	
183	277.12230801582336	picture	0		113	181.0	/experiments/knapen_AOT/AOT_stimuli/pictures/0180_fw.png	422.65271496772766	0.944451093673706
183	278.0469789505005	response	0	k		181.0	/experiments/knapen_AOT/AOT_stimuli/pictures/0180_fw.png	423.5773859024048	
184	278.06675910949707	picture	0		104	182.0	/experiments/knapen_AOT/AOT_stimuli/pictures/0021_fw.png	423.59716606140137	0.8750159740447998
184	278.92851305007935	response	0	j		182.0	/experiments/knapen_AOT/AOT_stimuli/pictures/0021_fw.png	424.45892000198364	
185	278.94177508354187	picture	0		97	183.0	/experiments/knapen_AOT/AOT_stimuli/pictures/0376_fw.png	424.47218203544617	0.8125429153442383
185	279.745414018631	response	0	k		183.0	/experiments/knapen_AOT/AOT_stimuli/pictures/0376_fw.png	425.2758209705353	
186	279.7543179988861	picture	0		123	184.0	/experiments/knapen_AOT/AOT_stimuli/pictures/0090_fw.png	425.2847249507904	1.0278239250183105
186	280.77027797698975	response	0	k		184.0	/experiments/knapen_AOT/AOT_stimuli/pictures/0090_fw.png	426.30068492889404	
187	280.7821419239044	picture	0		1008	185.0	/experiments/knapen_AOT/AOT_stimuli/pictures/1970_fw.png	426.3125488758087	8.396458148956299
187	289.1704671382904	response	0	k		185.0	/experiments/knapen_AOT/AOT_stimuli/pictures/1970_fw.png	434.7008740901947	
188	289.1786000728607	picture	0		112	186.0	/experiments/knapen_AOT/AOT_stimuli/pictures/1686_fw.png	434.709007024765	0.936863899230957
188	290.1038200855255	response	0	k		186.0	/experiments/knapen_AOT/AOT_stimuli/pictures/1686_fw.png	435.6342270374298	
189	290.1154639720917	picture	0		108	187.0	/experiments/knapen_AOT/AOT_stimuli/pictures/1928_fw.png	435.645870923996	0.896461009979248
189	291.0037751197815	response	0	j		187.0	/experiments/knapen_AOT/AOT_stimuli/pictures/1928_fw.png	436.5341820716858	
190	291.0119249820709	picture	0		228	188.0	/experiments/knapen_AOT/AOT_stimuli/pictures/1198_fw.png	436.5423319339752	1.9021210670471191
190	292.90375113487244	response	0	k		188.0	/experiments/knapen_AOT/AOT_stimuli/pictures/1198_fw.png	438.43415808677673	
191	292.91404604911804	picture	0		90	189.0	/experiments/knapen_AOT/AOT_stimuli/pictures/1492_fw.png	438.44445300102234	0.7500360012054443
191	293.64707803726196	response	0	k		189.0	/experiments/knapen_AOT/AOT_stimuli/pictures/1492_fw.png	439.17748498916626	
192	293.6640820503235	picture	0		94	190.0	/experiments/knapen_AOT/AOT_stimuli/pictures/2122_fw.png	439.1944890022278	0.7848050594329834
192	294.4306139945984	response	0	k		190.0	/experiments/knapen_AOT/AOT_stimuli/pictures/2122_fw.png	439.9610209465027	
193	294.44888710975647	picture	0		140	191.0	/experiments/knapen_AOT/AOT_stimuli/pictures/2173_fw.png	439.97929406166077	1.1665959358215332
193	295.6038980484009	response	0	k		191.0	/experiments/knapen_AOT/AOT_stimuli/pictures/2173_fw.png	441.1343050003052	
194	295.615483045578	picture	0		123	192.0	/experiments/knapen_AOT/AOT_stimuli/pictures/0784_fw.png	441.1458899974823	1.027824878692627
194	296.6219620704651	response	0	j		192.0	/experiments/knapen_AOT/AOT_stimuli/pictures/0784_fw.png	442.1523690223694	
195	296.64330792427063	picture	0		146	193.0	/experiments/knapen_AOT/AOT_stimuli/pictures/1078_fw.png	442.1737148761749	1.2221770286560059
195	297.84700894355774	response	0	j		193.0	/experiments/knapen_AOT/AOT_stimuli/pictures/1078_fw.png	443.37741589546204	
196	297.86548495292664	picture	0		82	194.0	/experiments/knapen_AOT/AOT_stimuli/pictures/0017_fw.png	443.39589190483093	0.6805531978607178
196	298.53715109825134	response	0	j		194.0	/experiments/knapen_AOT/AOT_stimuli/pictures/0017_fw.png	444.06755805015564	
197	298.54603815078735	picture	0		98	195.0	/experiments/knapen_AOT/AOT_stimuli/pictures/0251_fw.png	444.07644510269165	0.8194708824157715
197	299.3539490699768	response	0	j		195.0	/experiments/knapen_AOT/AOT_stimuli/pictures/0251_fw.png	444.8843560218811	
198	299.3655090332031	picture	0		98	196.0	/experiments/knapen_AOT/AOT_stimuli/pictures/1021_fw.png	444.8959159851074	0.8132109642028809
198	300.17048597335815	response	0	j		196.0	/experiments/knapen_AOT/AOT_stimuli/pictures/1021_fw.png	445.70089292526245	
199	300.178719997406	picture	0		89	197.0	/experiments/knapen_AOT/AOT_stimuli/pictures/1373_fw.png	445.7091269493103	0.7423801422119141
199	300.9121789932251	response	0	j		197.0	/experiments/knapen_AOT/AOT_stimuli/pictures/1373_fw.png	446.4425859451294	
200	300.9211001396179	picture	0		93	198.0	/experiments/knapen_AOT/AOT_stimuli/pictures/1616_fw.png	446.4515070915222	0.7777848243713379
200	301.68726992607117	response	0	j		198.0	/experiments/knapen_AOT/AOT_stimuli/pictures/1616_fw.png	447.21767687797546	
201	301.69888496398926	picture	0		186	199.0	/experiments/knapen_AOT/AOT_stimuli/pictures/0364_fw.png	447.22929191589355	1.5485219955444336
201	303.23058700561523	response	0	j		199.0	/experiments/knapen_AOT/AOT_stimuli/pictures/0364_fw.png	448.76099395751953	
202	303.2474069595337	picture	0		132	200.0	/experiments/knapen_AOT/AOT_stimuli/pictures/1617_fw.png	448.777813911438	1.1042940616607666
202	304.33802914619446	response	0	j		200.0	/experiments/knapen_AOT/AOT_stimuli/pictures/1617_fw.png	449.86843609809875	
203	304.35170102119446	picture	0		99	201.0	/experiments/knapen_AOT/AOT_stimuli/pictures/0187_fw.png	449.88210797309875	0.8270571231842041
203	305.1705539226532	response	0	k		201.0	/experiments/knapen_AOT/AOT_stimuli/pictures/0187_fw.png	450.7009608745575	
204	305.17875814437866	picture	0		121	202.0	/experiments/knapen_AOT/AOT_stimuli/pictures/0382_fw.png	450.70916509628296	1.0133178234100342
204	306.17908215522766	response	0	k		202.0	/experiments/knapen_AOT/AOT_stimuli/pictures/0382_fw.png	451.70948910713196	
205	306.1920759677887	picture	0		151	203.0	/experiments/knapen_AOT/AOT_stimuli/pictures/0747_fw.png	451.722482919693	1.2638089656829834
205	307.43889713287354	response	0	k		203.0	/experiments/knapen_AOT/AOT_stimuli/pictures/0747_fw.png	452.96930408477783	
206	307.4558849334717	picture	0		196	204.0	/experiments/knapen_AOT/AOT_stimuli/pictures/0085_fw.png	452.986291885376	1.6319642066955566
206	309.0789771080017	response	0	k		204.0	/experiments/knapen_AOT/AOT_stimuli/pictures/0085_fw.png	454.609384059906	
207	309.08784914016724	picture	0		95	205.0	/experiments/knapen_AOT/AOT_stimuli/pictures/0713_fw.png	454.61825609207153	0.7917168140411377
207	309.8705880641937	response	0	k		205.0	/experiments/knapen_AOT/AOT_stimuli/pictures/0713_fw.png	455.400995016098	
208	309.8795659542084	picture	0		93	206.0	/experiments/knapen_AOT/AOT_stimuli/pictures/1775_fw.png	455.40997290611267	0.8124551773071289
208	310.67908906936646	response	0	j		206.0	/experiments/knapen_AOT/AOT_stimuli/pictures/1775_fw.png	456.20949602127075	
209	310.6920211315155	picture	0		97	207.0	/experiments/knapen_AOT/AOT_stimuli/pictures/1622_fw.png	456.2224280834198	0.8124527931213379
209	311.4956171512604	response	0	k		207.0	/experiments/knapen_AOT/AOT_stimuli/pictures/1622_fw.png	457.0260241031647	
210	311.50447392463684	picture	0		184	208.0	/experiments/knapen_AOT/AOT_stimuli/pictures/0136_fw.png	457.03488087654114	1.5346941947937012
210	313.0222020149231	response	0	k		208.0	/experiments/knapen_AOT/AOT_stimuli/pictures/0136_fw.png	458.5526089668274	
211	313.03916811943054	picture	0		121	209.0	/experiments/knapen_AOT/AOT_stimuli/pictures/1158_fw.png	458.56957507133484	1.0071008205413818
211	314.0308060646057	response	0	k		209.0	/experiments/knapen_AOT/AOT_stimuli/pictures/1158_fw.png	459.56121301651	
212	314.0462689399719	picture	0		128	210.0	/experiments/knapen_AOT/AOT_stimuli/pictures/1436_fw.png	459.5766758918762	1.0693511962890625
212	315.1040549278259	response	0	k		210.0	/experiments/knapen_AOT/AOT_stimuli/pictures/1436_fw.png	460.6344618797302	
213	315.115620136261	picture	0		455	211.0	/experiments/knapen_AOT/AOT_stimuli/pictures/1167_fw.png	460.6460270881653	3.7916409969329834
213	318.89587593078613	response	0	j		211.0	/experiments/knapen_AOT/AOT_stimuli/pictures/1167_fw.png	464.42628288269043	
214	318.90726113319397	picture	0		350	212.0	/experiments/knapen_AOT/AOT_stimuli/pictures/0408_fw.png	464.43766808509827	2.9167139530181885
214	321.80585193634033	response	0	j		212.0	/experiments/knapen_AOT/AOT_stimuli/pictures/0408_fw.png	467.33625888824463	
215	321.82397508621216	picture	0		84	213.0	/experiments/knapen_AOT/AOT_stimuli/pictures/1490_fw.png	467.35438203811646	0.7014510631561279
215	322.5124590396881	response	0	j		213.0	/experiments/knapen_AOT/AOT_stimuli/pictures/1490_fw.png	468.0428659915924	
216	322.5254261493683	picture	0		163	214.0	/experiments/knapen_AOT/AOT_stimuli/pictures/0655_fw.png	468.0558331012726	1.354057788848877
216	323.8709180355072	response	0	k		214.0	/experiments/knapen_AOT/AOT_stimuli/pictures/0655_fw.png	469.4013249874115	
217	323.87948393821716	picture	0		101	215.0	/experiments/knapen_AOT/AOT_stimuli/pictures/1229_fw.png	469.40989089012146	0.8474361896514893
217	324.7132520675659	response	0	k		215.0	/experiments/knapen_AOT/AOT_stimuli/pictures/1229_fw.png	470.2436590194702	
218	324.72692012786865	picture	0		100	216.0	/experiments/knapen_AOT/AOT_stimuli/pictures/1326_fw.png	470.25732707977295	0.8403339385986328
218	325.55429005622864	response	0	k		216.0	/experiments/knapen_AOT/AOT_stimuli/pictures/1326_fw.png	471.08469700813293	
219	325.5672540664673	picture	0		87	217.0	/experiments/knapen_AOT/AOT_stimuli/pictures/1225_fw.png	471.0976610183716	0.722059965133667
219	326.2792251110077	response	0	j		217.0	/experiments/knapen_AOT/AOT_stimuli/pictures/1225_fw.png	471.809632062912	
220	326.28931403160095	picture	0		112	218.0	/experiments/knapen_AOT/AOT_stimuli/pictures/0805_fw.png	471.81972098350525	0.9374480247497559
220	327.20593905448914	response	0	j		218.0	/experiments/knapen_AOT/AOT_stimuli/pictures/0805_fw.png	472.73634600639343	
221	327.2267620563507	picture	0		119	219.0	/experiments/knapen_AOT/AOT_stimuli/pictures/1024_fw.png	472.757169008255	1.0
221	328.20589900016785	response	0	k		219.0	/experiments/knapen_AOT/AOT_stimuli/pictures/1024_fw.png	473.73630595207214	
222	328.2267620563507	picture	0		97	220.0	/experiments/knapen_AOT/AOT_stimuli/pictures/2053_fw.png	473.757169008255	0.8125600814819336
222	329.02919602394104	response	0	j		220.0	/experiments/knapen_AOT/AOT_stimuli/pictures/2053_fw.png	474.55960297584534	
223	329.03932213783264	picture	0		98	221.0	/experiments/knapen_AOT/AOT_stimuli/pictures/0571_fw.png	474.56972908973694	0.8194119930267334
223	329.84601402282715	response	0	k		221.0	/experiments/knapen_AOT/AOT_stimuli/pictures/0571_fw.png	475.37642097473145	
224	329.8587341308594	picture	0		109	222.0	/experiments/knapen_AOT/AOT_stimuli/pictures/0459_fw.png	475.3891410827637	0.9096879959106445
224	330.75497794151306	response	0	j		222.0	/experiments/knapen_AOT/AOT_stimuli/pictures/0459_fw.png	476.28538489341736	
225	330.76842212677	picture	0		98	223.0	/experiments/knapen_AOT/AOT_stimuli/pictures/1276_fw.png	476.2988290786743	0.819605827331543
225	331.57941699028015	response	0	j		223.0	/experiments/knapen_AOT/AOT_stimuli/pictures/1276_fw.png	477.10982394218445	
226	331.58802795410156	picture	0		120	224.0	/experiments/knapen_AOT/AOT_stimuli/pictures/1649_fw.png	477.11843490600586	1.0000641345977783
226	332.57947397232056	response	0	k		224.0	/experiments/knapen_AOT/AOT_stimuli/pictures/1649_fw.png	478.10988092422485	
227	332.58809208869934	picture	0		189	225.0	/experiments/knapen_AOT/AOT_stimuli/pictures/1952_fw.png	478.11849904060364	1.5762078762054443
227	334.154433965683	response	0	j		225.0	/experiments/knapen_AOT/AOT_stimuli/pictures/1952_fw.png	479.6848409175873	
228	334.1642999649048	picture	0		100	226.0	/experiments/knapen_AOT/AOT_stimuli/pictures/0280_fw.png	479.6947069168091	0.833388090133667
228	334.9809410572052	response	0	j		226.0	/experiments/knapen_AOT/AOT_stimuli/pictures/0280_fw.png	480.5113480091095	
229	334.99768805503845	picture	0		79	227.0	/experiments/knapen_AOT/AOT_stimuli/pictures/0107_fw.png	480.52809500694275	0.6596779823303223
229	335.64604592323303	response	0	k		227.0	/experiments/knapen_AOT/AOT_stimuli/pictures/0107_fw.png	481.17645287513733	
230	335.6573660373688	picture	0		289	228.0	/experiments/knapen_AOT/AOT_stimuli/pictures/1993_fw.png	481.18777298927307	2.4098060131073
230	338.05443501472473	response	0	k		228.0	/experiments/knapen_AOT/AOT_stimuli/pictures/1993_fw.png	483.584841966629	
231	338.0671720504761	picture	0		143	229.0	/experiments/knapen_AOT/AOT_stimuli/pictures/0688_fw.png	483.59757900238037	1.1875
231	339.2460091114044	response	0	j		229.0	/experiments/knapen_AOT/AOT_stimuli/pictures/0688_fw.png	484.7764160633087	
232	339.2546720504761	picture	0		102	230.0	/experiments/knapen_AOT/AOT_stimuli/pictures/0435_fw.png	484.78507900238037	0.854132890701294
232	340.0960819721222	response	0	j		230.0	/experiments/knapen_AOT/AOT_stimuli/pictures/0435_fw.png	485.6264889240265	
233	340.10880494117737	picture	0		156	231.0	/experiments/knapen_AOT/AOT_stimuli/pictures/1385_fw.png	485.63921189308167	1.2986021041870117
233	341.38931798934937	response	0	j		231.0	/experiments/knapen_AOT/AOT_stimuli/pictures/1385_fw.png	486.91972494125366	
234	341.4074070453644	picture	0		134	232.0	/experiments/knapen_AOT/AOT_stimuli/pictures/1478_fw.png	486.9378139972687	1.1181058883666992
234	342.51275992393494	response	0	k		232.0	/experiments/knapen_AOT/AOT_stimuli/pictures/1478_fw.png	488.04316687583923	
235	342.5255129337311	picture	0		94	233.0	/experiments/knapen_AOT/AOT_stimuli/pictures/2117_fw.png	488.0559198856354	0.7848110198974609
235	343.29645895957947	response	0	j		233.0	/experiments/knapen_AOT/AOT_stimuli/pictures/2117_fw.png	488.82686591148376	
236	343.31032395362854	picture	0		97	234.0	/experiments/knapen_AOT/AOT_stimuli/pictures/0125_fw.png	488.84073090553284	0.8124160766601562
236	344.1128671169281	response	0	j		234.0	/experiments/knapen_AOT/AOT_stimuli/pictures/0125_fw.png	489.6432740688324	
237	344.1227400302887	picture	0		121	235.0	/experiments/knapen_AOT/AOT_stimuli/pictures/0618_fw.png	489.653146982193	1.0069570541381836
237	345.1212351322174	response	0	k		235.0	/experiments/knapen_AOT/AOT_stimuli/pictures/0618_fw.png	490.6516420841217	
238	345.1296970844269	picture	0		94	236.0	/experiments/knapen_AOT/AOT_stimuli/pictures/0914_fw.png	490.6601040363312	0.7847568988800049
238	345.9046130180359	response	0	k		236.0	/experiments/knapen_AOT/AOT_stimuli/pictures/0914_fw.png	491.4350199699402	
239	345.9144539833069	picture	0		188	237.0	/experiments/knapen_AOT/AOT_stimuli/pictures/0673_fw.png	491.4448609352112	1.569404125213623
239	347.4712929725647	response	0	k		237.0	/experiments/knapen_AOT/AOT_stimuli/pictures/0673_fw.png	493.001699924469	
240	347.4838581085205	picture	0		204	238.0	/experiments/knapen_AOT/AOT_stimuli/pictures/1768_fw.png	493.0142650604248	1.7014999389648438
240	349.16448497772217	response	0	j		238.0	/experiments/knapen_AOT/AOT_stimuli/pictures/1768_fw.png	494.69489192962646	
241	349.18535804748535	picture	0		82	239.0	/experiments/knapen_AOT/AOT_stimuli/pictures/1401_fw.png	494.71576499938965	0.6874949932098389
241	349.8629250526428	response	0	k		239.0	/experiments/knapen_AOT/AOT_stimuli/pictures/1401_fw.png	495.3933320045471	
242	349.8728530406952	picture	0		134	240.0	/experiments/knapen_AOT/AOT_stimuli/pictures/0933_fw.png	495.4032599925995	1.117983102798462
242	350.9727599620819	response	0	k		240.0	/experiments/knapen_AOT/AOT_stimuli/pictures/0933_fw.png	496.5031669139862	
243	350.99083614349365	picture	0		93	241.0	/experiments/knapen_AOT/AOT_stimuli/pictures/1336_fw.png	496.52124309539795	0.7778298854827881
243	351.7548899650574	response	0	k		241.0	/experiments/knapen_AOT/AOT_stimuli/pictures/1336_fw.png	497.28529691696167	
244	351.76866602897644	picture	0		119	242.0	/experiments/knapen_AOT/AOT_stimuli/pictures/0356_fw.png	497.29907298088074	0.9999349117279053
244	352.75485706329346	response	0	k		242.0	/experiments/knapen_AOT/AOT_stimuli/pictures/0356_fw.png	498.28526401519775	
245	352.76860094070435	picture	0		348	243.0	/experiments/knapen_AOT/AOT_stimuli/pictures/0362_fw.png	498.29900789260864	2.902804136276245
245	355.6630280017853	response	0	j		243.0	/experiments/knapen_AOT/AOT_stimuli/pictures/0362_fw.png	501.1934349536896	
246	355.6714050769806	picture	0		121	244.0	/experiments/knapen_AOT/AOT_stimuli/pictures/0566_fw.png	501.2018120288849	1.013895034790039
246	356.67165303230286	response	0	k		244.0	/experiments/knapen_AOT/AOT_stimuli/pictures/0566_fw.png	502.20205998420715	
247	356.68530011177063	picture	0		88	245.0	/experiments/knapen_AOT/AOT_stimuli/pictures/0503_fw.png	502.2157070636749	0.7361059188842773
247	357.4130530357361	response	0	k		245.0	/experiments/knapen_AOT/AOT_stimuli/pictures/0503_fw.png	502.9434599876404	
248	357.4214060306549	picture	0		90	246.0	/experiments/knapen_AOT/AOT_stimuli/pictures/0867_fw.png	502.9518129825592	0.7500131130218506
248	358.1563911437988	response	0	k		246.0	/experiments/knapen_AOT/AOT_stimuli/pictures/0867_fw.png	503.6867980957031	
249	358.17141914367676	picture	0		100	247.0	/experiments/knapen_AOT/AOT_stimuli/pictures/0781_fw.png	503.70182609558105	0.8334639072418213
249	358.9963481426239	response	0	k		247.0	/experiments/knapen_AOT/AOT_stimuli/pictures/0781_fw.png	504.5267550945282	
250	359.0048830509186	picture	0		163	248.0	/experiments/knapen_AOT/AOT_stimuli/pictures/1378_fw.png	504.5352900028229	1.361001968383789
250	360.3546781539917	response	0	k		248.0	/experiments/knapen_AOT/AOT_stimuli/pictures/1378_fw.png	505.885085105896	
251	360.36588501930237	picture	0		98	249.0	/experiments/knapen_AOT/AOT_stimuli/pictures/0188_fw.png	505.89629197120667	0.8333940505981445
251	361.1811239719391	response	0	k		249.0	/experiments/knapen_AOT/AOT_stimuli/pictures/0188_fw.png	506.7115309238434	
252	361.1992790699005	picture	0		255	250.0	/experiments/knapen_AOT/AOT_stimuli/pictures/0857_fw.png	506.7296860218048	2.1250479221343994
252	363.31316900253296	response	0	k		250.0	/experiments/knapen_AOT/AOT_stimuli/pictures/0857_fw.png	508.84357595443726	
253	363.3243269920349	picture	0		395	251.0	/experiments/knapen_AOT/AOT_stimuli/pictures/1015_fw.png	508.8547339439392	3.291628122329712
253	366.60475897789	response	0	k		251.0	/experiments/knapen_AOT/AOT_stimuli/pictures/1015_fw.png	512.1351659297943	
254	366.6159551143646	picture	0		134	252.0	/experiments/knapen_AOT/AOT_stimuli/pictures/1814_fw.png	512.1463620662689	1.1180579662322998
254	367.7213921546936	response	0	k		252.0	/experiments/knapen_AOT/AOT_stimuli/pictures/1814_fw.png	513.2517991065979	
255	367.7340130805969	picture	0		162	253.0	/experiments/knapen_AOT/AOT_stimuli/pictures/0462_fw.png	513.2644200325012	1.347261905670166
255	369.0714111328125	response	0	k		253.0	/experiments/knapen_AOT/AOT_stimuli/pictures/0462_fw.png	514.6018180847168	
256	369.0812749862671	picture	0		148	254.0	/experiments/knapen_AOT/AOT_stimuli/pictures/0833_fw.png	514.6116819381714	1.2483291625976562
256	370.30490708351135	response	0	k		254.0	/experiments/knapen_AOT/AOT_stimuli/pictures/0833_fw.png	515.8353140354156	
257	370.32960414886475	picture	0		135	255.0	/experiments/knapen_AOT/AOT_stimuli/pictures/1056_fw.png	515.860011100769	1.1266977787017822
257	371.44647097587585	response	0	j		255.0	/experiments/knapen_AOT/AOT_stimuli/pictures/1056_fw.png	516.9768779277802	
258	371.4563019275665	picture	0		632	256.0	/experiments/knapen_AOT/AOT_stimuli/pictures/0826_fw.png	516.9867088794708	5.273531198501587
258	376.71339297294617	response	0	j		256.0	/experiments/knapen_AOT/AOT_stimuli/pictures/0826_fw.png	522.2437999248505	
259	376.7298331260681	picture	0		105	257.0	/experiments/knapen_AOT/AOT_stimuli/pictures/2154_fw.png	522.2602400779724	0.8792569637298584
259	377.5965349674225	response	0	k		257.0	/experiments/knapen_AOT/AOT_stimuli/pictures/2154_fw.png	523.1269419193268	
260	377.609090089798	picture	0		92	258.0	/experiments/knapen_AOT/AOT_stimuli/pictures/2121_fw.png	523.1394970417023	0.7639079093933105
260	378.35661697387695	response	0	k		258.0	/experiments/knapen_AOT/AOT_stimuli/pictures/2121_fw.png	523.8870239257812	
261	378.3729979991913	picture	0		146	259.0	/experiments/knapen_AOT/AOT_stimuli/pictures/0371_fw.png	523.9034049510956	1.2152650356292725
261	379.5731289386749	response	0	j		259.0	/experiments/knapen_AOT/AOT_stimuli/pictures/0371_fw.png	525.1035358905792	
262	379.58826303482056	picture	0		128	260.0	/experiments/knapen_AOT/AOT_stimuli/pictures/0741_fw.png	525.1186699867249	1.0694749355316162
262	380.64656805992126	response	0	k		260.0	/experiments/knapen_AOT/AOT_stimuli/pictures/0741_fw.png	526.1769750118256	
263	380.6577379703522	picture	0		194	261.0	/experiments/knapen_AOT/AOT_stimuli/pictures/0614_fw.png	526.1881449222565	1.6250290870666504
263	382.2634029388428	response	0	j		261.0	/experiments/knapen_AOT/AOT_stimuli/pictures/0614_fw.png	527.7938098907471	
264	382.2827670574188	picture	0		567	262.0	/experiments/knapen_AOT/AOT_stimuli/pictures/0477_fw.png	527.8131740093231	4.722223997116089
264	386.9966471195221	response	0	k		262.0	/experiments/knapen_AOT/AOT_stimuli/pictures/0477_fw.png	532.5270540714264	
265	387.0049910545349	picture	0		107	263.0	/experiments/knapen_AOT/AOT_stimuli/pictures/0299_fw.png	532.5353980064392	0.8958818912506104
265	387.8884780406952	response	0	k		263.0	/experiments/knapen_AOT/AOT_stimuli/pictures/0299_fw.png	533.4188849925995	
266	387.9008729457855	picture	0		287	264.0	/experiments/knapen_AOT/AOT_stimuli/pictures/0540_fw.png	533.4312798976898	2.3889951705932617
266	390.2801830768585	response	0	k		264.0	/experiments/knapen_AOT/AOT_stimuli/pictures/0540_fw.png	535.8105900287628	
267	390.2898681163788	picture	0		106	265.0	/experiments/knapen_AOT/AOT_stimuli/pictures/1715_fw.png	535.8202750682831	0.8817968368530273
267	391.1567151546478	response	0	j		265.0	/experiments/knapen_AOT/AOT_stimuli/pictures/1715_fw.png	536.6871221065521	
268	391.1716649532318	picture	0		96	266.0	/experiments/knapen_AOT/AOT_stimuli/pictures/0209_fw.png	536.7020719051361	0.7999141216278076
268	391.9634871482849	response	0	k		266.0	/experiments/knapen_AOT/AOT_stimuli/pictures/0209_fw.png	537.4938941001892	
269	391.9715790748596	picture	0		95	267.0	/experiments/knapen_AOT/AOT_stimuli/pictures/0306_fw.png	537.5019860267639	0.797339916229248
269	392.74833512306213	response	0	k		267.0	/experiments/knapen_AOT/AOT_stimuli/pictures/0306_fw.png	538.2787420749664	
270	392.76891899108887	picture	0		1609	268.0	/experiments/knapen_AOT/AOT_stimuli/pictures/1703_fw.png	538.2993259429932	13.416953086853027
270	406.172003030777	response	0	k		268.0	/experiments/knapen_AOT/AOT_stimuli/pictures/1703_fw.png	551.7024099826813	
271	406.1858720779419	picture	0		104	269.0	/experiments/knapen_AOT/AOT_stimuli/pictures/1110_fw.png	551.7162790298462	0.8749139308929443
271	407.04699206352234	response	0	k		269.0	/experiments/knapen_AOT/AOT_stimuli/pictures/1110_fw.png	552.5773990154266	
272	407.06078600883484	picture	0		101	270.0	/experiments/knapen_AOT/AOT_stimuli/pictures/2137_fw.png	552.5911929607391	0.8471660614013672
272	407.8970241546631	response	0	k		270.0	/experiments/knapen_AOT/AOT_stimuli/pictures/2137_fw.png	553.4274311065674	
273	407.9079520702362	picture	0		81	271.0	/experiments/knapen_AOT/AOT_stimuli/pictures/1997_fw.png	553.4383590221405	0.6805059909820557
273	408.57206201553345	response	0	k		271.0	/experiments/knapen_AOT/AOT_stimuli/pictures/1997_fw.png	554.1024689674377	
274	408.58845806121826	picture	0		1619	272.0	/experiments/knapen_AOT/AOT_stimuli/pictures/2059_fw.png	554.1188650131226	13.493331909179688
274	422.07220101356506	response	0	k		272.0	/experiments/knapen_AOT/AOT_stimuli/pictures/2059_fw.png	567.6026079654694	
275	422.08178997039795	picture	0		100	273.0	/experiments/knapen_AOT/AOT_stimuli/pictures/0480_fw.png	567.6121969223022	0.8333170413970947
275	422.89870595932007	response	0	k		273.0	/experiments/knapen_AOT/AOT_stimuli/pictures/0480_fw.png	568.4291129112244	
276	422.91510701179504	picture	0		116	274.0	/experiments/knapen_AOT/AOT_stimuli/pictures/1009_fw.png	568.4455139636993	0.9651889801025391
276	423.8722460269928	response	0	k		274.0	/experiments/knapen_AOT/AOT_stimuli/pictures/1009_fw.png	569.4026529788971	
277	423.8802959918976	picture	0		97	275.0	/experiments/knapen_AOT/AOT_stimuli/pictures/1013_fw.png	569.4107029438019	0.8125059604644775
277	424.68050599098206	response	0	j		275.0	/experiments/knapen_AOT/AOT_stimuli/pictures/1013_fw.png	570.2109129428864	
278	424.69280195236206	picture	0		109	276.0	/experiments/knapen_AOT/AOT_stimuli/pictures/0396_fw.png	570.2232089042664	0.909722089767456
278	425.58893609046936	response	0	k		276.0	/experiments/knapen_AOT/AOT_stimuli/pictures/0396_fw.png	571.1193430423737	
279	425.6025240421295	picture	0		112	277.0	/experiments/knapen_AOT/AOT_stimuli/pictures/1365_fw.png	571.1329309940338	0.9375760555267334
279	426.530522108078	response	0	k		277.0	/experiments/knapen_AOT/AOT_stimuli/pictures/1365_fw.png	572.0609290599823	
280	426.54010009765625	picture	0		87	278.0	/experiments/knapen_AOT/AOT_stimuli/pictures/2099_fw.png	572.0705070495605	0.7291848659515381
280	427.2554740905762	response	0	k		278.0	/experiments/knapen_AOT/AOT_stimuli/pictures/2099_fw.png	572.7858810424805	
281	427.2692849636078	picture	0		569	279.0	/experiments/knapen_AOT/AOT_stimuli/pictures/1519_fw.png	572.7996919155121	4.744588136672974
281	432.0055480003357	response	0	j		279.0	/experiments/knapen_AOT/AOT_stimuli/pictures/1519_fw.png	577.53595495224	
282	432.01387310028076	picture	0		1326	280.0	/experiments/knapen_AOT/AOT_stimuli/pictures/2051_fw.png	577.5442800521851	11.058459043502808
282	443.0557219982147	response	0	k		280.0	/experiments/knapen_AOT/AOT_stimuli/pictures/2051_fw.png	588.586128950119	
283	443.07233214378357	picture	0		318	281.0	/experiments/knapen_AOT/AOT_stimuli/pictures/1565_fw.png	588.6027390956879	2.669222831726074
283	445.73083996772766	response	0	k		281.0	/experiments/knapen_AOT/AOT_stimuli/pictures/1565_fw.png	591.261246919632	
284	445.74155497550964	picture	0		256	282.0	/experiments/knapen_AOT/AOT_stimuli/pictures/2083_fw.png	591.2719619274139	2.1320300102233887
284	447.86424708366394	response	0	k		282.0	/experiments/knapen_AOT/AOT_stimuli/pictures/2083_fw.png	593.3946540355682	
285	447.87358498573303	picture	0		255	283.0	/experiments/knapen_AOT/AOT_stimuli/pictures/0742_fw.png	593.4039919376373	2.125
285	449.9892611503601	response	0	k		283.0	/experiments/knapen_AOT/AOT_stimuli/pictures/0742_fw.png	595.5196681022644	
286	449.99858498573303	picture	0		96	284.0	/experiments/knapen_AOT/AOT_stimuli/pictures/2127_fw.png	595.5289919376373	0.7987251281738281
286	450.78931498527527	response	0	k		284.0	/experiments/knapen_AOT/AOT_stimuli/pictures/2127_fw.png	596.3197219371796	
287	450.79731011390686	picture	0		92	285.0	/experiments/knapen_AOT/AOT_stimuli/pictures/0113_fw.png	596.3277170658112	0.770745038986206
287	451.5558350086212	response	0	k		285.0	/experiments/knapen_AOT/AOT_stimuli/pictures/0113_fw.png	597.0862419605255	
288	451.56805515289307	picture	0		202	286.0	/experiments/knapen_AOT/AOT_stimuli/pictures/0339_fw.png	597.0984621047974	1.6804909706115723
288	453.2393100261688	response	0	k		286.0	/experiments/knapen_AOT/AOT_stimuli/pictures/0339_fw.png	598.7697169780731	
289	453.24854612350464	picture	0		89	287.0	/experiments/knapen_AOT/AOT_stimuli/pictures/1549_fw.png	598.7789530754089	0.7431168556213379
289	453.9808609485626	response	0	k		287.0	/experiments/knapen_AOT/AOT_stimuli/pictures/1549_fw.png	599.5112679004669	
290	453.991662979126	picture	0		111	288.0	/experiments/knapen_AOT/AOT_stimuli/pictures/1924_fw.png	599.5220699310303	0.9236841201782227
290	454.90587997436523	response	0	k		288.0	/experiments/knapen_AOT/AOT_stimuli/pictures/1924_fw.png	600.4362869262695	
291	454.9153470993042	picture	0		365	289.0	/experiments/knapen_AOT/AOT_stimuli/pictures/1971_fw.png	600.4457540512085	3.041718006134033
291	457.9475929737091	response	0	k		289.0	/experiments/knapen_AOT/AOT_stimuli/pictures/1971_fw.png	603.4779999256134	
292	457.95706510543823	picture	0		90	290.0	/experiments/knapen_AOT/AOT_stimuli/pictures/1484_fw.png	603.4874720573425	0.7500119209289551
292	458.69090509414673	response	0	j		290.0	/experiments/knapen_AOT/AOT_stimuli/pictures/1484_fw.png	604.221312046051	
293	458.7070770263672	picture	0		92	291.0	/experiments/knapen_AOT/AOT_stimuli/pictures/2132_fw.png	604.2374839782715	0.7706890106201172
293	459.46425008773804	response	0	k		291.0	/experiments/knapen_AOT/AOT_stimuli/pictures/2132_fw.png	604.9946570396423	
294	459.4777660369873	picture	0		103	292.0	/experiments/knapen_AOT/AOT_stimuli/pictures/1400_fw.png	605.0081729888916	0.861332893371582
294	460.33094596862793	response	0	k		292.0	/experiments/knapen_AOT/AOT_stimuli/pictures/1400_fw.png	605.8613529205322	
295	460.3390989303589	picture	0		215	293.0	/experiments/knapen_AOT/AOT_stimuli/pictures/0864_fw.png	605.8695058822632	1.7916920185089111
295	462.12277603149414	response	0	k		293.0	/experiments/knapen_AOT/AOT_stimuli/pictures/0864_fw.png	607.6531829833984	
296	462.1307909488678	picture	0		100	294.0	/experiments/knapen_AOT/AOT_stimuli/pictures/0168_fw.png	607.6611979007721	0.8333430290222168
296	462.9559941291809	response	0	k		294.0	/experiments/knapen_AOT/AOT_stimuli/pictures/0168_fw.png	608.4864010810852	
297	462.96413397789	picture	0		95	295.0	/experiments/knapen_AOT/AOT_stimuli/pictures/0481_fw.png	608.4945409297943	0.7916691303253174
297	463.7476830482483	response	0	k		295.0	/experiments/knapen_AOT/AOT_stimuli/pictures/0481_fw.png	609.2780900001526	
298	463.75580310821533	picture	0		134	296.0	/experiments/knapen_AOT/AOT_stimuli/pictures/1424_fw.png	609.2862100601196	1.1179368495941162
298	464.85770893096924	response	0	k		296.0	/experiments/knapen_AOT/AOT_stimuli/pictures/1424_fw.png	610.3881158828735	
299	464.87373995780945	picture	0		849	297.0	/experiments/knapen_AOT/AOT_stimuli/pictures/0355_fw.png	610.4041469097137	7.076416969299316
299	471.9394631385803	response	0	k		297.0	/experiments/knapen_AOT/AOT_stimuli/pictures/0355_fw.png	617.4698700904846	
300	471.95015692710876	picture	0		365	298.0	/experiments/knapen_AOT/AOT_stimuli/pictures/0164_fw.png	617.4805638790131	3.041729211807251
300	474.9812071323395	response	0	k		298.0	/experiments/knapen_AOT/AOT_stimuli/pictures/0164_fw.png	620.5116140842438	
301	474.991886138916	picture	0		91	299.0	/experiments/knapen_AOT/AOT_stimuli/pictures/1774_fw.png	620.5222930908203	0.7569739818572998
301	475.739511013031	response	0	k		299.0	/experiments/knapen_AOT/AOT_stimuli/pictures/1774_fw.png	621.2699179649353	
302	475.7488601207733	picture	0		106	300.0	/experiments/knapen_AOT/AOT_stimuli/pictures/0574_fw.png	621.2792670726776	0.8821229934692383
302	476.6229510307312	response	0	k		300.0	/experiments/knapen_AOT/AOT_stimuli/pictures/0574_fw.png	622.1533579826355	
303	476.63098311424255	picture	0		90	301.0	/experiments/knapen_AOT/AOT_stimuli/pictures/0717_fw.png	622.1613900661469	0.750006914138794
303	477.3729591369629	response	0	k		301.0	/experiments/knapen_AOT/AOT_stimuli/pictures/0717_fw.png	622.9033660888672	
304	477.38099002838135	picture	0		125	302.0	/experiments/knapen_AOT/AOT_stimuli/pictures/1269_fw.png	622.9113969802856	1.0483219623565674
304	478.414617061615	response	0	j		302.0	/experiments/knapen_AOT/AOT_stimuli/pictures/1269_fw.png	623.9450240135193	
305	478.4293119907379	picture	0		88	303.0	/experiments/knapen_AOT/AOT_stimuli/pictures/0052_fw.png	623.9597189426422	0.7361180782318115
305	479.1562330722809	response	0	k		303.0	/experiments/knapen_AOT/AOT_stimuli/pictures/0052_fw.png	624.6866400241852	
306	479.1654300689697	picture	0		103	304.0	/experiments/knapen_AOT/AOT_stimuli/pictures/1874_fw.png	624.695837020874	0.8612308502197266
306	480.0146179199219	response	0	k		304.0	/experiments/knapen_AOT/AOT_stimuli/pictures/1874_fw.png	625.5450248718262	
307	480.02666091918945	picture	0		111	305.0	/experiments/knapen_AOT/AOT_stimuli/pictures/1468_fw.png	625.5570678710938	0.9234981536865234
307	480.9395549297333	response	0	j		305.0	/experiments/knapen_AOT/AOT_stimuli/pictures/1468_fw.png	626.4699618816376	
308	480.950159072876	picture	0		100	306.0	/experiments/knapen_AOT/AOT_stimuli/pictures/1136_fw.png	626.4805660247803	0.8333420753479004
308	481.77301692962646	response	0	j		306.0	/experiments/knapen_AOT/AOT_stimuli/pictures/1136_fw.png	627.3034238815308	
309	481.7835011482239	picture	0		117	307.0	/experiments/knapen_AOT/AOT_stimuli/pictures/1452_fw.png	627.3139081001282	0.9725809097290039
309	482.748085975647	response	0	k		307.0	/experiments/knapen_AOT/AOT_stimuli/pictures/1452_fw.png	628.2784929275513	
310	482.7560820579529	picture	0		102	308.0	/experiments/knapen_AOT/AOT_stimuli/pictures/1618_fw.png	628.2864890098572	0.8538470268249512
310	483.59804606437683	response	0	k		308.0	/experiments/knapen_AOT/AOT_stimuli/pictures/1618_fw.png	629.1284530162811	
311	483.60992908477783	picture	0		99	309.0	/experiments/knapen_AOT/AOT_stimuli/pictures/1743_fw.png	629.1403360366821	0.8263859748840332
311	484.4229779243469	response	0	k		309.0	/experiments/knapen_AOT/AOT_stimuli/pictures/1743_fw.png	629.9533848762512	
312	484.43631505966187	picture	0		140	310.0	/experiments/knapen_AOT/AOT_stimuli/pictures/0862_fw.png	629.9667220115662	1.1736290454864502
312	485.59810304641724	response	0	k		310.0	/experiments/knapen_AOT/AOT_stimuli/pictures/0862_fw.png	631.1285099983215	
313	485.6099441051483	picture	0		488	311.0	/experiments/knapen_AOT/AOT_stimuli/pictures/1087_fw.png	631.1403510570526	4.071213006973267
313	489.658066034317	response	0	k		311.0	/experiments/knapen_AOT/AOT_stimuli/pictures/1087_fw.png	635.1884729862213	
314	489.6811571121216	picture	0		308	312.0	/experiments/knapen_AOT/AOT_stimuli/pictures/1749_fw.png	635.2115640640259	2.5678389072418213
314	492.2329480648041	response	0	j		312.0	/experiments/knapen_AOT/AOT_stimuli/pictures/1749_fw.png	637.7633550167084	
315	492.2489960193634	picture	0		102	313.0	/experiments/knapen_AOT/AOT_stimuli/pictures/1998_fw.png	637.7794029712677	0.8540561199188232
315	493.0896909236908	response	0	k		313.0	/experiments/knapen_AOT/AOT_stimuli/pictures/1998_fw.png	638.6200978755951	
316	493.1030521392822	picture	0		99	314.0	/experiments/knapen_AOT/AOT_stimuli/pictures/1060_fw.png	638.6334590911865	0.8333289623260498
316	493.92316913604736	response	0	k		314.0	/experiments/knapen_AOT/AOT_stimuli/pictures/1060_fw.png	639.4535760879517	
317	493.9363811016083	picture	0		159	315.0	/experiments/knapen_AOT/AOT_stimuli/pictures/1142_fw.png	639.4667880535126	1.3334319591522217
317	495.2498359680176	response	0	j		315.0	/experiments/knapen_AOT/AOT_stimuli/pictures/1142_fw.png	640.7802429199219	
318	495.2698130607605	picture	0		123	316.0	/experiments/knapen_AOT/AOT_stimuli/pictures/2049_fw.png	640.8002200126648	1.0281050205230713
318	496.2897400856018	response	0	k		316.0	/experiments/knapen_AOT/AOT_stimuli/pictures/2049_fw.png	641.8201470375061	
319	496.29791808128357	picture	0		93	317.0	/experiments/knapen_AOT/AOT_stimuli/pictures/2160_fw.png	641.8283250331879	0.777385950088501
319	497.0647189617157	response	0	k		317.0	/experiments/knapen_AOT/AOT_stimuli/pictures/2160_fw.png	642.59512591362	
320	497.07530403137207	picture	0		155	318.0	/experiments/knapen_AOT/AOT_stimuli/pictures/0221_fw.png	642.6057109832764	1.29168701171875
320	498.35652804374695	response	0	j		318.0	/experiments/knapen_AOT/AOT_stimuli/pictures/0221_fw.png	643.8869349956512	
321	498.3669910430908	picture	0		83	319.0	/experiments/knapen_AOT/AOT_stimuli/pictures/1278_fw.png	643.8973979949951	0.6944310665130615
321	499.04140615463257	response	0	k		319.0	/experiments/knapen_AOT/AOT_stimuli/pictures/1278_fw.png	644.5718131065369	
322	499.0614221096039	picture	0		96	320.0	/experiments/knapen_AOT/AOT_stimuli/pictures/1416_fw.png	644.5918290615082	0.8056018352508545
322	499.84991908073425	response	0	j		320.0	/experiments/knapen_AOT/AOT_stimuli/pictures/1416_fw.png	645.3803260326385	
323	499.86702394485474	picture	0		135	321.0	/experiments/knapen_AOT/AOT_stimuli/pictures/0487_fw.png	645.397430896759	1.152759075164795
323	501.00650000572205	response	0	j		321.0	/experiments/knapen_AOT/AOT_stimuli/pictures/0487_fw.png	646.5369069576263	
324	501.01978302001953	picture	0		231	322.0	/experiments/knapen_AOT/AOT_stimuli/pictures/0846_fw.png	646.5501899719238	1.9305601119995117
324	502.9399390220642	response	0	k		322.0	/experiments/knapen_AOT/AOT_stimuli/pictures/0846_fw.png	648.4703459739685	
325	502.95034313201904	picture	0		148	323.0	/experiments/knapen_AOT/AOT_stimuli/pictures/0473_fw.png	648.4807500839233	1.2361359596252441
325	504.17326402664185	response	0	j		323.0	/experiments/knapen_AOT/AOT_stimuli/pictures/0473_fw.png	649.7036709785461	
326	504.1864790916443	picture	0		235	324.0	/experiments/knapen_AOT/AOT_stimuli/pictures/0335_fw.png	649.7168860435486	1.9653258323669434
326	506.1399791240692	response	0	j		324.0	/experiments/knapen_AOT/AOT_stimuli/pictures/0335_fw.png	651.6703860759735	
327	506.15180492401123	picture	0		94	325.0	/experiments/knapen_AOT/AOT_stimuli/pictures/1203_fw.png	651.6822118759155	0.7846832275390625
327	506.92333793640137	response	0	k		325.0	/experiments/knapen_AOT/AOT_stimuli/pictures/1203_fw.png	652.4537448883057	
328	506.9364881515503	picture	0		121	326.0	/experiments/knapen_AOT/AOT_stimuli/pictures/1916_fw.png	652.4668951034546	1.0139918327331543
328	507.9399399757385	response	0	k		326.0	/experiments/knapen_AOT/AOT_stimuli/pictures/1916_fw.png	653.4703469276428	
329	507.95047998428345	picture	0		95	327.0	/experiments/knapen_AOT/AOT_stimuli/pictures/1356_fw.png	653.4808869361877	0.7917320728302002
329	508.73157501220703	response	0	k		327.0	/experiments/knapen_AOT/AOT_stimuli/pictures/1356_fw.png	654.2619819641113	
330	508.74221205711365	picture	0		88	328.0	/experiments/knapen_AOT/AOT_stimuli/pictures/0070_fw.png	654.272619009018	0.7359709739685059
330	509.46505904197693	response	0	k		328.0	/experiments/knapen_AOT/AOT_stimuli/pictures/0070_fw.png	654.9954659938812	
331	509.47818303108215	picture	0		347	329.0	/experiments/knapen_AOT/AOT_stimuli/pictures/1230_fw.png	655.0085899829865	2.8958868980407715
331	512.3651731014252	response	0	k		329.0	/experiments/knapen_AOT/AOT_stimuli/pictures/1230_fw.png	657.8955800533295	
332	512.3740699291229	picture	0		112	330.0	/experiments/knapen_AOT/AOT_stimuli/pictures/1289_fw.png	657.9044768810272	0.9374771118164062
332	513.2984981536865	response	0	j		330.0	/experiments/knapen_AOT/AOT_stimuli/pictures/1289_fw.png	658.8289051055908	
333	513.3115470409393	picture	0		108	331.0	/experiments/knapen_AOT/AOT_stimuli/pictures/0011_fw.png	658.8419539928436	0.903393030166626
333	514.206787109375	response	0	j		331.0	/experiments/knapen_AOT/AOT_stimuli/pictures/0011_fw.png	659.7371940612793	
334	514.214940071106	picture	0		154	332.0	/experiments/knapen_AOT/AOT_stimuli/pictures/0365_fw.png	659.7453470230103	1.2842459678649902
334	515.4900779724121	response	0	j		332.0	/experiments/knapen_AOT/AOT_stimuli/pictures/0365_fw.png	661.0204849243164	
335	515.499186038971	picture	0		310	333.0	/experiments/knapen_AOT/AOT_stimuli/pictures/0735_fw.png	661.0295929908752	2.5832290649414062
335	518.0734159946442	response	0	j		333.0	/experiments/knapen_AOT/AOT_stimuli/pictures/0735_fw.png	663.6038229465485	
336	518.0824151039124	picture	0		92	334.0	/experiments/knapen_AOT/AOT_stimuli/pictures/1234_fw.png	663.6128220558167	0.7708499431610107
336	518.8333039283752	response	0	k		334.0	/experiments/knapen_AOT/AOT_stimuli/pictures/1234_fw.png	664.3637108802795	
337	518.8532650470734	picture	0		87	335.0	/experiments/knapen_AOT/AOT_stimuli/pictures/0510_fw.png	664.3836719989777	0.7291829586029053
337	519.573578119278	response	0	k		335.0	/experiments/knapen_AOT/AOT_stimuli/pictures/0510_fw.png	665.1039850711823	
338	519.5824480056763	picture	0		78	336.0	/experiments/knapen_AOT/AOT_stimuli/pictures/1627_fw.png	665.1128549575806	0.6527829170227051
338	520.2166569232941	response	0	k		336.0	/experiments/knapen_AOT/AOT_stimuli/pictures/1627_fw.png	665.7470638751984	
339	520.235230922699	picture	0		122	337.0	/experiments/knapen_AOT/AOT_stimuli/pictures/1363_fw.png	665.7656378746033	1.0140361785888672
339	521.240082025528	response	0	j		337.0	/experiments/knapen_AOT/AOT_stimuli/pictures/1363_fw.png	666.7704889774323	
340	521.2492671012878	picture	0		111	338.0	/experiments/knapen_AOT/AOT_stimuli/pictures/0237_fw.png	666.7796740531921	0.9239850044250488
340	522.1651041507721	response	0	k		338.0	/experiments/knapen_AOT/AOT_stimuli/pictures/0237_fw.png	667.6955111026764	
341	522.1732521057129	picture	0		100	339.0	/experiments/knapen_AOT/AOT_stimuli/pictures/1893_fw.png	667.7036590576172	0.8399128913879395
341	522.9985411167145	response	0	j		339.0	/experiments/knapen_AOT/AOT_stimuli/pictures/1893_fw.png	668.5289480686188	
342	523.0131649971008	picture	0		98	340.0	/experiments/knapen_AOT/AOT_stimuli/pictures/0257_fw.png	668.5435719490051	0.8192899227142334
342	523.8167719841003	response	0	k		340.0	/experiments/knapen_AOT/AOT_stimuli/pictures/0257_fw.png	669.3471789360046	
343	523.8324549198151	picture	0		195	341.0	/experiments/knapen_AOT/AOT_stimuli/pictures/0533_fw.png	669.3628618717194	1.625014066696167
343	525.4485120773315	response	0	k		341.0	/experiments/knapen_AOT/AOT_stimuli/pictures/0533_fw.png	670.9789190292358	
344	525.4574689865112	picture	0		96	342.0	/experiments/knapen_AOT/AOT_stimuli/pictures/1259_fw.png	670.9878759384155	0.799307107925415
344	526.2485160827637	response	0	j		342.0	/experiments/knapen_AOT/AOT_stimuli/pictures/1259_fw.png	671.778923034668	
345	526.2567760944366	picture	0		105	343.0	/experiments/knapen_AOT/AOT_stimuli/pictures/1796_fw.png	671.7871830463409	0.8749940395355225
345	527.1236469745636	response	0	j		343.0	/experiments/knapen_AOT/AOT_stimuli/pictures/1796_fw.png	672.6540539264679	
346	527.1317701339722	picture	0		93	344.0	/experiments/knapen_AOT/AOT_stimuli/pictures/1709_fw.png	672.6621770858765	0.7771668434143066
346	527.8985209465027	response	0	j		344.0	/experiments/knapen_AOT/AOT_stimuli/pictures/1709_fw.png	673.428927898407	
347	527.9089369773865	picture	0		88	345.0	/experiments/knapen_AOT/AOT_stimuli/pictures/0192_fw.png	673.4393439292908	0.7360529899597168
347	528.6318099498749	response	0	k		345.0	/experiments/knapen_AOT/AOT_stimuli/pictures/0192_fw.png	674.1622169017792	
348	528.6449899673462	picture	0		167	346.0	/experiments/knapen_AOT/AOT_stimuli/pictures/1729_fw.png	674.1753969192505	1.3959071636199951
348	530.025171995163	response	0	j		346.0	/experiments/knapen_AOT/AOT_stimuli/pictures/1729_fw.png	675.5555789470673	
349	530.0408971309662	picture	0		108	347.0	/experiments/knapen_AOT/AOT_stimuli/pictures/0407_fw.png	675.5713040828705	0.9028048515319824
349	530.9319579601288	response	0	k		347.0	/experiments/knapen_AOT/AOT_stimuli/pictures/0407_fw.png	676.4623649120331	
350	530.9437019824982	picture	0		85	348.0	/experiments/knapen_AOT/AOT_stimuli/pictures/2079_fw.png	676.4741089344025	0.7082431316375732
350	531.6402339935303	response	0	k		348.0	/experiments/knapen_AOT/AOT_stimuli/pictures/2079_fw.png	677.1706409454346	
351	531.6519451141357	picture	0		110	349.0	/experiments/knapen_AOT/AOT_stimuli/pictures/1693_fw.png	677.18235206604	0.9167909622192383
351	532.5569739341736	response	0	j		349.0	/experiments/knapen_AOT/AOT_stimuli/pictures/1693_fw.png	678.0873808860779	
352	532.568736076355	picture	0		381	350.0	/experiments/knapen_AOT/AOT_stimuli/pictures/0904_fw.png	678.0991430282593	3.1735360622406006
352	535.7320461273193	response	0	j		350.0	/experiments/knapen_AOT/AOT_stimuli/pictures/0904_fw.png	681.2624530792236	
353	535.7422721385956	picture	0		110	351.0	/experiments/knapen_AOT/AOT_stimuli/pictures/1833_fw.png	681.2726790904999	0.9167768955230713
353	536.6486539840698	response	0	j		351.0	/experiments/knapen_AOT/AOT_stimuli/pictures/1833_fw.png	682.1790609359741	
354	536.6590490341187	picture	0		163	352.0	/experiments/knapen_AOT/AOT_stimuli/pictures/0412_fw.png	682.189455986023	1.3610239028930664
354	538.0003571510315	response	0	j		352.0	/experiments/knapen_AOT/AOT_stimuli/pictures/0412_fw.png	683.5307641029358	
355	538.0200729370117	picture	0		103	353.0	/experiments/knapen_AOT/AOT_stimuli/pictures/1518_fw.png	683.550479888916	0.8618500232696533
355	538.8737781047821	response	0	k		353.0	/experiments/knapen_AOT/AOT_stimuli/pictures/1518_fw.png	684.4041850566864	
356	538.8819229602814	picture	0		114	354.0	/experiments/knapen_AOT/AOT_stimuli/pictures/2081_fw.png	684.4123299121857	0.9507091045379639
356	539.8236539363861	response	0	k		354.0	/experiments/knapen_AOT/AOT_stimuli/pictures/2081_fw.png	685.3540608882904	
357	539.8326320648193	picture	0		234	355.0	/experiments/knapen_AOT/AOT_stimuli/pictures/0009_fw.png	685.3630390167236	1.9514520168304443
357	541.7737851142883	response	0	j		355.0	/experiments/knapen_AOT/AOT_stimuli/pictures/0009_fw.png	687.3041920661926	
358	541.7840840816498	picture	0		105	356.0	/experiments/knapen_AOT/AOT_stimuli/pictures/0731_fw.png	687.3144910335541	0.8749909400939941
358	542.648689031601	response	0	j		356.0	/experiments/knapen_AOT/AOT_stimuli/pictures/0731_fw.png	688.1790959835052	
359	542.6590750217438	picture	0		108	357.0	/experiments/knapen_AOT/AOT_stimuli/pictures/0161_fw.png	688.1894819736481	0.9027090072631836
359	543.5486979484558	response	0	k		357.0	/experiments/knapen_AOT/AOT_stimuli/pictures/0161_fw.png	689.0791049003601	
360	543.561784029007	picture	0		367	358.0	/experiments/knapen_AOT/AOT_stimuli/pictures/0552_fw.png	689.0921909809113	3.0625879764556885
360	546.6087081432343	response	0	k		358.0	/experiments/knapen_AOT/AOT_stimuli/pictures/0552_fw.png	692.1391150951385	
361	546.6243720054626	picture	0		102	359.0	/experiments/knapen_AOT/AOT_stimuli/pictures/0430_fw.png	692.154778957367	0.8541100025177002
361	547.4654550552368	response	0	j		359.0	/experiments/knapen_AOT/AOT_stimuli/pictures/0430_fw.png	692.9958620071411	
362	547.4784820079803	stim	0		129			693.0088889598846	1.0701780319213867
362	548.5404679775238	response	0	space				694.0708749294281	
