trial_nr	onset	event_type	phase	response	nr_frames	picture_index	picture_file	onset_abs	duration
0	0.1665663719177246	stim	0		321			59.81608963012695	2.6883044242858887
0	2.8387482166290283	response	0	space				62.48827147483826	
2	2.8548707962036133	picture	0		210	0.0	/experiments/Knapen_AOT/AOT_stimuli/pictures/1285_fw.png	62.50439405441284	1.7767033576965332
2	4.607026100158691	response	0	k		0.0	/experiments/Knapen_AOT/AOT_stimuli/pictures/1285_fw.png	64.25654935836792	
3	4.6315741539001465	picture	0		119	1.0	/experiments/Knapen_AOT/AOT_stimuli/pictures/1607_fw.png	64.28109741210938	1.000011920928955
3	5.621628046035767	response	0	j		1.0	/experiments/Knapen_AOT/AOT_stimuli/pictures/1607_fw.png	65.271151304245	
4	5.631586074829102	picture	0		88	2.0	/experiments/Knapen_AOT/AOT_stimuli/pictures/1441_fw.png	65.28110933303833	0.7360854148864746
4	6.354907989501953	response	0	j		2.0	/experiments/Knapen_AOT/AOT_stimuli/pictures/1441_fw.png	66.00443124771118	
5	6.367671489715576	picture	0		223	3.0	/experiments/Knapen_AOT/AOT_stimuli/pictures/1344_fw.png	66.0171947479248	1.853954553604126
5	8.213125467300415	response	0	j		3.0	/experiments/Knapen_AOT/AOT_stimuli/pictures/1344_fw.png	67.86264872550964	
6	8.221626043319702	picture	0		88	4.0	/experiments/Knapen_AOT/AOT_stimuli/pictures/1863_fw.png	67.87114930152893	0.7361488342285156
6	8.940025806427002	response	0	j		4.0	/experiments/Knapen_AOT/AOT_stimuli/pictures/1863_fw.png	68.58954906463623	
7	8.957774877548218	picture	0		85	5.0	/experiments/Knapen_AOT/AOT_stimuli/pictures/0803_fw.png	68.60729813575745	0.708327054977417
7	9.654713869094849	response	0	j		5.0	/experiments/Knapen_AOT/AOT_stimuli/pictures/0803_fw.png	69.30423712730408	
8	9.666101932525635	picture	0		105	6.0	/experiments/Knapen_AOT/AOT_stimuli/pictures/1510_fw.png	69.31562519073486	0.8749496936798096
8	10.529668092727661	response	0	k		6.0	/experiments/Knapen_AOT/AOT_stimuli/pictures/1510_fw.png	70.17919135093689	
9	10.541051626205444	picture	0		106	7.0	/experiments/Knapen_AOT/AOT_stimuli/pictures/1773_fw.png	70.19057488441467	0.888420581817627
9	11.412997722625732	response	0	k		7.0	/experiments/Knapen_AOT/AOT_stimuli/pictures/1773_fw.png	71.06252098083496	
10	11.429472208023071	picture	0		255	8.0	/experiments/Knapen_AOT/AOT_stimuli/pictures/0593_fw.png	71.0789954662323	2.125164747238159
10	13.546210050582886	response	0	k		8.0	/experiments/Knapen_AOT/AOT_stimuli/pictures/0593_fw.png	73.19573330879211	
11	13.55463695526123	picture	0		104	9.0	/experiments/Knapen_AOT/AOT_stimuli/pictures/0751_fw.png	73.20416021347046	0.8680977821350098
11	14.412870407104492	response	0	k		9.0	/experiments/Knapen_AOT/AOT_stimuli/pictures/0751_fw.png	74.06239366531372	
12	14.42273473739624	picture	0		214	10.0	/experiments/Knapen_AOT/AOT_stimuli/pictures/0553_fw.png	74.07225799560547	1.7898375988006592
12	16.196079969406128	response	0	k		10.0	/experiments/Knapen_AOT/AOT_stimuli/pictures/0553_fw.png	75.84560322761536	
13	16.2125723361969	picture	0		90	11.0	/experiments/Knapen_AOT/AOT_stimuli/pictures/1885_fw.png	75.86209559440613	0.751690149307251
13	16.95433235168457	response	0	j		11.0	/experiments/Knapen_AOT/AOT_stimuli/pictures/1885_fw.png	76.6038556098938	
14	16.96426248550415	picture	0		74	12.0	/experiments/Knapen_AOT/AOT_stimuli/pictures/1293_fw.png	76.61378574371338	0.618013858795166
14	17.571225881576538	response	0	j		12.0	/experiments/Knapen_AOT/AOT_stimuli/pictures/1293_fw.png	77.22074913978577	
15	17.582276344299316	picture	0		72	13.0	/experiments/Knapen_AOT/AOT_stimuli/pictures/2143_fw.png	77.23179960250854	0.5972051620483398
15	18.16459631919861	response	0	j		13.0	/experiments/Knapen_AOT/AOT_stimuli/pictures/2143_fw.png	77.81411957740784	
16	18.179481506347656	picture	0		177	14.0	/experiments/Knapen_AOT/AOT_stimuli/pictures/0991_fw.png	77.82900476455688	1.478999137878418
16	19.645873546600342	response	0	j		14.0	/experiments/Knapen_AOT/AOT_stimuli/pictures/0991_fw.png	79.29539680480957	
17	19.658480644226074	picture	0		97	15.0	/experiments/Knapen_AOT/AOT_stimuli/pictures/0552_fw.png	79.3080039024353	0.805600643157959
17	20.454148054122925	response	0	k		15.0	/experiments/Knapen_AOT/AOT_stimuli/pictures/0552_fw.png	80.10367131233215	
18	20.464081287384033	picture	0		129	16.0	/experiments/Knapen_AOT/AOT_stimuli/pictures/1906_fw.png	80.11360454559326	1.0763540267944336
18	21.529147148132324	response	0	k		16.0	/experiments/Knapen_AOT/AOT_stimuli/pictures/1906_fw.png	81.17867040634155	
19	21.540435314178467	picture	0		144	17.0	/experiments/Knapen_AOT/AOT_stimuli/pictures/1857_fw.png	81.1899585723877	1.2012903690338135
19	22.729233264923096	response	0	k		17.0	/experiments/Knapen_AOT/AOT_stimuli/pictures/1857_fw.png	82.37875652313232	
20	22.74172568321228	picture	0		71	18.0	/experiments/Knapen_AOT/AOT_stimuli/pictures/0036_fw.png	82.39124894142151	0.5954220294952393
20	23.320685625076294	response	0	j		18.0	/experiments/Knapen_AOT/AOT_stimuli/pictures/0036_fw.png	82.97020888328552	
21	23.33714771270752	picture	0		235	19.0	/experiments/Knapen_AOT/AOT_stimuli/pictures/0370_fw.png	82.98667097091675	1.959890365600586
21	25.287245273590088	response	0	k		19.0	/experiments/Knapen_AOT/AOT_stimuli/pictures/0370_fw.png	84.93676853179932	
22	25.297038078308105	picture	0		79	20.0	/experiments/Knapen_AOT/AOT_stimuli/pictures/0902_fw.png	84.94656133651733	0.6598126888275146
22	25.945830583572388	response	0	j		20.0	/experiments/Knapen_AOT/AOT_stimuli/pictures/0902_fw.png	85.59535384178162	
23	25.95685076713562	picture	0		113	21.0	/experiments/Knapen_AOT/AOT_stimuli/pictures/1737_fw.png	85.60637402534485	0.9467616081237793
23	26.887203693389893	response	0	j		21.0	/experiments/Knapen_AOT/AOT_stimuli/pictures/1737_fw.png	86.53672695159912	
24	26.9036123752594	picture	0		135	22.0	/experiments/Knapen_AOT/AOT_stimuli/pictures/1542_fw.png	86.55313563346863	1.1333732604980469
24	28.02040433883667	response	0	k		22.0	/experiments/Knapen_AOT/AOT_stimuli/pictures/1542_fw.png	87.6699275970459	
25	28.036985635757446	picture	0		97	23.0	/experiments/Knapen_AOT/AOT_stimuli/pictures/0964_fw.png	87.68650889396667	0.8085372447967529
25	28.8370201587677	response	0	k		23.0	/experiments/Knapen_AOT/AOT_stimuli/pictures/0964_fw.png	88.48654341697693	
26	28.8455228805542	picture	0		101	24.0	/experiments/Knapen_AOT/AOT_stimuli/pictures/2146_fw.png	88.49504613876343	0.8496532440185547
26	29.678693532943726	response	0	j		24.0	/experiments/Knapen_AOT/AOT_stimuli/pictures/2146_fw.png	89.32821679115295	
27	29.695176124572754	picture	0		184	25.0	/experiments/Knapen_AOT/AOT_stimuli/pictures/1312_fw.png	89.34469938278198	1.5416085720062256
27	31.220288038253784	response	0	k		25.0	/experiments/Knapen_AOT/AOT_stimuli/pictures/1312_fw.png	90.86981129646301	
28	31.23678469657898	picture	0		93	26.0	/experiments/Knapen_AOT/AOT_stimuli/pictures/0611_fw.png	90.88630795478821	0.7752120494842529
28	32.00354814529419	response	0	j		26.0	/experiments/Knapen_AOT/AOT_stimuli/pictures/0611_fw.png	91.65307140350342	
29	32.01199674606323	picture	0		74	27.0	/experiments/Knapen_AOT/AOT_stimuli/pictures/1124_fw.png	91.66152000427246	0.624675989151001
29	32.620413303375244	response	0	j		27.0	/experiments/Knapen_AOT/AOT_stimuli/pictures/1124_fw.png	92.26993656158447	
30	32.63667273521423	picture	0		103	28.0	/experiments/Knapen_AOT/AOT_stimuli/pictures/1446_fw.png	92.28619599342346	0.8613760471343994
30	33.48679876327515	response	0	k		28.0	/experiments/Knapen_AOT/AOT_stimuli/pictures/1446_fw.png	93.13632202148438	
31	33.49804878234863	picture	0		292	29.0	/experiments/Knapen_AOT/AOT_stimuli/pictures/2176_fw.png	93.14757204055786	2.4303061962127686
31	35.920015811920166	response	0	j		29.0	/experiments/Knapen_AOT/AOT_stimuli/pictures/2176_fw.png	95.5695390701294	
32	35.9283549785614	picture	0		112	30.0	/experiments/Knapen_AOT/AOT_stimuli/pictures/1137_fw.png	95.57787823677063	0.9375519752502441
32	36.853278398513794	response	0	k		30.0	/experiments/Knapen_AOT/AOT_stimuli/pictures/1137_fw.png	96.50280165672302	
33	36.865906953811646	picture	0		109	31.0	/experiments/Knapen_AOT/AOT_stimuli/pictures/0519_fw.png	96.51543021202087	0.9121387004852295
33	37.76197052001953	response	0	k		31.0	/experiments/Knapen_AOT/AOT_stimuli/pictures/0519_fw.png	97.41149377822876	
34	37.778045654296875	picture	0		125	32.0	/experiments/Knapen_AOT/AOT_stimuli/pictures/0617_fw.png	97.4275689125061	1.0460810661315918
34	38.81151080131531	response	0	k		32.0	/experiments/Knapen_AOT/AOT_stimuli/pictures/0617_fw.png	98.46103405952454	
35	38.82412672042847	picture	0		69	33.0	/experiments/Knapen_AOT/AOT_stimuli/pictures/1972_fw.png	98.4736499786377	0.5788638591766357
35	39.386484146118164	response	0	j		33.0	/experiments/Knapen_AOT/AOT_stimuli/pictures/1972_fw.png	99.03600740432739	
36	39.4029905796051	picture	0		115	34.0	/experiments/Knapen_AOT/AOT_stimuli/pictures/1827_fw.png	99.05251383781433	0.9627492427825928
36	40.34605312347412	response	0	j		34.0	/experiments/Knapen_AOT/AOT_stimuli/pictures/1827_fw.png	99.99557638168335	
37	40.365739822387695	picture	0		77	35.0	/experiments/Knapen_AOT/AOT_stimuli/pictures/2161_fw.png	100.01526308059692	0.638810396194458
37	40.994749546051025	response	0	j		35.0	/experiments/Knapen_AOT/AOT_stimuli/pictures/2161_fw.png	100.64427280426025	
38	41.00455021858215	picture	0		198	36.0	/experiments/Knapen_AOT/AOT_stimuli/pictures/0288_fw.png	100.65407347679138	1.6566011905670166
38	42.64493250846863	response	0	k		36.0	/experiments/Knapen_AOT/AOT_stimuli/pictures/0288_fw.png	102.29445576667786	
39	42.66115140914917	picture	0		229	37.0	/experiments/Knapen_AOT/AOT_stimuli/pictures/2094_fw.png	102.3106746673584	1.9125525951385498
39	44.561567068099976	response	0	j		37.0	/experiments/Knapen_AOT/AOT_stimuli/pictures/2094_fw.png	104.2110903263092	
40	44.57370400428772	picture	0		226	38.0	/experiments/Knapen_AOT/AOT_stimuli/pictures/1670_fw.png	104.22322726249695	1.881826639175415
40	46.44469499588013	response	0	k		38.0	/experiments/Knapen_AOT/AOT_stimuli/pictures/1670_fw.png	106.09421825408936	
41	46.455530643463135	picture	0		92	39.0	/experiments/Knapen_AOT/AOT_stimuli/pictures/1133_fw.png	106.10505390167236	0.7719993591308594
41	47.21105885505676	response	0	j		39.0	/experiments/Knapen_AOT/AOT_stimuli/pictures/1133_fw.png	106.86058211326599	
42	47.227530002593994	picture	0		76	40.0	/experiments/Knapen_AOT/AOT_stimuli/pictures/0240_fw.png	106.87705326080322	0.6416528224945068
42	47.85282802581787	response	0	j		40.0	/experiments/Knapen_AOT/AOT_stimuli/pictures/0240_fw.png	107.5023512840271	
43	47.8691828250885	picture	0		75	41.0	/experiments/Knapen_AOT/AOT_stimuli/pictures/1881_fw.png	107.51870608329773	0.6279923915863037
43	48.48597025871277	response	0	j		41.0	/experiments/Knapen_AOT/AOT_stimuli/pictures/1881_fw.png	108.135493516922	
44	48.497175216674805	picture	0		177	42.0	/experiments/Knapen_AOT/AOT_stimuli/pictures/1388_fw.png	108.14669847488403	1.4802353382110596
44	49.96148085594177	response	0	j		42.0	/experiments/Knapen_AOT/AOT_stimuli/pictures/1388_fw.png	109.611004114151	
45	49.977410554885864	picture	0		151	43.0	/experiments/Knapen_AOT/AOT_stimuli/pictures/1395_fw.png	109.62693381309509	1.26658296585083
45	51.22768497467041	response	0	k		43.0	/experiments/Knapen_AOT/AOT_stimuli/pictures/1395_fw.png	110.87720823287964	
46	51.243993520736694	picture	0		84	44.0	/experiments/Knapen_AOT/AOT_stimuli/pictures/0871_fw.png	110.89351677894592	0.7044994831085205
46	51.93582081794739	response	0	j		44.0	/experiments/Knapen_AOT/AOT_stimuli/pictures/0871_fw.png	111.58534407615662	
47	51.948493003845215	picture	0		112	45.0	/experiments/Knapen_AOT/AOT_stimuli/pictures/1463_fw.png	111.59801626205444	0.9454092979431152
47	52.877453088760376	response	0	k		45.0	/experiments/Knapen_AOT/AOT_stimuli/pictures/1463_fw.png	112.5269763469696	
48	52.89390230178833	picture	0		114	46.0	/experiments/Knapen_AOT/AOT_stimuli/pictures/1143_fw.png	112.54342555999756	0.9582958221435547
48	53.83572340011597	response	0	k		46.0	/experiments/Knapen_AOT/AOT_stimuli/pictures/1143_fw.png	113.4852466583252	
49	53.852198123931885	picture	0		83	47.0	/experiments/Knapen_AOT/AOT_stimuli/pictures/0531_fw.png	113.50172138214111	0.7001724243164062
49	54.53587889671326	response	0	j		47.0	/experiments/Knapen_AOT/AOT_stimuli/pictures/0531_fw.png	114.18540215492249	
50	54.55237054824829	picture	0		83	48.0	/experiments/Knapen_AOT/AOT_stimuli/pictures/1678_fw.png	114.20189380645752	0.6944315433502197
50	55.23566699028015	response	0	j		48.0	/experiments/Knapen_AOT/AOT_stimuli/pictures/1678_fw.png	114.88519024848938	
51	55.24680209159851	picture	0		82	49.0	/experiments/Knapen_AOT/AOT_stimuli/pictures/2132_fw.png	114.89632534980774	0.6886096000671387
51	55.918941259384155	response	0	j		49.0	/experiments/Knapen_AOT/AOT_stimuli/pictures/2132_fw.png	115.56846451759338	
52	55.93541169166565	picture	0		142	50.0	/experiments/Knapen_AOT/AOT_stimuli/pictures/1443_fw.png	115.58493494987488	1.186084508895874
52	57.11041855812073	response	0	k		50.0	/experiments/Knapen_AOT/AOT_stimuli/pictures/1443_fw.png	116.75994181632996	
53	57.12149620056152	picture	0		101	51.0	/experiments/Knapen_AOT/AOT_stimuli/pictures/0890_fw.png	116.77101945877075	0.8467426300048828
53	57.95196604728699	response	0	k		51.0	/experiments/Knapen_AOT/AOT_stimuli/pictures/0890_fw.png	117.60148930549622	
54	57.968238830566406	picture	0		119	52.0	/experiments/Knapen_AOT/AOT_stimuli/pictures/1501_fw.png	117.61776208877563	0.9930119514465332
54	58.94386696815491	response	0	k		52.0	/experiments/Knapen_AOT/AOT_stimuli/pictures/1501_fw.png	118.59339022636414	
55	58.96125078201294	picture	0		150	53.0	/experiments/Knapen_AOT/AOT_stimuli/pictures/1335_fw.png	118.61077404022217	1.2494940757751465
55	60.201080560684204	response	0	k		53.0	/experiments/Knapen_AOT/AOT_stimuli/pictures/1335_fw.png	119.85060381889343	
56	60.210744857788086	picture	0		137	54.0	/experiments/Knapen_AOT/AOT_stimuli/pictures/1655_fw.png	119.86026811599731	1.1480460166931152
56	61.342506647109985	response	0	k		54.0	/experiments/Knapen_AOT/AOT_stimuli/pictures/1655_fw.png	120.99202990531921	
57	61.3587908744812	picture	0		102	55.0	/experiments/Knapen_AOT/AOT_stimuli/pictures/1834_fw.png	121.00831413269043	0.8580753803253174
57	62.20064830780029	response	0	k		55.0	/experiments/Knapen_AOT/AOT_stimuli/pictures/1834_fw.png	121.85017156600952	
58	62.21686625480652	picture	0		70	56.0	/experiments/Knapen_AOT/AOT_stimuli/pictures/0134_fw.png	121.86638951301575	0.5832688808441162
58	62.791839599609375	response	0	j		56.0	/experiments/Knapen_AOT/AOT_stimuli/pictures/0134_fw.png	122.4413628578186	
59	62.800135135650635	picture	0		186	57.0	/experiments/Knapen_AOT/AOT_stimuli/pictures/1316_fw.png	122.44965839385986	1.557711124420166
59	64.34144520759583	response	0	j		57.0	/experiments/Knapen_AOT/AOT_stimuli/pictures/1316_fw.png	123.99096846580505	
60	64.3578462600708	picture	0		241	58.0	/experiments/Knapen_AOT/AOT_stimuli/pictures/1057_fw.png	124.00736951828003	2.0174367427825928
60	66.35767531394958	response	0	k		58.0	/experiments/Knapen_AOT/AOT_stimuli/pictures/1057_fw.png	126.00719857215881	
61	66.3752830028534	picture	0		187	59.0	/experiments/Knapen_AOT/AOT_stimuli/pictures/2116_fw.png	126.02480626106262	1.564718246459961
61	67.92367720603943	response	0	k		59.0	/experiments/Knapen_AOT/AOT_stimuli/pictures/2116_fw.png	127.57320046424866	
62	67.94000124931335	picture	0		78	60.0	/experiments/Knapen_AOT/AOT_stimuli/pictures/0403_fw.png	127.58952450752258	0.649846076965332
62	68.58162713050842	response	0	j		60.0	/experiments/Knapen_AOT/AOT_stimuli/pictures/0403_fw.png	128.23115038871765	
63	68.58984732627869	picture	0		244	61.0	/experiments/Knapen_AOT/AOT_stimuli/pictures/1408_fw.png	128.23937058448792	2.0409328937530518
63	70.61426997184753	response	0	k		61.0	/experiments/Knapen_AOT/AOT_stimuli/pictures/1408_fw.png	130.26379323005676	
64	70.63078022003174	picture	0		77	62.0	/experiments/Knapen_AOT/AOT_stimuli/pictures/2159_fw.png	130.28030347824097	0.6457407474517822
64	71.26404309272766	response	0	j		62.0	/experiments/Knapen_AOT/AOT_stimuli/pictures/2159_fw.png	130.9135663509369	
65	71.27652096748352	picture	0		382	63.0	/experiments/Knapen_AOT/AOT_stimuli/pictures/2104_fw.png	130.92604422569275	3.179374933242798
65	74.44636058807373	response	0	j		63.0	/experiments/Knapen_AOT/AOT_stimuli/pictures/2104_fw.png	134.09588384628296	
66	74.45589590072632	picture	0		84	64.0	/experiments/Knapen_AOT/AOT_stimuli/pictures/0016_fw.png	134.10541915893555	0.7013309001922607
66	75.13842701911926	response	0	k		64.0	/experiments/Knapen_AOT/AOT_stimuli/pictures/0016_fw.png	134.7879502773285	
67	75.15722680091858	picture	0		76	65.0	/experiments/Knapen_AOT/AOT_stimuli/pictures/0310_fw.png	134.8067500591278	0.6316878795623779
67	75.77929973602295	response	0	j		65.0	/experiments/Knapen_AOT/AOT_stimuli/pictures/0310_fw.png	135.42882299423218	
68	75.78891468048096	picture	0		92	66.0	/experiments/Knapen_AOT/AOT_stimuli/pictures/0208_fw.png	135.43843793869019	0.7732288837432861
68	76.54624938964844	response	0	j		66.0	/experiments/Knapen_AOT/AOT_stimuli/pictures/0208_fw.png	136.19577264785767	
69	76.56214356422424	picture	0		119	67.0	/experiments/Knapen_AOT/AOT_stimuli/pictures/1560_fw.png	136.21166682243347	0.9969913959503174
69	77.53761577606201	response	0	j		67.0	/experiments/Knapen_AOT/AOT_stimuli/pictures/1560_fw.png	137.18713903427124	
70	77.55913496017456	picture	0		101	68.0	/experiments/Knapen_AOT/AOT_stimuli/pictures/0472_fw.png	137.2086582183838	0.8469409942626953
70	78.39504027366638	response	0	j		68.0	/experiments/Knapen_AOT/AOT_stimuli/pictures/0472_fw.png	138.0445635318756	
71	78.40607595443726	picture	0		915	69.0	/experiments/Knapen_AOT/AOT_stimuli/pictures/1757_fw.png	138.05559921264648	7.627982139587402
71	86.01761293411255	response	0	k		69.0	/experiments/Knapen_AOT/AOT_stimuli/pictures/1757_fw.png	145.66713619232178	
72	86.03405809402466	picture	0		96	70.0	/experiments/Knapen_AOT/AOT_stimuli/pictures/1956_fw.png	145.6835813522339	0.7998654842376709
72	86.82561564445496	response	0	k		70.0	/experiments/Knapen_AOT/AOT_stimuli/pictures/1956_fw.png	146.47513890266418	
73	86.83392357826233	picture	0		77	71.0	/experiments/Knapen_AOT/AOT_stimuli/pictures/0665_fw.png	146.48344683647156	0.6496601104736328
73	87.46716022491455	response	0	j		71.0	/experiments/Knapen_AOT/AOT_stimuli/pictures/0665_fw.png	147.11668348312378	
74	87.48358368873596	picture	0		151	72.0	/experiments/Knapen_AOT/AOT_stimuli/pictures/0711_fw.png	147.1331069469452	1.2663378715515137
74	88.72589302062988	response	0	j		72.0	/experiments/Knapen_AOT/AOT_stimuli/pictures/0711_fw.png	148.3754162788391	
75	88.74992156028748	picture	0		135	73.0	/experiments/Knapen_AOT/AOT_stimuli/pictures/1999_fw.png	148.3994448184967	1.124610424041748
75	89.86646747589111	response	0	j		73.0	/experiments/Knapen_AOT/AOT_stimuli/pictures/1999_fw.png	149.51599073410034	
76	89.87453198432922	picture	0		73	74.0	/experiments/Knapen_AOT/AOT_stimuli/pictures/1540_fw.png	149.52405524253845	0.6163649559020996
76	90.47440385818481	response	0	j		74.0	/experiments/Knapen_AOT/AOT_stimuli/pictures/1540_fw.png	150.12392711639404	
77	90.49089694023132	picture	0		84	75.0	/experiments/Knapen_AOT/AOT_stimuli/pictures/1733_fw.png	150.14042019844055	0.7025761604309082
77	91.18249917030334	response	0	j		75.0	/experiments/Knapen_AOT/AOT_stimuli/pictures/1733_fw.png	150.83202242851257	
78	91.19347310066223	picture	0		146	76.0	/experiments/Knapen_AOT/AOT_stimuli/pictures/0860_fw.png	150.84299635887146	1.2218973636627197
78	92.39876508712769	response	0	k		76.0	/experiments/Knapen_AOT/AOT_stimuli/pictures/0860_fw.png	152.0482883453369	
79	92.41537046432495	picture	0		135	77.0	/experiments/Knapen_AOT/AOT_stimuli/pictures/0321_fw.png	152.06489372253418	1.1328709125518799
79	93.52544522285461	response	0	j		77.0	/experiments/Knapen_AOT/AOT_stimuli/pictures/0321_fw.png	153.17496848106384	
80	93.54824137687683	picture	0		139	78.0	/experiments/Knapen_AOT/AOT_stimuli/pictures/0287_fw.png	153.19776463508606	1.1580235958099365
80	94.69802403450012	response	0	k		78.0	/experiments/Knapen_AOT/AOT_stimuli/pictures/0287_fw.png	154.34754729270935	
81	94.70626497268677	picture	0		324	79.0	/experiments/Knapen_AOT/AOT_stimuli/pictures/0661_fw.png	154.355788230896	2.7073774337768555
81	97.39723944664001	response	0	j		79.0	/experiments/Knapen_AOT/AOT_stimuli/pictures/0661_fw.png	157.04676270484924	
82	97.41364240646362	picture	0		162	80.0	/experiments/Knapen_AOT/AOT_stimuli/pictures/1685_fw.png	157.06316566467285	1.3536012172698975
82	98.75510621070862	response	0	k		80.0	/experiments/Knapen_AOT/AOT_stimuli/pictures/1685_fw.png	158.40462946891785	
83	98.76724362373352	picture	0		101	81.0	/experiments/Knapen_AOT/AOT_stimuli/pictures/1949_fw.png	158.41676688194275	0.840090274810791
83	99.59650039672852	response	0	j		81.0	/experiments/Knapen_AOT/AOT_stimuli/pictures/1949_fw.png	159.24602365493774	
84	99.60733389854431	picture	0		112	82.0	/experiments/Knapen_AOT/AOT_stimuli/pictures/1288_fw.png	159.25685715675354	0.9303538799285889
84	100.52189445495605	response	0	k		82.0	/experiments/Knapen_AOT/AOT_stimuli/pictures/1288_fw.png	160.17141771316528	
85	100.5376877784729	picture	0		96	83.0	/experiments/Knapen_AOT/AOT_stimuli/pictures/0839_fw.png	160.18721103668213	0.8080224990844727
85	101.32998323440552	response	0	k		83.0	/experiments/Knapen_AOT/AOT_stimuli/pictures/0839_fw.png	160.97950649261475	
86	101.34571027755737	picture	0		104	84.0	/experiments/Knapen_AOT/AOT_stimuli/pictures/2060_fw.png	160.9952335357666	0.874713659286499
86	102.20392894744873	response	0	k		84.0	/experiments/Knapen_AOT/AOT_stimuli/pictures/2060_fw.png	161.85345220565796	
87	102.22042393684387	picture	0		103	85.0	/experiments/Knapen_AOT/AOT_stimuli/pictures/0861_fw.png	161.8699471950531	0.8581111431121826
87	103.07029151916504	response	0	k		85.0	/experiments/Knapen_AOT/AOT_stimuli/pictures/0861_fw.png	162.71981477737427	
88	103.07853507995605	picture	0		121	86.0	/experiments/Knapen_AOT/AOT_stimuli/pictures/0800_fw.png	162.72805833816528	1.01350998878479
88	104.07830095291138	response	0	k		86.0	/experiments/Knapen_AOT/AOT_stimuli/pictures/0800_fw.png	163.7278242111206	
89	104.09204506874084	picture	0		78	87.0	/experiments/Knapen_AOT/AOT_stimuli/pictures/1512_fw.png	163.74156832695007	0.6525449752807617
89	104.73650050163269	response	0	j		87.0	/experiments/Knapen_AOT/AOT_stimuli/pictures/1512_fw.png	164.38602375984192	
90	104.7445900440216	picture	0		135	88.0	/experiments/Knapen_AOT/AOT_stimuli/pictures/2126_fw.png	164.39411330223083	1.1246371269226074
90	105.86107635498047	response	0	j		88.0	/experiments/Knapen_AOT/AOT_stimuli/pictures/2126_fw.png	165.5105996131897	
91	105.86922717094421	picture	0		110	89.0	/experiments/Knapen_AOT/AOT_stimuli/pictures/0477_fw.png	165.51875042915344	0.9246878623962402
91	106.7774064540863	response	0	j		89.0	/experiments/Knapen_AOT/AOT_stimuli/pictures/0477_fw.png	166.42692971229553	
92	106.79391503334045	picture	0		161	90.0	/experiments/Knapen_AOT/AOT_stimuli/pictures/2087_fw.png	166.44343829154968	1.345214605331421
92	108.12729358673096	response	0	j		90.0	/experiments/Knapen_AOT/AOT_stimuli/pictures/2087_fw.png	167.77681684494019	
93	108.13912963867188	picture	0		82	91.0	/experiments/Knapen_AOT/AOT_stimuli/pictures/0425_fw.png	167.7886528968811	0.6874165534973145
93	108.81844758987427	response	0	j		91.0	/experiments/Knapen_AOT/AOT_stimuli/pictures/0425_fw.png	168.4679708480835	
94	108.82654619216919	picture	0		111	92.0	/experiments/Knapen_AOT/AOT_stimuli/pictures/1211_fw.png	168.47606945037842	0.9302103519439697
94	109.74313592910767	response	0	k		92.0	/experiments/Knapen_AOT/AOT_stimuli/pictures/1211_fw.png	169.3926591873169	
95	109.75675654411316	picture	0		99	93.0	/experiments/Knapen_AOT/AOT_stimuli/pictures/0360_fw.png	169.4062798023224	0.8330643177032471
95	110.57621479034424	response	0	k		93.0	/experiments/Knapen_AOT/AOT_stimuli/pictures/0360_fw.png	170.22573804855347	
96	110.5898208618164	picture	0		127	94.0	/experiments/Knapen_AOT/AOT_stimuli/pictures/0608_fw.png	170.23934412002563	1.0691370964050293
96	111.64252495765686	response	0	j		94.0	/experiments/Knapen_AOT/AOT_stimuli/pictures/0608_fw.png	171.2920482158661	
97	111.65895795822144	picture	0		86	95.0	/experiments/Knapen_AOT/AOT_stimuli/pictures/1296_fw.png	171.30848121643066	0.7219157218933105
97	112.36731767654419	response	0	j		95.0	/experiments/Knapen_AOT/AOT_stimuli/pictures/1296_fw.png	172.01684093475342	
98	112.38087368011475	picture	0		84	96.0	/experiments/Knapen_AOT/AOT_stimuli/pictures/1122_fw.png	172.03039693832397	0.7109978199005127
98	113.07558965682983	response	0	j		96.0	/experiments/Knapen_AOT/AOT_stimuli/pictures/1122_fw.png	172.72511291503906	
99	113.09187150001526	picture	0		83	97.0	/experiments/Knapen_AOT/AOT_stimuli/pictures/0520_fw.png	172.7413947582245	0.6914148330688477
99	113.77515959739685	response	0	j		97.0	/experiments/Knapen_AOT/AOT_stimuli/pictures/0520_fw.png	173.42468285560608	
100	113.7832863330841	picture	0		101	98.0	/experiments/Knapen_AOT/AOT_stimuli/pictures/2006_fw.png	173.43280959129333	0.846834659576416
100	114.61653065681458	response	0	j		98.0	/experiments/Knapen_AOT/AOT_stimuli/pictures/2006_fw.png	174.2660539150238	
101	114.63012099266052	picture	0		87	99.0	/experiments/Knapen_AOT/AOT_stimuli/pictures/0627_fw.png	174.27964425086975	0.7289307117462158
101	115.34967541694641	response	0	j		99.0	/experiments/Knapen_AOT/AOT_stimuli/pictures/0627_fw.png	174.99919867515564	
102	115.35905170440674	picture	0		87	100.0	/experiments/Knapen_AOT/AOT_stimuli/pictures/2043_fw.png	175.00857496261597	0.7318685054779053
102	116.07437038421631	response	0	j		100.0	/experiments/Knapen_AOT/AOT_stimuli/pictures/2043_fw.png	175.72389364242554	
103	116.09092020988464	picture	0		106	101.0	/experiments/Knapen_AOT/AOT_stimuli/pictures/0915_fw.png	175.74044346809387	0.8856399059295654
103	116.96583366394043	response	0	k		101.0	/experiments/Knapen_AOT/AOT_stimuli/pictures/0915_fw.png	176.61535692214966	
104	116.97656011581421	picture	0		85	102.0	/experiments/Knapen_AOT/AOT_stimuli/pictures/0838_fw.png	176.62608337402344	0.713789701461792
104	117.67386555671692	response	0	j		102.0	/experiments/Knapen_AOT/AOT_stimuli/pictures/0838_fw.png	177.32338881492615	
105	117.690349817276	picture	0		105	103.0	/experiments/Knapen_AOT/AOT_stimuli/pictures/1648_fw.png	177.33987307548523	0.8760373592376709
105	118.55688524246216	response	0	j		103.0	/experiments/Knapen_AOT/AOT_stimuli/pictures/1648_fw.png	178.2064085006714	
106	118.56638717651367	picture	0		119	104.0	/experiments/Knapen_AOT/AOT_stimuli/pictures/2062_fw.png	178.2159104347229	0.9926812648773193
106	119.5482873916626	response	0	j		104.0	/experiments/Knapen_AOT/AOT_stimuli/pictures/2062_fw.png	179.19781064987183	
107	119.55906844139099	picture	0		109	105.0	/experiments/Knapen_AOT/AOT_stimuli/pictures/0699_fw.png	179.20859169960022	0.9094381332397461
107	120.45631051063538	response	0	k		105.0	/experiments/Knapen_AOT/AOT_stimuli/pictures/0699_fw.png	180.1058337688446	
108	120.46850657463074	picture	0		110	106.0	/experiments/Knapen_AOT/AOT_stimuli/pictures/1416_fw.png	180.11802983283997	0.9164285659790039
108	121.37275052070618	response	0	k		106.0	/experiments/Knapen_AOT/AOT_stimuli/pictures/1416_fw.png	181.0222737789154	
109	121.38493514060974	picture	0		120	107.0	/experiments/Knapen_AOT/AOT_stimuli/pictures/0216_fw.png	181.03445839881897	0.9998891353607178
109	122.37269186973572	response	0	k		107.0	/experiments/Knapen_AOT/AOT_stimuli/pictures/0216_fw.png	182.02221512794495	
110	122.38482427597046	picture	0		205	108.0	/experiments/Knapen_AOT/AOT_stimuli/pictures/1036_fw.png	182.0343475341797	1.7081310749053955
110	124.08087539672852	response	0	k		108.0	/experiments/Knapen_AOT/AOT_stimuli/pictures/1036_fw.png	183.73039865493774	
111	124.09295535087585	picture	0		81	109.0	/experiments/Knapen_AOT/AOT_stimuli/pictures/0159_fw.png	183.74247860908508	0.6793909072875977
111	124.75616478919983	response	0	j		109.0	/experiments/Knapen_AOT/AOT_stimuli/pictures/0159_fw.png	184.40568804740906	
112	124.77234625816345	picture	0		139	110.0	/experiments/Knapen_AOT/AOT_stimuli/pictures/0262_fw.png	184.42186951637268	1.1608541011810303
112	125.9153048992157	response	0	j		110.0	/experiments/Knapen_AOT/AOT_stimuli/pictures/0262_fw.png	185.56482815742493	
113	125.93320035934448	picture	0		119	111.0	/experiments/Knapen_AOT/AOT_stimuli/pictures/0270_fw.png	185.5827236175537	0.9929771423339844
113	126.90641045570374	response	0	k		111.0	/experiments/Knapen_AOT/AOT_stimuli/pictures/0270_fw.png	186.55593371391296	
114	126.92617750167847	picture	0		113	112.0	/experiments/Knapen_AOT/AOT_stimuli/pictures/1196_fw.png	186.5757007598877	0.9376192092895508
114	127.85565447807312	response	0	k		112.0	/experiments/Knapen_AOT/AOT_stimuli/pictures/1196_fw.png	187.50517773628235	
115	127.86379671096802	picture	0		104	113.0	/experiments/Knapen_AOT/AOT_stimuli/pictures/0500_fw.png	187.51331996917725	0.874950647354126
115	128.72281193733215	response	0	j		113.0	/experiments/Knapen_AOT/AOT_stimuli/pictures/0500_fw.png	188.37233519554138	
116	128.73874735832214	picture	0		441	114.0	/experiments/Knapen_AOT/AOT_stimuli/pictures/0639_fw.png	188.38827061653137	3.6831111907958984
116	132.4054102897644	response	0	k		114.0	/experiments/Knapen_AOT/AOT_stimuli/pictures/0639_fw.png	192.05493354797363	
117	132.42185854911804	picture	0		120	115.0	/experiments/Knapen_AOT/AOT_stimuli/pictures/0925_fw.png	192.07138180732727	1.0082714557647705
117	133.4136564731598	response	0	j		115.0	/experiments/Knapen_AOT/AOT_stimuli/pictures/0925_fw.png	193.06317973136902	
118	133.4301300048828	picture	0		103	116.0	/experiments/Knapen_AOT/AOT_stimuli/pictures/2026_fw.png	193.07965326309204	0.8636322021484375
118	134.28022480010986	response	0	j		116.0	/experiments/Knapen_AOT/AOT_stimuli/pictures/2026_fw.png	193.9297480583191	
119	134.29376220703125	picture	0		95	117.0	/experiments/Knapen_AOT/AOT_stimuli/pictures/1078_fw.png	193.94328546524048	0.7985920906066895
119	135.08022904396057	response	0	j		117.0	/experiments/Knapen_AOT/AOT_stimuli/pictures/1078_fw.png	194.7297523021698	
120	135.09235429763794	picture	0		85	118.0	/experiments/Knapen_AOT/AOT_stimuli/pictures/1841_fw.png	194.74187755584717	0.7082090377807617
120	135.7884385585785	response	0	j		118.0	/experiments/Knapen_AOT/AOT_stimuli/pictures/1841_fw.png	195.43796181678772	
121	135.8005633354187	picture	0		104	119.0	/experiments/Knapen_AOT/AOT_stimuli/pictures/0434_fw.png	195.45008659362793	0.8680257797241211
121	136.6550943851471	response	0	k		119.0	/experiments/Knapen_AOT/AOT_stimuli/pictures/0434_fw.png	196.30461764335632	
122	136.66858911514282	picture	0		76	120.0	/experiments/Knapen_AOT/AOT_stimuli/pictures/0874_fw.png	196.31811237335205	0.6446120738983154
122	137.29678463935852	response	0	j		120.0	/experiments/Knapen_AOT/AOT_stimuli/pictures/0874_fw.png	196.94630789756775	
123	137.31320118904114	picture	0		450	121.0	/experiments/Knapen_AOT/AOT_stimuli/pictures/0592_fw.png	196.96272444725037	3.7508225440979004
123	141.05483651161194	response	0	k		121.0	/experiments/Knapen_AOT/AOT_stimuli/pictures/0592_fw.png	200.70435976982117	
124	141.06402373313904	picture	0		281	122.0	/experiments/Knapen_AOT/AOT_stimuli/pictures/1924_fw.png	200.71354699134827	2.3404488563537598
124	143.39639163017273	response	0	j		122.0	/experiments/Knapen_AOT/AOT_stimuli/pictures/1924_fw.png	203.04591488838196	
125	143.4044725894928	picture	0		93	123.0	/experiments/Knapen_AOT/AOT_stimuli/pictures/1347_fw.png	203.05399584770203	0.7833156585693359
125	144.17136001586914	response	0	j		123.0	/experiments/Knapen_AOT/AOT_stimuli/pictures/1347_fw.png	203.82088327407837	
126	144.18778824806213	picture	0		96	124.0	/experiments/Knapen_AOT/AOT_stimuli/pictures/0373_fw.png	203.83731150627136	0.80830979347229
126	144.97957611083984	response	0	k		124.0	/experiments/Knapen_AOT/AOT_stimuli/pictures/0373_fw.png	204.62909936904907	
127	144.99609804153442	picture	0		82	125.0	/experiments/Knapen_AOT/AOT_stimuli/pictures/2086_fw.png	204.64562129974365	0.6858556270599365
127	145.67130303382874	response	0	j		125.0	/experiments/Knapen_AOT/AOT_stimuli/pictures/2086_fw.png	205.32082629203796	
128	145.68195366859436	picture	0		102	126.0	/experiments/Knapen_AOT/AOT_stimuli/pictures/0918_fw.png	205.3314769268036	0.8557491302490234
128	146.52117276191711	response	0	k		126.0	/experiments/Knapen_AOT/AOT_stimuli/pictures/0918_fw.png	206.17069602012634	
129	146.53770279884338	picture	0		80	127.0	/experiments/Knapen_AOT/AOT_stimuli/pictures/0957_fw.png	206.1872260570526	0.6718471050262451
129	147.19613695144653	response	0	j		127.0	/experiments/Knapen_AOT/AOT_stimuli/pictures/0957_fw.png	206.84566020965576	
130	147.20954990386963	picture	0		103	128.0	/experiments/Knapen_AOT/AOT_stimuli/pictures/0924_fw.png	206.85907316207886	0.8612940311431885
130	148.06274557113647	response	0	k		128.0	/experiments/Knapen_AOT/AOT_stimuli/pictures/0924_fw.png	207.7122688293457	
131	148.07084393501282	picture	0		400	129.0	/experiments/Knapen_AOT/AOT_stimuli/pictures/1153_fw.png	207.72036719322205	3.47481632232666
131	151.529235124588	response	0	k		129.0	/experiments/Knapen_AOT/AOT_stimuli/pictures/1153_fw.png	211.17875838279724	
132	151.54566025733948	picture	0		231	130.0	/experiments/Knapen_AOT/AOT_stimuli/pictures/0724_fw.png	211.1951835155487	1.9332349300384521
132	153.46240329742432	response	0	j		130.0	/experiments/Knapen_AOT/AOT_stimuli/pictures/0724_fw.png	213.11192655563354	
133	153.47889518737793	picture	0		96	131.0	/experiments/Knapen_AOT/AOT_stimuli/pictures/1837_fw.png	213.12841844558716	0.799901008605957
133	154.2706913948059	response	0	k		131.0	/experiments/Knapen_AOT/AOT_stimuli/pictures/1837_fw.png	213.92021465301514	
134	154.2787961959839	picture	0		110	132.0	/experiments/Knapen_AOT/AOT_stimuli/pictures/0669_fw.png	213.92831945419312	0.9166083335876465
134	155.18727898597717	response	0	k		132.0	/experiments/Knapen_AOT/AOT_stimuli/pictures/0669_fw.png	214.8368022441864	
135	155.19540452957153	picture	0		159	133.0	/experiments/Knapen_AOT/AOT_stimuli/pictures/1701_fw.png	214.84492778778076	1.3259024620056152
135	156.50475549697876	response	0	k		133.0	/experiments/Knapen_AOT/AOT_stimuli/pictures/1701_fw.png	216.154278755188	
136	156.52130699157715	picture	0		83	134.0	/experiments/Knapen_AOT/AOT_stimuli/pictures/1626_fw.png	216.17083024978638	0.6945009231567383
136	157.2038288116455	response	0	j		134.0	/experiments/Knapen_AOT/AOT_stimuli/pictures/1626_fw.png	216.85335206985474	
137	157.2158079147339	picture	0		108	135.0	/experiments/Knapen_AOT/AOT_stimuli/pictures/0673_fw.png	216.86533117294312	0.8960766792297363
137	158.09647631645203	response	0	j		135.0	/experiments/Knapen_AOT/AOT_stimuli/pictures/0673_fw.png	217.74599957466125	
138	158.11188459396362	picture	0		147	136.0	/experiments/Knapen_AOT/AOT_stimuli/pictures/0409_fw.png	217.76140785217285	1.2287752628326416
138	159.32868933677673	response	0	j		136.0	/experiments/Knapen_AOT/AOT_stimuli/pictures/0409_fw.png	218.97821259498596	
139	159.34065985679626	picture	0		120	137.0	/experiments/Knapen_AOT/AOT_stimuli/pictures/0973_fw.png	218.9901831150055	1.004504919052124
139	160.32866597175598	response	0	k		137.0	/experiments/Knapen_AOT/AOT_stimuli/pictures/0973_fw.png	219.9781892299652	
140	160.3451647758484	picture	0		97	138.0	/experiments/Knapen_AOT/AOT_stimuli/pictures/0482_fw.png	219.99468803405762	0.8081955909729004
140	161.1452443599701	response	0	k		138.0	/experiments/Knapen_AOT/AOT_stimuli/pictures/0482_fw.png	220.79476761817932	
141	161.1533603668213	picture	0		176	139.0	/experiments/Knapen_AOT/AOT_stimuli/pictures/1240_fw.png	220.80288362503052	1.4749400615692139
141	162.61182236671448	response	0	j		139.0	/experiments/Knapen_AOT/AOT_stimuli/pictures/1240_fw.png	222.2613456249237	
142	162.6283004283905	picture	0		93	140.0	/experiments/Knapen_AOT/AOT_stimuli/pictures/1786_fw.png	222.27782368659973	0.7749240398406982
142	163.39508485794067	response	0	j		140.0	/experiments/Knapen_AOT/AOT_stimuli/pictures/1786_fw.png	223.0446081161499	
143	163.4032244682312	picture	0		113	141.0	/experiments/Knapen_AOT/AOT_stimuli/pictures/1953_fw.png	223.05274772644043	0.9440581798553467
143	164.3367211818695	response	0	k		141.0	/experiments/Knapen_AOT/AOT_stimuli/pictures/1953_fw.png	223.98624444007874	
144	164.34728264808655	picture	0		154	142.0	/experiments/Knapen_AOT/AOT_stimuli/pictures/0984_fw.png	223.99680590629578	1.2892060279846191
144	165.61999917030334	response	0	k		142.0	/experiments/Knapen_AOT/AOT_stimuli/pictures/0984_fw.png	225.26952242851257	
145	165.63648867607117	picture	0		105	143.0	/experiments/Knapen_AOT/AOT_stimuli/pictures/0542_fw.png	225.2860119342804	0.8832550048828125
145	166.49664115905762	response	0	k		143.0	/experiments/Knapen_AOT/AOT_stimuli/pictures/0542_fw.png	226.14616441726685	
146	166.51974368095398	picture	0		91	144.0	/experiments/Knapen_AOT/AOT_stimuli/pictures/0623_fw.png	226.1692669391632	0.7583205699920654
146	167.2698757648468	response	0	j		144.0	/experiments/Knapen_AOT/AOT_stimuli/pictures/0623_fw.png	226.91939902305603	
147	167.27806425094604	picture	0		102	145.0	/experiments/Knapen_AOT/AOT_stimuli/pictures/0781_fw.png	226.92758750915527	0.8582491874694824
147	168.11988043785095	response	0	k		145.0	/experiments/Knapen_AOT/AOT_stimuli/pictures/0781_fw.png	227.76940369606018	
148	168.13631343841553	picture	0		241	146.0	/experiments/Knapen_AOT/AOT_stimuli/pictures/1769_fw.png	227.78583669662476	2.009079933166504
148	170.13638544082642	response	0	k		146.0	/experiments/Knapen_AOT/AOT_stimuli/pictures/1769_fw.png	229.78590869903564	
149	170.14539337158203	picture	0		89	147.0	/experiments/Knapen_AOT/AOT_stimuli/pictures/2025_fw.png	229.79491662979126	0.7431304454803467
149	170.87824749946594	response	0	j		147.0	/experiments/Knapen_AOT/AOT_stimuli/pictures/2025_fw.png	230.52777075767517	
150	170.88852381706238	picture	0		82	148.0	/experiments/Knapen_AOT/AOT_stimuli/pictures/0493_fw.png	230.5380470752716	0.6808619499206543
150	171.56130409240723	response	0	j		148.0	/experiments/Knapen_AOT/AOT_stimuli/pictures/0493_fw.png	231.21082735061646	
151	171.56938576698303	picture	0		93	149.0	/experiments/Knapen_AOT/AOT_stimuli/pictures/0785_fw.png	231.21890902519226	0.7773237228393555
151	172.3363230228424	response	0	j		149.0	/experiments/Knapen_AOT/AOT_stimuli/pictures/0785_fw.png	231.98584628105164	
152	172.3467094898224	picture	0		100	150.0	/experiments/Knapen_AOT/AOT_stimuli/pictures/1218_fw.png	231.99623274803162	0.8392696380615234
152	173.16951417922974	response	0	j		150.0	/experiments/Knapen_AOT/AOT_stimuli/pictures/1218_fw.png	232.81903743743896	
153	173.1859791278839	picture	0		82	151.0	/experiments/Knapen_AOT/AOT_stimuli/pictures/2109_fw.png	232.83550238609314	0.6884372234344482
153	173.86114597320557	response	0	j		151.0	/experiments/Knapen_AOT/AOT_stimuli/pictures/2109_fw.png	233.5106692314148	
154	173.87441635131836	picture	0		121	152.0	/experiments/Knapen_AOT/AOT_stimuli/pictures/0732_fw.png	233.5239396095276	1.0198261737823486
154	174.87800073623657	response	0	j		152.0	/experiments/Knapen_AOT/AOT_stimuli/pictures/0732_fw.png	234.5275239944458	
155	174.8942425251007	picture	0		129	153.0	/experiments/Knapen_AOT/AOT_stimuli/pictures/1741_fw.png	234.54376578330994	1.0832335948944092
155	175.96104264259338	response	0	j		153.0	/experiments/Knapen_AOT/AOT_stimuli/pictures/1741_fw.png	235.6105659008026	
156	175.97747611999512	picture	0		113	154.0	/experiments/Knapen_AOT/AOT_stimuli/pictures/2011_fw.png	235.62699937820435	0.9453179836273193
156	176.91096258163452	response	0	k		154.0	/experiments/Knapen_AOT/AOT_stimuli/pictures/2011_fw.png	236.56048583984375	
157	176.92279410362244	picture	0		97	155.0	/experiments/Knapen_AOT/AOT_stimuli/pictures/1065_fw.png	236.57231736183167	0.812885046005249
157	177.71945333480835	response	0	j		155.0	/experiments/Knapen_AOT/AOT_stimuli/pictures/1065_fw.png	237.36897659301758	
158	177.73567914962769	picture	0		145	156.0	/experiments/Knapen_AOT/AOT_stimuli/pictures/1756_fw.png	237.3852024078369	1.2147767543792725
158	178.93586993217468	response	0	k		156.0	/experiments/Knapen_AOT/AOT_stimuli/pictures/1756_fw.png	238.5853931903839	
159	178.95045590400696	picture	0		97	157.0	/experiments/Knapen_AOT/AOT_stimuli/pictures/0415_fw.png	238.5999791622162	0.8184847831726074
159	179.75250720977783	response	0	k		157.0	/experiments/Knapen_AOT/AOT_stimuli/pictures/0415_fw.png	239.40203046798706	
160	179.76894068717957	picture	0		202	158.0	/experiments/Knapen_AOT/AOT_stimuli/pictures/1745_fw.png	239.4184639453888	1.6915414333343506
160	181.4439413547516	response	0	k		158.0	/experiments/Knapen_AOT/AOT_stimuli/pictures/1745_fw.png	241.09346461296082	
161	181.46048212051392	picture	0		98	159.0	/experiments/Knapen_AOT/AOT_stimuli/pictures/1927_fw.png	241.11000537872314	0.8230698108673096
161	182.26894402503967	response	0	k		159.0	/experiments/Knapen_AOT/AOT_stimuli/pictures/1927_fw.png	241.9184672832489	
162	182.28355193138123	picture	0		114	160.0	/experiments/Knapen_AOT/AOT_stimuli/pictures/1066_fw.png	241.93307518959045	0.9517931938171387
162	183.22725677490234	response	0	k		160.0	/experiments/Knapen_AOT/AOT_stimuli/pictures/1066_fw.png	242.87678003311157	
163	183.23534512519836	picture	0		133	161.0	/experiments/Knapen_AOT/AOT_stimuli/pictures/0657_fw.png	242.8848683834076	1.110590934753418
163	184.33553647994995	response	0	k		161.0	/experiments/Knapen_AOT/AOT_stimuli/pictures/0657_fw.png	243.98505973815918	
164	184.34593605995178	picture	0		167	162.0	/experiments/Knapen_AOT/AOT_stimuli/pictures/1541_fw.png	243.995459318161	1.3979406356811523
164	185.7288465499878	response	0	j		162.0	/experiments/Knapen_AOT/AOT_stimuli/pictures/1541_fw.png	245.37836980819702	
165	185.74387669563293	picture	0		171	163.0	/experiments/Knapen_AOT/AOT_stimuli/pictures/0024_fw.png	245.39339995384216	1.4665160179138184
165	187.1986653804779	response	0	k		163.0	/experiments/Knapen_AOT/AOT_stimuli/pictures/0024_fw.png	246.84818863868713	
166	187.21039271354675	picture	0		314	164.0	/experiments/Knapen_AOT/AOT_stimuli/pictures/1125_fw.png	246.85991597175598	2.621455192565918
166	189.81541347503662	response	0	j		164.0	/experiments/Knapen_AOT/AOT_stimuli/pictures/1125_fw.png	249.46493673324585	
167	189.83184790611267	picture	0		120	165.0	/experiments/Knapen_AOT/AOT_stimuli/pictures/1559_fw.png	249.4813711643219	1.0083513259887695
167	190.82372665405273	response	0	k		165.0	/experiments/Knapen_AOT/AOT_stimuli/pictures/1559_fw.png	250.47324991226196	
168	190.84019923210144	picture	0		81	166.0	/experiments/Knapen_AOT/AOT_stimuli/pictures/0910_fw.png	250.48972249031067	0.6833393573760986
168	191.50735139846802	response	0	j		166.0	/experiments/Knapen_AOT/AOT_stimuli/pictures/0910_fw.png	251.15687465667725	
169	191.52353858947754	picture	0		104	167.0	/experiments/Knapen_AOT/AOT_stimuli/pictures/1606_fw.png	251.17306184768677	0.8675746917724609
169	192.38208937644958	response	0	j		167.0	/experiments/Knapen_AOT/AOT_stimuli/pictures/1606_fw.png	252.0316126346588	
170	192.39111328125	picture	0		116	168.0	/experiments/Knapen_AOT/AOT_stimuli/pictures/0457_fw.png	252.04063653945923	0.9657492637634277
170	193.34889030456543	response	0	k		168.0	/experiments/Knapen_AOT/AOT_stimuli/pictures/0457_fw.png	252.99841356277466	
171	193.35686254501343	picture	0		101	169.0	/experiments/Knapen_AOT/AOT_stimuli/pictures/2153_fw.png	253.00638580322266	0.8468244075775146
171	194.19043350219727	response	0	k		169.0	/experiments/Knapen_AOT/AOT_stimuli/pictures/2153_fw.png	253.8399567604065	
172	194.20368695259094	picture	0		96	170.0	/experiments/Knapen_AOT/AOT_stimuli/pictures/1262_fw.png	253.85321021080017	0.8115875720977783
172	194.99886107444763	response	0	k		170.0	/experiments/Knapen_AOT/AOT_stimuli/pictures/1262_fw.png	254.64838433265686	
173	195.01527452468872	picture	0		111	171.0	/experiments/Knapen_AOT/AOT_stimuli/pictures/0446_fw.png	254.66479778289795	0.924952507019043
173	195.92447996139526	response	0	j		171.0	/experiments/Knapen_AOT/AOT_stimuli/pictures/0446_fw.png	255.5740032196045	
174	195.94022703170776	picture	0		138	172.0	/experiments/Knapen_AOT/AOT_stimuli/pictures/0114_fw.png	255.589750289917	1.1583948135375977
174	197.0821921825409	response	0	j		172.0	/experiments/Knapen_AOT/AOT_stimuli/pictures/0114_fw.png	256.7317154407501	
175	197.09862184524536	picture	0		188	173.0	/experiments/Knapen_AOT/AOT_stimuli/pictures/0001_fw.png	256.7481451034546	1.575073480606079
175	198.6572675704956	response	0	k		173.0	/experiments/Knapen_AOT/AOT_stimuli/pictures/0001_fw.png	258.30679082870483	
176	198.67369532585144	picture	0		116	174.0	/experiments/Knapen_AOT/AOT_stimuli/pictures/0635_fw.png	258.32321858406067	0.9749178886413574
176	199.6323938369751	response	0	k		174.0	/experiments/Knapen_AOT/AOT_stimuli/pictures/0635_fw.png	259.2819170951843	
177	199.6486132144928	picture	0		87	175.0	/experiments/Knapen_AOT/AOT_stimuli/pictures/1525_fw.png	259.298136472702	0.7287299633026123
177	200.36553049087524	response	0	j		175.0	/experiments/Knapen_AOT/AOT_stimuli/pictures/1525_fw.png	260.0150537490845	
178	200.3773431777954	picture	0		91	176.0	/experiments/Knapen_AOT/AOT_stimuli/pictures/1934_fw.png	260.02686643600464	0.7638237476348877
178	201.12484979629517	response	0	j		176.0	/experiments/Knapen_AOT/AOT_stimuli/pictures/1934_fw.png	260.7743730545044	
179	201.1411669254303	picture	0		84	177.0	/experiments/Knapen_AOT/AOT_stimuli/pictures/1990_fw.png	260.7906901836395	0.7013607025146484
179	201.83223414421082	response	0	j		177.0	/experiments/Knapen_AOT/AOT_stimuli/pictures/1990_fw.png	261.48175740242004	
180	201.84252762794495	picture	0		106	178.0	/experiments/Knapen_AOT/AOT_stimuli/pictures/1884_fw.png	261.4920508861542	0.8819625377655029
180	202.70925283432007	response	0	j		178.0	/experiments/Knapen_AOT/AOT_stimuli/pictures/1884_fw.png	262.3587760925293	
181	202.72449016571045	picture	0		102	179.0	/experiments/Knapen_AOT/AOT_stimuli/pictures/1340_fw.png	262.3740134239197	0.8541598320007324
181	203.56552863121033	response	0	k		179.0	/experiments/Knapen_AOT/AOT_stimuli/pictures/1340_fw.png	263.21505188941956	
182	203.57864999771118	picture	0		382	180.0	/experiments/Knapen_AOT/AOT_stimuli/pictures/0097_fw.png	263.2281732559204	3.1804871559143066
182	206.74901390075684	response	0	k		180.0	/experiments/Knapen_AOT/AOT_stimuli/pictures/0097_fw.png	266.39853715896606	
183	206.7591371536255	picture	0		100	181.0	/experiments/Knapen_AOT/AOT_stimuli/pictures/1641_fw.png	266.4086604118347	0.8396024703979492
183	207.582355260849	response	0	k		181.0	/experiments/Knapen_AOT/AOT_stimuli/pictures/1641_fw.png	267.2318785190582	
184	207.59873962402344	picture	0		340	182.0	/experiments/Knapen_AOT/AOT_stimuli/pictures/0742_fw.png	267.24826288223267	2.8340296745300293
184	210.4242570400238	response	0	j		182.0	/experiments/Knapen_AOT/AOT_stimuli/pictures/0742_fw.png	270.07378029823303	
185	210.43276929855347	picture	0		73	183.0	/experiments/Knapen_AOT/AOT_stimuli/pictures/0544_fw.png	270.0822925567627	0.6160094738006592
185	211.03236484527588	response	0	j		183.0	/experiments/Knapen_AOT/AOT_stimuli/pictures/0544_fw.png	270.6818881034851	
186	211.04877877235413	picture	0		120	184.0	/experiments/Knapen_AOT/AOT_stimuli/pictures/0588_fw.png	270.69830203056335	1.0022180080413818
186	212.04070901870728	response	0	k		184.0	/experiments/Knapen_AOT/AOT_stimuli/pictures/0588_fw.png	271.6902322769165	
187	212.0509967803955	picture	0		89	185.0	/experiments/Knapen_AOT/AOT_stimuli/pictures/0533_fw.png	271.70052003860474	0.7478070259094238
187	212.782324552536	response	0	k		185.0	/experiments/Knapen_AOT/AOT_stimuli/pictures/0533_fw.png	272.43184781074524	
188	212.79880380630493	picture	0		101	186.0	/experiments/Knapen_AOT/AOT_stimuli/pictures/0647_fw.png	272.44832706451416	0.8424355983734131
188	213.6323013305664	response	0	j		186.0	/experiments/Knapen_AOT/AOT_stimuli/pictures/0647_fw.png	273.28182458877563	
189	213.64123940467834	picture	0		97	187.0	/experiments/Knapen_AOT/AOT_stimuli/pictures/0366_fw.png	273.2907626628876	0.8159618377685547
189	214.4406304359436	response	0	j		187.0	/experiments/Knapen_AOT/AOT_stimuli/pictures/0366_fw.png	274.09015369415283	
190	214.4572012424469	picture	0		102	188.0	/experiments/Knapen_AOT/AOT_stimuli/pictures/2040_fw.png	274.1067245006561	0.8506956100463867
190	215.29898047447205	response	0	k		188.0	/experiments/Knapen_AOT/AOT_stimuli/pictures/2040_fw.png	274.9485037326813	
191	215.3078968524933	picture	0		158	189.0	/experiments/Knapen_AOT/AOT_stimuli/pictures/0710_fw.png	274.9574201107025	1.3194808959960938
191	216.6156885623932	response	0	j		189.0	/experiments/Knapen_AOT/AOT_stimuli/pictures/0710_fw.png	276.2652118206024	
192	216.62737774848938	picture	0		94	190.0	/experiments/Knapen_AOT/AOT_stimuli/pictures/0089_fw.png	276.2769010066986	0.7847027778625488
192	217.39902591705322	response	0	j		190.0	/experiments/Knapen_AOT/AOT_stimuli/pictures/0089_fw.png	277.04854917526245	
193	217.41208052635193	picture	0		107	191.0	/experiments/Knapen_AOT/AOT_stimuli/pictures/1724_fw.png	277.06160378456116	0.888897180557251
193	218.29070377349854	response	0	k		191.0	/experiments/Knapen_AOT/AOT_stimuli/pictures/1724_fw.png	277.94022703170776	
194	218.30097770690918	picture	0		96	192.0	/experiments/Knapen_AOT/AOT_stimuli/pictures/1421_fw.png	277.9505009651184	0.7986314296722412
194	219.0907027721405	response	0	k		192.0	/experiments/Knapen_AOT/AOT_stimuli/pictures/1421_fw.png	278.74022603034973	
195	219.09960913658142	picture	0		123	193.0	/experiments/Knapen_AOT/AOT_stimuli/pictures/0938_fw.png	278.74913239479065	1.032609462738037
195	220.1157307624817	response	0	k		193.0	/experiments/Knapen_AOT/AOT_stimuli/pictures/0938_fw.png	279.7652540206909	
196	220.13221859931946	picture	0		151	194.0	/experiments/Knapen_AOT/AOT_stimuli/pictures/0694_fw.png	279.7817418575287	1.266653299331665
196	221.38245487213135	response	0	k		194.0	/experiments/Knapen_AOT/AOT_stimuli/pictures/0694_fw.png	281.0319781303406	
197	221.39887189865112	picture	0		111	195.0	/experiments/Knapen_AOT/AOT_stimuli/pictures/0525_fw.png	281.04839515686035	0.929936408996582
197	222.31573295593262	response	0	k		195.0	/experiments/Knapen_AOT/AOT_stimuli/pictures/0525_fw.png	281.96525621414185	
198	222.3288083076477	picture	0		100	196.0	/experiments/Knapen_AOT/AOT_stimuli/pictures/1201_fw.png	281.97833156585693	0.8451082706451416
198	223.15748190879822	response	0	k		196.0	/experiments/Knapen_AOT/AOT_stimuli/pictures/1201_fw.png	282.80700516700745	
199	223.17391657829285	picture	0		82	197.0	/experiments/Knapen_AOT/AOT_stimuli/pictures/2081_fw.png	282.8234398365021	0.6895971298217773
199	223.84922766685486	response	0	j		197.0	/experiments/Knapen_AOT/AOT_stimuli/pictures/2081_fw.png	283.4987509250641	
200	223.86351370811462	picture	0		223	198.0	/experiments/Knapen_AOT/AOT_stimuli/pictures/1960_fw.png	283.51303696632385	1.8610284328460693
200	225.71581387519836	response	0	k		198.0	/experiments/Knapen_AOT/AOT_stimuli/pictures/1960_fw.png	285.3653371334076	
201	225.7245421409607	picture	0		241	199.0	/experiments/Knapen_AOT/AOT_stimuli/pictures/1711_fw.png	285.3740653991699	2.013922929763794
201	227.71678376197815	response	0	j		199.0	/experiments/Knapen_AOT/AOT_stimuli/pictures/1711_fw.png	287.3663070201874	
202	227.7384650707245	picture	0		104	200.0	/experiments/Knapen_AOT/AOT_stimuli/pictures/0722_fw.png	287.3879883289337	0.8771955966949463
202	228.59916400909424	response	0	j		200.0	/experiments/Knapen_AOT/AOT_stimuli/pictures/0722_fw.png	288.24868726730347	
203	228.61566066741943	picture	0		95	201.0	/experiments/Knapen_AOT/AOT_stimuli/pictures/1333_fw.png	288.26518392562866	0.8000097274780273
203	229.3992199897766	response	0	j		201.0	/experiments/Knapen_AOT/AOT_stimuli/pictures/1333_fw.png	289.04874324798584	
204	229.41567039489746	picture	0		90	202.0	/experiments/Knapen_AOT/AOT_stimuli/pictures/0309_fw.png	289.0651936531067	0.7583682537078857
204	230.15754008293152	response	0	j		202.0	/experiments/Knapen_AOT/AOT_stimuli/pictures/0309_fw.png	289.80706334114075	
205	230.17403864860535	picture	0		92	203.0	/experiments/Knapen_AOT/AOT_stimuli/pictures/1612_fw.png	289.8235619068146	0.7749638557434082
205	230.93252444267273	response	0	k		203.0	/experiments/Knapen_AOT/AOT_stimuli/pictures/1612_fw.png	290.58204770088196	
206	230.94900250434875	picture	0		120	204.0	/experiments/Knapen_AOT/AOT_stimuli/pictures/0365_fw.png	290.598525762558	1.0084543228149414
206	231.94085955619812	response	0	k		204.0	/experiments/Knapen_AOT/AOT_stimuli/pictures/0365_fw.png	291.59038281440735	
207	231.9574568271637	picture	0		165	205.0	/experiments/Knapen_AOT/AOT_stimuli/pictures/1487_fw.png	291.6069800853729	1.378251552581787
207	233.3166024684906	response	0	k		205.0	/experiments/Knapen_AOT/AOT_stimuli/pictures/1487_fw.png	292.96612572669983	
208	233.33570837974548	picture	0		116	206.0	/experiments/Knapen_AOT/AOT_stimuli/pictures/0798_fw.png	292.9852316379547	0.9716701507568359
208	234.29088735580444	response	0	k		206.0	/experiments/Knapen_AOT/AOT_stimuli/pictures/0798_fw.png	293.9404106140137	
209	234.30737853050232	picture	0		120	207.0	/experiments/Knapen_AOT/AOT_stimuli/pictures/1381_fw.png	293.95690178871155	1.0083258152008057
209	235.29925870895386	response	0	k		207.0	/experiments/Knapen_AOT/AOT_stimuli/pictures/1381_fw.png	294.9487819671631	
210	235.31570434570312	picture	0		128	208.0	/experiments/Knapen_AOT/AOT_stimuli/pictures/0349_fw.png	294.96522760391235	1.0750350952148438
210	236.3742959499359	response	0	k		208.0	/experiments/Knapen_AOT/AOT_stimuli/pictures/0349_fw.png	296.02381920814514	
211	236.39073944091797	picture	0		89	209.0	/experiments/Knapen_AOT/AOT_stimuli/pictures/0495_fw.png	296.0402626991272	0.7500269412994385
211	237.1166501045227	response	0	j		209.0	/experiments/Knapen_AOT/AOT_stimuli/pictures/0495_fw.png	296.76617336273193	
212	237.1407663822174	picture	0		256	210.0	/experiments/Knapen_AOT/AOT_stimuli/pictures/1663_fw.png	296.79028964042664	2.141691207885742
212	239.26598525047302	response	0	k		210.0	/experiments/Knapen_AOT/AOT_stimuli/pictures/1663_fw.png	298.91550850868225	
213	239.28245759010315	picture	0		148	211.0	/experiments/Knapen_AOT/AOT_stimuli/pictures/1380_fw.png	298.9319808483124	1.2339255809783936
213	240.50767827033997	response	0	k		211.0	/experiments/Knapen_AOT/AOT_stimuli/pictures/1380_fw.png	300.1572015285492	
214	240.51638317108154	picture	0		124	212.0	/experiments/Knapen_AOT/AOT_stimuli/pictures/0388_fw.png	300.16590642929077	1.041085958480835
214	241.5411298274994	response	0	k		212.0	/experiments/Knapen_AOT/AOT_stimuli/pictures/0388_fw.png	301.1906530857086	
215	241.55746912956238	picture	0		149	213.0	/experiments/Knapen_AOT/AOT_stimuli/pictures/0471_fw.png	301.2069923877716	1.2506861686706543
215	242.79120016098022	response	0	j		213.0	/experiments/Knapen_AOT/AOT_stimuli/pictures/0471_fw.png	302.44072341918945	
216	242.80815529823303	picture	0		74	214.0	/experiments/Knapen_AOT/AOT_stimuli/pictures/1583_fw.png	302.45767855644226	0.6243746280670166
216	243.41618299484253	response	0	j		214.0	/experiments/Knapen_AOT/AOT_stimuli/pictures/1583_fw.png	303.06570625305176	
217	243.43252992630005	picture	0		118	215.0	/experiments/Knapen_AOT/AOT_stimuli/pictures/0148_fw.png	303.0820531845093	0.9916646480560303
217	244.40774202346802	response	0	k		215.0	/experiments/Knapen_AOT/AOT_stimuli/pictures/0148_fw.png	304.05726528167725	
218	244.42419457435608	picture	0		130	216.0	/experiments/Knapen_AOT/AOT_stimuli/pictures/1766_fw.png	304.0737178325653	1.0916540622711182
218	245.4994249343872	response	0	k		216.0	/experiments/Knapen_AOT/AOT_stimuli/pictures/1766_fw.png	305.14894819259644	
219	245.5158486366272	picture	0		89	217.0	/experiments/Knapen_AOT/AOT_stimuli/pictures/0300_fw.png	305.1653718948364	0.750025749206543
219	246.24938774108887	response	0	j		217.0	/experiments/Knapen_AOT/AOT_stimuli/pictures/0300_fw.png	305.8989109992981	
220	246.26587438583374	picture	0		102	218.0	/experiments/Knapen_AOT/AOT_stimuli/pictures/1102_fw.png	305.91539764404297	0.8583898544311523
220	247.10780906677246	response	0	k		218.0	/experiments/Knapen_AOT/AOT_stimuli/pictures/1102_fw.png	306.7573323249817	
221	247.1242642402649	picture	0		152	219.0	/experiments/Knapen_AOT/AOT_stimuli/pictures/0185_fw.png	306.7737874984741	1.2749412059783936
221	248.3827211856842	response	0	j		219.0	/experiments/Knapen_AOT/AOT_stimuli/pictures/0185_fw.png	308.03224444389343	
222	248.3992054462433	picture	0		116	220.0	/experiments/Knapen_AOT/AOT_stimuli/pictures/1394_fw.png	308.0487287044525	0.9750449657440186
222	249.357759475708	response	0	k		220.0	/experiments/Knapen_AOT/AOT_stimuli/pictures/1394_fw.png	309.00728273391724	
223	249.3742504119873	picture	0		80	221.0	/experiments/Knapen_AOT/AOT_stimuli/pictures/1086_fw.png	309.02377367019653	0.6749742031097412
223	250.03277444839478	response	0	j		221.0	/experiments/Knapen_AOT/AOT_stimuli/pictures/1086_fw.png	309.682297706604	
224	250.04922461509705	picture	0		99	222.0	/experiments/Knapen_AOT/AOT_stimuli/pictures/0884_fw.png	309.6987478733063	0.8333632946014404
224	250.8660876750946	response	0	k		222.0	/experiments/Knapen_AOT/AOT_stimuli/pictures/0884_fw.png	310.51561093330383	
225	250.8825879096985	picture	0		102	223.0	/experiments/Knapen_AOT/AOT_stimuli/pictures/0568_fw.png	310.5321111679077	0.8561058044433594
225	251.71707916259766	response	0	k		223.0	/experiments/Knapen_AOT/AOT_stimuli/pictures/0568_fw.png	311.3666024208069	
226	251.73869371414185	picture	0		99	224.0	/experiments/Knapen_AOT/AOT_stimuli/pictures/0423_fw.png	311.3882169723511	0.8355698585510254
226	252.55836009979248	response	0	k		224.0	/experiments/Knapen_AOT/AOT_stimuli/pictures/0423_fw.png	312.2078833580017	
227	252.57426357269287	picture	0		221	225.0	/experiments/Knapen_AOT/AOT_stimuli/pictures/0887_fw.png	312.2237868309021	1.850029706954956
227	254.40778946876526	response	0	k		225.0	/experiments/Knapen_AOT/AOT_stimuli/pictures/0887_fw.png	314.0573127269745	
228	254.42429327964783	picture	0		81	226.0	/experiments/Knapen_AOT/AOT_stimuli/pictures/1364_fw.png	314.07381653785706	0.6833133697509766
228	255.09112930297852	response	0	j		226.0	/experiments/Knapen_AOT/AOT_stimuli/pictures/1364_fw.png	314.74065256118774	
229	255.1076066493988	picture	0		109	227.0	/experiments/Knapen_AOT/AOT_stimuli/pictures/1752_fw.png	314.75712990760803	0.9166734218597412
229	256.00778818130493	response	0	k		227.0	/experiments/Knapen_AOT/AOT_stimuli/pictures/1752_fw.png	315.65731143951416	
230	256.02428007125854	picture	0		112	228.0	/experiments/Knapen_AOT/AOT_stimuli/pictures/0933_fw.png	315.6738033294678	0.941683292388916
230	256.94949650764465	response	0	k		228.0	/experiments/Knapen_AOT/AOT_stimuli/pictures/0933_fw.png	316.5990197658539	
231	256.96596336364746	picture	0		105	229.0	/experiments/Knapen_AOT/AOT_stimuli/pictures/1081_fw.png	316.6154866218567	0.8833668231964111
231	257.8329029083252	response	0	k		229.0	/experiments/Knapen_AOT/AOT_stimuli/pictures/1081_fw.png	317.4824261665344	
232	257.8493301868439	picture	0		234	230.0	/experiments/Knapen_AOT/AOT_stimuli/pictures/0008_fw.png	317.4988534450531	1.9583649635314941
232	259.79120540618896	response	0	k		230.0	/experiments/Knapen_AOT/AOT_stimuli/pictures/0008_fw.png	319.4407286643982	
233	259.80769515037537	picture	0		84	231.0	/experiments/Knapen_AOT/AOT_stimuli/pictures/1079_fw.png	319.4572184085846	0.7083249092102051
233	260.4996621608734	response	0	j		231.0	/experiments/Knapen_AOT/AOT_stimuli/pictures/1079_fw.png	320.14918541908264	
234	260.51602005958557	picture	0		84	232.0	/experiments/Knapen_AOT/AOT_stimuli/pictures/2056_fw.png	320.1655433177948	0.7083332538604736
234	261.2078866958618	response	0	j		232.0	/experiments/Knapen_AOT/AOT_stimuli/pictures/2056_fw.png	320.85740995407104	
235	261.22435331344604	picture	0		129	233.0	/experiments/Knapen_AOT/AOT_stimuli/pictures/1831_fw.png	320.8738765716553	1.083366870880127
235	262.29127764701843	response	0	j		233.0	/experiments/Knapen_AOT/AOT_stimuli/pictures/1831_fw.png	321.94080090522766	
236	262.3077201843262	picture	0		101	234.0	/experiments/Knapen_AOT/AOT_stimuli/pictures/1325_fw.png	321.9572434425354	0.8477013111114502
236	263.14124298095703	response	0	j		234.0	/experiments/Knapen_AOT/AOT_stimuli/pictures/1325_fw.png	322.79076623916626	
237	263.1554214954376	picture	0		99	235.0	/experiments/Knapen_AOT/AOT_stimuli/pictures/0700_fw.png	322.80494475364685	0.8333380222320557
237	263.9745578765869	response	0	k		235.0	/experiments/Knapen_AOT/AOT_stimuli/pictures/0700_fw.png	323.62408113479614	
238	263.9887595176697	picture	0		130	236.0	/experiments/Knapen_AOT/AOT_stimuli/pictures/0845_fw.png	323.6382827758789	1.0902774333953857
238	265.06622290611267	response	0	k		236.0	/experiments/Knapen_AOT/AOT_stimuli/pictures/0845_fw.png	324.7157461643219	
239	265.07903695106506	picture	0		241	237.0	/experiments/Knapen_AOT/AOT_stimuli/pictures/0072_fw.png	324.7285602092743	2.0120761394500732
239	267.0746877193451	response	0	k		237.0	/experiments/Knapen_AOT/AOT_stimuli/pictures/0072_fw.png	326.7242109775543	
240	267.09111309051514	picture	0		81	238.0	/experiments/Knapen_AOT/AOT_stimuli/pictures/0450_fw.png	326.74063634872437	0.683281660079956
240	267.75792026519775	response	0	j		238.0	/experiments/Knapen_AOT/AOT_stimuli/pictures/0450_fw.png	327.407443523407	
241	267.7743947505951	picture	0		81	239.0	/experiments/Knapen_AOT/AOT_stimuli/pictures/0769_fw.png	327.4239180088043	0.6833853721618652
241	268.4413595199585	response	0	j		239.0	/experiments/Knapen_AOT/AOT_stimuli/pictures/0769_fw.png	328.0908827781677	
242	268.45778012275696	picture	0		151	240.0	/experiments/Knapen_AOT/AOT_stimuli/pictures/1175_fw.png	328.1073033809662	1.2601678371429443
242	269.7010033130646	response	0	k		240.0	/experiments/Knapen_AOT/AOT_stimuli/pictures/1175_fw.png	329.3505265712738	
243	269.7179479598999	picture	0		127	241.0	/experiments/Knapen_AOT/AOT_stimuli/pictures/0505_fw.png	329.36747121810913	1.0624947547912598
243	270.76629424095154	response	0	k		241.0	/experiments/Knapen_AOT/AOT_stimuli/pictures/0505_fw.png	330.41581749916077	
244	270.78044271469116	picture	0		249	242.0	/experiments/Knapen_AOT/AOT_stimuli/pictures/1379_fw.png	330.4299659729004	2.0857093334198
244	272.8496940135956	response	0	k		242.0	/experiments/Knapen_AOT/AOT_stimuli/pictures/1379_fw.png	332.4992172718048	
245	272.86615204811096	picture	0		78	243.0	/experiments/Knapen_AOT/AOT_stimuli/pictures/1466_fw.png	332.5156753063202	0.6504004001617432
245	273.50798535346985	response	0	k		243.0	/experiments/Knapen_AOT/AOT_stimuli/pictures/1466_fw.png	333.1575086116791	
246	273.5165524482727	picture	0		90	244.0	/experiments/Knapen_AOT/AOT_stimuli/pictures/2095_fw.png	333.16607570648193	0.7579174041748047
246	274.25799465179443	response	0	j		244.0	/experiments/Knapen_AOT/AOT_stimuli/pictures/2095_fw.png	333.90751791000366	
247	274.2744698524475	picture	0		126	245.0	/experiments/Knapen_AOT/AOT_stimuli/pictures/0094_fw.png	333.92399311065674	1.0546274185180664
247	275.3098564147949	response	0	j		245.0	/experiments/Knapen_AOT/AOT_stimuli/pictures/0094_fw.png	334.95937967300415	
248	275.3290972709656	picture	0		303	246.0	/experiments/Knapen_AOT/AOT_stimuli/pictures/1178_fw.png	334.9786205291748	2.5371129512786865
248	277.8497214317322	response	0	k		246.0	/experiments/Knapen_AOT/AOT_stimuli/pictures/1178_fw.png	337.4992446899414	
249	277.86621022224426	picture	0		76	247.0	/experiments/Knapen_AOT/AOT_stimuli/pictures/0653_fw.png	337.5157334804535	0.6416323184967041
249	278.49167132377625	response	0	j		247.0	/experiments/Knapen_AOT/AOT_stimuli/pictures/0653_fw.png	338.1411945819855	
250	278.50784254074097	picture	0		115	248.0	/experiments/Knapen_AOT/AOT_stimuli/pictures/0188_fw.png	338.1573657989502	0.966691255569458
250	279.458393573761	response	0	j		248.0	/experiments/Knapen_AOT/AOT_stimuli/pictures/0188_fw.png	339.1079168319702	
251	279.4745337963104	picture	0		102	249.0	/experiments/Knapen_AOT/AOT_stimuli/pictures/1870_fw.png	339.12405705451965	0.8583426475524902
251	280.3163974285126	response	0	k		249.0	/experiments/Knapen_AOT/AOT_stimuli/pictures/1870_fw.png	339.9659206867218	
252	280.3328764438629	picture	0		81	250.0	/experiments/Knapen_AOT/AOT_stimuli/pictures/1543_fw.png	339.98239970207214	0.6768534183502197
252	280.9997491836548	response	0	j		250.0	/experiments/Knapen_AOT/AOT_stimuli/pictures/1543_fw.png	340.649272441864	
253	281.00972986221313	picture	0		74	251.0	/experiments/Knapen_AOT/AOT_stimuli/pictures/0340_fw.png	340.65925312042236	0.6179983615875244
253	281.61633491516113	response	0	j		251.0	/experiments/Knapen_AOT/AOT_stimuli/pictures/0340_fw.png	341.26585817337036	
254	281.62772822380066	picture	0		227	252.0	/experiments/Knapen_AOT/AOT_stimuli/pictures/0017_fw.png	341.2772514820099	1.8968472480773926
254	283.50043845176697	response	0	k		252.0	/experiments/Knapen_AOT/AOT_stimuli/pictures/0017_fw.png	343.1499617099762	
255	283.52457547187805	picture	0		113	253.0	/experiments/Knapen_AOT/AOT_stimuli/pictures/0243_fw.png	343.1740987300873	0.9500131607055664
255	284.45802879333496	response	0	j		253.0	/experiments/Knapen_AOT/AOT_stimuli/pictures/0243_fw.png	344.1075520515442	
256	284.4745886325836	picture	0		491	254.0	/experiments/Knapen_AOT/AOT_stimuli/pictures/1929_fw.png	344.12411189079285	4.100154876708984
256	288.55822563171387	response	0	k		254.0	/experiments/Knapen_AOT/AOT_stimuli/pictures/1929_fw.png	348.2077488899231	
257	288.5747435092926	picture	0		91	255.0	/experiments/Knapen_AOT/AOT_stimuli/pictures/1727_fw.png	348.22426676750183	0.7665939331054688
257	289.32499408721924	response	0	j		255.0	/experiments/Knapen_AOT/AOT_stimuli/pictures/1727_fw.png	348.97451734542847	
258	289.34133744239807	picture	0		78	256.0	/experiments/Knapen_AOT/AOT_stimuli/pictures/1561_fw.png	348.9908607006073	0.6545042991638184
258	289.98316383361816	response	0	j		256.0	/experiments/Knapen_AOT/AOT_stimuli/pictures/1561_fw.png	349.6326870918274	
259	289.9958417415619	picture	0		81	257.0	/experiments/Knapen_AOT/AOT_stimuli/pictures/0620_fw.png	349.6453649997711	0.6805770397186279
259	290.66655230522156	response	0	j		257.0	/experiments/Knapen_AOT/AOT_stimuli/pictures/0620_fw.png	350.3160755634308	
260	290.6764187812805	picture	0		105	258.0	/experiments/Knapen_AOT/AOT_stimuli/pictures/0431_fw.png	350.32594203948975	0.881953239440918
260	291.54181027412415	response	0	k		258.0	/experiments/Knapen_AOT/AOT_stimuli/pictures/0431_fw.png	351.1913335323334	
261	291.55837202072144	picture	0		129	259.0	/experiments/Knapen_AOT/AOT_stimuli/pictures/1624_fw.png	351.20789527893066	1.0829730033874512
261	292.6250514984131	response	0	k		259.0	/experiments/Knapen_AOT/AOT_stimuli/pictures/1624_fw.png	352.2745747566223	
262	292.6413450241089	picture	0		139	260.0	/experiments/Knapen_AOT/AOT_stimuli/pictures/0153_fw.png	352.2908682823181	1.1670300960540771
262	293.79182529449463	response	0	k		260.0	/experiments/Knapen_AOT/AOT_stimuli/pictures/0153_fw.png	353.44134855270386	
263	293.80837512016296	picture	0		181	261.0	/experiments/Knapen_AOT/AOT_stimuli/pictures/2168_fw.png	353.4578983783722	1.5163612365722656
263	295.30851888656616	response	0	k		261.0	/experiments/Knapen_AOT/AOT_stimuli/pictures/2168_fw.png	354.9580421447754	
264	295.32473635673523	picture	0		111	262.0	/experiments/Knapen_AOT/AOT_stimuli/pictures/0763_fw.png	354.97425961494446	0.933337926864624
264	296.2416157722473	response	0	k		262.0	/experiments/Knapen_AOT/AOT_stimuli/pictures/0763_fw.png	355.89113903045654	
265	296.25807428359985	picture	0		114	263.0	/experiments/Knapen_AOT/AOT_stimuli/pictures/1550_fw.png	355.9075975418091	0.9583165645599365
265	297.2002463340759	response	0	k		263.0	/experiments/Knapen_AOT/AOT_stimuli/pictures/1550_fw.png	356.84976959228516	
266	297.2163908481598	picture	0		119	264.0	/experiments/Knapen_AOT/AOT_stimuli/pictures/0782_fw.png	356.865914106369	1.0000319480895996
266	298.1999912261963	response	0	k		264.0	/experiments/Knapen_AOT/AOT_stimuli/pictures/0782_fw.png	357.8495144844055	
267	298.2164227962494	picture	0		168	265.0	/experiments/Knapen_AOT/AOT_stimuli/pictures/0753_fw.png	357.8659460544586	1.408341646194458
267	299.6083438396454	response	0	k		265.0	/experiments/Knapen_AOT/AOT_stimuli/pictures/0753_fw.png	359.2578670978546	
268	299.62476444244385	picture	0		75	266.0	/experiments/Knapen_AOT/AOT_stimuli/pictures/0481_fw.png	359.2742877006531	0.6333329677581787
268	300.24162912368774	response	0	j		266.0	/experiments/Knapen_AOT/AOT_stimuli/pictures/0481_fw.png	359.891152381897	
269	300.258097410202	picture	0		413	267.0	/experiments/Knapen_AOT/AOT_stimuli/pictures/1523_fw.png	359.90762066841125	3.4500553607940674
269	303.6918909549713	response	0	k		267.0	/experiments/Knapen_AOT/AOT_stimuli/pictures/1523_fw.png	363.34141421318054	
270	303.7081527709961	picture	0		94	268.0	/experiments/Knapen_AOT/AOT_stimuli/pictures/1647_fw.png	363.3576760292053	0.7916958332061768
270	304.4833884239197	response	0	j		268.0	/experiments/Knapen_AOT/AOT_stimuli/pictures/1647_fw.png	364.1329116821289	
271	304.49984860420227	picture	0		150	269.0	/experiments/Knapen_AOT/AOT_stimuli/pictures/0145_fw.png	364.1493718624115	1.2583355903625488
271	305.7417240142822	response	0	k		269.0	/experiments/Knapen_AOT/AOT_stimuli/pictures/0145_fw.png	365.39124727249146	
272	305.7581841945648	picture	0		175	270.0	/experiments/Knapen_AOT/AOT_stimuli/pictures/1593_fw.png	365.40770745277405	1.4666924476623535
272	307.2083902359009	response	0	j		270.0	/experiments/Knapen_AOT/AOT_stimuli/pictures/1593_fw.png	366.8579134941101	
273	307.2248766422272	picture	0		93	271.0	/experiments/Knapen_AOT/AOT_stimuli/pictures/0557_fw.png	366.8743999004364	0.7780296802520752
273	307.991712808609	response	0	j		271.0	/experiments/Knapen_AOT/AOT_stimuli/pictures/0557_fw.png	367.64123606681824	
274	308.00290632247925	picture	0		95	272.0	/experiments/Knapen_AOT/AOT_stimuli/pictures/1050_fw.png	367.6524295806885	0.7916901111602783
274	308.7833812236786	response	0	k		272.0	/experiments/Knapen_AOT/AOT_stimuli/pictures/1050_fw.png	368.4329044818878	
275	308.7945964336395	picture	0		73	273.0	/experiments/Knapen_AOT/AOT_stimuli/pictures/1480_fw.png	368.44411969184875	0.6136155128479004
275	309.39175033569336	response	0	j		273.0	/experiments/Knapen_AOT/AOT_stimuli/pictures/1480_fw.png	369.0412735939026	
276	309.4082119464874	picture	0		86	274.0	/experiments/Knapen_AOT/AOT_stimuli/pictures/0345_fw.png	369.05773520469666	0.7250337600708008
276	310.11681270599365	response	0	j		274.0	/experiments/Knapen_AOT/AOT_stimuli/pictures/0345_fw.png	369.7663359642029	
277	310.1332457065582	picture	0		102	275.0	/experiments/Knapen_AOT/AOT_stimuli/pictures/1722_fw.png	369.78276896476746	0.8558425903320312
277	310.97508454322815	response	0	k		275.0	/experiments/Knapen_AOT/AOT_stimuli/pictures/1722_fw.png	370.6246078014374	
278	310.98908829689026	picture	0		138	276.0	/experiments/Knapen_AOT/AOT_stimuli/pictures/1547_fw.png	370.6386115550995	1.1607999801635742
278	312.1334488391876	response	0	k		276.0	/experiments/Knapen_AOT/AOT_stimuli/pictures/1547_fw.png	371.78297209739685	
279	312.14988827705383	picture	0		79	277.0	/experiments/Knapen_AOT/AOT_stimuli/pictures/0725_fw.png	371.79941153526306	0.6666922569274902
279	312.80014300346375	response	0	j		277.0	/experiments/Knapen_AOT/AOT_stimuli/pictures/0725_fw.png	372.449666261673	
280	312.8165805339813	picture	0		96	278.0	/experiments/Knapen_AOT/AOT_stimuli/pictures/1939_fw.png	372.46610379219055	0.8083677291870117
280	313.60843110084534	response	0	k		278.0	/experiments/Knapen_AOT/AOT_stimuli/pictures/1939_fw.png	373.25795435905457	
281	313.62494826316833	picture	0		94	279.0	/experiments/Knapen_AOT/AOT_stimuli/pictures/0165_fw.png	373.27447152137756	0.7877347469329834
281	314.40010952949524	response	0	k		279.0	/experiments/Knapen_AOT/AOT_stimuli/pictures/0165_fw.png	374.04963278770447	
282	314.4126830101013	picture	0		109	280.0	/experiments/Knapen_AOT/AOT_stimuli/pictures/0997_fw.png	374.06220626831055	0.9166336059570312
282	315.3167943954468	response	0	k		280.0	/experiments/Knapen_AOT/AOT_stimuli/pictures/0997_fw.png	374.966317653656	
283	315.32931661605835	picture	0		87	281.0	/experiments/Knapen_AOT/AOT_stimuli/pictures/0444_fw.png	374.9788398742676	0.72225022315979
283	316.04181814193726	response	0	j		281.0	/experiments/Knapen_AOT/AOT_stimuli/pictures/0444_fw.png	375.6913414001465	
284	316.05156683921814	picture	0		82	282.0	/experiments/Knapen_AOT/AOT_stimuli/pictures/2151_fw.png	375.70109009742737	0.6875019073486328
284	316.72518277168274	response	0	j		282.0	/experiments/Knapen_AOT/AOT_stimuli/pictures/2151_fw.png	376.37470602989197	
285	316.7390687465668	picture	0		108	283.0	/experiments/Knapen_AOT/AOT_stimuli/pictures/0447_fw.png	376.388592004776	0.9109010696411133
285	317.6337342262268	response	0	k		283.0	/experiments/Knapen_AOT/AOT_stimuli/pictures/0447_fw.png	377.28325748443604	
286	317.6499698162079	picture	0		104	284.0	/experiments/Knapen_AOT/AOT_stimuli/pictures/0436_fw.png	377.2994930744171	0.8750066757202148
286	318.50098752975464	response	0	k		284.0	/experiments/Knapen_AOT/AOT_stimuli/pictures/0436_fw.png	378.15051078796387	
287	318.5249764919281	picture	0		88	285.0	/experiments/Knapen_AOT/AOT_stimuli/pictures/1479_fw.png	378.17449975013733	0.7417290210723877
287	319.2501800060272	response	0	k		285.0	/experiments/Knapen_AOT/AOT_stimuli/pictures/1479_fw.png	378.89970326423645	
288	319.2667055130005	picture	0		113	286.0	/experiments/Knapen_AOT/AOT_stimuli/pictures/0267_fw.png	378.9162287712097	0.9499659538269043
288	320.2002546787262	response	0	k		286.0	/experiments/Knapen_AOT/AOT_stimuli/pictures/0267_fw.png	379.8497779369354	
289	320.2166714668274	picture	0		94	287.0	/experiments/Knapen_AOT/AOT_stimuli/pictures/0058_fw.png	379.8661947250366	0.7916848659515381
289	320.9919283390045	response	0	k		287.0	/experiments/Knapen_AOT/AOT_stimuli/pictures/0058_fw.png	380.64145159721375	
290	321.00835633277893	picture	0		102	288.0	/experiments/Knapen_AOT/AOT_stimuli/pictures/0260_fw.png	380.65787959098816	0.8583309650421143
290	321.850399017334	response	0	j		288.0	/experiments/Knapen_AOT/AOT_stimuli/pictures/0260_fw.png	381.4999222755432	
291	321.86668729782104	picture	0		140	289.0	/experiments/Knapen_AOT/AOT_stimuli/pictures/1576_fw.png	381.5162105560303	1.17503023147583
291	323.0252380371094	response	0	j		289.0	/experiments/Knapen_AOT/AOT_stimuli/pictures/1576_fw.png	382.6747612953186	
292	323.0417175292969	picture	0		83	290.0	/experiments/Knapen_AOT/AOT_stimuli/pictures/0950_fw.png	382.6912407875061	0.7000255584716797
292	323.7254276275635	response	0	j		290.0	/experiments/Knapen_AOT/AOT_stimuli/pictures/0950_fw.png	383.3749508857727	
293	323.74174308776855	picture	0		134	291.0	/experiments/Knapen_AOT/AOT_stimuli/pictures/0629_fw.png	383.3912663459778	1.1249852180480957
293	324.85026121139526	response	0	k		291.0	/experiments/Knapen_AOT/AOT_stimuli/pictures/0629_fw.png	384.4997844696045	
294	324.86672830581665	picture	0		131	292.0	/experiments/Knapen_AOT/AOT_stimuli/pictures/0841_fw.png	384.5162515640259	1.1000027656555176
294	325.95026779174805	response	0	k		292.0	/experiments/Knapen_AOT/AOT_stimuli/pictures/0841_fw.png	385.5997910499573	
295	325.96673107147217	picture	0		144	293.0	/experiments/Knapen_AOT/AOT_stimuli/pictures/1674_fw.png	385.6162543296814	1.2029454708099365
295	327.1586196422577	response	0	j		293.0	/experiments/Knapen_AOT/AOT_stimuli/pictures/1674_fw.png	386.8081429004669	
296	327.1696765422821	picture	0		109	294.0	/experiments/Knapen_AOT/AOT_stimuli/pictures/0651_fw.png	386.81919980049133	0.9138069152832031
296	328.06699323654175	response	0	k		294.0	/experiments/Knapen_AOT/AOT_stimuli/pictures/0651_fw.png	387.716516494751	
297	328.0834834575653	picture	0		140	295.0	/experiments/Knapen_AOT/AOT_stimuli/pictures/1382_fw.png	387.73300671577454	1.1695635318756104
297	329.24202966690063	response	0	k		295.0	/experiments/Knapen_AOT/AOT_stimuli/pictures/1382_fw.png	388.89155292510986	
298	329.2530469894409	picture	0		112	296.0	/experiments/Knapen_AOT/AOT_stimuli/pictures/1515_fw.png	388.90257024765015	0.9387309551239014
298	330.1755588054657	response	0	k		296.0	/experiments/Knapen_AOT/AOT_stimuli/pictures/1515_fw.png	389.8250820636749	
299	330.1917779445648	picture	0		137	297.0	/experiments/Knapen_AOT/AOT_stimuli/pictures/0995_fw.png	389.84130120277405	1.1500303745269775
299	331.32551074028015	response	0	j		297.0	/experiments/Knapen_AOT/AOT_stimuli/pictures/0995_fw.png	390.9750339984894	
300	331.3418083190918	picture	0		91	298.0	/experiments/Knapen_AOT/AOT_stimuli/pictures/0334_fw.png	390.991331577301	0.7666683197021484
300	332.08458614349365	response	0	j		298.0	/experiments/Knapen_AOT/AOT_stimuli/pictures/0334_fw.png	391.7341094017029	
301	332.10847663879395	picture	0		88	299.0	/experiments/Knapen_AOT/AOT_stimuli/pictures/1630_fw.png	391.7579998970032	0.7417621612548828
301	332.8338038921356	response	0	k		299.0	/experiments/Knapen_AOT/AOT_stimuli/pictures/1630_fw.png	392.48332715034485	
302	332.8502388000488	picture	0		90	300.0	/experiments/Knapen_AOT/AOT_stimuli/pictures/1468_fw.png	392.49976205825806	0.7501058578491211
302	333.59200382232666	response	0	k		300.0	/experiments/Knapen_AOT/AOT_stimuli/pictures/1468_fw.png	393.2415270805359	
303	333.60034465789795	picture	0		86	301.0	/experiments/Knapen_AOT/AOT_stimuli/pictures/0277_fw.png	393.2498679161072	0.7248308658599854
303	334.3087558746338	response	0	k		301.0	/experiments/Knapen_AOT/AOT_stimuli/pictures/0277_fw.png	393.958279132843	
304	334.32517552375793	picture	0		111	302.0	/experiments/Knapen_AOT/AOT_stimuli/pictures/0632_fw.png	393.97469878196716	0.933342695236206
304	335.24203753471375	response	0	k		302.0	/experiments/Knapen_AOT/AOT_stimuli/pictures/0632_fw.png	394.891560792923	
305	335.25851821899414	picture	0		104	303.0	/experiments/Knapen_AOT/AOT_stimuli/pictures/0526_fw.png	394.90804147720337	0.8749992847442627
305	336.11709213256836	response	0	k		303.0	/experiments/Knapen_AOT/AOT_stimuli/pictures/0526_fw.png	395.7666153907776	
306	336.1335175037384	picture	0		75	304.0	/experiments/Knapen_AOT/AOT_stimuli/pictures/1297_fw.png	395.78304076194763	0.6333677768707275
306	336.7504093647003	response	0	j		304.0	/experiments/Knapen_AOT/AOT_stimuli/pictures/1297_fw.png	396.39993262290955	
307	336.76688528060913	picture	0		174	305.0	/experiments/Knapen_AOT/AOT_stimuli/pictures/1413_fw.png	396.41640853881836	1.4583914279937744
307	338.20876383781433	response	0	k		305.0	/experiments/Knapen_AOT/AOT_stimuli/pictures/1413_fw.png	397.85828709602356	
308	338.2252767086029	picture	0		138	306.0	/experiments/Knapen_AOT/AOT_stimuli/pictures/0909_fw.png	397.87479996681213	1.1582720279693604
308	339.3670973777771	response	0	j		306.0	/experiments/Knapen_AOT/AOT_stimuli/pictures/0909_fw.png	399.0166206359863	
309	339.38354873657227	picture	0		285	307.0	/experiments/Knapen_AOT/AOT_stimuli/pictures/1392_fw.png	399.0330719947815	2.3833956718444824
309	341.75044679641724	response	0	k		307.0	/experiments/Knapen_AOT/AOT_stimuli/pictures/1392_fw.png	401.39997005462646	
310	341.76694440841675	picture	0		97	308.0	/experiments/Knapen_AOT/AOT_stimuli/pictures/0244_fw.png	401.416467666626	0.8125925064086914
310	342.56713008880615	response	0	k		308.0	/experiments/Knapen_AOT/AOT_stimuli/pictures/0244_fw.png	402.2166533470154	
311	342.57953691482544	picture	0		91	309.0	/experiments/Knapen_AOT/AOT_stimuli/pictures/1037_fw.png	402.22906017303467	0.7624096870422363
311	343.32553601264954	response	0	k		309.0	/experiments/Knapen_AOT/AOT_stimuli/pictures/1037_fw.png	402.97505927085876	
312	343.3419466018677	picture	0		362	310.0	/experiments/Knapen_AOT/AOT_stimuli/pictures/0207_fw.png	402.9914698600769	3.0250680446624756
312	346.3505473136902	response	0	k		310.0	/experiments/Knapen_AOT/AOT_stimuli/pictures/0207_fw.png	406.0000705718994	
313	346.36701464653015	picture	0		160	311.0	/experiments/Knapen_AOT/AOT_stimuli/pictures/1377_fw.png	406.0165379047394	1.3416690826416016
313	347.68473982810974	response	0	k		311.0	/experiments/Knapen_AOT/AOT_stimuli/pictures/1377_fw.png	407.33426308631897	
314	347.70868372917175	picture	0		88	312.0	/experiments/Knapen_AOT/AOT_stimuli/pictures/0401_fw.png	407.358206987381	0.741671085357666
314	348.4343276023865	response	0	j		312.0	/experiments/Knapen_AOT/AOT_stimuli/pictures/0401_fw.png	408.0838508605957	
315	348.4503548145294	picture	0		124	313.0	/experiments/Knapen_AOT/AOT_stimuli/pictures/0399_fw.png	408.09987807273865	1.041696548461914
315	349.4757363796234	response	0	j		313.0	/experiments/Knapen_AOT/AOT_stimuli/pictures/0399_fw.png	409.12525963783264	
316	349.49205136299133	picture	0		113	314.0	/experiments/Knapen_AOT/AOT_stimuli/pictures/1483_fw.png	409.14157462120056	0.9499738216400146
316	350.42563557624817	response	0	k		314.0	/experiments/Knapen_AOT/AOT_stimuli/pictures/1483_fw.png	410.0751588344574	
317	350.44202518463135	picture	0		161	315.0	/experiments/Knapen_AOT/AOT_stimuli/pictures/1215_fw.png	410.0915484428406	1.3500208854675293
317	351.7755997180939	response	0	k		315.0	/experiments/Knapen_AOT/AOT_stimuli/pictures/1215_fw.png	411.4251229763031	
318	351.7920460700989	picture	0		87	316.0	/experiments/Knapen_AOT/AOT_stimuli/pictures/0882_fw.png	411.4415693283081	0.7333552837371826
318	352.5089294910431	response	0	j		316.0	/experiments/Knapen_AOT/AOT_stimuli/pictures/0882_fw.png	412.1584527492523	
319	352.52540135383606	picture	0		82	317.0	/experiments/Knapen_AOT/AOT_stimuli/pictures/0570_fw.png	412.1749246120453	0.6916661262512207
319	353.20063757896423	response	0	j		317.0	/experiments/Knapen_AOT/AOT_stimuli/pictures/0570_fw.png	412.85016083717346	
320	353.2170674800873	picture	0		158	318.0	/experiments/Knapen_AOT/AOT_stimuli/pictures/0193_fw.png	412.8665907382965	1.3250110149383545
320	354.52559208869934	response	0	j		318.0	/experiments/Knapen_AOT/AOT_stimuli/pictures/0193_fw.png	414.17511534690857	
321	354.54207849502563	picture	0		72	319.0	/experiments/Knapen_AOT/AOT_stimuli/pictures/0018_fw.png	414.19160175323486	0.6083402633666992
321	355.13396096229553	response	0	j		319.0	/experiments/Knapen_AOT/AOT_stimuli/pictures/0018_fw.png	414.78348422050476	
322	355.15041875839233	picture	0		216	320.0	/experiments/Knapen_AOT/AOT_stimuli/pictures/0612_fw.png	414.79994201660156	1.808379888534546
322	356.9423096179962	response	0	j		320.0	/experiments/Knapen_AOT/AOT_stimuli/pictures/0612_fw.png	416.59183287620544	
323	356.9587986469269	picture	0		370	321.0	/experiments/Knapen_AOT/AOT_stimuli/pictures/1323_fw.png	416.6083219051361	3.091705560684204
323	360.0339992046356	response	0	k		321.0	/experiments/Knapen_AOT/AOT_stimuli/pictures/1323_fw.png	419.68352246284485	
324	360.0505042076111	picture	0		81	322.0	/experiments/Knapen_AOT/AOT_stimuli/pictures/1341_fw.png	419.7000274658203	0.6833076477050781
324	360.71736192703247	response	0	k		322.0	/experiments/Knapen_AOT/AOT_stimuli/pictures/1341_fw.png	420.3668851852417	
325	360.73381185531616	picture	0		113	323.0	/experiments/Knapen_AOT/AOT_stimuli/pictures/1154_fw.png	420.3833351135254	0.9500336647033691
325	361.667361497879	response	0	j		323.0	/experiments/Knapen_AOT/AOT_stimuli/pictures/1154_fw.png	421.31688475608826	
326	361.68384552001953	picture	0		79	324.0	/experiments/Knapen_AOT/AOT_stimuli/pictures/1198_fw.png	421.33336877822876	0.6666884422302246
326	362.33411264419556	response	0	j		324.0	/experiments/Knapen_AOT/AOT_stimuli/pictures/1198_fw.png	421.9836359024048	
327	362.35053396224976	picture	0		131	325.0	/experiments/Knapen_AOT/AOT_stimuli/pictures/1620_fw.png	422.000057220459	1.099998950958252
327	363.4340260028839	response	0	j		325.0	/experiments/Knapen_AOT/AOT_stimuli/pictures/1620_fw.png	423.08354926109314	
328	363.450532913208	picture	0		192	326.0	/experiments/Knapen_AOT/AOT_stimuli/pictures/1747_fw.png	423.10005617141724	1.6083407402038574
328	365.04266262054443	response	0	j		326.0	/experiments/Knapen_AOT/AOT_stimuli/pictures/1747_fw.png	424.69218587875366	
329	365.05887365341187	picture	0		120	327.0	/experiments/Knapen_AOT/AOT_stimuli/pictures/0222_fw.png	424.7083969116211	1.0083792209625244
329	366.0506544113159	response	0	k		327.0	/experiments/Knapen_AOT/AOT_stimuli/pictures/0222_fw.png	425.70017766952515	
330	366.0672528743744	picture	0		127	328.0	/experiments/Knapen_AOT/AOT_stimuli/pictures/0136_fw.png	425.7167761325836	1.0666651725769043
330	367.1175048351288	response	0	k		328.0	/experiments/Knapen_AOT/AOT_stimuli/pictures/0136_fw.png	426.767028093338	
331	367.1339180469513	picture	0		354	329.0	/experiments/Knapen_AOT/AOT_stimuli/pictures/1963_fw.png	426.7834413051605	2.958376407623291
331	370.07582688331604	response	0	j		329.0	/experiments/Knapen_AOT/AOT_stimuli/pictures/1963_fw.png	429.72535014152527	
332	370.0922944545746	picture	0		114	330.0	/experiments/Knapen_AOT/AOT_stimuli/pictures/1660_fw.png	429.7418177127838	0.9583127498626709
332	371.0341944694519	response	0	k		330.0	/experiments/Knapen_AOT/AOT_stimuli/pictures/1660_fw.png	430.68371772766113	
333	371.05060720443726	picture	0		115	331.0	/experiments/Knapen_AOT/AOT_stimuli/pictures/0856_fw.png	430.7001304626465	0.9666769504547119
333	372.00109124183655	response	0	k		331.0	/experiments/Knapen_AOT/AOT_stimuli/pictures/0856_fw.png	431.6506145000458	
334	372.01728415489197	picture	0		160	332.0	/experiments/Knapen_AOT/AOT_stimuli/pictures/1900_fw.png	431.6668074131012	1.3417503833770752
334	373.34254217147827	response	0	k		332.0	/experiments/Knapen_AOT/AOT_stimuli/pictures/1900_fw.png	432.9920654296875	
335	373.35903453826904	picture	0		109	333.0	/experiments/Knapen_AOT/AOT_stimuli/pictures/1614_fw.png	433.00855779647827	0.9166202545166016
335	374.25914788246155	response	0	j		333.0	/experiments/Knapen_AOT/AOT_stimuli/pictures/1614_fw.png	433.9086711406708	
336	374.27565479278564	picture	0		96	334.0	/experiments/Knapen_AOT/AOT_stimuli/pictures/0338_fw.png	433.9251780509949	0.8083400726318359
336	375.067587852478	response	0	k		334.0	/experiments/Knapen_AOT/AOT_stimuli/pictures/0338_fw.png	434.71711111068726	
337	375.0839948654175	picture	0		86	335.0	/experiments/Knapen_AOT/AOT_stimuli/pictures/0278_fw.png	434.7335181236267	0.7249963283538818
337	375.7925283908844	response	0	k		335.0	/experiments/Knapen_AOT/AOT_stimuli/pictures/0278_fw.png	435.4420516490936	
338	375.80899119377136	picture	0		108	336.0	/experiments/Knapen_AOT/AOT_stimuli/pictures/1672_fw.png	435.4585144519806	0.9026782512664795
338	376.70095562934875	response	0	k		336.0	/experiments/Knapen_AOT/AOT_stimuli/pictures/1672_fw.png	436.350478887558	
339	376.71166944503784	picture	0		106	337.0	/experiments/Knapen_AOT/AOT_stimuli/pictures/1874_fw.png	436.36119270324707	0.88901686668396
339	377.5842263698578	response	0	k		337.0	/experiments/Knapen_AOT/AOT_stimuli/pictures/1874_fw.png	437.233749628067	
340	377.6006863117218	picture	0		104	338.0	/experiments/Knapen_AOT/AOT_stimuli/pictures/0788_fw.png	437.25020956993103	0.8679234981536865
340	378.45925211906433	response	0	j		338.0	/experiments/Knapen_AOT/AOT_stimuli/pictures/0788_fw.png	438.10877537727356	
341	378.4686098098755	picture	0		263	339.0	/experiments/Knapen_AOT/AOT_stimuli/pictures/1538_fw.png	438.1181330680847	2.198791742324829
341	380.6510465145111	response	0	k		339.0	/experiments/Knapen_AOT/AOT_stimuli/pictures/1538_fw.png	440.30056977272034	
342	380.6674015522003	picture	0		83	340.0	/experiments/Knapen_AOT/AOT_stimuli/pictures/0086_fw.png	440.31692481040955	0.7000091075897217
342	381.35108280181885	response	0	j		340.0	/experiments/Knapen_AOT/AOT_stimuli/pictures/0086_fw.png	441.0006060600281	
343	381.36741065979004	picture	0		99	341.0	/experiments/Knapen_AOT/AOT_stimuli/pictures/1456_fw.png	441.01693391799927	0.8333265781402588
343	382.1842792034149	response	0	k		341.0	/experiments/Knapen_AOT/AOT_stimuli/pictures/1456_fw.png	441.83380246162415	
344	382.2007372379303	picture	0		77	342.0	/experiments/Knapen_AOT/AOT_stimuli/pictures/2078_fw.png	441.8502604961395	0.6499981880187988
344	382.8343183994293	response	0	j		342.0	/experiments/Knapen_AOT/AOT_stimuli/pictures/2078_fw.png	442.48384165763855	
345	382.8507354259491	picture	0		124	343.0	/experiments/Knapen_AOT/AOT_stimuli/pictures/0405_fw.png	442.5002586841583	1.0416767597198486
345	383.8759379386902	response	0	k		343.0	/experiments/Knapen_AOT/AOT_stimuli/pictures/0405_fw.png	443.5254611968994	
346	383.89241218566895	picture	0		159	344.0	/experiments/Knapen_AOT/AOT_stimuli/pictures/0574_fw.png	443.5419354438782	1.3333799839019775
346	385.2095127105713	response	0	k		344.0	/experiments/Knapen_AOT/AOT_stimuli/pictures/0574_fw.png	444.8590359687805	
347	385.2257921695709	picture	0		105	345.0	/experiments/Knapen_AOT/AOT_stimuli/pictures/1996_fw.png	444.87531542778015	0.8833308219909668
347	386.09271788597107	response	0	j		345.0	/experiments/Knapen_AOT/AOT_stimuli/pictures/1996_fw.png	445.7422411441803	
348	386.1091229915619	picture	0		97	346.0	/experiments/Knapen_AOT/AOT_stimuli/pictures/2045_fw.png	445.7586462497711	0.8166701793670654
348	386.9093554019928	response	0	k		346.0	/experiments/Knapen_AOT/AOT_stimuli/pictures/2045_fw.png	446.558878660202	
349	386.92579317092896	picture	0		122	347.0	/experiments/Knapen_AOT/AOT_stimuli/pictures/0294_fw.png	446.5753164291382	1.0250191688537598
349	387.9343421459198	response	0	k		347.0	/experiments/Knapen_AOT/AOT_stimuli/pictures/0294_fw.png	447.583865404129	
350	387.9508123397827	picture	0		109	348.0	/experiments/Knapen_AOT/AOT_stimuli/pictures/0141_fw.png	447.60033559799194	0.9166696071624756
350	388.8510160446167	response	0	k		348.0	/experiments/Knapen_AOT/AOT_stimuli/pictures/0141_fw.png	448.5005393028259	
351	388.8674819469452	picture	0		109	349.0	/experiments/Knapen_AOT/AOT_stimuli/pictures/0747_fw.png	448.5170052051544	0.9167006015777588
351	389.7677617073059	response	0	k		349.0	/experiments/Knapen_AOT/AOT_stimuli/pictures/0747_fw.png	449.41728496551514	
352	389.78418254852295	picture	0		78	350.0	/experiments/Knapen_AOT/AOT_stimuli/pictures/0329_fw.png	449.4337058067322	0.658339262008667
352	390.42727303504944	response	0	j		350.0	/experiments/Knapen_AOT/AOT_stimuli/pictures/0329_fw.png	450.07679629325867	
353	390.4425218105316	picture	0		320	351.0	/experiments/Knapen_AOT/AOT_stimuli/pictures/0238_fw.png	450.09204506874084	2.6750259399414062
353	393.10107684135437	response	0	j		351.0	/experiments/Knapen_AOT/AOT_stimuli/pictures/0238_fw.png	452.7506000995636	
354	393.117547750473	picture	0		84	352.0	/experiments/Knapen_AOT/AOT_stimuli/pictures/1134_fw.png	452.76707100868225	0.705359697341919
354	393.80940556526184	response	0	k		352.0	/experiments/Knapen_AOT/AOT_stimuli/pictures/1134_fw.png	453.45892882347107	
355	393.82290744781494	picture	0		150	353.0	/experiments/Knapen_AOT/AOT_stimuli/pictures/1200_fw.png	453.47243070602417	1.2613210678100586
355	395.06775665283203	response	0	k		353.0	/experiments/Knapen_AOT/AOT_stimuli/pictures/1200_fw.png	454.71727991104126	
356	395.084228515625	picture	0		189	354.0	/experiments/Knapen_AOT/AOT_stimuli/pictures/0112_fw.png	454.73375177383423	1.5833628177642822
356	396.65112805366516	response	0	k		354.0	/experiments/Knapen_AOT/AOT_stimuli/pictures/0112_fw.png	456.3006513118744	
357	396.6675913333893	picture	0		614	355.0	/experiments/Knapen_AOT/AOT_stimuli/pictures/1781_fw.png	456.3171145915985	5.125063419342041
357	401.77621603012085	response	0	j		355.0	/experiments/Knapen_AOT/AOT_stimuli/pictures/1781_fw.png	461.4257392883301	
358	401.7926547527313	picture	0		111	356.0	/experiments/Knapen_AOT/AOT_stimuli/pictures/0265_fw.png	461.44217801094055	0.9333388805389404
358	402.7096836566925	response	0	j		356.0	/experiments/Knapen_AOT/AOT_stimuli/pictures/0265_fw.png	462.35920691490173	
359	402.72599363327026	picture	0		180	357.0	/experiments/Knapen_AOT/AOT_stimuli/pictures/0923_fw.png	462.3755168914795	1.5083720684051514
359	404.218891620636	response	0	k		357.0	/experiments/Knapen_AOT/AOT_stimuli/pictures/0923_fw.png	463.8684148788452	
360	404.2343657016754	picture	0		101	358.0	/experiments/Knapen_AOT/AOT_stimuli/pictures/0068_fw.png	463.88388895988464	0.8499855995178223
360	405.06088399887085	response	0	k		358.0	/experiments/Knapen_AOT/AOT_stimuli/pictures/0068_fw.png	464.7104072570801	
361	405.08435130119324	picture	0		72	359.0	/experiments/Knapen_AOT/AOT_stimuli/pictures/1140_fw.png	464.73387455940247	0.608393669128418
361	405.6690409183502	response	0	j		359.0	/experiments/Knapen_AOT/AOT_stimuli/pictures/1140_fw.png	465.31856417655945	
362	405.69274497032166	stim	0		288			465.3422682285309	2.4197752475738525
362	406.54290103912354	response	0	j				466.19242429733276	
362	408.0825352668762	response	0	space				467.73205852508545	
