trial_nr	onset	event_type	phase	response	nr_frames	picture_index	picture_file	onset_abs	duration
0	0.1666092872619629	stim	0		474			94.73259854316711	3.9924418926239014
0	2.0679562091827393	response	0	j				96.63394546508789	
0	4.139294147491455	response	0	space				98.7052834033966	
2	4.159051179885864	picture	0		127	0.0	/experiments/Knapen_AOT/AOT_stimuli/pictures/1237_fw.png	98.72504043579102	1.0833067893981934
2	5.222655773162842	response	0	j		0.0	/experiments/Knapen_AOT/AOT_stimuli/pictures/1237_fw.png	99.788645029068	
3	5.242357969284058	picture	0		73	1.0	/experiments/Knapen_AOT/AOT_stimuli/pictures/2133_fw.png	99.80834722518921	0.6218585968017578
3	5.850212335586548	response	0	j		1.0	/experiments/Knapen_AOT/AOT_stimuli/pictures/2133_fw.png	100.4162015914917	
4	5.864216566085815	picture	0		108	2.0	/experiments/Knapen_AOT/AOT_stimuli/pictures/0411_fw.png	100.43020582199097	0.910815954208374
4	6.758517265319824	response	0	j		2.0	/experiments/Knapen_AOT/AOT_stimuli/pictures/0411_fw.png	101.32450652122498	
5	6.7750325202941895	picture	0		173	3.0	/experiments/Knapen_AOT/AOT_stimuli/pictures/1266_fw.png	101.34102177619934	1.4500133991241455
5	8.208980560302734	response	0	j		3.0	/experiments/Knapen_AOT/AOT_stimuli/pictures/1266_fw.png	102.77496981620789	
6	8.225045919418335	picture	0		195	4.0	/experiments/Knapen_AOT/AOT_stimuli/pictures/0818_fw.png	102.79103517532349	1.6333401203155518
6	9.841967821121216	response	0	k		4.0	/experiments/Knapen_AOT/AOT_stimuli/pictures/0818_fw.png	104.40795707702637	
7	9.858386039733887	picture	0		108	5.0	/experiments/Knapen_AOT/AOT_stimuli/pictures/0410_fw.png	104.42437529563904	0.9016742706298828
7	10.750317811965942	response	0	k		5.0	/experiments/Knapen_AOT/AOT_stimuli/pictures/0410_fw.png	105.3163070678711	
8	10.76006031036377	picture	0		89	6.0	/experiments/Knapen_AOT/AOT_stimuli/pictures/1522_fw.png	105.32604956626892	0.7430894374847412
8	11.491973400115967	response	0	j		6.0	/experiments/Knapen_AOT/AOT_stimuli/pictures/1522_fw.png	106.05796265602112	
9	11.50314974784851	picture	0		118	7.0	/experiments/Knapen_AOT/AOT_stimuli/pictures/0327_fw.png	106.06913900375366	0.9885950088500977
9	12.475370645523071	response	0	k		7.0	/experiments/Knapen_AOT/AOT_stimuli/pictures/0327_fw.png	107.04135990142822	
10	12.491744756698608	picture	0		78	8.0	/experiments/Knapen_AOT/AOT_stimuli/pictures/0575_fw.png	107.05773401260376	0.6502797603607178
10	13.13360071182251	response	0	j		8.0	/experiments/Knapen_AOT/AOT_stimuli/pictures/0575_fw.png	107.69958996772766	
11	13.142024517059326	picture	0		109	9.0	/experiments/Knapen_AOT/AOT_stimuli/pictures/0832_fw.png	107.70801377296448	0.9097414016723633
11	14.04199767112732	response	0	k		9.0	/experiments/Knapen_AOT/AOT_stimuli/pictures/0832_fw.png	108.60798692703247	
12	14.05176591873169	picture	0		124	10.0	/experiments/Knapen_AOT/AOT_stimuli/pictures/2079_fw.png	108.61775517463684	1.0400261878967285
12	15.075363397598267	response	0	k		10.0	/experiments/Knapen_AOT/AOT_stimuli/pictures/2079_fw.png	109.64135265350342	
13	15.091792106628418	picture	0		84	11.0	/experiments/Knapen_AOT/AOT_stimuli/pictures/0261_fw.png	109.65778136253357	0.7030544281005859
13	15.777154207229614	response	0	j		11.0	/experiments/Knapen_AOT/AOT_stimuli/pictures/0261_fw.png	110.34314346313477	
14	15.794846534729004	picture	0		180	12.0	/experiments/Knapen_AOT/AOT_stimuli/pictures/2039_fw.png	110.36083579063416	1.499997615814209
14	17.283666133880615	response	0	k		12.0	/experiments/Knapen_AOT/AOT_stimuli/pictures/2039_fw.png	111.84965538978577	
15	17.294844150543213	picture	0		109	13.0	/experiments/Knapen_AOT/AOT_stimuli/pictures/0526_fw.png	111.86083340644836	0.9097452163696289
15	18.18472957611084	response	0	k		13.0	/experiments/Knapen_AOT/AOT_stimuli/pictures/0526_fw.png	112.75071883201599	
16	18.204589366912842	picture	0		119	14.0	/experiments/Knapen_AOT/AOT_stimuli/pictures/1907_fw.png	112.770578622818	0.9930551052093506
16	19.183952808380127	response	0	k		14.0	/experiments/Knapen_AOT/AOT_stimuli/pictures/1907_fw.png	113.74994206428528	
17	19.197644472122192	picture	0		102	15.0	/experiments/Knapen_AOT/AOT_stimuli/pictures/0955_fw.png	113.76363372802734	0.8541481494903564
17	20.042099475860596	response	0	j		15.0	/experiments/Knapen_AOT/AOT_stimuli/pictures/0955_fw.png	114.60808873176575	
18	20.05179262161255	picture	0		345	16.0	/experiments/Knapen_AOT/AOT_stimuli/pictures/1024_fw.png	114.6177818775177	2.8750295639038086
18	22.91707444190979	response	0	k		16.0	/experiments/Knapen_AOT/AOT_stimuli/pictures/1024_fw.png	117.48306369781494	
19	22.926822185516357	picture	0		146	17.0	/experiments/Knapen_AOT/AOT_stimuli/pictures/0011_fw.png	117.49281144142151	1.2152762413024902
19	24.133795022964478	response	0	j		17.0	/experiments/Knapen_AOT/AOT_stimuli/pictures/0011_fw.png	118.69978427886963	
20	24.142098426818848	picture	0		110	18.0	/experiments/Knapen_AOT/AOT_stimuli/pictures/0922_fw.png	118.708087682724	0.9166774749755859
20	25.0504629611969	response	0	j		18.0	/experiments/Knapen_AOT/AOT_stimuli/pictures/0922_fw.png	119.61645221710205	
21	25.058775901794434	picture	0		93	19.0	/experiments/Knapen_AOT/AOT_stimuli/pictures/1032_fw.png	119.62476515769958	0.7778031826019287
21	25.825486421585083	response	0	j		19.0	/experiments/Knapen_AOT/AOT_stimuli/pictures/1032_fw.png	120.39147567749023	
22	25.836579084396362	picture	0		142	20.0	/experiments/Knapen_AOT/AOT_stimuli/pictures/1129_fw.png	120.40256834030151	1.188683032989502
22	27.00172257423401	response	0	k		20.0	/experiments/Knapen_AOT/AOT_stimuli/pictures/1129_fw.png	121.56771183013916	
23	27.025262117385864	picture	0		96	21.0	/experiments/Knapen_AOT/AOT_stimuli/pictures/1696_fw.png	121.59125137329102	0.8043849468231201
23	27.817138671875	response	0	k		21.0	/experiments/Knapen_AOT/AOT_stimuli/pictures/1696_fw.png	122.38312792778015	
24	27.829647064208984	picture	0		128	22.0	/experiments/Knapen_AOT/AOT_stimuli/pictures/1517_fw.png	122.39563632011414	1.062469720840454
24	28.883880138397217	response	0	k		22.0	/experiments/Knapen_AOT/AOT_stimuli/pictures/1517_fw.png	123.44986939430237	
25	28.89211678504944	picture	0		129	23.0	/experiments/Knapen_AOT/AOT_stimuli/pictures/0037_fw.png	123.45810604095459	1.0764167308807373
25	29.95895290374756	response	0	j		23.0	/experiments/Knapen_AOT/AOT_stimuli/pictures/0037_fw.png	124.52494215965271	
26	29.968533515930176	picture	0		69	24.0	/experiments/Knapen_AOT/AOT_stimuli/pictures/0336_fw.png	124.53452277183533	0.5764007568359375
26	30.53383469581604	response	0	j		24.0	/experiments/Knapen_AOT/AOT_stimuli/pictures/0336_fw.png	125.09982395172119	
27	30.544934272766113	picture	0		71	25.0	/experiments/Knapen_AOT/AOT_stimuli/pictures/0356_fw.png	125.11092352867126	0.5902738571166992
27	31.125570058822632	response	0	j		25.0	/experiments/Knapen_AOT/AOT_stimuli/pictures/0356_fw.png	125.69155931472778	
28	31.135208129882812	picture	0		116	26.0	/experiments/Knapen_AOT/AOT_stimuli/pictures/1335_fw.png	125.70119738578796	0.9734604358673096
28	32.092161417007446	response	0	j		26.0	/experiments/Knapen_AOT/AOT_stimuli/pictures/1335_fw.png	126.6581506729126	
29	32.10866856575012	picture	0		139	27.0	/experiments/Knapen_AOT/AOT_stimuli/pictures/1754_fw.png	126.67465782165527	1.1584925651550293
29	33.258883237838745	response	0	k		27.0	/experiments/Knapen_AOT/AOT_stimuli/pictures/1754_fw.png	127.8248724937439	
30	33.26716113090515	picture	0		229	28.0	/experiments/Knapen_AOT/AOT_stimuli/pictures/1860_fw.png	127.8331503868103	1.9097461700439453
30	35.167386293411255	response	0	j		28.0	/experiments/Knapen_AOT/AOT_stimuli/pictures/1860_fw.png	129.7333755493164	
31	35.1769073009491	picture	0		83	29.0	/experiments/Knapen_AOT/AOT_stimuli/pictures/1899_fw.png	129.74289655685425	0.6984705924987793
31	35.85894846916199	response	0	k		29.0	/experiments/Knapen_AOT/AOT_stimuli/pictures/1899_fw.png	130.42493772506714	
32	35.875377893447876	picture	0		111	30.0	/experiments/Knapen_AOT/AOT_stimuli/pictures/0082_fw.png	130.44136714935303	0.933375358581543
32	36.78555989265442	response	0	j		30.0	/experiments/Knapen_AOT/AOT_stimuli/pictures/0082_fw.png	131.35154914855957	
33	36.80875325202942	picture	0		70	31.0	/experiments/Knapen_AOT/AOT_stimuli/pictures/0381_fw.png	131.37474250793457	0.5834240913391113
33	37.38400316238403	response	0	j		31.0	/experiments/Knapen_AOT/AOT_stimuli/pictures/0381_fw.png	131.94999241828918	
34	37.39217734336853	picture	0		165	32.0	/experiments/Knapen_AOT/AOT_stimuli/pictures/1862_fw.png	131.95816659927368	1.3750205039978027
34	38.75917315483093	response	0	k		32.0	/experiments/Knapen_AOT/AOT_stimuli/pictures/1862_fw.png	133.32516241073608	
35	38.76719784736633	picture	0		157	33.0	/experiments/Knapen_AOT/AOT_stimuli/pictures/0016_fw.png	133.33318710327148	1.312523603439331
35	40.06726861000061	response	0	k		33.0	/experiments/Knapen_AOT/AOT_stimuli/pictures/0016_fw.png	134.63325786590576	
36	40.079721450805664	picture	0		67	34.0	/experiments/Knapen_AOT/AOT_stimuli/pictures/1980_fw.png	134.64571070671082	0.5555694103240967
36	40.62566137313843	response	0	j		34.0	/experiments/Knapen_AOT/AOT_stimuli/pictures/1980_fw.png	135.19165062904358	
37	40.63529086112976	picture	0		76	35.0	/experiments/Knapen_AOT/AOT_stimuli/pictures/1684_fw.png	135.2012801170349	0.6319096088409424
37	41.25898027420044	response	0	j		35.0	/experiments/Knapen_AOT/AOT_stimuli/pictures/1684_fw.png	135.8249695301056	
38	41.2672004699707	picture	0		73	36.0	/experiments/Knapen_AOT/AOT_stimuli/pictures/0946_fw.png	135.83318972587585	0.6165776252746582
38	41.86735939979553	response	0	j		36.0	/experiments/Knapen_AOT/AOT_stimuli/pictures/0946_fw.png	136.43334865570068	
39	41.88377809524536	picture	0		75	37.0	/experiments/Knapen_AOT/AOT_stimuli/pictures/0795_fw.png	136.4497673511505	0.626509428024292
39	42.500677824020386	response	0	j		37.0	/experiments/Knapen_AOT/AOT_stimuli/pictures/0795_fw.png	137.06666707992554	
40	42.51028752326965	picture	0		72	38.0	/experiments/Knapen_AOT/AOT_stimuli/pictures/2139_fw.png	137.0762767791748	0.6042690277099609
40	43.100804805755615	response	0	j		38.0	/experiments/Knapen_AOT/AOT_stimuli/pictures/2139_fw.png	137.66679406166077	
41	43.114556550979614	picture	0		211	39.0	/experiments/Knapen_AOT/AOT_stimuli/pictures/1635_fw.png	137.68054580688477	1.763808250427246
41	44.86733675003052	response	0	k		39.0	/experiments/Knapen_AOT/AOT_stimuli/pictures/1635_fw.png	139.43332600593567	
42	44.87836480140686	picture	0		128	40.0	/experiments/Knapen_AOT/AOT_stimuli/pictures/0788_fw.png	139.444354057312	1.0694570541381836
42	45.934003829956055	response	0	j		40.0	/experiments/Knapen_AOT/AOT_stimuli/pictures/0788_fw.png	140.4999930858612	
43	45.947821855545044	picture	0		87	41.0	/experiments/Knapen_AOT/AOT_stimuli/pictures/1630_fw.png	140.5138111114502	0.7291607856750488
43	46.66742825508118	response	0	j		41.0	/experiments/Knapen_AOT/AOT_stimuli/pictures/1630_fw.png	141.23341751098633	
44	46.67698264122009	picture	0		87	42.0	/experiments/Knapen_AOT/AOT_stimuli/pictures/1698_fw.png	141.24297189712524	0.7235145568847656
44	47.38478422164917	response	0	j		42.0	/experiments/Knapen_AOT/AOT_stimuli/pictures/1698_fw.png	141.95077347755432	
45	47.40049719810486	picture	0		231	43.0	/experiments/Knapen_AOT/AOT_stimuli/pictures/0804_fw.png	141.96648645401	1.9333791732788086
45	49.31739044189453	response	0	k		43.0	/experiments/Knapen_AOT/AOT_stimuli/pictures/0804_fw.png	143.88337969779968	
46	49.33387637138367	picture	0		95	44.0	/experiments/Knapen_AOT/AOT_stimuli/pictures/1219_fw.png	143.89986562728882	0.7945218086242676
46	50.117443799972534	response	0	k		44.0	/experiments/Knapen_AOT/AOT_stimuli/pictures/1219_fw.png	144.68343305587769	
47	50.128398180007935	picture	0		86	45.0	/experiments/Knapen_AOT/AOT_stimuli/pictures/1748_fw.png	144.6943874359131	0.715277910232544
47	50.83408999443054	response	0	j		45.0	/experiments/Knapen_AOT/AOT_stimuli/pictures/1748_fw.png	145.4000792503357	
48	50.84367609024048	picture	0		100	46.0	/experiments/Knapen_AOT/AOT_stimuli/pictures/0043_fw.png	145.40966534614563	0.8402559757232666
48	51.66762065887451	response	0	k		46.0	/experiments/Knapen_AOT/AOT_stimuli/pictures/0043_fw.png	146.23360991477966	
49	51.683932065963745	picture	0		111	47.0	/experiments/Knapen_AOT/AOT_stimuli/pictures/0298_fw.png	146.2499213218689	0.9333131313323975
49	52.593196630477905	response	0	j		47.0	/experiments/Knapen_AOT/AOT_stimuli/pictures/0298_fw.png	147.15918588638306	
50	52.61724519729614	picture	0		114	48.0	/experiments/Knapen_AOT/AOT_stimuli/pictures/2038_fw.png	147.1832344532013	0.9556498527526855
50	53.559115171432495	response	0	k		48.0	/experiments/Knapen_AOT/AOT_stimuli/pictures/2038_fw.png	148.12510442733765	
51	53.57289505004883	picture	0		124	49.0	/experiments/Knapen_AOT/AOT_stimuli/pictures/0088_fw.png	148.13888430595398	1.0416829586029053
51	54.593122720718384	response	0	k		49.0	/experiments/Knapen_AOT/AOT_stimuli/pictures/0088_fw.png	149.15911197662354	
52	54.61457800865173	picture	0		127	50.0	/experiments/Knapen_AOT/AOT_stimuli/pictures/2020_fw.png	149.18056726455688	1.0693788528442383
52	55.66747069358826	response	0	k		50.0	/experiments/Knapen_AOT/AOT_stimuli/pictures/2020_fw.png	150.2334599494934	
53	55.68395686149597	picture	0		183	51.0	/experiments/Knapen_AOT/AOT_stimuli/pictures/1603_fw.png	150.24994611740112	1.5278658866882324
53	57.19430685043335	response	0	j		51.0	/experiments/Knapen_AOT/AOT_stimuli/pictures/1603_fw.png	151.7602961063385	
54	57.211822748184204	picture	0		97	52.0	/experiments/Knapen_AOT/AOT_stimuli/pictures/1826_fw.png	151.77781200408936	0.8138256072998047
54	58.00940227508545	response	0	j		52.0	/experiments/Knapen_AOT/AOT_stimuli/pictures/1826_fw.png	152.5753915309906	
55	58.02564835548401	picture	0		118	53.0	/experiments/Knapen_AOT/AOT_stimuli/pictures/0688_fw.png	152.59163761138916	0.9847507476806641
55	59.00095891952515	response	0	k		53.0	/experiments/Knapen_AOT/AOT_stimuli/pictures/0688_fw.png	153.5669481754303	
56	59.01039910316467	picture	0		116	54.0	/experiments/Knapen_AOT/AOT_stimuli/pictures/1903_fw.png	153.57638835906982	0.9652924537658691
56	59.961119651794434	response	0	k		54.0	/experiments/Knapen_AOT/AOT_stimuli/pictures/1903_fw.png	154.52710890769958	
57	59.97569155693054	picture	0		110	55.0	/experiments/Knapen_AOT/AOT_stimuli/pictures/1156_fw.png	154.5416808128357	0.9167041778564453
57	60.884206771850586	response	0	j		55.0	/experiments/Knapen_AOT/AOT_stimuli/pictures/1156_fw.png	155.45019602775574	
58	60.89239573478699	picture	0		116	56.0	/experiments/Knapen_AOT/AOT_stimuli/pictures/0543_fw.png	155.45838499069214	0.9723014831542969
58	61.850910663604736	response	0	k		56.0	/experiments/Knapen_AOT/AOT_stimuli/pictures/0543_fw.png	156.4168999195099	
59	61.864697217941284	picture	0		129	57.0	/experiments/Knapen_AOT/AOT_stimuli/pictures/0365_fw.png	156.43068647384644	1.086031436920166
59	62.93426179885864	response	0	k		57.0	/experiments/Knapen_AOT/AOT_stimuli/pictures/0365_fw.png	157.5002510547638	
60	62.95072865486145	picture	0		180	58.0	/experiments/Knapen_AOT/AOT_stimuli/pictures/0048_fw.png	157.5167179107666	1.5083656311035156
60	64.44258618354797	response	0	k		58.0	/experiments/Knapen_AOT/AOT_stimuli/pictures/0048_fw.png	159.00857543945312	
61	64.45909428596497	picture	0		132	59.0	/experiments/Knapen_AOT/AOT_stimuli/pictures/0887_fw.png	159.02508354187012	1.1166603565216064
61	65.5509672164917	response	0	j		59.0	/experiments/Knapen_AOT/AOT_stimuli/pictures/0887_fw.png	160.11695647239685	
62	65.57575464248657	picture	0		124	60.0	/experiments/Knapen_AOT/AOT_stimuli/pictures/1464_fw.png	160.14174389839172	1.0388901233673096
62	66.60098624229431	response	0	j		60.0	/experiments/Knapen_AOT/AOT_stimuli/pictures/1464_fw.png	161.16697549819946	
63	66.61464476585388	picture	0		119	61.0	/experiments/Knapen_AOT/AOT_stimuli/pictures/2060_fw.png	161.18063402175903	1.0000004768371582
63	67.6010069847107	response	0	j		61.0	/experiments/Knapen_AOT/AOT_stimuli/pictures/2060_fw.png	162.16699624061584	
64	67.61464524269104	picture	0		109	62.0	/experiments/Knapen_AOT/AOT_stimuli/pictures/1511_fw.png	162.1806344985962	0.9167129993438721
64	68.51762843132019	response	0	k		62.0	/experiments/Knapen_AOT/AOT_stimuli/pictures/1511_fw.png	163.08361768722534	
65	68.53135824203491	picture	0		143	63.0	/experiments/Knapen_AOT/AOT_stimuli/pictures/1804_fw.png	163.09734749794006	1.194427490234375
65	69.71773958206177	response	0	j		63.0	/experiments/Knapen_AOT/AOT_stimuli/pictures/1804_fw.png	164.28372883796692	
66	69.72578573226929	picture	0		93	64.0	/experiments/Knapen_AOT/AOT_stimuli/pictures/0550_fw.png	164.29177498817444	0.7833492755889893
66	70.49275374412537	response	0	j		64.0	/experiments/Knapen_AOT/AOT_stimuli/pictures/0550_fw.png	165.05874300003052	
67	70.50913500785828	picture	0		142	65.0	/experiments/Knapen_AOT/AOT_stimuli/pictures/1429_fw.png	165.07512426376343	1.1888761520385742
67	71.68433499336243	response	0	j		65.0	/experiments/Knapen_AOT/AOT_stimuli/pictures/1429_fw.png	166.25032424926758	
68	71.69801115989685	picture	0		130	66.0	/experiments/Knapen_AOT/AOT_stimuli/pictures/0210_fw.png	166.264000415802	1.0902900695800781
68	72.77602529525757	response	0	k		66.0	/experiments/Knapen_AOT/AOT_stimuli/pictures/0210_fw.png	167.34201455116272	
69	72.78830122947693	picture	0		86	67.0	/experiments/Knapen_AOT/AOT_stimuli/pictures/0460_fw.png	167.35429048538208	0.7208731174468994
69	73.4927146434784	response	0	j		67.0	/experiments/Knapen_AOT/AOT_stimuli/pictures/0460_fw.png	168.05870389938354	
70	73.50917434692383	picture	0		86	68.0	/experiments/Knapen_AOT/AOT_stimuli/pictures/2099_fw.png	168.07516360282898	0.7166385650634766
70	74.21772289276123	response	0	j		68.0	/experiments/Knapen_AOT/AOT_stimuli/pictures/2099_fw.png	168.78371214866638	
71	74.2258129119873	picture	0		182	69.0	/experiments/Knapen_AOT/AOT_stimuli/pictures/0952_fw.png	168.79180216789246	1.52506422996521
71	75.73440980911255	response	0	k		69.0	/experiments/Knapen_AOT/AOT_stimuli/pictures/0952_fw.png	170.3003990650177	
72	75.75087714195251	picture	0		124	70.0	/experiments/Knapen_AOT/AOT_stimuli/pictures/0800_fw.png	170.31686639785767	1.0416810512542725
72	76.7763283252716	response	0	k		70.0	/experiments/Knapen_AOT/AOT_stimuli/pictures/0800_fw.png	171.34231758117676	
73	76.79255819320679	picture	0		142	71.0	/experiments/Knapen_AOT/AOT_stimuli/pictures/0249_fw.png	171.35854744911194	1.1833138465881348
73	77.96777868270874	response	0	k		71.0	/experiments/Knapen_AOT/AOT_stimuli/pictures/0249_fw.png	172.5337679386139	
74	77.97587203979492	picture	0		109	72.0	/experiments/Knapen_AOT/AOT_stimuli/pictures/1791_fw.png	172.54186129570007	0.9096882343292236
74	78.87613034248352	response	0	k		72.0	/experiments/Knapen_AOT/AOT_stimuli/pictures/1791_fw.png	173.44211959838867	
75	78.88556027412415	picture	0		130	73.0	/experiments/Knapen_AOT/AOT_stimuli/pictures/1591_fw.png	173.4515495300293	1.090444803237915
75	79.95296740531921	response	0	k		73.0	/experiments/Knapen_AOT/AOT_stimuli/pictures/1591_fw.png	174.51895666122437	
76	79.97600507736206	picture	0		152	74.0	/experiments/Knapen_AOT/AOT_stimuli/pictures/0175_fw.png	174.5419943332672	1.274986982345581
76	81.23445081710815	response	0	k		74.0	/experiments/Knapen_AOT/AOT_stimuli/pictures/0175_fw.png	175.8004400730133	
77	81.25099205970764	picture	0		75	75.0	/experiments/Knapen_AOT/AOT_stimuli/pictures/0380_fw.png	175.8169813156128	0.6276769638061523
77	81.86780428886414	response	0	j		75.0	/experiments/Knapen_AOT/AOT_stimuli/pictures/0380_fw.png	176.4337935447693	
78	81.8786690235138	picture	0		118	76.0	/experiments/Knapen_AOT/AOT_stimuli/pictures/0424_fw.png	176.44465827941895	0.9889719486236572
78	82.85107707977295	response	0	j		76.0	/experiments/Knapen_AOT/AOT_stimuli/pictures/0424_fw.png	177.4170663356781	
79	82.86764097213745	picture	0		129	77.0	/experiments/Knapen_AOT/AOT_stimuli/pictures/1296_fw.png	177.4336302280426	1.0804591178894043
79	83.93444657325745	response	0	k		77.0	/experiments/Knapen_AOT/AOT_stimuli/pictures/1296_fw.png	178.5004358291626	
80	83.94810009002686	picture	0		143	78.0	/experiments/Knapen_AOT/AOT_stimuli/pictures/0220_fw.png	178.514089345932	1.1945173740386963
80	85.13452553749084	response	0	j		78.0	/experiments/Knapen_AOT/AOT_stimuli/pictures/0220_fw.png	179.700514793396	
81	85.14261746406555	picture	0		97	79.0	/experiments/Knapen_AOT/AOT_stimuli/pictures/0994_fw.png	179.7086067199707	0.8124337196350098
81	85.94285821914673	response	0	j		79.0	/experiments/Knapen_AOT/AOT_stimuli/pictures/0994_fw.png	180.50884747505188	
82	85.95505118370056	picture	0		80	80.0	/experiments/Knapen_AOT/AOT_stimuli/pictures/1402_fw.png	180.5210404396057	0.6666803359985352
82	86.60959768295288	response	0	j		80.0	/experiments/Knapen_AOT/AOT_stimuli/pictures/1402_fw.png	181.17558693885803	
83	86.6217315196991	picture	0		108	81.0	/experiments/Knapen_AOT/AOT_stimuli/pictures/0178_fw.png	181.18772077560425	0.8959238529205322
83	87.50953602790833	response	0	k		81.0	/experiments/Knapen_AOT/AOT_stimuli/pictures/0178_fw.png	182.07552528381348	
84	87.51765537261963	picture	0		71	82.0	/experiments/Knapen_AOT/AOT_stimuli/pictures/0462_fw.png	182.08364462852478	0.5971598625183105
84	88.10128903388977	response	0	j		82.0	/experiments/Knapen_AOT/AOT_stimuli/pictures/0462_fw.png	182.66727828979492	
85	88.11481523513794	picture	0		151	83.0	/experiments/Knapen_AOT/AOT_stimuli/pictures/0883_fw.png	182.6808044910431	1.2638599872589111
85	89.36809825897217	response	0	j		83.0	/experiments/Knapen_AOT/AOT_stimuli/pictures/0883_fw.png	183.93408751487732	
86	89.37867522239685	picture	0		289	84.0	/experiments/Knapen_AOT/AOT_stimuli/pictures/0295_fw.png	183.944664478302	2.4097838401794434
86	91.76938033103943	response	0	k		84.0	/experiments/Knapen_AOT/AOT_stimuli/pictures/0295_fw.png	186.33536958694458	
87	91.7884590625763	picture	0		96	85.0	/experiments/Knapen_AOT/AOT_stimuli/pictures/1423_fw.png	186.35444831848145	0.7985837459564209
87	92.5690279006958	response	0	j		85.0	/experiments/Knapen_AOT/AOT_stimuli/pictures/1423_fw.png	187.13501715660095	
88	92.58704280853271	picture	0		77	86.0	/experiments/Knapen_AOT/AOT_stimuli/pictures/0418_fw.png	187.15303206443787	0.6390290260314941
88	93.21796369552612	response	0	j		86.0	/experiments/Knapen_AOT/AOT_stimuli/pictures/0418_fw.png	187.78395295143127	
89	93.22607183456421	picture	0		97	87.0	/experiments/Knapen_AOT/AOT_stimuli/pictures/1818_fw.png	187.79206109046936	0.8123712539672852
89	94.02627873420715	response	0	j		87.0	/experiments/Knapen_AOT/AOT_stimuli/pictures/1818_fw.png	188.5922679901123	
90	94.0384430885315	picture	0		86	88.0	/experiments/Knapen_AOT/AOT_stimuli/pictures/2098_fw.png	188.60443234443665	0.7152976989746094
90	94.74312567710876	response	0	j		88.0	/experiments/Knapen_AOT/AOT_stimuli/pictures/2098_fw.png	189.30911493301392	
91	94.7537407875061	picture	0		91	89.0	/experiments/Knapen_AOT/AOT_stimuli/pictures/1235_fw.png	189.31973004341125	0.7640602588653564
91	95.50142788887024	response	0	j		89.0	/experiments/Knapen_AOT/AOT_stimuli/pictures/1235_fw.png	190.0674171447754	
92	95.51780104637146	picture	0		147	90.0	/experiments/Knapen_AOT/AOT_stimuli/pictures/1303_fw.png	190.0837903022766	1.2289831638336182
92	96.7347457408905	response	0	k		90.0	/experiments/Knapen_AOT/AOT_stimuli/pictures/1303_fw.png	191.30073499679565	
93	96.74678421020508	picture	0		82	91.0	/experiments/Knapen_AOT/AOT_stimuli/pictures/1692_fw.png	191.31277346611023	0.687694787979126
93	97.41811800003052	response	0	j		91.0	/experiments/Knapen_AOT/AOT_stimuli/pictures/1692_fw.png	191.98410725593567	
94	97.4344789981842	picture	0		134	92.0	/experiments/Knapen_AOT/AOT_stimuli/pictures/1885_fw.png	192.00046825408936	1.117879867553711
94	98.54300570487976	response	0	j		92.0	/experiments/Knapen_AOT/AOT_stimuli/pictures/1885_fw.png	193.1089949607849	
95	98.55235886573792	picture	0		77	93.0	/experiments/Knapen_AOT/AOT_stimuli/pictures/1241_fw.png	193.11834812164307	0.6458535194396973
95	99.17717957496643	response	0	j		93.0	/experiments/Knapen_AOT/AOT_stimuli/pictures/1241_fw.png	193.74316883087158	
96	99.19821238517761	picture	0		223	94.0	/experiments/Knapen_AOT/AOT_stimuli/pictures/0401_fw.png	193.76420164108276	1.861281394958496
96	101.0513653755188	response	0	k		94.0	/experiments/Knapen_AOT/AOT_stimuli/pictures/0401_fw.png	195.61735463142395	
97	101.05949378013611	picture	0		99	95.0	/experiments/Knapen_AOT/AOT_stimuli/pictures/0361_fw.png	195.62548303604126	0.8333606719970703
97	101.87660264968872	response	0	k		95.0	/experiments/Knapen_AOT/AOT_stimuli/pictures/0361_fw.png	196.44259190559387	
98	101.89285445213318	picture	0		99	96.0	/experiments/Knapen_AOT/AOT_stimuli/pictures/0412_fw.png	196.45884370803833	0.8333728313446045
98	102.7097578048706	response	0	k		96.0	/experiments/Knapen_AOT/AOT_stimuli/pictures/0412_fw.png	197.27574706077576	
99	102.72622728347778	picture	0		86	97.0	/experiments/Knapen_AOT/AOT_stimuli/pictures/0256_fw.png	197.29221653938293	0.7249858379364014
99	103.43476676940918	response	0	j		97.0	/experiments/Knapen_AOT/AOT_stimuli/pictures/0256_fw.png	198.00075602531433	
100	103.45121312141418	picture	0		109	98.0	/experiments/Knapen_AOT/AOT_stimuli/pictures/0978_fw.png	198.01720237731934	0.9136874675750732
100	104.3514051437378	response	0	j		98.0	/experiments/Knapen_AOT/AOT_stimuli/pictures/0978_fw.png	198.91739439964294	
101	104.36490058898926	picture	0		72	99.0	/experiments/Knapen_AOT/AOT_stimuli/pictures/2048_fw.png	198.9308898448944	0.6113400459289551
101	104.9599027633667	response	0	j		99.0	/experiments/Knapen_AOT/AOT_stimuli/pictures/2048_fw.png	199.52589201927185	
102	104.97624063491821	picture	0		72	100.0	/experiments/Knapen_AOT/AOT_stimuli/pictures/2052_fw.png	199.54222989082336	0.6039314270019531
102	105.56811690330505	response	0	j		100.0	/experiments/Knapen_AOT/AOT_stimuli/pictures/2052_fw.png	200.1341061592102	
103	105.58017206192017	picture	0		118	101.0	/experiments/Knapen_AOT/AOT_stimuli/pictures/1472_fw.png	200.14616131782532	0.9793796539306641
103	106.5514395236969	response	0	k		101.0	/experiments/Knapen_AOT/AOT_stimuli/pictures/1472_fw.png	201.11742877960205	
104	106.55955171585083	picture	0		290	102.0	/experiments/Knapen_AOT/AOT_stimuli/pictures/1587_fw.png	201.12554097175598	2.425067663192749
104	108.96840405464172	response	0	k		102.0	/experiments/Knapen_AOT/AOT_stimuli/pictures/1587_fw.png	203.53439331054688	
105	108.98461937904358	picture	0		93	103.0	/experiments/Knapen_AOT/AOT_stimuli/pictures/0603_fw.png	203.55060863494873	0.783353328704834
105	109.75184082984924	response	0	j		103.0	/experiments/Knapen_AOT/AOT_stimuli/pictures/0603_fw.png	204.3178300857544	
106	109.76797270774841	picture	0		121	104.0	/experiments/Knapen_AOT/AOT_stimuli/pictures/1806_fw.png	204.33396196365356	1.0166904926300049
106	110.768390417099	response	0	j		104.0	/experiments/Knapen_AOT/AOT_stimuli/pictures/1806_fw.png	205.33437967300415	
107	110.78466320037842	picture	0		109	105.0	/experiments/Knapen_AOT/AOT_stimuli/pictures/1901_fw.png	205.35065245628357	0.9136548042297363
107	111.68486213684082	response	0	k		105.0	/experiments/Knapen_AOT/AOT_stimuli/pictures/1901_fw.png	206.25085139274597	
108	111.69831800460815	picture	0		94	106.0	/experiments/Knapen_AOT/AOT_stimuli/pictures/2078_fw.png	206.2643072605133	0.7916440963745117
108	112.47666597366333	response	0	k		106.0	/experiments/Knapen_AOT/AOT_stimuli/pictures/2078_fw.png	207.04265522956848	
109	112.48996210098267	picture	0		216	107.0	/experiments/Knapen_AOT/AOT_stimuli/pictures/1574_fw.png	207.05595135688782	1.805572509765625
109	114.28494906425476	response	0	k		107.0	/experiments/Knapen_AOT/AOT_stimuli/pictures/1574_fw.png	208.8509383201599	
110	114.29553461074829	picture	0		92	108.0	/experiments/Knapen_AOT/AOT_stimuli/pictures/0762_fw.png	208.86152386665344	0.7641828060150146
110	115.0515878200531	response	0	k		108.0	/experiments/Knapen_AOT/AOT_stimuli/pictures/0762_fw.png	209.61757707595825	
111	115.0597174167633	picture	0		110	109.0	/experiments/Knapen_AOT/AOT_stimuli/pictures/0596_fw.png	209.62570667266846	0.9166245460510254
111	115.96823191642761	response	0	k		109.0	/experiments/Knapen_AOT/AOT_stimuli/pictures/0596_fw.png	210.53422117233276	
112	115.97634196281433	picture	0		218	110.0	/experiments/Knapen_AOT/AOT_stimuli/pictures/1167_fw.png	210.54233121871948	1.8192148208618164
112	117.77739524841309	response	0	j		110.0	/experiments/Knapen_AOT/AOT_stimuli/pictures/1167_fw.png	212.34338450431824	
113	117.79555678367615	picture	0		114	111.0	/experiments/Knapen_AOT/AOT_stimuli/pictures/1644_fw.png	212.3615460395813	0.951385498046875
113	118.73493599891663	response	0	k		111.0	/experiments/Knapen_AOT/AOT_stimuli/pictures/1644_fw.png	213.30092525482178	
114	118.74694228172302	picture	0		104	112.0	/experiments/Knapen_AOT/AOT_stimuli/pictures/0487_fw.png	213.31293153762817	0.8680868148803711
114	119.60161423683167	response	0	j		112.0	/experiments/Knapen_AOT/AOT_stimuli/pictures/0487_fw.png	214.16760349273682	
115	119.6150290966034	picture	0		99	113.0	/experiments/Knapen_AOT/AOT_stimuli/pictures/0217_fw.png	214.18101835250854	0.8333220481872559
115	120.43494462966919	response	0	j		113.0	/experiments/Knapen_AOT/AOT_stimuli/pictures/0217_fw.png	215.00093388557434	
116	120.44835114479065	picture	0		140	114.0	/experiments/Knapen_AOT/AOT_stimuli/pictures/0153_fw.png	215.0143404006958	1.1781418323516846
116	121.61013746261597	response	0	k		114.0	/experiments/Knapen_AOT/AOT_stimuli/pictures/0153_fw.png	216.17612671852112	
117	121.62649297714233	picture	0		260	115.0	/experiments/Knapen_AOT/AOT_stimuli/pictures/1915_fw.png	216.19248223304749	2.174999475479126
117	123.77737402915955	response	0	k		115.0	/experiments/Knapen_AOT/AOT_stimuli/pictures/1915_fw.png	218.3433632850647	
118	123.80149245262146	picture	0		109	116.0	/experiments/Knapen_AOT/AOT_stimuli/pictures/0840_fw.png	218.3674817085266	0.9107828140258789
118	124.70165777206421	response	0	k		116.0	/experiments/Knapen_AOT/AOT_stimuli/pictures/0840_fw.png	219.26764702796936	
119	124.71227526664734	picture	0		157	117.0	/experiments/Knapen_AOT/AOT_stimuli/pictures/1811_fw.png	219.2782645225525	1.3058550357818604
119	126.0100450515747	response	0	k		117.0	/experiments/Knapen_AOT/AOT_stimuli/pictures/1811_fw.png	220.57603430747986	
120	126.0181303024292	picture	0		95	118.0	/experiments/Knapen_AOT/AOT_stimuli/pictures/0817_fw.png	220.58411955833435	0.8000540733337402
120	126.80174136161804	response	0	k		118.0	/experiments/Knapen_AOT/AOT_stimuli/pictures/0817_fw.png	221.3677306175232	
121	126.81818437576294	picture	0		88	119.0	/experiments/Knapen_AOT/AOT_stimuli/pictures/1147_fw.png	221.3841736316681	0.7416632175445557
121	127.54333305358887	response	0	k		119.0	/experiments/Knapen_AOT/AOT_stimuli/pictures/1147_fw.png	222.10932230949402	
122	127.5598475933075	picture	0		207	120.0	/experiments/Knapen_AOT/AOT_stimuli/pictures/1139_fw.png	222.12583684921265	1.7288732528686523
122	129.2767641544342	response	0	j		120.0	/experiments/Knapen_AOT/AOT_stimuli/pictures/1139_fw.png	223.84275341033936	
123	129.28872084617615	picture	0		81	121.0	/experiments/Knapen_AOT/AOT_stimuli/pictures/1599_fw.png	223.8547101020813	0.6795079708099365
123	129.95199155807495	response	0	j		121.0	/experiments/Knapen_AOT/AOT_stimuli/pictures/1599_fw.png	224.5179808139801	
124	129.96822881698608	picture	0		100	122.0	/experiments/Knapen_AOT/AOT_stimuli/pictures/0517_fw.png	224.53421807289124	0.8417041301727295
124	130.793616771698	response	0	j		122.0	/experiments/Knapen_AOT/AOT_stimuli/pictures/0517_fw.png	225.35960602760315	
125	130.8099329471588	picture	0		159	123.0	/experiments/Knapen_AOT/AOT_stimuli/pictures/0199_fw.png	225.37592220306396	1.3260502815246582
125	132.12681460380554	response	0	k		123.0	/experiments/Knapen_AOT/AOT_stimuli/pictures/0199_fw.png	226.6928038597107	
126	132.13598322868347	picture	0		72	124.0	/experiments/Knapen_AOT/AOT_stimuli/pictures/0850_fw.png	226.70197248458862	0.6041319370269775
126	132.72677421569824	response	0	j		124.0	/experiments/Knapen_AOT/AOT_stimuli/pictures/0850_fw.png	227.2927634716034	
127	132.74011516571045	picture	0		127	125.0	/experiments/Knapen_AOT/AOT_stimuli/pictures/1218_fw.png	227.3061044216156	1.0624926090240479
127	133.79379606246948	response	0	j		125.0	/experiments/Knapen_AOT/AOT_stimuli/pictures/1218_fw.png	228.35978531837463	
128	133.8026077747345	picture	0		94	126.0	/experiments/Knapen_AOT/AOT_stimuli/pictures/2157_fw.png	228.36859703063965	0.7847480773925781
128	134.57682943344116	response	0	k		126.0	/experiments/Knapen_AOT/AOT_stimuli/pictures/2157_fw.png	229.1428186893463	
129	134.58735585212708	picture	0		79	127.0	/experiments/Knapen_AOT/AOT_stimuli/pictures/1039_fw.png	229.15334510803223	0.6597099304199219
129	135.23519706726074	response	0	k		127.0	/experiments/Knapen_AOT/AOT_stimuli/pictures/1039_fw.png	229.8011863231659	
130	135.247065782547	picture	0		89	128.0	/experiments/Knapen_AOT/AOT_stimuli/pictures/0423_fw.png	229.81305503845215	0.7462177276611328
130	135.97706532478333	response	0	k		128.0	/experiments/Knapen_AOT/AOT_stimuli/pictures/0423_fw.png	230.54305458068848	
131	135.99328351020813	picture	0		94	129.0	/experiments/Knapen_AOT/AOT_stimuli/pictures/1979_fw.png	230.55927276611328	0.8000586032867432
131	136.76107811927795	response	0	j		129.0	/experiments/Knapen_AOT/AOT_stimuli/pictures/1979_fw.png	231.3270673751831	
132	136.79334211349487	picture	0		198	130.0	/experiments/Knapen_AOT/AOT_stimuli/pictures/1682_fw.png	231.35933136940002	1.6551616191864014
132	138.43534421920776	response	0	k		130.0	/experiments/Knapen_AOT/AOT_stimuli/pictures/1682_fw.png	233.00133347511292	
133	138.44850373268127	picture	0		107	131.0	/experiments/Knapen_AOT/AOT_stimuli/pictures/0046_fw.png	233.01449298858643	0.8958189487457275
133	139.3351857662201	response	0	j		131.0	/experiments/Knapen_AOT/AOT_stimuli/pictures/0046_fw.png	233.90117502212524	
134	139.344322681427	picture	0		166	132.0	/experiments/Knapen_AOT/AOT_stimuli/pictures/0409_fw.png	233.91031193733215	1.3823292255401611
134	140.71855401992798	response	0	k		132.0	/experiments/Knapen_AOT/AOT_stimuli/pictures/0409_fw.png	235.28454327583313	
135	140.72665190696716	picture	0		111	133.0	/experiments/Knapen_AOT/AOT_stimuli/pictures/1077_fw.png	235.29264116287231	0.9301769733428955
135	141.64357733726501	response	0	k		133.0	/experiments/Knapen_AOT/AOT_stimuli/pictures/1077_fw.png	236.20956659317017	
136	141.65682888031006	picture	0		121	134.0	/experiments/Knapen_AOT/AOT_stimuli/pictures/1734_fw.png	236.2228181362152	1.0198779106140137
136	142.66022562980652	response	0	k		134.0	/experiments/Knapen_AOT/AOT_stimuli/pictures/1734_fw.png	237.22621488571167	
137	142.67670679092407	picture	0		86	135.0	/experiments/Knapen_AOT/AOT_stimuli/pictures/0151_fw.png	237.24269604682922	0.7250382900238037
137	143.38553094863892	response	0	j		135.0	/experiments/Knapen_AOT/AOT_stimuli/pictures/0151_fw.png	237.95152020454407	
138	143.40174508094788	picture	0		97	136.0	/experiments/Knapen_AOT/AOT_stimuli/pictures/2056_fw.png	237.96773433685303	0.810664176940918
138	144.20198702812195	response	0	k		136.0	/experiments/Knapen_AOT/AOT_stimuli/pictures/2056_fw.png	238.7679762840271	
139	144.2124092578888	picture	0		135	137.0	/experiments/Knapen_AOT/AOT_stimuli/pictures/1851_fw.png	238.77839851379395	1.1250636577606201
139	145.32701659202576	response	0	k		137.0	/experiments/Knapen_AOT/AOT_stimuli/pictures/1851_fw.png	239.8930058479309	
140	145.3374729156494	picture	0		82	138.0	/experiments/Knapen_AOT/AOT_stimuli/pictures/0948_fw.png	239.90346217155457	0.6892709732055664
140	146.0115442276001	response	0	j		138.0	/experiments/Knapen_AOT/AOT_stimuli/pictures/0948_fw.png	240.57753348350525	
141	146.02674388885498	picture	0		75	139.0	/experiments/Knapen_AOT/AOT_stimuli/pictures/1984_fw.png	240.59273314476013	0.6301431655883789
141	146.64363884925842	response	0	j		139.0	/experiments/Knapen_AOT/AOT_stimuli/pictures/1984_fw.png	241.20962810516357	
142	146.65688705444336	picture	0		142	140.0	/experiments/Knapen_AOT/AOT_stimuli/pictures/2105_fw.png	241.2228763103485	1.1949145793914795
142	147.8354504108429	response	0	j		140.0	/experiments/Knapen_AOT/AOT_stimuli/pictures/2105_fw.png	242.40143966674805	
143	147.85180163383484	picture	0		99	141.0	/experiments/Knapen_AOT/AOT_stimuli/pictures/0314_fw.png	242.41779088974	0.8333001136779785
143	148.66862082481384	response	0	j		141.0	/experiments/Knapen_AOT/AOT_stimuli/pictures/0314_fw.png	243.234610080719	
144	148.68510174751282	picture	0		96	142.0	/experiments/Knapen_AOT/AOT_stimuli/pictures/1079_fw.png	243.25109100341797	0.8083834648132324
144	149.47704792022705	response	0	k		142.0	/experiments/Knapen_AOT/AOT_stimuli/pictures/1079_fw.png	244.0430371761322	
145	149.49348521232605	picture	0		91	143.0	/experiments/Knapen_AOT/AOT_stimuli/pictures/0183_fw.png	244.0594744682312	0.7666599750518799
145	150.24387168884277	response	0	j		143.0	/experiments/Knapen_AOT/AOT_stimuli/pictures/0183_fw.png	244.80986094474792	
146	150.26014518737793	picture	0		142	144.0	/experiments/Knapen_AOT/AOT_stimuli/pictures/0666_fw.png	244.82613444328308	1.1884450912475586
146	151.43533873558044	response	0	k		144.0	/experiments/Knapen_AOT/AOT_stimuli/pictures/0666_fw.png	246.0013279914856	
147	151.4485902786255	picture	0		137	145.0	/experiments/Knapen_AOT/AOT_stimuli/pictures/1183_fw.png	246.01457953453064	1.2782196998596191
147	152.71887278556824	response	0	k		145.0	/experiments/Knapen_AOT/AOT_stimuli/pictures/1183_fw.png	247.2848620414734	
148	152.7268099784851	picture	0		78	146.0	/experiments/Knapen_AOT/AOT_stimuli/pictures/1938_fw.png	247.29279923439026	0.6523346900939941
148	153.36877536773682	response	0	j		146.0	/experiments/Knapen_AOT/AOT_stimuli/pictures/1938_fw.png	247.93476462364197	
149	153.3791446685791	picture	0		81	147.0	/experiments/Knapen_AOT/AOT_stimuli/pictures/2016_fw.png	247.94513392448425	0.6810345649719238
149	154.04378938674927	response	0	j		147.0	/experiments/Knapen_AOT/AOT_stimuli/pictures/2016_fw.png	248.60977864265442	
150	154.06017923355103	picture	0		85	148.0	/experiments/Knapen_AOT/AOT_stimuli/pictures/1048_fw.png	248.62616848945618	0.708320140838623
150	154.7530493736267	response	0	j		148.0	/experiments/Knapen_AOT/AOT_stimuli/pictures/1048_fw.png	249.31903862953186	
151	154.76849937438965	picture	0		77	149.0	/experiments/Knapen_AOT/AOT_stimuli/pictures/1861_fw.png	249.3344886302948	0.6453855037689209
151	155.40204071998596	response	0	j		149.0	/experiments/Knapen_AOT/AOT_stimuli/pictures/1861_fw.png	249.9680299758911	
152	155.41388487815857	picture	0		102	150.0	/experiments/Knapen_AOT/AOT_stimuli/pictures/1277_fw.png	249.97987413406372	0.8472161293029785
152	156.25205373764038	response	0	k		150.0	/experiments/Knapen_AOT/AOT_stimuli/pictures/1277_fw.png	250.81804299354553	
153	156.26110100746155	picture	0		115	151.0	/experiments/Knapen_AOT/AOT_stimuli/pictures/0860_fw.png	250.8270902633667	0.9583501815795898
153	157.21038222312927	response	0	k		151.0	/experiments/Knapen_AOT/AOT_stimuli/pictures/0860_fw.png	251.77637147903442	
154	157.21945118904114	picture	0		105	152.0	/experiments/Knapen_AOT/AOT_stimuli/pictures/0885_fw.png	251.7854404449463	0.8750569820404053
154	158.08545422554016	response	0	j		152.0	/experiments/Knapen_AOT/AOT_stimuli/pictures/0885_fw.png	252.6514434814453	
155	158.09450817108154	picture	0		85	153.0	/experiments/Knapen_AOT/AOT_stimuli/pictures/1233_fw.png	252.6604974269867	0.7157430648803711
155	158.79391384124756	response	0	j		153.0	/experiments/Knapen_AOT/AOT_stimuli/pictures/1233_fw.png	253.3599030971527	
156	158.8102512359619	picture	0		247	154.0	/experiments/Knapen_AOT/AOT_stimuli/pictures/1570_fw.png	253.37624049186707	2.0620083808898926
156	160.86045026779175	response	0	k		154.0	/experiments/Knapen_AOT/AOT_stimuli/pictures/1570_fw.png	255.4264395236969	
157	160.8722596168518	picture	0		93	155.0	/experiments/Knapen_AOT/AOT_stimuli/pictures/1326_fw.png	255.43824887275696	0.7713155746459961
157	161.63548135757446	response	0	k		155.0	/experiments/Knapen_AOT/AOT_stimuli/pictures/1326_fw.png	256.2014706134796	
158	161.6435751914978	picture	0		171	156.0	/experiments/Knapen_AOT/AOT_stimuli/pictures/2036_fw.png	256.20956444740295	1.4334521293640137
158	163.060485124588	response	0	k		156.0	/experiments/Knapen_AOT/AOT_stimuli/pictures/2036_fw.png	257.62647438049316	
159	163.07702732086182	picture	0		258	157.0	/experiments/Knapen_AOT/AOT_stimuli/pictures/0378_fw.png	257.64301657676697	2.1582939624786377
159	165.21893095970154	response	0	k		157.0	/experiments/Knapen_AOT/AOT_stimuli/pictures/0378_fw.png	259.7849202156067	
160	165.23532128334045	picture	0		138	158.0	/experiments/Knapen_AOT/AOT_stimuli/pictures/0232_fw.png	259.8013105392456	1.1508491039276123
160	166.37732553482056	response	0	k		158.0	/experiments/Knapen_AOT/AOT_stimuli/pictures/0232_fw.png	260.9433147907257	
161	166.38617038726807	picture	0		187	159.0	/experiments/Knapen_AOT/AOT_stimuli/pictures/0061_fw.png	260.9521596431732	1.5625529289245605
161	167.93552470207214	response	0	k		159.0	/experiments/Knapen_AOT/AOT_stimuli/pictures/0061_fw.png	262.5015139579773	
162	167.94872331619263	picture	0		178	160.0	/experiments/Knapen_AOT/AOT_stimuli/pictures/2075_fw.png	262.5147125720978	1.4950120449066162
162	169.4272427558899	response	0	k		160.0	/experiments/Knapen_AOT/AOT_stimuli/pictures/2075_fw.png	263.99323201179504	
163	169.44373536109924	picture	0		139	161.0	/experiments/Knapen_AOT/AOT_stimuli/pictures/2095_fw.png	264.0097246170044	1.166656732559204
163	170.59391975402832	response	0	k		161.0	/experiments/Knapen_AOT/AOT_stimuli/pictures/2095_fw.png	265.1599090099335	
164	170.61039209365845	picture	0		75	162.0	/experiments/Knapen_AOT/AOT_stimuli/pictures/1234_fw.png	265.1763813495636	0.6333684921264648
164	171.22722697257996	response	0	j		162.0	/experiments/Knapen_AOT/AOT_stimuli/pictures/1234_fw.png	265.7932162284851	
165	171.2437605857849	picture	0		269	163.0	/experiments/Knapen_AOT/AOT_stimuli/pictures/2069_fw.png	265.80974984169006	2.246664524078369
165	173.4772629737854	response	0	k		163.0	/experiments/Knapen_AOT/AOT_stimuli/pictures/2069_fw.png	268.04325222969055	
166	173.49042510986328	picture	0		88	164.0	/experiments/Knapen_AOT/AOT_stimuli/pictures/0864_fw.png	268.05641436576843	0.7450575828552246
166	174.21920943260193	response	0	j		164.0	/experiments/Knapen_AOT/AOT_stimuli/pictures/0864_fw.png	268.7851986885071	
167	174.2354826927185	picture	0		68	165.0	/experiments/Knapen_AOT/AOT_stimuli/pictures/0553_fw.png	268.80147194862366	0.5749576091766357
167	174.7940309047699	response	0	j		165.0	/experiments/Knapen_AOT/AOT_stimuli/pictures/0553_fw.png	269.36002016067505	
168	174.81044030189514	picture	0		96	166.0	/experiments/Knapen_AOT/AOT_stimuli/pictures/1090_fw.png	269.3764295578003	0.8049793243408203
168	175.60236358642578	response	0	j		166.0	/experiments/Knapen_AOT/AOT_stimuli/pictures/1090_fw.png	270.16835284233093	
169	175.61541962623596	picture	0		186	167.0	/experiments/Knapen_AOT/AOT_stimuli/pictures/0168_fw.png	270.1814088821411	1.555558681488037
169	177.15323734283447	response	0	k		167.0	/experiments/Knapen_AOT/AOT_stimuli/pictures/0168_fw.png	271.7192265987396	
170	177.170978307724	picture	0		117	168.0	/experiments/Knapen_AOT/AOT_stimuli/pictures/1641_fw.png	271.73696756362915	0.9811899662017822
170	178.13650226593018	response	0	k		168.0	/experiments/Knapen_AOT/AOT_stimuli/pictures/1641_fw.png	272.7024915218353	
171	178.15216827392578	picture	0		76	169.0	/experiments/Knapen_AOT/AOT_stimuli/pictures/0093_fw.png	272.71815752983093	0.6368894577026367
171	178.77735042572021	response	0	j		169.0	/experiments/Knapen_AOT/AOT_stimuli/pictures/0093_fw.png	273.34333968162537	
172	178.78905773162842	picture	0		139	170.0	/experiments/Knapen_AOT/AOT_stimuli/pictures/1655_fw.png	273.35504698753357	1.1631677150726318
172	179.93577313423157	response	0	k		170.0	/experiments/Knapen_AOT/AOT_stimuli/pictures/1655_fw.png	274.5017623901367	
173	179.95222544670105	picture	0		111	171.0	/experiments/Knapen_AOT/AOT_stimuli/pictures/0398_fw.png	274.5182147026062	0.9332964420318604
173	180.869389295578	response	0	j		171.0	/experiments/Knapen_AOT/AOT_stimuli/pictures/0398_fw.png	275.43537855148315	
174	180.8855218887329	picture	0		181	172.0	/experiments/Knapen_AOT/AOT_stimuli/pictures/1396_fw.png	275.45151114463806	1.514681100845337
174	182.38573288917542	response	0	j		172.0	/experiments/Knapen_AOT/AOT_stimuli/pictures/1396_fw.png	276.95172214508057	
175	182.40020298957825	picture	0		93	173.0	/experiments/Knapen_AOT/AOT_stimuli/pictures/1889_fw.png	276.9661922454834	0.7853469848632812
175	183.16176629066467	response	0	j		173.0	/experiments/Knapen_AOT/AOT_stimuli/pictures/1889_fw.png	277.7277555465698	
176	183.18554997444153	picture	0		122	174.0	/experiments/Knapen_AOT/AOT_stimuli/pictures/1920_fw.png	277.7515392303467	1.020216464996338
176	184.19414377212524	response	0	k		174.0	/experiments/Knapen_AOT/AOT_stimuli/pictures/1920_fw.png	278.7601330280304	
177	184.20576643943787	picture	0		120	175.0	/experiments/Knapen_AOT/AOT_stimuli/pictures/1292_fw.png	278.771755695343	1.0047848224639893
177	185.1940770149231	response	0	k		175.0	/experiments/Knapen_AOT/AOT_stimuli/pictures/1292_fw.png	279.76006627082825	
178	185.21055126190186	picture	0		115	176.0	/experiments/Knapen_AOT/AOT_stimuli/pictures/0870_fw.png	279.776540517807	0.960517406463623
178	186.15466451644897	response	0	k		176.0	/experiments/Knapen_AOT/AOT_stimuli/pictures/0870_fw.png	280.7206537723541	
179	186.17106866836548	picture	0		94	177.0	/experiments/Knapen_AOT/AOT_stimuli/pictures/0294_fw.png	280.73705792427063	0.7847051620483398
179	186.9441363811493	response	0	k		177.0	/experiments/Knapen_AOT/AOT_stimuli/pictures/0294_fw.png	281.51012563705444	
180	186.95577383041382	picture	0		133	178.0	/experiments/Knapen_AOT/AOT_stimuli/pictures/1425_fw.png	281.52176308631897	1.1131579875946045
180	188.05254316329956	response	0	k		178.0	/experiments/Knapen_AOT/AOT_stimuli/pictures/1425_fw.png	282.6185324192047	
181	188.06893181800842	picture	0		143	179.0	/experiments/Knapen_AOT/AOT_stimuli/pictures/1802_fw.png	282.6349210739136	1.1924018859863281
181	189.25265312194824	response	0	k		179.0	/experiments/Knapen_AOT/AOT_stimuli/pictures/1802_fw.png	283.8186423778534	
182	189.26133370399475	picture	0		159	180.0	/experiments/Knapen_AOT/AOT_stimuli/pictures/0514_fw.png	283.8273229598999	1.33266282081604
182	190.5775625705719	response	0	k		180.0	/experiments/Knapen_AOT/AOT_stimuli/pictures/0514_fw.png	285.14355182647705	
183	190.5939965248108	picture	0		95	181.0	/experiments/Knapen_AOT/AOT_stimuli/pictures/0389_fw.png	285.15998578071594	0.7923533916473389
183	191.37748908996582	response	0	k		181.0	/experiments/Knapen_AOT/AOT_stimuli/pictures/0389_fw.png	285.943478345871	
184	191.38634991645813	picture	0		114	182.0	/experiments/Knapen_AOT/AOT_stimuli/pictures/0801_fw.png	285.9523391723633	0.9514048099517822
184	192.3275909423828	response	0	k		182.0	/experiments/Knapen_AOT/AOT_stimuli/pictures/0801_fw.png	286.89358019828796	
185	192.3377547264099	picture	0		84	183.0	/experiments/Knapen_AOT/AOT_stimuli/pictures/0846_fw.png	286.90374398231506	0.7014062404632568
185	193.02754712104797	response	0	j		183.0	/experiments/Knapen_AOT/AOT_stimuli/pictures/0846_fw.png	287.5935363769531	
186	193.03916096687317	picture	0		211	184.0	/experiments/Knapen_AOT/AOT_stimuli/pictures/2066_fw.png	287.6051502227783	1.75693941116333
186	194.78590536117554	response	0	k		184.0	/experiments/Knapen_AOT/AOT_stimuli/pictures/2066_fw.png	289.3518946170807	
187	194.7961003780365	picture	0		247	185.0	/experiments/Knapen_AOT/AOT_stimuli/pictures/1762_fw.png	289.36208963394165	2.0626564025878906
187	196.8442668914795	response	0	k		185.0	/experiments/Knapen_AOT/AOT_stimuli/pictures/1762_fw.png	291.41025614738464	
188	196.8587567806244	picture	0		136	186.0	/experiments/Knapen_AOT/AOT_stimuli/pictures/2112_fw.png	291.42474603652954	1.138758659362793
188	197.9859070777893	response	0	j		186.0	/experiments/Knapen_AOT/AOT_stimuli/pictures/2112_fw.png	292.55189633369446	
189	197.99751543998718	picture	0		129	187.0	/experiments/Knapen_AOT/AOT_stimuli/pictures/0547_fw.png	292.56350469589233	1.0799102783203125
189	199.0609016418457	response	0	k		187.0	/experiments/Knapen_AOT/AOT_stimuli/pictures/0547_fw.png	293.62689089775085	
190	199.0774257183075	picture	0		170	188.0	/experiments/Knapen_AOT/AOT_stimuli/pictures/1389_fw.png	293.64341497421265	1.4201078414916992
190	200.48597598075867	response	0	k		188.0	/experiments/Knapen_AOT/AOT_stimuli/pictures/1389_fw.png	295.0519652366638	
191	200.4975335597992	picture	0		70	189.0	/experiments/Knapen_AOT/AOT_stimuli/pictures/1973_fw.png	295.06352281570435	0.5882365703582764
191	201.06939554214478	response	0	j		189.0	/experiments/Knapen_AOT/AOT_stimuli/pictures/1973_fw.png	295.6353847980499	
192	201.08577013015747	picture	0		193	190.0	/experiments/Knapen_AOT/AOT_stimuli/pictures/1256_fw.png	295.6517593860626	1.6166808605194092
192	202.68602991104126	response	0	k		190.0	/experiments/Knapen_AOT/AOT_stimuli/pictures/1256_fw.png	297.2520191669464	
193	202.70245099067688	picture	0		158	191.0	/experiments/Knapen_AOT/AOT_stimuli/pictures/0789_fw.png	297.26844024658203	1.3250489234924316
193	204.01098775863647	response	0	k		191.0	/experiments/Knapen_AOT/AOT_stimuli/pictures/0789_fw.png	298.5769770145416	
194	204.0274999141693	picture	0		134	192.0	/experiments/Knapen_AOT/AOT_stimuli/pictures/0333_fw.png	298.59348917007446	1.1228606700897217
194	205.13600873947144	response	0	k		192.0	/experiments/Knapen_AOT/AOT_stimuli/pictures/0333_fw.png	299.7019979953766	
195	205.15036058425903	picture	0		212	193.0	/experiments/Knapen_AOT/AOT_stimuli/pictures/0559_fw.png	299.7163498401642	1.7771656513214111
195	206.91099953651428	response	0	k		193.0	/experiments/Knapen_AOT/AOT_stimuli/pictures/0559_fw.png	301.47698879241943	
196	206.92752623558044	picture	0		107	194.0	/experiments/Knapen_AOT/AOT_stimuli/pictures/1311_fw.png	301.4935154914856	0.8999910354614258
196	207.8110785484314	response	0	k		194.0	/experiments/Knapen_AOT/AOT_stimuli/pictures/1311_fw.png	302.37706780433655	
197	207.82751727104187	picture	0		284	195.0	/experiments/Knapen_AOT/AOT_stimuli/pictures/0721_fw.png	302.393506526947	2.3714704513549805
197	210.18609189987183	response	0	k		195.0	/experiments/Knapen_AOT/AOT_stimuli/pictures/0721_fw.png	304.752081155777	
198	210.19898772239685	picture	0		76	196.0	/experiments/Knapen_AOT/AOT_stimuli/pictures/1572_fw.png	304.764976978302	0.6452298164367676
198	210.82803535461426	response	0	j		196.0	/experiments/Knapen_AOT/AOT_stimuli/pictures/1572_fw.png	305.3940246105194	
199	210.84421753883362	picture	0		120	197.0	/experiments/Knapen_AOT/AOT_stimuli/pictures/0663_fw.png	305.41020679473877	1.0083520412445068
199	211.83623218536377	response	0	k		197.0	/experiments/Knapen_AOT/AOT_stimuli/pictures/0663_fw.png	306.4022214412689	
200	211.85256958007812	picture	0		116	198.0	/experiments/Knapen_AOT/AOT_stimuli/pictures/1125_fw.png	306.4185588359833	0.9714486598968506
200	212.81112480163574	response	0	k		198.0	/experiments/Knapen_AOT/AOT_stimuli/pictures/1125_fw.png	307.3771140575409	
201	212.82401823997498	picture	0		243	199.0	/experiments/Knapen_AOT/AOT_stimuli/pictures/2051_fw.png	307.3900074958801	2.020890712738037
201	214.8361303806305	response	0	k		199.0	/experiments/Knapen_AOT/AOT_stimuli/pictures/2051_fw.png	309.40211963653564	
202	214.844908952713	picture	0		325	200.0	/experiments/Knapen_AOT/AOT_stimuli/pictures/0708_fw.png	309.41089820861816	2.708279848098755
202	217.5378918647766	response	0	k		200.0	/experiments/Knapen_AOT/AOT_stimuli/pictures/0708_fw.png	312.10388112068176	
203	217.55318880081177	picture	0		100	201.0	/experiments/Knapen_AOT/AOT_stimuli/pictures/0233_fw.png	312.1191780567169	0.841163158416748
203	218.3779330253601	response	0	k		201.0	/experiments/Knapen_AOT/AOT_stimuli/pictures/0233_fw.png	312.94392228126526	
204	218.39435195922852	picture	0		100	202.0	/experiments/Knapen_AOT/AOT_stimuli/pictures/0703_fw.png	312.96034121513367	0.8394381999969482
204	219.21963787078857	response	0	j		202.0	/experiments/Knapen_AOT/AOT_stimuli/pictures/0703_fw.png	313.7856271266937	
205	219.23379015922546	picture	0		249	203.0	/experiments/Knapen_AOT/AOT_stimuli/pictures/0400_fw.png	313.7997794151306	2.0855841636657715
205	221.30298566818237	response	0	j		203.0	/experiments/Knapen_AOT/AOT_stimuli/pictures/0400_fw.png	315.8689749240875	
206	221.31937432289124	picture	0		112	204.0	/experiments/Knapen_AOT/AOT_stimuli/pictures/1170_fw.png	315.8853635787964	0.9416491985321045
206	222.24458289146423	response	0	k		204.0	/experiments/Knapen_AOT/AOT_stimuli/pictures/1170_fw.png	316.8105721473694	
207	222.26102352142334	picture	0		178	205.0	/experiments/Knapen_AOT/AOT_stimuli/pictures/1607_fw.png	316.8270127773285	1.4866783618927002
207	223.73621916770935	response	0	k		205.0	/experiments/Knapen_AOT/AOT_stimuli/pictures/1607_fw.png	318.3022084236145	
208	223.74770188331604	picture	0		104	206.0	/experiments/Knapen_AOT/AOT_stimuli/pictures/2034_fw.png	318.3136911392212	0.8680541515350342
208	224.60302543640137	response	0	j		206.0	/experiments/Knapen_AOT/AOT_stimuli/pictures/2034_fw.png	319.1690146923065	
209	224.61575603485107	picture	0		88	207.0	/experiments/Knapen_AOT/AOT_stimuli/pictures/1010_fw.png	319.1817452907562	0.7369744777679443
209	225.32938075065613	response	0	j		207.0	/experiments/Knapen_AOT/AOT_stimuli/pictures/1010_fw.png	319.8953700065613	
210	225.35273051261902	picture	0		118	208.0	/experiments/Knapen_AOT/AOT_stimuli/pictures/2092_fw.png	319.91871976852417	0.9916815757751465
210	226.3281445503235	response	0	k		208.0	/experiments/Knapen_AOT/AOT_stimuli/pictures/2092_fw.png	320.89413380622864	
211	226.34441208839417	picture	0		149	209.0	/experiments/Knapen_AOT/AOT_stimuli/pictures/1568_fw.png	320.9104013442993	1.2505459785461426
211	227.57809352874756	response	0	k		209.0	/experiments/Knapen_AOT/AOT_stimuli/pictures/1568_fw.png	322.1440827846527	
212	227.5949580669403	picture	0		97	210.0	/experiments/Knapen_AOT/AOT_stimuli/pictures/0574_fw.png	322.16094732284546	0.8125
212	228.39462280273438	response	0	j		210.0	/experiments/Knapen_AOT/AOT_stimuli/pictures/0574_fw.png	322.9606120586395	
213	228.4074580669403	picture	0		208	211.0	/experiments/Knapen_AOT/AOT_stimuli/pictures/1112_fw.png	322.97344732284546	1.7431156635284424
213	230.13643264770508	response	0	j		211.0	/experiments/Knapen_AOT/AOT_stimuli/pictures/1112_fw.png	324.70242190361023	
214	230.15057373046875	picture	0		94	212.0	/experiments/Knapen_AOT/AOT_stimuli/pictures/0571_fw.png	324.7165629863739	0.791640043258667
214	230.92815732955933	response	0	k		212.0	/experiments/Knapen_AOT/AOT_stimuli/pictures/0571_fw.png	325.4941465854645	
215	230.94221377372742	picture	0		92	213.0	/experiments/Knapen_AOT/AOT_stimuli/pictures/0387_fw.png	325.50820302963257	0.7772636413574219
215	231.70321369171143	response	0	k		213.0	/experiments/Knapen_AOT/AOT_stimuli/pictures/0387_fw.png	326.2692029476166	
216	231.71947741508484	picture	0		227	214.0	/experiments/Knapen_AOT/AOT_stimuli/pictures/2172_fw.png	326.28546667099	1.9000391960144043
216	233.60304808616638	response	0	k		214.0	/experiments/Knapen_AOT/AOT_stimuli/pictures/2172_fw.png	328.16903734207153	
217	233.61951661109924	picture	0		196	215.0	/experiments/Knapen_AOT/AOT_stimuli/pictures/1155_fw.png	328.1855058670044	1.6352205276489258
217	235.24472904205322	response	0	k		215.0	/experiments/Knapen_AOT/AOT_stimuli/pictures/1155_fw.png	329.8107182979584	
218	235.25473713874817	picture	0		75	216.0	/experiments/Knapen_AOT/AOT_stimuli/pictures/0878_fw.png	329.8207263946533	0.6314795017242432
218	235.8697304725647	response	0	j		216.0	/experiments/Knapen_AOT/AOT_stimuli/pictures/0878_fw.png	330.43571972846985	
219	235.8862166404724	picture	0		124	217.0	/experiments/Knapen_AOT/AOT_stimuli/pictures/0620_fw.png	330.45220589637756	1.035264253616333
219	236.91137504577637	response	0	k		217.0	/experiments/Knapen_AOT/AOT_stimuli/pictures/0620_fw.png	331.4773643016815	
220	236.92148089408875	picture	0		192	218.0	/experiments/Knapen_AOT/AOT_stimuli/pictures/1328_fw.png	331.4874701499939	1.6041200160980225
220	238.51144218444824	response	0	k		218.0	/experiments/Knapen_AOT/AOT_stimuli/pictures/1328_fw.png	333.0774314403534	
221	238.52560091018677	picture	0		167	219.0	/experiments/Knapen_AOT/AOT_stimuli/pictures/1075_fw.png	333.0915901660919	1.395822525024414
221	239.9114592075348	response	0	j		219.0	/experiments/Knapen_AOT/AOT_stimuli/pictures/1075_fw.png	334.47744846343994	
222	239.92142343521118	picture	0		89	220.0	/experiments/Knapen_AOT/AOT_stimuli/pictures/0868_fw.png	334.48741269111633	0.7481749057769775
222	240.6531698703766	response	0	j		220.0	/experiments/Knapen_AOT/AOT_stimuli/pictures/0868_fw.png	335.21915912628174	
223	240.66959834098816	picture	0		111	221.0	/experiments/Knapen_AOT/AOT_stimuli/pictures/1922_fw.png	335.2355875968933	0.9254212379455566
223	241.58644676208496	response	0	k		221.0	/experiments/Knapen_AOT/AOT_stimuli/pictures/1922_fw.png	336.1524360179901	
224	241.59501957893372	picture	0		127	222.0	/experiments/Knapen_AOT/AOT_stimuli/pictures/0534_fw.png	336.16100883483887	1.0662589073181152
224	242.64483308792114	response	0	j		222.0	/experiments/Knapen_AOT/AOT_stimuli/pictures/0534_fw.png	337.2108223438263	
225	242.66127848625183	picture	0		107	223.0	/experiments/Knapen_AOT/AOT_stimuli/pictures/0861_fw.png	337.227267742157	0.8921060562133789
225	243.53838658332825	response	0	j		223.0	/experiments/Knapen_AOT/AOT_stimuli/pictures/0861_fw.png	338.1043758392334	
226	243.5533845424652	picture	0		121	224.0	/experiments/Knapen_AOT/AOT_stimuli/pictures/0782_fw.png	338.11937379837036	1.0139217376708984
226	244.5461287498474	response	0	j		224.0	/experiments/Knapen_AOT/AOT_stimuli/pictures/0782_fw.png	339.11211800575256	
227	244.5673062801361	picture	0		108	225.0	/experiments/Knapen_AOT/AOT_stimuli/pictures/1739_fw.png	339.13329553604126	0.9106676578521729
227	245.461820602417	response	0	k		225.0	/experiments/Knapen_AOT/AOT_stimuli/pictures/1739_fw.png	340.02780985832214	
228	245.47797393798828	picture	0		89	226.0	/experiments/Knapen_AOT/AOT_stimuli/pictures/0392_fw.png	340.04396319389343	0.7500300407409668
228	246.21167516708374	response	0	k		226.0	/experiments/Knapen_AOT/AOT_stimuli/pictures/0392_fw.png	340.7776644229889	
229	246.22800397872925	picture	0		91	227.0	/experiments/Knapen_AOT/AOT_stimuli/pictures/0173_fw.png	340.7939932346344	0.7666764259338379
229	246.97821831703186	response	0	k		227.0	/experiments/Knapen_AOT/AOT_stimuli/pictures/0173_fw.png	341.544207572937	
230	246.9946804046631	picture	0		247	228.0	/experiments/Knapen_AOT/AOT_stimuli/pictures/0855_fw.png	341.56066966056824	2.0666842460632324
230	249.0449619293213	response	0	k		228.0	/experiments/Knapen_AOT/AOT_stimuli/pictures/0855_fw.png	343.61095118522644	
231	249.06136465072632	picture	0		128	229.0	/experiments/Knapen_AOT/AOT_stimuli/pictures/1005_fw.png	343.62735390663147	1.0684587955474854
231	250.12019777297974	response	0	k		229.0	/experiments/Knapen_AOT/AOT_stimuli/pictures/1005_fw.png	344.6861870288849	
232	250.1298234462738	picture	0		83	230.0	/experiments/Knapen_AOT/AOT_stimuli/pictures/0779_fw.png	344.69581270217896	0.6944661140441895
232	250.81156158447266	response	0	j		230.0	/experiments/Knapen_AOT/AOT_stimuli/pictures/0779_fw.png	345.3775508403778	
233	250.824289560318	picture	0		84	231.0	/experiments/Knapen_AOT/AOT_stimuli/pictures/0583_fw.png	345.39027881622314	0.708364725112915
233	251.51996326446533	response	0	j		231.0	/experiments/Knapen_AOT/AOT_stimuli/pictures/0583_fw.png	346.0859525203705	
234	251.5326542854309	picture	0		83	232.0	/experiments/Knapen_AOT/AOT_stimuli/pictures/1577_fw.png	346.09864354133606	0.6954562664031982
234	252.21205258369446	response	0	j		232.0	/experiments/Knapen_AOT/AOT_stimuli/pictures/1577_fw.png	346.7780418395996	
235	252.2281105518341	picture	0		88	233.0	/experiments/Knapen_AOT/AOT_stimuli/pictures/2074_fw.png	346.79409980773926	0.7416379451751709
235	252.94585704803467	response	0	j		233.0	/experiments/Knapen_AOT/AOT_stimuli/pictures/2074_fw.png	347.5118463039398	
236	252.96974849700928	picture	0		91	234.0	/experiments/Knapen_AOT/AOT_stimuli/pictures/0448_fw.png	347.53573775291443	0.7666778564453125
236	253.72019600868225	response	0	j		234.0	/experiments/Knapen_AOT/AOT_stimuli/pictures/0448_fw.png	348.2861852645874	
237	253.7364263534546	picture	0		103	235.0	/experiments/Knapen_AOT/AOT_stimuli/pictures/1189_fw.png	348.30241560935974	0.8666698932647705
237	254.58669090270996	response	0	k		235.0	/experiments/Knapen_AOT/AOT_stimuli/pictures/1189_fw.png	349.1526801586151	
238	254.60309624671936	picture	0		95	236.0	/experiments/Knapen_AOT/AOT_stimuli/pictures/1588_fw.png	349.1690855026245	0.8000009059906006
238	255.38663458824158	response	0	k		236.0	/experiments/Knapen_AOT/AOT_stimuli/pictures/1588_fw.png	349.95262384414673	
239	255.40309715270996	picture	0		104	237.0	/experiments/Knapen_AOT/AOT_stimuli/pictures/0355_fw.png	349.9690864086151	0.8750255107879639
239	256.2616786956787	response	0	k		237.0	/experiments/Knapen_AOT/AOT_stimuli/pictures/0355_fw.png	350.82766795158386	
240	256.2781226634979	picture	0		131	238.0	/experiments/Knapen_AOT/AOT_stimuli/pictures/0286_fw.png	350.8441119194031	1.1000118255615234
240	257.36164832115173	response	0	k		238.0	/experiments/Knapen_AOT/AOT_stimuli/pictures/0286_fw.png	351.9276375770569	
241	257.37813448905945	picture	0		99	239.0	/experiments/Knapen_AOT/AOT_stimuli/pictures/0606_fw.png	351.9441237449646	0.8281469345092773
241	258.19501185417175	response	0	k		239.0	/experiments/Knapen_AOT/AOT_stimuli/pictures/0606_fw.png	352.7610011100769	
242	258.2062814235687	picture	0		99	240.0	/experiments/Knapen_AOT/AOT_stimuli/pictures/0422_fw.png	352.7722706794739	0.8302021026611328
242	259.02003169059753	response	0	j		240.0	/experiments/Knapen_AOT/AOT_stimuli/pictures/0422_fw.png	353.5860209465027	
243	259.03648352622986	picture	0		182	241.0	/experiments/Knapen_AOT/AOT_stimuli/pictures/1253_fw.png	353.602472782135	1.5250117778778076
243	260.5374608039856	response	0	k		241.0	/experiments/Knapen_AOT/AOT_stimuli/pictures/1253_fw.png	355.10345005989075	
244	260.56149530410767	picture	0		108	242.0	/experiments/Knapen_AOT/AOT_stimuli/pictures/1557_fw.png	355.1274845600128	0.9017453193664551
244	261.4533517360687	response	0	k		242.0	/experiments/Knapen_AOT/AOT_stimuli/pictures/1557_fw.png	356.0193409919739	
245	261.4632406234741	picture	0		99	243.0	/experiments/Knapen_AOT/AOT_stimuli/pictures/0273_fw.png	356.0292298793793	0.8316562175750732
245	262.2786650657654	response	0	j		243.0	/experiments/Knapen_AOT/AOT_stimuli/pictures/0273_fw.png	356.84465432167053	
246	262.2948968410492	picture	0		88	244.0	/experiments/Knapen_AOT/AOT_stimuli/pictures/0235_fw.png	356.86088609695435	0.7416746616363525
246	263.0201187133789	response	0	j		244.0	/experiments/Knapen_AOT/AOT_stimuli/pictures/0235_fw.png	357.58610796928406	
247	263.03657150268555	picture	0		190	245.0	/experiments/Knapen_AOT/AOT_stimuli/pictures/1204_fw.png	357.6025607585907	1.5864205360412598
247	264.61178255081177	response	0	k		245.0	/experiments/Knapen_AOT/AOT_stimuli/pictures/1204_fw.png	359.1777718067169	
248	264.6229920387268	picture	0		106	246.0	/experiments/Knapen_AOT/AOT_stimuli/pictures/0305_fw.png	359.18898129463196	0.8819394111633301
248	265.4951066970825	response	0	j		246.0	/experiments/Knapen_AOT/AOT_stimuli/pictures/0305_fw.png	360.06109595298767	
249	265.50493144989014	picture	0		160	247.0	/experiments/Knapen_AOT/AOT_stimuli/pictures/0615_fw.png	360.0709207057953	1.3400037288665771
249	266.828556060791	response	0	j		247.0	/experiments/Knapen_AOT/AOT_stimuli/pictures/0615_fw.png	361.39454531669617	
250	266.8449351787567	picture	0		111	248.0	/experiments/Knapen_AOT/AOT_stimuli/pictures/0488_fw.png	361.41092443466187	0.9333415031433105
250	267.76188564300537	response	0	k		248.0	/experiments/Knapen_AOT/AOT_stimuli/pictures/0488_fw.png	362.3278748989105	
251	267.7782766819	picture	0		165	249.0	/experiments/Knapen_AOT/AOT_stimuli/pictures/0366_fw.png	362.3442659378052	1.3795630931854248
251	269.1375849246979	response	0	k		249.0	/experiments/Knapen_AOT/AOT_stimuli/pictures/0366_fw.png	363.703574180603	
252	269.15783977508545	picture	0		100	250.0	/experiments/Knapen_AOT/AOT_stimuli/pictures/0876_fw.png	363.7238290309906	0.8454306125640869
252	269.9869816303253	response	0	j		250.0	/experiments/Knapen_AOT/AOT_stimuli/pictures/0876_fw.png	364.55297088623047	
253	270.00327038764954	picture	0		133	251.0	/experiments/Knapen_AOT/AOT_stimuli/pictures/0783_fw.png	364.5692596435547	1.1166925430297852
253	271.10349774360657	response	0	k		251.0	/experiments/Knapen_AOT/AOT_stimuli/pictures/0783_fw.png	365.6694869995117	
254	271.1199629306793	picture	0		151	252.0	/experiments/Knapen_AOT/AOT_stimuli/pictures/1165_fw.png	365.6859521865845	1.2666916847229004
254	272.37019968032837	response	0	k		252.0	/experiments/Knapen_AOT/AOT_stimuli/pictures/1165_fw.png	366.9361889362335	
255	272.3866546154022	picture	0		102	253.0	/experiments/Knapen_AOT/AOT_stimuli/pictures/0202_fw.png	366.9526438713074	0.8544535636901855
255	273.2285234928131	response	0	k		253.0	/experiments/Knapen_AOT/AOT_stimuli/pictures/0202_fw.png	367.79451274871826	
256	273.2411081790924	picture	0		102	254.0	/experiments/Knapen_AOT/AOT_stimuli/pictures/0003_fw.png	367.80709743499756	0.854154109954834
256	274.0868630409241	response	0	j		254.0	/experiments/Knapen_AOT/AOT_stimuli/pictures/0003_fw.png	368.6528522968292	
257	274.09526228904724	picture	0		147	255.0	/experiments/Knapen_AOT/AOT_stimuli/pictures/1184_fw.png	368.6612515449524	1.2331082820892334
257	275.3118984699249	response	0	k		255.0	/experiments/Knapen_AOT/AOT_stimuli/pictures/1184_fw.png	369.8778877258301	
258	275.3283705711365	picture	0		137	256.0	/experiments/Knapen_AOT/AOT_stimuli/pictures/0278_fw.png	369.8943598270416	1.1500084400177002
258	276.46188974380493	response	0	j		256.0	/experiments/Knapen_AOT/AOT_stimuli/pictures/0278_fw.png	371.0278789997101	
259	276.4783790111542	picture	0		96	257.0	/experiments/Knapen_AOT/AOT_stimuli/pictures/0512_fw.png	371.0443682670593	0.8083944320678711
259	277.2702708244324	response	0	k		257.0	/experiments/Knapen_AOT/AOT_stimuli/pictures/0512_fw.png	371.8362600803375	
260	277.28677344322205	picture	0		94	258.0	/experiments/Knapen_AOT/AOT_stimuli/pictures/0483_fw.png	371.8527626991272	0.7916200160980225
260	278.06221890449524	response	0	j		258.0	/experiments/Knapen_AOT/AOT_stimuli/pictures/0483_fw.png	372.6282081604004	
261	278.07839345932007	picture	0		159	259.0	/experiments/Knapen_AOT/AOT_stimuli/pictures/1460_fw.png	372.6443827152252	1.3333511352539062
261	279.39524936676025	response	0	j		259.0	/experiments/Knapen_AOT/AOT_stimuli/pictures/1460_fw.png	373.9612386226654	
262	279.411744594574	picture	0		95	260.0	/experiments/Knapen_AOT/AOT_stimuli/pictures/1225_fw.png	373.9777338504791	0.8000850677490234
262	280.19532322883606	response	0	k		260.0	/experiments/Knapen_AOT/AOT_stimuli/pictures/1225_fw.png	374.7613124847412	
263	280.211829662323	picture	0		112	261.0	/experiments/Knapen_AOT/AOT_stimuli/pictures/1908_fw.png	374.77781891822815	0.9390666484832764
263	281.12970757484436	response	0	k		261.0	/experiments/Knapen_AOT/AOT_stimuli/pictures/1908_fw.png	375.6956968307495	
264	281.1508963108063	picture	0		76	262.0	/experiments/Knapen_AOT/AOT_stimuli/pictures/1953_fw.png	375.7168855667114	0.6442294120788574
264	281.77865266799927	response	0	j		262.0	/experiments/Knapen_AOT/AOT_stimuli/pictures/1953_fw.png	376.3446419239044	
265	281.79512572288513	picture	0		101	263.0	/experiments/Knapen_AOT/AOT_stimuli/pictures/1457_fw.png	376.3611149787903	0.8418588638305664
265	282.6286563873291	response	0	j		263.0	/experiments/Knapen_AOT/AOT_stimuli/pictures/1457_fw.png	377.19464564323425	
266	282.6369845867157	picture	0		119	264.0	/experiments/Knapen_AOT/AOT_stimuli/pictures/1859_fw.png	377.20297384262085	0.999798059463501
266	283.62035274505615	response	0	k		264.0	/experiments/Knapen_AOT/AOT_stimuli/pictures/1859_fw.png	378.1863420009613	
267	283.6367826461792	picture	0		305	265.0	/experiments/Knapen_AOT/AOT_stimuli/pictures/0347_fw.png	378.20277190208435	2.5500783920288086
267	286.1705000400543	response	0	j		265.0	/experiments/Knapen_AOT/AOT_stimuli/pictures/0347_fw.png	380.7364892959595	
268	286.186861038208	picture	0		140	266.0	/experiments/Knapen_AOT/AOT_stimuli/pictures/2173_fw.png	380.75285029411316	1.1724131107330322
268	287.3388044834137	response	0	j		266.0	/experiments/Knapen_AOT/AOT_stimuli/pictures/2173_fw.png	381.90479373931885	
269	287.35927414894104	picture	0		231	267.0	/experiments/Knapen_AOT/AOT_stimuli/pictures/1334_fw.png	381.9252634048462	1.9305548667907715
269	289.2787296772003	response	0	j		267.0	/experiments/Knapen_AOT/AOT_stimuli/pictures/1334_fw.png	383.84471893310547	
270	289.2898290157318	picture	0		160	268.0	/experiments/Knapen_AOT/AOT_stimuli/pictures/0492_fw.png	383.85581827163696	1.3387653827667236
270	290.6121070384979	response	0	k		268.0	/experiments/Knapen_AOT/AOT_stimuli/pictures/0492_fw.png	385.1780962944031	
271	290.62859439849854	picture	0		95	269.0	/experiments/Knapen_AOT/AOT_stimuli/pictures/1185_fw.png	385.1945836544037	0.7999746799468994
271	291.41216135025024	response	0	k		269.0	/experiments/Knapen_AOT/AOT_stimuli/pictures/1185_fw.png	385.9781506061554	
272	291.42856907844543	picture	0		148	270.0	/experiments/Knapen_AOT/AOT_stimuli/pictures/1220_fw.png	385.9945583343506	1.2362816333770752
272	292.6538212299347	response	0	j		270.0	/experiments/Knapen_AOT/AOT_stimuli/pictures/1220_fw.png	387.21981048583984	
273	292.6648507118225	picture	0		173	271.0	/experiments/Knapen_AOT/AOT_stimuli/pictures/1600_fw.png	387.23083996772766	1.4470818042755127
273	294.09548807144165	response	0	k		271.0	/experiments/Knapen_AOT/AOT_stimuli/pictures/1600_fw.png	388.6614773273468	
274	294.111932516098	picture	0		117	272.0	/experiments/Knapen_AOT/AOT_stimuli/pictures/0958_fw.png	388.6779217720032	0.9833290576934814
274	295.0789074897766	response	0	k		272.0	/experiments/Knapen_AOT/AOT_stimuli/pictures/0958_fw.png	389.64489674568176	
275	295.0952615737915	picture	0		105	273.0	/experiments/Knapen_AOT/AOT_stimuli/pictures/2106_fw.png	389.66125082969666	0.8833460807800293
275	295.96207308769226	response	0	k		273.0	/experiments/Knapen_AOT/AOT_stimuli/pictures/2106_fw.png	390.5280623435974	
276	295.97860765457153	picture	0		141	274.0	/experiments/Knapen_AOT/AOT_stimuli/pictures/1788_fw.png	390.5445969104767	1.1833391189575195
276	297.1454963684082	response	0	k		274.0	/experiments/Knapen_AOT/AOT_stimuli/pictures/1788_fw.png	391.71148562431335	
277	297.16194677352905	picture	0		114	275.0	/experiments/Knapen_AOT/AOT_stimuli/pictures/1470_fw.png	391.7279360294342	0.9584133625030518
277	298.1038100719452	response	0	j		275.0	/experiments/Knapen_AOT/AOT_stimuli/pictures/1470_fw.png	392.66979932785034	
278	298.1203601360321	picture	0		102	276.0	/experiments/Knapen_AOT/AOT_stimuli/pictures/1148_fw.png	392.68634939193726	0.8500730991363525
278	298.9621391296387	response	0	k		276.0	/experiments/Knapen_AOT/AOT_stimuli/pictures/1148_fw.png	393.5281283855438	
279	298.97043323516846	picture	0		170	277.0	/experiments/Knapen_AOT/AOT_stimuli/pictures/1611_fw.png	393.5364224910736	1.4166889190673828
279	300.3790934085846	response	0	k		277.0	/experiments/Knapen_AOT/AOT_stimuli/pictures/1611_fw.png	394.94508266448975	
280	300.38712215423584	picture	0		181	278.0	/experiments/Knapen_AOT/AOT_stimuli/pictures/2001_fw.png	394.953111410141	1.5165715217590332
280	301.8871500492096	response	0	j		278.0	/experiments/Knapen_AOT/AOT_stimuli/pictures/2001_fw.png	396.45313930511475	
281	301.9036936759949	picture	0		83	279.0	/experiments/Knapen_AOT/AOT_stimuli/pictures/1254_fw.png	396.4696829319	0.7000124454498291
281	302.58731865882874	response	0	j		279.0	/experiments/Knapen_AOT/AOT_stimuli/pictures/1254_fw.png	397.1533079147339	
282	302.6037061214447	picture	0		83	280.0	/experiments/Knapen_AOT/AOT_stimuli/pictures/0973_fw.png	397.16969537734985	0.70001220703125
282	303.2871870994568	response	0	j		280.0	/experiments/Knapen_AOT/AOT_stimuli/pictures/0973_fw.png	397.85317635536194	
283	303.30371832847595	picture	0		110	281.0	/experiments/Knapen_AOT/AOT_stimuli/pictures/1142_fw.png	397.8697075843811	0.9249966144561768
283	304.2122025489807	response	0	k		281.0	/experiments/Knapen_AOT/AOT_stimuli/pictures/1142_fw.png	398.77819180488586	
284	304.22871494293213	picture	0		114	282.0	/experiments/Knapen_AOT/AOT_stimuli/pictures/0687_fw.png	398.7947041988373	0.9583587646484375
284	305.1704971790314	response	0	j		282.0	/experiments/Knapen_AOT/AOT_stimuli/pictures/0687_fw.png	399.7364864349365	
285	305.18707370758057	picture	0		104	283.0	/experiments/Knapen_AOT/AOT_stimuli/pictures/0831_fw.png	399.7530629634857	0.8750057220458984
285	306.0457465648651	response	0	k		283.0	/experiments/Knapen_AOT/AOT_stimuli/pictures/0831_fw.png	400.61173582077026	
286	306.06207942962646	picture	0		88	284.0	/experiments/Knapen_AOT/AOT_stimuli/pictures/0519_fw.png	400.6280686855316	0.7417232990264893
286	306.787202835083	response	0	j		284.0	/experiments/Knapen_AOT/AOT_stimuli/pictures/0519_fw.png	401.35319209098816	
287	306.80380272865295	picture	0		87	285.0	/experiments/Knapen_AOT/AOT_stimuli/pictures/2093_fw.png	401.3697919845581	0.7332913875579834
287	307.5205833911896	response	0	j		285.0	/experiments/Knapen_AOT/AOT_stimuli/pictures/2093_fw.png	402.0865726470947	
288	307.53709411621094	picture	0		133	286.0	/experiments/Knapen_AOT/AOT_stimuli/pictures/0540_fw.png	402.1030833721161	1.116670846939087
288	308.63722372055054	response	0	j		286.0	/experiments/Knapen_AOT/AOT_stimuli/pictures/0540_fw.png	403.2032129764557	
289	308.65376496315	picture	0		127	287.0	/experiments/Knapen_AOT/AOT_stimuli/pictures/0390_fw.png	403.2197542190552	1.0666754245758057
289	309.70397448539734	response	0	k		287.0	/experiments/Knapen_AOT/AOT_stimuli/pictures/0390_fw.png	404.2699637413025	
290	309.72044038772583	picture	0		163	288.0	/experiments/Knapen_AOT/AOT_stimuli/pictures/1411_fw.png	404.286429643631	1.3667833805084229
290	311.07059502601624	response	0	j		288.0	/experiments/Knapen_AOT/AOT_stimuli/pictures/1411_fw.png	405.6365842819214	
291	311.08722376823425	picture	0		159	289.0	/experiments/Knapen_AOT/AOT_stimuli/pictures/0504_fw.png	405.6532130241394	1.3332939147949219
291	312.4040012359619	response	0	k		289.0	/experiments/Knapen_AOT/AOT_stimuli/pictures/0504_fw.png	406.96999049186707	
292	312.4205176830292	picture	0		97	290.0	/experiments/Knapen_AOT/AOT_stimuli/pictures/0458_fw.png	406.9865069389343	0.813922643661499
292	313.2207009792328	response	0	k		290.0	/experiments/Knapen_AOT/AOT_stimuli/pictures/0458_fw.png	407.78669023513794	
293	313.2344403266907	picture	0		97	291.0	/experiments/Knapen_AOT/AOT_stimuli/pictures/0264_fw.png	407.8004295825958	0.8194031715393066
293	314.03731179237366	response	0	k		291.0	/experiments/Knapen_AOT/AOT_stimuli/pictures/0264_fw.png	408.6033010482788	
294	314.05384349823	picture	0		105	292.0	/experiments/Knapen_AOT/AOT_stimuli/pictures/0063_fw.png	408.61983275413513	0.8833334445953369
294	314.9206624031067	response	0	j		292.0	/experiments/Knapen_AOT/AOT_stimuli/pictures/0063_fw.png	409.48665165901184	
295	314.9371769428253	picture	0		191	293.0	/experiments/Knapen_AOT/AOT_stimuli/pictures/0626_fw.png	409.50316619873047	1.6000392436981201
295	316.5206570625305	response	0	k		293.0	/experiments/Knapen_AOT/AOT_stimuli/pictures/0626_fw.png	411.08664631843567	
296	316.53721618652344	picture	0		91	294.0	/experiments/Knapen_AOT/AOT_stimuli/pictures/1521_fw.png	411.1032054424286	0.766660213470459
296	317.2873797416687	response	0	j		294.0	/experiments/Knapen_AOT/AOT_stimuli/pictures/1521_fw.png	411.85336899757385	
297	317.3038763999939	picture	0		136	295.0	/experiments/Knapen_AOT/AOT_stimuli/pictures/0580_fw.png	411.86986565589905	1.1389880180358887
297	318.4290373325348	response	0	k		295.0	/experiments/Knapen_AOT/AOT_stimuli/pictures/0580_fw.png	412.99502658843994	
298	318.4428644180298	picture	0		88	296.0	/experiments/Knapen_AOT/AOT_stimuli/pictures/0303_fw.png	413.00885367393494	0.7443842887878418
298	319.1707139015198	response	0	k		296.0	/experiments/Knapen_AOT/AOT_stimuli/pictures/0303_fw.png	413.7367031574249	
299	319.1872487068176	picture	0		100	297.0	/experiments/Knapen_AOT/AOT_stimuli/pictures/1743_fw.png	413.7532379627228	0.8416669368743896
299	320.01239800453186	response	0	j		297.0	/experiments/Knapen_AOT/AOT_stimuli/pictures/1743_fw.png	414.578387260437	
300	320.028915643692	picture	0		100	298.0	/experiments/Knapen_AOT/AOT_stimuli/pictures/0058_fw.png	414.59490489959717	0.8417155742645264
300	320.8540780544281	response	0	j		298.0	/experiments/Knapen_AOT/AOT_stimuli/pictures/0058_fw.png	415.42006731033325	
301	320.87063121795654	picture	0		102	299.0	/experiments/Knapen_AOT/AOT_stimuli/pictures/0491_fw.png	415.4366204738617	0.8583042621612549
301	321.7124238014221	response	0	j		299.0	/experiments/Knapen_AOT/AOT_stimuli/pictures/0491_fw.png	416.27841305732727	
302	321.7289354801178	picture	0		77	300.0	/experiments/Knapen_AOT/AOT_stimuli/pictures/0440_fw.png	416.29492473602295	0.6499905586242676
302	322.3623969554901	response	0	j		300.0	/experiments/Knapen_AOT/AOT_stimuli/pictures/0440_fw.png	416.92838621139526	
303	322.37892603874207	picture	0		118	301.0	/experiments/Knapen_AOT/AOT_stimuli/pictures/1035_fw.png	416.9449152946472	0.9917147159576416
303	323.3541193008423	response	0	k		301.0	/experiments/Knapen_AOT/AOT_stimuli/pictures/1035_fw.png	417.92010855674744	
304	323.3706407546997	picture	0		137	302.0	/experiments/Knapen_AOT/AOT_stimuli/pictures/2117_fw.png	417.93663001060486	1.1499955654144287
304	324.5040657520294	response	0	k		302.0	/experiments/Knapen_AOT/AOT_stimuli/pictures/2117_fw.png	419.07005500793457	
305	324.52063632011414	picture	0		76	303.0	/experiments/Knapen_AOT/AOT_stimuli/pictures/1716_fw.png	419.0866255760193	0.6417567729949951
305	325.14582562446594	response	0	j		303.0	/experiments/Knapen_AOT/AOT_stimuli/pictures/1716_fw.png	419.7118148803711	
306	325.16239309310913	picture	0		87	304.0	/experiments/Knapen_AOT/AOT_stimuli/pictures/1551_fw.png	419.7283823490143	0.733302116394043
306	325.87914061546326	response	0	j		304.0	/experiments/Knapen_AOT/AOT_stimuli/pictures/1551_fw.png	420.4451298713684	
307	325.8956952095032	picture	0		90	305.0	/experiments/Knapen_AOT/AOT_stimuli/pictures/1853_fw.png	420.4616844654083	0.7583141326904297
307	326.6374680995941	response	0	j		305.0	/experiments/Knapen_AOT/AOT_stimuli/pictures/1853_fw.png	421.20345735549927	
308	326.6540093421936	picture	0		98	306.0	/experiments/Knapen_AOT/AOT_stimuli/pictures/1687_fw.png	421.21999859809875	0.8166587352752686
308	327.4624967575073	response	0	j		306.0	/experiments/Knapen_AOT/AOT_stimuli/pictures/1687_fw.png	422.0284860134125	
309	327.4706680774689	picture	0		156	307.0	/experiments/Knapen_AOT/AOT_stimuli/pictures/0567_fw.png	422.036657333374	1.3083527088165283
309	328.7625012397766	response	0	k		307.0	/experiments/Knapen_AOT/AOT_stimuli/pictures/0567_fw.png	423.32849049568176	
310	328.7790207862854	picture	0		84	308.0	/experiments/Knapen_AOT/AOT_stimuli/pictures/1504_fw.png	423.34501004219055	0.7083373069763184
310	329.4708569049835	response	0	j		308.0	/experiments/Knapen_AOT/AOT_stimuli/pictures/1504_fw.png	424.0368461608887	
311	329.4873580932617	picture	0		151	309.0	/experiments/Knapen_AOT/AOT_stimuli/pictures/1017_fw.png	424.05334734916687	1.266674518585205
311	330.73756527900696	response	0	k		309.0	/experiments/Knapen_AOT/AOT_stimuli/pictures/1017_fw.png	425.3035545349121	
312	330.7540326118469	picture	0		104	310.0	/experiments/Knapen_AOT/AOT_stimuli/pictures/0255_fw.png	425.3200218677521	0.8694620132446289
312	331.612539768219	response	0	j		310.0	/experiments/Knapen_AOT/AOT_stimuli/pictures/0255_fw.png	426.17852902412415	
313	331.62349462509155	picture	0		110	311.0	/experiments/Knapen_AOT/AOT_stimuli/pictures/1143_fw.png	426.1894838809967	0.9222972393035889
313	332.52163434028625	response	0	k		311.0	/experiments/Knapen_AOT/AOT_stimuli/pictures/1143_fw.png	427.0876235961914	
314	332.54579186439514	picture	0		93	312.0	/experiments/Knapen_AOT/AOT_stimuli/pictures/1897_fw.png	427.1117811203003	0.7833776473999023
314	333.3125386238098	response	0	j		312.0	/experiments/Knapen_AOT/AOT_stimuli/pictures/1897_fw.png	427.87852787971497	
315	333.32916951179504	picture	0		193	313.0	/experiments/Knapen_AOT/AOT_stimuli/pictures/2101_fw.png	427.8951587677002	1.6166043281555176
315	334.92247247695923	response	0	j		313.0	/experiments/Knapen_AOT/AOT_stimuli/pictures/2101_fw.png	429.4884617328644	
316	334.94577383995056	picture	0		177	314.0	/experiments/Knapen_AOT/AOT_stimuli/pictures/1307_fw.png	429.5117630958557	1.4833409786224365
316	336.4126121997833	response	0	j		314.0	/experiments/Knapen_AOT/AOT_stimuli/pictures/1307_fw.png	430.9786014556885	
317	336.429114818573	picture	0		119	315.0	/experiments/Knapen_AOT/AOT_stimuli/pictures/1239_fw.png	430.99510407447815	1.0000429153442383
317	337.4126965999603	response	0	j		315.0	/experiments/Knapen_AOT/AOT_stimuli/pictures/1239_fw.png	431.9786858558655	
318	337.42915773391724	picture	0		147	316.0	/experiments/Knapen_AOT/AOT_stimuli/pictures/1968_fw.png	431.9951469898224	1.2333250045776367
318	338.64602041244507	response	0	k		316.0	/experiments/Knapen_AOT/AOT_stimuli/pictures/1968_fw.png	433.2120096683502	
319	338.6624827384949	picture	0		105	317.0	/experiments/Knapen_AOT/AOT_stimuli/pictures/0599_fw.png	433.2284719944	0.8833224773406982
319	339.52169156074524	response	0	j		317.0	/experiments/Knapen_AOT/AOT_stimuli/pictures/0599_fw.png	434.0876808166504	
320	339.54580521583557	picture	0		115	318.0	/experiments/Knapen_AOT/AOT_stimuli/pictures/0201_fw.png	434.1117944717407	0.9666914939880371
320	340.4960753917694	response	0	j		318.0	/experiments/Knapen_AOT/AOT_stimuli/pictures/0201_fw.png	435.06206464767456	
321	340.5124967098236	picture	0		190	319.0	/experiments/Knapen_AOT/AOT_stimuli/pictures/0539_fw.png	435.07848596572876	1.59177565574646
321	342.0876352787018	response	0	k		319.0	/experiments/Knapen_AOT/AOT_stimuli/pictures/0539_fw.png	436.65362453460693	
322	342.10427236557007	picture	0		88	320.0	/experiments/Knapen_AOT/AOT_stimuli/pictures/1569_fw.png	436.6702616214752	0.7415947914123535
322	342.82934761047363	response	0	j		320.0	/experiments/Knapen_AOT/AOT_stimuli/pictures/1569_fw.png	437.3953368663788	
323	342.8458671569824	picture	0		86	321.0	/experiments/Knapen_AOT/AOT_stimuli/pictures/0951_fw.png	437.4118564128876	0.7221381664276123
323	343.5543270111084	response	0	j		321.0	/experiments/Knapen_AOT/AOT_stimuli/pictures/0951_fw.png	438.12031626701355	
324	343.56800532341003	picture	0		199	322.0	/experiments/Knapen_AOT/AOT_stimuli/pictures/1444_fw.png	438.1339945793152	1.6667072772979736
324	345.22102212905884	response	0	k		322.0	/experiments/Knapen_AOT/AOT_stimuli/pictures/1444_fw.png	439.787011384964	
325	345.234712600708	picture	0		107	323.0	/experiments/Knapen_AOT/AOT_stimuli/pictures/1113_fw.png	439.80070185661316	0.895801305770874
325	346.1136236190796	response	0	j		323.0	/experiments/Knapen_AOT/AOT_stimuli/pictures/1113_fw.png	440.67961287498474	
326	346.1305139064789	picture	0		150	324.0	/experiments/Knapen_AOT/AOT_stimuli/pictures/0837_fw.png	440.69650316238403	1.2570810317993164
326	347.3711018562317	response	0	k		324.0	/experiments/Knapen_AOT/AOT_stimuli/pictures/0837_fw.png	441.93709111213684	
327	347.3875949382782	picture	0		114	325.0	/experiments/Knapen_AOT/AOT_stimuli/pictures/1527_fw.png	441.95358419418335	0.9583444595336914
327	348.32187962532043	response	0	k		325.0	/experiments/Knapen_AOT/AOT_stimuli/pictures/1527_fw.png	442.8878688812256	
328	348.3459393978119	picture	0		100	326.0	/experiments/Knapen_AOT/AOT_stimuli/pictures/1940_fw.png	442.91192865371704	0.8333501815795898
328	349.1710705757141	response	0	k		326.0	/experiments/Knapen_AOT/AOT_stimuli/pictures/1940_fw.png	443.73705983161926	
329	349.1792895793915	picture	0		117	327.0	/experiments/Knapen_AOT/AOT_stimuli/pictures/1543_fw.png	443.74527883529663	0.9833345413208008
329	350.14612436294556	response	0	k		327.0	/experiments/Knapen_AOT/AOT_stimuli/pictures/1543_fw.png	444.7121136188507	
330	350.1626241207123	picture	0		128	328.0	/experiments/Knapen_AOT/AOT_stimuli/pictures/0629_fw.png	444.72861337661743	1.0721991062164307
330	351.22116804122925	response	0	k		328.0	/experiments/Knapen_AOT/AOT_stimuli/pictures/0629_fw.png	445.7871572971344	
331	351.2348232269287	picture	0		208	329.0	/experiments/Knapen_AOT/AOT_stimuli/pictures/2128_fw.png	445.80081248283386	1.7361323833465576
331	352.96277928352356	response	0	k		329.0	/experiments/Knapen_AOT/AOT_stimuli/pictures/2128_fw.png	447.5287685394287	
332	352.97095561027527	picture	0		88	330.0	/experiments/Knapen_AOT/AOT_stimuli/pictures/0984_fw.png	447.5369448661804	0.7417166233062744
332	353.6961283683777	response	0	j		330.0	/experiments/Knapen_AOT/AOT_stimuli/pictures/0984_fw.png	448.26211762428284	
333	353.71267223358154	picture	0		182	331.0	/experiments/Knapen_AOT/AOT_stimuli/pictures/0515_fw.png	448.2786614894867	1.5250093936920166
333	355.2211592197418	response	0	k		331.0	/experiments/Knapen_AOT/AOT_stimuli/pictures/0515_fw.png	449.787148475647	
334	355.23768162727356	picture	0		105	332.0	/experiments/Knapen_AOT/AOT_stimuli/pictures/0940_fw.png	449.8036708831787	0.8833348751068115
334	356.1045422554016	response	0	j		332.0	/experiments/Knapen_AOT/AOT_stimuli/pictures/0940_fw.png	450.67053151130676	
335	356.12101650238037	picture	0		177	333.0	/experiments/Knapen_AOT/AOT_stimuli/pictures/1702_fw.png	450.6870057582855	1.4833581447601318
335	357.5878622531891	response	0	k		333.0	/experiments/Knapen_AOT/AOT_stimuli/pictures/1702_fw.png	452.15385150909424	
336	357.6043746471405	picture	0		160	334.0	/experiments/Knapen_AOT/AOT_stimuli/pictures/0194_fw.png	452.17036390304565	1.341712236404419
336	358.9296078681946	response	0	k		334.0	/experiments/Knapen_AOT/AOT_stimuli/pictures/0194_fw.png	453.49559712409973	
337	358.9460868835449	picture	0		174	335.0	/experiments/Knapen_AOT/AOT_stimuli/pictures/0257_fw.png	453.5120761394501	1.4583308696746826
337	360.3880913257599	response	0	k		335.0	/experiments/Knapen_AOT/AOT_stimuli/pictures/0257_fw.png	454.95408058166504	
338	360.4044177532196	picture	0		508	336.0	/experiments/Knapen_AOT/AOT_stimuli/pictures/0516_fw.png	454.97040700912476	4.241736650466919
338	364.62959361076355	response	0	k		336.0	/experiments/Knapen_AOT/AOT_stimuli/pictures/0516_fw.png	459.1955828666687	
339	364.6461544036865	picture	0		99	337.0	/experiments/Knapen_AOT/AOT_stimuli/pictures/1475_fw.png	459.2121436595917	0.8333234786987305
339	365.46296095848083	response	0	k		337.0	/experiments/Knapen_AOT/AOT_stimuli/pictures/1475_fw.png	460.028950214386	
340	365.47947788238525	picture	0		76	338.0	/experiments/Knapen_AOT/AOT_stimuli/pictures/0373_fw.png	460.0454671382904	0.6416800022125244
340	366.104695558548	response	0	j		338.0	/experiments/Knapen_AOT/AOT_stimuli/pictures/0373_fw.png	460.6706848144531	
341	366.1211578845978	picture	0		110	339.0	/experiments/Knapen_AOT/AOT_stimuli/pictures/1833_fw.png	460.68714714050293	0.9250175952911377
341	367.02969765663147	response	0	k		339.0	/experiments/Knapen_AOT/AOT_stimuli/pictures/1833_fw.png	461.5956869125366	
342	367.0461754798889	picture	0		85	340.0	/experiments/Knapen_AOT/AOT_stimuli/pictures/0109_fw.png	461.61216473579407	0.7167389392852783
342	367.7464575767517	response	0	j		340.0	/experiments/Knapen_AOT/AOT_stimuli/pictures/0109_fw.png	462.31244683265686	
343	367.7629144191742	picture	0		116	341.0	/experiments/Knapen_AOT/AOT_stimuli/pictures/2035_fw.png	462.32890367507935	0.9719359874725342
343	368.71386098861694	response	0	k		341.0	/experiments/Knapen_AOT/AOT_stimuli/pictures/2035_fw.png	463.2798502445221	
344	368.73485040664673	picture	0		99	342.0	/experiments/Knapen_AOT/AOT_stimuli/pictures/1759_fw.png	463.3008396625519	0.8363392353057861
344	369.55465507507324	response	0	k		342.0	/experiments/Knapen_AOT/AOT_stimuli/pictures/1759_fw.png	464.1206443309784	
345	369.5711896419525	picture	0		113	343.0	/experiments/Knapen_AOT/AOT_stimuli/pictures/0010_fw.png	464.13717889785767	0.9500212669372559
345	370.4980413913727	response	0	j		343.0	/experiments/Knapen_AOT/AOT_stimuli/pictures/0010_fw.png	465.06403064727783	
346	370.52121090888977	picture	0		95	344.0	/experiments/Knapen_AOT/AOT_stimuli/pictures/1867_fw.png	465.0872001647949	0.8000302314758301
346	371.3047080039978	response	0	k		344.0	/experiments/Knapen_AOT/AOT_stimuli/pictures/1867_fw.png	465.87069725990295	
347	371.3212411403656	picture	0		133	345.0	/experiments/Knapen_AOT/AOT_stimuli/pictures/0944_fw.png	465.88723039627075	1.1166605949401855
347	372.4213480949402	response	0	k		345.0	/experiments/Knapen_AOT/AOT_stimuli/pictures/0944_fw.png	466.98733735084534	
348	372.4379017353058	picture	0		90	346.0	/experiments/Knapen_AOT/AOT_stimuli/pictures/1558_fw.png	467.00389099121094	0.7553162574768066
348	373.17971420288086	response	0	k		346.0	/experiments/Knapen_AOT/AOT_stimuli/pictures/1558_fw.png	467.745703458786	
349	373.1932179927826	picture	0		92	347.0	/experiments/Knapen_AOT/AOT_stimuli/pictures/0395_fw.png	467.75920724868774	0.7708237171173096
349	373.95477294921875	response	0	k		347.0	/experiments/Knapen_AOT/AOT_stimuli/pictures/0395_fw.png	468.5207622051239	
350	373.9640417098999	picture	0		100	348.0	/experiments/Knapen_AOT/AOT_stimuli/pictures/1169_fw.png	468.53003096580505	0.8405539989471436
350	374.7881395816803	response	0	k		348.0	/experiments/Knapen_AOT/AOT_stimuli/pictures/1169_fw.png	469.35412883758545	
351	374.80459570884705	picture	0		202	349.0	/experiments/Knapen_AOT/AOT_stimuli/pictures/0474_fw.png	469.3705849647522	1.6916983127593994
351	376.47980546951294	response	0	k		349.0	/experiments/Knapen_AOT/AOT_stimuli/pictures/0474_fw.png	471.0457947254181	
352	376.49629402160645	picture	0		125	350.0	/experiments/Knapen_AOT/AOT_stimuli/pictures/0094_fw.png	471.0622832775116	1.0499935150146484
352	377.5297882556915	response	0	j		350.0	/experiments/Knapen_AOT/AOT_stimuli/pictures/0094_fw.png	472.0957775115967	
353	377.5462875366211	picture	0		115	351.0	/experiments/Knapen_AOT/AOT_stimuli/pictures/1747_fw.png	472.11227679252625	0.9594504833221436
353	378.49658465385437	response	0	k		351.0	/experiments/Knapen_AOT/AOT_stimuli/pictures/1747_fw.png	473.0625739097595	
354	378.50573801994324	picture	0		91	352.0	/experiments/Knapen_AOT/AOT_stimuli/pictures/1847_fw.png	473.0717272758484	0.7655725479125977
354	379.2548089027405	response	0	j		352.0	/experiments/Knapen_AOT/AOT_stimuli/pictures/1847_fw.png	473.82079815864563	
355	379.27131056785583	picture	0		111	353.0	/experiments/Knapen_AOT/AOT_stimuli/pictures/2166_fw.png	473.837299823761	0.9333562850952148
355	380.18814873695374	response	0	k		353.0	/experiments/Knapen_AOT/AOT_stimuli/pictures/2166_fw.png	474.7541379928589	
356	380.20466685295105	picture	0		185	354.0	/experiments/Knapen_AOT/AOT_stimuli/pictures/2085_fw.png	474.7706561088562	1.544159173965454
356	381.73813223838806	response	0	k		354.0	/experiments/Knapen_AOT/AOT_stimuli/pictures/2085_fw.png	476.3041214942932	
357	381.7488260269165	picture	0		88	355.0	/experiments/Knapen_AOT/AOT_stimuli/pictures/1115_fw.png	476.31481528282166	0.7391812801361084
357	382.4715778827667	response	0	j		355.0	/experiments/Knapen_AOT/AOT_stimuli/pictures/1115_fw.png	477.0375671386719	
358	382.4880073070526	picture	0		130	356.0	/experiments/Knapen_AOT/AOT_stimuli/pictures/1440_fw.png	477.05399656295776	1.0917198657989502
358	383.5631802082062	response	0	k		356.0	/experiments/Knapen_AOT/AOT_stimuli/pictures/1440_fw.png	478.1291694641113	
359	383.57972717285156	picture	0		149	357.0	/experiments/Knapen_AOT/AOT_stimuli/pictures/1320_fw.png	478.1457164287567	1.2455060482025146
359	384.8131637573242	response	0	k		357.0	/experiments/Knapen_AOT/AOT_stimuli/pictures/1320_fw.png	479.37915301322937	
360	384.8252332210541	picture	0		92	358.0	/experiments/Knapen_AOT/AOT_stimuli/pictures/1407_fw.png	479.39122247695923	0.7711520195007324
360	385.5798771381378	response	0	k		358.0	/experiments/Knapen_AOT/AOT_stimuli/pictures/1407_fw.png	480.14586639404297	
361	385.5963852405548	picture	0		95	359.0	/experiments/Knapen_AOT/AOT_stimuli/pictures/0086_fw.png	480.16237449645996	0.8000078201293945
361	386.38003277778625	response	0	k		359.0	/experiments/Knapen_AOT/AOT_stimuli/pictures/0086_fw.png	480.9460220336914	
362	386.3963930606842	stim	0		858			480.96238231658936	7.162032127380371
362	387.3549268245697	response	0	k				481.92091608047485	
362	393.54374051094055	response	0	space				488.1097297668457	
