trial_nr	onset	event_type	phase	response	nr_frames	picture_index	picture_file	onset_abs	duration
0	0.1935882568359375	stim	0		527			62.25713229179382	4.409711599349976
0	4.58357834815979	response	0	space				66.64712238311768	
2	4.603299856185913	picture	0		253	0.0	/experiments/Knapen_AOT/AOT_stimuli/pictures/0525_fw.png	66.6668438911438	2.1252987384796143
2	6.70880913734436	response	0	k		0.0	/experiments/Knapen_AOT/AOT_stimuli/pictures/0525_fw.png	68.77235317230225	
3	6.728598594665527	picture	0		114	1.0	/experiments/Knapen_AOT/AOT_stimuli/pictures/0802_fw.png	68.79214262962341	0.9581296443939209
3	7.6751298904418945	response	0	k		1.0	/experiments/Knapen_AOT/AOT_stimuli/pictures/0802_fw.png	69.73867392539978	
4	7.686728239059448	picture	0		92	2.0	/experiments/Knapen_AOT/AOT_stimuli/pictures/1043_fw.png	69.75027227401733	0.7638704776763916
4	8.441805839538574	response	0	j		2.0	/experiments/Knapen_AOT/AOT_stimuli/pictures/1043_fw.png	70.50534987449646	
5	8.45059871673584	picture	0		118	3.0	/experiments/Knapen_AOT/AOT_stimuli/pictures/0219_fw.png	70.51414275169373	0.9861631393432617
5	9.425312280654907	response	0	k		3.0	/experiments/Knapen_AOT/AOT_stimuli/pictures/0219_fw.png	71.4888563156128	
6	9.436761856079102	picture	0		126	4.0	/experiments/Knapen_AOT/AOT_stimuli/pictures/2153_fw.png	71.50030589103699	1.04868745803833
6	10.475146055221558	response	0	k		4.0	/experiments/Knapen_AOT/AOT_stimuli/pictures/2153_fw.png	72.53869009017944	
7	10.485449314117432	picture	0		156	5.0	/experiments/Knapen_AOT/AOT_stimuli/pictures/0843_fw.png	72.54899334907532	1.3061738014221191
7	11.775141477584839	response	0	k		5.0	/experiments/Knapen_AOT/AOT_stimuli/pictures/0843_fw.png	73.83868551254272	
8	11.79162311553955	picture	0		131	6.0	/experiments/Knapen_AOT/AOT_stimuli/pictures/0576_fw.png	73.85516715049744	1.0965206623077393
8	12.875192642211914	response	0	k		6.0	/experiments/Knapen_AOT/AOT_stimuli/pictures/0576_fw.png	74.9387366771698	
9	12.88814377784729	picture	0		100	7.0	/experiments/Knapen_AOT/AOT_stimuli/pictures/1123_fw.png	74.95168781280518	0.8402905464172363
9	13.709243297576904	response	0	k		7.0	/experiments/Knapen_AOT/AOT_stimuli/pictures/1123_fw.png	75.77278733253479	
10	13.728434324264526	picture	0		110	8.0	/experiments/Knapen_AOT/AOT_stimuli/pictures/1349_fw.png	75.79197835922241	0.9215652942657471
10	14.633516550064087	response	0	j		8.0	/experiments/Knapen_AOT/AOT_stimuli/pictures/1349_fw.png	76.69706058502197	
11	14.649999618530273	picture	0		105	9.0	/experiments/Knapen_AOT/AOT_stimuli/pictures/1086_fw.png	76.71354365348816	0.8833539485931396
11	15.517024278640747	response	0	j		9.0	/experiments/Knapen_AOT/AOT_stimuli/pictures/1086_fw.png	77.58056831359863	
12	15.533353567123413	picture	0		109	10.0	/experiments/Knapen_AOT/AOT_stimuli/pictures/1620_fw.png	77.5968976020813	0.9104094505310059
12	16.433647394180298	response	0	k		10.0	/experiments/Knapen_AOT/AOT_stimuli/pictures/1620_fw.png	78.49719142913818	
13	16.44376301765442	picture	0		101	11.0	/experiments/Knapen_AOT/AOT_stimuli/pictures/1935_fw.png	78.5073070526123	0.847923994064331
13	17.27527141571045	response	0	j		11.0	/experiments/Knapen_AOT/AOT_stimuli/pictures/1935_fw.png	79.33881545066833	
14	17.29168701171875	picture	0		129	12.0	/experiments/Knapen_AOT/AOT_stimuli/pictures/1176_fw.png	79.35523104667664	1.0833864212036133
14	18.35884737968445	response	0	j		12.0	/experiments/Knapen_AOT/AOT_stimuli/pictures/1176_fw.png	80.42239141464233	
15	18.375073432922363	picture	0		109	13.0	/experiments/Knapen_AOT/AOT_stimuli/pictures/1100_fw.png	80.43861746788025	0.9089343547821045
15	19.275322198867798	response	0	j		13.0	/experiments/Knapen_AOT/AOT_stimuli/pictures/1100_fw.png	81.33886623382568	
16	19.284007787704468	picture	0		178	14.0	/experiments/Knapen_AOT/AOT_stimuli/pictures/1163_fw.png	81.34755182266235	1.491075038909912
16	20.758636236190796	response	0	k		14.0	/experiments/Knapen_AOT/AOT_stimuli/pictures/1163_fw.png	82.82218027114868	
17	20.77508282661438	picture	0		94	15.0	/experiments/Knapen_AOT/AOT_stimuli/pictures/0968_fw.png	82.83862686157227	0.7916598320007324
17	21.55030846595764	response	0	k		15.0	/experiments/Knapen_AOT/AOT_stimuli/pictures/0968_fw.png	83.61385250091553	
18	21.566742658615112	picture	0		156	16.0	/experiments/Knapen_AOT/AOT_stimuli/pictures/0186_fw.png	83.630286693573	1.3006374835968018
18	22.858601808547974	response	0	k		16.0	/experiments/Knapen_AOT/AOT_stimuli/pictures/0186_fw.png	84.92214584350586	
19	22.867380142211914	picture	0		160	17.0	/experiments/Knapen_AOT/AOT_stimuli/pictures/1947_fw.png	84.9309241771698	1.3332304954528809
19	24.192008018493652	response	0	k		17.0	/experiments/Knapen_AOT/AOT_stimuli/pictures/1947_fw.png	86.25555205345154	
20	24.200610637664795	picture	0		176	18.0	/experiments/Knapen_AOT/AOT_stimuli/pictures/1441_fw.png	86.26415467262268	1.4745523929595947
20	25.65927505493164	response	0	j		18.0	/experiments/Knapen_AOT/AOT_stimuli/pictures/1441_fw.png	87.72281908988953	
21	25.67516303062439	picture	0		81	19.0	/experiments/Knapen_AOT/AOT_stimuli/pictures/1957_fw.png	87.73870706558228	0.6783695220947266
21	26.342031002044678	response	0	k		19.0	/experiments/Knapen_AOT/AOT_stimuli/pictures/1957_fw.png	88.40557503700256	
22	26.353532552719116	picture	0		143	20.0	/experiments/Knapen_AOT/AOT_stimuli/pictures/0945_fw.png	88.417076587677	1.1966288089752197
22	27.533701419830322	response	0	k		20.0	/experiments/Knapen_AOT/AOT_stimuli/pictures/0945_fw.png	89.59724545478821	
23	27.550161361694336	picture	0		107	21.0	/experiments/Knapen_AOT/AOT_stimuli/pictures/0733_fw.png	89.61370539665222	0.9000041484832764
23	28.43367290496826	response	0	k		21.0	/experiments/Knapen_AOT/AOT_stimuli/pictures/0733_fw.png	90.49721693992615	
24	28.450165510177612	picture	0		129	22.0	/experiments/Knapen_AOT/AOT_stimuli/pictures/1285_fw.png	90.5137095451355	1.083360195159912
24	29.51710081100464	response	0	j		22.0	/experiments/Knapen_AOT/AOT_stimuli/pictures/1285_fw.png	91.58064484596252	
25	29.533525705337524	picture	0		89	23.0	/experiments/Knapen_AOT/AOT_stimuli/pictures/0664_fw.png	91.59706974029541	0.7500054836273193
25	30.267062425613403	response	0	j		23.0	/experiments/Knapen_AOT/AOT_stimuli/pictures/0664_fw.png	92.33060646057129	
26	30.283531188964844	picture	0		122	24.0	/experiments/Knapen_AOT/AOT_stimuli/pictures/1073_fw.png	92.34707522392273	1.0214519500732422
26	31.29208493232727	response	0	k		24.0	/experiments/Knapen_AOT/AOT_stimuli/pictures/1073_fw.png	93.35562896728516	
27	31.304983139038086	picture	0		141	25.0	/experiments/Knapen_AOT/AOT_stimuli/pictures/0370_fw.png	93.36852717399597	1.1736810207366943
27	32.46711492538452	response	0	k		25.0	/experiments/Knapen_AOT/AOT_stimuli/pictures/0370_fw.png	94.53065896034241	
28	32.47866415977478	picture	0		113	26.0	/experiments/Knapen_AOT/AOT_stimuli/pictures/0584_fw.png	94.54220819473267	0.946638822555542
28	33.40881395339966	response	0	j		26.0	/experiments/Knapen_AOT/AOT_stimuli/pictures/0584_fw.png	95.47235798835754	
29	33.42530298233032	picture	0		179	27.0	/experiments/Knapen_AOT/AOT_stimuli/pictures/1978_fw.png	95.48884701728821	1.497636079788208
29	34.90233302116394	response	0	j		27.0	/experiments/Knapen_AOT/AOT_stimuli/pictures/1978_fw.png	96.96587705612183	
30	34.92293906211853	picture	0		93	28.0	/experiments/Knapen_AOT/AOT_stimuli/pictures/0493_fw.png	96.98648309707642	0.7856302261352539
30	35.69233012199402	response	0	j		28.0	/experiments/Knapen_AOT/AOT_stimuli/pictures/0493_fw.png	97.7558741569519	
31	35.708569288253784	picture	0		109	29.0	/experiments/Knapen_AOT/AOT_stimuli/pictures/1491_fw.png	97.77211332321167	0.9088842868804932
31	36.60875606536865	response	0	j		29.0	/experiments/Knapen_AOT/AOT_stimuli/pictures/1491_fw.png	98.67230010032654	
32	36.61745357513428	picture	0		153	30.0	/experiments/Knapen_AOT/AOT_stimuli/pictures/1817_fw.png	98.68099761009216	1.2779173851013184
32	37.88382124900818	response	0	k		30.0	/experiments/Knapen_AOT/AOT_stimuli/pictures/1817_fw.png	99.94736528396606	
33	37.895370960235596	picture	0		87	31.0	/experiments/Knapen_AOT/AOT_stimuli/pictures/0784_fw.png	99.95891499519348	0.7220754623413086
33	38.60877728462219	response	0	j		31.0	/experiments/Knapen_AOT/AOT_stimuli/pictures/0784_fw.png	100.67232131958008	
34	38.617446422576904	picture	0		125	32.0	/experiments/Knapen_AOT/AOT_stimuli/pictures/1178_fw.png	100.68099045753479	1.0495142936706543
34	39.65060377120972	response	0	j		32.0	/experiments/Knapen_AOT/AOT_stimuli/pictures/1178_fw.png	101.7141478061676	
35	39.66696071624756	picture	0		109	33.0	/experiments/Knapen_AOT/AOT_stimuli/pictures/0783_fw.png	101.73050475120544	0.9167108535766602
35	40.5672824382782	response	0	j		33.0	/experiments/Knapen_AOT/AOT_stimuli/pictures/0783_fw.png	102.63082647323608	
36	40.58367156982422	picture	0		112	34.0	/experiments/Knapen_AOT/AOT_stimuli/pictures/1477_fw.png	102.6472156047821	0.9366316795349121
36	41.50151705741882	response	0	k		34.0	/experiments/Knapen_AOT/AOT_stimuli/pictures/1477_fw.png	103.56506109237671	
37	41.52030324935913	picture	0		100	35.0	/experiments/Knapen_AOT/AOT_stimuli/pictures/1127_fw.png	103.58384728431702	0.8333311080932617
37	42.34222054481506	response	0	k		35.0	/experiments/Knapen_AOT/AOT_stimuli/pictures/1127_fw.png	104.40576457977295	
38	42.35363435745239	picture	0		152	36.0	/experiments/Knapen_AOT/AOT_stimuli/pictures/1558_fw.png	104.41717839241028	1.2638802528381348
38	43.60888743400574	response	0	k		36.0	/experiments/Knapen_AOT/AOT_stimuli/pictures/1558_fw.png	105.67243146896362	
39	43.61751461029053	picture	0		105	37.0	/experiments/Knapen_AOT/AOT_stimuli/pictures/2085_fw.png	105.68105864524841	0.8749732971191406
39	44.48389434814453	response	0	j		37.0	/experiments/Knapen_AOT/AOT_stimuli/pictures/2085_fw.png	106.54743838310242	
40	44.49248790740967	picture	0		132	38.0	/experiments/Knapen_AOT/AOT_stimuli/pictures/0032_fw.png	106.55603194236755	1.1042473316192627
40	45.58390688896179	response	0	k		38.0	/experiments/Knapen_AOT/AOT_stimuli/pictures/0032_fw.png	107.64745092391968	
41	45.59673523902893	picture	0		155	39.0	/experiments/Knapen_AOT/AOT_stimuli/pictures/0624_fw.png	107.66027927398682	1.2916462421417236
41	46.87559533119202	response	0	j		39.0	/experiments/Knapen_AOT/AOT_stimuli/pictures/0624_fw.png	108.9391393661499	
42	46.888381481170654	picture	0		111	40.0	/experiments/Knapen_AOT/AOT_stimuli/pictures/0691_fw.png	108.95192551612854	0.9237484931945801
42	47.800599098205566	response	0	j		40.0	/experiments/Knapen_AOT/AOT_stimuli/pictures/0691_fw.png	109.86414313316345	
43	47.812129974365234	picture	0		104	41.0	/experiments/Knapen_AOT/AOT_stimuli/pictures/2118_fw.png	109.87567400932312	0.8716146945953369
43	48.66724157333374	response	0	k		41.0	/experiments/Knapen_AOT/AOT_stimuli/pictures/2118_fw.png	110.73078560829163	
44	48.68374466896057	picture	0		99	42.0	/experiments/Knapen_AOT/AOT_stimuli/pictures/1654_fw.png	110.74728870391846	0.8296079635620117
44	49.49401593208313	response	0	k		42.0	/experiments/Knapen_AOT/AOT_stimuli/pictures/1654_fw.png	111.55755996704102	
45	49.51335263252258	picture	0		215	43.0	/experiments/Knapen_AOT/AOT_stimuli/pictures/1958_fw.png	111.57689666748047	1.8037686347961426
45	51.29475140571594	response	0	k		43.0	/experiments/Knapen_AOT/AOT_stimuli/pictures/1958_fw.png	113.35829544067383	
46	51.317121267318726	picture	0		222	44.0	/experiments/Knapen_AOT/AOT_stimuli/pictures/1821_fw.png	113.38066530227661	1.8583619594573975
46	53.15906381607056	response	0	k		44.0	/experiments/Knapen_AOT/AOT_stimuli/pictures/1821_fw.png	115.22260785102844	
47	53.17548322677612	picture	0		87	45.0	/experiments/Knapen_AOT/AOT_stimuli/pictures/1279_fw.png	115.23902726173401	0.7268548011779785
47	53.88504981994629	response	0	k		45.0	/experiments/Knapen_AOT/AOT_stimuli/pictures/1279_fw.png	115.94859385490417	
48	53.9023380279541	picture	0		117	46.0	/experiments/Knapen_AOT/AOT_stimuli/pictures/0871_fw.png	115.96588206291199	0.9814765453338623
48	54.86736536026001	response	0	k		46.0	/experiments/Knapen_AOT/AOT_stimuli/pictures/0871_fw.png	116.9309093952179	
49	54.883814573287964	picture	0		106	47.0	/experiments/Knapen_AOT/AOT_stimuli/pictures/0382_fw.png	116.94735860824585	0.8916711807250977
49	55.759148359298706	response	0	k		47.0	/experiments/Knapen_AOT/AOT_stimuli/pictures/0382_fw.png	117.82269239425659	
50	55.77548575401306	picture	0		97	48.0	/experiments/Knapen_AOT/AOT_stimuli/pictures/1798_fw.png	117.83902978897095	0.8166875839233398
50	56.5757372379303	response	0	k		48.0	/experiments/Knapen_AOT/AOT_stimuli/pictures/1798_fw.png	118.63928127288818	
51	56.5921733379364	picture	0		122	49.0	/experiments/Knapen_AOT/AOT_stimuli/pictures/1065_fw.png	118.65571737289429	1.0250117778778076
51	57.60076379776001	response	0	k		49.0	/experiments/Knapen_AOT/AOT_stimuli/pictures/1065_fw.png	119.6643078327179	
52	57.61718511581421	picture	0		130	50.0	/experiments/Knapen_AOT/AOT_stimuli/pictures/0189_fw.png	119.6807291507721	1.0916621685028076
52	58.69237661361694	response	0	j		50.0	/experiments/Knapen_AOT/AOT_stimuli/pictures/0189_fw.png	120.75592064857483	
53	58.70884728431702	picture	0		96	51.0	/experiments/Knapen_AOT/AOT_stimuli/pictures/1131_fw.png	120.7723913192749	0.8045947551727295
53	59.493287801742554	response	0	j		51.0	/experiments/Knapen_AOT/AOT_stimuli/pictures/1131_fw.png	121.55683183670044	
54	59.513442039489746	picture	0		146	52.0	/experiments/Knapen_AOT/AOT_stimuli/pictures/0478_fw.png	121.57698607444763	1.222249984741211
54	60.725775718688965	response	0	j		52.0	/experiments/Knapen_AOT/AOT_stimuli/pictures/0478_fw.png	122.78931975364685	
55	60.73569202423096	picture	0		150	53.0	/experiments/Knapen_AOT/AOT_stimuli/pictures/1392_fw.png	122.79923605918884	1.249983310699463
55	61.975775718688965	response	0	k		53.0	/experiments/Knapen_AOT/AOT_stimuli/pictures/1392_fw.png	124.03931975364685	
56	61.98567533493042	picture	0		114	54.0	/experiments/Knapen_AOT/AOT_stimuli/pictures/0897_fw.png	124.0492193698883	0.9514822959899902
56	62.926074743270874	response	0	k		54.0	/experiments/Knapen_AOT/AOT_stimuli/pictures/0897_fw.png	124.98961877822876	
57	62.93715763092041	picture	0		96	55.0	/experiments/Knapen_AOT/AOT_stimuli/pictures/0110_fw.png	125.0007016658783	0.7985684871673584
57	63.72581434249878	response	0	k		55.0	/experiments/Knapen_AOT/AOT_stimuli/pictures/0110_fw.png	125.78935837745667	
58	63.73572611808777	picture	0		95	56.0	/experiments/Knapen_AOT/AOT_stimuli/pictures/0632_fw.png	125.79927015304565	0.7916254997253418
58	64.51746034622192	response	0	k		56.0	/experiments/Knapen_AOT/AOT_stimuli/pictures/0632_fw.png	126.58100438117981	
59	64.52735161781311	picture	0		104	57.0	/experiments/Knapen_AOT/AOT_stimuli/pictures/0909_fw.png	126.590895652771	0.8732471466064453
59	65.38417458534241	response	0	k		57.0	/experiments/Knapen_AOT/AOT_stimuli/pictures/0909_fw.png	127.4477186203003	
60	65.40059876441956	picture	0		106	58.0	/experiments/Knapen_AOT/AOT_stimuli/pictures/1695_fw.png	127.46414279937744	0.8836979866027832
60	66.2757956981659	response	0	k		58.0	/experiments/Knapen_AOT/AOT_stimuli/pictures/1695_fw.png	128.33933973312378	
61	66.28429675102234	picture	0		116	59.0	/experiments/Knapen_AOT/AOT_stimuli/pictures/0416_fw.png	128.34784078598022	0.9723384380340576
61	67.24251174926758	response	0	j		59.0	/experiments/Knapen_AOT/AOT_stimuli/pictures/0416_fw.png	129.30605578422546	
62	67.2566351890564	picture	0		166	60.0	/experiments/Knapen_AOT/AOT_stimuli/pictures/2105_fw.png	129.32017922401428	1.3940489292144775
62	68.63421320915222	response	0	k		60.0	/experiments/Knapen_AOT/AOT_stimuli/pictures/2105_fw.png	130.6977572441101	
63	68.65068411827087	picture	0		211	61.0	/experiments/Knapen_AOT/AOT_stimuli/pictures/0819_fw.png	130.71422815322876	1.766653060913086
63	70.40086340904236	response	0	j		61.0	/experiments/Knapen_AOT/AOT_stimuli/pictures/0819_fw.png	132.46440744400024	
64	70.41733717918396	picture	0		101	62.0	/experiments/Knapen_AOT/AOT_stimuli/pictures/0005_fw.png	132.48088121414185	0.8461704254150391
64	71.25084972381592	response	0	k		62.0	/experiments/Knapen_AOT/AOT_stimuli/pictures/0005_fw.png	133.3143937587738	
65	71.263507604599	picture	0		162	63.0	/experiments/Knapen_AOT/AOT_stimuli/pictures/0148_fw.png	133.32705163955688	1.3471488952636719
65	72.60088086128235	response	0	k		63.0	/experiments/Knapen_AOT/AOT_stimuli/pictures/0148_fw.png	134.66442489624023	
66	72.61065649986267	picture	0		84	64.0	/experiments/Knapen_AOT/AOT_stimuli/pictures/0647_fw.png	134.67420053482056	0.7067065238952637
66	73.30109882354736	response	0	k		64.0	/experiments/Knapen_AOT/AOT_stimuli/pictures/0647_fw.png	135.36464285850525	
67	73.31736302375793	picture	0		133	65.0	/experiments/Knapen_AOT/AOT_stimuli/pictures/1345_fw.png	135.38090705871582	1.1128666400909424
67	74.41753721237183	response	0	j		65.0	/experiments/Knapen_AOT/AOT_stimuli/pictures/1345_fw.png	136.4810812473297	
68	74.43022966384888	picture	0		157	66.0	/experiments/Knapen_AOT/AOT_stimuli/pictures/2135_fw.png	136.49377369880676	1.3122625350952148
68	75.72606253623962	response	0	j		66.0	/experiments/Knapen_AOT/AOT_stimuli/pictures/2135_fw.png	137.7896065711975	
69	75.74249219894409	picture	0		105	67.0	/experiments/Knapen_AOT/AOT_stimuli/pictures/1284_fw.png	137.80603623390198	0.8752427101135254
69	76.6093180179596	response	0	k		67.0	/experiments/Knapen_AOT/AOT_stimuli/pictures/1284_fw.png	138.67286205291748	
70	76.61773490905762	picture	0		137	68.0	/experiments/Knapen_AOT/AOT_stimuli/pictures/1572_fw.png	138.6812789440155	1.1458179950714111
70	77.75093340873718	response	0	k		68.0	/experiments/Knapen_AOT/AOT_stimuli/pictures/1572_fw.png	139.81447744369507	
71	77.76355290412903	picture	0		148	69.0	/experiments/Knapen_AOT/AOT_stimuli/pictures/0743_fw.png	139.8270969390869	1.2291595935821533
71	78.98427844047546	response	0	k		69.0	/experiments/Knapen_AOT/AOT_stimuli/pictures/0743_fw.png	141.04782247543335	
72	78.99271249771118	picture	0		135	70.0	/experiments/Knapen_AOT/AOT_stimuli/pictures/0289_fw.png	141.05625653266907	1.1330485343933105
72	80.10926508903503	response	0	k		70.0	/experiments/Knapen_AOT/AOT_stimuli/pictures/0289_fw.png	142.17280912399292	
73	80.12576103210449	picture	0		101	71.0	/experiments/Knapen_AOT/AOT_stimuli/pictures/1673_fw.png	142.18930506706238	0.8461306095123291
73	80.95932793617249	response	0	k		71.0	/experiments/Knapen_AOT/AOT_stimuli/pictures/1673_fw.png	143.02287197113037	
74	80.97189164161682	picture	0		143	72.0	/experiments/Knapen_AOT/AOT_stimuli/pictures/0986_fw.png	143.0354356765747	1.1875321865081787
74	82.15103459358215	response	0	k		72.0	/experiments/Knapen_AOT/AOT_stimuli/pictures/0986_fw.png	144.21457862854004	
75	82.159423828125	picture	0		128	73.0	/experiments/Knapen_AOT/AOT_stimuli/pictures/1410_fw.png	144.22296786308289	1.069441318511963
75	83.21777153015137	response	0	j		73.0	/experiments/Knapen_AOT/AOT_stimuli/pictures/1410_fw.png	145.28131556510925	
76	83.22886514663696	picture	0		108	74.0	/experiments/Knapen_AOT/AOT_stimuli/pictures/0121_fw.png	145.29240918159485	0.9027915000915527
76	84.11772179603577	response	0	k		74.0	/experiments/Knapen_AOT/AOT_stimuli/pictures/0121_fw.png	146.18126583099365	
77	84.13165664672852	picture	0		118	75.0	/experiments/Knapen_AOT/AOT_stimuli/pictures/1415_fw.png	146.1952006816864	0.9942030906677246
77	85.10948491096497	response	0	k		75.0	/experiments/Knapen_AOT/AOT_stimuli/pictures/1415_fw.png	147.17302894592285	
78	85.12585973739624	picture	0		118	76.0	/experiments/Knapen_AOT/AOT_stimuli/pictures/1341_fw.png	147.18940377235413	0.9850442409515381
78	86.09336590766907	response	0	j		76.0	/experiments/Knapen_AOT/AOT_stimuli/pictures/1341_fw.png	148.15690994262695	
79	86.11090397834778	picture	0		167	77.0	/experiments/Knapen_AOT/AOT_stimuli/pictures/0526_fw.png	148.17444801330566	1.3983268737792969
79	87.48514151573181	response	0	k		77.0	/experiments/Knapen_AOT/AOT_stimuli/pictures/0526_fw.png	149.5486855506897	
80	87.50923085212708	picture	0		160	78.0	/experiments/Knapen_AOT/AOT_stimuli/pictures/0700_fw.png	149.57277488708496	1.337651252746582
80	88.83441257476807	response	0	j		78.0	/experiments/Knapen_AOT/AOT_stimuli/pictures/0700_fw.png	150.89795660972595	
81	88.84688210487366	picture	0		128	79.0	/experiments/Knapen_AOT/AOT_stimuli/pictures/0345_fw.png	150.91042613983154	1.0706713199615479
81	89.90139436721802	response	0	k		79.0	/experiments/Knapen_AOT/AOT_stimuli/pictures/0345_fw.png	151.9649384021759	
82	89.9175534248352	picture	0		107	80.0	/experiments/Knapen_AOT/AOT_stimuli/pictures/1525_fw.png	151.9810974597931	0.900068998336792
82	90.80107545852661	response	0	j		80.0	/experiments/Knapen_AOT/AOT_stimuli/pictures/1525_fw.png	152.8646194934845	
83	90.817622423172	picture	0		101	81.0	/experiments/Knapen_AOT/AOT_stimuli/pictures/1196_fw.png	152.88116645812988	0.8418369293212891
83	91.6510238647461	response	0	j		81.0	/experiments/Knapen_AOT/AOT_stimuli/pictures/1196_fw.png	153.71456789970398	
84	91.65945935249329	picture	0		106	82.0	/experiments/Knapen_AOT/AOT_stimuli/pictures/1562_fw.png	153.72300338745117	0.891455888748169
84	92.53437733650208	response	0	j		82.0	/experiments/Knapen_AOT/AOT_stimuli/pictures/1562_fw.png	154.59792137145996	
85	92.55091524124146	picture	0		87	83.0	/experiments/Knapen_AOT/AOT_stimuli/pictures/2078_fw.png	154.61445927619934	0.7266650199890137
85	93.2677001953125	response	0	j		83.0	/experiments/Knapen_AOT/AOT_stimuli/pictures/2078_fw.png	155.33124423027039	
86	93.27758026123047	picture	0		88	84.0	/experiments/Knapen_AOT/AOT_stimuli/pictures/2025_fw.png	155.34112429618835	0.7361001968383789
86	94.00110125541687	response	0	j		84.0	/experiments/Knapen_AOT/AOT_stimuli/pictures/2025_fw.png	156.06464529037476	
87	94.01368045806885	picture	0		210	85.0	/experiments/Knapen_AOT/AOT_stimuli/pictures/1418_fw.png	156.07722449302673	1.749908447265625
87	95.75117206573486	response	0	k		85.0	/experiments/Knapen_AOT/AOT_stimuli/pictures/1418_fw.png	157.81471610069275	
88	95.76358890533447	picture	0		90	86.0	/experiments/Knapen_AOT/AOT_stimuli/pictures/0118_fw.png	157.82713294029236	0.750086784362793
88	96.4937686920166	response	0	k		86.0	/experiments/Knapen_AOT/AOT_stimuli/pictures/0118_fw.png	158.5573127269745	
89	96.51367568969727	picture	0		118	87.0	/experiments/Knapen_AOT/AOT_stimuli/pictures/0443_fw.png	158.57721972465515	0.9791545867919922
89	97.4771842956543	response	0	j		87.0	/experiments/Knapen_AOT/AOT_stimuli/pictures/0443_fw.png	159.54072833061218	
90	97.49283027648926	picture	0		96	88.0	/experiments/Knapen_AOT/AOT_stimuli/pictures/1538_fw.png	159.55637431144714	0.805586576461792
90	98.2769980430603	response	0	k		88.0	/experiments/Knapen_AOT/AOT_stimuli/pictures/1538_fw.png	160.3405420780182	
91	98.29841685295105	picture	0		122	89.0	/experiments/Knapen_AOT/AOT_stimuli/pictures/0038_fw.png	160.36196088790894	1.0208473205566406
91	99.30950689315796	response	0	j		89.0	/experiments/Knapen_AOT/AOT_stimuli/pictures/0038_fw.png	161.37305092811584	
92	99.31926417350769	picture	0		362	90.0	/experiments/Knapen_AOT/AOT_stimuli/pictures/2100_fw.png	161.38280820846558	3.0235111713409424
92	102.32626438140869	response	0	k		90.0	/experiments/Knapen_AOT/AOT_stimuli/pictures/2100_fw.png	164.38980841636658	
93	102.34277534484863	picture	0		96	91.0	/experiments/Knapen_AOT/AOT_stimuli/pictures/0245_fw.png	164.40631937980652	0.8029096126556396
93	103.13482880592346	response	0	k		91.0	/experiments/Knapen_AOT/AOT_stimuli/pictures/0245_fw.png	165.19837284088135	
94	103.14568495750427	picture	0		90	92.0	/experiments/Knapen_AOT/AOT_stimuli/pictures/2016_fw.png	165.20922899246216	0.7500250339508057
94	103.88460564613342	response	0	k		92.0	/experiments/Knapen_AOT/AOT_stimuli/pictures/2016_fw.png	165.9481496810913	
95	103.89570999145508	picture	0		136	93.0	/experiments/Knapen_AOT/AOT_stimuli/pictures/0414_fw.png	165.95925402641296	1.1319162845611572
95	105.01796865463257	response	0	k		93.0	/experiments/Knapen_AOT/AOT_stimuli/pictures/0414_fw.png	167.08151268959045	
96	105.02762627601624	picture	0		170	94.0	/experiments/Knapen_AOT/AOT_stimuli/pictures/1172_fw.png	167.09117031097412	1.4165747165679932
96	106.43465280532837	response	0	j		94.0	/experiments/Knapen_AOT/AOT_stimuli/pictures/1172_fw.png	168.49819684028625	
97	106.44420099258423	picture	0		156	95.0	/experiments/Knapen_AOT/AOT_stimuli/pictures/1731_fw.png	168.50774502754211	1.30692458152771
97	107.73469018936157	response	0	k		95.0	/experiments/Knapen_AOT/AOT_stimuli/pictures/1731_fw.png	169.79823422431946	
98	107.75112557411194	picture	0		99	96.0	/experiments/Knapen_AOT/AOT_stimuli/pictures/0607_fw.png	169.81466960906982	0.8251357078552246
98	108.56798386573792	response	0	j		96.0	/experiments/Knapen_AOT/AOT_stimuli/pictures/0607_fw.png	170.6315279006958	
99	108.57626128196716	picture	0		162	97.0	/experiments/Knapen_AOT/AOT_stimuli/pictures/1466_fw.png	170.63980531692505	1.3540987968444824
99	109.91798090934753	response	0	j		97.0	/experiments/Knapen_AOT/AOT_stimuli/pictures/1466_fw.png	171.98152494430542	
100	109.93036007881165	picture	0		110	98.0	/experiments/Knapen_AOT/AOT_stimuli/pictures/0823_fw.png	171.99390411376953	0.9291930198669434
100	110.84325432777405	response	0	k		98.0	/experiments/Knapen_AOT/AOT_stimuli/pictures/0823_fw.png	172.90679836273193	
101	110.85955309867859	picture	0		83	99.0	/experiments/Knapen_AOT/AOT_stimuli/pictures/0927_fw.png	172.92309713363647	0.6999251842498779
101	111.54300355911255	response	0	k		99.0	/experiments/Knapen_AOT/AOT_stimuli/pictures/0927_fw.png	173.60654759407043	
102	111.55947828292847	picture	0		106	100.0	/experiments/Knapen_AOT/AOT_stimuli/pictures/0043_fw.png	173.62302231788635	0.8916866779327393
102	112.43465971946716	response	0	j		100.0	/experiments/Knapen_AOT/AOT_stimuli/pictures/0043_fw.png	174.49820375442505	
103	112.4511649608612	picture	0		177	101.0	/experiments/Knapen_AOT/AOT_stimuli/pictures/1101_fw.png	174.5147089958191	1.4792041778564453
103	113.91803050041199	response	0	k		101.0	/experiments/Knapen_AOT/AOT_stimuli/pictures/1101_fw.png	175.98157453536987	
104	113.93036913871765	picture	0		92	102.0	/experiments/Knapen_AOT/AOT_stimuli/pictures/0147_fw.png	175.99391317367554	0.7708339691162109
104	114.68472981452942	response	0	k		102.0	/experiments/Knapen_AOT/AOT_stimuli/pictures/0147_fw.png	176.7482738494873	
105	114.70120310783386	picture	0		129	103.0	/experiments/Knapen_AOT/AOT_stimuli/pictures/0241_fw.png	176.76474714279175	1.083348274230957
105	115.76816821098328	response	0	k		103.0	/experiments/Knapen_AOT/AOT_stimuli/pictures/0241_fw.png	177.83171224594116	
106	115.78455138206482	picture	0		96	104.0	/experiments/Knapen_AOT/AOT_stimuli/pictures/0185_fw.png	177.8480954170227	0.8056337833404541
106	116.57640528678894	response	0	j		104.0	/experiments/Knapen_AOT/AOT_stimuli/pictures/0185_fw.png	178.63994932174683	
107	116.59018516540527	picture	0		92	105.0	/experiments/Knapen_AOT/AOT_stimuli/pictures/0745_fw.png	178.65372920036316	0.7708282470703125
107	117.35139513015747	response	0	j		105.0	/experiments/Knapen_AOT/AOT_stimuli/pictures/0745_fw.png	179.41493916511536	
108	117.36101341247559	picture	0		100	106.0	/experiments/Knapen_AOT/AOT_stimuli/pictures/0962_fw.png	179.42455744743347	0.8334503173828125
108	118.18474531173706	response	0	k		106.0	/experiments/Knapen_AOT/AOT_stimuli/pictures/0962_fw.png	180.24828934669495	
109	118.1944637298584	picture	0		90	107.0	/experiments/Knapen_AOT/AOT_stimuli/pictures/0150_fw.png	180.25800776481628	0.7498867511749268
109	118.9347276687622	response	0	k		107.0	/experiments/Knapen_AOT/AOT_stimuli/pictures/0150_fw.png	180.9982717037201	
110	118.94435048103333	picture	0		84	108.0	/experiments/Knapen_AOT/AOT_stimuli/pictures/0156_fw.png	181.0078945159912	0.7068696022033691
110	119.63484072685242	response	0	k		108.0	/experiments/Knapen_AOT/AOT_stimuli/pictures/0156_fw.png	181.6983847618103	
111	119.6512200832367	picture	0		100	109.0	/experiments/Knapen_AOT/AOT_stimuli/pictures/2165_fw.png	181.71476411819458	0.8348402976989746
111	120.47642254829407	response	0	k		109.0	/experiments/Knapen_AOT/AOT_stimuli/pictures/2165_fw.png	182.53996658325195	
112	120.48606038093567	picture	0		107	110.0	/experiments/Knapen_AOT/AOT_stimuli/pictures/1290_fw.png	182.54960441589355	0.8958301544189453
112	121.36824154853821	response	0	k		110.0	/experiments/Knapen_AOT/AOT_stimuli/pictures/1290_fw.png	183.4317855834961	
113	121.38189053535461	picture	0		102	111.0	/experiments/Knapen_AOT/AOT_stimuli/pictures/2032_fw.png	183.4454345703125	0.861320972442627
113	122.2266788482666	response	0	j		111.0	/experiments/Knapen_AOT/AOT_stimuli/pictures/2032_fw.png	184.2902228832245	
114	122.24321150779724	picture	0		121	112.0	/experiments/Knapen_AOT/AOT_stimuli/pictures/1072_fw.png	184.30675554275513	1.0163953304290771
114	123.24328708648682	response	0	j		112.0	/experiments/Knapen_AOT/AOT_stimuli/pictures/1072_fw.png	185.3068311214447	
115	123.25960683822632	picture	0		105	113.0	/experiments/Knapen_AOT/AOT_stimuli/pictures/1594_fw.png	185.3231508731842	0.8792576789855957
115	124.12647032737732	response	0	j		113.0	/experiments/Knapen_AOT/AOT_stimuli/pictures/1594_fw.png	186.1900143623352	
116	124.13886451721191	picture	0		126	114.0	/experiments/Knapen_AOT/AOT_stimuli/pictures/0131_fw.png	186.2024085521698	1.0541183948516846
116	125.1765661239624	response	0	k		114.0	/experiments/Knapen_AOT/AOT_stimuli/pictures/0131_fw.png	187.2401101589203	
117	125.1929829120636	picture	0		94	115.0	/experiments/Knapen_AOT/AOT_stimuli/pictures/0964_fw.png	187.25652694702148	0.7861788272857666
117	125.96816515922546	response	0	k		115.0	/experiments/Knapen_AOT/AOT_stimuli/pictures/0964_fw.png	188.03170919418335	
118	125.97916173934937	picture	0		182	116.0	/experiments/Knapen_AOT/AOT_stimuli/pictures/1326_fw.png	188.04270577430725	1.513810157775879
118	127.47755479812622	response	0	j		116.0	/experiments/Knapen_AOT/AOT_stimuli/pictures/1326_fw.png	189.5410988330841	
119	127.49297189712524	picture	0		92	117.0	/experiments/Knapen_AOT/AOT_stimuli/pictures/1495_fw.png	189.55651593208313	0.7709088325500488
119	128.2515320777893	response	0	k		117.0	/experiments/Knapen_AOT/AOT_stimuli/pictures/1495_fw.png	190.3150761127472	
120	128.2638807296753	picture	0		118	118.0	/experiments/Knapen_AOT/AOT_stimuli/pictures/2152_fw.png	190.32742476463318	0.9958188533782959
120	129.24333953857422	response	0	j		118.0	/experiments/Knapen_AOT/AOT_stimuli/pictures/2152_fw.png	191.3068835735321	
121	129.2596995830536	picture	0		105	119.0	/experiments/Knapen_AOT/AOT_stimuli/pictures/0591_fw.png	191.32324361801147	0.8833913803100586
121	130.12657976150513	response	0	j		119.0	/experiments/Knapen_AOT/AOT_stimuli/pictures/0591_fw.png	192.190123796463	
122	130.14309096336365	picture	0		97	120.0	/experiments/Knapen_AOT/AOT_stimuli/pictures/1161_fw.png	192.20663499832153	0.8165981769561768
122	130.94326853752136	response	0	k		120.0	/experiments/Knapen_AOT/AOT_stimuli/pictures/1161_fw.png	193.00681257247925	
123	130.95968914031982	picture	0		128	121.0	/experiments/Knapen_AOT/AOT_stimuli/pictures/0812_fw.png	193.0232331752777	1.0680930614471436
123	132.01837515830994	response	0	k		121.0	/experiments/Knapen_AOT/AOT_stimuli/pictures/0812_fw.png	194.08191919326782	
124	132.02778220176697	picture	0		100	122.0	/experiments/Knapen_AOT/AOT_stimuli/pictures/1938_fw.png	194.09132623672485	0.8333461284637451
124	132.85165643692017	response	0	k		122.0	/experiments/Knapen_AOT/AOT_stimuli/pictures/1938_fw.png	194.91520047187805	
125	132.8611283302307	picture	0		81	123.0	/experiments/Knapen_AOT/AOT_stimuli/pictures/1015_fw.png	194.9246723651886	0.6737163066864014
125	133.52659440040588	response	0	k		123.0	/experiments/Knapen_AOT/AOT_stimuli/pictures/1015_fw.png	195.59013843536377	
126	133.53484463691711	picture	0		87	124.0	/experiments/Knapen_AOT/AOT_stimuli/pictures/1787_fw.png	195.598388671875	0.733220100402832
126	134.2516782283783	response	0	k		124.0	/experiments/Knapen_AOT/AOT_stimuli/pictures/1787_fw.png	196.31522226333618	
127	134.26806473731995	picture	0		115	125.0	/experiments/Knapen_AOT/AOT_stimuli/pictures/1621_fw.png	196.33160877227783	0.9611203670501709
127	135.21825408935547	response	0	j		125.0	/experiments/Knapen_AOT/AOT_stimuli/pictures/1621_fw.png	197.28179812431335	
128	135.22918510437012	picture	0		90	126.0	/experiments/Knapen_AOT/AOT_stimuli/pictures/1696_fw.png	197.292729139328	0.7555580139160156
128	135.96826338768005	response	0	k		126.0	/experiments/Knapen_AOT/AOT_stimuli/pictures/1696_fw.png	198.03180742263794	
129	135.98474311828613	picture	0		109	127.0	/experiments/Knapen_AOT/AOT_stimuli/pictures/2028_fw.png	198.04828715324402	0.9167113304138184
129	136.88520884513855	response	0	k		127.0	/experiments/Knapen_AOT/AOT_stimuli/pictures/2028_fw.png	198.94875288009644	
130	136.90145444869995	picture	0		90	128.0	/experiments/Knapen_AOT/AOT_stimuli/pictures/0637_fw.png	198.96499848365784	0.7513821125030518
130	137.6432981491089	response	0	k		128.0	/experiments/Knapen_AOT/AOT_stimuli/pictures/0637_fw.png	199.70684218406677	
131	137.652836561203	picture	0		86	129.0	/experiments/Knapen_AOT/AOT_stimuli/pictures/0642_fw.png	199.7163805961609	0.7153420448303223
131	138.35998630523682	response	0	k		129.0	/experiments/Knapen_AOT/AOT_stimuli/pictures/0642_fw.png	200.4235303401947	
132	138.36817860603333	picture	0		121	130.0	/experiments/Knapen_AOT/AOT_stimuli/pictures/1542_fw.png	200.4317226409912	1.0166516304016113
132	139.36831974983215	response	0	j		130.0	/experiments/Knapen_AOT/AOT_stimuli/pictures/1542_fw.png	201.43186378479004	
133	139.38483023643494	picture	0		160	131.0	/experiments/Knapen_AOT/AOT_stimuli/pictures/2150_fw.png	201.44837427139282	1.3373711109161377
133	140.71002840995789	response	0	k		131.0	/experiments/Knapen_AOT/AOT_stimuli/pictures/2150_fw.png	202.77357244491577	
134	140.72220134735107	picture	0		95	132.0	/experiments/Knapen_AOT/AOT_stimuli/pictures/0903_fw.png	202.78574538230896	0.7917790412902832
134	141.50169134140015	response	0	k		132.0	/experiments/Knapen_AOT/AOT_stimuli/pictures/0903_fw.png	203.56523537635803	
135	141.51398038864136	picture	0		94	133.0	/experiments/Knapen_AOT/AOT_stimuli/pictures/1010_fw.png	203.57752442359924	0.7916693687438965
135	142.29335141181946	response	0	j		133.0	/experiments/Knapen_AOT/AOT_stimuli/pictures/1010_fw.png	204.35689544677734	
136	142.30564975738525	picture	0		130	134.0	/experiments/Knapen_AOT/AOT_stimuli/pictures/0267_fw.png	204.36919379234314	1.0833265781402588
136	143.3766746520996	response	0	k		134.0	/experiments/Knapen_AOT/AOT_stimuli/pictures/0267_fw.png	205.4402186870575	
137	143.3889763355255	picture	0		97	135.0	/experiments/Knapen_AOT/AOT_stimuli/pictures/1742_fw.png	205.4525203704834	0.8125536441802979
137	144.18507194519043	response	0	k		135.0	/experiments/Knapen_AOT/AOT_stimuli/pictures/1742_fw.png	206.24861598014832	
138	144.2015299797058	picture	0		108	136.0	/experiments/Knapen_AOT/AOT_stimuli/pictures/1548_fw.png	206.2650740146637	0.9083335399627686
138	145.0934031009674	response	0	k		136.0	/experiments/Knapen_AOT/AOT_stimuli/pictures/1548_fw.png	207.1569471359253	
139	145.10986351966858	picture	0		120	137.0	/experiments/Knapen_AOT/AOT_stimuli/pictures/1331_fw.png	207.17340755462646	1.0083556175231934
139	146.1017553806305	response	0	j		137.0	/experiments/Knapen_AOT/AOT_stimuli/pictures/1331_fw.png	208.16529941558838	
140	146.11821913719177	picture	0		82	138.0	/experiments/Knapen_AOT/AOT_stimuli/pictures/0518_fw.png	208.18176317214966	0.6874361038208008
140	146.79375648498535	response	0	j		138.0	/experiments/Knapen_AOT/AOT_stimuli/pictures/0518_fw.png	208.85730051994324	
141	146.80565524101257	picture	0		123	139.0	/experiments/Knapen_AOT/AOT_stimuli/pictures/1183_fw.png	208.86919927597046	1.0292842388153076
141	147.81844210624695	response	0	k		139.0	/experiments/Knapen_AOT/AOT_stimuli/pictures/1183_fw.png	209.88198614120483	
142	147.83493947982788	picture	0		100	140.0	/experiments/Knapen_AOT/AOT_stimuli/pictures/1830_fw.png	209.89848351478577	0.8416450023651123
142	148.660222530365	response	0	j		140.0	/experiments/Knapen_AOT/AOT_stimuli/pictures/1830_fw.png	210.72376656532288	
143	148.676584482193	picture	0		141	141.0	/experiments/Knapen_AOT/AOT_stimuli/pictures/1653_fw.png	210.74012851715088	1.1833953857421875
143	149.84378790855408	response	0	j		141.0	/experiments/Knapen_AOT/AOT_stimuli/pictures/1653_fw.png	211.90733194351196	
144	149.85997986793518	picture	0		82	142.0	/experiments/Knapen_AOT/AOT_stimuli/pictures/0718_fw.png	211.92352390289307	0.6887321472167969
144	150.53513550758362	response	0	j		142.0	/experiments/Knapen_AOT/AOT_stimuli/pictures/0718_fw.png	212.5986795425415	
145	150.54871201515198	picture	0		112	143.0	/experiments/Knapen_AOT/AOT_stimuli/pictures/0130_fw.png	212.61225605010986	0.9445352554321289
145	151.46934604644775	response	0	k		143.0	/experiments/Knapen_AOT/AOT_stimuli/pictures/0130_fw.png	213.53289008140564	
146	151.4932472705841	picture	0		93	144.0	/experiments/Knapen_AOT/AOT_stimuli/pictures/0064_fw.png	213.556791305542	0.909804105758667
146	152.393536567688	response	0	k		144.0	/experiments/Knapen_AOT/AOT_stimuli/pictures/0064_fw.png	214.45708060264587	
147	152.40305137634277	picture	0		108	145.0	/experiments/Knapen_AOT/AOT_stimuli/pictures/0447_fw.png	214.46659541130066	0.9069383144378662
147	153.2936179637909	response	0	j		145.0	/experiments/Knapen_AOT/AOT_stimuli/pictures/0447_fw.png	215.35716199874878	
148	153.30998969078064	picture	0		142	146.0	/experiments/Knapen_AOT/AOT_stimuli/pictures/1996_fw.png	215.37353372573853	1.1916396617889404
148	154.4852306842804	response	0	j		146.0	/experiments/Knapen_AOT/AOT_stimuli/pictures/1996_fw.png	216.54877471923828	
149	154.50162935256958	picture	0		89	147.0	/experiments/Knapen_AOT/AOT_stimuli/pictures/1081_fw.png	216.56517338752747	0.7417891025543213
149	155.23540139198303	response	0	k		147.0	/experiments/Knapen_AOT/AOT_stimuli/pictures/1081_fw.png	217.29894542694092	
150	155.2434184551239	picture	0		95	148.0	/experiments/Knapen_AOT/AOT_stimuli/pictures/1154_fw.png	217.3069624900818	0.799907922744751
150	156.02697563171387	response	0	k		148.0	/experiments/Knapen_AOT/AOT_stimuli/pictures/1154_fw.png	218.09051966667175	
151	156.04332637786865	picture	0		261	149.0	/experiments/Knapen_AOT/AOT_stimuli/pictures/0137_fw.png	218.10687041282654	2.1833508014678955
151	158.2101902961731	response	0	k		149.0	/experiments/Knapen_AOT/AOT_stimuli/pictures/0137_fw.png	220.27373433113098	
152	158.22667717933655	picture	0		269	150.0	/experiments/Knapen_AOT/AOT_stimuli/pictures/0167_fw.png	220.29022121429443	2.250040292739868
152	160.4602189064026	response	0	k		150.0	/experiments/Knapen_AOT/AOT_stimuli/pictures/0167_fw.png	222.52376294136047	
153	160.47671747207642	picture	0		97	151.0	/experiments/Knapen_AOT/AOT_stimuli/pictures/1655_fw.png	222.5402615070343	0.8166656494140625
153	161.26952171325684	response	0	k		151.0	/experiments/Knapen_AOT/AOT_stimuli/pictures/1655_fw.png	223.33306574821472	
154	161.29338312149048	picture	0		119	152.0	/experiments/Knapen_AOT/AOT_stimuli/pictures/0248_fw.png	223.35692715644836	1.0000205039978027
154	162.27720665931702	response	0	k		152.0	/experiments/Knapen_AOT/AOT_stimuli/pictures/0248_fw.png	224.3407506942749	
155	162.29340362548828	picture	0		113	153.0	/experiments/Knapen_AOT/AOT_stimuli/pictures/1032_fw.png	224.35694766044617	0.9499802589416504
155	163.22690439224243	response	0	k		153.0	/experiments/Knapen_AOT/AOT_stimuli/pictures/1032_fw.png	225.29044842720032	
156	163.24338388442993	picture	0		98	154.0	/experiments/Knapen_AOT/AOT_stimuli/pictures/0030_fw.png	225.30692791938782	0.8250935077667236
156	164.04562306404114	response	0	k		154.0	/experiments/Knapen_AOT/AOT_stimuli/pictures/0030_fw.png	226.10916709899902	
157	164.06847739219666	picture	0		122	155.0	/experiments/Knapen_AOT/AOT_stimuli/pictures/1387_fw.png	226.13202142715454	1.0249531269073486
157	165.07002711296082	response	0	k		155.0	/experiments/Knapen_AOT/AOT_stimuli/pictures/1387_fw.png	227.1335711479187	
158	165.093430519104	picture	0		128	156.0	/experiments/Knapen_AOT/AOT_stimuli/pictures/0448_fw.png	227.1569745540619	1.0750150680541992
158	166.15194940567017	response	0	k		156.0	/experiments/Knapen_AOT/AOT_stimuli/pictures/0448_fw.png	228.21549344062805	
159	166.1684455871582	picture	0		169	157.0	/experiments/Knapen_AOT/AOT_stimuli/pictures/0383_fw.png	228.2319896221161	1.416680097579956
159	167.56880640983582	response	0	j		157.0	/experiments/Knapen_AOT/AOT_stimuli/pictures/0383_fw.png	229.6323504447937	
160	167.58512568473816	picture	0		92	158.0	/experiments/Knapen_AOT/AOT_stimuli/pictures/0017_fw.png	229.64866971969604	0.7749981880187988
160	168.34373378753662	response	0	k		158.0	/experiments/Knapen_AOT/AOT_stimuli/pictures/0017_fw.png	230.4072778224945	
161	168.36012387275696	picture	0		117	159.0	/experiments/Knapen_AOT/AOT_stimuli/pictures/1139_fw.png	230.42366790771484	0.9833414554595947
161	169.3270332813263	response	0	k		159.0	/experiments/Knapen_AOT/AOT_stimuli/pictures/1139_fw.png	231.39057731628418	
162	169.34346532821655	picture	0		114	160.0	/experiments/Knapen_AOT/AOT_stimuli/pictures/0789_fw.png	231.40700936317444	0.9583518505096436
162	170.28542375564575	response	0	k		160.0	/experiments/Knapen_AOT/AOT_stimuli/pictures/0789_fw.png	232.34896779060364	
163	170.3018171787262	picture	0		113	161.0	/experiments/Knapen_AOT/AOT_stimuli/pictures/0536_fw.png	232.36536121368408	0.9500257968902588
163	171.2354507446289	response	0	k		161.0	/experiments/Knapen_AOT/AOT_stimuli/pictures/0536_fw.png	233.2989947795868	
164	171.25184297561646	picture	0		110	162.0	/experiments/Knapen_AOT/AOT_stimuli/pictures/0763_fw.png	233.31538701057434	0.9220104217529297
164	172.16041159629822	response	0	k		162.0	/experiments/Knapen_AOT/AOT_stimuli/pictures/0763_fw.png	234.2239556312561	
165	172.17385339736938	picture	0		118	163.0	/experiments/Knapen_AOT/AOT_stimuli/pictures/1330_fw.png	234.23739743232727	0.9862954616546631
165	173.15203261375427	response	0	k		163.0	/experiments/Knapen_AOT/AOT_stimuli/pictures/1330_fw.png	235.21557664871216	
166	173.16014885902405	picture	0		97	164.0	/experiments/Knapen_AOT/AOT_stimuli/pictures/2154_fw.png	235.22369289398193	0.816709041595459
166	173.9603624343872	response	0	k		164.0	/experiments/Knapen_AOT/AOT_stimuli/pictures/2154_fw.png	236.0239064693451	
167	173.9768579006195	picture	0		119	165.0	/experiments/Knapen_AOT/AOT_stimuli/pictures/1446_fw.png	236.0404019355774	0.9999957084655762
167	174.96049308776855	response	0	k		165.0	/experiments/Knapen_AOT/AOT_stimuli/pictures/1446_fw.png	237.02403712272644	
168	174.97685360908508	picture	0		85	166.0	/experiments/Knapen_AOT/AOT_stimuli/pictures/2145_fw.png	237.04039764404297	0.7109150886535645
168	175.66950941085815	response	0	k		166.0	/experiments/Knapen_AOT/AOT_stimuli/pictures/2145_fw.png	237.73305344581604	
169	175.68776869773865	picture	0		108	167.0	/experiments/Knapen_AOT/AOT_stimuli/pictures/0116_fw.png	237.75131273269653	0.9027726650238037
169	176.57705569267273	response	0	j		167.0	/experiments/Knapen_AOT/AOT_stimuli/pictures/0116_fw.png	238.64059972763062	
170	176.59054136276245	picture	0		87	168.0	/experiments/Knapen_AOT/AOT_stimuli/pictures/1104_fw.png	238.65408539772034	0.7363331317901611
170	177.3105823993683	response	0	j		168.0	/experiments/Knapen_AOT/AOT_stimuli/pictures/1104_fw.png	239.37412643432617	
171	177.3268744945526	picture	0		99	169.0	/experiments/Knapen_AOT/AOT_stimuli/pictures/0441_fw.png	239.3904185295105	0.8262031078338623
171	178.14377808570862	response	0	k		169.0	/experiments/Knapen_AOT/AOT_stimuli/pictures/0441_fw.png	240.2073221206665	
172	178.15307760238647	picture	0		128	170.0	/experiments/Knapen_AOT/AOT_stimuli/pictures/1399_fw.png	240.21662163734436	1.0694482326507568
172	179.21044731140137	response	0	k		170.0	/experiments/Knapen_AOT/AOT_stimuli/pictures/1399_fw.png	241.27399134635925	
173	179.22252583503723	picture	0		125	171.0	/experiments/Knapen_AOT/AOT_stimuli/pictures/0455_fw.png	241.28606986999512	1.0416820049285889
173	180.2521529197693	response	0	k		171.0	/experiments/Knapen_AOT/AOT_stimuli/pictures/0455_fw.png	242.31569695472717	
174	180.26420783996582	picture	0		123	172.0	/experiments/Knapen_AOT/AOT_stimuli/pictures/1235_fw.png	242.3277518749237	1.0294015407562256
174	181.27737832069397	response	0	k		172.0	/experiments/Knapen_AOT/AOT_stimuli/pictures/1235_fw.png	243.34092235565186	
175	181.29360938072205	picture	0		155	173.0	/experiments/Knapen_AOT/AOT_stimuli/pictures/0367_fw.png	243.35715341567993	1.2970294952392578
175	182.57713103294373	response	0	k		173.0	/experiments/Knapen_AOT/AOT_stimuli/pictures/0367_fw.png	244.6406750679016	
176	182.5906388759613	picture	0		143	174.0	/experiments/Knapen_AOT/AOT_stimuli/pictures/0712_fw.png	244.6541829109192	1.2029943466186523
176	183.7774407863617	response	0	k		174.0	/experiments/Knapen_AOT/AOT_stimuli/pictures/0712_fw.png	245.84098482131958	
177	183.79363322257996	picture	0		134	175.0	/experiments/Knapen_AOT/AOT_stimuli/pictures/1407_fw.png	245.85717725753784	1.1250348091125488
177	184.90221858024597	response	0	j		175.0	/experiments/Knapen_AOT/AOT_stimuli/pictures/1407_fw.png	246.96576261520386	
178	184.9186680316925	picture	0		127	176.0	/experiments/Knapen_AOT/AOT_stimuli/pictures/0827_fw.png	246.9822120666504	1.0666697025299072
178	185.96889352798462	response	0	k		176.0	/experiments/Knapen_AOT/AOT_stimuli/pictures/0827_fw.png	248.0324375629425	
179	185.9853377342224	picture	0		118	177.0	/experiments/Knapen_AOT/AOT_stimuli/pictures/1019_fw.png	248.0488817691803	0.9872736930847168
179	186.9607081413269	response	0	k		177.0	/experiments/Knapen_AOT/AOT_stimuli/pictures/1019_fw.png	249.0242521762848	
180	186.97261142730713	picture	0		110	178.0	/experiments/Knapen_AOT/AOT_stimuli/pictures/0487_fw.png	249.03615546226501	0.9166445732116699
180	187.87729406356812	response	0	k		178.0	/experiments/Knapen_AOT/AOT_stimuli/pictures/0487_fw.png	249.940838098526	
181	187.8892560005188	picture	0		114	179.0	/experiments/Knapen_AOT/AOT_stimuli/pictures/0510_fw.png	249.95280003547668	0.95444655418396
181	188.82742595672607	response	0	j		179.0	/experiments/Knapen_AOT/AOT_stimuli/pictures/0510_fw.png	250.89096999168396	
182	188.84370255470276	picture	0		120	180.0	/experiments/Knapen_AOT/AOT_stimuli/pictures/0096_fw.png	250.90724658966064	1.0083584785461426
182	189.8355872631073	response	0	j		180.0	/experiments/Knapen_AOT/AOT_stimuli/pictures/0096_fw.png	251.89913129806519	
183	189.8520610332489	picture	0		91	181.0	/experiments/Knapen_AOT/AOT_stimuli/pictures/1321_fw.png	251.9156050682068	0.7666442394256592
183	190.60226035118103	response	0	j		181.0	/experiments/Knapen_AOT/AOT_stimuli/pictures/1321_fw.png	252.66580438613892	
184	190.61870527267456	picture	0		103	182.0	/experiments/Knapen_AOT/AOT_stimuli/pictures/1479_fw.png	252.68224930763245	0.8609426021575928
184	191.4613494873047	response	0	j		182.0	/experiments/Knapen_AOT/AOT_stimuli/pictures/1479_fw.png	253.52489352226257	
185	191.47964787483215	picture	0		80	183.0	/experiments/Knapen_AOT/AOT_stimuli/pictures/0840_fw.png	253.54319190979004	0.6724498271942139
185	192.13581705093384	response	0	j		183.0	/experiments/Knapen_AOT/AOT_stimuli/pictures/0840_fw.png	254.19936108589172	
186	192.15209770202637	picture	0		141	184.0	/experiments/Knapen_AOT/AOT_stimuli/pictures/1311_fw.png	254.21564173698425	1.1833140850067139
186	193.31892609596252	response	0	k		184.0	/experiments/Knapen_AOT/AOT_stimuli/pictures/1311_fw.png	255.3824701309204	
187	193.33541178703308	picture	0		113	185.0	/experiments/Knapen_AOT/AOT_stimuli/pictures/1113_fw.png	255.39895582199097	0.9500031471252441
187	194.26915764808655	response	0	k		185.0	/experiments/Knapen_AOT/AOT_stimuli/pictures/1113_fw.png	256.33270168304443	
188	194.28541493415833	picture	0		93	186.0	/experiments/Knapen_AOT/AOT_stimuli/pictures/0142_fw.png	256.3489589691162	0.7833490371704102
188	195.05233240127563	response	0	j		186.0	/experiments/Knapen_AOT/AOT_stimuli/pictures/0142_fw.png	257.1158764362335	
189	195.06876397132874	picture	0		106	187.0	/experiments/Knapen_AOT/AOT_stimuli/pictures/1624_fw.png	257.1323080062866	0.8900198936462402
189	195.94401049613953	response	0	k		187.0	/experiments/Knapen_AOT/AOT_stimuli/pictures/1624_fw.png	258.0075545310974	
190	195.95878386497498	picture	0		91	188.0	/experiments/Knapen_AOT/AOT_stimuli/pictures/1179_fw.png	258.02232789993286	0.7638664245605469
190	196.7106602191925	response	0	k		188.0	/experiments/Knapen_AOT/AOT_stimuli/pictures/1179_fw.png	258.7742042541504	
191	196.72265028953552	picture	0		88	189.0	/experiments/Knapen_AOT/AOT_stimuli/pictures/0025_fw.png	258.7861943244934	0.7378151416778564
191	197.44400644302368	response	0	k		189.0	/experiments/Knapen_AOT/AOT_stimuli/pictures/0025_fw.png	259.50755047798157	
192	197.46046543121338	picture	0		90	190.0	/experiments/Knapen_AOT/AOT_stimuli/pictures/1534_fw.png	259.52400946617126	0.7583463191986084
192	198.20228576660156	response	0	k		190.0	/experiments/Knapen_AOT/AOT_stimuli/pictures/1534_fw.png	260.26582980155945	
193	198.218811750412	picture	0		128	191.0	/experiments/Knapen_AOT/AOT_stimuli/pictures/0900_fw.png	260.2823557853699	1.0749962329864502
193	199.27740168571472	response	0	k		191.0	/experiments/Knapen_AOT/AOT_stimuli/pictures/0900_fw.png	261.3409457206726	
194	199.29380798339844	picture	0		340	192.0	/experiments/Knapen_AOT/AOT_stimuli/pictures/1320_fw.png	261.3573520183563	2.8384900093078613
194	202.119042634964	response	0	k		192.0	/experiments/Knapen_AOT/AOT_stimuli/pictures/1320_fw.png	264.1825866699219	
195	202.1322979927063	picture	0		114	193.0	/experiments/Knapen_AOT/AOT_stimuli/pictures/1809_fw.png	264.1958420276642	0.961571216583252
195	203.07765746116638	response	0	j		193.0	/experiments/Knapen_AOT/AOT_stimuli/pictures/1809_fw.png	265.14120149612427	
196	203.09386920928955	picture	0		104	194.0	/experiments/Knapen_AOT/AOT_stimuli/pictures/0062_fw.png	265.15741324424744	0.8750226497650146
196	203.95261144638062	response	0	k		194.0	/experiments/Knapen_AOT/AOT_stimuli/pictures/0062_fw.png	266.0161554813385	
197	203.96889185905457	picture	0		97	195.0	/experiments/Knapen_AOT/AOT_stimuli/pictures/0303_fw.png	266.03243589401245	0.81662917137146
197	204.76910996437073	response	0	j		195.0	/experiments/Knapen_AOT/AOT_stimuli/pictures/0303_fw.png	266.8326539993286	
198	204.78552103042603	picture	0		179	196.0	/experiments/Knapen_AOT/AOT_stimuli/pictures/0227_fw.png	266.8490650653839	1.5000686645507812
198	206.2616891860962	response	0	k		196.0	/experiments/Knapen_AOT/AOT_stimuli/pictures/0227_fw.png	268.3252332210541	
199	206.2855896949768	picture	0		130	197.0	/experiments/Knapen_AOT/AOT_stimuli/pictures/1128_fw.png	268.3491337299347	1.091641902923584
199	207.3607497215271	response	0	j		197.0	/experiments/Knapen_AOT/AOT_stimuli/pictures/1128_fw.png	269.424293756485	
200	207.3772315979004	picture	0		185	198.0	/experiments/Knapen_AOT/AOT_stimuli/pictures/2026_fw.png	269.4407756328583	1.5501196384429932
200	208.91077780723572	response	0	k		198.0	/experiments/Knapen_AOT/AOT_stimuli/pictures/2026_fw.png	270.9743218421936	
201	208.92735123634338	picture	0		106	199.0	/experiments/Knapen_AOT/AOT_stimuli/pictures/2004_fw.png	270.99089527130127	0.8856520652770996
201	209.80249500274658	response	0	k		199.0	/experiments/Knapen_AOT/AOT_stimuli/pictures/2004_fw.png	271.86603903770447	
202	209.81300330162048	picture	0		88	200.0	/experiments/Knapen_AOT/AOT_stimuli/pictures/0033_fw.png	271.87654733657837	0.7393345832824707
202	210.53579998016357	response	0	k		200.0	/experiments/Knapen_AOT/AOT_stimuli/pictures/0033_fw.png	272.59934401512146	
203	210.55233788490295	picture	0		86	201.0	/experiments/Knapen_AOT/AOT_stimuli/pictures/0542_fw.png	272.61588191986084	0.7190065383911133
203	211.2531237602234	response	0	j		201.0	/experiments/Knapen_AOT/AOT_stimuli/pictures/0542_fw.png	273.3166677951813	
204	211.27134442329407	picture	0		109	202.0	/experiments/Knapen_AOT/AOT_stimuli/pictures/1333_fw.png	273.33488845825195	0.9097874164581299
204	212.16913270950317	response	0	k		202.0	/experiments/Knapen_AOT/AOT_stimuli/pictures/1333_fw.png	274.23267674446106	
205	212.1811318397522	picture	0		96	203.0	/experiments/Knapen_AOT/AOT_stimuli/pictures/0359_fw.png	274.2446758747101	0.8045065402984619
205	212.96932911872864	response	0	k		203.0	/experiments/Knapen_AOT/AOT_stimuli/pictures/0359_fw.png	275.0328731536865	
206	212.98563838005066	picture	0		106	204.0	/experiments/Knapen_AOT/AOT_stimuli/pictures/1740_fw.png	275.04918241500854	0.8833091259002686
206	213.853257894516	response	0	k		204.0	/experiments/Knapen_AOT/AOT_stimuli/pictures/1740_fw.png	275.9168019294739	
207	213.86894750595093	picture	0		102	205.0	/experiments/Knapen_AOT/AOT_stimuli/pictures/1452_fw.png	275.9324915409088	0.8583590984344482
207	214.71085858345032	response	0	k		205.0	/experiments/Knapen_AOT/AOT_stimuli/pictures/1452_fw.png	276.7744026184082	
208	214.72730660438538	picture	0		96	206.0	/experiments/Knapen_AOT/AOT_stimuli/pictures/0552_fw.png	276.79085063934326	0.8009884357452393
208	215.51917815208435	response	0	k		206.0	/experiments/Knapen_AOT/AOT_stimuli/pictures/0552_fw.png	277.58272218704224	
209	215.52829504013062	picture	0		143	207.0	/experiments/Knapen_AOT/AOT_stimuli/pictures/0296_fw.png	277.5918390750885	1.1944725513458252
209	216.71086049079895	response	0	k		207.0	/experiments/Knapen_AOT/AOT_stimuli/pictures/0296_fw.png	278.77440452575684	
210	216.72276759147644	picture	0		164	208.0	/experiments/Knapen_AOT/AOT_stimuli/pictures/0808_fw.png	278.7863116264343	1.3712801933288574
210	218.07769680023193	response	0	k		208.0	/experiments/Knapen_AOT/AOT_stimuli/pictures/0808_fw.png	280.1412408351898	
211	218.0940477848053	picture	0		107	209.0	/experiments/Knapen_AOT/AOT_stimuli/pictures/0312_fw.png	280.1575918197632	0.8999731540679932
211	218.97755098342896	response	0	k		209.0	/experiments/Knapen_AOT/AOT_stimuli/pictures/0312_fw.png	281.04109501838684	
212	218.9940209388733	picture	0		109	210.0	/experiments/Knapen_AOT/AOT_stimuli/pictures/0270_fw.png	281.0575649738312	0.916754961013794
212	219.89432907104492	response	0	k		210.0	/experiments/Knapen_AOT/AOT_stimuli/pictures/0270_fw.png	281.9578731060028	
213	219.91077589988708	picture	0		101	211.0	/experiments/Knapen_AOT/AOT_stimuli/pictures/1207_fw.png	281.97431993484497	0.8499586582183838
213	220.74422979354858	response	0	k		211.0	/experiments/Knapen_AOT/AOT_stimuli/pictures/1207_fw.png	282.80777382850647	
214	220.76073455810547	picture	0		206	212.0	/experiments/Knapen_AOT/AOT_stimuli/pictures/1891_fw.png	282.82427859306335	1.7250430583953857
214	222.46204781532288	response	0	k		212.0	/experiments/Knapen_AOT/AOT_stimuli/pictures/1891_fw.png	284.52559185028076	
215	222.48577761650085	picture	0		118	213.0	/experiments/Knapen_AOT/AOT_stimuli/pictures/0907_fw.png	284.54932165145874	0.9916653633117676
215	223.45353364944458	response	0	k		213.0	/experiments/Knapen_AOT/AOT_stimuli/pictures/0907_fw.png	285.51707768440247	
216	223.47744297981262	picture	0		114	214.0	/experiments/Knapen_AOT/AOT_stimuli/pictures/1825_fw.png	285.5409870147705	0.9583244323730469
216	224.41933298110962	response	0	j		214.0	/experiments/Knapen_AOT/AOT_stimuli/pictures/1825_fw.png	286.4828770160675	
217	224.43576741218567	picture	0		110	215.0	/experiments/Knapen_AOT/AOT_stimuli/pictures/0490_fw.png	286.49931144714355	0.9189767837524414
217	225.3443796634674	response	0	k		215.0	/experiments/Knapen_AOT/AOT_stimuli/pictures/0490_fw.png	287.4079236984253	
218	225.3547441959381	picture	0		115	216.0	/experiments/Knapen_AOT/AOT_stimuli/pictures/0366_fw.png	287.418288230896	0.9644005298614502
218	226.3026556968689	response	0	k		216.0	/experiments/Knapen_AOT/AOT_stimuli/pictures/0366_fw.png	288.3661997318268	
219	226.31914472579956	picture	0		114	217.0	/experiments/Knapen_AOT/AOT_stimuli/pictures/1068_fw.png	288.38268876075745	0.9522950649261475
219	227.25341939926147	response	0	k		217.0	/experiments/Knapen_AOT/AOT_stimuli/pictures/1068_fw.png	289.31696343421936	
220	227.2714397907257	picture	0		180	218.0	/experiments/Knapen_AOT/AOT_stimuli/pictures/1487_fw.png	289.3349838256836	1.4999115467071533
220	228.761048078537	response	0	j		218.0	/experiments/Knapen_AOT/AOT_stimuli/pictures/1487_fw.png	290.8245921134949	
221	228.77135133743286	picture	0		129	219.0	/experiments/Knapen_AOT/AOT_stimuli/pictures/1523_fw.png	290.83489537239075	1.076474905014038
221	229.83625102043152	response	0	j		219.0	/experiments/Knapen_AOT/AOT_stimuli/pictures/1523_fw.png	291.8997950553894	
222	229.8478262424469	picture	0		90	220.0	/experiments/Knapen_AOT/AOT_stimuli/pictures/0058_fw.png	291.9113702774048	0.754770040512085
222	230.5860526561737	response	0	k		220.0	/experiments/Knapen_AOT/AOT_stimuli/pictures/0058_fw.png	292.6495966911316	
223	230.60259628295898	picture	0		121	221.0	/experiments/Knapen_AOT/AOT_stimuli/pictures/1931_fw.png	292.66614031791687	1.0165789127349854
223	231.60274720191956	response	0	k		221.0	/experiments/Knapen_AOT/AOT_stimuli/pictures/1931_fw.png	293.66629123687744	
224	231.61917519569397	picture	0		105	222.0	/experiments/Knapen_AOT/AOT_stimuli/pictures/1679_fw.png	293.68271923065186	0.8814404010772705
224	232.48608231544495	response	0	k		222.0	/experiments/Knapen_AOT/AOT_stimuli/pictures/1679_fw.png	294.54962635040283	
225	232.50061559677124	picture	0		146	223.0	/experiments/Knapen_AOT/AOT_stimuli/pictures/1672_fw.png	294.5641596317291	1.2269306182861328
225	233.71114444732666	response	0	k		223.0	/experiments/Knapen_AOT/AOT_stimuli/pictures/1672_fw.png	295.77468848228455	
226	233.72754621505737	picture	0		109	224.0	/experiments/Knapen_AOT/AOT_stimuli/pictures/0597_fw.png	295.79109025001526	0.9166944026947021
226	234.6277894973755	response	0	k		224.0	/experiments/Knapen_AOT/AOT_stimuli/pictures/0597_fw.png	296.6913335323334	
227	234.64424061775208	picture	0		103	225.0	/experiments/Knapen_AOT/AOT_stimuli/pictures/1611_fw.png	296.70778465270996	0.8633413314819336
227	235.4943962097168	response	0	k		225.0	/experiments/Knapen_AOT/AOT_stimuli/pictures/1611_fw.png	297.5579402446747	
228	235.507581949234	picture	0		97	226.0	/experiments/Knapen_AOT/AOT_stimuli/pictures/1873_fw.png	297.5711259841919	0.8200104236602783
228	236.31127834320068	response	0	j		226.0	/experiments/Knapen_AOT/AOT_stimuli/pictures/1873_fw.png	298.37482237815857	
229	236.3275923728943	picture	0		127	227.0	/experiments/Knapen_AOT/AOT_stimuli/pictures/0697_fw.png	298.3911364078522	1.0619592666625977
229	237.37779831886292	response	0	k		227.0	/experiments/Knapen_AOT/AOT_stimuli/pictures/0697_fw.png	299.4413423538208	
230	237.38955163955688	picture	0		131	228.0	/experiments/Knapen_AOT/AOT_stimuli/pictures/1942_fw.png	299.45309567451477	1.0903239250183105
230	238.4694652557373	response	0	k		228.0	/experiments/Knapen_AOT/AOT_stimuli/pictures/1942_fw.png	300.5330092906952	
231	238.4798755645752	picture	0		300	229.0	/experiments/Knapen_AOT/AOT_stimuli/pictures/1984_fw.png	300.5434195995331	2.5061748027801514
231	240.9694893360138	response	0	k		229.0	/experiments/Knapen_AOT/AOT_stimuli/pictures/1984_fw.png	303.0330333709717	
232	240.98605036735535	picture	0		126	230.0	/experiments/Knapen_AOT/AOT_stimuli/pictures/1166_fw.png	303.04959440231323	1.0582702159881592
232	242.02803921699524	response	0	k		230.0	/experiments/Knapen_AOT/AOT_stimuli/pictures/1166_fw.png	304.0915832519531	
233	242.0443205833435	picture	0		104	231.0	/experiments/Knapen_AOT/AOT_stimuli/pictures/0476_fw.png	304.1078646183014	0.8749957084655762
233	242.90311431884766	response	0	k		231.0	/experiments/Knapen_AOT/AOT_stimuli/pictures/0476_fw.png	304.96665835380554	
234	242.91931629180908	picture	0		118	232.0	/experiments/Knapen_AOT/AOT_stimuli/pictures/0187_fw.png	304.98286032676697	0.9916679859161377
234	243.8945860862732	response	0	j		232.0	/experiments/Knapen_AOT/AOT_stimuli/pictures/0187_fw.png	305.9581301212311	
235	243.91098427772522	picture	0		110	233.0	/experiments/Knapen_AOT/AOT_stimuli/pictures/1998_fw.png	305.9745283126831	0.9250473976135254
235	244.8195207118988	response	0	k		233.0	/experiments/Knapen_AOT/AOT_stimuli/pictures/1998_fw.png	306.8830647468567	
236	244.83603167533875	picture	0		186	234.0	/experiments/Knapen_AOT/AOT_stimuli/pictures/1520_fw.png	306.89957571029663	1.558345079421997
236	246.3779067993164	response	0	j		234.0	/experiments/Knapen_AOT/AOT_stimuli/pictures/1520_fw.png	308.4414508342743	
237	246.39437675476074	picture	0		200	235.0	/experiments/Knapen_AOT/AOT_stimuli/pictures/0621_fw.png	308.4579207897186	1.6751079559326172
237	248.0456702709198	response	0	k		235.0	/experiments/Knapen_AOT/AOT_stimuli/pictures/0621_fw.png	310.1092143058777	
238	248.06948471069336	picture	0		132	236.0	/experiments/Knapen_AOT/AOT_stimuli/pictures/0557_fw.png	310.13302874565125	1.1082408428192139
238	249.16122150421143	response	0	k		236.0	/experiments/Knapen_AOT/AOT_stimuli/pictures/0557_fw.png	311.2247655391693	
239	249.17772555351257	picture	0		110	237.0	/experiments/Knapen_AOT/AOT_stimuli/pictures/0003_fw.png	311.24126958847046	0.9250264167785645
239	250.08625721931458	response	0	k		237.0	/experiments/Knapen_AOT/AOT_stimuli/pictures/0003_fw.png	312.14980125427246	
240	250.10275197029114	picture	0		98	238.0	/experiments/Knapen_AOT/AOT_stimuli/pictures/0041_fw.png	312.166296005249	0.8216147422790527
240	250.91126203536987	response	0	k		238.0	/experiments/Knapen_AOT/AOT_stimuli/pictures/0041_fw.png	312.97480607032776	
241	250.9243667125702	picture	0		152	239.0	/experiments/Knapen_AOT/AOT_stimuli/pictures/1340_fw.png	312.9879107475281	1.2700855731964111
241	252.17815446853638	response	0	k		239.0	/experiments/Knapen_AOT/AOT_stimuli/pictures/1340_fw.png	314.24169850349426	
242	252.1944522857666	picture	0		132	240.0	/experiments/Knapen_AOT/AOT_stimuli/pictures/0930_fw.png	314.2579963207245	1.1049182415008545
242	253.28631258010864	response	0	j		240.0	/experiments/Knapen_AOT/AOT_stimuli/pictures/0930_fw.png	315.3498566150665	
243	253.29937052726746	picture	0		121	241.0	/experiments/Knapen_AOT/AOT_stimuli/pictures/1965_fw.png	315.36291456222534	1.0117778778076172
243	254.29470467567444	response	0	j		241.0	/experiments/Knapen_AOT/AOT_stimuli/pictures/1965_fw.png	316.3582487106323	
244	254.31114840507507	picture	0		126	242.0	/experiments/Knapen_AOT/AOT_stimuli/pictures/0161_fw.png	316.37469244003296	1.0583012104034424
244	255.35289025306702	response	0	k		242.0	/experiments/Knapen_AOT/AOT_stimuli/pictures/0161_fw.png	317.4164342880249	
245	255.36944961547852	picture	0		106	243.0	/experiments/Knapen_AOT/AOT_stimuli/pictures/1230_fw.png	317.4329936504364	0.8916981220245361
245	256.2447006702423	response	0	j		243.0	/experiments/Knapen_AOT/AOT_stimuli/pictures/1230_fw.png	318.3082447052002	
246	256.26114773750305	picture	0		97	244.0	/experiments/Knapen_AOT/AOT_stimuli/pictures/0384_fw.png	318.32469177246094	0.8166625499725342
246	257.05491733551025	response	0	j		244.0	/experiments/Knapen_AOT/AOT_stimuli/pictures/0384_fw.png	319.11846137046814	
247	257.0778102874756	picture	0		186	245.0	/experiments/Knapen_AOT/AOT_stimuli/pictures/1029_fw.png	319.1413543224335	1.5583980083465576
247	258.61968660354614	response	0	j		245.0	/experiments/Knapen_AOT/AOT_stimuli/pictures/1029_fw.png	320.683230638504	
248	258.63620829582214	picture	0		89	246.0	/experiments/Knapen_AOT/AOT_stimuli/pictures/0684_fw.png	320.69975233078003	0.7499926090240479
248	259.36968874931335	response	0	k		246.0	/experiments/Knapen_AOT/AOT_stimuli/pictures/0684_fw.png	321.43323278427124	
249	259.3862009048462	picture	0		138	247.0	/experiments/Knapen_AOT/AOT_stimuli/pictures/1257_fw.png	321.4497449398041	1.1562886238098145
249	260.5280673503876	response	0	j		247.0	/experiments/Knapen_AOT/AOT_stimuli/pictures/1257_fw.png	322.59161138534546	
250	260.542489528656	picture	0		86	248.0	/experiments/Knapen_AOT/AOT_stimuli/pictures/1013_fw.png	322.6060335636139	0.7270402908325195
250	261.2458794116974	response	0	j		248.0	/experiments/Knapen_AOT/AOT_stimuli/pictures/1013_fw.png	323.3094234466553	
251	261.2695298194885	picture	0		139	249.0	/experiments/Knapen_AOT/AOT_stimuli/pictures/0873_fw.png	323.3330738544464	1.1667277812957764
251	262.419730424881	response	0	k		249.0	/experiments/Knapen_AOT/AOT_stimuli/pictures/0873_fw.png	324.48327445983887	
252	262.4362576007843	picture	0		105	250.0	/experiments/Knapen_AOT/AOT_stimuli/pictures/2005_fw.png	324.4998016357422	0.8833150863647461
252	263.3032603263855	response	0	k		250.0	/experiments/Knapen_AOT/AOT_stimuli/pictures/2005_fw.png	325.3668043613434	
253	263.31957268714905	picture	0		241	251.0	/experiments/Knapen_AOT/AOT_stimuli/pictures/0474_fw.png	325.38311672210693	2.014533042907715
253	265.3197660446167	response	0	k		251.0	/experiments/Knapen_AOT/AOT_stimuli/pictures/0474_fw.png	327.3833100795746	
254	265.33410573005676	picture	0		105	252.0	/experiments/Knapen_AOT/AOT_stimuli/pictures/0825_fw.png	327.39764976501465	0.8820521831512451
254	266.20316648483276	response	0	k		252.0	/experiments/Knapen_AOT/AOT_stimuli/pictures/0825_fw.png	328.26671051979065	
255	266.216157913208	picture	0		135	253.0	/experiments/Knapen_AOT/AOT_stimuli/pictures/1353_fw.png	328.2797019481659	1.136782169342041
255	267.3364894390106	response	0	k		253.0	/experiments/Knapen_AOT/AOT_stimuli/pictures/1353_fw.png	329.4000334739685	
256	267.35294008255005	picture	0		99	254.0	/experiments/Knapen_AOT/AOT_stimuli/pictures/2072_fw.png	329.41648411750793	0.8284955024719238
256	268.169793844223	response	0	k		254.0	/experiments/Knapen_AOT/AOT_stimuli/pictures/2072_fw.png	330.2333378791809	
257	268.181435585022	picture	0		138	255.0	/experiments/Knapen_AOT/AOT_stimuli/pictures/0401_fw.png	330.24497961997986	1.1548705101013184
257	269.3198115825653	response	0	k		255.0	/experiments/Knapen_AOT/AOT_stimuli/pictures/0401_fw.png	331.3833556175232	
258	269.3363060951233	picture	0		103	256.0	/experiments/Knapen_AOT/AOT_stimuli/pictures/1512_fw.png	331.3998501300812	0.8666603565216064
258	270.1864879131317	response	0	k		256.0	/experiments/Knapen_AOT/AOT_stimuli/pictures/1512_fw.png	332.2500319480896	
259	270.2029664516449	picture	0		182	257.0	/experiments/Knapen_AOT/AOT_stimuli/pictures/1205_fw.png	332.2665104866028	1.525055170059204
259	271.71150517463684	response	0	k		257.0	/experiments/Knapen_AOT/AOT_stimuli/pictures/1205_fw.png	333.7750492095947	
260	271.7280216217041	picture	0		88	258.0	/experiments/Knapen_AOT/AOT_stimuli/pictures/1034_fw.png	333.791565656662	0.7416467666625977
260	272.4534640312195	response	0	k		258.0	/experiments/Knapen_AOT/AOT_stimuli/pictures/1034_fw.png	334.51700806617737	
261	272.4696683883667	picture	0		111	259.0	/experiments/Knapen_AOT/AOT_stimuli/pictures/1354_fw.png	334.5332124233246	0.9333572387695312
261	273.38656401634216	response	0	k		259.0	/experiments/Knapen_AOT/AOT_stimuli/pictures/1354_fw.png	335.45010805130005	
262	273.40302562713623	picture	0		121	260.0	/experiments/Knapen_AOT/AOT_stimuli/pictures/0580_fw.png	335.4665696620941	1.0166685581207275
262	274.40325140953064	response	0	k		260.0	/experiments/Knapen_AOT/AOT_stimuli/pictures/0580_fw.png	336.4667954444885	
263	274.41969418525696	picture	0		156	261.0	/experiments/Knapen_AOT/AOT_stimuli/pictures/1580_fw.png	336.48323822021484	1.303447961807251
263	275.7115604877472	response	0	k		261.0	/experiments/Knapen_AOT/AOT_stimuli/pictures/1580_fw.png	337.7751045227051	
264	275.7231421470642	picture	0		99	262.0	/experiments/Knapen_AOT/AOT_stimuli/pictures/2050_fw.png	337.7866861820221	0.8299276828765869
264	276.53655672073364	response	0	j		262.0	/experiments/Knapen_AOT/AOT_stimuli/pictures/2050_fw.png	338.6001007556915	
265	276.5530698299408	picture	0		94	263.0	/experiments/Knapen_AOT/AOT_stimuli/pictures/0870_fw.png	338.6166138648987	0.7916526794433594
265	277.328307390213	response	0	j		263.0	/experiments/Knapen_AOT/AOT_stimuli/pictures/0870_fw.png	339.3918514251709	
266	277.34472250938416	picture	0		99	264.0	/experiments/Knapen_AOT/AOT_stimuli/pictures/0636_fw.png	339.40826654434204	0.83335280418396
266	278.1615879535675	response	0	k		264.0	/experiments/Knapen_AOT/AOT_stimuli/pictures/0636_fw.png	340.2251319885254	
267	278.1780753135681	picture	0		91	265.0	/experiments/Knapen_AOT/AOT_stimuli/pictures/0206_fw.png	340.241619348526	0.7603411674499512
267	278.9282510280609	response	0	j		265.0	/experiments/Knapen_AOT/AOT_stimuli/pictures/0206_fw.png	340.9917950630188	
268	278.93841648101807	picture	0		110	266.0	/experiments/Knapen_AOT/AOT_stimuli/pictures/0024_fw.png	341.00196051597595	0.9167022705078125
268	279.83755803108215	response	0	k		266.0	/experiments/Knapen_AOT/AOT_stimuli/pictures/0024_fw.png	341.90110206604004	
269	279.8551187515259	picture	0		135	267.0	/experiments/Knapen_AOT/AOT_stimuli/pictures/1769_fw.png	341.91866278648376	1.1313138008117676
269	280.97020149230957	response	0	j		267.0	/experiments/Knapen_AOT/AOT_stimuli/pictures/1769_fw.png	343.03374552726746	
270	280.98643255233765	picture	0		129	268.0	/experiments/Knapen_AOT/AOT_stimuli/pictures/1346_fw.png	343.04997658729553	1.0833520889282227
270	282.05348682403564	response	0	k		268.0	/experiments/Knapen_AOT/AOT_stimuli/pictures/1346_fw.png	344.11703085899353	
271	282.06978464126587	picture	0		139	269.0	/experiments/Knapen_AOT/AOT_stimuli/pictures/0626_fw.png	344.13332867622375	1.1667084693908691
271	283.2199864387512	response	0	k		269.0	/experiments/Knapen_AOT/AOT_stimuli/pictures/0626_fw.png	345.2835304737091	
272	283.23649311065674	picture	0		111	270.0	/experiments/Knapen_AOT/AOT_stimuli/pictures/0499_fw.png	345.3000371456146	0.93332839012146
272	284.1533532142639	response	0	j		270.0	/experiments/Knapen_AOT/AOT_stimuli/pictures/0499_fw.png	346.2168972492218	
273	284.1698215007782	picture	0		125	271.0	/experiments/Knapen_AOT/AOT_stimuli/pictures/0254_fw.png	346.2333655357361	1.0499937534332275
273	285.2033019065857	response	0	k		271.0	/experiments/Knapen_AOT/AOT_stimuli/pictures/0254_fw.png	347.2668459415436	
274	285.2198152542114	picture	0		130	272.0	/experiments/Knapen_AOT/AOT_stimuli/pictures/1579_fw.png	347.2833592891693	1.0866901874542236
274	286.2950282096863	response	0	k		272.0	/experiments/Knapen_AOT/AOT_stimuli/pictures/1579_fw.png	348.35857224464417	
275	286.30650544166565	picture	0		146	273.0	/experiments/Knapen_AOT/AOT_stimuli/pictures/0965_fw.png	348.37004947662354	1.221686840057373
275	287.51169323921204	response	0	k		273.0	/experiments/Knapen_AOT/AOT_stimuli/pictures/0965_fw.png	349.5752372741699	
276	287.528192281723	picture	0		116	274.0	/experiments/Knapen_AOT/AOT_stimuli/pictures/0749_fw.png	349.5917363166809	0.9728097915649414
276	288.48669600486755	response	0	k		274.0	/experiments/Knapen_AOT/AOT_stimuli/pictures/0749_fw.png	350.55024003982544	
277	288.50100207328796	picture	0		207	275.0	/experiments/Knapen_AOT/AOT_stimuli/pictures/0266_fw.png	350.56454610824585	1.729071855545044
277	290.2200584411621	response	0	k		275.0	/experiments/Knapen_AOT/AOT_stimuli/pictures/0266_fw.png	352.28360247612	
278	290.230073928833	picture	0		108	276.0	/experiments/Knapen_AOT/AOT_stimuli/pictures/1386_fw.png	352.2936179637909	0.9064724445343018
278	291.12008929252625	response	0	j		276.0	/experiments/Knapen_AOT/AOT_stimuli/pictures/1386_fw.png	353.18363332748413	
279	291.1365463733673	picture	0		210	277.0	/experiments/Knapen_AOT/AOT_stimuli/pictures/1312_fw.png	353.2000904083252	1.7583699226379395
279	292.87843894958496	response	0	j		277.0	/experiments/Knapen_AOT/AOT_stimuli/pictures/1312_fw.png	354.94198298454285	
280	292.89491629600525	picture	0		157	278.0	/experiments/Knapen_AOT/AOT_stimuli/pictures/1424_fw.png	354.95846033096313	1.316676378250122
280	294.19510650634766	response	0	j		278.0	/experiments/Knapen_AOT/AOT_stimuli/pictures/1424_fw.png	356.25865054130554	
281	294.21159267425537	picture	0		114	279.0	/experiments/Knapen_AOT/AOT_stimuli/pictures/0630_fw.png	356.27513670921326	0.9583442211151123
281	295.1534447669983	response	0	j		279.0	/experiments/Knapen_AOT/AOT_stimuli/pictures/0630_fw.png	357.2169888019562	
282	295.1699368953705	picture	0		306	280.0	/experiments/Knapen_AOT/AOT_stimuli/pictures/0513_fw.png	357.23348093032837	2.5532352924346924
282	297.71180510520935	response	0	k		280.0	/experiments/Knapen_AOT/AOT_stimuli/pictures/0513_fw.png	359.77534914016724	
283	297.7231721878052	picture	0		92	281.0	/experiments/Knapen_AOT/AOT_stimuli/pictures/0852_fw.png	359.78671622276306	0.7718310356140137
283	298.4787406921387	response	0	k		281.0	/experiments/Knapen_AOT/AOT_stimuli/pictures/0852_fw.png	360.54228472709656	
284	298.4950032234192	picture	0		119	282.0	/experiments/Knapen_AOT/AOT_stimuli/pictures/0450_fw.png	360.5585472583771	0.9999685287475586
284	299.4784972667694	response	0	j		282.0	/experiments/Knapen_AOT/AOT_stimuli/pictures/0450_fw.png	361.5420413017273	
285	299.49497175216675	picture	0		113	283.0	/experiments/Knapen_AOT/AOT_stimuli/pictures/1999_fw.png	361.55851578712463	0.9500353336334229
285	300.4286289215088	response	0	k		283.0	/experiments/Knapen_AOT/AOT_stimuli/pictures/1999_fw.png	362.4921729564667	
286	300.44500708580017	picture	0		97	284.0	/experiments/Knapen_AOT/AOT_stimuli/pictures/0905_fw.png	362.50855112075806	0.8166813850402832
286	301.245308637619	response	0	k		284.0	/experiments/Knapen_AOT/AOT_stimuli/pictures/0905_fw.png	363.3088526725769	
287	301.26168847084045	picture	0		127	285.0	/experiments/Knapen_AOT/AOT_stimuli/pictures/0934_fw.png	363.32523250579834	1.0666477680206299
287	302.31192088127136	response	0	j		285.0	/experiments/Knapen_AOT/AOT_stimuli/pictures/0934_fw.png	364.37546491622925	
288	302.3283362388611	picture	0		167	286.0	/experiments/Knapen_AOT/AOT_stimuli/pictures/1069_fw.png	364.39188027381897	1.4000797271728516
288	303.71208024024963	response	0	j		286.0	/experiments/Knapen_AOT/AOT_stimuli/pictures/1069_fw.png	365.7756242752075	
289	303.72841596603394	picture	0		127	287.0	/experiments/Knapen_AOT/AOT_stimuli/pictures/1485_fw.png	365.7919600009918	1.0666358470916748
289	304.7786211967468	response	0	k		287.0	/experiments/Knapen_AOT/AOT_stimuli/pictures/1485_fw.png	366.8421652317047	
290	304.7950518131256	picture	0		90	288.0	/experiments/Knapen_AOT/AOT_stimuli/pictures/0491_fw.png	366.8585958480835	0.7583270072937012
290	305.5368769168854	response	0	k		288.0	/experiments/Knapen_AOT/AOT_stimuli/pictures/0491_fw.png	367.60042095184326	
291	305.5533788204193	picture	0		132	289.0	/experiments/Knapen_AOT/AOT_stimuli/pictures/1136_fw.png	367.6169228553772	1.1083259582519531
291	306.64529490470886	response	0	k		289.0	/experiments/Knapen_AOT/AOT_stimuli/pictures/1136_fw.png	368.70883893966675	
292	306.66170477867126	picture	0		123	290.0	/experiments/Knapen_AOT/AOT_stimuli/pictures/0281_fw.png	368.72524881362915	1.033371925354004
292	307.6787643432617	response	0	j		290.0	/experiments/Knapen_AOT/AOT_stimuli/pictures/0281_fw.png	369.7423083782196	
293	307.69507670402527	picture	0		119	291.0	/experiments/Knapen_AOT/AOT_stimuli/pictures/0648_fw.png	369.75862073898315	1.0000009536743164
293	308.6785821914673	response	0	k		291.0	/experiments/Knapen_AOT/AOT_stimuli/pictures/0648_fw.png	370.74212622642517	
294	308.6950776576996	picture	0		205	292.0	/experiments/Knapen_AOT/AOT_stimuli/pictures/1826_fw.png	370.75862169265747	1.71669340133667
294	310.39526891708374	response	0	j		292.0	/experiments/Knapen_AOT/AOT_stimuli/pictures/1826_fw.png	372.4588129520416	
295	310.41177105903625	picture	0		123	293.0	/experiments/Knapen_AOT/AOT_stimuli/pictures/1267_fw.png	372.47531509399414	1.0333430767059326
295	311.42866110801697	response	0	j		293.0	/experiments/Knapen_AOT/AOT_stimuli/pictures/1267_fw.png	373.49220514297485	
296	311.4451141357422	picture	0		113	294.0	/experiments/Knapen_AOT/AOT_stimuli/pictures/1070_fw.png	373.5086581707001	0.9500031471252441
296	312.3788866996765	response	0	j		294.0	/experiments/Knapen_AOT/AOT_stimuli/pictures/1070_fw.png	374.4424307346344	
297	312.39511728286743	picture	0		106	295.0	/experiments/Knapen_AOT/AOT_stimuli/pictures/1482_fw.png	374.4586613178253	0.8916661739349365
297	313.2705693244934	response	0	k		295.0	/experiments/Knapen_AOT/AOT_stimuli/pictures/1482_fw.png	375.3341133594513	
298	313.28678345680237	picture	0		89	296.0	/experiments/Knapen_AOT/AOT_stimuli/pictures/0273_fw.png	375.35032749176025	0.7421369552612305
298	314.01403975486755	response	0	k		296.0	/experiments/Knapen_AOT/AOT_stimuli/pictures/0273_fw.png	376.07758378982544	
299	314.0289204120636	picture	0		316	297.0	/experiments/Knapen_AOT/AOT_stimuli/pictures/1169_fw.png	376.0924644470215	2.6412718296051025
299	316.65396189689636	response	0	j		297.0	/experiments/Knapen_AOT/AOT_stimuli/pictures/1169_fw.png	378.71750593185425	
300	316.6701922416687	picture	0		81	298.0	/experiments/Knapen_AOT/AOT_stimuli/pictures/2143_fw.png	378.7337362766266	0.6833715438842773
300	317.3370895385742	response	0	k		298.0	/experiments/Knapen_AOT/AOT_stimuli/pictures/2143_fw.png	379.4006335735321	
301	317.353563785553	picture	0		143	299.0	/experiments/Knapen_AOT/AOT_stimuli/pictures/0135_fw.png	379.41710782051086	1.1999714374542236
301	318.537038564682	response	0	k		299.0	/experiments/Knapen_AOT/AOT_stimuli/pictures/0135_fw.png	380.6005825996399	
302	318.5535352230072	picture	0		179	300.0	/experiments/Knapen_AOT/AOT_stimuli/pictures/1406_fw.png	380.6170792579651	1.5000197887420654
302	320.0304844379425	response	0	j		300.0	/experiments/Knapen_AOT/AOT_stimuli/pictures/1406_fw.png	382.0940284729004	
303	320.05355501174927	picture	0		101	301.0	/experiments/Knapen_AOT/AOT_stimuli/pictures/2109_fw.png	382.11709904670715	0.8500247001647949
303	320.88716340065	response	0	k		301.0	/experiments/Knapen_AOT/AOT_stimuli/pictures/2109_fw.png	382.9507074356079	
304	320.90357971191406	picture	0		131	302.0	/experiments/Knapen_AOT/AOT_stimuli/pictures/0992_fw.png	382.96712374687195	1.099980354309082
304	321.987596988678	response	0	k		302.0	/experiments/Knapen_AOT/AOT_stimuli/pictures/0992_fw.png	384.05114102363586	
305	322.00356006622314	picture	0		101	303.0	/experiments/Knapen_AOT/AOT_stimuli/pictures/0706_fw.png	384.06710410118103	0.8499946594238281
305	322.83731722831726	response	0	k		303.0	/experiments/Knapen_AOT/AOT_stimuli/pictures/0706_fw.png	384.90086126327515	
306	322.853554725647	picture	0		230	304.0	/experiments/Knapen_AOT/AOT_stimuli/pictures/2156_fw.png	384.91709876060486	1.925081729888916
306	324.7621190547943	response	0	j		304.0	/experiments/Knapen_AOT/AOT_stimuli/pictures/2156_fw.png	386.8256630897522	
307	324.7786364555359	picture	0		112	305.0	/experiments/Knapen_AOT/AOT_stimuli/pictures/0460_fw.png	386.8421804904938	0.9417297840118408
307	325.70377826690674	response	0	j		305.0	/experiments/Knapen_AOT/AOT_stimuli/pictures/0460_fw.png	387.7673223018646	
308	325.72036623954773	picture	0		108	306.0	/experiments/Knapen_AOT/AOT_stimuli/pictures/1414_fw.png	387.7839102745056	0.9082515239715576
308	326.6121723651886	response	0	k		306.0	/experiments/Knapen_AOT/AOT_stimuli/pictures/1414_fw.png	388.6757164001465	
309	326.6286177635193	picture	0		380	307.0	/experiments/Knapen_AOT/AOT_stimuli/pictures/0515_fw.png	388.6921617984772	3.175039291381836
309	329.7871832847595	response	0	j		307.0	/experiments/Knapen_AOT/AOT_stimuli/pictures/0515_fw.png	391.8507273197174	
310	329.8036570549011	picture	0		86	308.0	/experiments/Knapen_AOT/AOT_stimuli/pictures/0430_fw.png	391.867201089859	0.718419075012207
310	330.51223039627075	response	0	k		308.0	/experiments/Knapen_AOT/AOT_stimuli/pictures/0430_fw.png	392.57577443122864	
311	330.52207612991333	picture	0		117	309.0	/experiments/Knapen_AOT/AOT_stimuli/pictures/0464_fw.png	392.5856201648712	0.9816105365753174
311	331.48720622062683	response	0	j		309.0	/experiments/Knapen_AOT/AOT_stimuli/pictures/0464_fw.png	393.5507502555847	
312	331.50368666648865	picture	0		92	310.0	/experiments/Knapen_AOT/AOT_stimuli/pictures/1450_fw.png	393.56723070144653	0.7750093936920166
312	332.2622826099396	response	0	k		310.0	/experiments/Knapen_AOT/AOT_stimuli/pictures/1450_fw.png	394.32582664489746	
313	332.27869606018066	picture	0		98	311.0	/experiments/Knapen_AOT/AOT_stimuli/pictures/1009_fw.png	394.34224009513855	0.8197963237762451
313	333.0872576236725	response	0	k		311.0	/experiments/Knapen_AOT/AOT_stimuli/pictures/1009_fw.png	395.15080165863037	
314	333.0984923839569	picture	0		92	312.0	/experiments/Knapen_AOT/AOT_stimuli/pictures/0631_fw.png	395.1620364189148	0.7718660831451416
314	333.8539435863495	response	0	k		312.0	/experiments/Knapen_AOT/AOT_stimuli/pictures/0631_fw.png	395.9174876213074	
315	333.87035846710205	picture	0		99	313.0	/experiments/Knapen_AOT/AOT_stimuli/pictures/1777_fw.png	395.93390250205994	0.8254368305206299
315	334.68721199035645	response	0	j		313.0	/experiments/Knapen_AOT/AOT_stimuli/pictures/1777_fw.png	396.75075602531433	
316	334.6957952976227	picture	0		130	314.0	/experiments/Knapen_AOT/AOT_stimuli/pictures/1550_fw.png	396.75933933258057	1.0912528038024902
316	335.7705898284912	response	0	j		314.0	/experiments/Knapen_AOT/AOT_stimuli/pictures/1550_fw.png	397.8341338634491	
317	335.78704810142517	picture	0		189	315.0	/experiments/Knapen_AOT/AOT_stimuli/pictures/0152_fw.png	397.85059213638306	1.5833585262298584
317	337.35422372817993	response	0	j		315.0	/experiments/Knapen_AOT/AOT_stimuli/pictures/0152_fw.png	399.4177677631378	
318	337.37040662765503	picture	0		96	316.0	/experiments/Knapen_AOT/AOT_stimuli/pictures/0037_fw.png	399.4339506626129	0.8083548545837402
318	338.16236543655396	response	0	k		316.0	/experiments/Knapen_AOT/AOT_stimuli/pictures/0037_fw.png	400.22590947151184	
319	338.17876148223877	picture	0		422	317.0	/experiments/Knapen_AOT/AOT_stimuli/pictures/1379_fw.png	400.24230551719666	3.5250492095947266
319	341.68731689453125	response	0	k		317.0	/experiments/Knapen_AOT/AOT_stimuli/pictures/1379_fw.png	403.75086092948914	
320	341.7038106918335	picture	0		111	318.0	/experiments/Knapen_AOT/AOT_stimuli/pictures/1685_fw.png	403.7673547267914	0.9333806037902832
320	342.6206567287445	response	0	k		318.0	/experiments/Knapen_AOT/AOT_stimuli/pictures/1685_fw.png	404.6842007637024	
321	342.6371912956238	picture	0		90	319.0	/experiments/Knapen_AOT/AOT_stimuli/pictures/0193_fw.png	404.70073533058167	0.758312463760376
321	343.3792691230774	response	0	k		319.0	/experiments/Knapen_AOT/AOT_stimuli/pictures/0193_fw.png	405.4428131580353	
322	343.39550375938416	picture	0		80	320.0	/experiments/Knapen_AOT/AOT_stimuli/pictures/0048_fw.png	405.45904779434204	0.6750082969665527
322	344.05405139923096	response	0	k		320.0	/experiments/Knapen_AOT/AOT_stimuli/pictures/0048_fw.png	406.11759543418884	
323	344.0705120563507	picture	0		103	321.0	/experiments/Knapen_AOT/AOT_stimuli/pictures/1361_fw.png	406.1340560913086	0.8613688945770264
323	344.92068243026733	response	0	k		321.0	/experiments/Knapen_AOT/AOT_stimuli/pictures/1361_fw.png	406.9842264652252	
324	344.93188095092773	picture	0		104	322.0	/experiments/Knapen_AOT/AOT_stimuli/pictures/0218_fw.png	406.9954249858856	0.8720612525939941
324	345.7873513698578	response	0	k		322.0	/experiments/Knapen_AOT/AOT_stimuli/pictures/0218_fw.png	407.8508954048157	
325	345.80394220352173	picture	0		105	323.0	/experiments/Knapen_AOT/AOT_stimuli/pictures/0566_fw.png	407.8674862384796	0.8779652118682861
325	346.67072010040283	response	0	k		323.0	/experiments/Knapen_AOT/AOT_stimuli/pictures/0566_fw.png	408.7342641353607	
326	346.68190741539	picture	0		98	324.0	/experiments/Knapen_AOT/AOT_stimuli/pictures/1373_fw.png	408.7454514503479	0.8219602108001709
326	347.4874074459076	response	0	k		324.0	/experiments/Knapen_AOT/AOT_stimuli/pictures/1373_fw.png	409.5509514808655	
327	347.5038676261902	picture	0		109	325.0	/experiments/Knapen_AOT/AOT_stimuli/pictures/0696_fw.png	409.56741166114807	0.9141833782196045
327	348.4041121006012	response	0	k		325.0	/experiments/Knapen_AOT/AOT_stimuli/pictures/0696_fw.png	410.4676561355591	
328	348.4180510044098	picture	0		127	326.0	/experiments/Knapen_AOT/AOT_stimuli/pictures/2121_fw.png	410.4815950393677	1.0691876411437988
328	349.47079062461853	response	0	j		326.0	/experiments/Knapen_AOT/AOT_stimuli/pictures/2121_fw.png	411.5343346595764	
329	349.4872386455536	picture	0		109	327.0	/experiments/Knapen_AOT/AOT_stimuli/pictures/1711_fw.png	411.5507826805115	0.9166789054870605
329	350.38757610321045	response	0	k		327.0	/experiments/Knapen_AOT/AOT_stimuli/pictures/1711_fw.png	412.45112013816833	
330	350.40391755104065	picture	0		112	328.0	/experiments/Knapen_AOT/AOT_stimuli/pictures/2111_fw.png	412.46746158599854	0.9416913986206055
330	351.32909512519836	response	0	j		328.0	/experiments/Knapen_AOT/AOT_stimuli/pictures/2111_fw.png	413.39263916015625	
331	351.34560894966125	picture	0		89	329.0	/experiments/Knapen_AOT/AOT_stimuli/pictures/1667_fw.png	413.40915298461914	0.7500507831573486
331	352.07910442352295	response	0	k		329.0	/experiments/Knapen_AOT/AOT_stimuli/pictures/1667_fw.png	414.14264845848083	
332	352.0956597328186	picture	0		334	330.0	/experiments/Knapen_AOT/AOT_stimuli/pictures/1134_fw.png	414.1592037677765	2.7916574478149414
332	354.8708510398865	response	0	j		330.0	/experiments/Knapen_AOT/AOT_stimuli/pictures/1134_fw.png	416.93439507484436	
333	354.88731718063354	picture	0		98	331.0	/experiments/Knapen_AOT/AOT_stimuli/pictures/0205_fw.png	416.95086121559143	0.8224709033966064
333	355.6958255767822	response	0	j		331.0	/experiments/Knapen_AOT/AOT_stimuli/pictures/0205_fw.png	417.7593696117401	
334	355.70978808403015	picture	0		202	332.0	/experiments/Knapen_AOT/AOT_stimuli/pictures/0293_fw.png	417.77333211898804	1.6942462921142578
334	357.3875150680542	response	0	j		332.0	/experiments/Knapen_AOT/AOT_stimuli/pictures/0293_fw.png	419.4510591030121	
335	357.4040343761444	picture	0		98	333.0	/experiments/Knapen_AOT/AOT_stimuli/pictures/0211_fw.png	419.4675784111023	0.8265688419342041
335	358.21256852149963	response	0	k		333.0	/experiments/Knapen_AOT/AOT_stimuli/pictures/0211_fw.png	420.2761125564575	
336	358.2306032180786	picture	0		96	334.0	/experiments/Knapen_AOT/AOT_stimuli/pictures/1077_fw.png	420.2941472530365	0.8067491054534912
336	359.02112555503845	response	0	j		334.0	/experiments/Knapen_AOT/AOT_stimuli/pictures/1077_fw.png	421.08466958999634	
337	359.0373523235321	picture	0		178	335.0	/experiments/Knapen_AOT/AOT_stimuli/pictures/1368_fw.png	421.10089635849	1.4917473793029785
337	360.512619972229	response	0	k		335.0	/experiments/Knapen_AOT/AOT_stimuli/pictures/1368_fw.png	422.5761640071869	
338	360.5290997028351	picture	0		108	336.0	/experiments/Knapen_AOT/AOT_stimuli/pictures/0523_fw.png	422.59264373779297	0.9082825183868408
338	361.42090010643005	response	0	k		336.0	/experiments/Knapen_AOT/AOT_stimuli/pictures/0523_fw.png	423.48444414138794	
339	361.4373822212219	picture	0		136	337.0	/experiments/Knapen_AOT/AOT_stimuli/pictures/2000_fw.png	423.5009262561798	1.1416733264923096
339	362.56261444091797	response	0	k		337.0	/experiments/Knapen_AOT/AOT_stimuli/pictures/2000_fw.png	424.62615847587585	
340	362.57905554771423	picture	0		109	338.0	/experiments/Knapen_AOT/AOT_stimuli/pictures/0457_fw.png	424.6425995826721	0.9166769981384277
340	363.4793152809143	response	0	k		338.0	/experiments/Knapen_AOT/AOT_stimuli/pictures/0457_fw.png	425.5428593158722	
341	363.49573254585266	picture	0		137	339.0	/experiments/Knapen_AOT/AOT_stimuli/pictures/0225_fw.png	425.55927658081055	1.1500349044799805
341	364.62962222099304	response	0	k		339.0	/experiments/Knapen_AOT/AOT_stimuli/pictures/0225_fw.png	426.6931662559509	
342	364.64576745033264	picture	0		96	340.0	/experiments/Knapen_AOT/AOT_stimuli/pictures/1816_fw.png	426.7093114852905	0.8083205223083496
342	365.4376332759857	response	0	j		340.0	/experiments/Knapen_AOT/AOT_stimuli/pictures/1816_fw.png	427.5011773109436	
343	365.454087972641	picture	0		77	341.0	/experiments/Knapen_AOT/AOT_stimuli/pictures/0788_fw.png	427.5176320075989	0.6500444412231445
343	366.08764386177063	response	0	j		341.0	/experiments/Knapen_AOT/AOT_stimuli/pictures/0788_fw.png	428.1511878967285	
344	366.10413241386414	picture	0		84	342.0	/experiments/Knapen_AOT/AOT_stimuli/pictures/1561_fw.png	428.167676448822	0.7083327770233154
344	366.79597640037537	response	0	j		342.0	/experiments/Knapen_AOT/AOT_stimuli/pictures/1561_fw.png	428.85952043533325	
345	366.81246519088745	picture	0		108	343.0	/experiments/Knapen_AOT/AOT_stimuli/pictures/1668_fw.png	428.87600922584534	0.9083778858184814
345	367.70434284210205	response	0	k		343.0	/experiments/Knapen_AOT/AOT_stimuli/pictures/1668_fw.png	429.76788687705994	
346	367.72084307670593	picture	0		99	344.0	/experiments/Knapen_AOT/AOT_stimuli/pictures/0287_fw.png	429.7843871116638	0.8333134651184082
346	368.5376629829407	response	0	j		344.0	/experiments/Knapen_AOT/AOT_stimuli/pictures/0287_fw.png	430.60120701789856	
347	368.55415654182434	picture	0		144	345.0	/experiments/Knapen_AOT/AOT_stimuli/pictures/1289_fw.png	430.6177005767822	1.2083396911621094
347	369.7462525367737	response	0	k		345.0	/experiments/Knapen_AOT/AOT_stimuli/pictures/1289_fw.png	431.80979657173157	
348	369.76249623298645	picture	0		252	346.0	/experiments/Knapen_AOT/AOT_stimuli/pictures/0008_fw.png	431.82604026794434	2.1083762645721436
348	371.85439372062683	response	0	k		346.0	/experiments/Knapen_AOT/AOT_stimuli/pictures/0008_fw.png	433.9179377555847	
349	371.8708724975586	picture	0		95	347.0	/experiments/Knapen_AOT/AOT_stimuli/pictures/0215_fw.png	433.9344165325165	0.7973618507385254
349	372.65440940856934	response	0	k		347.0	/experiments/Knapen_AOT/AOT_stimuli/pictures/0215_fw.png	434.7179534435272	
350	372.6682343482971	picture	0		106	348.0	/experiments/Knapen_AOT/AOT_stimuli/pictures/0508_fw.png	434.731778383255	0.8943221569061279
350	373.5461072921753	response	0	j		348.0	/experiments/Knapen_AOT/AOT_stimuli/pictures/0508_fw.png	435.6096513271332	
351	373.56255650520325	picture	0		96	349.0	/experiments/Knapen_AOT/AOT_stimuli/pictures/2146_fw.png	435.62610054016113	0.8001382350921631
351	374.354407787323	response	0	j		349.0	/experiments/Knapen_AOT/AOT_stimuli/pictures/2146_fw.png	436.4179518222809	
352	374.3626947402954	picture	0		180	350.0	/experiments/Knapen_AOT/AOT_stimuli/pictures/1872_fw.png	436.4262387752533	1.5082316398620605
352	375.85444831848145	response	0	k		350.0	/experiments/Knapen_AOT/AOT_stimuli/pictures/1872_fw.png	437.91799235343933	
353	375.87092638015747	picture	0		120	351.0	/experiments/Knapen_AOT/AOT_stimuli/pictures/1569_fw.png	437.93447041511536	1.00834321975708
353	376.8628487586975	response	0	k		351.0	/experiments/Knapen_AOT/AOT_stimuli/pictures/1569_fw.png	438.9263927936554	
354	376.87926959991455	picture	0		92	352.0	/experiments/Knapen_AOT/AOT_stimuli/pictures/1595_fw.png	438.94281363487244	0.7750277519226074
354	377.6378524303436	response	0	k		352.0	/experiments/Knapen_AOT/AOT_stimuli/pictures/1595_fw.png	439.7013964653015	
355	377.65429735183716	picture	0		103	353.0	/experiments/Knapen_AOT/AOT_stimuli/pictures/1224_fw.png	439.71784138679504	0.8667047023773193
355	378.50452280044556	response	0	k		353.0	/experiments/Knapen_AOT/AOT_stimuli/pictures/1224_fw.png	440.56806683540344	
356	378.5210020542145	picture	0		92	354.0	/experiments/Knapen_AOT/AOT_stimuli/pictures/0987_fw.png	440.58454608917236	0.7723104953765869
356	379.27949357032776	response	0	k		354.0	/experiments/Knapen_AOT/AOT_stimuli/pictures/0987_fw.png	441.34303760528564	
357	379.29331254959106	picture	0		240	355.0	/experiments/Knapen_AOT/AOT_stimuli/pictures/0989_fw.png	441.35685658454895	2.011014699935913
357	381.28776931762695	response	0	k		355.0	/experiments/Knapen_AOT/AOT_stimuli/pictures/0989_fw.png	443.35131335258484	
358	381.304327249527	picture	0		114	356.0	/experiments/Knapen_AOT/AOT_stimuli/pictures/0931_fw.png	443.36787128448486	0.9583446979522705
358	382.24615836143494	response	0	k		356.0	/experiments/Knapen_AOT/AOT_stimuli/pictures/0931_fw.png	444.3097023963928	
359	382.26267194747925	picture	0		120	357.0	/experiments/Knapen_AOT/AOT_stimuli/pictures/1801_fw.png	444.32621598243713	1.008354663848877
359	383.25458884239197	response	0	k		357.0	/experiments/Knapen_AOT/AOT_stimuli/pictures/1801_fw.png	445.31813287734985	
360	383.2710266113281	picture	0		116	358.0	/experiments/Knapen_AOT/AOT_stimuli/pictures/0709_fw.png	445.334570646286	0.9749984741210938
360	384.2295219898224	response	0	j		358.0	/experiments/Knapen_AOT/AOT_stimuli/pictures/0709_fw.png	446.2930660247803	
361	384.2460250854492	picture	0		150	359.0	/experiments/Knapen_AOT/AOT_stimuli/pictures/0151_fw.png	446.3095691204071	1.2583723068237305
361	385.4880187511444	response	0	k		359.0	/experiments/Knapen_AOT/AOT_stimuli/pictures/0151_fw.png	447.5515627861023	
362	385.50439739227295	stim	0		757			447.56794142723083	6.328930616378784
362	391.8133330345154	response	0	space				453.87687706947327	
