trial_nr	onset	event_type	phase	response	nr_frames	movie_index	movie_duration	movie_file	blank	onset_abs	duration
0	0.1328580379486084	stim	0		63					49.911967039108276	0.525352954864502
0	0.643172025680542	response	0	space						50.42228102684021	
1	0.6582109928131104	stim	0		4687					50.43731999397278	39.058452129364014
1	39.71089315414429	pulse	0	t						89.49000215530396	
1	39.716663122177124	stim	1		1717					89.49577212333679	14.307976007461548
1	41.30820894241333	pulse	1	t						91.087317943573	
1	42.908204078674316	pulse	1	t						92.68731307983398	
1	44.50817394256592	pulse	1	t						94.28728294372559	
1	46.10817503929138	pulse	1	t						95.88728404045105	
1	47.708155155181885	pulse	1	t						97.48726415634155	
1	49.30810904502869	pulse	1	t						99.08721804618835	
1	50.90817713737488	pulse	1	t						100.68728613853455	
1	52.508095026016235	pulse	1	t						102.2872040271759	
2	54.02463912963867	fix_pre	0		11	0.0	2.5	/experiments/AOT/AOT_stimuli/rescaled_final/0372_fw.mp4	0.0	103.80374813079834	0.09163999557495117
2	54.10818099975586	pulse	0	t		0.0	2.5	/experiments/AOT/AOT_stimuli/rescaled_final/0372_fw.mp4	0.0	103.88729000091553	
2	54.11627912521362	movie	1		244	0.0	2.5	/experiments/AOT/AOT_stimuli/rescaled_final/0372_fw.mp4	0.0	103.89538812637329	2.508301019668579
2	55.70797514915466	pulse	1	t		0.0	2.5	/experiments/AOT/AOT_stimuli/rescaled_final/0372_fw.mp4	0.0	105.48708415031433	
2	56.6245801448822	fix_post	2		12	0.0	2.5	/experiments/AOT/AOT_stimuli/rescaled_final/0372_fw.mp4	0.0	106.40368914604187	0.10004782676696777
3	56.72462797164917	fix_pre	0		120	1.0	2.5	/experiments/AOT/AOT_stimuli/rescaled_final/1336_fw.mp4	0.0	106.50373697280884	0.9999260902404785
3	57.30818009376526	pulse	0	t		1.0	2.5	/experiments/AOT/AOT_stimuli/rescaled_final/1336_fw.mp4	0.0	107.08728909492493	
3	57.72455406188965	movie	1		244	1.0	2.5	/experiments/AOT/AOT_stimuli/rescaled_final/1336_fw.mp4	0.0	107.50366306304932	2.4996719360351562
3	58.90817403793335	pulse	1	t		1.0	2.5	/experiments/AOT/AOT_stimuli/rescaled_final/1336_fw.mp4	0.0	108.68728303909302	
3	60.224225997924805	fix_post	2		12	1.0	2.5	/experiments/AOT/AOT_stimuli/rescaled_final/1336_fw.mp4	0.0	110.00333499908447	0.10044097900390625
4	60.32466697692871	fix_pre	0		120	2.0	2.5	/experiments/AOT/AOT_stimuli/rescaled_final/2077_rv.mp4	0.0	110.10377597808838	0.9999470710754395
4	60.50811004638672	pulse	0	t		2.0	2.5	/experiments/AOT/AOT_stimuli/rescaled_final/2077_rv.mp4	0.0	110.28721904754639	
4	61.32461404800415	movie	1		244	2.0	2.5	/experiments/AOT/AOT_stimuli/rescaled_final/2077_rv.mp4	0.0	111.10372304916382	2.499717950820923
4	62.10813593864441	pulse	1	t		2.0	2.5	/experiments/AOT/AOT_stimuli/rescaled_final/2077_rv.mp4	0.0	111.88724493980408	
4	63.70655298233032	pulse	1	t		2.0	2.5	/experiments/AOT/AOT_stimuli/rescaled_final/2077_rv.mp4	0.0	113.48566198348999	
4	63.82433199882507	fix_post	2		12	2.0	2.5	/experiments/AOT/AOT_stimuli/rescaled_final/2077_rv.mp4	0.0	113.60344099998474	0.1002960205078125
5	63.924628019332886	fix_pre	0		120	3.0	2.5	/experiments/AOT/AOT_stimuli/rescaled_final/1783_fw.mp4	0.0	113.70373702049255	1.0000331401824951
5	64.92466115951538	movie	1		243	3.0	2.5	/experiments/AOT/AOT_stimuli/rescaled_final/1783_fw.mp4	0.0	114.70377016067505	2.499588966369629
5	65.30796504020691	pulse	1	t		3.0	2.5	/experiments/AOT/AOT_stimuli/rescaled_final/1783_fw.mp4	0.0	115.08707404136658	
5	66.90815711021423	pulse	1	t		3.0	2.5	/experiments/AOT/AOT_stimuli/rescaled_final/1783_fw.mp4	0.0	116.6872661113739	
5	67.42425012588501	fix_post	2		12	3.0	2.5	/experiments/AOT/AOT_stimuli/rescaled_final/1783_fw.mp4	0.0	117.20335912704468	0.10032987594604492
6	67.52458000183105	fix_pre	0		119	4.0	2.5	/experiments/AOT/AOT_stimuli/rescaled_final/2065_fw.mp4	0.0	117.30368900299072	0.9917171001434326
6	68.50811409950256	pulse	0	t		4.0	2.5	/experiments/AOT/AOT_stimuli/rescaled_final/2065_fw.mp4	0.0	118.28722310066223	
6	68.51629710197449	movie	1		246	4.0	2.5	/experiments/AOT/AOT_stimuli/rescaled_final/2065_fw.mp4	0.0	118.29540610313416	2.5083000659942627
6	70.1082489490509	pulse	1	t		4.0	2.5	/experiments/AOT/AOT_stimuli/rescaled_final/2065_fw.mp4	0.0	119.88735795021057	
6	71.02459716796875	fix_post	2		12	4.0	2.5	/experiments/AOT/AOT_stimuli/rescaled_final/2065_fw.mp4	0.0	120.80370616912842	0.10000395774841309
7	71.12460112571716	fix_pre	0		120	5.0	2.5	/experiments/AOT/AOT_stimuli/rescaled_final/0222_rv.mp4	0.0	120.90371012687683	0.9999988079071045
7	71.70815300941467	pulse	0	t		5.0	2.5	/experiments/AOT/AOT_stimuli/rescaled_final/0222_rv.mp4	0.0	121.48726201057434	
7	72.12459993362427	movie	1		244	5.0	2.5	/experiments/AOT/AOT_stimuli/rescaled_final/0222_rv.mp4	0.0	121.90370893478394	2.5000221729278564
7	73.30815601348877	pulse	1	t		5.0	2.5	/experiments/AOT/AOT_stimuli/rescaled_final/0222_rv.mp4	0.0	123.08726501464844	
7	74.62462210655212	fix_post	2		12	5.0	2.5	/experiments/AOT/AOT_stimuli/rescaled_final/0222_rv.mp4	0.0	124.40373110771179	0.09995102882385254
8	74.72457313537598	fix_pre	0		120	6.0	2.5	blank	1.0	124.50368213653564	1.0000338554382324
8	74.90809798240662	pulse	0	t		6.0	2.5	blank	1.0	124.68720698356628	
8	75.72460699081421	movie	1		300	6.0	2.5	blank	1.0	125.50371599197388	2.500005006790161
8	76.50808715820312	pulse	1	t		6.0	2.5	blank	1.0	126.2871961593628	
8	78.1080470085144	pulse	1	t		6.0	2.5	blank	1.0	127.88715600967407	
8	78.22461199760437	fix_post	2		12	6.0	2.5	blank	1.0	128.00372099876404	0.10001611709594727
9	78.32462811470032	fix_pre	0		120	7.0	2.5	/experiments/AOT/AOT_stimuli/rescaled_final/2034_fw.mp4	0.0	128.10373711585999	0.9999029636383057
9	79.32453107833862	movie	1		247	7.0	2.5	/experiments/AOT/AOT_stimuli/rescaled_final/2034_fw.mp4	0.0	129.1036400794983	2.4999420642852783
9	79.70883202552795	pulse	1	t		7.0	2.5	/experiments/AOT/AOT_stimuli/rescaled_final/2034_fw.mp4	0.0	129.48794102668762	
9	81.3080141544342	pulse	1	t		7.0	2.5	/experiments/AOT/AOT_stimuli/rescaled_final/2034_fw.mp4	0.0	131.08712315559387	
9	81.8244731426239	fix_post	2		12	7.0	2.5	/experiments/AOT/AOT_stimuli/rescaled_final/2034_fw.mp4	0.0	131.60358214378357	0.10006284713745117
10	81.92453598976135	fix_pre	0		119	8.0	2.5	/experiments/AOT/AOT_stimuli/rescaled_final/0376_fw.mp4	0.0	131.70364499092102	0.9915871620178223
10	82.90798616409302	pulse	0	t		8.0	2.5	/experiments/AOT/AOT_stimuli/rescaled_final/0376_fw.mp4	0.0	132.68709516525269	
10	82.91612315177917	movie	1		245	8.0	2.5	/experiments/AOT/AOT_stimuli/rescaled_final/0376_fw.mp4	0.0	132.69523215293884	2.50795578956604
10	84.50741696357727	pulse	1	t		8.0	2.5	/experiments/AOT/AOT_stimuli/rescaled_final/0376_fw.mp4	0.0	134.28652596473694	
10	85.42407894134521	fix_post	2		12	8.0	2.5	/experiments/AOT/AOT_stimuli/rescaled_final/0376_fw.mp4	0.0	135.20318794250488	0.10042500495910645
11	85.52450394630432	fix_pre	0		120	9.0	2.5	/experiments/AOT/AOT_stimuli/rescaled_final/1966_fw.mp4	0.0	135.303612947464	0.999946117401123
11	86.10796093940735	pulse	0	t		9.0	2.5	/experiments/AOT/AOT_stimuli/rescaled_final/1966_fw.mp4	0.0	135.88706994056702	
11	86.52445006370544	movie	1		243	9.0	2.5	/experiments/AOT/AOT_stimuli/rescaled_final/1966_fw.mp4	0.0	136.3035590648651	2.5000040531158447
11	87.7081151008606	pulse	1	t		9.0	2.5	/experiments/AOT/AOT_stimuli/rescaled_final/1966_fw.mp4	0.0	137.48722410202026	
11	89.02445411682129	fix_post	2		12	9.0	2.5	/experiments/AOT/AOT_stimuli/rescaled_final/1966_fw.mp4	0.0	138.80356311798096	0.0999908447265625
12	89.12444496154785	fix_pre	0		120	10.0	2.5	/experiments/AOT/AOT_stimuli/rescaled_final/2108_rv.mp4	0.0	138.90355396270752	1.000025987625122
12	89.30799412727356	pulse	0	t		10.0	2.5	/experiments/AOT/AOT_stimuli/rescaled_final/2108_rv.mp4	0.0	139.08710312843323	
12	90.12447094917297	movie	1		244	10.0	2.5	/experiments/AOT/AOT_stimuli/rescaled_final/2108_rv.mp4	0.0	139.90357995033264	2.499983072280884
12	90.90801095962524	pulse	1	t		10.0	2.5	/experiments/AOT/AOT_stimuli/rescaled_final/2108_rv.mp4	0.0	140.6871199607849	
12	92.50632405281067	pulse	1	t		10.0	2.5	/experiments/AOT/AOT_stimuli/rescaled_final/2108_rv.mp4	0.0	142.28543305397034	
12	92.62445402145386	fix_post	2		12	10.0	2.5	/experiments/AOT/AOT_stimuli/rescaled_final/2108_rv.mp4	0.0	142.40356302261353	0.09997010231018066
13	92.72442412376404	fix_pre	0		120	11.0	2.5	/experiments/AOT/AOT_stimuli/rescaled_final/2178_fw.mp4	0.0	142.5035331249237	1.0000309944152832
13	93.72445511817932	movie	1		243	11.0	2.5	/experiments/AOT/AOT_stimuli/rescaled_final/2178_fw.mp4	0.0	143.503564119339	2.4998748302459717
13	94.10890507698059	pulse	1	t		11.0	2.5	/experiments/AOT/AOT_stimuli/rescaled_final/2178_fw.mp4	0.0	143.88801407814026	
13	95.70804715156555	pulse	1	t		11.0	2.5	/experiments/AOT/AOT_stimuli/rescaled_final/2178_fw.mp4	0.0	145.48715615272522	
13	96.2243299484253	fix_post	2		12	11.0	2.5	/experiments/AOT/AOT_stimuli/rescaled_final/2178_fw.mp4	0.0	146.00343894958496	0.10013008117675781
14	96.32446002960205	fix_pre	0		119	12.0	2.5	blank	1.0	146.10356903076172	0.9916839599609375
14	97.30798196792603	pulse	0	t		12.0	2.5	blank	1.0	147.0870909690857	
14	97.31614398956299	movie	1		301	12.0	2.5	blank	1.0	147.09525299072266	2.508316993713379
14	98.9080171585083	pulse	1	t		12.0	2.5	blank	1.0	148.68712615966797	
14	99.82446098327637	fix_post	2		12	12.0	2.5	blank	1.0	149.60356998443604	0.09993910789489746
15	99.92440009117126	fix_pre	0		120	13.0	2.5	/experiments/AOT/AOT_stimuli/rescaled_final/2132_rv.mp4	0.0	149.70350909233093	1.0001230239868164
15	100.50791215896606	pulse	0	t		13.0	2.5	/experiments/AOT/AOT_stimuli/rescaled_final/2132_rv.mp4	0.0	150.28702116012573	
15	100.92452311515808	movie	1		245	13.0	2.5	/experiments/AOT/AOT_stimuli/rescaled_final/2132_rv.mp4	0.0	150.70363211631775	2.499919891357422
15	102.10789513587952	pulse	1	t		13.0	2.5	/experiments/AOT/AOT_stimuli/rescaled_final/2132_rv.mp4	0.0	151.88700413703918	
15	103.4244430065155	fix_post	2		12	13.0	2.5	/experiments/AOT/AOT_stimuli/rescaled_final/2132_rv.mp4	0.0	153.20355200767517	0.09993505477905273
16	103.52437806129456	fix_pre	0		120	14.0	2.5	/experiments/AOT/AOT_stimuli/rescaled_final/2106_fw.mp4	0.0	153.30348706245422	0.9999790191650391
16	103.70790314674377	pulse	0	t		14.0	2.5	/experiments/AOT/AOT_stimuli/rescaled_final/2106_fw.mp4	0.0	153.48701214790344	
16	104.5243570804596	movie	1		247	14.0	2.5	/experiments/AOT/AOT_stimuli/rescaled_final/2106_fw.mp4	0.0	154.30346608161926	2.500072956085205
16	105.30779814720154	pulse	1	t		14.0	2.5	/experiments/AOT/AOT_stimuli/rescaled_final/2106_fw.mp4	0.0	155.0869071483612	
16	106.90785193443298	pulse	1	t		14.0	2.5	/experiments/AOT/AOT_stimuli/rescaled_final/2106_fw.mp4	0.0	156.68696093559265	
16	107.0244300365448	fix_post	2		12	14.0	2.5	/experiments/AOT/AOT_stimuli/rescaled_final/2106_fw.mp4	0.0	156.80353903770447	0.09992504119873047
17	107.12435507774353	fix_pre	0		120	15.0	2.5	/experiments/AOT/AOT_stimuli/rescaled_final/1573_rv.mp4	0.0	156.9034640789032	1.000014066696167
17	108.1243691444397	movie	1		245	15.0	2.5	/experiments/AOT/AOT_stimuli/rescaled_final/1573_rv.mp4	0.0	157.90347814559937	2.4995999336242676
17	108.50899004936218	pulse	1	t		15.0	2.5	/experiments/AOT/AOT_stimuli/rescaled_final/1573_rv.mp4	0.0	158.28809905052185	
17	110.10774493217468	pulse	1	t		15.0	2.5	/experiments/AOT/AOT_stimuli/rescaled_final/1573_rv.mp4	0.0	159.88685393333435	
17	110.62396907806396	fix_post	2		12	15.0	2.5	/experiments/AOT/AOT_stimuli/rescaled_final/1573_rv.mp4	0.0	160.40307807922363	0.10041093826293945
18	110.7243800163269	fix_pre	0		119	16.0	2.5	/experiments/AOT/AOT_stimuli/rescaled_final/1473_fw.mp4	0.0	160.50348901748657	0.9916031360626221
18	111.70787501335144	pulse	0	t		16.0	2.5	/experiments/AOT/AOT_stimuli/rescaled_final/1473_fw.mp4	0.0	161.4869840145111	
18	111.71598315238953	movie	1		246	16.0	2.5	/experiments/AOT/AOT_stimuli/rescaled_final/1473_fw.mp4	0.0	161.4950921535492	2.508293867111206
18	113.30746793746948	pulse	1	t		16.0	2.5	/experiments/AOT/AOT_stimuli/rescaled_final/1473_fw.mp4	0.0	163.08657693862915	
18	114.22427701950073	fix_post	2		12	16.0	2.5	/experiments/AOT/AOT_stimuli/rescaled_final/1473_fw.mp4	0.0	164.0033860206604	0.10007405281066895
19	114.3243510723114	fix_pre	0		120	17.0	2.5	/experiments/AOT/AOT_stimuli/rescaled_final/1617_fw.mp4	0.0	164.10346007347107	1.000011920928955
19	114.90784215927124	pulse	0	t		17.0	2.5	/experiments/AOT/AOT_stimuli/rescaled_final/1617_fw.mp4	0.0	164.6869511604309	
19	115.32436299324036	movie	1		245	17.0	2.5	/experiments/AOT/AOT_stimuli/rescaled_final/1617_fw.mp4	0.0	165.10347199440002	2.4996190071105957
19	116.50788593292236	pulse	1	t		17.0	2.5	/experiments/AOT/AOT_stimuli/rescaled_final/1617_fw.mp4	0.0	166.28699493408203	
19	117.82398200035095	fix_post	2		12	17.0	2.5	/experiments/AOT/AOT_stimuli/rescaled_final/1617_fw.mp4	0.0	167.60309100151062	0.10037994384765625
20	117.92436194419861	fix_pre	0		120	18.0	2.5	/experiments/AOT/AOT_stimuli/rescaled_final/1548_rv.mp4	0.0	167.70347094535828	0.9999361038208008
20	118.10782408714294	pulse	0	t		18.0	2.5	/experiments/AOT/AOT_stimuli/rescaled_final/1548_rv.mp4	0.0	167.8869330883026	
20	118.92429804801941	movie	1		244	18.0	2.5	/experiments/AOT/AOT_stimuli/rescaled_final/1548_rv.mp4	0.0	168.70340704917908	2.4995999336242676
20	119.707839012146	pulse	1	t		18.0	2.5	/experiments/AOT/AOT_stimuli/rescaled_final/1548_rv.mp4	0.0	169.48694801330566	
20	121.3062789440155	pulse	1	t		18.0	2.5	/experiments/AOT/AOT_stimuli/rescaled_final/1548_rv.mp4	0.0	171.08538794517517	
20	121.42389798164368	fix_post	2		12	18.0	2.5	/experiments/AOT/AOT_stimuli/rescaled_final/1548_rv.mp4	0.0	171.20300698280334	0.10048913955688477
21	121.52438712120056	fix_pre	0		120	19.0	2.5	/experiments/AOT/AOT_stimuli/rescaled_final/1018_rv.mp4	0.0	171.30349612236023	0.9999120235443115
21	122.52429914474487	movie	1		246	19.0	2.5	/experiments/AOT/AOT_stimuli/rescaled_final/1018_rv.mp4	0.0	172.30340814590454	2.5000150203704834
21	122.90736508369446	pulse	1	t		19.0	2.5	/experiments/AOT/AOT_stimuli/rescaled_final/1018_rv.mp4	0.0	172.68647408485413	
21	124.50787806510925	pulse	1	t		19.0	2.5	/experiments/AOT/AOT_stimuli/rescaled_final/1018_rv.mp4	0.0	174.28698706626892	
21	125.02431416511536	fix_post	2		12	19.0	2.5	/experiments/AOT/AOT_stimuli/rescaled_final/1018_rv.mp4	0.0	174.80342316627502	0.09997391700744629
22	125.1242880821228	fix_pre	0		119	20.0	2.5	/experiments/AOT/AOT_stimuli/rescaled_final/1423_fw.mp4	0.0	174.90339708328247	0.9916729927062988
22	126.10782408714294	pulse	0	t		20.0	2.5	/experiments/AOT/AOT_stimuli/rescaled_final/1423_fw.mp4	0.0	175.8869330883026	
22	126.1159610748291	movie	1		245	20.0	2.5	/experiments/AOT/AOT_stimuli/rescaled_final/1423_fw.mp4	0.0	175.89507007598877	2.507930040359497
22	127.70768308639526	pulse	1	t		20.0	2.5	/experiments/AOT/AOT_stimuli/rescaled_final/1423_fw.mp4	0.0	177.48679208755493	
22	128.6238911151886	fix_post	2		12	20.0	2.5	/experiments/AOT/AOT_stimuli/rescaled_final/1423_fw.mp4	0.0	178.40300011634827	0.1003408432006836
23	128.72423195838928	fix_pre	0		120	21.0	2.5	blank	1.0	178.50334095954895	1.0001201629638672
23	129.30779194831848	pulse	0	t		21.0	2.5	blank	1.0	179.08690094947815	
23	129.72435212135315	movie	1		300	21.0	2.5	blank	1.0	179.50346112251282	2.499922037124634
23	130.90780305862427	pulse	1	t		21.0	2.5	blank	1.0	180.68691205978394	
23	132.22427415847778	fix_post	2		12	21.0	2.5	blank	1.0	182.00338315963745	0.10003089904785156
24	132.32430505752563	fix_pre	0		120	22.0	2.5	/experiments/AOT/AOT_stimuli/rescaled_final/0415_rv.mp4	0.0	182.1034140586853	0.9999868869781494
24	132.50782203674316	pulse	0	t		22.0	2.5	/experiments/AOT/AOT_stimuli/rescaled_final/0415_rv.mp4	0.0	182.28693103790283	
24	133.32429194450378	movie	1		243	22.0	2.5	/experiments/AOT/AOT_stimuli/rescaled_final/0415_rv.mp4	0.0	183.10340094566345	2.4999921321868896
24	134.10778403282166	pulse	1	t		22.0	2.5	/experiments/AOT/AOT_stimuli/rescaled_final/0415_rv.mp4	0.0	183.88689303398132	
24	135.70668601989746	pulse	1	t		22.0	2.5	/experiments/AOT/AOT_stimuli/rescaled_final/0415_rv.mp4	0.0	185.48579502105713	
24	135.82428407669067	fix_post	2		12	22.0	2.5	/experiments/AOT/AOT_stimuli/rescaled_final/0415_rv.mp4	0.0	185.60339307785034	0.09993195533752441
25	135.9242160320282	fix_pre	0		120	23.0	2.5	/experiments/AOT/AOT_stimuli/rescaled_final/0559_rv.mp4	0.0	185.70332503318787	1.0000231266021729
25	136.92423915863037	movie	1		243	23.0	2.5	/experiments/AOT/AOT_stimuli/rescaled_final/0559_rv.mp4	0.0	186.70334815979004	2.500070810317993
25	137.3071391582489	pulse	1	t		23.0	2.5	/experiments/AOT/AOT_stimuli/rescaled_final/0559_rv.mp4	0.0	187.08624815940857	
25	138.90771508216858	pulse	1	t		23.0	2.5	/experiments/AOT/AOT_stimuli/rescaled_final/0559_rv.mp4	0.0	188.68682408332825	
25	139.42430996894836	fix_post	2		12	23.0	2.5	/experiments/AOT/AOT_stimuli/rescaled_final/0559_rv.mp4	0.0	189.20341897010803	0.09995698928833008
26	139.5242669582367	fix_pre	0		119	24.0	2.5	/experiments/AOT/AOT_stimuli/rescaled_final/1805_rv.mp4	0.0	189.30337595939636	0.991703987121582
26	140.507737159729	pulse	0	t		24.0	2.5	/experiments/AOT/AOT_stimuli/rescaled_final/1805_rv.mp4	0.0	190.28684616088867	
26	140.51597094535828	movie	1		245	24.0	2.5	/experiments/AOT/AOT_stimuli/rescaled_final/1805_rv.mp4	0.0	190.29507994651794	2.508213996887207
26	142.10724997520447	pulse	1	t		24.0	2.5	/experiments/AOT/AOT_stimuli/rescaled_final/1805_rv.mp4	0.0	191.88635897636414	
26	143.02418494224548	fix_post	2		12	24.0	2.5	/experiments/AOT/AOT_stimuli/rescaled_final/1805_rv.mp4	0.0	192.80329394340515	0.10007810592651367
27	143.124263048172	fix_pre	0		120	25.0	2.5	/experiments/AOT/AOT_stimuli/rescaled_final/1064_fw.mp4	0.0	192.90337204933167	0.9999620914459229
27	143.70777797698975	pulse	0	t		25.0	2.5	/experiments/AOT/AOT_stimuli/rescaled_final/1064_fw.mp4	0.0	193.4868869781494	
27	144.12422513961792	movie	1		244	25.0	2.5	/experiments/AOT/AOT_stimuli/rescaled_final/1064_fw.mp4	0.0	193.9033341407776	2.4999489784240723
27	145.30785608291626	pulse	1	t		25.0	2.5	/experiments/AOT/AOT_stimuli/rescaled_final/1064_fw.mp4	0.0	195.08696508407593	
27	146.624174118042	fix_post	2		12	25.0	2.5	/experiments/AOT/AOT_stimuli/rescaled_final/1064_fw.mp4	0.0	196.40328311920166	0.09993696212768555
28	146.72411108016968	fix_pre	0		120	26.0	2.5	/experiments/AOT/AOT_stimuli/rescaled_final/2104_rv.mp4	0.0	196.50322008132935	1.0001909732818604
28	146.90780305862427	pulse	0	t		26.0	2.5	/experiments/AOT/AOT_stimuli/rescaled_final/2104_rv.mp4	0.0	196.68691205978394	
28	147.72430205345154	movie	1		246	26.0	2.5	/experiments/AOT/AOT_stimuli/rescaled_final/2104_rv.mp4	0.0	197.5034110546112	2.4995899200439453
28	148.50763201713562	pulse	1	t		26.0	2.5	/experiments/AOT/AOT_stimuli/rescaled_final/2104_rv.mp4	0.0	198.2867410182953	
28	150.10583901405334	pulse	1	t		26.0	2.5	/experiments/AOT/AOT_stimuli/rescaled_final/2104_rv.mp4	0.0	199.884948015213	
28	150.22389197349548	fix_post	2		12	26.0	2.5	/experiments/AOT/AOT_stimuli/rescaled_final/2104_rv.mp4	0.0	200.00300097465515	0.09993100166320801
29	150.3238229751587	fix_pre	0		120	27.0	2.5	blank	1.0	200.10293197631836	1.0000691413879395
29	151.32389211654663	movie	1		300	27.0	2.5	blank	1.0	201.1030011177063	2.500304937362671
29	151.70806097984314	pulse	1	t		27.0	2.5	blank	1.0	201.4871699810028	
29	153.30763602256775	pulse	1	t		27.0	2.5	blank	1.0	203.08674502372742	
29	153.8241970539093	fix_post	2		12	27.0	2.5	blank	1.0	203.60330605506897	0.09999895095825195
30	153.92419600486755	fix_pre	0		119	28.0	2.5	/experiments/AOT/AOT_stimuli/rescaled_final/0734_fw.mp4	0.0	203.70330500602722	0.9916350841522217
30	154.9075689315796	pulse	0	t		28.0	2.5	/experiments/AOT/AOT_stimuli/rescaled_final/0734_fw.mp4	0.0	204.68667793273926	
30	154.91583108901978	movie	1		247	28.0	2.5	/experiments/AOT/AOT_stimuli/rescaled_final/0734_fw.mp4	0.0	204.69494009017944	2.507951021194458
30	156.50761198997498	pulse	1	t		28.0	2.5	/experiments/AOT/AOT_stimuli/rescaled_final/0734_fw.mp4	0.0	206.28672099113464	
30	157.42378211021423	fix_post	2		12	28.0	2.5	/experiments/AOT/AOT_stimuli/rescaled_final/0734_fw.mp4	0.0	207.2028911113739	0.10037398338317871
31	157.5241560935974	fix_pre	0		120	29.0	2.5	/experiments/AOT/AOT_stimuli/rescaled_final/0366_fw.mp4	0.0	207.30326509475708	0.9999299049377441
31	158.10764503479004	pulse	0	t		29.0	2.5	/experiments/AOT/AOT_stimuli/rescaled_final/0366_fw.mp4	0.0	207.8867540359497	
31	158.52408599853516	movie	1		245	29.0	2.5	/experiments/AOT/AOT_stimuli/rescaled_final/0366_fw.mp4	0.0	208.30319499969482	2.4999730587005615
31	159.7076859474182	pulse	1	t		29.0	2.5	/experiments/AOT/AOT_stimuli/rescaled_final/0366_fw.mp4	0.0	209.48679494857788	
31	161.02405905723572	fix_post	2		12	29.0	2.5	/experiments/AOT/AOT_stimuli/rescaled_final/0366_fw.mp4	0.0	210.80316805839539	0.10007596015930176
32	161.12413501739502	fix_pre	0		120	30.0	2.5	/experiments/AOT/AOT_stimuli/rescaled_final/1915_rv.mp4	0.0	210.9032440185547	0.9999880790710449
32	161.30767703056335	pulse	0	t		30.0	2.5	/experiments/AOT/AOT_stimuli/rescaled_final/1915_rv.mp4	0.0	211.08678603172302	
32	162.12412309646606	movie	1		243	30.0	2.5	/experiments/AOT/AOT_stimuli/rescaled_final/1915_rv.mp4	0.0	211.90323209762573	2.499964952468872
32	162.90760016441345	pulse	1	t		30.0	2.5	/experiments/AOT/AOT_stimuli/rescaled_final/1915_rv.mp4	0.0	212.68670916557312	
32	164.50627493858337	pulse	1	t		30.0	2.5	/experiments/AOT/AOT_stimuli/rescaled_final/1915_rv.mp4	0.0	214.28538393974304	
32	164.62408804893494	fix_post	2		12	30.0	2.5	/experiments/AOT/AOT_stimuli/rescaled_final/1915_rv.mp4	0.0	214.4031970500946	0.09998393058776855
33	164.7240719795227	fix_pre	0		120	31.0	2.5	/experiments/AOT/AOT_stimuli/rescaled_final/1978_rv.mp4	0.0	214.50318098068237	1.0001130104064941
33	165.7241849899292	movie	1		242	31.0	2.5	/experiments/AOT/AOT_stimuli/rescaled_final/1978_rv.mp4	0.0	215.50329399108887	2.499479055404663
33	166.10751700401306	pulse	1	t		31.0	2.5	/experiments/AOT/AOT_stimuli/rescaled_final/1978_rv.mp4	0.0	215.88662600517273	
33	167.70766305923462	pulse	1	t		31.0	2.5	/experiments/AOT/AOT_stimuli/rescaled_final/1978_rv.mp4	0.0	217.4867720603943	
33	168.22366404533386	fix_post	2		12	31.0	2.5	/experiments/AOT/AOT_stimuli/rescaled_final/1978_rv.mp4	0.0	218.00277304649353	0.10043811798095703
34	168.32410216331482	fix_pre	0		119	32.0	2.5	/experiments/AOT/AOT_stimuli/rescaled_final/2065_rv.mp4	0.0	218.1032111644745	0.9917187690734863
34	169.3075830936432	pulse	0	t		32.0	2.5	/experiments/AOT/AOT_stimuli/rescaled_final/2065_rv.mp4	0.0	219.08669209480286	
34	169.3158209323883	movie	1		247	32.0	2.5	/experiments/AOT/AOT_stimuli/rescaled_final/2065_rv.mp4	0.0	219.09492993354797	2.5082290172576904
34	170.90728306770325	pulse	1	t		32.0	2.5	/experiments/AOT/AOT_stimuli/rescaled_final/2065_rv.mp4	0.0	220.68639206886292	
34	171.824049949646	fix_post	2		12	32.0	2.5	/experiments/AOT/AOT_stimuli/rescaled_final/2065_rv.mp4	0.0	221.60315895080566	0.09997916221618652
35	171.92402911186218	fix_pre	0		120	33.0	2.5	/experiments/AOT/AOT_stimuli/rescaled_final/1711_fw.mp4	0.0	221.70313811302185	1.0000889301300049
35	172.50755405426025	pulse	0	t		33.0	2.5	/experiments/AOT/AOT_stimuli/rescaled_final/1711_fw.mp4	0.0	222.28666305541992	
35	172.9241180419922	movie	1		246	33.0	2.5	/experiments/AOT/AOT_stimuli/rescaled_final/1711_fw.mp4	0.0	222.70322704315186	2.4998791217803955
35	174.10757613182068	pulse	1	t		33.0	2.5	/experiments/AOT/AOT_stimuli/rescaled_final/1711_fw.mp4	0.0	223.88668513298035	
35	175.42399716377258	fix_post	2		12	33.0	2.5	/experiments/AOT/AOT_stimuli/rescaled_final/1711_fw.mp4	0.0	225.20310616493225	0.10012292861938477
36	175.52412009239197	fix_pre	0		120	34.0	2.5	/experiments/AOT/AOT_stimuli/rescaled_final/0872_fw.mp4	0.0	225.30322909355164	0.9994490146636963
36	175.7075231075287	pulse	0	t		34.0	2.5	/experiments/AOT/AOT_stimuli/rescaled_final/0872_fw.mp4	0.0	225.48663210868835	
36	176.52356910705566	movie	1		244	34.0	2.5	/experiments/AOT/AOT_stimuli/rescaled_final/0872_fw.mp4	0.0	226.30267810821533	2.500298023223877
36	177.30758905410767	pulse	1	t		34.0	2.5	/experiments/AOT/AOT_stimuli/rescaled_final/0872_fw.mp4	0.0	227.08669805526733	
36	178.9062521457672	pulse	1	t		34.0	2.5	/experiments/AOT/AOT_stimuli/rescaled_final/0872_fw.mp4	0.0	228.68536114692688	
36	179.02386713027954	fix_post	2		12	34.0	2.5	/experiments/AOT/AOT_stimuli/rescaled_final/0872_fw.mp4	0.0	228.8029761314392	0.10012602806091309
37	179.12399315834045	fix_pre	0		120	35.0	2.5	blank	1.0	228.90310215950012	1.0000338554382324
37	180.1240270137787	movie	1		300	35.0	2.5	blank	1.0	229.90313601493835	2.5000290870666504
37	180.50756001472473	pulse	1	t		35.0	2.5	blank	1.0	230.2866690158844	
37	182.10751795768738	pulse	1	t		35.0	2.5	blank	1.0	231.88662695884705	
37	182.62405610084534	fix_post	2		12	35.0	2.5	blank	1.0	232.403165102005	0.09992599487304688
38	182.72398209571838	fix_pre	0		119	36.0	2.5	/experiments/AOT/AOT_stimuli/rescaled_final/1121_fw.mp4	0.0	232.50309109687805	0.9917130470275879
38	183.70752215385437	pulse	0	t		36.0	2.5	/experiments/AOT/AOT_stimuli/rescaled_final/1121_fw.mp4	0.0	233.48663115501404	
38	183.71569514274597	movie	1		245	36.0	2.5	/experiments/AOT/AOT_stimuli/rescaled_final/1121_fw.mp4	0.0	233.49480414390564	2.5078399181365967
38	185.30722904205322	pulse	1	t		36.0	2.5	/experiments/AOT/AOT_stimuli/rescaled_final/1121_fw.mp4	0.0	235.0863380432129	
38	186.22353506088257	fix_post	2		12	36.0	2.5	/experiments/AOT/AOT_stimuli/rescaled_final/1121_fw.mp4	0.0	236.00264406204224	0.1005408763885498
39	186.32407593727112	fix_pre	0		120	37.0	2.5	/experiments/AOT/AOT_stimuli/rescaled_final/1043_rv.mp4	0.0	236.1031849384308	0.9999091625213623
39	186.90745902061462	pulse	0	t		37.0	2.5	/experiments/AOT/AOT_stimuli/rescaled_final/1043_rv.mp4	0.0	236.6865680217743	
39	187.32398509979248	movie	1		244	37.0	2.5	/experiments/AOT/AOT_stimuli/rescaled_final/1043_rv.mp4	0.0	237.10309410095215	2.500046968460083
39	188.50778102874756	pulse	1	t		37.0	2.5	/experiments/AOT/AOT_stimuli/rescaled_final/1043_rv.mp4	0.0	238.28689002990723	
39	189.82403206825256	fix_post	2		12	37.0	2.5	/experiments/AOT/AOT_stimuli/rescaled_final/1043_rv.mp4	0.0	239.60314106941223	0.09953808784484863
40	189.9235701560974	fix_pre	0		120	38.0	2.5	/experiments/AOT/AOT_stimuli/rescaled_final/1440_fw.mp4	0.0	239.70267915725708	1.00003981590271
40	190.1074719429016	pulse	0	t		38.0	2.5	/experiments/AOT/AOT_stimuli/rescaled_final/1440_fw.mp4	0.0	239.88658094406128	
40	190.92360997200012	movie	1		245	38.0	2.5	/experiments/AOT/AOT_stimuli/rescaled_final/1440_fw.mp4	0.0	240.7027189731598	2.499937057495117
40	191.70748805999756	pulse	1	t		38.0	2.5	/experiments/AOT/AOT_stimuli/rescaled_final/1440_fw.mp4	0.0	241.48659706115723	
40	193.30596113204956	pulse	1	t		38.0	2.5	/experiments/AOT/AOT_stimuli/rescaled_final/1440_fw.mp4	0.0	243.08507013320923	
40	193.42354702949524	fix_post	2		12	38.0	2.5	/experiments/AOT/AOT_stimuli/rescaled_final/1440_fw.mp4	0.0	243.2026560306549	0.10044312477111816
41	193.52399015426636	fix_pre	0		120	39.0	2.5	/experiments/AOT/AOT_stimuli/rescaled_final/1392_rv.mp4	0.0	243.30309915542603	0.9995269775390625
41	194.52351713180542	movie	1		245	39.0	2.5	/experiments/AOT/AOT_stimuli/rescaled_final/1392_rv.mp4	0.0	244.3026261329651	2.500471830368042
41	194.90716195106506	pulse	1	t		39.0	2.5	/experiments/AOT/AOT_stimuli/rescaled_final/1392_rv.mp4	0.0	244.68627095222473	
41	196.50740504264832	pulse	1	t		39.0	2.5	/experiments/AOT/AOT_stimuli/rescaled_final/1392_rv.mp4	0.0	246.28651404380798	
41	197.02398896217346	fix_post	2		12	39.0	2.5	/experiments/AOT/AOT_stimuli/rescaled_final/1392_rv.mp4	0.0	246.80309796333313	0.09991097450256348
42	197.12389993667603	fix_pre	0		119	40.0	2.5	/experiments/AOT/AOT_stimuli/rescaled_final/1098_rv.mp4	0.0	246.9030089378357	0.991685152053833
42	198.10750102996826	pulse	0	t		40.0	2.5	/experiments/AOT/AOT_stimuli/rescaled_final/1098_rv.mp4	0.0	247.88661003112793	
42	198.11558508872986	movie	1		246	40.0	2.5	/experiments/AOT/AOT_stimuli/rescaled_final/1098_rv.mp4	0.0	247.89469408988953	2.5083210468292236
42	199.70706701278687	pulse	1	t		40.0	2.5	/experiments/AOT/AOT_stimuli/rescaled_final/1098_rv.mp4	0.0	249.48617601394653	
42	200.62390613555908	fix_post	2		12	40.0	2.5	/experiments/AOT/AOT_stimuli/rescaled_final/1098_rv.mp4	0.0	250.40301513671875	0.09999489784240723
43	200.7239010334015	fix_pre	0		120	41.0	2.5	blank	1.0	250.50301003456116	0.9996540546417236
43	201.30746412277222	pulse	0	t		41.0	2.5	blank	1.0	251.08657312393188	
43	201.7235550880432	movie	1		300	41.0	2.5	blank	1.0	251.50266408920288	2.4998929500579834
43	202.9074170589447	pulse	1	t		41.0	2.5	blank	1.0	252.68652606010437	
43	204.2234480381012	fix_post	2		12	41.0	2.5	blank	1.0	254.00255703926086	0.10050606727600098
44	204.3239541053772	fix_pre	0		120	42.0	2.5	/experiments/AOT/AOT_stimuli/rescaled_final/1552_fw.mp4	0.0	254.10306310653687	0.9999668598175049
44	204.50751399993896	pulse	0	t		42.0	2.5	/experiments/AOT/AOT_stimuli/rescaled_final/1552_fw.mp4	0.0	254.28662300109863	
44	205.3239209651947	movie	1		244	42.0	2.5	/experiments/AOT/AOT_stimuli/rescaled_final/1552_fw.mp4	0.0	255.10302996635437	2.4998281002044678
44	206.10742902755737	pulse	1	t		42.0	2.5	/experiments/AOT/AOT_stimuli/rescaled_final/1552_fw.mp4	0.0	255.88653802871704	
44	207.7076370716095	pulse	1	t		42.0	2.5	/experiments/AOT/AOT_stimuli/rescaled_final/1552_fw.mp4	0.0	257.48674607276917	
44	207.82374906539917	fix_post	2		12	42.0	2.5	/experiments/AOT/AOT_stimuli/rescaled_final/1552_fw.mp4	0.0	257.60285806655884	0.10042905807495117
45	207.92417812347412	fix_pre	0		120	43.0	2.5	/experiments/AOT/AOT_stimuli/rescaled_final/0524_fw.mp4	0.0	257.7032871246338	0.9996988773345947
45	208.92387700080872	movie	1		243	43.0	2.5	/experiments/AOT/AOT_stimuli/rescaled_final/0524_fw.mp4	0.0	258.7029860019684	2.500019073486328
45	209.30730295181274	pulse	1	t		43.0	2.5	/experiments/AOT/AOT_stimuli/rescaled_final/0524_fw.mp4	0.0	259.0864119529724	
45	210.90752506256104	pulse	1	t		43.0	2.5	/experiments/AOT/AOT_stimuli/rescaled_final/0524_fw.mp4	0.0	260.6866340637207	
45	211.42389607429504	fix_post	2		12	43.0	2.5	/experiments/AOT/AOT_stimuli/rescaled_final/0524_fw.mp4	0.0	261.2030050754547	0.10000395774841309
46	211.52390003204346	fix_pre	0		119	44.0	2.5	/experiments/AOT/AOT_stimuli/rescaled_final/0386_rv.mp4	0.0	261.3030090332031	0.9917359352111816
46	212.50741314888	pulse	0	t		44.0	2.5	/experiments/AOT/AOT_stimuli/rescaled_final/0386_rv.mp4	0.0	262.2865221500397	
46	212.51563596725464	movie	1		248	44.0	2.5	/experiments/AOT/AOT_stimuli/rescaled_final/0386_rv.mp4	0.0	262.2947449684143	2.508208990097046
46	214.10746598243713	pulse	1	t		44.0	2.5	/experiments/AOT/AOT_stimuli/rescaled_final/0386_rv.mp4	0.0	263.8865749835968	
46	215.02384495735168	fix_post	2		12	44.0	2.5	/experiments/AOT/AOT_stimuli/rescaled_final/0386_rv.mp4	0.0	264.80295395851135	0.09991002082824707
47	215.12375497817993	fix_pre	0		120	45.0	2.5	/experiments/AOT/AOT_stimuli/rescaled_final/2031_rv.mp4	0.0	264.9028639793396	1.0000970363616943
47	215.70871806144714	pulse	0	t		45.0	2.5	/experiments/AOT/AOT_stimuli/rescaled_final/2031_rv.mp4	0.0	265.4878270626068	
47	216.12385201454163	movie	1		246	45.0	2.5	/experiments/AOT/AOT_stimuli/rescaled_final/2031_rv.mp4	0.0	265.9029610157013	2.4995229244232178
47	217.30747413635254	pulse	1	t		45.0	2.5	/experiments/AOT/AOT_stimuli/rescaled_final/2031_rv.mp4	0.0	267.0865831375122	
47	218.62337493896484	fix_post	2		12	45.0	2.5	/experiments/AOT/AOT_stimuli/rescaled_final/2031_rv.mp4	0.0	268.4024839401245	0.100067138671875
48	218.72344207763672	fix_pre	0		120	46.0	2.5	/experiments/AOT/AOT_stimuli/rescaled_final/1899_fw.mp4	0.0	268.5025510787964	1.000396966934204
48	218.90741515159607	pulse	0	t		46.0	2.5	/experiments/AOT/AOT_stimuli/rescaled_final/1899_fw.mp4	0.0	268.68652415275574	
48	219.72383904457092	movie	1		246	46.0	2.5	/experiments/AOT/AOT_stimuli/rescaled_final/1899_fw.mp4	0.0	269.5029480457306	2.499556064605713
48	220.50734305381775	pulse	1	t		46.0	2.5	/experiments/AOT/AOT_stimuli/rescaled_final/1899_fw.mp4	0.0	270.2864520549774	
48	222.10590815544128	pulse	1	t		46.0	2.5	/experiments/AOT/AOT_stimuli/rescaled_final/1899_fw.mp4	0.0	271.88501715660095	
48	222.22339510917664	fix_post	2		12	46.0	2.5	/experiments/AOT/AOT_stimuli/rescaled_final/1899_fw.mp4	0.0	272.0025041103363	0.10045385360717773
49	222.3238489627838	fix_pre	0		120	47.0	2.5	/experiments/AOT/AOT_stimuli/rescaled_final/1374_fw.mp4	0.0	272.1029579639435	0.9999780654907227
49	223.32382702827454	movie	1		245	47.0	2.5	/experiments/AOT/AOT_stimuli/rescaled_final/1374_fw.mp4	0.0	273.1029360294342	2.5000030994415283
49	223.70826816558838	pulse	1	t		47.0	2.5	/experiments/AOT/AOT_stimuli/rescaled_final/1374_fw.mp4	0.0	273.48737716674805	
49	225.3072259426117	pulse	1	t		47.0	2.5	/experiments/AOT/AOT_stimuli/rescaled_final/1374_fw.mp4	0.0	275.08633494377136	
49	225.82383012771606	fix_post	2		12	47.0	2.5	/experiments/AOT/AOT_stimuli/rescaled_final/1374_fw.mp4	0.0	275.60293912887573	0.10001802444458008
50	225.92384815216064	fix_pre	0		119	48.0	2.5	blank	1.0	275.7029571533203	0.9916439056396484
50	226.90739798545837	pulse	0	t		48.0	2.5	blank	1.0	276.68650698661804	
50	226.9154920578003	movie	1		301	48.0	2.5	blank	1.0	276.69460105895996	2.5084540843963623
50	228.50730299949646	pulse	1	t		48.0	2.5	blank	1.0	278.2864120006561	
50	229.42394614219666	fix_post	2		12	48.0	2.5	blank	1.0	279.2030551433563	0.09986186027526855
51	229.52380800247192	fix_pre	0		120	49.0	2.5	/experiments/AOT/AOT_stimuli/rescaled_final/0872_rv.mp4	0.0	279.3029170036316	1.000049114227295
51	230.10720801353455	pulse	0	t		49.0	2.5	/experiments/AOT/AOT_stimuli/rescaled_final/0872_rv.mp4	0.0	279.8863170146942	
51	230.52385711669922	movie	1		245	49.0	2.5	/experiments/AOT/AOT_stimuli/rescaled_final/0872_rv.mp4	0.0	280.3029661178589	2.4998810291290283
51	231.70735907554626	pulse	1	t		49.0	2.5	/experiments/AOT/AOT_stimuli/rescaled_final/0872_rv.mp4	0.0	281.48646807670593	
51	233.02373814582825	fix_post	2		12	49.0	2.5	/experiments/AOT/AOT_stimuli/rescaled_final/0872_rv.mp4	0.0	282.8028471469879	0.09964179992675781
52	233.123379945755	fix_pre	0		120	50.0	2.5	/experiments/AOT/AOT_stimuli/rescaled_final/0999_rv.mp4	0.0	282.9024889469147	0.9999470710754395
52	233.30738615989685	pulse	0	t		50.0	2.5	/experiments/AOT/AOT_stimuli/rescaled_final/0999_rv.mp4	0.0	283.0864951610565	
52	234.12332701683044	movie	1		245	50.0	2.5	/experiments/AOT/AOT_stimuli/rescaled_final/0999_rv.mp4	0.0	283.9024360179901	2.4999959468841553
52	234.9073269367218	pulse	1	t		50.0	2.5	/experiments/AOT/AOT_stimuli/rescaled_final/0999_rv.mp4	0.0	284.68643593788147	
52	236.505784034729	pulse	1	t		50.0	2.5	/experiments/AOT/AOT_stimuli/rescaled_final/0999_rv.mp4	0.0	286.2848930358887	
52	236.6233229637146	fix_post	2		12	50.0	2.5	/experiments/AOT/AOT_stimuli/rescaled_final/0999_rv.mp4	0.0	286.40243196487427	0.10043716430664062
53	236.72376012802124	fix_pre	0		120	51.0	2.5	/experiments/AOT/AOT_stimuli/rescaled_final/2177_rv.mp4	0.0	286.5028691291809	0.9995748996734619
53	237.7233350276947	movie	1		248	51.0	2.5	/experiments/AOT/AOT_stimuli/rescaled_final/2177_rv.mp4	0.0	287.50244402885437	2.500498056411743
53	238.107036113739	pulse	1	t		51.0	2.5	/experiments/AOT/AOT_stimuli/rescaled_final/2177_rv.mp4	0.0	287.8861451148987	
53	239.70725512504578	pulse	1	t		51.0	2.5	/experiments/AOT/AOT_stimuli/rescaled_final/2177_rv.mp4	0.0	289.48636412620544	
53	240.22383308410645	fix_post	2		12	51.0	2.5	/experiments/AOT/AOT_stimuli/rescaled_final/2177_rv.mp4	0.0	290.0029420852661	0.0999760627746582
54	240.3238091468811	fix_pre	0		119	52.0	2.5	/experiments/AOT/AOT_stimuli/rescaled_final/0731_rv.mp4	0.0	290.10291814804077	0.9916038513183594
54	241.30726194381714	pulse	0	t		52.0	2.5	/experiments/AOT/AOT_stimuli/rescaled_final/0731_rv.mp4	0.0	291.0863709449768	
54	241.31541299819946	movie	1		248	52.0	2.5	/experiments/AOT/AOT_stimuli/rescaled_final/0731_rv.mp4	0.0	291.09452199935913	2.5078721046447754
54	242.90694904327393	pulse	1	t		52.0	2.5	/experiments/AOT/AOT_stimuli/rescaled_final/0731_rv.mp4	0.0	292.6860580444336	
54	243.82328510284424	fix_post	2		12	52.0	2.5	/experiments/AOT/AOT_stimuli/rescaled_final/0731_rv.mp4	0.0	293.6023941040039	0.10043501853942871
55	243.92372012138367	fix_pre	0		120	53.0	2.5	/experiments/AOT/AOT_stimuli/rescaled_final/1237_fw.mp4	0.0	293.70282912254333	1.0000410079956055
55	244.50716710090637	pulse	0	t		53.0	2.5	/experiments/AOT/AOT_stimuli/rescaled_final/1237_fw.mp4	0.0	294.28627610206604	
55	244.92376112937927	movie	1		247	53.0	2.5	/experiments/AOT/AOT_stimuli/rescaled_final/1237_fw.mp4	0.0	294.70287013053894	2.4999330043792725
55	246.10723996162415	pulse	1	t		53.0	2.5	/experiments/AOT/AOT_stimuli/rescaled_final/1237_fw.mp4	0.0	295.8863489627838	
55	247.42369413375854	fix_post	2		12	53.0	2.5	/experiments/AOT/AOT_stimuli/rescaled_final/1237_fw.mp4	0.0	297.2028031349182	0.09960198402404785
56	247.5232961177826	fix_pre	0		120	54.0	2.5	/experiments/AOT/AOT_stimuli/rescaled_final/0764_rv.mp4	0.0	297.30240511894226	1.0004379749298096
56	247.7071931362152	pulse	0	t		54.0	2.5	/experiments/AOT/AOT_stimuli/rescaled_final/0764_rv.mp4	0.0	297.4863021373749	
56	248.5237340927124	movie	1		247	54.0	2.5	/experiments/AOT/AOT_stimuli/rescaled_final/0764_rv.mp4	0.0	298.30284309387207	2.499943971633911
56	249.30728697776794	pulse	1	t		54.0	2.5	/experiments/AOT/AOT_stimuli/rescaled_final/0764_rv.mp4	0.0	299.0863959789276	
56	250.90712714195251	pulse	1	t		54.0	2.5	/experiments/AOT/AOT_stimuli/rescaled_final/0764_rv.mp4	0.0	300.6862361431122	
56	251.0236780643463	fix_post	2		12	54.0	2.5	/experiments/AOT/AOT_stimuli/rescaled_final/0764_rv.mp4	0.0	300.802787065506	0.09996390342712402
57	251.12364196777344	fix_pre	0		120	55.0	2.5	/experiments/AOT/AOT_stimuli/rescaled_final/2120_rv.mp4	0.0	300.9027509689331	0.9996190071105957
57	252.12326097488403	movie	1		245	55.0	2.5	/experiments/AOT/AOT_stimuli/rescaled_final/2120_rv.mp4	0.0	301.9023699760437	2.500434160232544
57	252.507169008255	pulse	1	t		55.0	2.5	/experiments/AOT/AOT_stimuli/rescaled_final/2120_rv.mp4	0.0	302.2862780094147	
57	254.10718202590942	pulse	1	t		55.0	2.5	/experiments/AOT/AOT_stimuli/rescaled_final/2120_rv.mp4	0.0	303.8862910270691	
57	254.62369513511658	fix_post	2		12	55.0	2.5	/experiments/AOT/AOT_stimuli/rescaled_final/2120_rv.mp4	0.0	304.40280413627625	0.10001587867736816
58	254.72371101379395	fix_pre	0		119	56.0	2.5	blank	1.0	304.5028200149536	0.9916191101074219
58	255.7072319984436	pulse	0	t		56.0	2.5	blank	1.0	305.48634099960327	
58	255.71533012390137	movie	1		301	56.0	2.5	blank	1.0	305.49443912506104	2.5083749294281006
58	257.3071870803833	pulse	1	t		56.0	2.5	blank	1.0	307.08629608154297	
58	258.22370505332947	fix_post	2		12	56.0	2.5	blank	1.0	308.00281405448914	0.10001993179321289
59	258.3237249851227	fix_pre	0		120	57.0	2.5	/experiments/AOT/AOT_stimuli/rescaled_final/0473_fw.mp4	0.0	308.10283398628235	0.9995410442352295
59	258.90721011161804	pulse	0	t		57.0	2.5	/experiments/AOT/AOT_stimuli/rescaled_final/0473_fw.mp4	0.0	308.6863191127777	
59	259.3232660293579	movie	1		247	57.0	2.5	/experiments/AOT/AOT_stimuli/rescaled_final/0473_fw.mp4	0.0	309.1023750305176	2.500351905822754
59	260.5071530342102	pulse	1	t		57.0	2.5	/experiments/AOT/AOT_stimuli/rescaled_final/0473_fw.mp4	0.0	310.2862620353699	
59	261.82361793518066	fix_post	2		12	57.0	2.5	/experiments/AOT/AOT_stimuli/rescaled_final/0473_fw.mp4	0.0	311.60272693634033	0.09960722923278809
60	261.92322516441345	fix_pre	0		120	58.0	2.5	/experiments/AOT/AOT_stimuli/rescaled_final/0731_fw.mp4	0.0	311.7023341655731	1.0004839897155762
60	262.1071870326996	pulse	0	t		58.0	2.5	/experiments/AOT/AOT_stimuli/rescaled_final/0731_fw.mp4	0.0	311.88629603385925	
60	262.923709154129	movie	1		247	58.0	2.5	/experiments/AOT/AOT_stimuli/rescaled_final/0731_fw.mp4	0.0	312.7028181552887	2.4996089935302734
60	263.7069489955902	pulse	1	t		58.0	2.5	/experiments/AOT/AOT_stimuli/rescaled_final/0731_fw.mp4	0.0	313.4860579967499	
60	265.30711603164673	pulse	1	t		58.0	2.5	/experiments/AOT/AOT_stimuli/rescaled_final/0731_fw.mp4	0.0	315.0862250328064	
60	265.4233181476593	fix_post	2		12	58.0	2.5	/experiments/AOT/AOT_stimuli/rescaled_final/0731_fw.mp4	0.0	315.20242714881897	0.10025596618652344
61	265.5235741138458	fix_pre	0		120	59.0	2.5	/experiments/AOT/AOT_stimuli/rescaled_final/1645_rv.mp4	0.0	315.3026831150055	1.000133991241455
61	266.5237081050873	movie	1		246	59.0	2.5	/experiments/AOT/AOT_stimuli/rescaled_final/1645_rv.mp4	0.0	316.30281710624695	2.4998109340667725
61	266.9068989753723	pulse	1	t		59.0	2.5	/experiments/AOT/AOT_stimuli/rescaled_final/1645_rv.mp4	0.0	316.686007976532	
61	268.5071520805359	pulse	1	t		59.0	2.5	/experiments/AOT/AOT_stimuli/rescaled_final/1645_rv.mp4	0.0	318.28626108169556	
61	269.02351903915405	fix_post	2		12	59.0	2.5	/experiments/AOT/AOT_stimuli/rescaled_final/1645_rv.mp4	0.0	318.8026280403137	0.10007500648498535
62	269.12359404563904	fix_pre	0		119	60.0	2.5	/experiments/AOT/AOT_stimuli/rescaled_final/1064_rv.mp4	0.0	318.9027030467987	0.9916360378265381
62	270.10705399513245	pulse	0	t		60.0	2.5	/experiments/AOT/AOT_stimuli/rescaled_final/1064_rv.mp4	0.0	319.8861629962921	
62	270.1152300834656	movie	1		247	60.0	2.5	/experiments/AOT/AOT_stimuli/rescaled_final/1064_rv.mp4	0.0	319.89433908462524	2.508342981338501
62	271.7066881656647	pulse	1	t		60.0	2.5	/experiments/AOT/AOT_stimuli/rescaled_final/1064_rv.mp4	0.0	321.48579716682434	
62	272.6235730648041	fix_post	2		12	60.0	2.5	/experiments/AOT/AOT_stimuli/rescaled_final/1064_rv.mp4	0.0	322.40268206596375	0.09993195533752441
63	272.7235050201416	fix_pre	0		120	61.0	2.5	blank	1.0	322.50261402130127	1.0001499652862549
63	273.3070020675659	pulse	0	t		61.0	2.5	blank	1.0	323.0861110687256	
63	273.72365498542786	movie	1		300	61.0	2.5	blank	1.0	323.5027639865875	2.4998769760131836
63	274.9070119857788	pulse	1	t		61.0	2.5	blank	1.0	324.6861209869385	
63	276.22353196144104	fix_post	2		12	61.0	2.5	blank	1.0	326.0026409626007	0.09996509552001953
64	276.32349705696106	fix_pre	0		120	62.0	2.5	/experiments/AOT/AOT_stimuli/rescaled_final/1465_fw.mp4	0.0	326.1026060581207	1.0000190734863281
64	276.50718903541565	pulse	0	t		62.0	2.5	/experiments/AOT/AOT_stimuli/rescaled_final/1465_fw.mp4	0.0	326.2862980365753	
64	277.3235161304474	movie	1		245	62.0	2.5	/experiments/AOT/AOT_stimuli/rescaled_final/1465_fw.mp4	0.0	327.10262513160706	2.5000100135803223
64	278.1069691181183	pulse	1	t		62.0	2.5	/experiments/AOT/AOT_stimuli/rescaled_final/1465_fw.mp4	0.0	327.88607811927795	
64	279.70650815963745	pulse	1	t		62.0	2.5	/experiments/AOT/AOT_stimuli/rescaled_final/1465_fw.mp4	0.0	329.4856171607971	
64	279.8235261440277	fix_post	2		12	62.0	2.5	/experiments/AOT/AOT_stimuli/rescaled_final/1465_fw.mp4	0.0	329.6026351451874	0.1000518798828125
65	279.9235780239105	fix_pre	0		120	63.0	2.5	/experiments/AOT/AOT_stimuli/rescaled_final/0025_fw.mp4	0.0	329.7026870250702	1.0000479221343994
65	280.9236259460449	movie	1		247	63.0	2.5	/experiments/AOT/AOT_stimuli/rescaled_final/0025_fw.mp4	0.0	330.7027349472046	2.4994821548461914
65	281.30653405189514	pulse	1	t		63.0	2.5	/experiments/AOT/AOT_stimuli/rescaled_final/0025_fw.mp4	0.0	331.0856430530548	
65	282.90695905685425	pulse	1	t		63.0	2.5	/experiments/AOT/AOT_stimuli/rescaled_final/0025_fw.mp4	0.0	332.6860680580139	
65	283.4231081008911	fix_post	2		12	63.0	2.5	/experiments/AOT/AOT_stimuli/rescaled_final/0025_fw.mp4	0.0	333.2022171020508	0.10038495063781738
66	283.52349305152893	fix_pre	0		119	64.0	2.5	/experiments/AOT/AOT_stimuli/rescaled_final/1121_rv.mp4	0.0	333.3026020526886	0.9917879104614258
66	284.5070149898529	pulse	0	t		64.0	2.5	/experiments/AOT/AOT_stimuli/rescaled_final/1121_rv.mp4	0.0	334.2861239910126	
66	284.51528096199036	movie	1		246	64.0	2.5	/experiments/AOT/AOT_stimuli/rescaled_final/1121_rv.mp4	0.0	334.29438996315	2.5082221031188965
66	286.1069920063019	pulse	1	t		64.0	2.5	/experiments/AOT/AOT_stimuli/rescaled_final/1121_rv.mp4	0.0	335.88610100746155	
66	287.02350306510925	fix_post	2		12	64.0	2.5	/experiments/AOT/AOT_stimuli/rescaled_final/1121_rv.mp4	0.0	336.8026120662689	0.09993290901184082
67	287.1234359741211	fix_pre	0		120	65.0	2.5	/experiments/AOT/AOT_stimuli/rescaled_final/1050_rv.mp4	0.0	336.90254497528076	0.9996271133422852
67	287.7070701122284	pulse	0	t		65.0	2.5	/experiments/AOT/AOT_stimuli/rescaled_final/1050_rv.mp4	0.0	337.48617911338806	
67	288.1230630874634	movie	1		245	65.0	2.5	/experiments/AOT/AOT_stimuli/rescaled_final/1050_rv.mp4	0.0	337.90217208862305	2.4999749660491943
67	289.3071219921112	pulse	1	t		65.0	2.5	/experiments/AOT/AOT_stimuli/rescaled_final/1050_rv.mp4	0.0	339.0862309932709	
67	290.6230380535126	fix_post	2		12	65.0	2.5	/experiments/AOT/AOT_stimuli/rescaled_final/1050_rv.mp4	0.0	340.40214705467224	0.1003870964050293
68	290.7234251499176	fix_pre	0		120	66.0	2.5	/experiments/AOT/AOT_stimuli/rescaled_final/1274_fw.mp4	0.0	340.50253415107727	0.9996287822723389
68	290.90709114074707	pulse	0	t		66.0	2.5	/experiments/AOT/AOT_stimuli/rescaled_final/1274_fw.mp4	0.0	340.68620014190674	
68	291.72305393218994	movie	1		245	66.0	2.5	/experiments/AOT/AOT_stimuli/rescaled_final/1274_fw.mp4	0.0	341.5021629333496	2.500394105911255
68	292.5069661140442	pulse	1	t		66.0	2.5	/experiments/AOT/AOT_stimuli/rescaled_final/1274_fw.mp4	0.0	342.28607511520386	
68	294.10577607154846	pulse	1	t		66.0	2.5	/experiments/AOT/AOT_stimuli/rescaled_final/1274_fw.mp4	0.0	343.88488507270813	
68	294.2234480381012	fix_post	2		12	66.0	2.5	/experiments/AOT/AOT_stimuli/rescaled_final/1274_fw.mp4	0.0	344.00255703926086	0.10010600090026855
69	294.32355403900146	fix_pre	0		120	67.0	2.5	/experiments/AOT/AOT_stimuli/rescaled_final/1552_rv.mp4	0.0	344.10266304016113	0.999932050704956
69	295.3234860897064	movie	1		244	67.0	2.5	/experiments/AOT/AOT_stimuli/rescaled_final/1552_rv.mp4	0.0	345.1025950908661	2.499647855758667
69	295.7066340446472	pulse	1	t		67.0	2.5	/experiments/AOT/AOT_stimuli/rescaled_final/1552_rv.mp4	0.0	345.4857430458069	
69	297.30691504478455	pulse	1	t		67.0	2.5	/experiments/AOT/AOT_stimuli/rescaled_final/1552_rv.mp4	0.0	347.0860240459442	
69	297.8231339454651	fix_post	2		12	67.0	2.5	/experiments/AOT/AOT_stimuli/rescaled_final/1552_rv.mp4	0.0	347.60224294662476	0.10028600692749023
70	297.9234199523926	fix_pre	0		119	68.0	2.5	/experiments/AOT/AOT_stimuli/rescaled_final/0690_fw.mp4	0.0	347.70252895355225	0.9916801452636719
70	298.90683102607727	pulse	0	t		68.0	2.5	/experiments/AOT/AOT_stimuli/rescaled_final/0690_fw.mp4	0.0	348.68594002723694	
70	298.91510009765625	movie	1		245	68.0	2.5	/experiments/AOT/AOT_stimuli/rescaled_final/0690_fw.mp4	0.0	348.6942090988159	2.5079360008239746
70	300.5069749355316	pulse	1	t		68.0	2.5	/experiments/AOT/AOT_stimuli/rescaled_final/0690_fw.mp4	0.0	350.2860839366913	
70	301.4230360984802	fix_post	2		12	68.0	2.5	/experiments/AOT/AOT_stimuli/rescaled_final/0690_fw.mp4	0.0	351.2021450996399	0.10043096542358398
71	301.5234670639038	fix_pre	0		120	69.0	2.5	blank	1.0	351.3025760650635	0.9999580383300781
71	302.10696506500244	pulse	0	t		69.0	2.5	blank	1.0	351.8860740661621	
71	302.5234251022339	movie	1		300	69.0	2.5	blank	1.0	352.30253410339355	2.499570846557617
71	303.70688796043396	pulse	1	t		69.0	2.5	blank	1.0	353.4859969615936	
71	305.0229959487915	fix_post	2		12	69.0	2.5	blank	1.0	354.8021049499512	0.10035300254821777
72	305.1233489513397	fix_pre	0		120	70.0	2.5	/experiments/AOT/AOT_stimuli/rescaled_final/0376_rv.mp4	0.0	354.9024579524994	1.0001940727233887
72	305.30686616897583	pulse	0	t		70.0	2.5	/experiments/AOT/AOT_stimuli/rescaled_final/0376_rv.mp4	0.0	355.0859751701355	
72	306.1235430240631	movie	1		244	70.0	2.5	/experiments/AOT/AOT_stimuli/rescaled_final/0376_rv.mp4	0.0	355.9026520252228	2.4998369216918945
72	306.90696907043457	pulse	1	t		70.0	2.5	/experiments/AOT/AOT_stimuli/rescaled_final/0376_rv.mp4	0.0	356.68607807159424	
72	308.51527309417725	pulse	1	t		70.0	2.5	/experiments/AOT/AOT_stimuli/rescaled_final/0376_rv.mp4	0.0	358.2943820953369	
72	308.623379945755	fix_post	2		12	70.0	2.5	/experiments/AOT/AOT_stimuli/rescaled_final/0376_rv.mp4	0.0	358.4024889469147	0.100006103515625
73	308.72338604927063	fix_pre	0		120	71.0	2.5	/experiments/AOT/AOT_stimuli/rescaled_final/0415_fw.mp4	0.0	358.5024950504303	1.000053882598877
73	309.7234399318695	movie	1		244	71.0	2.5	/experiments/AOT/AOT_stimuli/rescaled_final/0415_fw.mp4	0.0	359.5025489330292	2.499890089035034
73	310.1065881252289	pulse	1	t		71.0	2.5	/experiments/AOT/AOT_stimuli/rescaled_final/0415_fw.mp4	0.0	359.88569712638855	
73	311.70688796043396	pulse	1	t		71.0	2.5	/experiments/AOT/AOT_stimuli/rescaled_final/0415_fw.mp4	0.0	361.4859969615936	
73	312.22333002090454	fix_post	2		12	71.0	2.5	/experiments/AOT/AOT_stimuli/rescaled_final/0415_fw.mp4	0.0	362.0024390220642	0.1000220775604248
74	312.32335209846497	fix_pre	0		119	72.0	2.5	/experiments/AOT/AOT_stimuli/rescaled_final/1032_fw.mp4	0.0	362.10246109962463	0.9917619228363037
74	313.3069441318512	pulse	0	t		72.0	2.5	/experiments/AOT/AOT_stimuli/rescaled_final/1032_fw.mp4	0.0	363.08605313301086	
74	313.31511402130127	movie	1		244	72.0	2.5	/experiments/AOT/AOT_stimuli/rescaled_final/1032_fw.mp4	0.0	363.09422302246094	2.5082929134368896
74	314.90658497810364	pulse	1	t		72.0	2.5	/experiments/AOT/AOT_stimuli/rescaled_final/1032_fw.mp4	0.0	364.6856939792633	
74	315.82340693473816	fix_post	2		12	72.0	2.5	/experiments/AOT/AOT_stimuli/rescaled_final/1032_fw.mp4	0.0	365.6025159358978	0.09965920448303223
75	315.9230661392212	fix_pre	0		120	73.0	2.5	/experiments/AOT/AOT_stimuli/rescaled_final/1141_fw.mp4	0.0	365.70217514038086	0.9999239444732666
75	316.5069179534912	pulse	0	t		73.0	2.5	/experiments/AOT/AOT_stimuli/rescaled_final/1141_fw.mp4	0.0	366.2860269546509	
75	316.92299008369446	movie	1		244	73.0	2.5	/experiments/AOT/AOT_stimuli/rescaled_final/1141_fw.mp4	0.0	366.7020990848541	2.500138998031616
75	318.1065020561218	pulse	1	t		73.0	2.5	/experiments/AOT/AOT_stimuli/rescaled_final/1141_fw.mp4	0.0	367.8856110572815	
75	319.4231290817261	fix_post	2		12	73.0	2.5	/experiments/AOT/AOT_stimuli/rescaled_final/1141_fw.mp4	0.0	369.20223808288574	0.10044097900390625
76	319.52357006073	fix_pre	0		120	74.0	2.5	/experiments/AOT/AOT_stimuli/rescaled_final/0041_rv.mp4	0.0	369.30267906188965	0.9997379779815674
76	319.7071809768677	pulse	0	t		74.0	2.5	/experiments/AOT/AOT_stimuli/rescaled_final/0041_rv.mp4	0.0	369.48628997802734	
76	320.52330803871155	movie	1		245	74.0	2.5	/experiments/AOT/AOT_stimuli/rescaled_final/0041_rv.mp4	0.0	370.3024170398712	2.5000250339508057
76	321.30684304237366	pulse	1	t		74.0	2.5	/experiments/AOT/AOT_stimuli/rescaled_final/0041_rv.mp4	0.0	371.0859520435333	
76	322.9068491458893	pulse	1	t		74.0	2.5	/experiments/AOT/AOT_stimuli/rescaled_final/0041_rv.mp4	0.0	372.68595814704895	
76	323.02333307266235	fix_post	2		12	74.0	2.5	/experiments/AOT/AOT_stimuli/rescaled_final/0041_rv.mp4	0.0	372.802442073822	0.10000300407409668
77	323.12333607673645	fix_pre	0		120	75.0	2.5	/experiments/AOT/AOT_stimuli/rescaled_final/0127_fw.mp4	0.0	372.9024450778961	0.9999639987945557
77	324.123300075531	movie	1		243	75.0	2.5	/experiments/AOT/AOT_stimuli/rescaled_final/0127_fw.mp4	0.0	373.9024090766907	2.499950885772705
77	324.50641107559204	pulse	1	t		75.0	2.5	/experiments/AOT/AOT_stimuli/rescaled_final/0127_fw.mp4	0.0	374.2855200767517	
77	326.106742143631	pulse	1	t		75.0	2.5	/experiments/AOT/AOT_stimuli/rescaled_final/0127_fw.mp4	0.0	375.88585114479065	
77	326.6232509613037	fix_post	2		12	75.0	2.5	/experiments/AOT/AOT_stimuli/rescaled_final/0127_fw.mp4	0.0	376.4023599624634	0.0995941162109375
78	326.72284507751465	fix_pre	0		119	76.0	2.5	/experiments/AOT/AOT_stimuli/rescaled_final/1013_rv.mp4	0.0	376.5019540786743	0.9921150207519531
78	327.70676708221436	pulse	0	t		76.0	2.5	/experiments/AOT/AOT_stimuli/rescaled_final/1013_rv.mp4	0.0	377.485876083374	
78	327.7149600982666	movie	1		246	76.0	2.5	/experiments/AOT/AOT_stimuli/rescaled_final/1013_rv.mp4	0.0	377.49406909942627	2.508283853530884
78	329.30647015571594	pulse	1	t		76.0	2.5	/experiments/AOT/AOT_stimuli/rescaled_final/1013_rv.mp4	0.0	379.0855791568756	
78	330.2232439517975	fix_post	2		12	76.0	2.5	/experiments/AOT/AOT_stimuli/rescaled_final/1013_rv.mp4	0.0	380.00235295295715	0.10013198852539062
79	330.3233759403229	fix_pre	0		120	77.0	2.5	blank	1.0	380.10248494148254	0.9998941421508789
79	330.9067659378052	pulse	0	t		77.0	2.5	blank	1.0	380.68587493896484	
79	331.32327008247375	movie	1		300	77.0	2.5	blank	1.0	381.1023790836334	2.4995880126953125
79	332.5067090988159	pulse	1	t		77.0	2.5	blank	1.0	382.2858180999756	
79	333.82285809516907	fix_post	2		12	77.0	2.5	blank	1.0	383.60196709632874	0.10037803649902344
80	333.9232361316681	fix_pre	0		120	78.0	2.5	/experiments/AOT/AOT_stimuli/rescaled_final/1108_fw.mp4	0.0	383.70234513282776	0.9999790191650391
80	334.1066861152649	pulse	0	t		78.0	2.5	/experiments/AOT/AOT_stimuli/rescaled_final/1108_fw.mp4	0.0	383.88579511642456	
80	334.92321515083313	movie	1		245	78.0	2.5	/experiments/AOT/AOT_stimuli/rescaled_final/1108_fw.mp4	0.0	384.7023241519928	2.5000319480895996
80	335.70670795440674	pulse	1	t		78.0	2.5	/experiments/AOT/AOT_stimuli/rescaled_final/1108_fw.mp4	0.0	385.4858169555664	
80	337.3052520751953	pulse	1	t		78.0	2.5	/experiments/AOT/AOT_stimuli/rescaled_final/1108_fw.mp4	0.0	387.084361076355	
80	337.42324709892273	fix_post	2		12	78.0	2.5	/experiments/AOT/AOT_stimuli/rescaled_final/1108_fw.mp4	0.0	387.2023561000824	0.1000208854675293
81	337.52326798439026	fix_pre	0		120	79.0	2.5	/experiments/AOT/AOT_stimuli/rescaled_final/1580_rv.mp4	0.0	387.3023769855499	0.9995570182800293
81	338.5228250026703	movie	1		245	79.0	2.5	/experiments/AOT/AOT_stimuli/rescaled_final/1580_rv.mp4	0.0	388.30193400382996	2.5004470348358154
81	338.9063911437988	pulse	1	t		79.0	2.5	/experiments/AOT/AOT_stimuli/rescaled_final/1580_rv.mp4	0.0	388.6855001449585	
81	340.5067660808563	pulse	1	t		79.0	2.5	/experiments/AOT/AOT_stimuli/rescaled_final/1580_rv.mp4	0.0	390.285875082016	
81	341.0232720375061	fix_post	2		12	79.0	2.5	/experiments/AOT/AOT_stimuli/rescaled_final/1580_rv.mp4	0.0	390.80238103866577	0.10000896453857422
82	341.1232810020447	fix_pre	0		119	80.0	2.5	/experiments/AOT/AOT_stimuli/rescaled_final/0118_fw.mp4	0.0	390.90239000320435	0.991595983505249
82	342.106791973114	pulse	0	t		80.0	2.5	/experiments/AOT/AOT_stimuli/rescaled_final/0118_fw.mp4	0.0	391.8859009742737	
82	342.1148769855499	movie	1		244	80.0	2.5	/experiments/AOT/AOT_stimuli/rescaled_final/0118_fw.mp4	0.0	391.8939859867096	2.5083720684051514
82	343.7063570022583	pulse	1	t		80.0	2.5	/experiments/AOT/AOT_stimuli/rescaled_final/0118_fw.mp4	0.0	393.48546600341797	
82	344.6232490539551	fix_post	2		12	80.0	2.5	/experiments/AOT/AOT_stimuli/rescaled_final/0118_fw.mp4	0.0	394.40235805511475	0.09999299049377441
83	344.72324204444885	fix_pre	0		120	81.0	2.5	/experiments/AOT/AOT_stimuli/rescaled_final/1555_fw.mp4	0.0	394.5023510456085	0.9999830722808838
83	345.30672097206116	pulse	0	t		81.0	2.5	/experiments/AOT/AOT_stimuli/rescaled_final/1555_fw.mp4	0.0	395.0858299732208	
83	345.72322511672974	movie	1		244	81.0	2.5	/experiments/AOT/AOT_stimuli/rescaled_final/1555_fw.mp4	0.0	395.5023341178894	2.499924898147583
83	346.9067611694336	pulse	1	t		81.0	2.5	/experiments/AOT/AOT_stimuli/rescaled_final/1555_fw.mp4	0.0	396.68587017059326	
83	348.2231500148773	fix_post	2		12	81.0	2.5	/experiments/AOT/AOT_stimuli/rescaled_final/1555_fw.mp4	0.0	398.002259016037	0.09995698928833008
84	348.32310700416565	fix_pre	0		120	82.0	2.5	/experiments/AOT/AOT_stimuli/rescaled_final/1566_fw.mp4	0.0	398.1022160053253	1.0001540184020996
84	348.5066330432892	pulse	0	t		82.0	2.5	/experiments/AOT/AOT_stimuli/rescaled_final/1566_fw.mp4	0.0	398.28574204444885	
84	349.32326102256775	movie	1		246	82.0	2.5	/experiments/AOT/AOT_stimuli/rescaled_final/1566_fw.mp4	0.0	399.1023700237274	2.4995429515838623
84	350.10664105415344	pulse	1	t		82.0	2.5	/experiments/AOT/AOT_stimuli/rescaled_final/1566_fw.mp4	0.0	399.8857500553131	
84	351.70538115501404	pulse	1	t		82.0	2.5	/experiments/AOT/AOT_stimuli/rescaled_final/1566_fw.mp4	0.0	401.4844901561737	
84	351.8228039741516	fix_post	2		12	82.0	2.5	/experiments/AOT/AOT_stimuli/rescaled_final/1566_fw.mp4	0.0	401.6019129753113	0.10035204887390137
85	351.9231560230255	fix_pre	0		120	83.0	2.5	blank	1.0	401.7022650241852	0.999967098236084
85	352.9231231212616	movie	1		300	83.0	2.5	blank	1.0	402.70223212242126	2.5000269412994385
85	353.30672311782837	pulse	1	t		83.0	2.5	blank	1.0	403.08583211898804	
85	354.90664315223694	pulse	1	t		83.0	2.5	blank	1.0	404.6857521533966	
85	355.42315006256104	fix_post	2		12	83.0	2.5	blank	1.0	405.2022590637207	0.10004901885986328
87	355.5231990814209	stim	0		1716					405.30230808258057	14.299988985061646
87	356.506854057312	pulse	0	t						406.2859630584717	
87	358.10659098625183	pulse	0	t						407.8856999874115	
87	359.70658707618713	pulse	0	t						409.4856960773468	
87	361.30662298202515	pulse	0	t						411.0857319831848	
87	362.9065411090851	pulse	0	t						412.68565011024475	
87	364.5065131187439	pulse	0	t						414.28562211990356	
87	366.1065299510956	pulse	0	t						415.88563895225525	
87	367.7065510749817	pulse	0	t						417.48566007614136	
87	369.30652713775635	pulse	0	t						419.085636138916	
