trial_nr	onset	event_type	phase	response	nr_frames	movie_index	movie_duration	movie_file	blank	onset_abs	duration
0	0.16637134552001953	stim	0		1					16.092199563980103	0.008349895477294922
0	0.14674830436706543	response	0	space						16.07257652282715	
1	0.17472124099731445	stim	0		4583					16.100549459457397	38.20958733558655
1	38.36948370933533	pulse	0	t						54.29531192779541	
1	38.38430857658386	stim	1		1714					54.310136795043945	14.298201560974121
1	39.96427321434021	pulse	1	t						55.89010143280029	
1	41.56445074081421	pulse	1	t						57.49027895927429	
1	43.16463279724121	pulse	1	t						59.090461015701294	
1	44.76489591598511	pulse	1	t						60.69072413444519	
1	46.36509323120117	pulse	1	t						62.290921449661255	
1	47.96542143821716	pulse	1	t						63.891249656677246	
1	49.565593957901	pulse	1	t						65.49142217636108	
1	51.16584348678589	pulse	1	t						67.09167170524597	
2	52.68251013755798	fix_pre	0		11	0.0	2.5	/experiments/Knapen_AOT/AOT_stimuli/rescaled_final/1484_rv.mp4	0.0	68.60833835601807	0.10845446586608887
2	52.7661452293396	pulse	0	t		0.0	2.5	/experiments/Knapen_AOT/AOT_stimuli/rescaled_final/1484_rv.mp4	0.0	68.69197344779968	
2	52.79096460342407	movie	1		283	0.0	2.5	/experiments/Knapen_AOT/AOT_stimuli/rescaled_final/1484_rv.mp4	0.0	68.71679282188416	2.4919545650482178
2	54.364638566970825	pulse	1	t		0.0	2.5	/experiments/Knapen_AOT/AOT_stimuli/rescaled_final/1484_rv.mp4	0.0	70.29046678543091	
2	55.28291916847229	fix_post	2		12	0.0	2.5	/experiments/Knapen_AOT/AOT_stimuli/rescaled_final/1484_rv.mp4	0.0	71.20874738693237	0.1000204086303711
3	55.38293957710266	fix_pre	0		120	1.0	2.5	/experiments/Knapen_AOT/AOT_stimuli/rescaled_final/1074_rv.mp4	0.0	71.30876779556274	1.008577823638916
3	55.9666109085083	pulse	0	t		1.0	2.5	/experiments/Knapen_AOT/AOT_stimuli/rescaled_final/1074_rv.mp4	0.0	71.89243912696838	
3	56.39151740074158	movie	1		288	1.0	2.5	/experiments/Knapen_AOT/AOT_stimuli/rescaled_final/1074_rv.mp4	0.0	72.31734561920166	2.491945266723633
3	57.564847230911255	pulse	1	t		1.0	2.5	/experiments/Knapen_AOT/AOT_stimuli/rescaled_final/1074_rv.mp4	0.0	73.49067544937134	
3	58.88346266746521	fix_post	2		12	1.0	2.5	/experiments/Knapen_AOT/AOT_stimuli/rescaled_final/1074_rv.mp4	0.0	74.8092908859253	0.10000419616699219
4	58.9834668636322	fix_pre	0		120	2.0	2.5	/experiments/Knapen_AOT/AOT_stimuli/rescaled_final/1528_fw.mp4	0.0	74.90929508209229	1.0085182189941406
4	59.16702961921692	pulse	0	t		2.0	2.5	/experiments/Knapen_AOT/AOT_stimuli/rescaled_final/1528_fw.mp4	0.0	75.092857837677	
4	59.99198508262634	movie	1		290	2.0	2.5	/experiments/Knapen_AOT/AOT_stimuli/rescaled_final/1528_fw.mp4	0.0	75.91781330108643	2.492008924484253
4	60.76518511772156	pulse	1	t		2.0	2.5	/experiments/Knapen_AOT/AOT_stimuli/rescaled_final/1528_fw.mp4	0.0	76.69101333618164	
4	62.36530423164368	pulse	1	t		2.0	2.5	/experiments/Knapen_AOT/AOT_stimuli/rescaled_final/1528_fw.mp4	0.0	78.29113245010376	
4	62.483994007110596	fix_post	2		12	2.0	2.5	/experiments/Knapen_AOT/AOT_stimuli/rescaled_final/1528_fw.mp4	0.0	78.40982222557068	0.10015177726745605
5	62.58414578437805	fix_pre	0		120	3.0	2.5	/experiments/Knapen_AOT/AOT_stimuli/rescaled_final/1036_rv.mp4	0.0	78.50997400283813	1.0083832740783691
5	63.59252905845642	movie	1		287	3.0	2.5	/experiments/Knapen_AOT/AOT_stimuli/rescaled_final/1036_rv.mp4	0.0	79.5183572769165	2.4920337200164795
5	63.96614480018616	pulse	1	t		3.0	2.5	/experiments/Knapen_AOT/AOT_stimuli/rescaled_final/1036_rv.mp4	0.0	79.89197301864624	
5	65.56593155860901	pulse	1	t		3.0	2.5	/experiments/Knapen_AOT/AOT_stimuli/rescaled_final/1036_rv.mp4	0.0	81.49175977706909	
5	66.0845627784729	fix_post	2		12	3.0	2.5	/experiments/Knapen_AOT/AOT_stimuli/rescaled_final/1036_rv.mp4	0.0	82.01039099693298	0.09999942779541016
6	66.18456220626831	fix_pre	0		119	4.0	2.5	/experiments/Knapen_AOT/AOT_stimuli/rescaled_final/2036_fw.mp4	0.0	82.1103904247284	1.0003533363342285
6	67.1682493686676	pulse	0	t		4.0	2.5	/experiments/Knapen_AOT/AOT_stimuli/rescaled_final/2036_fw.mp4	0.0	83.09407758712769	
6	67.18491554260254	movie	1		291	4.0	2.5	/experiments/Knapen_AOT/AOT_stimuli/rescaled_final/2036_fw.mp4	0.0	83.11074376106262	2.5001657009124756
6	68.76708722114563	pulse	1	t		4.0	2.5	/experiments/Knapen_AOT/AOT_stimuli/rescaled_final/2036_fw.mp4	0.0	84.69291543960571	
6	69.68508124351501	fix_post	2		12	4.0	2.5	/experiments/Knapen_AOT/AOT_stimuli/rescaled_final/2036_fw.mp4	0.0	85.6109094619751	0.1001129150390625
7	69.78519415855408	fix_pre	0		120	5.0	2.5	/experiments/Knapen_AOT/AOT_stimuli/rescaled_final/0216_rv.mp4	0.0	85.71102237701416	1.0084052085876465
7	70.36896085739136	pulse	0	t		5.0	2.5	/experiments/Knapen_AOT/AOT_stimuli/rescaled_final/0216_rv.mp4	0.0	86.29478907585144	
7	70.79359936714172	movie	1		280	5.0	2.5	/experiments/Knapen_AOT/AOT_stimuli/rescaled_final/0216_rv.mp4	0.0	86.7194275856018	2.492187738418579
7	71.96752214431763	pulse	1	t		5.0	2.5	/experiments/Knapen_AOT/AOT_stimuli/rescaled_final/0216_rv.mp4	0.0	87.89335036277771	
7	73.2857871055603	fix_post	2		12	5.0	2.5	/experiments/Knapen_AOT/AOT_stimuli/rescaled_final/0216_rv.mp4	0.0	89.21161532402039	0.09989690780639648
8	73.3856840133667	fix_pre	0		120	6.0	2.5	blank	1.0	89.31151223182678	1.0001826286315918
8	73.56921339035034	pulse	0	t		6.0	2.5	blank	1.0	89.49504160881042	
8	74.38586664199829	movie	1		300	6.0	2.5	blank	1.0	90.31169486045837	2.500321626663208
8	75.16975522041321	pulse	1	t		6.0	2.5	blank	1.0	91.09558343887329	
8	76.76979613304138	pulse	1	t		6.0	2.5	blank	1.0	92.69562435150146	
8	76.8861882686615	fix_post	2		12	6.0	2.5	blank	1.0	92.81201648712158	0.10000371932983398
9	76.98619198799133	fix_pre	0		120	7.0	2.5	/experiments/Knapen_AOT/AOT_stimuli/rescaled_final/0197_rv.mp4	0.0	92.91202020645142	1.008500337600708
9	77.99469232559204	movie	1		291	7.0	2.5	/experiments/Knapen_AOT/AOT_stimuli/rescaled_final/0197_rv.mp4	0.0	93.92052054405212	2.4920332431793213
9	78.36904096603394	pulse	1	t		7.0	2.5	/experiments/Knapen_AOT/AOT_stimuli/rescaled_final/0197_rv.mp4	0.0	94.29486918449402	
9	79.96855926513672	pulse	1	t		7.0	2.5	/experiments/Knapen_AOT/AOT_stimuli/rescaled_final/0197_rv.mp4	0.0	95.8943874835968	
9	80.48672556877136	fix_post	2		12	7.0	2.5	/experiments/Knapen_AOT/AOT_stimuli/rescaled_final/0197_rv.mp4	0.0	96.41255378723145	0.10007333755493164
10	80.5867989063263	fix_pre	0		119	8.0	2.5	/experiments/Knapen_AOT/AOT_stimuli/rescaled_final/0916_fw.mp4	0.0	96.51262712478638	1.000075101852417
10	81.56315445899963	pulse	0	t		8.0	2.5	/experiments/Knapen_AOT/AOT_stimuli/rescaled_final/0916_fw.mp4	0.0	97.48898267745972	
10	81.58687400817871	movie	1		277	8.0	2.5	/experiments/Knapen_AOT/AOT_stimuli/rescaled_final/0916_fw.mp4	0.0	97.5127022266388	2.500365734100342
10	83.16987824440002	pulse	1	t		8.0	2.5	/experiments/Knapen_AOT/AOT_stimuli/rescaled_final/0916_fw.mp4	0.0	99.09570646286011	
10	84.08723974227905	fix_post	2		12	8.0	2.5	/experiments/Knapen_AOT/AOT_stimuli/rescaled_final/0916_fw.mp4	0.0	100.01306796073914	0.10001635551452637
11	84.18725609779358	fix_pre	0		120	9.0	2.5	/experiments/Knapen_AOT/AOT_stimuli/rescaled_final/1578_rv.mp4	0.0	100.11308431625366	1.008690357208252
11	84.76283884048462	pulse	0	t		9.0	2.5	/experiments/Knapen_AOT/AOT_stimuli/rescaled_final/1578_rv.mp4	0.0	100.6886670589447	
11	85.19594645500183	movie	1		286	9.0	2.5	/experiments/Knapen_AOT/AOT_stimuli/rescaled_final/1578_rv.mp4	0.0	101.12177467346191	2.4919161796569824
11	86.36285281181335	pulse	1	t		9.0	2.5	/experiments/Knapen_AOT/AOT_stimuli/rescaled_final/1578_rv.mp4	0.0	102.28868103027344	
11	87.68786263465881	fix_post	2		12	9.0	2.5	/experiments/Knapen_AOT/AOT_stimuli/rescaled_final/1578_rv.mp4	0.0	103.6136908531189	0.09999418258666992
12	87.78785681724548	fix_pre	0		120	10.0	2.5	/experiments/Knapen_AOT/AOT_stimuli/rescaled_final/1192_rv.mp4	0.0	103.71368503570557	1.008617639541626
12	87.96308469772339	pulse	0	t		10.0	2.5	/experiments/Knapen_AOT/AOT_stimuli/rescaled_final/1192_rv.mp4	0.0	103.88891291618347	
12	88.79647445678711	movie	1		282	10.0	2.5	/experiments/Knapen_AOT/AOT_stimuli/rescaled_final/1192_rv.mp4	0.0	104.72230267524719	2.4918746948242188
12	89.56331157684326	pulse	1	t		10.0	2.5	/experiments/Knapen_AOT/AOT_stimuli/rescaled_final/1192_rv.mp4	0.0	105.48913979530334	
12	91.16352939605713	pulse	1	t		10.0	2.5	/experiments/Knapen_AOT/AOT_stimuli/rescaled_final/1192_rv.mp4	0.0	107.08935761451721	
12	91.28834915161133	fix_post	2		12	10.0	2.5	/experiments/Knapen_AOT/AOT_stimuli/rescaled_final/1192_rv.mp4	0.0	107.21417737007141	0.1000051498413086
13	91.38835430145264	fix_pre	0		120	11.0	2.5	/experiments/Knapen_AOT/AOT_stimuli/rescaled_final/1024_fw.mp4	0.0	107.31418251991272	1.0085179805755615
13	92.3968722820282	movie	1		284	11.0	2.5	/experiments/Knapen_AOT/AOT_stimuli/rescaled_final/1024_fw.mp4	0.0	108.32270050048828	2.4920003414154053
13	92.76383686065674	pulse	1	t		11.0	2.5	/experiments/Knapen_AOT/AOT_stimuli/rescaled_final/1024_fw.mp4	0.0	108.68966507911682	
13	94.36408567428589	pulse	1	t		11.0	2.5	/experiments/Knapen_AOT/AOT_stimuli/rescaled_final/1024_fw.mp4	0.0	110.28991389274597	
13	94.8888726234436	fix_post	2		12	11.0	2.5	/experiments/Knapen_AOT/AOT_stimuli/rescaled_final/1024_fw.mp4	0.0	110.81470084190369	0.10002708435058594
14	94.98889970779419	fix_pre	0		118	12.0	2.5	blank	1.0	110.91472792625427	0.9834706783294678
14	95.96426486968994	pulse	0	t		12.0	2.5	blank	1.0	111.89009308815002	
14	95.97237038612366	movie	1		301	12.0	2.5	blank	1.0	111.89819860458374	2.5086989402770996
14	97.56452894210815	pulse	1	t		12.0	2.5	blank	1.0	113.49035716056824	
14	98.48106932640076	fix_post	2		12	12.0	2.5	blank	1.0	114.40689754486084	0.10004353523254395
15	98.5811128616333	fix_pre	0		120	13.0	2.5	/experiments/Knapen_AOT/AOT_stimuli/rescaled_final/1371_rv.mp4	0.0	114.50694108009338	1.0084865093231201
15	99.16482877731323	pulse	0	t		13.0	2.5	/experiments/Knapen_AOT/AOT_stimuli/rescaled_final/1371_rv.mp4	0.0	115.09065699577332	
15	99.58959937095642	movie	1		287	13.0	2.5	/experiments/Knapen_AOT/AOT_stimuli/rescaled_final/1371_rv.mp4	0.0	115.5154275894165	2.492027997970581
15	100.76287031173706	pulse	1	t		13.0	2.5	/experiments/Knapen_AOT/AOT_stimuli/rescaled_final/1371_rv.mp4	0.0	116.68869853019714	
15	102.081627368927	fix_post	2		12	13.0	2.5	/experiments/Knapen_AOT/AOT_stimuli/rescaled_final/1371_rv.mp4	0.0	118.00745558738708	0.1000065803527832
16	102.18163394927979	fix_pre	0		120	14.0	2.5	/experiments/Knapen_AOT/AOT_stimuli/rescaled_final/1707_fw.mp4	0.0	118.10746216773987	1.0085082054138184
16	102.36519193649292	pulse	0	t		14.0	2.5	/experiments/Knapen_AOT/AOT_stimuli/rescaled_final/1707_fw.mp4	0.0	118.291020154953	
16	103.1901421546936	movie	1		288	14.0	2.5	/experiments/Knapen_AOT/AOT_stimuli/rescaled_final/1707_fw.mp4	0.0	119.11597037315369	2.492032289505005
16	103.96351528167725	pulse	1	t		14.0	2.5	/experiments/Knapen_AOT/AOT_stimuli/rescaled_final/1707_fw.mp4	0.0	119.88934350013733	
16	105.56361222267151	pulse	1	t		14.0	2.5	/experiments/Knapen_AOT/AOT_stimuli/rescaled_final/1707_fw.mp4	0.0	121.48944044113159	
16	105.68217444419861	fix_post	2		12	14.0	2.5	/experiments/Knapen_AOT/AOT_stimuli/rescaled_final/1707_fw.mp4	0.0	121.60800266265869	0.100006103515625
17	105.78218054771423	fix_pre	0		120	15.0	2.5	/experiments/Knapen_AOT/AOT_stimuli/rescaled_final/2113_fw.mp4	0.0	121.70800876617432	1.0085246562957764
17	106.79070520401001	movie	1		262	15.0	2.5	/experiments/Knapen_AOT/AOT_stimuli/rescaled_final/2113_fw.mp4	0.0	122.71653342247009	2.4920103549957275
17	107.16445279121399	pulse	1	t		15.0	2.5	/experiments/Knapen_AOT/AOT_stimuli/rescaled_final/2113_fw.mp4	0.0	123.09028100967407	
17	108.7653067111969	pulse	1	t		15.0	2.5	/experiments/Knapen_AOT/AOT_stimuli/rescaled_final/2113_fw.mp4	0.0	124.69113492965698	
17	109.28271555900574	fix_post	2		12	15.0	2.5	/experiments/Knapen_AOT/AOT_stimuli/rescaled_final/2113_fw.mp4	0.0	125.20854377746582	0.10001349449157715
18	109.38272905349731	fix_pre	0		119	16.0	2.5	/experiments/Knapen_AOT/AOT_stimuli/rescaled_final/1664_rv.mp4	0.0	125.3085572719574	1.000140905380249
18	110.36646699905396	pulse	0	t		16.0	2.5	/experiments/Knapen_AOT/AOT_stimuli/rescaled_final/1664_rv.mp4	0.0	126.29229521751404	
18	110.38286995887756	movie	1		282	16.0	2.5	/experiments/Knapen_AOT/AOT_stimuli/rescaled_final/1664_rv.mp4	0.0	126.30869817733765	2.5005247592926025
18	111.96500873565674	pulse	1	t		16.0	2.5	/experiments/Knapen_AOT/AOT_stimuli/rescaled_final/1664_rv.mp4	0.0	127.89083695411682	
18	112.88339471817017	fix_post	2		12	16.0	2.5	/experiments/Knapen_AOT/AOT_stimuli/rescaled_final/1664_rv.mp4	0.0	128.80922293663025	0.09987425804138184
19	112.98326897621155	fix_pre	0		120	17.0	2.5	/experiments/Knapen_AOT/AOT_stimuli/rescaled_final/1990_fw.mp4	0.0	128.90909719467163	1.0085155963897705
19	113.56693434715271	pulse	0	t		17.0	2.5	/experiments/Knapen_AOT/AOT_stimuli/rescaled_final/1990_fw.mp4	0.0	129.4927625656128	
19	113.99178457260132	movie	1		279	17.0	2.5	/experiments/Knapen_AOT/AOT_stimuli/rescaled_final/1990_fw.mp4	0.0	129.9176127910614	2.4920148849487305
19	115.16538214683533	pulse	1	t		17.0	2.5	/experiments/Knapen_AOT/AOT_stimuli/rescaled_final/1990_fw.mp4	0.0	131.0912103652954	
19	116.48379945755005	fix_post	2		12	17.0	2.5	/experiments/Knapen_AOT/AOT_stimuli/rescaled_final/1990_fw.mp4	0.0	132.40962767601013	0.10002279281616211
20	116.58382225036621	fix_pre	0		120	18.0	2.5	/experiments/Knapen_AOT/AOT_stimuli/rescaled_final/1195_rv.mp4	0.0	132.5096504688263	1.0084724426269531
20	116.76741361618042	pulse	0	t		18.0	2.5	/experiments/Knapen_AOT/AOT_stimuli/rescaled_final/1195_rv.mp4	0.0	132.6932418346405	
20	117.59229469299316	movie	1		266	18.0	2.5	/experiments/Knapen_AOT/AOT_stimuli/rescaled_final/1195_rv.mp4	0.0	133.51812291145325	2.492039442062378
20	118.36540651321411	pulse	1	t		18.0	2.5	/experiments/Knapen_AOT/AOT_stimuli/rescaled_final/1195_rv.mp4	0.0	134.2912347316742	
20	119.9656388759613	pulse	1	t		18.0	2.5	/experiments/Knapen_AOT/AOT_stimuli/rescaled_final/1195_rv.mp4	0.0	135.8914670944214	
20	120.08433413505554	fix_post	2		12	18.0	2.5	/experiments/Knapen_AOT/AOT_stimuli/rescaled_final/1195_rv.mp4	0.0	136.01016235351562	0.1000204086303711
21	120.18435454368591	fix_pre	0		120	19.0	2.5	/experiments/Knapen_AOT/AOT_stimuli/rescaled_final/1577_rv.mp4	0.0	136.110182762146	1.0085065364837646
21	121.19286108016968	movie	1		279	19.0	2.5	/experiments/Knapen_AOT/AOT_stimuli/rescaled_final/1577_rv.mp4	0.0	137.11868929862976	2.492047071456909
21	121.56720304489136	pulse	1	t		19.0	2.5	/experiments/Knapen_AOT/AOT_stimuli/rescaled_final/1577_rv.mp4	0.0	137.49303126335144	
21	123.16603517532349	pulse	1	t		19.0	2.5	/experiments/Knapen_AOT/AOT_stimuli/rescaled_final/1577_rv.mp4	0.0	139.09186339378357	
21	123.68490815162659	fix_post	2		12	19.0	2.5	/experiments/Knapen_AOT/AOT_stimuli/rescaled_final/1577_rv.mp4	0.0	139.61073637008667	0.09997797012329102
22	123.78488612174988	fix_pre	0		119	20.0	2.5	blank	1.0	139.71071434020996	0.9918057918548584
22	124.76854085922241	pulse	0	t		20.0	2.5	blank	1.0	140.6943690776825	
22	124.77669191360474	movie	1		301	20.0	2.5	blank	1.0	140.70252013206482	2.508721351623535
22	126.36884784698486	pulse	1	t		20.0	2.5	blank	1.0	142.29467606544495	
22	127.28541326522827	fix_post	2		12	20.0	2.5	blank	1.0	143.21124148368835	0.10002636909484863
23	127.38543963432312	fix_pre	0		120	21.0	2.5	/experiments/Knapen_AOT/AOT_stimuli/rescaled_final/2113_rv.mp4	0.0	143.3112678527832	1.008481502532959
23	127.9691572189331	pulse	0	t		21.0	2.5	/experiments/Knapen_AOT/AOT_stimuli/rescaled_final/2113_rv.mp4	0.0	143.8949854373932	
23	128.39392113685608	movie	1		292	21.0	2.5	/experiments/Knapen_AOT/AOT_stimuli/rescaled_final/2113_rv.mp4	0.0	144.31974935531616	2.4920241832733154
23	129.567391872406	pulse	1	t		21.0	2.5	/experiments/Knapen_AOT/AOT_stimuli/rescaled_final/2113_rv.mp4	0.0	145.4932200908661	
23	130.8859453201294	fix_post	2		12	21.0	2.5	/experiments/Knapen_AOT/AOT_stimuli/rescaled_final/2113_rv.mp4	0.0	146.81177353858948	0.10002374649047852
24	130.98596906661987	fix_pre	0		120	22.0	2.5	/experiments/Knapen_AOT/AOT_stimuli/rescaled_final/2103_fw.mp4	0.0	146.91179728507996	1.008495569229126
24	131.16954159736633	pulse	0	t		22.0	2.5	/experiments/Knapen_AOT/AOT_stimuli/rescaled_final/2103_fw.mp4	0.0	147.09536981582642	
24	131.994464635849	movie	1		259	22.0	2.5	/experiments/Knapen_AOT/AOT_stimuli/rescaled_final/2103_fw.mp4	0.0	147.92029285430908	2.4920201301574707
24	132.76798248291016	pulse	1	t		22.0	2.5	/experiments/Knapen_AOT/AOT_stimuli/rescaled_final/2103_fw.mp4	0.0	148.69381070137024	
24	134.36843132972717	pulse	1	t		22.0	2.5	/experiments/Knapen_AOT/AOT_stimuli/rescaled_final/2103_fw.mp4	0.0	150.29425954818726	
24	134.48648476600647	fix_post	2		12	22.0	2.5	/experiments/Knapen_AOT/AOT_stimuli/rescaled_final/2103_fw.mp4	0.0	150.41231298446655	0.10006976127624512
25	134.58655452728271	fix_pre	0		120	23.0	2.5	/experiments/Knapen_AOT/AOT_stimuli/rescaled_final/1030_fw.mp4	0.0	150.5123827457428	1.0084466934204102
25	135.59500122070312	movie	1		286	23.0	2.5	/experiments/Knapen_AOT/AOT_stimuli/rescaled_final/1030_fw.mp4	0.0	151.5208294391632	2.4920225143432617
25	135.969398021698	pulse	1	t		23.0	2.5	/experiments/Knapen_AOT/AOT_stimuli/rescaled_final/1030_fw.mp4	0.0	151.89522624015808	
25	137.56824135780334	pulse	1	t		23.0	2.5	/experiments/Knapen_AOT/AOT_stimuli/rescaled_final/1030_fw.mp4	0.0	153.49406957626343	
25	138.0870237350464	fix_post	2		12	23.0	2.5	/experiments/Knapen_AOT/AOT_stimuli/rescaled_final/1030_fw.mp4	0.0	154.01285195350647	0.10008382797241211
26	138.1871075630188	fix_pre	0		119	24.0	2.5	/experiments/Knapen_AOT/AOT_stimuli/rescaled_final/1039_fw.mp4	0.0	154.11293578147888	1.0001544952392578
26	139.1708471775055	pulse	0	t		24.0	2.5	/experiments/Knapen_AOT/AOT_stimuli/rescaled_final/1039_fw.mp4	0.0	155.09667539596558	
26	139.18726205825806	movie	1		290	24.0	2.5	/experiments/Knapen_AOT/AOT_stimuli/rescaled_final/1039_fw.mp4	0.0	155.11309027671814	2.5003280639648438
26	140.76973676681519	pulse	1	t		24.0	2.5	/experiments/Knapen_AOT/AOT_stimuli/rescaled_final/1039_fw.mp4	0.0	156.69556498527527	
26	141.6875901222229	fix_post	2		12	24.0	2.5	/experiments/Knapen_AOT/AOT_stimuli/rescaled_final/1039_fw.mp4	0.0	157.61341834068298	0.10000324249267578
27	141.78759336471558	fix_pre	0		120	25.0	2.5	/experiments/Knapen_AOT/AOT_stimuli/rescaled_final/1712_fw.mp4	0.0	157.71342158317566	1.0084872245788574
27	142.3632800579071	pulse	0	t		25.0	2.5	/experiments/Knapen_AOT/AOT_stimuli/rescaled_final/1712_fw.mp4	0.0	158.2891082763672	
27	142.79608058929443	movie	1		286	25.0	2.5	/experiments/Knapen_AOT/AOT_stimuli/rescaled_final/1712_fw.mp4	0.0	158.72190880775452	2.492058038711548
27	143.9635772705078	pulse	1	t		25.0	2.5	/experiments/Knapen_AOT/AOT_stimuli/rescaled_final/1712_fw.mp4	0.0	159.8894054889679	
27	145.28813862800598	fix_post	2		12	25.0	2.5	/experiments/Knapen_AOT/AOT_stimuli/rescaled_final/1712_fw.mp4	0.0	161.21396684646606	0.09999227523803711
28	145.38813090324402	fix_pre	0		120	26.0	2.5	blank	1.0	161.3139591217041	1.0001511573791504
28	145.56365132331848	pulse	0	t		26.0	2.5	blank	1.0	161.48947954177856	
28	146.38828206062317	movie	1		300	26.0	2.5	blank	1.0	162.31411027908325	2.5004119873046875
28	147.1636426448822	pulse	1	t		26.0	2.5	blank	1.0	163.08947086334229	
28	148.76397824287415	pulse	1	t		26.0	2.5	blank	1.0	164.68980646133423	
28	148.88869404792786	fix_post	2		12	26.0	2.5	blank	1.0	164.81452226638794	0.09999847412109375
29	148.98869252204895	fix_pre	0		120	27.0	2.5	/experiments/Knapen_AOT/AOT_stimuli/rescaled_final/1199_rv.mp4	0.0	164.91452074050903	1.0084855556488037
29	149.99717807769775	movie	1		275	27.0	2.5	/experiments/Knapen_AOT/AOT_stimuli/rescaled_final/1199_rv.mp4	0.0	165.92300629615784	2.492039680480957
29	150.36431455612183	pulse	1	t		27.0	2.5	/experiments/Knapen_AOT/AOT_stimuli/rescaled_final/1199_rv.mp4	0.0	166.2901427745819	
29	151.96437811851501	pulse	1	t		27.0	2.5	/experiments/Knapen_AOT/AOT_stimuli/rescaled_final/1199_rv.mp4	0.0	167.8902063369751	
29	152.4892177581787	fix_post	2		12	27.0	2.5	/experiments/Knapen_AOT/AOT_stimuli/rescaled_final/1199_rv.mp4	0.0	168.4150459766388	0.10000085830688477
30	152.5892186164856	fix_pre	0		118	28.0	2.5	/experiments/Knapen_AOT/AOT_stimuli/rescaled_final/0146_fw.mp4	0.0	168.51504683494568	0.9919250011444092
30	153.56457710266113	pulse	0	t		28.0	2.5	/experiments/Knapen_AOT/AOT_stimuli/rescaled_final/0146_fw.mp4	0.0	169.49040532112122	
30	153.58114361763	movie	1		285	28.0	2.5	/experiments/Knapen_AOT/AOT_stimuli/rescaled_final/0146_fw.mp4	0.0	169.5069718360901	2.500270128250122
30	155.1635639667511	pulse	1	t		28.0	2.5	/experiments/Knapen_AOT/AOT_stimuli/rescaled_final/0146_fw.mp4	0.0	171.08939218521118	
30	156.08141374588013	fix_post	2		12	28.0	2.5	/experiments/Knapen_AOT/AOT_stimuli/rescaled_final/0146_fw.mp4	0.0	172.0072419643402	0.10003018379211426
31	156.18144392967224	fix_pre	0		120	29.0	2.5	/experiments/Knapen_AOT/AOT_stimuli/rescaled_final/1757_fw.mp4	0.0	172.10727214813232	1.0085296630859375
31	156.7650604248047	pulse	0	t		29.0	2.5	/experiments/Knapen_AOT/AOT_stimuli/rescaled_final/1757_fw.mp4	0.0	172.69088864326477	
31	157.18997359275818	movie	1		290	29.0	2.5	/experiments/Knapen_AOT/AOT_stimuli/rescaled_final/1757_fw.mp4	0.0	173.11580181121826	2.491985321044922
31	158.36335587501526	pulse	1	t		29.0	2.5	/experiments/Knapen_AOT/AOT_stimuli/rescaled_final/1757_fw.mp4	0.0	174.28918409347534	
31	159.6819589138031	fix_post	2		12	29.0	2.5	/experiments/Knapen_AOT/AOT_stimuli/rescaled_final/1757_fw.mp4	0.0	175.60778713226318	0.09999752044677734
32	159.78195643424988	fix_pre	0		120	30.0	2.5	/experiments/Knapen_AOT/AOT_stimuli/rescaled_final/1848_fw.mp4	0.0	175.70778465270996	1.0085268020629883
32	159.96555066108704	pulse	0	t		30.0	2.5	/experiments/Knapen_AOT/AOT_stimuli/rescaled_final/1848_fw.mp4	0.0	175.89137887954712	
32	160.79048323631287	movie	1		269	30.0	2.5	/experiments/Knapen_AOT/AOT_stimuli/rescaled_final/1848_fw.mp4	0.0	176.71631145477295	2.492095708847046
32	161.56365585327148	pulse	1	t		30.0	2.5	/experiments/Knapen_AOT/AOT_stimuli/rescaled_final/1848_fw.mp4	0.0	177.48948407173157	
32	163.1637842655182	pulse	1	t		30.0	2.5	/experiments/Knapen_AOT/AOT_stimuli/rescaled_final/1848_fw.mp4	0.0	179.08961248397827	
32	163.2825789451599	fix_post	2		12	30.0	2.5	/experiments/Knapen_AOT/AOT_stimuli/rescaled_final/1848_fw.mp4	0.0	179.20840716362	0.09999275207519531
33	163.3825716972351	fix_pre	0		120	31.0	2.5	/experiments/Knapen_AOT/AOT_stimuli/rescaled_final/0577_fw.mp4	0.0	179.3083999156952	1.0084402561187744
33	164.39101195335388	movie	1		275	31.0	2.5	/experiments/Knapen_AOT/AOT_stimuli/rescaled_final/0577_fw.mp4	0.0	180.31684017181396	2.492018938064575
33	164.76476335525513	pulse	1	t		31.0	2.5	/experiments/Knapen_AOT/AOT_stimuli/rescaled_final/0577_fw.mp4	0.0	180.6905915737152	
33	166.36539673805237	pulse	1	t		31.0	2.5	/experiments/Knapen_AOT/AOT_stimuli/rescaled_final/0577_fw.mp4	0.0	182.29122495651245	
33	166.88303089141846	fix_post	2		12	31.0	2.5	/experiments/Knapen_AOT/AOT_stimuli/rescaled_final/0577_fw.mp4	0.0	182.80885910987854	0.10001301765441895
34	166.98304390907288	fix_pre	0		119	32.0	2.5	/experiments/Knapen_AOT/AOT_stimuli/rescaled_final/1772_fw.mp4	0.0	182.90887212753296	1.000152587890625
34	167.9667477607727	pulse	0	t		32.0	2.5	/experiments/Knapen_AOT/AOT_stimuli/rescaled_final/1772_fw.mp4	0.0	183.8925759792328	
34	167.9831964969635	movie	1		273	32.0	2.5	/experiments/Knapen_AOT/AOT_stimuli/rescaled_final/1772_fw.mp4	0.0	183.90902471542358	2.500394105911255
34	169.56570506095886	pulse	1	t		32.0	2.5	/experiments/Knapen_AOT/AOT_stimuli/rescaled_final/1772_fw.mp4	0.0	185.49153327941895	
34	170.48359060287476	fix_post	2		12	32.0	2.5	/experiments/Knapen_AOT/AOT_stimuli/rescaled_final/1772_fw.mp4	0.0	186.40941882133484	0.09999823570251465
35	170.58358883857727	fix_pre	0		120	33.0	2.5	/experiments/Knapen_AOT/AOT_stimuli/rescaled_final/1260_rv.mp4	0.0	186.50941705703735	1.0085580348968506
35	171.16728353500366	pulse	0	t		33.0	2.5	/experiments/Knapen_AOT/AOT_stimuli/rescaled_final/1260_rv.mp4	0.0	187.09311175346375	
35	171.59214687347412	movie	1		274	33.0	2.5	/experiments/Knapen_AOT/AOT_stimuli/rescaled_final/1260_rv.mp4	0.0	187.5179750919342	2.500298023223877
35	172.76783895492554	pulse	1	t		33.0	2.5	/experiments/Knapen_AOT/AOT_stimuli/rescaled_final/1260_rv.mp4	0.0	188.69366717338562	
35	174.092444896698	fix_post	2		11	33.0	2.5	/experiments/Knapen_AOT/AOT_stimuli/rescaled_final/1260_rv.mp4	0.0	190.01827311515808	0.09167003631591797
36	174.18411493301392	fix_pre	0		120	34.0	2.5	/experiments/Knapen_AOT/AOT_stimuli/rescaled_final/1589_fw.mp4	0.0	190.109943151474	1.0085387229919434
36	174.3677418231964	pulse	0	t		34.0	2.5	/experiments/Knapen_AOT/AOT_stimuli/rescaled_final/1589_fw.mp4	0.0	190.2935700416565	
36	175.19265365600586	movie	1		277	34.0	2.5	/experiments/Knapen_AOT/AOT_stimuli/rescaled_final/1589_fw.mp4	0.0	191.11848187446594	2.492006301879883
36	175.96620965003967	pulse	1	t		34.0	2.5	/experiments/Knapen_AOT/AOT_stimuli/rescaled_final/1589_fw.mp4	0.0	191.89203786849976	
36	177.56607341766357	pulse	1	t		34.0	2.5	/experiments/Knapen_AOT/AOT_stimuli/rescaled_final/1589_fw.mp4	0.0	193.49190163612366	
36	177.68465995788574	fix_post	2		12	34.0	2.5	/experiments/Knapen_AOT/AOT_stimuli/rescaled_final/1589_fw.mp4	0.0	193.61048817634583	0.10006880760192871
37	177.78472876548767	fix_pre	0		120	35.0	2.5	blank	1.0	193.71055698394775	1.0001280307769775
37	178.78485679626465	movie	1		300	35.0	2.5	blank	1.0	194.71068501472473	2.5003631114959717
37	179.16841506958008	pulse	1	t		35.0	2.5	blank	1.0	195.09424328804016	
37	180.76862931251526	pulse	1	t		35.0	2.5	blank	1.0	196.69445753097534	
37	181.28521990776062	fix_post	2		12	35.0	2.5	blank	1.0	197.2110481262207	0.09998297691345215
38	181.38520288467407	fix_pre	0		119	36.0	2.5	/experiments/Knapen_AOT/AOT_stimuli/rescaled_final/0834_fw.mp4	0.0	197.31103110313416	1.0002021789550781
38	182.36891531944275	pulse	0	t		36.0	2.5	/experiments/Knapen_AOT/AOT_stimuli/rescaled_final/0834_fw.mp4	0.0	198.29474353790283	
38	182.38540506362915	movie	1		289	36.0	2.5	/experiments/Knapen_AOT/AOT_stimuli/rescaled_final/0834_fw.mp4	0.0	198.31123328208923	2.5003573894500732
38	183.96764039993286	pulse	1	t		36.0	2.5	/experiments/Knapen_AOT/AOT_stimuli/rescaled_final/0834_fw.mp4	0.0	199.89346861839294	
38	184.88576245307922	fix_post	2		12	36.0	2.5	/experiments/Knapen_AOT/AOT_stimuli/rescaled_final/0834_fw.mp4	0.0	200.8115906715393	0.1000070571899414
39	184.98576951026917	fix_pre	0		120	37.0	2.5	/experiments/Knapen_AOT/AOT_stimuli/rescaled_final/1458_fw.mp4	0.0	200.91159772872925	1.008467674255371
39	185.56940078735352	pulse	0	t		37.0	2.5	/experiments/Knapen_AOT/AOT_stimuli/rescaled_final/1458_fw.mp4	0.0	201.4952290058136	
39	185.99423718452454	movie	1		282	37.0	2.5	/experiments/Knapen_AOT/AOT_stimuli/rescaled_final/1458_fw.mp4	0.0	201.92006540298462	2.492030143737793
39	187.1680519580841	pulse	1	t		37.0	2.5	/experiments/Knapen_AOT/AOT_stimuli/rescaled_final/1458_fw.mp4	0.0	203.0938801765442	
39	188.48626732826233	fix_post	2		12	37.0	2.5	/experiments/Knapen_AOT/AOT_stimuli/rescaled_final/1458_fw.mp4	0.0	204.4120955467224	0.10003662109375
40	188.58630394935608	fix_pre	0		120	38.0	2.5	/experiments/Knapen_AOT/AOT_stimuli/rescaled_final/1923_fw.mp4	0.0	204.51213216781616	1.0085463523864746
40	188.76988220214844	pulse	0	t		38.0	2.5	/experiments/Knapen_AOT/AOT_stimuli/rescaled_final/1923_fw.mp4	0.0	204.69571042060852	
40	189.59485030174255	movie	1		287	38.0	2.5	/experiments/Knapen_AOT/AOT_stimuli/rescaled_final/1923_fw.mp4	0.0	205.52067852020264	2.4920108318328857
40	190.36846613883972	pulse	1	t		38.0	2.5	/experiments/Knapen_AOT/AOT_stimuli/rescaled_final/1923_fw.mp4	0.0	206.2942943572998	
40	191.9682912826538	pulse	1	t		38.0	2.5	/experiments/Knapen_AOT/AOT_stimuli/rescaled_final/1923_fw.mp4	0.0	207.8941195011139	
40	192.08686113357544	fix_post	2		12	38.0	2.5	/experiments/Knapen_AOT/AOT_stimuli/rescaled_final/1923_fw.mp4	0.0	208.01268935203552	0.10001993179321289
41	192.18688106536865	fix_pre	0		120	39.0	2.5	/experiments/Knapen_AOT/AOT_stimuli/rescaled_final/1775_fw.mp4	0.0	208.11270928382874	1.0084724426269531
41	193.1953535079956	movie	1		274	39.0	2.5	/experiments/Knapen_AOT/AOT_stimuli/rescaled_final/1775_fw.mp4	0.0	209.1211817264557	2.4920260906219482
41	193.5691602230072	pulse	1	t		39.0	2.5	/experiments/Knapen_AOT/AOT_stimuli/rescaled_final/1775_fw.mp4	0.0	209.49498844146729	
41	195.17097210884094	pulse	1	t		39.0	2.5	/experiments/Knapen_AOT/AOT_stimuli/rescaled_final/1775_fw.mp4	0.0	211.09680032730103	
41	195.68737959861755	fix_post	2		12	39.0	2.5	/experiments/Knapen_AOT/AOT_stimuli/rescaled_final/1775_fw.mp4	0.0	211.61320781707764	0.1000051498413086
42	195.78738474845886	fix_pre	0		119	40.0	2.5	/experiments/Knapen_AOT/AOT_stimuli/rescaled_final/0060_rv.mp4	0.0	211.71321296691895	1.0086469650268555
42	196.764084815979	pulse	0	t		40.0	2.5	/experiments/Knapen_AOT/AOT_stimuli/rescaled_final/0060_rv.mp4	0.0	212.6899130344391	
42	196.79603171348572	movie	1		277	40.0	2.5	/experiments/Knapen_AOT/AOT_stimuli/rescaled_final/0060_rv.mp4	0.0	212.7218599319458	2.4918887615203857
42	198.37062239646912	pulse	1	t		40.0	2.5	/experiments/Knapen_AOT/AOT_stimuli/rescaled_final/0060_rv.mp4	0.0	214.2964506149292	
42	199.2879204750061	fix_post	2		12	40.0	2.5	/experiments/Knapen_AOT/AOT_stimuli/rescaled_final/0060_rv.mp4	0.0	215.2137486934662	0.1000056266784668
43	199.38792610168457	fix_pre	0		120	41.0	2.5	blank	1.0	215.31375432014465	1.000192642211914
43	199.96458864212036	pulse	0	t		41.0	2.5	blank	1.0	215.89041686058044	
43	200.38811874389648	movie	1		300	41.0	2.5	blank	1.0	216.31394696235657	2.500316858291626
43	201.5638906955719	pulse	1	t		41.0	2.5	blank	1.0	217.48971891403198	
43	202.8884356021881	fix_post	2		12	41.0	2.5	blank	1.0	218.8142638206482	0.10000395774841309
44	202.98843955993652	fix_pre	0		120	42.0	2.5	/experiments/Knapen_AOT/AOT_stimuli/rescaled_final/0052_fw.mp4	0.0	218.9142677783966	1.0085134506225586
44	203.16373300552368	pulse	0	t		42.0	2.5	/experiments/Knapen_AOT/AOT_stimuli/rescaled_final/0052_fw.mp4	0.0	219.08956122398376	
44	203.99695301055908	movie	1		285	42.0	2.5	/experiments/Knapen_AOT/AOT_stimuli/rescaled_final/0052_fw.mp4	0.0	219.92278122901917	2.4920449256896973
44	204.7639856338501	pulse	1	t		42.0	2.5	/experiments/Knapen_AOT/AOT_stimuli/rescaled_final/0052_fw.mp4	0.0	220.68981385231018	
44	206.36626267433167	pulse	1	t		42.0	2.5	/experiments/Knapen_AOT/AOT_stimuli/rescaled_final/0052_fw.mp4	0.0	222.29209089279175	
44	206.48899793624878	fix_post	2		12	42.0	2.5	/experiments/Knapen_AOT/AOT_stimuli/rescaled_final/0052_fw.mp4	0.0	222.41482615470886	0.10004019737243652
45	206.58903813362122	fix_pre	0		120	43.0	2.5	/experiments/Knapen_AOT/AOT_stimuli/rescaled_final/1259_rv.mp4	0.0	222.5148663520813	1.008538007736206
45	207.59757614135742	movie	1		276	43.0	2.5	/experiments/Knapen_AOT/AOT_stimuli/rescaled_final/1259_rv.mp4	0.0	223.5234043598175	2.491948366165161
45	207.96447134017944	pulse	1	t		43.0	2.5	/experiments/Knapen_AOT/AOT_stimuli/rescaled_final/1259_rv.mp4	0.0	223.89029955863953	
45	209.56466007232666	pulse	1	t		43.0	2.5	/experiments/Knapen_AOT/AOT_stimuli/rescaled_final/1259_rv.mp4	0.0	225.49048829078674	
45	210.08952450752258	fix_post	2		12	43.0	2.5	/experiments/Knapen_AOT/AOT_stimuli/rescaled_final/1259_rv.mp4	0.0	226.01535272598267	0.1000211238861084
46	210.1895456314087	fix_pre	0		118	44.0	2.5	/experiments/Knapen_AOT/AOT_stimuli/rescaled_final/0560_rv.mp4	0.0	226.11537384986877	0.9918389320373535
46	211.16508793830872	pulse	0	t		44.0	2.5	/experiments/Knapen_AOT/AOT_stimuli/rescaled_final/0560_rv.mp4	0.0	227.0909161567688	
46	211.18138456344604	movie	1		276	44.0	2.5	/experiments/Knapen_AOT/AOT_stimuli/rescaled_final/0560_rv.mp4	0.0	227.10721278190613	2.5003793239593506
46	212.7649269104004	pulse	1	t		44.0	2.5	/experiments/Knapen_AOT/AOT_stimuli/rescaled_final/0560_rv.mp4	0.0	228.69075512886047	
46	213.6817638874054	fix_post	2		12	44.0	2.5	/experiments/Knapen_AOT/AOT_stimuli/rescaled_final/0560_rv.mp4	0.0	229.60759210586548	0.09999847412109375
47	213.7817623615265	fix_pre	0		120	45.0	2.5	/experiments/Knapen_AOT/AOT_stimuli/rescaled_final/0025_fw.mp4	0.0	229.70759057998657	1.0085926055908203
47	214.36579489707947	pulse	0	t		45.0	2.5	/experiments/Knapen_AOT/AOT_stimuli/rescaled_final/0025_fw.mp4	0.0	230.29162311553955	
47	214.7903549671173	movie	1		283	45.0	2.5	/experiments/Knapen_AOT/AOT_stimuli/rescaled_final/0025_fw.mp4	0.0	230.7161831855774	2.492009401321411
47	215.96567797660828	pulse	1	t		45.0	2.5	/experiments/Knapen_AOT/AOT_stimuli/rescaled_final/0025_fw.mp4	0.0	231.89150619506836	
47	217.28236436843872	fix_post	2		12	45.0	2.5	/experiments/Knapen_AOT/AOT_stimuli/rescaled_final/0025_fw.mp4	0.0	233.2081925868988	0.09996581077575684
48	217.38233017921448	fix_pre	0		120	46.0	2.5	/experiments/Knapen_AOT/AOT_stimuli/rescaled_final/1014_fw.mp4	0.0	233.30815839767456	1.008476972579956
48	217.56589007377625	pulse	0	t		46.0	2.5	/experiments/Knapen_AOT/AOT_stimuli/rescaled_final/1014_fw.mp4	0.0	233.49171829223633	
48	218.39080715179443	movie	1		260	46.0	2.5	/experiments/Knapen_AOT/AOT_stimuli/rescaled_final/1014_fw.mp4	0.0	234.31663537025452	2.492004156112671
48	219.1638355255127	pulse	1	t		46.0	2.5	/experiments/Knapen_AOT/AOT_stimuli/rescaled_final/1014_fw.mp4	0.0	235.08966374397278	
48	220.76483988761902	pulse	1	t		46.0	2.5	/experiments/Knapen_AOT/AOT_stimuli/rescaled_final/1014_fw.mp4	0.0	236.6906681060791	
48	220.8828113079071	fix_post	2		12	46.0	2.5	/experiments/Knapen_AOT/AOT_stimuli/rescaled_final/1014_fw.mp4	0.0	236.8086395263672	0.10001993179321289
49	220.98283123970032	fix_pre	0		120	47.0	2.5	/experiments/Knapen_AOT/AOT_stimuli/rescaled_final/0775_rv.mp4	0.0	236.9086594581604	1.0085036754608154
49	221.99133491516113	movie	1		280	47.0	2.5	/experiments/Knapen_AOT/AOT_stimuli/rescaled_final/0775_rv.mp4	0.0	237.91716313362122	2.4923465251922607
49	222.36523509025574	pulse	1	t		47.0	2.5	/experiments/Knapen_AOT/AOT_stimuli/rescaled_final/0775_rv.mp4	0.0	238.29106330871582	
49	223.96614336967468	pulse	1	t		47.0	2.5	/experiments/Knapen_AOT/AOT_stimuli/rescaled_final/0775_rv.mp4	0.0	239.89197158813477	
49	224.4836814403534	fix_post	2		12	47.0	2.5	/experiments/Knapen_AOT/AOT_stimuli/rescaled_final/0775_rv.mp4	0.0	240.40950965881348	0.09973955154418945
50	224.58342099189758	fix_pre	0		119	48.0	2.5	/experiments/Knapen_AOT/AOT_stimuli/rescaled_final/0767_rv.mp4	0.0	240.50924921035767	1.0002055168151855
50	225.56729888916016	pulse	0	t		48.0	2.5	/experiments/Knapen_AOT/AOT_stimuli/rescaled_final/0767_rv.mp4	0.0	241.49312710762024	
50	225.58362650871277	movie	1		276	48.0	2.5	/experiments/Knapen_AOT/AOT_stimuli/rescaled_final/0767_rv.mp4	0.0	241.50945472717285	2.500270128250122
50	227.167151927948	pulse	1	t		48.0	2.5	/experiments/Knapen_AOT/AOT_stimuli/rescaled_final/0767_rv.mp4	0.0	243.09298014640808	
50	228.0838966369629	fix_post	2		12	48.0	2.5	/experiments/Knapen_AOT/AOT_stimuli/rescaled_final/0767_rv.mp4	0.0	244.00972485542297	0.10001564025878906
51	228.18391227722168	fix_pre	0		120	49.0	2.5	blank	1.0	244.10974049568176	1.0001392364501953
51	228.76756691932678	pulse	0	t		49.0	2.5	blank	1.0	244.69339513778687	
51	229.18405151367188	movie	1		300	49.0	2.5	blank	1.0	245.10987973213196	2.5005435943603516
51	230.3679187297821	pulse	1	t		49.0	2.5	blank	1.0	246.2937469482422	
51	231.68459510803223	fix_post	2		12	49.0	2.5	blank	1.0	247.6104233264923	0.09989070892333984
52	231.78448581695557	fix_pre	0		120	50.0	2.5	/experiments/Knapen_AOT/AOT_stimuli/rescaled_final/0028_rv.mp4	0.0	247.71031403541565	1.0084877014160156
52	231.96804881095886	pulse	0	t		50.0	2.5	/experiments/Knapen_AOT/AOT_stimuli/rescaled_final/0028_rv.mp4	0.0	247.89387702941895	
52	232.79297351837158	movie	1		288	50.0	2.5	/experiments/Knapen_AOT/AOT_stimuli/rescaled_final/0028_rv.mp4	0.0	248.71880173683167	2.492027997970581
52	233.5662136077881	pulse	1	t		50.0	2.5	/experiments/Knapen_AOT/AOT_stimuli/rescaled_final/0028_rv.mp4	0.0	249.49204182624817	
52	235.16630458831787	pulse	1	t		50.0	2.5	/experiments/Knapen_AOT/AOT_stimuli/rescaled_final/0028_rv.mp4	0.0	251.09213280677795	
52	235.28500151634216	fix_post	2		12	50.0	2.5	/experiments/Knapen_AOT/AOT_stimuli/rescaled_final/0028_rv.mp4	0.0	251.21082973480225	0.1000206470489502
53	235.3850221633911	fix_pre	0		120	51.0	2.5	/experiments/Knapen_AOT/AOT_stimuli/rescaled_final/0393_rv.mp4	0.0	251.3108503818512	1.0085015296936035
53	236.39352369308472	movie	1		280	51.0	2.5	/experiments/Knapen_AOT/AOT_stimuli/rescaled_final/0393_rv.mp4	0.0	252.3193519115448	2.4920766353607178
53	236.76699042320251	pulse	1	t		51.0	2.5	/experiments/Knapen_AOT/AOT_stimuli/rescaled_final/0393_rv.mp4	0.0	252.6928186416626	
53	238.3673255443573	pulse	1	t		51.0	2.5	/experiments/Knapen_AOT/AOT_stimuli/rescaled_final/0393_rv.mp4	0.0	254.29315376281738	
53	238.88560032844543	fix_post	2		12	51.0	2.5	/experiments/Knapen_AOT/AOT_stimuli/rescaled_final/0393_rv.mp4	0.0	254.81142854690552	0.0999746322631836
54	238.98557496070862	fix_pre	0		119	52.0	2.5	/experiments/Knapen_AOT/AOT_stimuli/rescaled_final/0932_fw.mp4	0.0	254.9114031791687	1.0001683235168457
54	239.96293234825134	pulse	0	t		52.0	2.5	/experiments/Knapen_AOT/AOT_stimuli/rescaled_final/0932_fw.mp4	0.0	255.88876056671143	
54	239.98574328422546	movie	1		284	52.0	2.5	/experiments/Knapen_AOT/AOT_stimuli/rescaled_final/0932_fw.mp4	0.0	255.91157150268555	2.5003252029418945
54	241.56845211982727	pulse	1	t		52.0	2.5	/experiments/Knapen_AOT/AOT_stimuli/rescaled_final/0932_fw.mp4	0.0	257.49428033828735	
54	242.48606848716736	fix_post	2		12	52.0	2.5	/experiments/Knapen_AOT/AOT_stimuli/rescaled_final/0932_fw.mp4	0.0	258.41189670562744	0.10002946853637695
55	242.58609795570374	fix_pre	0		120	53.0	2.5	/experiments/Knapen_AOT/AOT_stimuli/rescaled_final/1812_rv.mp4	0.0	258.5119261741638	1.0085535049438477
55	243.16982173919678	pulse	0	t		53.0	2.5	/experiments/Knapen_AOT/AOT_stimuli/rescaled_final/1812_rv.mp4	0.0	259.09564995765686	
55	243.59465146064758	movie	1		274	53.0	2.5	/experiments/Knapen_AOT/AOT_stimuli/rescaled_final/1812_rv.mp4	0.0	259.52047967910767	2.49202823638916
55	244.76893520355225	pulse	1	t		53.0	2.5	/experiments/Knapen_AOT/AOT_stimuli/rescaled_final/1812_rv.mp4	0.0	260.69476342201233	
55	246.08667969703674	fix_post	2		12	53.0	2.5	/experiments/Knapen_AOT/AOT_stimuli/rescaled_final/1812_rv.mp4	0.0	262.0125079154968	0.09999275207519531
56	246.18667244911194	fix_pre	0		120	54.0	2.5	/experiments/Knapen_AOT/AOT_stimuli/rescaled_final/2033_fw.mp4	0.0	262.112500667572	1.0085012912750244
56	246.3702039718628	pulse	0	t		54.0	2.5	/experiments/Knapen_AOT/AOT_stimuli/rescaled_final/2033_fw.mp4	0.0	262.2960321903229	
56	247.19517374038696	movie	1		282	54.0	2.5	/experiments/Knapen_AOT/AOT_stimuli/rescaled_final/2033_fw.mp4	0.0	263.12100195884705	2.492035388946533
56	247.9684386253357	pulse	1	t		54.0	2.5	/experiments/Knapen_AOT/AOT_stimuli/rescaled_final/2033_fw.mp4	0.0	263.8942668437958	
56	249.56870913505554	pulse	1	t		54.0	2.5	/experiments/Knapen_AOT/AOT_stimuli/rescaled_final/2033_fw.mp4	0.0	265.4945373535156	
56	249.6872091293335	fix_post	2		12	54.0	2.5	/experiments/Knapen_AOT/AOT_stimuli/rescaled_final/2033_fw.mp4	0.0	265.6130373477936	0.09995770454406738
57	249.78716683387756	fix_pre	0		120	55.0	2.5	blank	1.0	265.71299505233765	1.0001401901245117
57	250.78730702400208	movie	1		300	55.0	2.5	blank	1.0	266.71313524246216	2.500457286834717
57	251.16315269470215	pulse	1	t		55.0	2.5	blank	1.0	267.08898091316223	
57	252.76330423355103	pulse	1	t		55.0	2.5	blank	1.0	268.6891324520111	
57	253.2877643108368	fix_post	2		12	55.0	2.5	blank	1.0	269.2135925292969	0.1000056266784668
58	253.38776993751526	fix_pre	0		118	56.0	2.5	/experiments/Knapen_AOT/AOT_stimuli/rescaled_final/2042_fw.mp4	0.0	269.31359815597534	0.991753339767456
58	254.36322808265686	pulse	0	t		56.0	2.5	/experiments/Knapen_AOT/AOT_stimuli/rescaled_final/2042_fw.mp4	0.0	270.28905630111694	
58	254.37952327728271	movie	1		279	56.0	2.5	/experiments/Knapen_AOT/AOT_stimuli/rescaled_final/2042_fw.mp4	0.0	270.3053514957428	2.500396728515625
58	255.96334409713745	pulse	1	t		56.0	2.5	/experiments/Knapen_AOT/AOT_stimuli/rescaled_final/2042_fw.mp4	0.0	271.88917231559753	
58	256.87992000579834	fix_post	2		12	56.0	2.5	/experiments/Knapen_AOT/AOT_stimuli/rescaled_final/2042_fw.mp4	0.0	272.8057482242584	0.09999537467956543
59	256.9799153804779	fix_pre	0		120	57.0	2.5	/experiments/Knapen_AOT/AOT_stimuli/rescaled_final/0577_fw.mp4	0.0	272.905743598938	1.008509635925293
59	257.5636320114136	pulse	0	t		57.0	2.5	/experiments/Knapen_AOT/AOT_stimuli/rescaled_final/0577_fw.mp4	0.0	273.48946022987366	
59	257.9884250164032	movie	1		269	57.0	2.5	/experiments/Knapen_AOT/AOT_stimuli/rescaled_final/0577_fw.mp4	0.0	273.9142532348633	2.4920153617858887
59	259.1639311313629	pulse	1	t		57.0	2.5	/experiments/Knapen_AOT/AOT_stimuli/rescaled_final/0577_fw.mp4	0.0	275.089759349823	
59	260.4804403781891	fix_post	2		12	57.0	2.5	/experiments/Knapen_AOT/AOT_stimuli/rescaled_final/0577_fw.mp4	0.0	276.40626859664917	0.1000063419342041
60	260.5804467201233	fix_pre	0		120	58.0	2.5	/experiments/Knapen_AOT/AOT_stimuli/rescaled_final/1658_rv.mp4	0.0	276.5062749385834	1.0084774494171143
60	260.76404643058777	pulse	0	t		58.0	2.5	/experiments/Knapen_AOT/AOT_stimuli/rescaled_final/1658_rv.mp4	0.0	276.68987464904785	
60	261.5889241695404	movie	1		275	58.0	2.5	/experiments/Knapen_AOT/AOT_stimuli/rescaled_final/1658_rv.mp4	0.0	277.5147523880005	2.4920530319213867
60	262.3644027709961	pulse	1	t		58.0	2.5	/experiments/Knapen_AOT/AOT_stimuli/rescaled_final/1658_rv.mp4	0.0	278.2902309894562	
60	263.9638047218323	pulse	1	t		58.0	2.5	/experiments/Knapen_AOT/AOT_stimuli/rescaled_final/1658_rv.mp4	0.0	279.88963294029236	
60	264.0809772014618	fix_post	2		12	58.0	2.5	/experiments/Knapen_AOT/AOT_stimuli/rescaled_final/1658_rv.mp4	0.0	280.0068054199219	0.1000213623046875
61	264.1809985637665	fix_pre	0		120	59.0	2.5	/experiments/Knapen_AOT/AOT_stimuli/rescaled_final/1428_fw.mp4	0.0	280.10682678222656	1.0084941387176514
61	265.18949270248413	movie	1		278	59.0	2.5	/experiments/Knapen_AOT/AOT_stimuli/rescaled_final/1428_fw.mp4	0.0	281.1153209209442	2.492034912109375
61	265.56483721733093	pulse	1	t		59.0	2.5	/experiments/Knapen_AOT/AOT_stimuli/rescaled_final/1428_fw.mp4	0.0	281.490665435791	
61	267.16532945632935	pulse	1	t		59.0	2.5	/experiments/Knapen_AOT/AOT_stimuli/rescaled_final/1428_fw.mp4	0.0	283.09115767478943	
61	267.6815276145935	fix_post	2		12	59.0	2.5	/experiments/Knapen_AOT/AOT_stimuli/rescaled_final/1428_fw.mp4	0.0	283.6073558330536	0.10001111030578613
62	267.7815387248993	fix_pre	0		119	60.0	2.5	/experiments/Knapen_AOT/AOT_stimuli/rescaled_final/0767_fw.mp4	0.0	283.7073669433594	1.0086023807525635
62	268.7652349472046	pulse	0	t		60.0	2.5	/experiments/Knapen_AOT/AOT_stimuli/rescaled_final/0767_fw.mp4	0.0	284.6910631656647	
62	268.79014110565186	movie	1		266	60.0	2.5	/experiments/Knapen_AOT/AOT_stimuli/rescaled_final/0767_fw.mp4	0.0	284.71596932411194	2.4919331073760986
62	270.3660418987274	pulse	1	t		60.0	2.5	/experiments/Knapen_AOT/AOT_stimuli/rescaled_final/0767_fw.mp4	0.0	286.2918701171875	
62	271.28207421302795	fix_post	2		12	60.0	2.5	/experiments/Knapen_AOT/AOT_stimuli/rescaled_final/0767_fw.mp4	0.0	287.20790243148804	0.10000491142272949
63	271.3820791244507	fix_pre	0		120	61.0	2.5	/experiments/Knapen_AOT/AOT_stimuli/rescaled_final/0307_fw.mp4	0.0	287.30790734291077	1.0085303783416748
63	271.9658203125	pulse	0	t		61.0	2.5	/experiments/Knapen_AOT/AOT_stimuli/rescaled_final/0307_fw.mp4	0.0	287.8916485309601	
63	272.39060950279236	movie	1		280	61.0	2.5	/experiments/Knapen_AOT/AOT_stimuli/rescaled_final/0307_fw.mp4	0.0	288.31643772125244	2.492048501968384
63	273.5643482208252	pulse	1	t		61.0	2.5	/experiments/Knapen_AOT/AOT_stimuli/rescaled_final/0307_fw.mp4	0.0	289.4901764392853	
63	274.88265800476074	fix_post	2		12	61.0	2.5	/experiments/Knapen_AOT/AOT_stimuli/rescaled_final/0307_fw.mp4	0.0	290.8084862232208	0.0999755859375
64	274.98263359069824	fix_pre	0		120	62.0	2.5	/experiments/Knapen_AOT/AOT_stimuli/rescaled_final/0173_rv.mp4	0.0	290.9084618091583	1.0084657669067383
64	275.1662049293518	pulse	0	t		62.0	2.5	/experiments/Knapen_AOT/AOT_stimuli/rescaled_final/0173_rv.mp4	0.0	291.0920331478119	
64	275.991099357605	movie	1		288	62.0	2.5	/experiments/Knapen_AOT/AOT_stimuli/rescaled_final/0173_rv.mp4	0.0	291.91692757606506	2.4920334815979004
64	276.7643940448761	pulse	1	t		62.0	2.5	/experiments/Knapen_AOT/AOT_stimuli/rescaled_final/0173_rv.mp4	0.0	292.6902222633362	
64	278.36480236053467	pulse	1	t		62.0	2.5	/experiments/Knapen_AOT/AOT_stimuli/rescaled_final/0173_rv.mp4	0.0	294.29063057899475	
64	278.4831328392029	fix_post	2		12	62.0	2.5	/experiments/Knapen_AOT/AOT_stimuli/rescaled_final/0173_rv.mp4	0.0	294.40896105766296	0.10001683235168457
65	278.58314967155457	fix_pre	0		120	63.0	2.5	blank	1.0	294.50897789001465	1.0001657009124756
65	279.58331537246704	movie	1		300	63.0	2.5	blank	1.0	295.5091435909271	2.5003747940063477
65	279.96726393699646	pulse	1	t		63.0	2.5	blank	1.0	295.89309215545654	
65	281.5674364566803	pulse	1	t		63.0	2.5	blank	1.0	297.4932646751404	
65	282.0836901664734	fix_post	2		12	63.0	2.5	blank	1.0	298.0095183849335	0.10007190704345703
66	282.18376207351685	fix_pre	0		119	64.0	2.5	/experiments/Knapen_AOT/AOT_stimuli/rescaled_final/0857_fw.mp4	0.0	298.10959029197693	1.0000567436218262
66	283.16765451431274	pulse	0	t		64.0	2.5	/experiments/Knapen_AOT/AOT_stimuli/rescaled_final/0857_fw.mp4	0.0	299.0934827327728	
66	283.1838188171387	movie	1		273	64.0	2.5	/experiments/Knapen_AOT/AOT_stimuli/rescaled_final/0857_fw.mp4	0.0	299.10964703559875	2.5004281997680664
66	284.7667438983917	pulse	1	t		64.0	2.5	/experiments/Knapen_AOT/AOT_stimuli/rescaled_final/0857_fw.mp4	0.0	300.6925721168518	
66	285.68424701690674	fix_post	2		12	64.0	2.5	/experiments/Knapen_AOT/AOT_stimuli/rescaled_final/0857_fw.mp4	0.0	301.6100752353668	0.09999680519104004
67	285.7842438220978	fix_pre	0		120	65.0	2.5	/experiments/Knapen_AOT/AOT_stimuli/rescaled_final/0386_rv.mp4	0.0	301.71007204055786	1.0084881782531738
67	286.3679494857788	pulse	0	t		65.0	2.5	/experiments/Knapen_AOT/AOT_stimuli/rescaled_final/0386_rv.mp4	0.0	302.2937777042389	
67	286.79273200035095	movie	1		291	65.0	2.5	/experiments/Knapen_AOT/AOT_stimuli/rescaled_final/0386_rv.mp4	0.0	302.71856021881104	2.4921295642852783
67	287.9669063091278	pulse	1	t		65.0	2.5	/experiments/Knapen_AOT/AOT_stimuli/rescaled_final/0386_rv.mp4	0.0	303.8927345275879	
67	289.28486156463623	fix_post	2		12	65.0	2.5	/experiments/Knapen_AOT/AOT_stimuli/rescaled_final/0386_rv.mp4	0.0	305.2106897830963	0.09993457794189453
68	289.3847961425781	fix_pre	0		120	66.0	2.5	/experiments/Knapen_AOT/AOT_stimuli/rescaled_final/1458_rv.mp4	0.0	305.3106243610382	1.0084786415100098
68	289.5683751106262	pulse	0	t		66.0	2.5	/experiments/Knapen_AOT/AOT_stimuli/rescaled_final/1458_rv.mp4	0.0	305.4942033290863	
68	290.39327478408813	movie	1		271	66.0	2.5	/experiments/Knapen_AOT/AOT_stimuli/rescaled_final/1458_rv.mp4	0.0	306.3191030025482	2.492016553878784
68	291.1671555042267	pulse	1	t		66.0	2.5	/experiments/Knapen_AOT/AOT_stimuli/rescaled_final/1458_rv.mp4	0.0	307.09298372268677	
68	292.7672634124756	pulse	1	t		66.0	2.5	/experiments/Knapen_AOT/AOT_stimuli/rescaled_final/1458_rv.mp4	0.0	308.69309163093567	
68	292.8852913379669	fix_post	2		12	66.0	2.5	/experiments/Knapen_AOT/AOT_stimuli/rescaled_final/1458_rv.mp4	0.0	308.811119556427	0.10005521774291992
69	292.98534655570984	fix_pre	0		120	67.0	2.5	/experiments/Knapen_AOT/AOT_stimuli/rescaled_final/1533_rv.mp4	0.0	308.9111747741699	1.0084571838378906
69	293.99380373954773	movie	1		261	67.0	2.5	/experiments/Knapen_AOT/AOT_stimuli/rescaled_final/1533_rv.mp4	0.0	309.9196319580078	2.4920365810394287
69	294.3676826953888	pulse	1	t		67.0	2.5	/experiments/Knapen_AOT/AOT_stimuli/rescaled_final/1533_rv.mp4	0.0	310.2935109138489	
69	295.9670910835266	pulse	1	t		67.0	2.5	/experiments/Knapen_AOT/AOT_stimuli/rescaled_final/1533_rv.mp4	0.0	311.8929193019867	
69	296.48584032058716	fix_post	2		12	67.0	2.5	/experiments/Knapen_AOT/AOT_stimuli/rescaled_final/1533_rv.mp4	0.0	312.41166853904724	0.10001993179321289
70	296.58586025238037	fix_pre	0		119	68.0	2.5	/experiments/Knapen_AOT/AOT_stimuli/rescaled_final/0932_rv.mp4	0.0	312.51168847084045	1.0001416206359863
70	297.5695836544037	pulse	0	t		68.0	2.5	/experiments/Knapen_AOT/AOT_stimuli/rescaled_final/0932_rv.mp4	0.0	313.49541187286377	
70	297.58600187301636	movie	1		289	68.0	2.5	/experiments/Knapen_AOT/AOT_stimuli/rescaled_final/0932_rv.mp4	0.0	313.51183009147644	2.5004212856292725
70	299.1681854724884	pulse	1	t		68.0	2.5	/experiments/Knapen_AOT/AOT_stimuli/rescaled_final/0932_rv.mp4	0.0	315.0940136909485	
70	300.08642315864563	fix_post	2		12	68.0	2.5	/experiments/Knapen_AOT/AOT_stimuli/rescaled_final/0932_rv.mp4	0.0	316.0122513771057	0.09998536109924316
71	300.1864085197449	fix_pre	0		120	69.0	2.5	/experiments/Knapen_AOT/AOT_stimuli/rescaled_final/0028_fw.mp4	0.0	316.11223673820496	1.0085058212280273
71	300.77024936676025	pulse	0	t		69.0	2.5	/experiments/Knapen_AOT/AOT_stimuli/rescaled_final/0028_fw.mp4	0.0	316.69607758522034	
71	301.1949143409729	movie	1		277	69.0	2.5	/experiments/Knapen_AOT/AOT_stimuli/rescaled_final/0028_fw.mp4	0.0	317.120742559433	2.4920248985290527
71	302.36884927749634	pulse	1	t		69.0	2.5	/experiments/Knapen_AOT/AOT_stimuli/rescaled_final/0028_fw.mp4	0.0	318.2946774959564	
71	303.68693923950195	fix_post	2		12	69.0	2.5	/experiments/Knapen_AOT/AOT_stimuli/rescaled_final/0028_fw.mp4	0.0	319.61276745796204	0.10001611709594727
72	303.7869553565979	fix_pre	0		120	70.0	2.5	blank	1.0	319.712783575058	1.0002434253692627
72	303.96351432800293	pulse	0	t		70.0	2.5	blank	1.0	319.889342546463	
72	304.78719878196716	movie	1		300	70.0	2.5	blank	1.0	320.71302700042725	2.500260591506958
72	305.5708005428314	pulse	1	t		70.0	2.5	blank	1.0	321.4966287612915	
72	307.1634752750397	pulse	1	t		70.0	2.5	blank	1.0	323.08930349349976	
72	307.2874593734741	fix_post	2		12	70.0	2.5	blank	1.0	323.2132875919342	0.1000521183013916
73	307.3875114917755	fix_pre	0		120	71.0	2.5	/experiments/Knapen_AOT/AOT_stimuli/rescaled_final/1676_rv.mp4	0.0	323.3133397102356	1.0085198879241943
73	308.3960313796997	movie	1		260	71.0	2.5	/experiments/Knapen_AOT/AOT_stimuli/rescaled_final/1676_rv.mp4	0.0	324.3218595981598	2.4919686317443848
73	308.77145075798035	pulse	1	t		71.0	2.5	/experiments/Knapen_AOT/AOT_stimuli/rescaled_final/1676_rv.mp4	0.0	324.69727897644043	
73	310.3634946346283	pulse	1	t		71.0	2.5	/experiments/Knapen_AOT/AOT_stimuli/rescaled_final/1676_rv.mp4	0.0	326.2893228530884	
73	310.8880000114441	fix_post	2		12	71.0	2.5	/experiments/Knapen_AOT/AOT_stimuli/rescaled_final/1676_rv.mp4	0.0	326.8138282299042	0.10002970695495605
74	310.98802971839905	fix_pre	0		118	72.0	2.5	/experiments/Knapen_AOT/AOT_stimuli/rescaled_final/0173_rv.mp4	0.0	326.91385793685913	0.9919497966766357
74	311.9635343551636	pulse	0	t		72.0	2.5	/experiments/Knapen_AOT/AOT_stimuli/rescaled_final/0173_rv.mp4	0.0	327.88936257362366	
74	311.9799795150757	movie	1		284	72.0	2.5	/experiments/Knapen_AOT/AOT_stimuli/rescaled_final/0173_rv.mp4	0.0	327.90580773353577	2.5002264976501465
74	313.5723044872284	pulse	1	t		72.0	2.5	/experiments/Knapen_AOT/AOT_stimuli/rescaled_final/0173_rv.mp4	0.0	329.4981327056885	
74	314.48020601272583	fix_post	2		12	72.0	2.5	/experiments/Knapen_AOT/AOT_stimuli/rescaled_final/0173_rv.mp4	0.0	330.4060342311859	0.10003423690795898
75	314.5802402496338	fix_pre	0		120	73.0	2.5	/experiments/Knapen_AOT/AOT_stimuli/rescaled_final/0857_rv.mp4	0.0	330.5060684680939	1.0084960460662842
75	315.1638972759247	pulse	0	t		73.0	2.5	/experiments/Knapen_AOT/AOT_stimuli/rescaled_final/0857_rv.mp4	0.0	331.08972549438477	
75	315.5887362957001	movie	1		276	73.0	2.5	/experiments/Knapen_AOT/AOT_stimuli/rescaled_final/0857_rv.mp4	0.0	331.51456451416016	2.4920170307159424
75	316.7642776966095	pulse	1	t		73.0	2.5	/experiments/Knapen_AOT/AOT_stimuli/rescaled_final/0857_rv.mp4	0.0	332.6901059150696	
75	318.080753326416	fix_post	2		12	73.0	2.5	/experiments/Knapen_AOT/AOT_stimuli/rescaled_final/0857_rv.mp4	0.0	334.0065815448761	0.10008406639099121
76	318.180837392807	fix_pre	0		120	74.0	2.5	/experiments/Knapen_AOT/AOT_stimuli/rescaled_final/1024_fw.mp4	0.0	334.1066656112671	1.0084364414215088
76	318.36434412002563	pulse	0	t		74.0	2.5	/experiments/Knapen_AOT/AOT_stimuli/rescaled_final/1024_fw.mp4	0.0	334.2901723384857	
76	319.1892738342285	movie	1		270	74.0	2.5	/experiments/Knapen_AOT/AOT_stimuli/rescaled_final/1024_fw.mp4	0.0	335.1151020526886	2.4921820163726807
76	319.9646532535553	pulse	1	t		74.0	2.5	/experiments/Knapen_AOT/AOT_stimuli/rescaled_final/1024_fw.mp4	0.0	335.8904814720154	
76	321.564795255661	pulse	1	t		74.0	2.5	/experiments/Knapen_AOT/AOT_stimuli/rescaled_final/1024_fw.mp4	0.0	337.4906234741211	
76	321.6814558506012	fix_post	2		12	74.0	2.5	/experiments/Knapen_AOT/AOT_stimuli/rescaled_final/1024_fw.mp4	0.0	337.6072840690613	0.10002803802490234
77	321.7814838886261	fix_pre	0		120	75.0	2.5	blank	1.0	337.7073121070862	1.000067949295044
77	322.78155183792114	movie	1		300	75.0	2.5	blank	1.0	338.7073800563812	2.5002808570861816
77	323.16504645347595	pulse	1	t		75.0	2.5	blank	1.0	339.09087467193604	
77	324.7654263973236	pulse	1	t		75.0	2.5	blank	1.0	340.6912546157837	
77	325.2818326950073	fix_post	2		12	75.0	2.5	blank	1.0	341.2076609134674	0.10004687309265137
78	325.3818795681	fix_pre	0		119	76.0	2.5	/experiments/Knapen_AOT/AOT_stimuli/rescaled_final/0895_rv.mp4	0.0	341.30770778656006	1.0004363059997559
78	326.3656756877899	pulse	0	t		76.0	2.5	/experiments/Knapen_AOT/AOT_stimuli/rescaled_final/0895_rv.mp4	0.0	342.29150390625	
78	326.38231587409973	movie	1		282	76.0	2.5	/experiments/Knapen_AOT/AOT_stimuli/rescaled_final/0895_rv.mp4	0.0	342.3081440925598	2.5000689029693604
78	327.9642515182495	pulse	1	t		76.0	2.5	/experiments/Knapen_AOT/AOT_stimuli/rescaled_final/0895_rv.mp4	0.0	343.8900797367096	
78	328.8823847770691	fix_post	2		12	76.0	2.5	/experiments/Knapen_AOT/AOT_stimuli/rescaled_final/0895_rv.mp4	0.0	344.8082129955292	0.10001564025878906
79	328.9824004173279	fix_pre	0		120	77.0	2.5	/experiments/Knapen_AOT/AOT_stimuli/rescaled_final/1107_rv.mp4	0.0	344.90822863578796	1.0085370540618896
79	329.5662543773651	pulse	0	t		77.0	2.5	/experiments/Knapen_AOT/AOT_stimuli/rescaled_final/1107_rv.mp4	0.0	345.4920825958252	
79	329.99093747138977	movie	1		275	77.0	2.5	/experiments/Knapen_AOT/AOT_stimuli/rescaled_final/1107_rv.mp4	0.0	345.91676568984985	2.4921000003814697
79	331.1647238731384	pulse	1	t		77.0	2.5	/experiments/Knapen_AOT/AOT_stimuli/rescaled_final/1107_rv.mp4	0.0	347.0905520915985	
79	332.48303747177124	fix_post	2		12	77.0	2.5	/experiments/Knapen_AOT/AOT_stimuli/rescaled_final/1107_rv.mp4	0.0	348.4088656902313	0.09992432594299316
80	332.58296179771423	fix_pre	0		120	78.0	2.5	/experiments/Knapen_AOT/AOT_stimuli/rescaled_final/1272_rv.mp4	0.0	348.5087900161743	1.0084598064422607
80	332.7664682865143	pulse	0	t		78.0	2.5	/experiments/Knapen_AOT/AOT_stimuli/rescaled_final/1272_rv.mp4	0.0	348.69229650497437	
80	333.5914216041565	movie	1		271	78.0	2.5	/experiments/Knapen_AOT/AOT_stimuli/rescaled_final/1272_rv.mp4	0.0	349.5172498226166	2.492036819458008
80	334.3658790588379	pulse	1	t		78.0	2.5	/experiments/Knapen_AOT/AOT_stimuli/rescaled_final/1272_rv.mp4	0.0	350.291707277298	
80	335.96706771850586	pulse	1	t		78.0	2.5	/experiments/Knapen_AOT/AOT_stimuli/rescaled_final/1272_rv.mp4	0.0	351.89289593696594	
80	336.0834584236145	fix_post	2		12	78.0	2.5	/experiments/Knapen_AOT/AOT_stimuli/rescaled_final/1272_rv.mp4	0.0	352.0092866420746	0.1000211238861084
81	336.1834795475006	fix_pre	0		120	79.0	2.5	/experiments/Knapen_AOT/AOT_stimuli/rescaled_final/1063_rv.mp4	0.0	352.1093077659607	1.0085041522979736
81	337.1919836997986	movie	1		279	79.0	2.5	/experiments/Knapen_AOT/AOT_stimuli/rescaled_final/1063_rv.mp4	0.0	353.11781191825867	2.4920334815979004
81	337.56553411483765	pulse	1	t		79.0	2.5	/experiments/Knapen_AOT/AOT_stimuli/rescaled_final/1063_rv.mp4	0.0	353.49136233329773	
81	339.16554856300354	pulse	1	t		79.0	2.5	/experiments/Knapen_AOT/AOT_stimuli/rescaled_final/1063_rv.mp4	0.0	355.0913767814636	
81	339.6840171813965	fix_post	2		12	79.0	2.5	/experiments/Knapen_AOT/AOT_stimuli/rescaled_final/1063_rv.mp4	0.0	355.60984539985657	0.10003089904785156
82	339.78404808044434	fix_pre	0		119	80.0	2.5	/experiments/Knapen_AOT/AOT_stimuli/rescaled_final/0386_fw.mp4	0.0	355.7098762989044	1.0001344680786133
82	340.7677869796753	pulse	0	t		80.0	2.5	/experiments/Knapen_AOT/AOT_stimuli/rescaled_final/0386_fw.mp4	0.0	356.6936151981354	
82	340.78418254852295	movie	1		260	80.0	2.5	/experiments/Knapen_AOT/AOT_stimuli/rescaled_final/0386_fw.mp4	0.0	356.71001076698303	2.500364303588867
82	342.3673505783081	pulse	1	t		80.0	2.5	/experiments/Knapen_AOT/AOT_stimuli/rescaled_final/0386_fw.mp4	0.0	358.2931787967682	
82	343.2845468521118	fix_post	2		12	80.0	2.5	/experiments/Knapen_AOT/AOT_stimuli/rescaled_final/0386_fw.mp4	0.0	359.2103750705719	0.10002446174621582
83	343.38457131385803	fix_pre	0		120	81.0	2.5	/experiments/Knapen_AOT/AOT_stimuli/rescaled_final/1744_rv.mp4	0.0	359.3103995323181	1.0084564685821533
83	343.9682412147522	pulse	0	t		81.0	2.5	/experiments/Knapen_AOT/AOT_stimuli/rescaled_final/1744_rv.mp4	0.0	359.8940694332123	
83	344.3930277824402	movie	1		262	81.0	2.5	/experiments/Knapen_AOT/AOT_stimuli/rescaled_final/1744_rv.mp4	0.0	360.31885600090027	2.492060899734497
83	345.5687403678894	pulse	1	t		81.0	2.5	/experiments/Knapen_AOT/AOT_stimuli/rescaled_final/1744_rv.mp4	0.0	361.4945685863495	
83	346.8850886821747	fix_post	2		12	81.0	2.5	/experiments/Knapen_AOT/AOT_stimuli/rescaled_final/1744_rv.mp4	0.0	362.81091690063477	0.10015749931335449
84	346.98524618148804	fix_pre	0		120	82.0	2.5	/experiments/Knapen_AOT/AOT_stimuli/rescaled_final/0081_rv.mp4	0.0	362.9110743999481	1.0083751678466797
84	347.16870188713074	pulse	0	t		82.0	2.5	/experiments/Knapen_AOT/AOT_stimuli/rescaled_final/0081_rv.mp4	0.0	363.0945301055908	
84	347.9936213493347	movie	1		265	82.0	2.5	/experiments/Knapen_AOT/AOT_stimuli/rescaled_final/0081_rv.mp4	0.0	363.9194495677948	2.492015838623047
84	348.76786828041077	pulse	1	t		82.0	2.5	/experiments/Knapen_AOT/AOT_stimuli/rescaled_final/0081_rv.mp4	0.0	364.69369649887085	
84	350.36726212501526	pulse	1	t		82.0	2.5	/experiments/Knapen_AOT/AOT_stimuli/rescaled_final/0081_rv.mp4	0.0	366.29309034347534	
84	350.48563718795776	fix_post	2		12	82.0	2.5	/experiments/Knapen_AOT/AOT_stimuli/rescaled_final/0081_rv.mp4	0.0	366.41146540641785	0.10000729560852051
85	350.5856444835663	fix_pre	0		120	83.0	2.5	blank	1.0	366.51147270202637	1.000209093093872
85	351.58585357666016	movie	1		300	83.0	2.5	blank	1.0	367.51168179512024	2.5003068447113037
85	351.9694309234619	pulse	1	t		83.0	2.5	blank	1.0	367.895259141922	
85	353.56971526145935	pulse	1	t		83.0	2.5	blank	1.0	369.49554347991943	
85	354.08616042137146	fix_post	2		12	83.0	2.5	blank	1.0	370.01198863983154	0.10003829002380371
87	354.18619871139526	stim	0		1715					370.11202692985535	14.2937912940979
87	355.1699540615082	pulse	0	t						371.09578227996826	
87	356.77020382881165	pulse	0	t						372.69603204727173	
87	358.37059259414673	pulse	0	t						374.2964208126068	
87	359.97070598602295	pulse	0	t						375.89653420448303	
87	361.57102727890015	pulse	0	t						377.49685549736023	
87	363.17112374305725	pulse	0	t						379.09695196151733	
87	364.76363587379456	pulse	0	t						380.68946409225464	
87	366.3639426231384	pulse	0	t						382.2897708415985	
87	367.9639947414398	pulse	0	t						383.8898229598999	
