trial_nr	onset	event_type	phase	response	nr_frames	movie_index	movie_duration	movie_file	blank	onset_abs	duration
0	0.1665196418762207	stim	0		7					13.939483642578125	0.05835103988647461
0	0.2166762351989746	response	0	space						13.989640235900879	
1	0.2248706817626953	stim	0		3979					13.9978346824646	33.175886154174805
1	33.38603472709656	pulse	0	t						47.15899872779846	
1	33.4007568359375	stim	1		1715					47.173720836639404	14.297953367233276
1	34.98015642166138	pulse	1	t						48.75312042236328	
1	36.58039927482605	pulse	1	t						50.353363275527954	
1	38.18070101737976	pulse	1	t						51.953665018081665	
1	39.78090810775757	pulse	1	t						53.55387210845947	
1	41.38109350204468	pulse	1	t						55.15405750274658	
1	42.98136591911316	pulse	1	t						56.75432991981506	
1	44.581573486328125	pulse	1	t						58.35453748703003	
1	46.18200325965881	pulse	1	t						59.95496726036072	
2	47.698710203170776	fix_pre	0		11	0.0	2.5	/experiments/Knapen_AOT/AOT_stimuli/rescaled_final/1187_rv.mp4	0.0	61.47167420387268	0.09996151924133301
2	47.7820942401886	pulse	0	t		0.0	2.5	/experiments/Knapen_AOT/AOT_stimuli/rescaled_final/1187_rv.mp4	0.0	61.5550582408905	
2	47.79867172241211	movie	1		300	0.0	2.5	/experiments/Knapen_AOT/AOT_stimuli/rescaled_final/1187_rv.mp4	0.0	61.571635723114014	2.5003695487976074
2	49.378591537475586	pulse	1	t		0.0	2.5	/experiments/Knapen_AOT/AOT_stimuli/rescaled_final/1187_rv.mp4	0.0	63.15155553817749	
2	50.29904127120972	fix_post	2		12	0.0	2.5	/experiments/Knapen_AOT/AOT_stimuli/rescaled_final/1187_rv.mp4	0.0	64.07200527191162	0.09999251365661621
3	50.39903378486633	fix_pre	0		120	1.0	2.5	/experiments/Knapen_AOT/AOT_stimuli/rescaled_final/1437_rv.mp4	0.0	64.17199778556824	1.0001475811004639
3	50.98256707191467	pulse	0	t		1.0	2.5	/experiments/Knapen_AOT/AOT_stimuli/rescaled_final/1437_rv.mp4	0.0	64.75553107261658	
3	51.3991813659668	movie	1		300	1.0	2.5	/experiments/Knapen_AOT/AOT_stimuli/rescaled_final/1437_rv.mp4	0.0	65.1721453666687	2.5003864765167236
3	52.5785276889801	pulse	1	t		1.0	2.5	/experiments/Knapen_AOT/AOT_stimuli/rescaled_final/1437_rv.mp4	0.0	66.351491689682	
3	53.89956784248352	fix_post	2		12	1.0	2.5	/experiments/Knapen_AOT/AOT_stimuli/rescaled_final/1437_rv.mp4	0.0	67.67253184318542	0.1000223159790039
4	53.999590158462524	fix_pre	0		120	2.0	2.5	/experiments/Knapen_AOT/AOT_stimuli/rescaled_final/1930_rv.mp4	0.0	67.77255415916443	1.000140905380249
4	54.18304371833801	pulse	0	t		2.0	2.5	/experiments/Knapen_AOT/AOT_stimuli/rescaled_final/1930_rv.mp4	0.0	67.95600771903992	
4	54.99973106384277	movie	1		300	2.0	2.5	/experiments/Knapen_AOT/AOT_stimuli/rescaled_final/1930_rv.mp4	0.0	68.77269506454468	2.500361919403076
4	55.778929710388184	pulse	1	t		2.0	2.5	/experiments/Knapen_AOT/AOT_stimuli/rescaled_final/1930_rv.mp4	0.0	69.55189371109009	
4	57.37917113304138	pulse	1	t		2.0	2.5	/experiments/Knapen_AOT/AOT_stimuli/rescaled_final/1930_rv.mp4	0.0	71.15213513374329	
4	57.50009298324585	fix_post	2		12	2.0	2.5	/experiments/Knapen_AOT/AOT_stimuli/rescaled_final/1930_rv.mp4	0.0	71.27305698394775	0.10001683235168457
5	57.600109815597534	fix_pre	0		120	3.0	2.5	/experiments/Knapen_AOT/AOT_stimuli/rescaled_final/1754_rv.mp4	0.0	71.37307381629944	1.000157356262207
5	58.60026717185974	movie	1		299	3.0	2.5	/experiments/Knapen_AOT/AOT_stimuli/rescaled_final/1754_rv.mp4	0.0	72.37323117256165	2.4920389652252197
5	58.979602575302124	pulse	1	t		3.0	2.5	/experiments/Knapen_AOT/AOT_stimuli/rescaled_final/1754_rv.mp4	0.0	72.75256657600403	
5	60.57578945159912	pulse	1	t		3.0	2.5	/experiments/Knapen_AOT/AOT_stimuli/rescaled_final/1754_rv.mp4	0.0	74.34875345230103	
5	61.09230613708496	fix_post	2		12	3.0	2.5	/experiments/Knapen_AOT/AOT_stimuli/rescaled_final/1754_rv.mp4	0.0	74.86527013778687	0.10002303123474121
6	61.1923291683197	fix_pre	0		119	4.0	2.5	/experiments/Knapen_AOT/AOT_stimuli/rescaled_final/0965_rv.mp4	0.0	74.9652931690216	0.9921817779541016
6	62.17596912384033	pulse	0	t		4.0	2.5	/experiments/Knapen_AOT/AOT_stimuli/rescaled_final/0965_rv.mp4	0.0	75.94893312454224	
6	62.184510946273804	movie	1		301	4.0	2.5	/experiments/Knapen_AOT/AOT_stimuli/rescaled_final/0965_rv.mp4	0.0	75.95747494697571	2.50836181640625
6	63.77624559402466	pulse	1	t		4.0	2.5	/experiments/Knapen_AOT/AOT_stimuli/rescaled_final/0965_rv.mp4	0.0	77.54920959472656	
6	64.69287276268005	fix_post	2		12	4.0	2.5	/experiments/Knapen_AOT/AOT_stimuli/rescaled_final/0965_rv.mp4	0.0	78.46583676338196	0.10000419616699219
7	64.79287695884705	fix_pre	0		120	5.0	2.5	/experiments/Knapen_AOT/AOT_stimuli/rescaled_final/0035_rv.mp4	0.0	78.56584095954895	1.0001602172851562
7	65.37638831138611	pulse	0	t		5.0	2.5	/experiments/Knapen_AOT/AOT_stimuli/rescaled_final/0035_rv.mp4	0.0	79.14935231208801	
7	65.7930371761322	movie	1		300	5.0	2.5	/experiments/Knapen_AOT/AOT_stimuli/rescaled_final/0035_rv.mp4	0.0	79.5660011768341	2.5003504753112793
7	66.97666358947754	pulse	1	t		5.0	2.5	/experiments/Knapen_AOT/AOT_stimuli/rescaled_final/0035_rv.mp4	0.0	80.74962759017944	
7	68.29338765144348	fix_post	2		12	5.0	2.5	/experiments/Knapen_AOT/AOT_stimuli/rescaled_final/0035_rv.mp4	0.0	82.06635165214539	0.10001802444458008
8	68.39340567588806	fix_pre	0		120	6.0	2.5	/experiments/Knapen_AOT/AOT_stimuli/rescaled_final/1203_rv.mp4	0.0	82.16636967658997	1.0001416206359863
8	68.57689237594604	pulse	0	t		6.0	2.5	/experiments/Knapen_AOT/AOT_stimuli/rescaled_final/1203_rv.mp4	0.0	82.34985637664795	
8	69.39354729652405	movie	1		300	6.0	2.5	/experiments/Knapen_AOT/AOT_stimuli/rescaled_final/1203_rv.mp4	0.0	83.16651129722595	2.500502109527588
8	70.17715334892273	pulse	1	t		6.0	2.5	/experiments/Knapen_AOT/AOT_stimuli/rescaled_final/1203_rv.mp4	0.0	83.95011734962463	
8	71.77743935585022	pulse	1	t		6.0	2.5	/experiments/Knapen_AOT/AOT_stimuli/rescaled_final/1203_rv.mp4	0.0	85.55040335655212	
8	71.89404940605164	fix_post	2		12	6.0	2.5	/experiments/Knapen_AOT/AOT_stimuli/rescaled_final/1203_rv.mp4	0.0	85.66701340675354	0.09990143775939941
9	71.99395084381104	fix_pre	0		120	7.0	2.5	blank	1.0	85.76691484451294	1.0001394748687744
9	72.99409031867981	movie	1		299	7.0	2.5	blank	1.0	86.76705431938171	2.4920406341552734
9	73.3776581287384	pulse	1	t		7.0	2.5	blank	1.0	87.15062212944031	
9	74.97783946990967	pulse	1	t		7.0	2.5	blank	1.0	88.75080347061157	
9	75.48613095283508	fix_post	2		12	7.0	2.5	blank	1.0	89.25909495353699	0.10001540184020996
10	75.5861463546753	fix_pre	0		120	8.0	2.5	/experiments/Knapen_AOT/AOT_stimuli/rescaled_final/1679_rv.mp4	0.0	89.3591103553772	1.0085093975067139
10	76.57815480232239	pulse	0	t		8.0	2.5	/experiments/Knapen_AOT/AOT_stimuli/rescaled_final/1679_rv.mp4	0.0	90.35111880302429	
10	76.594655752182	movie	1		300	8.0	2.5	/experiments/Knapen_AOT/AOT_stimuli/rescaled_final/1679_rv.mp4	0.0	90.36761975288391	2.500392198562622
10	78.17842936515808	pulse	1	t		8.0	2.5	/experiments/Knapen_AOT/AOT_stimuli/rescaled_final/1679_rv.mp4	0.0	91.95139336585999	
10	79.09504795074463	fix_post	2		12	8.0	2.5	/experiments/Knapen_AOT/AOT_stimuli/rescaled_final/1679_rv.mp4	0.0	92.86801195144653	0.1000058650970459
11	79.19505381584167	fix_pre	0		120	9.0	2.5	/experiments/Knapen_AOT/AOT_stimuli/rescaled_final/1697_rv.mp4	0.0	92.96801781654358	1.0001146793365479
11	79.77855110168457	pulse	0	t		9.0	2.5	/experiments/Knapen_AOT/AOT_stimuli/rescaled_final/1697_rv.mp4	0.0	93.55151510238647	
11	80.19516849517822	movie	1		300	9.0	2.5	/experiments/Knapen_AOT/AOT_stimuli/rescaled_final/1697_rv.mp4	0.0	93.96813249588013	2.500380516052246
11	81.3788526058197	pulse	1	t		9.0	2.5	/experiments/Knapen_AOT/AOT_stimuli/rescaled_final/1697_rv.mp4	0.0	95.1518166065216	
11	82.69554901123047	fix_post	2		12	9.0	2.5	/experiments/Knapen_AOT/AOT_stimuli/rescaled_final/1697_rv.mp4	0.0	96.46851301193237	0.10001730918884277
12	82.79556632041931	fix_pre	0		120	10.0	2.5	/experiments/Knapen_AOT/AOT_stimuli/rescaled_final/2029_rv.mp4	0.0	96.56853032112122	1.0001535415649414
12	82.97905921936035	pulse	0	t		10.0	2.5	/experiments/Knapen_AOT/AOT_stimuli/rescaled_final/2029_rv.mp4	0.0	96.75202322006226	
12	83.79571986198425	movie	1		300	10.0	2.5	/experiments/Knapen_AOT/AOT_stimuli/rescaled_final/2029_rv.mp4	0.0	97.56868386268616	2.5003960132598877
12	84.57937526702881	pulse	1	t		10.0	2.5	/experiments/Knapen_AOT/AOT_stimuli/rescaled_final/2029_rv.mp4	0.0	98.35233926773071	
12	86.17957472801208	pulse	1	t		10.0	2.5	/experiments/Knapen_AOT/AOT_stimuli/rescaled_final/2029_rv.mp4	0.0	99.95253872871399	
12	86.29611587524414	fix_post	2		12	10.0	2.5	/experiments/Knapen_AOT/AOT_stimuli/rescaled_final/2029_rv.mp4	0.0	100.06907987594604	0.09999942779541016
13	86.39611530303955	fix_pre	0		120	11.0	2.5	/experiments/Knapen_AOT/AOT_stimuli/rescaled_final/1297_fw.mp4	0.0	100.16907930374146	1.0001649856567383
13	87.39628028869629	movie	1		299	11.0	2.5	/experiments/Knapen_AOT/AOT_stimuli/rescaled_final/1297_fw.mp4	0.0	101.1692442893982	2.4920153617858887
13	87.77982687950134	pulse	1	t		11.0	2.5	/experiments/Knapen_AOT/AOT_stimuli/rescaled_final/1297_fw.mp4	0.0	101.55279088020325	
13	89.38010096549988	pulse	1	t		11.0	2.5	/experiments/Knapen_AOT/AOT_stimuli/rescaled_final/1297_fw.mp4	0.0	103.15306496620178	
13	89.88829565048218	fix_post	2		12	11.0	2.5	/experiments/Knapen_AOT/AOT_stimuli/rescaled_final/1297_fw.mp4	0.0	103.66125965118408	0.10001063346862793
14	89.9883062839508	fix_pre	0		120	12.0	2.5	/experiments/Knapen_AOT/AOT_stimuli/rescaled_final/0260_rv.mp4	0.0	103.76127028465271	1.0085256099700928
14	90.98031306266785	pulse	0	t		12.0	2.5	/experiments/Knapen_AOT/AOT_stimuli/rescaled_final/0260_rv.mp4	0.0	104.75327706336975	
14	90.9968318939209	movie	1		300	12.0	2.5	/experiments/Knapen_AOT/AOT_stimuli/rescaled_final/0260_rv.mp4	0.0	104.7697958946228	2.500373125076294
14	92.57660222053528	pulse	1	t		12.0	2.5	/experiments/Knapen_AOT/AOT_stimuli/rescaled_final/0260_rv.mp4	0.0	106.34956622123718	
14	93.49720501899719	fix_post	2		12	12.0	2.5	/experiments/Knapen_AOT/AOT_stimuli/rescaled_final/0260_rv.mp4	0.0	107.2701690196991	0.10001277923583984
15	93.59721779823303	fix_pre	0		120	13.0	2.5	/experiments/Knapen_AOT/AOT_stimuli/rescaled_final/0941_fw.mp4	0.0	107.37018179893494	1.0001115798950195
15	94.1807599067688	pulse	0	t		13.0	2.5	/experiments/Knapen_AOT/AOT_stimuli/rescaled_final/0941_fw.mp4	0.0	107.9537239074707	
15	94.59732937812805	movie	1		300	13.0	2.5	/experiments/Knapen_AOT/AOT_stimuli/rescaled_final/0941_fw.mp4	0.0	108.37029337882996	2.500377893447876
15	95.7766797542572	pulse	1	t		13.0	2.5	/experiments/Knapen_AOT/AOT_stimuli/rescaled_final/0941_fw.mp4	0.0	109.5496437549591	
15	97.09770727157593	fix_post	2		12	13.0	2.5	/experiments/Knapen_AOT/AOT_stimuli/rescaled_final/0941_fw.mp4	0.0	110.87067127227783	0.10003829002380371
16	97.19774556159973	fix_pre	0		120	14.0	2.5	blank	1.0	110.97070956230164	1.000136137008667
16	97.3812506198883	pulse	0	t		14.0	2.5	blank	1.0	111.15421462059021	
16	98.1978816986084	movie	1		300	14.0	2.5	blank	1.0	111.9708456993103	2.500415563583374
16	98.98151588439941	pulse	1	t		14.0	2.5	blank	1.0	112.75447988510132	
16	100.58173251152039	pulse	1	t		14.0	2.5	blank	1.0	114.35469651222229	
16	100.69829726219177	fix_post	2		12	14.0	2.5	blank	1.0	114.47126126289368	0.09998965263366699
17	100.79828691482544	fix_pre	0		120	15.0	2.5	/experiments/Knapen_AOT/AOT_stimuli/rescaled_final/0724_fw.mp4	0.0	114.57125091552734	1.000204086303711
17	101.79849100112915	movie	1		299	15.0	2.5	/experiments/Knapen_AOT/AOT_stimuli/rescaled_final/0724_fw.mp4	0.0	115.57145500183105	2.491957664489746
17	102.1780526638031	pulse	1	t		15.0	2.5	/experiments/Knapen_AOT/AOT_stimuli/rescaled_final/0724_fw.mp4	0.0	115.951016664505	
17	103.7777247428894	pulse	1	t		15.0	2.5	/experiments/Knapen_AOT/AOT_stimuli/rescaled_final/0724_fw.mp4	0.0	117.55068874359131	
17	104.2904486656189	fix_post	2		12	15.0	2.5	/experiments/Knapen_AOT/AOT_stimuli/rescaled_final/0724_fw.mp4	0.0	118.0634126663208	0.10001778602600098
18	104.3904664516449	fix_pre	0		120	16.0	2.5	/experiments/Knapen_AOT/AOT_stimuli/rescaled_final/1607_rv.mp4	0.0	118.1634304523468	1.0085124969482422
18	105.3824667930603	pulse	0	t		16.0	2.5	/experiments/Knapen_AOT/AOT_stimuli/rescaled_final/1607_rv.mp4	0.0	119.1554307937622	
18	105.39897894859314	movie	1		300	16.0	2.5	/experiments/Knapen_AOT/AOT_stimuli/rescaled_final/1607_rv.mp4	0.0	119.17194294929504	2.50042724609375
18	106.97894215583801	pulse	1	t		16.0	2.5	/experiments/Knapen_AOT/AOT_stimuli/rescaled_final/1607_rv.mp4	0.0	120.75190615653992	
18	107.89940619468689	fix_post	2		12	16.0	2.5	/experiments/Knapen_AOT/AOT_stimuli/rescaled_final/1607_rv.mp4	0.0	121.6723701953888	0.0999755859375
19	107.99938178062439	fix_pre	0		120	17.0	2.5	/experiments/Knapen_AOT/AOT_stimuli/rescaled_final/0705_fw.mp4	0.0	121.7723457813263	1.0001249313354492
19	108.58298134803772	pulse	0	t		17.0	2.5	/experiments/Knapen_AOT/AOT_stimuli/rescaled_final/0705_fw.mp4	0.0	122.35594534873962	
19	108.99950671195984	movie	1		299	17.0	2.5	/experiments/Knapen_AOT/AOT_stimuli/rescaled_final/0705_fw.mp4	0.0	122.77247071266174	2.500373601913452
19	110.1788170337677	pulse	1	t		17.0	2.5	/experiments/Knapen_AOT/AOT_stimuli/rescaled_final/0705_fw.mp4	0.0	123.9517810344696	
19	111.49988031387329	fix_post	2		12	17.0	2.5	/experiments/Knapen_AOT/AOT_stimuli/rescaled_final/0705_fw.mp4	0.0	125.2728443145752	0.10002398490905762
20	111.59990429878235	fix_pre	0		120	18.0	2.5	/experiments/Knapen_AOT/AOT_stimuli/rescaled_final/1258_fw.mp4	0.0	125.37286829948425	1.000150442123413
20	111.78340744972229	pulse	0	t		18.0	2.5	/experiments/Knapen_AOT/AOT_stimuli/rescaled_final/1258_fw.mp4	0.0	125.5563714504242	
20	112.60005474090576	movie	1		300	18.0	2.5	/experiments/Knapen_AOT/AOT_stimuli/rescaled_final/1258_fw.mp4	0.0	126.37301874160767	2.500404119491577
20	113.37919926643372	pulse	1	t		18.0	2.5	/experiments/Knapen_AOT/AOT_stimuli/rescaled_final/1258_fw.mp4	0.0	127.15216326713562	
20	114.97960615158081	pulse	1	t		18.0	2.5	/experiments/Knapen_AOT/AOT_stimuli/rescaled_final/1258_fw.mp4	0.0	128.75257015228271	
20	115.10045886039734	fix_post	2		12	18.0	2.5	/experiments/Knapen_AOT/AOT_stimuli/rescaled_final/1258_fw.mp4	0.0	128.87342286109924	0.09999895095825195
21	115.20045781135559	fix_pre	0		120	19.0	2.5	blank	1.0	128.9734218120575	1.0001273155212402
21	116.20058512687683	movie	1		299	19.0	2.5	blank	1.0	129.97354912757874	2.4920425415039062
21	116.57615566253662	pulse	1	t		19.0	2.5	blank	1.0	130.34911966323853	
21	118.17623662948608	pulse	1	t		19.0	2.5	blank	1.0	131.949200630188	
21	118.69262766838074	fix_post	2		12	19.0	2.5	blank	1.0	132.46559166908264	0.10001492500305176
22	118.79264259338379	fix_pre	0		119	20.0	2.5	/experiments/Knapen_AOT/AOT_stimuli/rescaled_final/1580_rv.mp4	0.0	132.5656065940857	1.0001633167266846
22	119.77624917030334	pulse	0	t		20.0	2.5	/experiments/Knapen_AOT/AOT_stimuli/rescaled_final/1580_rv.mp4	0.0	133.54921317100525	
22	119.79280591011047	movie	1		300	20.0	2.5	/experiments/Knapen_AOT/AOT_stimuli/rescaled_final/1580_rv.mp4	0.0	133.56576991081238	2.5003678798675537
22	121.37656903266907	pulse	1	t		20.0	2.5	/experiments/Knapen_AOT/AOT_stimuli/rescaled_final/1580_rv.mp4	0.0	135.14953303337097	
22	122.29317378997803	fix_post	2		12	20.0	2.5	/experiments/Knapen_AOT/AOT_stimuli/rescaled_final/1580_rv.mp4	0.0	136.06613779067993	0.10009407997131348
23	122.39326786994934	fix_pre	0		120	21.0	2.5	/experiments/Knapen_AOT/AOT_stimuli/rescaled_final/2090_rv.mp4	0.0	136.16623187065125	1.0001029968261719
23	122.97675251960754	pulse	0	t		21.0	2.5	/experiments/Knapen_AOT/AOT_stimuli/rescaled_final/2090_rv.mp4	0.0	136.74971652030945	
23	123.39337086677551	movie	1		300	21.0	2.5	/experiments/Knapen_AOT/AOT_stimuli/rescaled_final/2090_rv.mp4	0.0	137.16633486747742	2.5003528594970703
23	124.57698488235474	pulse	1	t		21.0	2.5	/experiments/Knapen_AOT/AOT_stimuli/rescaled_final/2090_rv.mp4	0.0	138.34994888305664	
23	125.89372372627258	fix_post	2		12	21.0	2.5	/experiments/Knapen_AOT/AOT_stimuli/rescaled_final/2090_rv.mp4	0.0	139.6666877269745	0.10001540184020996
24	125.9937391281128	fix_pre	0		120	22.0	2.5	/experiments/Knapen_AOT/AOT_stimuli/rescaled_final/0688_fw.mp4	0.0	139.7667031288147	1.000140905380249
24	126.17721652984619	pulse	0	t		22.0	2.5	/experiments/Knapen_AOT/AOT_stimuli/rescaled_final/0688_fw.mp4	0.0	139.9501805305481	
24	126.99388003349304	movie	1		300	22.0	2.5	/experiments/Knapen_AOT/AOT_stimuli/rescaled_final/0688_fw.mp4	0.0	140.76684403419495	2.5003702640533447
24	127.77746605873108	pulse	1	t		22.0	2.5	/experiments/Knapen_AOT/AOT_stimuli/rescaled_final/0688_fw.mp4	0.0	141.55043005943298	
24	129.3776957988739	pulse	1	t		22.0	2.5	/experiments/Knapen_AOT/AOT_stimuli/rescaled_final/0688_fw.mp4	0.0	143.1506597995758	
24	129.4942502975464	fix_post	2		12	22.0	2.5	/experiments/Knapen_AOT/AOT_stimuli/rescaled_final/0688_fw.mp4	0.0	143.2672142982483	0.1000206470489502
25	129.59427094459534	fix_pre	0		120	23.0	2.5	/experiments/Knapen_AOT/AOT_stimuli/rescaled_final/1044_fw.mp4	0.0	143.36723494529724	1.0001459121704102
25	130.59441685676575	movie	1		299	23.0	2.5	/experiments/Knapen_AOT/AOT_stimuli/rescaled_final/1044_fw.mp4	0.0	144.36738085746765	2.4920475482940674
25	130.97807478904724	pulse	1	t		23.0	2.5	/experiments/Knapen_AOT/AOT_stimuli/rescaled_final/1044_fw.mp4	0.0	144.75103878974915	
25	132.57817673683167	pulse	1	t		23.0	2.5	/experiments/Knapen_AOT/AOT_stimuli/rescaled_final/1044_fw.mp4	0.0	146.35114073753357	
25	133.08646440505981	fix_post	2		12	23.0	2.5	/experiments/Knapen_AOT/AOT_stimuli/rescaled_final/1044_fw.mp4	0.0	146.85942840576172	0.10003209114074707
26	133.18649649620056	fix_pre	0		120	24.0	2.5	/experiments/Knapen_AOT/AOT_stimuli/rescaled_final/0599_fw.mp4	0.0	146.95946049690247	1.0003366470336914
26	134.17841982841492	pulse	0	t		24.0	2.5	/experiments/Knapen_AOT/AOT_stimuli/rescaled_final/0599_fw.mp4	0.0	147.95138382911682	
26	134.18683314323425	movie	1		301	24.0	2.5	/experiments/Knapen_AOT/AOT_stimuli/rescaled_final/0599_fw.mp4	0.0	147.95979714393616	2.5085036754608154
26	135.77873063087463	pulse	1	t		24.0	2.5	/experiments/Knapen_AOT/AOT_stimuli/rescaled_final/0599_fw.mp4	0.0	149.55169463157654	
26	136.69533681869507	fix_post	2		12	24.0	2.5	/experiments/Knapen_AOT/AOT_stimuli/rescaled_final/0599_fw.mp4	0.0	150.46830081939697	0.1000208854675293
27	136.7953577041626	fix_pre	0		120	25.0	2.5	/experiments/Knapen_AOT/AOT_stimuli/rescaled_final/1907_fw.mp4	0.0	150.5683217048645	1.0001378059387207
27	137.37890219688416	pulse	0	t		25.0	2.5	/experiments/Knapen_AOT/AOT_stimuli/rescaled_final/1907_fw.mp4	0.0	151.15186619758606	
27	137.79549551010132	movie	1		300	25.0	2.5	/experiments/Knapen_AOT/AOT_stimuli/rescaled_final/1907_fw.mp4	0.0	151.56845951080322	2.5003914833068848
27	138.97916269302368	pulse	1	t		25.0	2.5	/experiments/Knapen_AOT/AOT_stimuli/rescaled_final/1907_fw.mp4	0.0	152.7521266937256	
27	140.2958869934082	fix_post	2		12	25.0	2.5	/experiments/Knapen_AOT/AOT_stimuli/rescaled_final/1907_fw.mp4	0.0	154.0688509941101	0.10004115104675293
28	140.39592814445496	fix_pre	0		120	26.0	2.5	/experiments/Knapen_AOT/AOT_stimuli/rescaled_final/0423_fw.mp4	0.0	154.16889214515686	1.0001106262207031
28	140.57936000823975	pulse	0	t		26.0	2.5	/experiments/Knapen_AOT/AOT_stimuli/rescaled_final/0423_fw.mp4	0.0	154.35232400894165	
28	141.39603877067566	movie	1		299	26.0	2.5	/experiments/Knapen_AOT/AOT_stimuli/rescaled_final/0423_fw.mp4	0.0	155.16900277137756	2.500368118286133
28	142.17962670326233	pulse	1	t		26.0	2.5	/experiments/Knapen_AOT/AOT_stimuli/rescaled_final/0423_fw.mp4	0.0	155.95259070396423	
28	143.7799210548401	pulse	1	t		26.0	2.5	/experiments/Knapen_AOT/AOT_stimuli/rescaled_final/0423_fw.mp4	0.0	157.552885055542	
28	143.8964068889618	fix_post	2		12	26.0	2.5	/experiments/Knapen_AOT/AOT_stimuli/rescaled_final/0423_fw.mp4	0.0	157.6693708896637	0.10001993179321289
29	143.996426820755	fix_pre	0		120	27.0	2.5	blank	1.0	157.7693908214569	1.0001671314239502
29	144.99659395217896	movie	1		299	27.0	2.5	blank	1.0	158.76955795288086	2.4920172691345215
29	145.38007616996765	pulse	1	t		27.0	2.5	blank	1.0	159.15304017066956	
29	146.9803488254547	pulse	1	t		27.0	2.5	blank	1.0	160.75331282615662	
29	147.48861122131348	fix_post	2		12	27.0	2.5	blank	1.0	161.26157522201538	0.10002350807189941
30	147.58863472938538	fix_pre	0		120	28.0	2.5	/experiments/Knapen_AOT/AOT_stimuli/rescaled_final/1872_rv.mp4	0.0	161.36159873008728	1.008538007736206
30	148.58059310913086	pulse	0	t		28.0	2.5	/experiments/Knapen_AOT/AOT_stimuli/rescaled_final/1872_rv.mp4	0.0	162.35355710983276	
30	148.59717273712158	movie	1		300	28.0	2.5	/experiments/Knapen_AOT/AOT_stimuli/rescaled_final/1872_rv.mp4	0.0	162.3701367378235	2.5003232955932617
30	150.17709612846375	pulse	1	t		28.0	2.5	/experiments/Knapen_AOT/AOT_stimuli/rescaled_final/1872_rv.mp4	0.0	163.95006012916565	
30	151.09749603271484	fix_post	2		12	28.0	2.5	/experiments/Knapen_AOT/AOT_stimuli/rescaled_final/1872_rv.mp4	0.0	164.87046003341675	0.1000216007232666
31	151.1975176334381	fix_pre	0		120	29.0	2.5	/experiments/Knapen_AOT/AOT_stimuli/rescaled_final/0678_rv.mp4	0.0	164.97048163414001	1.000140905380249
31	151.7810399532318	pulse	0	t		29.0	2.5	/experiments/Knapen_AOT/AOT_stimuli/rescaled_final/0678_rv.mp4	0.0	165.55400395393372	
31	152.19765853881836	movie	1		299	29.0	2.5	/experiments/Knapen_AOT/AOT_stimuli/rescaled_final/0678_rv.mp4	0.0	165.97062253952026	2.5003931522369385
31	153.37697386741638	pulse	1	t		29.0	2.5	/experiments/Knapen_AOT/AOT_stimuli/rescaled_final/0678_rv.mp4	0.0	167.1499378681183	
31	154.6980516910553	fix_post	2		12	29.0	2.5	/experiments/Knapen_AOT/AOT_stimuli/rescaled_final/0678_rv.mp4	0.0	168.4710156917572	0.10000443458557129
32	154.79805612564087	fix_pre	0		120	30.0	2.5	/experiments/Knapen_AOT/AOT_stimuli/rescaled_final/1603_rv.mp4	0.0	168.57102012634277	1.0001487731933594
32	154.98152112960815	pulse	0	t		30.0	2.5	/experiments/Knapen_AOT/AOT_stimuli/rescaled_final/1603_rv.mp4	0.0	168.75448513031006	
32	155.79820489883423	movie	1		300	30.0	2.5	/experiments/Knapen_AOT/AOT_stimuli/rescaled_final/1603_rv.mp4	0.0	169.57116889953613	2.50040340423584
32	156.5773320198059	pulse	1	t		30.0	2.5	/experiments/Knapen_AOT/AOT_stimuli/rescaled_final/1603_rv.mp4	0.0	170.3502960205078	
32	158.17782020568848	pulse	1	t		30.0	2.5	/experiments/Knapen_AOT/AOT_stimuli/rescaled_final/1603_rv.mp4	0.0	171.95078420639038	
32	158.29860830307007	fix_post	2		12	30.0	2.5	/experiments/Knapen_AOT/AOT_stimuli/rescaled_final/1603_rv.mp4	0.0	172.07157230377197	0.10001873970031738
33	158.39862704277039	fix_pre	0		120	31.0	2.5	/experiments/Knapen_AOT/AOT_stimuli/rescaled_final/2150_rv.mp4	0.0	172.1715910434723	1.0001213550567627
33	159.39874839782715	movie	1		299	31.0	2.5	/experiments/Knapen_AOT/AOT_stimuli/rescaled_final/2150_rv.mp4	0.0	173.17171239852905	2.49212908744812
33	159.7786078453064	pulse	1	t		31.0	2.5	/experiments/Knapen_AOT/AOT_stimuli/rescaled_final/2150_rv.mp4	0.0	173.5515718460083	
33	161.37810730934143	pulse	1	t		31.0	2.5	/experiments/Knapen_AOT/AOT_stimuli/rescaled_final/2150_rv.mp4	0.0	175.15107131004333	
33	161.89087748527527	fix_post	2		12	31.0	2.5	/experiments/Knapen_AOT/AOT_stimuli/rescaled_final/2150_rv.mp4	0.0	175.66384148597717	0.0999288558959961
34	161.99080634117126	fix_pre	0		120	32.0	2.5	/experiments/Knapen_AOT/AOT_stimuli/rescaled_final/0894_fw.mp4	0.0	175.76377034187317	1.0005090236663818
34	162.9827265739441	pulse	0	t		32.0	2.5	/experiments/Knapen_AOT/AOT_stimuli/rescaled_final/0894_fw.mp4	0.0	176.755690574646	
34	162.99131536483765	movie	1		301	32.0	2.5	/experiments/Knapen_AOT/AOT_stimuli/rescaled_final/0894_fw.mp4	0.0	176.76427936553955	2.508344888687134
34	164.57929134368896	pulse	1	t		32.0	2.5	/experiments/Knapen_AOT/AOT_stimuli/rescaled_final/0894_fw.mp4	0.0	178.35225534439087	
34	165.49966025352478	fix_post	2		12	32.0	2.5	/experiments/Knapen_AOT/AOT_stimuli/rescaled_final/0894_fw.mp4	0.0	179.27262425422668	0.10005974769592285
35	165.5997200012207	fix_pre	0		120	33.0	2.5	/experiments/Knapen_AOT/AOT_stimuli/rescaled_final/1911_fw.mp4	0.0	179.3726840019226	1.0001111030578613
35	166.18321323394775	pulse	0	t		33.0	2.5	/experiments/Knapen_AOT/AOT_stimuli/rescaled_final/1911_fw.mp4	0.0	179.95617723464966	
35	166.59983110427856	movie	1		300	33.0	2.5	/experiments/Knapen_AOT/AOT_stimuli/rescaled_final/1911_fw.mp4	0.0	180.37279510498047	2.500373125076294
35	167.77926087379456	pulse	1	t		33.0	2.5	/experiments/Knapen_AOT/AOT_stimuli/rescaled_final/1911_fw.mp4	0.0	181.55222487449646	
35	169.10020422935486	fix_post	2		12	33.0	2.5	/experiments/Knapen_AOT/AOT_stimuli/rescaled_final/1911_fw.mp4	0.0	182.87316823005676	0.10001254081726074
36	169.20021677017212	fix_pre	0		120	34.0	2.5	blank	1.0	182.97318077087402	1.0001614093780518
36	169.38374972343445	pulse	0	t		34.0	2.5	blank	1.0	183.15671372413635	
36	170.20037817955017	movie	1		300	34.0	2.5	blank	1.0	183.97334218025208	2.5003676414489746
36	170.9839313030243	pulse	1	t		34.0	2.5	blank	1.0	184.7568953037262	
36	172.58425068855286	pulse	1	t		34.0	2.5	blank	1.0	186.35721468925476	
36	172.70074582099915	fix_post	2		12	34.0	2.5	blank	1.0	186.47370982170105	0.10001254081726074
37	172.8007583618164	fix_pre	0		120	35.0	2.5	/experiments/Knapen_AOT/AOT_stimuli/rescaled_final/0758_fw.mp4	0.0	186.5737223625183	1.0001752376556396
37	173.80093359947205	movie	1		299	35.0	2.5	/experiments/Knapen_AOT/AOT_stimuli/rescaled_final/0758_fw.mp4	0.0	187.57389760017395	2.492033004760742
37	174.18059659004211	pulse	1	t		35.0	2.5	/experiments/Knapen_AOT/AOT_stimuli/rescaled_final/0758_fw.mp4	0.0	187.95356059074402	
37	175.78025794029236	pulse	1	t		35.0	2.5	/experiments/Knapen_AOT/AOT_stimuli/rescaled_final/0758_fw.mp4	0.0	189.55322194099426	
37	176.2929666042328	fix_post	2		12	35.0	2.5	/experiments/Knapen_AOT/AOT_stimuli/rescaled_final/0758_fw.mp4	0.0	190.0659306049347	0.10003852844238281
38	176.39300513267517	fix_pre	0		119	36.0	2.5	/experiments/Knapen_AOT/AOT_stimuli/rescaled_final/1911_rv.mp4	0.0	190.16596913337708	1.0001494884490967
38	177.37664580345154	pulse	0	t		36.0	2.5	/experiments/Knapen_AOT/AOT_stimuli/rescaled_final/1911_rv.mp4	0.0	191.14960980415344	
38	177.39315462112427	movie	1		299	36.0	2.5	/experiments/Knapen_AOT/AOT_stimuli/rescaled_final/1911_rv.mp4	0.0	191.16611862182617	2.5003530979156494
38	178.97690391540527	pulse	1	t		36.0	2.5	/experiments/Knapen_AOT/AOT_stimuli/rescaled_final/1911_rv.mp4	0.0	192.74986791610718	
38	179.89350771903992	fix_post	2		12	36.0	2.5	/experiments/Knapen_AOT/AOT_stimuli/rescaled_final/1911_rv.mp4	0.0	193.66647171974182	0.10004138946533203
39	179.99354910850525	fix_pre	0		120	37.0	2.5	/experiments/Knapen_AOT/AOT_stimuli/rescaled_final/0962_fw.mp4	0.0	193.76651310920715	1.0001227855682373
39	180.57703185081482	pulse	0	t		37.0	2.5	/experiments/Knapen_AOT/AOT_stimuli/rescaled_final/0962_fw.mp4	0.0	194.34999585151672	
39	180.9936718940735	movie	1		299	37.0	2.5	/experiments/Knapen_AOT/AOT_stimuli/rescaled_final/0962_fw.mp4	0.0	194.7666358947754	2.5003836154937744
39	182.17733025550842	pulse	1	t		37.0	2.5	/experiments/Knapen_AOT/AOT_stimuli/rescaled_final/0962_fw.mp4	0.0	195.95029425621033	
39	183.49405550956726	fix_post	2		12	37.0	2.5	/experiments/Knapen_AOT/AOT_stimuli/rescaled_final/0962_fw.mp4	0.0	197.26701951026917	0.10002994537353516
40	183.5940854549408	fix_pre	0		120	38.0	2.5	/experiments/Knapen_AOT/AOT_stimuli/rescaled_final/1778_fw.mp4	0.0	197.3670494556427	1.0001099109649658
40	183.77755188941956	pulse	0	t		38.0	2.5	/experiments/Knapen_AOT/AOT_stimuli/rescaled_final/1778_fw.mp4	0.0	197.55051589012146	
40	184.59419536590576	movie	1		300	38.0	2.5	/experiments/Knapen_AOT/AOT_stimuli/rescaled_final/1778_fw.mp4	0.0	198.36715936660767	2.500401496887207
40	185.37781977653503	pulse	1	t		38.0	2.5	/experiments/Knapen_AOT/AOT_stimuli/rescaled_final/1778_fw.mp4	0.0	199.15078377723694	
40	186.97809171676636	pulse	1	t		38.0	2.5	/experiments/Knapen_AOT/AOT_stimuli/rescaled_final/1778_fw.mp4	0.0	200.75105571746826	
40	187.09459686279297	fix_post	2		12	38.0	2.5	/experiments/Knapen_AOT/AOT_stimuli/rescaled_final/1778_fw.mp4	0.0	200.86756086349487	0.10003066062927246
41	187.19462752342224	fix_pre	0		120	39.0	2.5	/experiments/Knapen_AOT/AOT_stimuli/rescaled_final/1983_rv.mp4	0.0	200.96759152412415	1.000110387802124
41	188.19473791122437	movie	1		299	39.0	2.5	/experiments/Knapen_AOT/AOT_stimuli/rescaled_final/1983_rv.mp4	0.0	201.96770191192627	2.492051124572754
41	188.57840585708618	pulse	1	t		39.0	2.5	/experiments/Knapen_AOT/AOT_stimuli/rescaled_final/1983_rv.mp4	0.0	202.3513698577881	
41	190.1785798072815	pulse	1	t		39.0	2.5	/experiments/Knapen_AOT/AOT_stimuli/rescaled_final/1983_rv.mp4	0.0	203.9515438079834	
41	190.68678903579712	fix_post	2		12	39.0	2.5	/experiments/Knapen_AOT/AOT_stimuli/rescaled_final/1983_rv.mp4	0.0	204.45975303649902	0.10002803802490234
42	190.78681707382202	fix_pre	0		120	40.0	2.5	/experiments/Knapen_AOT/AOT_stimuli/rescaled_final/0599_fw.mp4	0.0	204.55978107452393	1.0085821151733398
42	191.77880573272705	pulse	0	t		40.0	2.5	/experiments/Knapen_AOT/AOT_stimuli/rescaled_final/0599_fw.mp4	0.0	205.55176973342896	
42	191.79539918899536	movie	1		300	40.0	2.5	/experiments/Knapen_AOT/AOT_stimuli/rescaled_final/0599_fw.mp4	0.0	205.56836318969727	2.500253677368164
42	193.37905430793762	pulse	1	t		40.0	2.5	/experiments/Knapen_AOT/AOT_stimuli/rescaled_final/0599_fw.mp4	0.0	207.15201830863953	
42	194.29565286636353	fix_post	2		12	40.0	2.5	/experiments/Knapen_AOT/AOT_stimuli/rescaled_final/0599_fw.mp4	0.0	208.06861686706543	0.1000525951385498
43	194.39570546150208	fix_pre	0		120	41.0	2.5	blank	1.0	208.16866946220398	1.0001120567321777
43	194.97924137115479	pulse	0	t		41.0	2.5	blank	1.0	208.7522053718567	
43	195.39581751823425	movie	1		300	41.0	2.5	blank	1.0	209.16878151893616	2.5003819465637207
43	196.57945036888123	pulse	1	t		41.0	2.5	blank	1.0	210.35241436958313	
43	197.89619946479797	fix_post	2		12	41.0	2.5	blank	1.0	211.66916346549988	0.10002255439758301
44	197.99622201919556	fix_pre	0		120	42.0	2.5	/experiments/Knapen_AOT/AOT_stimuli/rescaled_final/2048_rv.mp4	0.0	211.76918601989746	1.000208854675293
44	198.17968010902405	pulse	0	t		42.0	2.5	/experiments/Knapen_AOT/AOT_stimuli/rescaled_final/2048_rv.mp4	0.0	211.95264410972595	
44	198.99643087387085	movie	1		300	42.0	2.5	/experiments/Knapen_AOT/AOT_stimuli/rescaled_final/2048_rv.mp4	0.0	212.76939487457275	2.500324010848999
44	199.7800097465515	pulse	1	t		42.0	2.5	/experiments/Knapen_AOT/AOT_stimuli/rescaled_final/2048_rv.mp4	0.0	213.55297374725342	
44	201.37599968910217	pulse	1	t		42.0	2.5	/experiments/Knapen_AOT/AOT_stimuli/rescaled_final/2048_rv.mp4	0.0	215.14896368980408	
44	201.49675488471985	fix_post	2		12	42.0	2.5	/experiments/Knapen_AOT/AOT_stimuli/rescaled_final/2048_rv.mp4	0.0	215.26971888542175	0.09999918937683105
45	201.59675407409668	fix_pre	0		120	43.0	2.5	/experiments/Knapen_AOT/AOT_stimuli/rescaled_final/0912_fw.mp4	0.0	215.36971807479858	1.0001330375671387
45	202.59688711166382	movie	1		299	43.0	2.5	/experiments/Knapen_AOT/AOT_stimuli/rescaled_final/0912_fw.mp4	0.0	216.36985111236572	2.492051362991333
45	202.9766263961792	pulse	1	t		43.0	2.5	/experiments/Knapen_AOT/AOT_stimuli/rescaled_final/0912_fw.mp4	0.0	216.7495903968811	
45	204.5761911869049	pulse	1	t		43.0	2.5	/experiments/Knapen_AOT/AOT_stimuli/rescaled_final/0912_fw.mp4	0.0	218.3491551876068	
45	205.08893847465515	fix_post	2		12	43.0	2.5	/experiments/Knapen_AOT/AOT_stimuli/rescaled_final/0912_fw.mp4	0.0	218.86190247535706	0.10001659393310547
46	205.18895506858826	fix_pre	0		120	44.0	2.5	/experiments/Knapen_AOT/AOT_stimuli/rescaled_final/2161_fw.mp4	0.0	218.96191906929016	1.0085079669952393
46	206.1809058189392	pulse	0	t		44.0	2.5	/experiments/Knapen_AOT/AOT_stimuli/rescaled_final/2161_fw.mp4	0.0	219.9538698196411	
46	206.1974630355835	movie	1		300	44.0	2.5	/experiments/Knapen_AOT/AOT_stimuli/rescaled_final/2161_fw.mp4	0.0	219.9704270362854	2.5003552436828613
46	207.77732706069946	pulse	1	t		44.0	2.5	/experiments/Knapen_AOT/AOT_stimuli/rescaled_final/2161_fw.mp4	0.0	221.55029106140137	
46	208.69781827926636	fix_post	2		12	44.0	2.5	/experiments/Knapen_AOT/AOT_stimuli/rescaled_final/2161_fw.mp4	0.0	222.47078227996826	0.10001611709594727
47	208.7978343963623	fix_pre	0		120	45.0	2.5	/experiments/Knapen_AOT/AOT_stimuli/rescaled_final/0356_fw.mp4	0.0	222.5707983970642	1.0001447200775146
47	209.38139009475708	pulse	0	t		45.0	2.5	/experiments/Knapen_AOT/AOT_stimuli/rescaled_final/0356_fw.mp4	0.0	223.15435409545898	
47	209.79797911643982	movie	1		288	45.0	2.5	/experiments/Knapen_AOT/AOT_stimuli/rescaled_final/0356_fw.mp4	0.0	223.57094311714172	2.5003750324249268
47	210.97757196426392	pulse	1	t		45.0	2.5	/experiments/Knapen_AOT/AOT_stimuli/rescaled_final/0356_fw.mp4	0.0	224.75053596496582	
47	212.29835414886475	fix_post	2		12	45.0	2.5	/experiments/Knapen_AOT/AOT_stimuli/rescaled_final/0356_fw.mp4	0.0	226.07131814956665	0.10003256797790527
48	212.39838671684265	fix_pre	0		120	46.0	2.5	/experiments/Knapen_AOT/AOT_stimuli/rescaled_final/0756_fw.mp4	0.0	226.17135071754456	1.0001184940338135
48	212.58205318450928	pulse	0	t		46.0	2.5	/experiments/Knapen_AOT/AOT_stimuli/rescaled_final/0756_fw.mp4	0.0	226.35501718521118	
48	213.39850521087646	movie	1		300	46.0	2.5	/experiments/Knapen_AOT/AOT_stimuli/rescaled_final/0756_fw.mp4	0.0	227.17146921157837	2.5004093647003174
48	214.17771649360657	pulse	1	t		46.0	2.5	/experiments/Knapen_AOT/AOT_stimuli/rescaled_final/0756_fw.mp4	0.0	227.95068049430847	
48	215.77806305885315	pulse	1	t		46.0	2.5	/experiments/Knapen_AOT/AOT_stimuli/rescaled_final/0756_fw.mp4	0.0	229.55102705955505	
48	215.89891457557678	fix_post	2		12	46.0	2.5	/experiments/Knapen_AOT/AOT_stimuli/rescaled_final/0756_fw.mp4	0.0	229.6718785762787	0.10000753402709961
49	215.99892210960388	fix_pre	0		120	47.0	2.5	/experiments/Knapen_AOT/AOT_stimuli/rescaled_final/0869_rv.mp4	0.0	229.7718861103058	1.0001256465911865
49	216.99904775619507	movie	1		299	47.0	2.5	/experiments/Knapen_AOT/AOT_stimuli/rescaled_final/0869_rv.mp4	0.0	230.77201175689697	2.4920549392700195
49	217.37881994247437	pulse	1	t		47.0	2.5	/experiments/Knapen_AOT/AOT_stimuli/rescaled_final/0869_rv.mp4	0.0	231.15178394317627	
49	218.97828149795532	pulse	1	t		47.0	2.5	/experiments/Knapen_AOT/AOT_stimuli/rescaled_final/0869_rv.mp4	0.0	232.75124549865723	
49	219.4911026954651	fix_post	2		12	47.0	2.5	/experiments/Knapen_AOT/AOT_stimuli/rescaled_final/0869_rv.mp4	0.0	233.264066696167	0.10001850128173828
50	219.59112119674683	fix_pre	0		120	48.0	2.5	/experiments/Knapen_AOT/AOT_stimuli/rescaled_final/0330_rv.mp4	0.0	233.36408519744873	1.0085537433624268
50	220.58301854133606	pulse	0	t		48.0	2.5	/experiments/Knapen_AOT/AOT_stimuli/rescaled_final/0330_rv.mp4	0.0	234.35598254203796	
50	220.59967494010925	movie	1		300	48.0	2.5	/experiments/Knapen_AOT/AOT_stimuli/rescaled_final/0330_rv.mp4	0.0	234.37263894081116	2.500310182571411
50	222.1794114112854	pulse	1	t		48.0	2.5	/experiments/Knapen_AOT/AOT_stimuli/rescaled_final/0330_rv.mp4	0.0	235.9523754119873	
50	223.09998512268066	fix_post	2		12	48.0	2.5	/experiments/Knapen_AOT/AOT_stimuli/rescaled_final/0330_rv.mp4	0.0	236.87294912338257	0.10004115104675293
51	223.20002627372742	fix_pre	0		120	49.0	2.5	blank	1.0	236.97299027442932	1.0001342296600342
51	223.78357577323914	pulse	0	t		49.0	2.5	blank	1.0	237.55653977394104	
51	224.20016050338745	movie	1		300	49.0	2.5	blank	1.0	237.97312450408936	2.5003695487976074
51	225.37628149986267	pulse	1	t		49.0	2.5	blank	1.0	239.14924550056458	
51	226.70053005218506	fix_post	2		12	49.0	2.5	blank	1.0	240.47349405288696	0.10001349449157715
52	226.80054354667664	fix_pre	0		120	50.0	2.5	/experiments/Knapen_AOT/AOT_stimuli/rescaled_final/0738_fw.mp4	0.0	240.57350754737854	1.0001473426818848
52	226.97594261169434	pulse	0	t		50.0	2.5	/experiments/Knapen_AOT/AOT_stimuli/rescaled_final/0738_fw.mp4	0.0	240.74890661239624	
52	227.80069088935852	movie	1		300	50.0	2.5	/experiments/Knapen_AOT/AOT_stimuli/rescaled_final/0738_fw.mp4	0.0	241.57365489006042	2.5003747940063477
52	228.57607555389404	pulse	1	t		50.0	2.5	/experiments/Knapen_AOT/AOT_stimuli/rescaled_final/0738_fw.mp4	0.0	242.34903955459595	
52	230.17625784873962	pulse	1	t		50.0	2.5	/experiments/Knapen_AOT/AOT_stimuli/rescaled_final/0738_fw.mp4	0.0	243.94922184944153	
52	230.30106568336487	fix_post	2		12	50.0	2.5	/experiments/Knapen_AOT/AOT_stimuli/rescaled_final/0738_fw.mp4	0.0	244.07402968406677	0.10003447532653809
53	230.4011001586914	fix_pre	0		120	51.0	2.5	/experiments/Knapen_AOT/AOT_stimuli/rescaled_final/0855_rv.mp4	0.0	244.1740641593933	1.0001311302185059
53	231.4012312889099	movie	1		299	51.0	2.5	/experiments/Knapen_AOT/AOT_stimuli/rescaled_final/0855_rv.mp4	0.0	245.17419528961182	2.4920473098754883
53	231.77651119232178	pulse	1	t		51.0	2.5	/experiments/Knapen_AOT/AOT_stimuli/rescaled_final/0855_rv.mp4	0.0	245.54947519302368	
53	233.37667894363403	pulse	1	t		51.0	2.5	/experiments/Knapen_AOT/AOT_stimuli/rescaled_final/0855_rv.mp4	0.0	247.14964294433594	
53	233.8932785987854	fix_post	2		12	51.0	2.5	/experiments/Knapen_AOT/AOT_stimuli/rescaled_final/0855_rv.mp4	0.0	247.6662425994873	0.10001015663146973
54	233.99328875541687	fix_pre	0		119	52.0	2.5	/experiments/Knapen_AOT/AOT_stimuli/rescaled_final/0390_fw.mp4	0.0	247.76625275611877	0.9921219348907471
54	234.9768886566162	pulse	0	t		52.0	2.5	/experiments/Knapen_AOT/AOT_stimuli/rescaled_final/0390_fw.mp4	0.0	248.74985265731812	
54	234.98541069030762	movie	1		301	52.0	2.5	/experiments/Knapen_AOT/AOT_stimuli/rescaled_final/0390_fw.mp4	0.0	248.75837469100952	2.508409261703491
54	236.57730054855347	pulse	1	t		52.0	2.5	/experiments/Knapen_AOT/AOT_stimuli/rescaled_final/0390_fw.mp4	0.0	250.35026454925537	
54	237.4938199520111	fix_post	2		12	52.0	2.5	/experiments/Knapen_AOT/AOT_stimuli/rescaled_final/0390_fw.mp4	0.0	251.266783952713	0.10008072853088379
55	237.593900680542	fix_pre	0		120	53.0	2.5	/experiments/Knapen_AOT/AOT_stimuli/rescaled_final/0503_rv.mp4	0.0	251.3668646812439	1.000105857849121
55	238.17739820480347	pulse	0	t		53.0	2.5	/experiments/Knapen_AOT/AOT_stimuli/rescaled_final/0503_rv.mp4	0.0	251.95036220550537	
55	238.5940065383911	movie	1		300	53.0	2.5	/experiments/Knapen_AOT/AOT_stimuli/rescaled_final/0503_rv.mp4	0.0	252.36697053909302	2.500356912612915
55	239.77762699127197	pulse	1	t		53.0	2.5	/experiments/Knapen_AOT/AOT_stimuli/rescaled_final/0503_rv.mp4	0.0	253.55059099197388	
55	241.09436345100403	fix_post	2		12	53.0	2.5	/experiments/Knapen_AOT/AOT_stimuli/rescaled_final/0503_rv.mp4	0.0	254.86732745170593	0.1000211238861084
56	241.19438457489014	fix_pre	0		120	54.0	2.5	blank	1.0	254.96734857559204	1.0001323223114014
56	241.37795662879944	pulse	0	t		54.0	2.5	blank	1.0	255.15092062950134	
56	242.19451689720154	movie	1		300	54.0	2.5	blank	1.0	255.96748089790344	2.5004022121429443
56	242.97808718681335	pulse	1	t		54.0	2.5	blank	1.0	256.75105118751526	
56	244.57833194732666	pulse	1	t		54.0	2.5	blank	1.0	258.35129594802856	
56	244.69491910934448	fix_post	2		12	54.0	2.5	blank	1.0	258.4678831100464	0.10000896453857422
57	244.79492807388306	fix_pre	0		120	55.0	2.5	/experiments/Knapen_AOT/AOT_stimuli/rescaled_final/1955_rv.mp4	0.0	258.56789207458496	1.000243902206421
57	245.79517197608948	movie	1		299	55.0	2.5	/experiments/Knapen_AOT/AOT_stimuli/rescaled_final/1955_rv.mp4	0.0	259.5681359767914	2.4919357299804688
57	246.1786527633667	pulse	1	t		55.0	2.5	/experiments/Knapen_AOT/AOT_stimuli/rescaled_final/1955_rv.mp4	0.0	259.9516167640686	
57	247.7789011001587	pulse	1	t		55.0	2.5	/experiments/Knapen_AOT/AOT_stimuli/rescaled_final/1955_rv.mp4	0.0	261.5518651008606	
57	248.28710770606995	fix_post	2		12	55.0	2.5	/experiments/Knapen_AOT/AOT_stimuli/rescaled_final/1955_rv.mp4	0.0	262.06007170677185	0.10028624534606934
58	248.38739395141602	fix_pre	0		120	56.0	2.5	/experiments/Knapen_AOT/AOT_stimuli/rescaled_final/0912_rv.mp4	0.0	262.1603579521179	1.008225440979004
58	249.37913250923157	pulse	0	t		56.0	2.5	/experiments/Knapen_AOT/AOT_stimuli/rescaled_final/0912_rv.mp4	0.0	263.1520965099335	
58	249.39561939239502	movie	1		300	56.0	2.5	/experiments/Knapen_AOT/AOT_stimuli/rescaled_final/0912_rv.mp4	0.0	263.1685833930969	2.5003662109375
58	250.97941732406616	pulse	1	t		56.0	2.5	/experiments/Knapen_AOT/AOT_stimuli/rescaled_final/0912_rv.mp4	0.0	264.75238132476807	
58	251.89598560333252	fix_post	2		12	56.0	2.5	/experiments/Knapen_AOT/AOT_stimuli/rescaled_final/0912_rv.mp4	0.0	265.6689496040344	0.10006165504455566
59	251.99604725837708	fix_pre	0		120	57.0	2.5	/experiments/Knapen_AOT/AOT_stimuli/rescaled_final/0894_fw.mp4	0.0	265.769011259079	1.0000977516174316
59	252.5795271396637	pulse	0	t		57.0	2.5	/experiments/Knapen_AOT/AOT_stimuli/rescaled_final/0894_fw.mp4	0.0	266.3524911403656	
59	252.9961450099945	movie	1		300	57.0	2.5	/experiments/Knapen_AOT/AOT_stimuli/rescaled_final/0894_fw.mp4	0.0	266.7691090106964	2.5003762245178223
59	254.17980790138245	pulse	1	t		57.0	2.5	/experiments/Knapen_AOT/AOT_stimuli/rescaled_final/0894_fw.mp4	0.0	267.95277190208435	
59	255.49652123451233	fix_post	2		12	57.0	2.5	/experiments/Knapen_AOT/AOT_stimuli/rescaled_final/0894_fw.mp4	0.0	269.26948523521423	0.10001826286315918
60	255.5965394973755	fix_pre	0		120	58.0	2.5	/experiments/Knapen_AOT/AOT_stimuli/rescaled_final/0160_rv.mp4	0.0	269.3695034980774	1.0001764297485352
60	255.78002309799194	pulse	0	t		58.0	2.5	/experiments/Knapen_AOT/AOT_stimuli/rescaled_final/0160_rv.mp4	0.0	269.55298709869385	
60	256.596715927124	movie	1		300	58.0	2.5	/experiments/Knapen_AOT/AOT_stimuli/rescaled_final/0160_rv.mp4	0.0	270.3696799278259	2.5004425048828125
60	257.3802697658539	pulse	1	t		58.0	2.5	/experiments/Knapen_AOT/AOT_stimuli/rescaled_final/0160_rv.mp4	0.0	271.1532337665558	
60	258.98050475120544	pulse	1	t		58.0	2.5	/experiments/Knapen_AOT/AOT_stimuli/rescaled_final/0160_rv.mp4	0.0	272.75346875190735	
60	259.09715843200684	fix_post	2		12	58.0	2.5	/experiments/Knapen_AOT/AOT_stimuli/rescaled_final/0160_rv.mp4	0.0	272.87012243270874	0.09991455078125
61	259.1970729827881	fix_pre	0		120	59.0	2.5	/experiments/Knapen_AOT/AOT_stimuli/rescaled_final/0738_rv.mp4	0.0	272.97003698349	1.0001499652862549
61	260.19722294807434	movie	1		300	59.0	2.5	/experiments/Knapen_AOT/AOT_stimuli/rescaled_final/0738_rv.mp4	0.0	273.97018694877625	2.50038743019104
61	260.57708501815796	pulse	1	t		59.0	2.5	/experiments/Knapen_AOT/AOT_stimuli/rescaled_final/0738_rv.mp4	0.0	274.35004901885986	
61	262.17668533325195	pulse	1	t		59.0	2.5	/experiments/Knapen_AOT/AOT_stimuli/rescaled_final/0738_rv.mp4	0.0	275.94964933395386	
61	262.6976103782654	fix_post	2		12	59.0	2.5	/experiments/Knapen_AOT/AOT_stimuli/rescaled_final/0738_rv.mp4	0.0	276.4705743789673	0.1000375747680664
62	262.79764795303345	fix_pre	0		119	60.0	2.5	/experiments/Knapen_AOT/AOT_stimuli/rescaled_final/1373_fw.mp4	0.0	276.57061195373535	1.0001351833343506
62	263.7812762260437	pulse	0	t		60.0	2.5	/experiments/Knapen_AOT/AOT_stimuli/rescaled_final/1373_fw.mp4	0.0	277.5542402267456	
62	263.7977831363678	movie	1		300	60.0	2.5	/experiments/Knapen_AOT/AOT_stimuli/rescaled_final/1373_fw.mp4	0.0	277.5707471370697	2.5003650188446045
62	265.37763023376465	pulse	1	t		60.0	2.5	/experiments/Knapen_AOT/AOT_stimuli/rescaled_final/1373_fw.mp4	0.0	279.15059423446655	
62	266.2981481552124	fix_post	2		12	60.0	2.5	/experiments/Knapen_AOT/AOT_stimuli/rescaled_final/1373_fw.mp4	0.0	280.0711121559143	0.10003948211669922
63	266.3981876373291	fix_pre	0		120	61.0	2.5	/experiments/Knapen_AOT/AOT_stimuli/rescaled_final/1863_rv.mp4	0.0	280.171151638031	1.0001275539398193
63	266.9817216396332	pulse	0	t		61.0	2.5	/experiments/Knapen_AOT/AOT_stimuli/rescaled_final/1863_rv.mp4	0.0	280.7546856403351	
63	267.3983151912689	movie	1		300	61.0	2.5	/experiments/Knapen_AOT/AOT_stimuli/rescaled_final/1863_rv.mp4	0.0	281.1712791919708	2.5003745555877686
63	268.57773518562317	pulse	1	t		61.0	2.5	/experiments/Knapen_AOT/AOT_stimuli/rescaled_final/1863_rv.mp4	0.0	282.3506991863251	
63	269.8986897468567	fix_post	2		12	61.0	2.5	/experiments/Knapen_AOT/AOT_stimuli/rescaled_final/1863_rv.mp4	0.0	283.6716537475586	0.10004186630249023
64	269.9987316131592	fix_pre	0		120	62.0	2.5	/experiments/Knapen_AOT/AOT_stimuli/rescaled_final/1718_fw.mp4	0.0	283.7716956138611	1.0001251697540283
64	270.18222403526306	pulse	0	t		62.0	2.5	/experiments/Knapen_AOT/AOT_stimuli/rescaled_final/1718_fw.mp4	0.0	283.95518803596497	
64	270.9988567829132	movie	1		299	62.0	2.5	/experiments/Knapen_AOT/AOT_stimuli/rescaled_final/1718_fw.mp4	0.0	284.7718207836151	2.5003867149353027
64	271.77822637557983	pulse	1	t		62.0	2.5	/experiments/Knapen_AOT/AOT_stimuli/rescaled_final/1718_fw.mp4	0.0	285.55119037628174	
64	273.37852001190186	pulse	1	t		62.0	2.5	/experiments/Knapen_AOT/AOT_stimuli/rescaled_final/1718_fw.mp4	0.0	287.15148401260376	
64	273.4992434978485	fix_post	2		12	62.0	2.5	/experiments/Knapen_AOT/AOT_stimuli/rescaled_final/1718_fw.mp4	0.0	287.2722074985504	0.1000204086303711
65	273.5992639064789	fix_pre	0		120	63.0	2.5	blank	1.0	287.3722279071808	1.0001587867736816
65	274.59942269325256	movie	1		300	63.0	2.5	blank	1.0	288.37238669395447	2.500339984893799
65	274.9828767776489	pulse	1	t		63.0	2.5	blank	1.0	288.75584077835083	
65	276.5831220149994	pulse	1	t		63.0	2.5	blank	1.0	290.3560860157013	
65	277.09976267814636	fix_post	2		12	63.0	2.5	blank	1.0	290.87272667884827	0.10006141662597656
66	277.19982409477234	fix_pre	0		119	64.0	2.5	/experiments/Knapen_AOT/AOT_stimuli/rescaled_final/1241_fw.mp4	0.0	290.97278809547424	1.0001449584960938
66	278.1834132671356	pulse	0	t		64.0	2.5	/experiments/Knapen_AOT/AOT_stimuli/rescaled_final/1241_fw.mp4	0.0	291.9563772678375	
66	278.19996905326843	movie	1		300	64.0	2.5	/experiments/Knapen_AOT/AOT_stimuli/rescaled_final/1241_fw.mp4	0.0	291.97293305397034	2.500342845916748
66	279.77972435951233	pulse	1	t		64.0	2.5	/experiments/Knapen_AOT/AOT_stimuli/rescaled_final/1241_fw.mp4	0.0	293.55268836021423	
66	280.7003118991852	fix_post	2		12	64.0	2.5	/experiments/Knapen_AOT/AOT_stimuli/rescaled_final/1241_fw.mp4	0.0	294.4732758998871	0.10002541542053223
67	280.8003373146057	fix_pre	0		120	65.0	2.5	/experiments/Knapen_AOT/AOT_stimuli/rescaled_final/0889_fw.mp4	0.0	294.5733013153076	1.0001132488250732
67	281.38385367393494	pulse	0	t		65.0	2.5	/experiments/Knapen_AOT/AOT_stimuli/rescaled_final/0889_fw.mp4	0.0	295.15681767463684	
67	281.8004505634308	movie	1		300	65.0	2.5	/experiments/Knapen_AOT/AOT_stimuli/rescaled_final/0889_fw.mp4	0.0	295.5734145641327	2.5004031658172607
67	282.979855298996	pulse	1	t		65.0	2.5	/experiments/Knapen_AOT/AOT_stimuli/rescaled_final/0889_fw.mp4	0.0	296.7528192996979	
67	284.30085372924805	fix_post	2		12	65.0	2.5	/experiments/Knapen_AOT/AOT_stimuli/rescaled_final/0889_fw.mp4	0.0	298.07381772994995	0.10001683235168457
68	284.40087056159973	fix_pre	0		120	66.0	2.5	/experiments/Knapen_AOT/AOT_stimuli/rescaled_final/0348_fw.mp4	0.0	298.17383456230164	1.0001587867736816
68	284.5767014026642	pulse	0	t		66.0	2.5	/experiments/Knapen_AOT/AOT_stimuli/rescaled_final/0348_fw.mp4	0.0	298.3496654033661	
68	285.4010293483734	movie	1		300	66.0	2.5	/experiments/Knapen_AOT/AOT_stimuli/rescaled_final/0348_fw.mp4	0.0	299.1739933490753	2.5003678798675537
68	286.18020486831665	pulse	1	t		66.0	2.5	/experiments/Knapen_AOT/AOT_stimuli/rescaled_final/0348_fw.mp4	0.0	299.95316886901855	
68	287.7766058444977	pulse	1	t		66.0	2.5	/experiments/Knapen_AOT/AOT_stimuli/rescaled_final/0348_fw.mp4	0.0	301.5495698451996	
68	287.90139722824097	fix_post	2		12	66.0	2.5	/experiments/Knapen_AOT/AOT_stimuli/rescaled_final/0348_fw.mp4	0.0	301.67436122894287	0.10001134872436523
69	288.00140857696533	fix_pre	0		120	67.0	2.5	/experiments/Knapen_AOT/AOT_stimuli/rescaled_final/1165_rv.mp4	0.0	301.77437257766724	1.0001511573791504
69	289.0015597343445	movie	1		299	67.0	2.5	/experiments/Knapen_AOT/AOT_stimuli/rescaled_final/1165_rv.mp4	0.0	302.7745237350464	2.4920432567596436
69	289.376837015152	pulse	1	t		67.0	2.5	/experiments/Knapen_AOT/AOT_stimuli/rescaled_final/1165_rv.mp4	0.0	303.1498010158539	
69	290.9769983291626	pulse	1	t		67.0	2.5	/experiments/Knapen_AOT/AOT_stimuli/rescaled_final/1165_rv.mp4	0.0	304.7499623298645	
69	291.4936029911041	fix_post	2		12	67.0	2.5	/experiments/Knapen_AOT/AOT_stimuli/rescaled_final/1165_rv.mp4	0.0	305.26656699180603	0.10003042221069336
70	291.5936334133148	fix_pre	0		119	68.0	2.5	blank	1.0	305.3665974140167	0.9918038845062256
70	292.5772671699524	pulse	0	t		68.0	2.5	blank	1.0	306.3502311706543	
70	292.58543729782104	movie	1		301	68.0	2.5	blank	1.0	306.35840129852295	2.508699893951416
70	294.1774525642395	pulse	1	t		68.0	2.5	blank	1.0	307.9504165649414	
70	295.09413719177246	fix_post	2		12	68.0	2.5	blank	1.0	308.86710119247437	0.10003519058227539
71	295.19417238235474	fix_pre	0		120	69.0	2.5	/experiments/Knapen_AOT/AOT_stimuli/rescaled_final/1955_fw.mp4	0.0	308.96713638305664	1.0005080699920654
71	295.77772545814514	pulse	0	t		69.0	2.5	/experiments/Knapen_AOT/AOT_stimuli/rescaled_final/1955_fw.mp4	0.0	309.55068945884705	
71	296.1946804523468	movie	1		299	69.0	2.5	/experiments/Knapen_AOT/AOT_stimuli/rescaled_final/1955_fw.mp4	0.0	309.9676444530487	2.4999992847442627
71	297.3779709339142	pulse	1	t		69.0	2.5	/experiments/Knapen_AOT/AOT_stimuli/rescaled_final/1955_fw.mp4	0.0	311.1509349346161	
71	298.69467973709106	fix_post	2		12	69.0	2.5	/experiments/Knapen_AOT/AOT_stimuli/rescaled_final/1955_fw.mp4	0.0	312.46764373779297	0.10001826286315918
72	298.7946979999542	fix_pre	0		120	70.0	2.5	/experiments/Knapen_AOT/AOT_stimuli/rescaled_final/0962_rv.mp4	0.0	312.5676620006561	1.000152349472046
72	298.9782164096832	pulse	0	t		70.0	2.5	/experiments/Knapen_AOT/AOT_stimuli/rescaled_final/0962_rv.mp4	0.0	312.75118041038513	
72	299.79485034942627	movie	1		300	70.0	2.5	/experiments/Knapen_AOT/AOT_stimuli/rescaled_final/0962_rv.mp4	0.0	313.5678143501282	2.500372886657715
72	300.5784361362457	pulse	1	t		70.0	2.5	/experiments/Knapen_AOT/AOT_stimuli/rescaled_final/0962_rv.mp4	0.0	314.35140013694763	
72	302.17867732048035	pulse	1	t		70.0	2.5	/experiments/Knapen_AOT/AOT_stimuli/rescaled_final/0962_rv.mp4	0.0	315.95164132118225	
72	302.295223236084	fix_post	2		12	70.0	2.5	/experiments/Knapen_AOT/AOT_stimuli/rescaled_final/0962_rv.mp4	0.0	316.0681872367859	0.10001564025878906
73	302.3952388763428	fix_pre	0		120	71.0	2.5	/experiments/Knapen_AOT/AOT_stimuli/rescaled_final/2022_rv.mp4	0.0	316.1682028770447	1.0001530647277832
73	303.39539194107056	movie	1		300	71.0	2.5	/experiments/Knapen_AOT/AOT_stimuli/rescaled_final/2022_rv.mp4	0.0	317.16835594177246	2.5003767013549805
73	303.77892327308655	pulse	1	t		71.0	2.5	/experiments/Knapen_AOT/AOT_stimuli/rescaled_final/2022_rv.mp4	0.0	317.55188727378845	
73	305.3791642189026	pulse	1	t		71.0	2.5	/experiments/Knapen_AOT/AOT_stimuli/rescaled_final/2022_rv.mp4	0.0	319.1521282196045	
73	305.89576864242554	fix_post	2		12	71.0	2.5	/experiments/Knapen_AOT/AOT_stimuli/rescaled_final/2022_rv.mp4	0.0	319.66873264312744	0.10001206398010254
74	305.99578070640564	fix_pre	0		119	72.0	2.5	/experiments/Knapen_AOT/AOT_stimuli/rescaled_final/1872_rv.mp4	0.0	319.76874470710754	0.9921929836273193
74	306.97942566871643	pulse	0	t		72.0	2.5	/experiments/Knapen_AOT/AOT_stimuli/rescaled_final/1872_rv.mp4	0.0	320.75238966941833	
74	306.98797369003296	movie	1		301	72.0	2.5	/experiments/Knapen_AOT/AOT_stimuli/rescaled_final/1872_rv.mp4	0.0	320.76093769073486	2.5083515644073486
74	308.5797679424286	pulse	1	t		72.0	2.5	/experiments/Knapen_AOT/AOT_stimuli/rescaled_final/1872_rv.mp4	0.0	322.3527319431305	
74	309.4963252544403	fix_post	2		12	72.0	2.5	/experiments/Knapen_AOT/AOT_stimuli/rescaled_final/1872_rv.mp4	0.0	323.2692892551422	0.09999370574951172
75	309.5963189601898	fix_pre	0		120	73.0	2.5	/experiments/Knapen_AOT/AOT_stimuli/rescaled_final/0045_rv.mp4	0.0	323.3692829608917	1.0001451969146729
75	310.17989563941956	pulse	0	t		73.0	2.5	/experiments/Knapen_AOT/AOT_stimuli/rescaled_final/0045_rv.mp4	0.0	323.95285964012146	
75	310.5964641571045	movie	1		300	73.0	2.5	/experiments/Knapen_AOT/AOT_stimuli/rescaled_final/0045_rv.mp4	0.0	324.3694281578064	2.5003767013549805
75	311.7801704406738	pulse	1	t		73.0	2.5	/experiments/Knapen_AOT/AOT_stimuli/rescaled_final/0045_rv.mp4	0.0	325.55313444137573	
75	313.0968408584595	fix_post	2		12	73.0	2.5	/experiments/Knapen_AOT/AOT_stimuli/rescaled_final/0045_rv.mp4	0.0	326.8698048591614	0.10003352165222168
76	313.1968743801117	fix_pre	0		120	74.0	2.5	/experiments/Knapen_AOT/AOT_stimuli/rescaled_final/0115_rv.mp4	0.0	326.9698383808136	1.0001323223114014
76	313.38032722473145	pulse	0	t		74.0	2.5	/experiments/Knapen_AOT/AOT_stimuli/rescaled_final/0115_rv.mp4	0.0	327.15329122543335	
76	314.1970067024231	movie	1		300	74.0	2.5	/experiments/Knapen_AOT/AOT_stimuli/rescaled_final/0115_rv.mp4	0.0	327.969970703125	2.5003814697265625
76	314.9806730747223	pulse	1	t		74.0	2.5	/experiments/Knapen_AOT/AOT_stimuli/rescaled_final/0115_rv.mp4	0.0	328.7536370754242	
76	316.58087062835693	pulse	1	t		74.0	2.5	/experiments/Knapen_AOT/AOT_stimuli/rescaled_final/0115_rv.mp4	0.0	330.35383462905884	
76	316.69738817214966	fix_post	2		12	74.0	2.5	/experiments/Knapen_AOT/AOT_stimuli/rescaled_final/0115_rv.mp4	0.0	330.47035217285156	0.1000206470489502
77	316.7974088191986	fix_pre	0		120	75.0	2.5	blank	1.0	330.5703728199005	1.0001537799835205
77	317.79756259918213	movie	1		299	75.0	2.5	blank	1.0	331.57052659988403	2.492047071456909
77	318.1810710430145	pulse	1	t		75.0	2.5	blank	1.0	331.95403504371643	
77	319.78132367134094	pulse	1	t		75.0	2.5	blank	1.0	333.55428767204285	
77	320.28960967063904	fix_post	2		12	75.0	2.5	blank	1.0	334.06257367134094	0.1000208854675293
78	320.38963055610657	fix_pre	0		120	76.0	2.5	/experiments/Knapen_AOT/AOT_stimuli/rescaled_final/0855_rv.mp4	0.0	334.1625945568085	1.0084857940673828
78	321.3815441131592	pulse	0	t		76.0	2.5	/experiments/Knapen_AOT/AOT_stimuli/rescaled_final/0855_rv.mp4	0.0	335.1545081138611	
78	321.39811635017395	movie	1		300	76.0	2.5	/experiments/Knapen_AOT/AOT_stimuli/rescaled_final/0855_rv.mp4	0.0	335.17108035087585	2.500354290008545
78	322.97842741012573	pulse	1	t		76.0	2.5	/experiments/Knapen_AOT/AOT_stimuli/rescaled_final/0855_rv.mp4	0.0	336.75139141082764	
78	323.8984706401825	fix_post	2		12	76.0	2.5	/experiments/Knapen_AOT/AOT_stimuli/rescaled_final/0855_rv.mp4	0.0	337.6714346408844	0.10003161430358887
79	323.9985022544861	fix_pre	0		120	77.0	2.5	/experiments/Knapen_AOT/AOT_stimuli/rescaled_final/1607_fw.mp4	0.0	337.771466255188	1.0002737045288086
79	324.5821053981781	pulse	0	t		77.0	2.5	/experiments/Knapen_AOT/AOT_stimuli/rescaled_final/1607_fw.mp4	0.0	338.35506939888	
79	324.9987759590149	movie	1		300	77.0	2.5	/experiments/Knapen_AOT/AOT_stimuli/rescaled_final/1607_fw.mp4	0.0	338.7717399597168	2.5002338886260986
79	326.17801570892334	pulse	1	t		77.0	2.5	/experiments/Knapen_AOT/AOT_stimuli/rescaled_final/1607_fw.mp4	0.0	339.95097970962524	
79	327.499009847641	fix_post	2		12	77.0	2.5	/experiments/Knapen_AOT/AOT_stimuli/rescaled_final/1607_fw.mp4	0.0	341.2719738483429	0.10001468658447266
80	327.59902453422546	fix_pre	0		120	78.0	2.5	/experiments/Knapen_AOT/AOT_stimuli/rescaled_final/2129_rv.mp4	0.0	341.37198853492737	1.0001471042633057
80	327.78254866600037	pulse	0	t		78.0	2.5	/experiments/Knapen_AOT/AOT_stimuli/rescaled_final/2129_rv.mp4	0.0	341.55551266670227	
80	328.59917163848877	movie	1		300	78.0	2.5	/experiments/Knapen_AOT/AOT_stimuli/rescaled_final/2129_rv.mp4	0.0	342.3721356391907	2.5003790855407715
80	329.37850403785706	pulse	1	t		78.0	2.5	/experiments/Knapen_AOT/AOT_stimuli/rescaled_final/2129_rv.mp4	0.0	343.15146803855896	
80	330.9789516925812	pulse	1	t		78.0	2.5	/experiments/Knapen_AOT/AOT_stimuli/rescaled_final/2129_rv.mp4	0.0	344.7519156932831	
80	331.09955072402954	fix_post	2		12	78.0	2.5	/experiments/Knapen_AOT/AOT_stimuli/rescaled_final/2129_rv.mp4	0.0	344.87251472473145	0.10002017021179199
81	331.19957089424133	fix_pre	0		120	79.0	2.5	/experiments/Knapen_AOT/AOT_stimuli/rescaled_final/0064_fw.mp4	0.0	344.97253489494324	1.0001466274261475
81	332.1997175216675	movie	1		299	79.0	2.5	/experiments/Knapen_AOT/AOT_stimuli/rescaled_final/0064_fw.mp4	0.0	345.9726815223694	2.4920339584350586
81	332.5791811943054	pulse	1	t		79.0	2.5	/experiments/Knapen_AOT/AOT_stimuli/rescaled_final/0064_fw.mp4	0.0	346.3521451950073	
81	334.17900013923645	pulse	1	t		79.0	2.5	/experiments/Knapen_AOT/AOT_stimuli/rescaled_final/0064_fw.mp4	0.0	347.95196413993835	
81	334.69175148010254	fix_post	2		12	79.0	2.5	/experiments/Knapen_AOT/AOT_stimuli/rescaled_final/0064_fw.mp4	0.0	348.46471548080444	0.10001850128173828
82	334.7917699813843	fix_pre	0		120	80.0	2.5	/experiments/Knapen_AOT/AOT_stimuli/rescaled_final/0467_fw.mp4	0.0	348.5647339820862	1.0005269050598145
82	335.7837209701538	pulse	0	t		80.0	2.5	/experiments/Knapen_AOT/AOT_stimuli/rescaled_final/0467_fw.mp4	0.0	349.5566849708557	
82	335.7922968864441	movie	1		301	80.0	2.5	/experiments/Knapen_AOT/AOT_stimuli/rescaled_final/0467_fw.mp4	0.0	349.565260887146	2.5083401203155518
82	337.3803255558014	pulse	1	t		80.0	2.5	/experiments/Knapen_AOT/AOT_stimuli/rescaled_final/0467_fw.mp4	0.0	351.1532895565033	
82	338.30063700675964	fix_post	2		12	80.0	2.5	/experiments/Knapen_AOT/AOT_stimuli/rescaled_final/0467_fw.mp4	0.0	352.07360100746155	0.10001873970031738
83	338.40065574645996	fix_pre	0		120	81.0	2.5	/experiments/Knapen_AOT/AOT_stimuli/rescaled_final/0625_fw.mp4	0.0	352.17361974716187	1.0001461505889893
83	338.9842462539673	pulse	0	t		81.0	2.5	/experiments/Knapen_AOT/AOT_stimuli/rescaled_final/0625_fw.mp4	0.0	352.7572102546692	
83	339.40080189704895	movie	1		300	81.0	2.5	/experiments/Knapen_AOT/AOT_stimuli/rescaled_final/0625_fw.mp4	0.0	353.17376589775085	2.500385046005249
83	340.5802221298218	pulse	1	t		81.0	2.5	/experiments/Knapen_AOT/AOT_stimuli/rescaled_final/0625_fw.mp4	0.0	354.3531861305237	
83	341.9011869430542	fix_post	2		12	81.0	2.5	/experiments/Knapen_AOT/AOT_stimuli/rescaled_final/0625_fw.mp4	0.0	355.6741509437561	0.10004568099975586
84	342.00123262405396	fix_pre	0		120	82.0	2.5	/experiments/Knapen_AOT/AOT_stimuli/rescaled_final/0658_fw.mp4	0.0	355.77419662475586	1.000112771987915
84	342.1846876144409	pulse	0	t		82.0	2.5	/experiments/Knapen_AOT/AOT_stimuli/rescaled_final/0658_fw.mp4	0.0	355.9576516151428	
84	343.00134539604187	movie	1		300	82.0	2.5	/experiments/Knapen_AOT/AOT_stimuli/rescaled_final/0658_fw.mp4	0.0	356.7743093967438	2.50038480758667
84	343.78062534332275	pulse	1	t		82.0	2.5	/experiments/Knapen_AOT/AOT_stimuli/rescaled_final/0658_fw.mp4	0.0	357.55358934402466	
84	345.3770000934601	pulse	1	t		82.0	2.5	/experiments/Knapen_AOT/AOT_stimuli/rescaled_final/0658_fw.mp4	0.0	359.149964094162	
84	345.50173020362854	fix_post	2		12	82.0	2.5	/experiments/Knapen_AOT/AOT_stimuli/rescaled_final/0658_fw.mp4	0.0	359.27469420433044	0.09999513626098633
85	345.6017253398895	fix_pre	0		120	83.0	2.5	blank	1.0	359.37468934059143	1.0001623630523682
85	346.6018877029419	movie	1		299	83.0	2.5	blank	1.0	360.3748517036438	2.4920291900634766
85	346.97711992263794	pulse	1	t		83.0	2.5	blank	1.0	360.75008392333984	
85	348.57731580734253	pulse	1	t		83.0	2.5	blank	1.0	362.35027980804443	
85	349.09391689300537	fix_post	2		12	83.0	2.5	blank	1.0	362.8668808937073	0.10006332397460938
87	349.19398021698	stim	0		1716					362.9669442176819	14.302103519439697
87	350.17755699157715	pulse	0	t						363.95052099227905	
87	351.7777659893036	pulse	0	t						365.5507299900055	
87	353.3780415058136	pulse	0	t						367.1510055065155	
87	354.97829413414	pulse	0	t						368.7512581348419	
87	356.5785460472107	pulse	0	t						370.3515100479126	
87	358.1787679195404	pulse	0	t						371.9517319202423	
87	359.7789602279663	pulse	0	t						373.5519242286682	
87	361.379207611084	pulse	0	t						375.1521716117859	
87	362.97950053215027	pulse	0	t						376.7524645328522	
