trial_nr	onset	event_type	phase	response	nr_frames	movie_index	movie_duration	movie_file	blank	onset_abs	duration
0	0.18340706825256348	stim	0		436					143.20450806617737	3.633765935897827
0	3.809069871902466	response	0	space						146.83017086982727	
1	3.8171730041503906	stim	0		8784					146.8382740020752	73.22123503684998
1	77.0285439491272	pulse	0	t						220.049644947052	
1	77.03840804100037	stim	1		1715					220.05950903892517	14.300087928771973
1	78.62012791633606	pulse	1	t						221.64122891426086	
1	80.2203528881073	pulse	1	t						223.2414538860321	
1	81.82055807113647	pulse	1	t						224.84165906906128	
1	83.42089605331421	pulse	1	t						226.441997051239	
1	85.0210690498352	pulse	1	t						228.04217004776	
1	86.62126994132996	pulse	1	t						229.64237093925476	
1	88.22156095504761	pulse	1	t						231.2426619529724	
1	89.82170987129211	pulse	1	t						232.84281086921692	
2	91.33849596977234	fix_pre	0		11	0.0	2.5	/experiments/knapen_AOT/AOT_stimuli/rescaled_final/0291_fw.mp4	0.0	234.35959696769714	0.09166908264160156
2	91.4220540523529	pulse	0	t		0.0	2.5	/experiments/knapen_AOT/AOT_stimuli/rescaled_final/0291_fw.mp4	0.0	234.4431550502777	
2	91.43016505241394	movie	1		245	0.0	2.5	/experiments/knapen_AOT/AOT_stimuli/rescaled_final/0291_fw.mp4	0.0	234.45126605033875	2.5087008476257324
2	93.02285695075989	pulse	1	t		0.0	2.5	/experiments/knapen_AOT/AOT_stimuli/rescaled_final/0291_fw.mp4	0.0	236.0439579486847	
2	93.93886590003967	fix_post	2		12	0.0	2.5	/experiments/knapen_AOT/AOT_stimuli/rescaled_final/0291_fw.mp4	0.0	236.95996689796448	0.10002803802490234
3	94.03889393806458	fix_pre	0		120	1.0	2.5	/experiments/knapen_AOT/AOT_stimuli/rescaled_final/0589_fw.mp4	0.0	237.05999493598938	1.000169038772583
3	94.62254905700684	pulse	0	t		1.0	2.5	/experiments/knapen_AOT/AOT_stimuli/rescaled_final/0589_fw.mp4	0.0	237.64365005493164	
3	95.03906297683716	movie	1		246	1.0	2.5	/experiments/knapen_AOT/AOT_stimuli/rescaled_final/0589_fw.mp4	0.0	238.06016397476196	2.5003468990325928
3	96.22281193733215	pulse	1	t		1.0	2.5	/experiments/knapen_AOT/AOT_stimuli/rescaled_final/0589_fw.mp4	0.0	239.24391293525696	
3	97.53940987586975	fix_post	2		12	1.0	2.5	/experiments/knapen_AOT/AOT_stimuli/rescaled_final/0589_fw.mp4	0.0	240.56051087379456	0.10001301765441895
4	97.63942289352417	fix_pre	0		120	2.0	2.5	/experiments/knapen_AOT/AOT_stimuli/rescaled_final/1395_fw.mp4	0.0	240.66052389144897	1.0001540184020996
4	97.8230299949646	pulse	0	t		2.0	2.5	/experiments/knapen_AOT/AOT_stimuli/rescaled_final/1395_fw.mp4	0.0	240.8441309928894	
4	98.63957691192627	movie	1		244	2.0	2.5	/experiments/knapen_AOT/AOT_stimuli/rescaled_final/1395_fw.mp4	0.0	241.66067790985107	2.500399112701416
4	99.42323088645935	pulse	1	t		2.0	2.5	/experiments/knapen_AOT/AOT_stimuli/rescaled_final/1395_fw.mp4	0.0	242.44433188438416	
4	101.02358794212341	pulse	1	t		2.0	2.5	/experiments/knapen_AOT/AOT_stimuli/rescaled_final/1395_fw.mp4	0.0	244.04468894004822	
4	101.13997602462769	fix_post	2		12	2.0	2.5	/experiments/knapen_AOT/AOT_stimuli/rescaled_final/1395_fw.mp4	0.0	244.1610770225525	0.09998488426208496
5	101.23996090888977	fix_pre	0		120	3.0	2.5	/experiments/knapen_AOT/AOT_stimuli/rescaled_final/0279_rv.mp4	0.0	244.26106190681458	1.0001580715179443
5	102.24011898040771	movie	1		243	3.0	2.5	/experiments/knapen_AOT/AOT_stimuli/rescaled_final/0279_rv.mp4	0.0	245.26121997833252	2.492103099822998
5	102.62801694869995	pulse	1	t		3.0	2.5	/experiments/knapen_AOT/AOT_stimuli/rescaled_final/0279_rv.mp4	0.0	245.64911794662476	
5	104.22411394119263	pulse	1	t		3.0	2.5	/experiments/knapen_AOT/AOT_stimuli/rescaled_final/0279_rv.mp4	0.0	247.24521493911743	
5	104.73222208023071	fix_post	2		12	3.0	2.5	/experiments/knapen_AOT/AOT_stimuli/rescaled_final/0279_rv.mp4	0.0	247.75332307815552	0.09994292259216309
6	104.83216500282288	fix_pre	0		120	4.0	2.5	/experiments/knapen_AOT/AOT_stimuli/rescaled_final/0968_fw.mp4	0.0	247.85326600074768	1.0002000331878662
6	105.82419896125793	pulse	0	t		4.0	2.5	/experiments/knapen_AOT/AOT_stimuli/rescaled_final/0968_fw.mp4	0.0	248.84529995918274	
6	105.83236503601074	movie	1		245	4.0	2.5	/experiments/knapen_AOT/AOT_stimuli/rescaled_final/0968_fw.mp4	0.0	248.85346603393555	2.508643865585327
6	107.42574286460876	pulse	1	t		4.0	2.5	/experiments/knapen_AOT/AOT_stimuli/rescaled_final/0968_fw.mp4	0.0	250.44684386253357	
6	108.34100890159607	fix_post	2		12	4.0	2.5	/experiments/knapen_AOT/AOT_stimuli/rescaled_final/0968_fw.mp4	0.0	251.36210989952087	0.10004401206970215
7	108.44105291366577	fix_pre	0		120	5.0	2.5	blank	1.0	251.46215391159058	1.0002050399780273
7	109.02467393875122	pulse	0	t		5.0	2.5	blank	1.0	252.04577493667603	
7	109.4412579536438	movie	1		300	5.0	2.5	blank	1.0	252.4623589515686	2.5003199577331543
7	110.61748385429382	pulse	1	t		5.0	2.5	blank	1.0	253.63858485221863	
7	111.94157791137695	fix_post	2		12	5.0	2.5	blank	1.0	254.96267890930176	0.1000051498413086
8	112.04158306121826	fix_pre	0		120	6.0	2.5	/experiments/knapen_AOT/AOT_stimuli/rescaled_final/1894_rv.mp4	0.0	255.06268405914307	1.000166893005371
8	112.2252049446106	pulse	0	t		6.0	2.5	/experiments/knapen_AOT/AOT_stimuli/rescaled_final/1894_rv.mp4	0.0	255.2463059425354	
8	113.04174995422363	movie	1		244	6.0	2.5	/experiments/knapen_AOT/AOT_stimuli/rescaled_final/1894_rv.mp4	0.0	256.06285095214844	2.500412940979004
8	113.81802701950073	pulse	1	t		6.0	2.5	/experiments/knapen_AOT/AOT_stimuli/rescaled_final/1894_rv.mp4	0.0	256.83912801742554	
8	115.4257230758667	pulse	1	t		6.0	2.5	/experiments/knapen_AOT/AOT_stimuli/rescaled_final/1894_rv.mp4	0.0	258.4468240737915	
8	115.54216289520264	fix_post	2		12	6.0	2.5	/experiments/knapen_AOT/AOT_stimuli/rescaled_final/1894_rv.mp4	0.0	258.56326389312744	0.09995698928833008
9	115.64211988449097	fix_pre	0		120	7.0	2.5	/experiments/knapen_AOT/AOT_stimuli/rescaled_final/0478_fw.mp4	0.0	258.66322088241577	1.0001351833343506
9	116.64225506782532	movie	1		243	7.0	2.5	/experiments/knapen_AOT/AOT_stimuli/rescaled_final/0478_fw.mp4	0.0	259.6633560657501	2.4920718669891357
9	117.01756191253662	pulse	1	t		7.0	2.5	/experiments/knapen_AOT/AOT_stimuli/rescaled_final/0478_fw.mp4	0.0	260.0386629104614	
9	118.61780095100403	pulse	1	t		7.0	2.5	/experiments/knapen_AOT/AOT_stimuli/rescaled_final/0478_fw.mp4	0.0	261.63890194892883	
9	119.13432693481445	fix_post	2		12	7.0	2.5	/experiments/knapen_AOT/AOT_stimuli/rescaled_final/0478_fw.mp4	0.0	262.15542793273926	0.1000051498413086
10	119.23433208465576	fix_pre	0		119	8.0	2.5	/experiments/knapen_AOT/AOT_stimuli/rescaled_final/1043_rv.mp4	0.0	262.25543308258057	0.9918038845062256
10	120.21805787086487	pulse	0	t		8.0	2.5	/experiments/knapen_AOT/AOT_stimuli/rescaled_final/1043_rv.mp4	0.0	263.2391588687897	
10	120.22613596916199	movie	1		243	8.0	2.5	/experiments/knapen_AOT/AOT_stimuli/rescaled_final/1043_rv.mp4	0.0	263.2472369670868	2.508699893951416
10	121.81854391098022	pulse	1	t		8.0	2.5	/experiments/knapen_AOT/AOT_stimuli/rescaled_final/1043_rv.mp4	0.0	264.83964490890503	
10	122.7348358631134	fix_post	2		12	8.0	2.5	/experiments/knapen_AOT/AOT_stimuli/rescaled_final/1043_rv.mp4	0.0	265.7559368610382	0.10004520416259766
11	122.834881067276	fix_pre	0		120	9.0	2.5	/experiments/knapen_AOT/AOT_stimuli/rescaled_final/0892_rv.mp4	0.0	265.8559820652008	1.0001258850097656
11	123.41848301887512	pulse	0	t		9.0	2.5	/experiments/knapen_AOT/AOT_stimuli/rescaled_final/0892_rv.mp4	0.0	266.4395840167999	
11	123.83500695228577	movie	1		243	9.0	2.5	/experiments/knapen_AOT/AOT_stimuli/rescaled_final/0892_rv.mp4	0.0	266.85610795021057	2.500368118286133
11	125.0188319683075	pulse	1	t		9.0	2.5	/experiments/knapen_AOT/AOT_stimuli/rescaled_final/0892_rv.mp4	0.0	268.0399329662323	
11	126.3353750705719	fix_post	2		12	9.0	2.5	/experiments/knapen_AOT/AOT_stimuli/rescaled_final/0892_rv.mp4	0.0	269.3564760684967	0.10001492500305176
12	126.43538999557495	fix_pre	0		120	10.0	2.5	/experiments/knapen_AOT/AOT_stimuli/rescaled_final/2145_fw.mp4	0.0	269.45649099349976	1.0001499652862549
12	126.61896991729736	pulse	0	t		10.0	2.5	/experiments/knapen_AOT/AOT_stimuli/rescaled_final/2145_fw.mp4	0.0	269.64007091522217	
12	127.4355399608612	movie	1		244	10.0	2.5	/experiments/knapen_AOT/AOT_stimuli/rescaled_final/2145_fw.mp4	0.0	270.456640958786	2.500356912612915
12	128.2192029953003	pulse	1	t		10.0	2.5	/experiments/knapen_AOT/AOT_stimuli/rescaled_final/2145_fw.mp4	0.0	271.2403039932251	
12	129.81961703300476	pulse	1	t		10.0	2.5	/experiments/knapen_AOT/AOT_stimuli/rescaled_final/2145_fw.mp4	0.0	272.84071803092957	
12	129.93589687347412	fix_post	2		12	10.0	2.5	/experiments/knapen_AOT/AOT_stimuli/rescaled_final/2145_fw.mp4	0.0	272.9569978713989	0.10008502006530762
13	130.03598189353943	fix_pre	0		120	11.0	2.5	/experiments/knapen_AOT/AOT_stimuli/rescaled_final/1415_fw.mp4	0.0	273.05708289146423	1.0000970363616943
13	131.03607892990112	movie	1		242	11.0	2.5	/experiments/knapen_AOT/AOT_stimuli/rescaled_final/1415_fw.mp4	0.0	274.0571799278259	2.4921340942382812
13	131.4203929901123	pulse	1	t		11.0	2.5	/experiments/knapen_AOT/AOT_stimuli/rescaled_final/1415_fw.mp4	0.0	274.4414939880371	
13	133.02004504203796	pulse	1	t		11.0	2.5	/experiments/knapen_AOT/AOT_stimuli/rescaled_final/1415_fw.mp4	0.0	276.04114603996277	
13	133.5282130241394	fix_post	2		12	11.0	2.5	/experiments/knapen_AOT/AOT_stimuli/rescaled_final/1415_fw.mp4	0.0	276.5493140220642	0.09995603561401367
14	133.62816905975342	fix_pre	0		120	12.0	2.5	/experiments/knapen_AOT/AOT_stimuli/rescaled_final/2078_rv.mp4	0.0	276.6492700576782	1.0001449584960938
14	134.6202039718628	pulse	0	t		12.0	2.5	/experiments/knapen_AOT/AOT_stimuli/rescaled_final/2078_rv.mp4	0.0	277.6413049697876	
14	134.6283140182495	movie	1		244	12.0	2.5	/experiments/knapen_AOT/AOT_stimuli/rescaled_final/2078_rv.mp4	0.0	277.6494150161743	2.508668899536133
14	136.22106885910034	pulse	1	t		12.0	2.5	/experiments/knapen_AOT/AOT_stimuli/rescaled_final/2078_rv.mp4	0.0	279.24216985702515	
14	137.13698291778564	fix_post	2		12	12.0	2.5	/experiments/knapen_AOT/AOT_stimuli/rescaled_final/2078_rv.mp4	0.0	280.15808391571045	0.10001802444458008
15	137.23700094223022	fix_pre	0		120	13.0	2.5	blank	1.0	280.25810194015503	1.000157117843628
15	137.8205919265747	pulse	0	t		13.0	2.5	blank	1.0	280.8416929244995	
15	138.23715806007385	movie	1		300	13.0	2.5	blank	1.0	281.25825905799866	2.5003738403320312
15	139.4209189414978	pulse	1	t		13.0	2.5	blank	1.0	282.4420199394226	
15	140.73753190040588	fix_post	2		12	13.0	2.5	blank	1.0	283.7586328983307	0.10000300407409668
16	140.83753490447998	fix_pre	0		120	14.0	2.5	/experiments/knapen_AOT/AOT_stimuli/rescaled_final/0304_fw.mp4	0.0	283.8586359024048	1.0001890659332275
16	141.02119708061218	pulse	0	t		14.0	2.5	/experiments/knapen_AOT/AOT_stimuli/rescaled_final/0304_fw.mp4	0.0	284.042298078537	
16	141.8377239704132	movie	1		244	14.0	2.5	/experiments/knapen_AOT/AOT_stimuli/rescaled_final/0304_fw.mp4	0.0	284.858824968338	2.500330924987793
16	142.62142395973206	pulse	1	t		14.0	2.5	/experiments/knapen_AOT/AOT_stimuli/rescaled_final/0304_fw.mp4	0.0	285.64252495765686	
16	144.22163701057434	pulse	1	t		14.0	2.5	/experiments/knapen_AOT/AOT_stimuli/rescaled_final/0304_fw.mp4	0.0	287.24273800849915	
16	144.338054895401	fix_post	2		12	14.0	2.5	/experiments/knapen_AOT/AOT_stimuli/rescaled_final/0304_fw.mp4	0.0	287.3591558933258	0.10007810592651367
17	144.43813300132751	fix_pre	0		120	15.0	2.5	/experiments/knapen_AOT/AOT_stimuli/rescaled_final/0945_fw.mp4	0.0	287.4592339992523	1.0000770092010498
17	145.43821001052856	movie	1		243	15.0	2.5	/experiments/knapen_AOT/AOT_stimuli/rescaled_final/0945_fw.mp4	0.0	288.45931100845337	2.4920239448547363
17	145.82248306274414	pulse	1	t		15.0	2.5	/experiments/knapen_AOT/AOT_stimuli/rescaled_final/0945_fw.mp4	0.0	288.84358406066895	
17	147.42223596572876	pulse	1	t		15.0	2.5	/experiments/knapen_AOT/AOT_stimuli/rescaled_final/0945_fw.mp4	0.0	290.44333696365356	
17	147.9302339553833	fix_post	2		12	15.0	2.5	/experiments/knapen_AOT/AOT_stimuli/rescaled_final/0945_fw.mp4	0.0	290.9513349533081	0.10006499290466309
18	148.03029894828796	fix_pre	0		120	16.0	2.5	/experiments/knapen_AOT/AOT_stimuli/rescaled_final/1989_fw.mp4	0.0	291.05139994621277	1.000133991241455
18	149.02238488197327	pulse	0	t		16.0	2.5	/experiments/knapen_AOT/AOT_stimuli/rescaled_final/1989_fw.mp4	0.0	292.04348587989807	
18	149.03043293952942	movie	1		246	16.0	2.5	/experiments/knapen_AOT/AOT_stimuli/rescaled_final/1989_fw.mp4	0.0	292.0515339374542	2.508697986602783
18	150.62354493141174	pulse	1	t		16.0	2.5	/experiments/knapen_AOT/AOT_stimuli/rescaled_final/1989_fw.mp4	0.0	293.64464592933655	
18	151.5391309261322	fix_post	2		12	16.0	2.5	/experiments/knapen_AOT/AOT_stimuli/rescaled_final/1989_fw.mp4	0.0	294.560231924057	0.10014200210571289
19	151.63927292823792	fix_pre	0		120	17.0	2.5	/experiments/knapen_AOT/AOT_stimuli/rescaled_final/0223_fw.mp4	0.0	294.6603739261627	1.0000510215759277
19	152.22273588180542	pulse	0	t		17.0	2.5	/experiments/knapen_AOT/AOT_stimuli/rescaled_final/0223_fw.mp4	0.0	295.2438368797302	
19	152.63932394981384	movie	1		243	17.0	2.5	/experiments/knapen_AOT/AOT_stimuli/rescaled_final/0223_fw.mp4	0.0	295.66042494773865	2.5003349781036377
19	153.8231918811798	pulse	1	t		17.0	2.5	/experiments/knapen_AOT/AOT_stimuli/rescaled_final/0223_fw.mp4	0.0	296.8442928791046	
19	155.13965892791748	fix_post	2		12	17.0	2.5	/experiments/knapen_AOT/AOT_stimuli/rescaled_final/0223_fw.mp4	0.0	298.1607599258423	0.10003209114074707
20	155.23969101905823	fix_pre	0		120	18.0	2.5	/experiments/knapen_AOT/AOT_stimuli/rescaled_final/0268_rv.mp4	0.0	298.26079201698303	1.0001568794250488
20	155.42335200309753	pulse	0	t		18.0	2.5	/experiments/knapen_AOT/AOT_stimuli/rescaled_final/0268_rv.mp4	0.0	298.44445300102234	
20	156.23984789848328	movie	1		244	18.0	2.5	/experiments/knapen_AOT/AOT_stimuli/rescaled_final/0268_rv.mp4	0.0	299.2609488964081	2.5004520416259766
20	157.02350687980652	pulse	1	t		18.0	2.5	/experiments/knapen_AOT/AOT_stimuli/rescaled_final/0268_rv.mp4	0.0	300.0446078777313	
20	158.62388706207275	pulse	1	t		18.0	2.5	/experiments/knapen_AOT/AOT_stimuli/rescaled_final/0268_rv.mp4	0.0	301.64498805999756	
20	158.74029994010925	fix_post	2		12	18.0	2.5	/experiments/knapen_AOT/AOT_stimuli/rescaled_final/0268_rv.mp4	0.0	301.76140093803406	0.09991812705993652
21	158.8402180671692	fix_pre	0		120	19.0	2.5	/experiments/knapen_AOT/AOT_stimuli/rescaled_final/1855_rv.mp4	0.0	301.861319065094	1.0001490116119385
21	159.84036707878113	movie	1		242	19.0	2.5	/experiments/knapen_AOT/AOT_stimuli/rescaled_final/1855_rv.mp4	0.0	302.86146807670593	2.492004871368408
21	160.22433185577393	pulse	1	t		19.0	2.5	/experiments/knapen_AOT/AOT_stimuli/rescaled_final/1855_rv.mp4	0.0	303.24543285369873	
21	161.82433891296387	pulse	1	t		19.0	2.5	/experiments/knapen_AOT/AOT_stimuli/rescaled_final/1855_rv.mp4	0.0	304.8454399108887	
21	162.33237195014954	fix_post	2		12	19.0	2.5	/experiments/knapen_AOT/AOT_stimuli/rescaled_final/1855_rv.mp4	0.0	305.35347294807434	0.10005807876586914
22	162.4324300289154	fix_pre	0		120	20.0	2.5	blank	1.0	305.4535310268402	1.0001790523529053
22	163.424467086792	pulse	0	t		20.0	2.5	blank	1.0	306.4455680847168	
22	163.4326090812683	movie	1		301	20.0	2.5	blank	1.0	306.4537100791931	2.508708953857422
22	165.0246229171753	pulse	1	t		20.0	2.5	blank	1.0	308.0457239151001	
22	165.94131803512573	fix_post	2		12	20.0	2.5	blank	1.0	308.96241903305054	0.10004091262817383
23	166.0413589477539	fix_pre	0		120	21.0	2.5	/experiments/knapen_AOT/AOT_stimuli/rescaled_final/0874_rv.mp4	0.0	309.0624599456787	1.0000760555267334
23	166.62491989135742	pulse	0	t		21.0	2.5	/experiments/knapen_AOT/AOT_stimuli/rescaled_final/0874_rv.mp4	0.0	309.6460208892822	
23	167.04143500328064	movie	1		243	21.0	2.5	/experiments/knapen_AOT/AOT_stimuli/rescaled_final/0874_rv.mp4	0.0	310.06253600120544	2.500356912612915
23	168.225280046463	pulse	1	t		21.0	2.5	/experiments/knapen_AOT/AOT_stimuli/rescaled_final/0874_rv.mp4	0.0	311.2463810443878	
23	169.54179191589355	fix_post	2		12	21.0	2.5	/experiments/knapen_AOT/AOT_stimuli/rescaled_final/0874_rv.mp4	0.0	312.56289291381836	0.10004115104675293
24	169.6418330669403	fix_pre	0		120	22.0	2.5	/experiments/knapen_AOT/AOT_stimuli/rescaled_final/1320_rv.mp4	0.0	312.6629340648651	1.0001518726348877
24	169.8255159854889	pulse	0	t		22.0	2.5	/experiments/knapen_AOT/AOT_stimuli/rescaled_final/1320_rv.mp4	0.0	312.8466169834137	
24	170.6419849395752	movie	1		244	22.0	2.5	/experiments/knapen_AOT/AOT_stimuli/rescaled_final/1320_rv.mp4	0.0	313.6630859375	2.5003750324249268
24	171.4182870388031	pulse	1	t		22.0	2.5	/experiments/knapen_AOT/AOT_stimuli/rescaled_final/1320_rv.mp4	0.0	314.4393880367279	
24	173.02589297294617	pulse	1	t		22.0	2.5	/experiments/knapen_AOT/AOT_stimuli/rescaled_final/1320_rv.mp4	0.0	316.046993970871	
24	173.14235997200012	fix_post	2		12	22.0	2.5	/experiments/knapen_AOT/AOT_stimuli/rescaled_final/1320_rv.mp4	0.0	316.1634609699249	0.10000991821289062
25	173.242369890213	fix_pre	0		120	23.0	2.5	/experiments/knapen_AOT/AOT_stimuli/rescaled_final/1728_fw.mp4	0.0	316.2634708881378	1.000136137008667
25	174.24250602722168	movie	1		244	23.0	2.5	/experiments/knapen_AOT/AOT_stimuli/rescaled_final/1728_fw.mp4	0.0	317.2636070251465	2.49202299118042
25	174.62742686271667	pulse	1	t		23.0	2.5	/experiments/knapen_AOT/AOT_stimuli/rescaled_final/1728_fw.mp4	0.0	317.6485278606415	
25	176.219083070755	pulse	1	t		23.0	2.5	/experiments/knapen_AOT/AOT_stimuli/rescaled_final/1728_fw.mp4	0.0	319.2401840686798	
25	176.7345290184021	fix_post	2		12	23.0	2.5	/experiments/knapen_AOT/AOT_stimuli/rescaled_final/1728_fw.mp4	0.0	319.7556300163269	0.10004997253417969
26	176.83457899093628	fix_pre	0		119	24.0	2.5	/experiments/knapen_AOT/AOT_stimuli/rescaled_final/1358_rv.mp4	0.0	319.8556799888611	0.9918410778045654
26	177.81839990615845	pulse	0	t		24.0	2.5	/experiments/knapen_AOT/AOT_stimuli/rescaled_final/1358_rv.mp4	0.0	320.83950090408325	
26	177.82642006874084	movie	1		245	24.0	2.5	/experiments/knapen_AOT/AOT_stimuli/rescaled_final/1358_rv.mp4	0.0	320.84752106666565	2.5086708068847656
26	179.423171043396	pulse	1	t		24.0	2.5	/experiments/knapen_AOT/AOT_stimuli/rescaled_final/1358_rv.mp4	0.0	322.4442720413208	
26	180.3350908756256	fix_post	2		12	24.0	2.5	/experiments/knapen_AOT/AOT_stimuli/rescaled_final/1358_rv.mp4	0.0	323.3561918735504	0.10002303123474121
27	180.43511390686035	fix_pre	0		120	25.0	2.5	/experiments/knapen_AOT/AOT_stimuli/rescaled_final/1159_fw.mp4	0.0	323.45621490478516	1.0001530647277832
27	181.018737077713	pulse	0	t		25.0	2.5	/experiments/knapen_AOT/AOT_stimuli/rescaled_final/1159_fw.mp4	0.0	324.0398380756378	
27	181.43526697158813	movie	1		243	25.0	2.5	/experiments/knapen_AOT/AOT_stimuli/rescaled_final/1159_fw.mp4	0.0	324.45636796951294	2.500354051589966
27	182.6190800666809	pulse	1	t		25.0	2.5	/experiments/knapen_AOT/AOT_stimuli/rescaled_final/1159_fw.mp4	0.0	325.6401810646057	
27	183.9356210231781	fix_post	2		12	25.0	2.5	/experiments/knapen_AOT/AOT_stimuli/rescaled_final/1159_fw.mp4	0.0	326.9567220211029	0.1000528335571289
28	184.03567385673523	fix_pre	0		120	26.0	2.5	blank	1.0	327.05677485466003	1.0001192092895508
28	184.21921706199646	pulse	0	t		26.0	2.5	blank	1.0	327.24031805992126	
28	185.03579306602478	movie	1		300	26.0	2.5	blank	1.0	328.0568940639496	2.5004119873046875
28	185.8195300102234	pulse	1	t		26.0	2.5	blank	1.0	328.8406310081482	
28	187.41962099075317	pulse	1	t		26.0	2.5	blank	1.0	330.440721988678	
28	187.53620505332947	fix_post	2		12	26.0	2.5	blank	1.0	330.5573060512543	0.09998798370361328
29	187.63619303703308	fix_pre	0		120	27.0	2.5	/experiments/knapen_AOT/AOT_stimuli/rescaled_final/1456_fw.mp4	0.0	330.6572940349579	1.0001568794250488
29	188.63634991645813	movie	1		242	27.0	2.5	/experiments/knapen_AOT/AOT_stimuli/rescaled_final/1456_fw.mp4	0.0	331.65745091438293	2.4920289516448975
29	189.02027893066406	pulse	1	t		27.0	2.5	/experiments/knapen_AOT/AOT_stimuli/rescaled_final/1456_fw.mp4	0.0	332.04137992858887	
29	190.6202609539032	pulse	1	t		27.0	2.5	/experiments/knapen_AOT/AOT_stimuli/rescaled_final/1456_fw.mp4	0.0	333.641361951828	
29	191.12837886810303	fix_post	2		12	27.0	2.5	/experiments/knapen_AOT/AOT_stimuli/rescaled_final/1456_fw.mp4	0.0	334.14947986602783	0.10003399848937988
30	191.2284128665924	fix_pre	0		120	28.0	2.5	/experiments/knapen_AOT/AOT_stimuli/rescaled_final/1981_rv.mp4	0.0	334.2495138645172	1.000115156173706
30	192.22048091888428	pulse	0	t		28.0	2.5	/experiments/knapen_AOT/AOT_stimuli/rescaled_final/1981_rv.mp4	0.0	335.2415819168091	
30	192.2285280227661	movie	1		245	28.0	2.5	/experiments/knapen_AOT/AOT_stimuli/rescaled_final/1981_rv.mp4	0.0	335.2496290206909	2.5087289810180664
30	193.82554292678833	pulse	1	t		28.0	2.5	/experiments/knapen_AOT/AOT_stimuli/rescaled_final/1981_rv.mp4	0.0	336.84664392471313	
30	194.73725700378418	fix_post	2		12	28.0	2.5	/experiments/knapen_AOT/AOT_stimuli/rescaled_final/1981_rv.mp4	0.0	337.758358001709	0.09999990463256836
31	194.83725690841675	fix_pre	0		120	29.0	2.5	/experiments/knapen_AOT/AOT_stimuli/rescaled_final/1469_fw.mp4	0.0	337.85835790634155	1.000157117843628
31	195.4209680557251	pulse	0	t		29.0	2.5	/experiments/knapen_AOT/AOT_stimuli/rescaled_final/1469_fw.mp4	0.0	338.4420690536499	
31	195.83741402626038	movie	1		243	29.0	2.5	/experiments/knapen_AOT/AOT_stimuli/rescaled_final/1469_fw.mp4	0.0	338.8585150241852	2.5003278255462646
31	197.02122902870178	pulse	1	t		29.0	2.5	/experiments/knapen_AOT/AOT_stimuli/rescaled_final/1469_fw.mp4	0.0	340.0423300266266	
31	198.33774185180664	fix_post	2		12	29.0	2.5	/experiments/knapen_AOT/AOT_stimuli/rescaled_final/1469_fw.mp4	0.0	341.35884284973145	0.10009217262268066
32	198.43783402442932	fix_pre	0		120	30.0	2.5	/experiments/knapen_AOT/AOT_stimuli/rescaled_final/1932_rv.mp4	0.0	341.4589350223541	1.0001568794250488
32	198.6213619709015	pulse	0	t		30.0	2.5	/experiments/knapen_AOT/AOT_stimuli/rescaled_final/1932_rv.mp4	0.0	341.6424629688263	
32	199.43799090385437	movie	1		245	30.0	2.5	/experiments/knapen_AOT/AOT_stimuli/rescaled_final/1932_rv.mp4	0.0	342.4590919017792	2.5003480911254883
32	200.2216100692749	pulse	1	t		30.0	2.5	/experiments/knapen_AOT/AOT_stimuli/rescaled_final/1932_rv.mp4	0.0	343.2427110671997	
32	201.81949996948242	pulse	1	t		30.0	2.5	/experiments/knapen_AOT/AOT_stimuli/rescaled_final/1932_rv.mp4	0.0	344.8406009674072	
32	201.93833899497986	fix_post	2		12	30.0	2.5	/experiments/knapen_AOT/AOT_stimuli/rescaled_final/1932_rv.mp4	0.0	344.95943999290466	0.10000896453857422
33	202.03834795951843	fix_pre	0		120	31.0	2.5	/experiments/knapen_AOT/AOT_stimuli/rescaled_final/1994_fw.mp4	0.0	345.05944895744324	1.0001459121704102
33	203.03849387168884	movie	1		244	31.0	2.5	/experiments/knapen_AOT/AOT_stimuli/rescaled_final/1994_fw.mp4	0.0	346.05959486961365	2.4920120239257812
33	203.42256903648376	pulse	1	t		31.0	2.5	/experiments/knapen_AOT/AOT_stimuli/rescaled_final/1994_fw.mp4	0.0	346.44367003440857	
33	205.02233600616455	pulse	1	t		31.0	2.5	/experiments/knapen_AOT/AOT_stimuli/rescaled_final/1994_fw.mp4	0.0	348.04343700408936	
33	205.53050589561462	fix_post	2		12	31.0	2.5	/experiments/knapen_AOT/AOT_stimuli/rescaled_final/1994_fw.mp4	0.0	348.55160689353943	0.1000220775604248
34	205.63052797317505	fix_pre	0		120	32.0	2.5	/experiments/knapen_AOT/AOT_stimuli/rescaled_final/1606_rv.mp4	0.0	348.65162897109985	1.000216007232666
34	206.62250685691833	pulse	0	t		32.0	2.5	/experiments/knapen_AOT/AOT_stimuli/rescaled_final/1606_rv.mp4	0.0	349.64360785484314	
34	206.63074398040771	movie	1		245	32.0	2.5	/experiments/knapen_AOT/AOT_stimuli/rescaled_final/1606_rv.mp4	0.0	349.6518449783325	2.5086379051208496
34	208.22706508636475	pulse	1	t		32.0	2.5	/experiments/knapen_AOT/AOT_stimuli/rescaled_final/1606_rv.mp4	0.0	351.24816608428955	
34	209.13938188552856	fix_post	2		12	32.0	2.5	/experiments/knapen_AOT/AOT_stimuli/rescaled_final/1606_rv.mp4	0.0	352.16048288345337	0.10001897811889648
35	209.23940086364746	fix_pre	0		120	33.0	2.5	/experiments/knapen_AOT/AOT_stimuli/rescaled_final/1430_fw.mp4	0.0	352.26050186157227	1.0001401901245117
35	209.823077917099	pulse	0	t		33.0	2.5	/experiments/knapen_AOT/AOT_stimuli/rescaled_final/1430_fw.mp4	0.0	352.8441789150238	
35	210.23954105377197	movie	1		244	33.0	2.5	/experiments/knapen_AOT/AOT_stimuli/rescaled_final/1430_fw.mp4	0.0	353.2606420516968	2.500394821166992
35	211.42342591285706	pulse	1	t		33.0	2.5	/experiments/knapen_AOT/AOT_stimuli/rescaled_final/1430_fw.mp4	0.0	354.44452691078186	
35	212.73993587493896	fix_post	2		12	33.0	2.5	/experiments/knapen_AOT/AOT_stimuli/rescaled_final/1430_fw.mp4	0.0	355.76103687286377	0.10003113746643066
36	212.8399670124054	fix_pre	0		120	34.0	2.5	blank	1.0	355.8610680103302	1.0001440048217773
36	213.0234670639038	pulse	0	t		34.0	2.5	blank	1.0	356.0445680618286	
36	213.84011101722717	movie	1		300	34.0	2.5	blank	1.0	356.861212015152	2.500370979309082
36	214.62370085716248	pulse	1	t		34.0	2.5	blank	1.0	357.6448018550873	
36	216.22406387329102	pulse	1	t		34.0	2.5	blank	1.0	359.2451648712158	
36	216.34048199653625	fix_post	2		12	34.0	2.5	blank	1.0	359.36158299446106	0.1000058650970459
37	216.4404878616333	fix_pre	0		120	35.0	2.5	/experiments/knapen_AOT/AOT_stimuli/rescaled_final/1071_fw.mp4	0.0	359.4615888595581	1.0001411437988281
37	217.44062900543213	movie	1		242	35.0	2.5	/experiments/knapen_AOT/AOT_stimuli/rescaled_final/1071_fw.mp4	0.0	360.46173000335693	2.4920389652252197
37	217.82544493675232	pulse	1	t		35.0	2.5	/experiments/knapen_AOT/AOT_stimuli/rescaled_final/1071_fw.mp4	0.0	360.8465459346771	
37	219.42449593544006	pulse	1	t		35.0	2.5	/experiments/knapen_AOT/AOT_stimuli/rescaled_final/1071_fw.mp4	0.0	362.44559693336487	
37	219.93266797065735	fix_post	2		12	35.0	2.5	/experiments/knapen_AOT/AOT_stimuli/rescaled_final/1071_fw.mp4	0.0	362.95376896858215	0.10003399848937988
38	220.03270196914673	fix_pre	0		120	36.0	2.5	/experiments/knapen_AOT/AOT_stimuli/rescaled_final/1268_fw.mp4	0.0	363.05380296707153	1.0001320838928223
38	221.0246570110321	pulse	0	t		36.0	2.5	/experiments/knapen_AOT/AOT_stimuli/rescaled_final/1268_fw.mp4	0.0	364.0457580089569	
38	221.03283405303955	movie	1		246	36.0	2.5	/experiments/knapen_AOT/AOT_stimuli/rescaled_final/1268_fw.mp4	0.0	364.05393505096436	2.5087099075317383
38	222.6254780292511	pulse	1	t		36.0	2.5	/experiments/knapen_AOT/AOT_stimuli/rescaled_final/1268_fw.mp4	0.0	365.6465790271759	
38	223.5415439605713	fix_post	2		12	36.0	2.5	/experiments/knapen_AOT/AOT_stimuli/rescaled_final/1268_fw.mp4	0.0	366.5626449584961	0.1000359058380127
39	223.6415798664093	fix_pre	0		120	37.0	2.5	/experiments/knapen_AOT/AOT_stimuli/rescaled_final/1480_rv.mp4	0.0	366.6626808643341	1.0001201629638672
39	224.2177140712738	pulse	0	t		37.0	2.5	/experiments/knapen_AOT/AOT_stimuli/rescaled_final/1480_rv.mp4	0.0	367.2388150691986	
39	224.64170002937317	movie	1		244	37.0	2.5	/experiments/knapen_AOT/AOT_stimuli/rescaled_final/1480_rv.mp4	0.0	367.662801027298	2.500349998474121
39	225.8254849910736	pulse	1	t		37.0	2.5	/experiments/knapen_AOT/AOT_stimuli/rescaled_final/1480_rv.mp4	0.0	368.8465859889984	
39	227.1420500278473	fix_post	2		12	37.0	2.5	/experiments/knapen_AOT/AOT_stimuli/rescaled_final/1480_rv.mp4	0.0	370.1631510257721	0.10006403923034668
40	227.24211406707764	fix_pre	0		120	38.0	2.5	/experiments/knapen_AOT/AOT_stimuli/rescaled_final/0510_rv.mp4	0.0	370.26321506500244	1.0001459121704102
40	227.4181010723114	pulse	0	t		38.0	2.5	/experiments/knapen_AOT/AOT_stimuli/rescaled_final/0510_rv.mp4	0.0	370.4392020702362	
40	228.24225997924805	movie	1		244	38.0	2.5	/experiments/knapen_AOT/AOT_stimuli/rescaled_final/0510_rv.mp4	0.0	371.26336097717285	2.5003609657287598
40	229.01845002174377	pulse	1	t		38.0	2.5	/experiments/knapen_AOT/AOT_stimuli/rescaled_final/0510_rv.mp4	0.0	372.0395510196686	
40	230.61788606643677	pulse	1	t		38.0	2.5	/experiments/knapen_AOT/AOT_stimuli/rescaled_final/0510_rv.mp4	0.0	373.6389870643616	
40	230.7426209449768	fix_post	2		12	38.0	2.5	/experiments/knapen_AOT/AOT_stimuli/rescaled_final/0510_rv.mp4	0.0	373.7637219429016	0.10000896453857422
41	230.84262990951538	fix_pre	0		120	39.0	2.5	/experiments/knapen_AOT/AOT_stimuli/rescaled_final/0878_fw.mp4	0.0	373.8637309074402	1.0001139640808105
41	231.8427438735962	movie	1		243	39.0	2.5	/experiments/knapen_AOT/AOT_stimuli/rescaled_final/0878_fw.mp4	0.0	374.863844871521	2.492037057876587
41	232.21804785728455	pulse	1	t		39.0	2.5	/experiments/knapen_AOT/AOT_stimuli/rescaled_final/0878_fw.mp4	0.0	375.23914885520935	
41	233.81834506988525	pulse	1	t		39.0	2.5	/experiments/knapen_AOT/AOT_stimuli/rescaled_final/0878_fw.mp4	0.0	376.83944606781006	
41	234.33478093147278	fix_post	2		12	39.0	2.5	/experiments/knapen_AOT/AOT_stimuli/rescaled_final/0878_fw.mp4	0.0	377.3558819293976	0.10003304481506348
42	234.43481397628784	fix_pre	0		119	40.0	2.5	blank	1.0	377.45591497421265	0.9918239116668701
42	235.41855597496033	pulse	0	t		40.0	2.5	blank	1.0	378.43965697288513	
42	235.4266378879547	movie	1		301	40.0	2.5	blank	1.0	378.4477388858795	2.5087389945983887
42	237.01869988441467	pulse	1	t		40.0	2.5	blank	1.0	380.0398008823395	
42	237.9353768825531	fix_post	2		12	40.0	2.5	blank	1.0	380.9564778804779	0.0999910831451416
43	238.03536796569824	fix_pre	0		120	41.0	2.5	/experiments/knapen_AOT/AOT_stimuli/rescaled_final/0664_rv.mp4	0.0	381.05646896362305	1.0001509189605713
43	238.61909294128418	pulse	0	t		41.0	2.5	/experiments/knapen_AOT/AOT_stimuli/rescaled_final/0664_rv.mp4	0.0	381.640193939209	
43	239.0355188846588	movie	1		243	41.0	2.5	/experiments/knapen_AOT/AOT_stimuli/rescaled_final/0664_rv.mp4	0.0	382.0566198825836	2.500375986099243
43	240.21937894821167	pulse	1	t		41.0	2.5	/experiments/knapen_AOT/AOT_stimuli/rescaled_final/0664_rv.mp4	0.0	383.2404799461365	
43	241.53589487075806	fix_post	2		12	41.0	2.5	/experiments/knapen_AOT/AOT_stimuli/rescaled_final/0664_rv.mp4	0.0	384.55699586868286	0.10005402565002441
44	241.63594889640808	fix_pre	0		120	42.0	2.5	/experiments/knapen_AOT/AOT_stimuli/rescaled_final/1337_rv.mp4	0.0	384.6570498943329	1.0001330375671387
44	241.81948900222778	pulse	0	t		42.0	2.5	/experiments/knapen_AOT/AOT_stimuli/rescaled_final/1337_rv.mp4	0.0	384.8405900001526	
44	242.63608193397522	movie	1		239	42.0	2.5	/experiments/knapen_AOT/AOT_stimuli/rescaled_final/1337_rv.mp4	0.0	385.6571829319	2.5004029273986816
44	243.4196810722351	pulse	1	t		42.0	2.5	/experiments/knapen_AOT/AOT_stimuli/rescaled_final/1337_rv.mp4	0.0	386.4407820701599	
44	245.01969504356384	pulse	1	t		42.0	2.5	/experiments/knapen_AOT/AOT_stimuli/rescaled_final/1337_rv.mp4	0.0	388.04079604148865	
44	245.1364848613739	fix_post	2		12	42.0	2.5	/experiments/knapen_AOT/AOT_stimuli/rescaled_final/1337_rv.mp4	0.0	388.1575858592987	0.0999751091003418
45	245.23645997047424	fix_pre	0		119	43.0	2.5	/experiments/knapen_AOT/AOT_stimuli/rescaled_final/1572_rv.mp4	0.0	388.25756096839905	0.9918200969696045
45	246.22828006744385	movie	1		244	43.0	2.5	/experiments/knapen_AOT/AOT_stimuli/rescaled_final/1572_rv.mp4	0.0	389.24938106536865	2.5003409385681152
45	246.6203908920288	pulse	1	t		43.0	2.5	/experiments/knapen_AOT/AOT_stimuli/rescaled_final/1572_rv.mp4	0.0	389.6414918899536	
45	248.22049689292908	pulse	1	t		43.0	2.5	/experiments/knapen_AOT/AOT_stimuli/rescaled_final/1572_rv.mp4	0.0	391.2415978908539	
45	248.72862100601196	fix_post	2		12	43.0	2.5	/experiments/knapen_AOT/AOT_stimuli/rescaled_final/1572_rv.mp4	0.0	391.74972200393677	0.10001993179321289
46	248.82864093780518	fix_pre	0		120	44.0	2.5	/experiments/knapen_AOT/AOT_stimuli/rescaled_final/1071_fw.mp4	0.0	391.84974193573	1.0001389980316162
46	249.8205919265747	pulse	0	t		44.0	2.5	/experiments/knapen_AOT/AOT_stimuli/rescaled_final/1071_fw.mp4	0.0	392.8416929244995	
46	249.8287799358368	movie	1		244	44.0	2.5	/experiments/knapen_AOT/AOT_stimuli/rescaled_final/1071_fw.mp4	0.0	392.8498809337616	2.5088250637054443
46	251.4213490486145	pulse	1	t		44.0	2.5	/experiments/knapen_AOT/AOT_stimuli/rescaled_final/1071_fw.mp4	0.0	394.4424500465393	
46	252.33760499954224	fix_post	2		12	44.0	2.5	/experiments/knapen_AOT/AOT_stimuli/rescaled_final/1071_fw.mp4	0.0	395.35870599746704	0.09988594055175781
47	252.437490940094	fix_pre	0		120	45.0	2.5	/experiments/knapen_AOT/AOT_stimuli/rescaled_final/0670_fw.mp4	0.0	395.4585919380188	1.0001881122589111
47	253.02128791809082	pulse	0	t		45.0	2.5	/experiments/knapen_AOT/AOT_stimuli/rescaled_final/0670_fw.mp4	0.0	396.0423889160156	
47	253.4376790523529	movie	1		243	45.0	2.5	/experiments/knapen_AOT/AOT_stimuli/rescaled_final/0670_fw.mp4	0.0	396.4587800502777	2.5003209114074707
47	254.62151098251343	pulse	1	t		45.0	2.5	/experiments/knapen_AOT/AOT_stimuli/rescaled_final/0670_fw.mp4	0.0	397.64261198043823	
47	255.93799996376038	fix_post	2		12	45.0	2.5	/experiments/knapen_AOT/AOT_stimuli/rescaled_final/0670_fw.mp4	0.0	398.9591009616852	0.10009193420410156
48	256.0380918979645	fix_pre	0		120	46.0	2.5	/experiments/knapen_AOT/AOT_stimuli/rescaled_final/0152_fw.mp4	0.0	399.0591928958893	1.0001661777496338
48	256.2216019630432	pulse	0	t		46.0	2.5	/experiments/knapen_AOT/AOT_stimuli/rescaled_final/0152_fw.mp4	0.0	399.242702960968	
48	257.0382580757141	movie	1		244	46.0	2.5	/experiments/knapen_AOT/AOT_stimuli/rescaled_final/0152_fw.mp4	0.0	400.0593590736389	2.500311851501465
48	257.8217840194702	pulse	1	t		46.0	2.5	/experiments/knapen_AOT/AOT_stimuli/rescaled_final/0152_fw.mp4	0.0	400.842885017395	
48	259.4221520423889	pulse	1	t		46.0	2.5	/experiments/knapen_AOT/AOT_stimuli/rescaled_final/0152_fw.mp4	0.0	402.4432530403137	
48	259.5385699272156	fix_post	2		12	46.0	2.5	/experiments/knapen_AOT/AOT_stimuli/rescaled_final/0152_fw.mp4	0.0	402.5596709251404	0.10001993179321289
49	259.6385898590088	fix_pre	0		119	47.0	2.5	blank	1.0	402.6596908569336	0.9917800426483154
49	260.6303699016571	movie	1		300	47.0	2.5	blank	1.0	403.6514708995819	2.500413179397583
49	261.0224840641022	pulse	1	t		47.0	2.5	blank	1.0	404.043585062027	
49	262.6226050853729	pulse	1	t		47.0	2.5	blank	1.0	405.64370608329773	
49	263.1307830810547	fix_post	2		12	47.0	2.5	blank	1.0	406.1518840789795	0.10001087188720703
50	263.2307939529419	fix_pre	0		120	48.0	2.5	/experiments/knapen_AOT/AOT_stimuli/rescaled_final/1000_rv.mp4	0.0	406.2518949508667	1.0001230239868164
50	264.222815990448	pulse	0	t		48.0	2.5	/experiments/knapen_AOT/AOT_stimuli/rescaled_final/1000_rv.mp4	0.0	407.2439169883728	
50	264.2309169769287	movie	1		245	48.0	2.5	/experiments/knapen_AOT/AOT_stimuli/rescaled_final/1000_rv.mp4	0.0	407.2520179748535	2.508737087249756
50	265.8236389160156	pulse	1	t		48.0	2.5	/experiments/knapen_AOT/AOT_stimuli/rescaled_final/1000_rv.mp4	0.0	408.84473991394043	
50	266.73965406417847	fix_post	2		12	48.0	2.5	/experiments/knapen_AOT/AOT_stimuli/rescaled_final/1000_rv.mp4	0.0	409.76075506210327	0.10000801086425781
51	266.8396620750427	fix_pre	0		120	49.0	2.5	/experiments/knapen_AOT/AOT_stimuli/rescaled_final/1258_fw.mp4	0.0	409.86076307296753	1.00016188621521
51	267.42332887649536	pulse	0	t		49.0	2.5	/experiments/knapen_AOT/AOT_stimuli/rescaled_final/1258_fw.mp4	0.0	410.44442987442017	
51	267.83982396125793	movie	1		244	49.0	2.5	/experiments/knapen_AOT/AOT_stimuli/rescaled_final/1258_fw.mp4	0.0	410.86092495918274	2.500382900238037
51	269.0236978530884	pulse	1	t		49.0	2.5	/experiments/knapen_AOT/AOT_stimuli/rescaled_final/1258_fw.mp4	0.0	412.0447988510132	
51	270.340206861496	fix_post	2		12	49.0	2.5	/experiments/knapen_AOT/AOT_stimuli/rescaled_final/1258_fw.mp4	0.0	413.3613078594208	0.09998917579650879
52	270.4401960372925	fix_pre	0		120	50.0	2.5	/experiments/knapen_AOT/AOT_stimuli/rescaled_final/0223_fw.mp4	0.0	413.4612970352173	1.000152826309204
52	270.6237120628357	pulse	0	t		50.0	2.5	/experiments/knapen_AOT/AOT_stimuli/rescaled_final/0223_fw.mp4	0.0	413.6448130607605	
52	271.4403488636017	movie	1		243	50.0	2.5	/experiments/knapen_AOT/AOT_stimuli/rescaled_final/0223_fw.mp4	0.0	414.4614498615265	2.5003790855407715
52	272.2241048812866	pulse	1	t		50.0	2.5	/experiments/knapen_AOT/AOT_stimuli/rescaled_final/0223_fw.mp4	0.0	415.2452058792114	
52	273.8241310119629	pulse	1	t		50.0	2.5	/experiments/knapen_AOT/AOT_stimuli/rescaled_final/0223_fw.mp4	0.0	416.8452320098877	
52	273.94072794914246	fix_post	2		12	50.0	2.5	/experiments/knapen_AOT/AOT_stimuli/rescaled_final/0223_fw.mp4	0.0	416.96182894706726	0.1000359058380127
53	274.04076385498047	fix_pre	0		120	51.0	2.5	/experiments/knapen_AOT/AOT_stimuli/rescaled_final/0279_rv.mp4	0.0	417.0618648529053	1.0000970363616943
53	275.04086089134216	movie	1		243	51.0	2.5	/experiments/knapen_AOT/AOT_stimuli/rescaled_final/0279_rv.mp4	0.0	418.06196188926697	2.492244005203247
53	275.42585587501526	pulse	1	t		51.0	2.5	/experiments/knapen_AOT/AOT_stimuli/rescaled_final/0279_rv.mp4	0.0	418.44695687294006	
53	277.0247070789337	pulse	1	t		51.0	2.5	/experiments/knapen_AOT/AOT_stimuli/rescaled_final/0279_rv.mp4	0.0	420.0458080768585	
53	277.5331048965454	fix_post	2		12	51.0	2.5	/experiments/knapen_AOT/AOT_stimuli/rescaled_final/0279_rv.mp4	0.0	420.5542058944702	0.09982514381408691
54	277.6329300403595	fix_pre	0		120	52.0	2.5	/experiments/knapen_AOT/AOT_stimuli/rescaled_final/1996_rv.mp4	0.0	420.6540310382843	1.000169038772583
54	278.6250538825989	pulse	0	t		52.0	2.5	/experiments/knapen_AOT/AOT_stimuli/rescaled_final/1996_rv.mp4	0.0	421.6461548805237	
54	278.6330990791321	movie	1		244	52.0	2.5	/experiments/knapen_AOT/AOT_stimuli/rescaled_final/1996_rv.mp4	0.0	421.6542000770569	2.5086889266967773
54	280.2257468700409	pulse	1	t		52.0	2.5	/experiments/knapen_AOT/AOT_stimuli/rescaled_final/1996_rv.mp4	0.0	423.2468478679657	
54	281.14178800582886	fix_post	2		12	52.0	2.5	/experiments/knapen_AOT/AOT_stimuli/rescaled_final/1996_rv.mp4	0.0	424.16288900375366	0.10012388229370117
55	281.24191188812256	fix_pre	0		120	53.0	2.5	/experiments/knapen_AOT/AOT_stimuli/rescaled_final/0241_rv.mp4	0.0	424.26301288604736	1.0000851154327393
55	281.8254358768463	pulse	0	t		53.0	2.5	/experiments/knapen_AOT/AOT_stimuli/rescaled_final/0241_rv.mp4	0.0	424.8465368747711	
55	282.2419970035553	movie	1		244	53.0	2.5	/experiments/knapen_AOT/AOT_stimuli/rescaled_final/0241_rv.mp4	0.0	425.2630980014801	2.5003409385681152
55	283.4257619380951	pulse	1	t		53.0	2.5	/experiments/knapen_AOT/AOT_stimuli/rescaled_final/0241_rv.mp4	0.0	426.4468629360199	
55	284.7423379421234	fix_post	2		12	53.0	2.5	/experiments/knapen_AOT/AOT_stimuli/rescaled_final/0241_rv.mp4	0.0	427.7634389400482	0.1000370979309082
56	284.8423750400543	fix_pre	0		120	54.0	2.5	/experiments/knapen_AOT/AOT_stimuli/rescaled_final/0312_fw.mp4	0.0	427.8634760379791	1.0000889301300049
56	285.018434047699	pulse	0	t		54.0	2.5	/experiments/knapen_AOT/AOT_stimuli/rescaled_final/0312_fw.mp4	0.0	428.0395350456238	
56	285.8424639701843	movie	1		244	54.0	2.5	/experiments/knapen_AOT/AOT_stimuli/rescaled_final/0312_fw.mp4	0.0	428.86356496810913	2.500472068786621
56	286.6187870502472	pulse	1	t		54.0	2.5	/experiments/knapen_AOT/AOT_stimuli/rescaled_final/0312_fw.mp4	0.0	429.639888048172	
56	288.22636103630066	pulse	1	t		54.0	2.5	/experiments/knapen_AOT/AOT_stimuli/rescaled_final/0312_fw.mp4	0.0	431.24746203422546	
56	288.34293603897095	fix_post	2		12	54.0	2.5	/experiments/knapen_AOT/AOT_stimuli/rescaled_final/0312_fw.mp4	0.0	431.36403703689575	0.09995698928833008
57	288.4428930282593	fix_pre	0		120	55.0	2.5	/experiments/knapen_AOT/AOT_stimuli/rescaled_final/1705_fw.mp4	0.0	431.4639940261841	1.0001699924468994
57	289.4430630207062	movie	1		242	55.0	2.5	/experiments/knapen_AOT/AOT_stimuli/rescaled_final/1705_fw.mp4	0.0	432.464164018631	2.4920098781585693
57	289.8272168636322	pulse	1	t		55.0	2.5	/experiments/knapen_AOT/AOT_stimuli/rescaled_final/1705_fw.mp4	0.0	432.848317861557	
57	291.41873502731323	pulse	1	t		55.0	2.5	/experiments/knapen_AOT/AOT_stimuli/rescaled_final/1705_fw.mp4	0.0	434.43983602523804	
57	291.93507289886475	fix_post	2		12	55.0	2.5	/experiments/knapen_AOT/AOT_stimuli/rescaled_final/1705_fw.mp4	0.0	434.95617389678955	0.10000109672546387
58	292.0350739955902	fix_pre	0		119	56.0	2.5	blank	1.0	435.056174993515	0.9918348789215088
58	293.01869201660156	pulse	0	t		56.0	2.5	blank	1.0	436.03979301452637	
58	293.0269088745117	movie	1		301	56.0	2.5	blank	1.0	436.0480098724365	2.508726119995117
58	294.6190540790558	pulse	1	t		56.0	2.5	blank	1.0	437.6401550769806	
58	295.53563499450684	fix_post	2		12	56.0	2.5	blank	1.0	438.55673599243164	0.09999990463256836
59	295.6356348991394	fix_pre	0		120	57.0	2.5	/experiments/knapen_AOT/AOT_stimuli/rescaled_final/1337_rv.mp4	0.0	438.6567358970642	1.0001671314239502
59	296.2193319797516	pulse	0	t		57.0	2.5	/experiments/knapen_AOT/AOT_stimuli/rescaled_final/1337_rv.mp4	0.0	439.2404329776764	
59	296.63580203056335	movie	1		243	57.0	2.5	/experiments/knapen_AOT/AOT_stimuli/rescaled_final/1337_rv.mp4	0.0	439.65690302848816	2.5003600120544434
59	297.81958293914795	pulse	1	t		57.0	2.5	/experiments/knapen_AOT/AOT_stimuli/rescaled_final/1337_rv.mp4	0.0	440.84068393707275	
59	299.1361620426178	fix_post	2		12	57.0	2.5	/experiments/knapen_AOT/AOT_stimuli/rescaled_final/1337_rv.mp4	0.0	442.1572630405426	0.09999203681945801
60	299.23615407943726	fix_pre	0		120	58.0	2.5	/experiments/knapen_AOT/AOT_stimuli/rescaled_final/1430_rv.mp4	0.0	442.25725507736206	1.0001959800720215
60	299.4197130203247	pulse	0	t		58.0	2.5	/experiments/knapen_AOT/AOT_stimuli/rescaled_final/1430_rv.mp4	0.0	442.4408140182495	
60	300.2363500595093	movie	1		245	58.0	2.5	/experiments/knapen_AOT/AOT_stimuli/rescaled_final/1430_rv.mp4	0.0	443.2574510574341	2.500394821166992
60	301.02007603645325	pulse	1	t		58.0	2.5	/experiments/knapen_AOT/AOT_stimuli/rescaled_final/1430_rv.mp4	0.0	444.04117703437805	
60	302.61776208877563	pulse	1	t		58.0	2.5	/experiments/knapen_AOT/AOT_stimuli/rescaled_final/1430_rv.mp4	0.0	445.63886308670044	
60	302.73674488067627	fix_post	2		12	58.0	2.5	/experiments/knapen_AOT/AOT_stimuli/rescaled_final/1430_rv.mp4	0.0	445.7578458786011	0.09993910789489746
61	302.83668398857117	fix_pre	0		117	59.0	2.5	/experiments/knapen_AOT/AOT_stimuli/rescaled_final/1621_fw.mp4	0.0	445.857784986496	1.000175952911377
61	303.83685994148254	movie	1		242	59.0	2.5	/experiments/knapen_AOT/AOT_stimuli/rescaled_final/1621_fw.mp4	0.0	446.85796093940735	2.492027997970581
61	304.2210040092468	pulse	1	t		59.0	2.5	/experiments/knapen_AOT/AOT_stimuli/rescaled_final/1621_fw.mp4	0.0	447.24210500717163	
61	305.8206579685211	pulse	1	t		59.0	2.5	/experiments/knapen_AOT/AOT_stimuli/rescaled_final/1621_fw.mp4	0.0	448.8417589664459	
61	306.3288879394531	fix_post	2		12	59.0	2.5	/experiments/knapen_AOT/AOT_stimuli/rescaled_final/1621_fw.mp4	0.0	449.34998893737793	0.1000981330871582
62	306.4289860725403	fix_pre	0		120	60.0	2.5	/experiments/knapen_AOT/AOT_stimuli/rescaled_final/1527_rv.mp4	0.0	449.4500870704651	1.000072956085205
62	307.4209599494934	pulse	0	t		60.0	2.5	/experiments/knapen_AOT/AOT_stimuli/rescaled_final/1527_rv.mp4	0.0	450.4420609474182	
62	307.4290590286255	movie	1		249	60.0	2.5	/experiments/knapen_AOT/AOT_stimuli/rescaled_final/1527_rv.mp4	0.0	450.4501600265503	2.508664846420288
62	309.02182388305664	pulse	1	t		60.0	2.5	/experiments/knapen_AOT/AOT_stimuli/rescaled_final/1527_rv.mp4	0.0	452.04292488098145	
62	309.9377238750458	fix_post	2		12	60.0	2.5	/experiments/knapen_AOT/AOT_stimuli/rescaled_final/1527_rv.mp4	0.0	452.9588248729706	0.10006904602050781
63	310.0377929210663	fix_pre	0		120	61.0	2.5	/experiments/knapen_AOT/AOT_stimuli/rescaled_final/1547_fw.mp4	0.0	453.0588939189911	1.000133991241455
63	310.62148690223694	pulse	0	t		61.0	2.5	/experiments/knapen_AOT/AOT_stimuli/rescaled_final/1547_fw.mp4	0.0	453.64258790016174	
63	311.03792691230774	movie	1		245	61.0	2.5	/experiments/knapen_AOT/AOT_stimuli/rescaled_final/1547_fw.mp4	0.0	454.05902791023254	2.5003631114959717
63	312.2216920852661	pulse	1	t		61.0	2.5	/experiments/knapen_AOT/AOT_stimuli/rescaled_final/1547_fw.mp4	0.0	455.2427930831909	
63	313.5382900238037	fix_post	2		12	61.0	2.5	/experiments/knapen_AOT/AOT_stimuli/rescaled_final/1547_fw.mp4	0.0	456.5593910217285	0.1000208854675293
64	313.63831090927124	fix_pre	0		120	62.0	2.5	/experiments/knapen_AOT/AOT_stimuli/rescaled_final/1903_fw.mp4	0.0	456.65941190719604	1.000154972076416
64	313.8218810558319	pulse	0	t		62.0	2.5	/experiments/knapen_AOT/AOT_stimuli/rescaled_final/1903_fw.mp4	0.0	456.8429820537567	
64	314.63846588134766	movie	1		244	62.0	2.5	/experiments/knapen_AOT/AOT_stimuli/rescaled_final/1903_fw.mp4	0.0	457.65956687927246	2.500339984893799
64	315.4222319126129	pulse	1	t		62.0	2.5	/experiments/knapen_AOT/AOT_stimuli/rescaled_final/1903_fw.mp4	0.0	458.4433329105377	
64	317.0224618911743	pulse	1	t		62.0	2.5	/experiments/knapen_AOT/AOT_stimuli/rescaled_final/1903_fw.mp4	0.0	460.0435628890991	
64	317.13880586624146	fix_post	2		12	62.0	2.5	/experiments/knapen_AOT/AOT_stimuli/rescaled_final/1903_fw.mp4	0.0	460.15990686416626	0.10001111030578613
65	317.23881697654724	fix_pre	0		120	63.0	2.5	blank	1.0	460.25991797447205	1.0001940727233887
65	318.23901104927063	movie	1		299	63.0	2.5	blank	1.0	461.26011204719543	2.4920239448547363
65	318.6225550174713	pulse	1	t		63.0	2.5	blank	1.0	461.6436560153961	
65	320.2227530479431	pulse	1	t		63.0	2.5	blank	1.0	463.2438540458679	
65	320.73103499412537	fix_post	2		12	63.0	2.5	blank	1.0	463.75213599205017	0.10001897811889648
66	320.83105397224426	fix_pre	0		120	64.0	2.5	/experiments/knapen_AOT/AOT_stimuli/rescaled_final/0893_rv.mp4	0.0	463.85215497016907	1.000119924545288
66	321.8232100009918	pulse	0	t		64.0	2.5	/experiments/knapen_AOT/AOT_stimuli/rescaled_final/0893_rv.mp4	0.0	464.8443109989166	
66	321.83117389678955	movie	1		245	64.0	2.5	/experiments/knapen_AOT/AOT_stimuli/rescaled_final/0893_rv.mp4	0.0	464.85227489471436	2.5087060928344727
66	323.423544883728	pulse	1	t		64.0	2.5	/experiments/knapen_AOT/AOT_stimuli/rescaled_final/0893_rv.mp4	0.0	466.44464588165283	
66	324.339879989624	fix_post	2		12	64.0	2.5	/experiments/knapen_AOT/AOT_stimuli/rescaled_final/0893_rv.mp4	0.0	467.3609809875488	0.10012602806091309
67	324.44000601768494	fix_pre	0		120	65.0	2.5	/experiments/knapen_AOT/AOT_stimuli/rescaled_final/1461_fw.mp4	0.0	467.46110701560974	1.0000460147857666
67	325.0235939025879	pulse	0	t		65.0	2.5	/experiments/knapen_AOT/AOT_stimuli/rescaled_final/1461_fw.mp4	0.0	468.0446949005127	
67	325.4400520324707	movie	1		246	65.0	2.5	/experiments/knapen_AOT/AOT_stimuli/rescaled_final/1461_fw.mp4	0.0	468.4611530303955	2.50036883354187
67	326.6238238811493	pulse	1	t		65.0	2.5	/experiments/knapen_AOT/AOT_stimuli/rescaled_final/1461_fw.mp4	0.0	469.6449248790741	
67	327.9404208660126	fix_post	2		12	65.0	2.5	/experiments/knapen_AOT/AOT_stimuli/rescaled_final/1461_fw.mp4	0.0	470.9615218639374	0.1000370979309082
68	328.0404579639435	fix_pre	0		120	66.0	2.5	/experiments/knapen_AOT/AOT_stimuli/rescaled_final/1480_fw.mp4	0.0	471.0615589618683	1.0001509189605713
68	328.224093914032	pulse	0	t		66.0	2.5	/experiments/knapen_AOT/AOT_stimuli/rescaled_final/1480_fw.mp4	0.0	471.2451949119568	
68	329.04060888290405	movie	1		244	66.0	2.5	/experiments/knapen_AOT/AOT_stimuli/rescaled_final/1480_fw.mp4	0.0	472.06170988082886	2.5003390312194824
68	329.8243520259857	pulse	1	t		66.0	2.5	/experiments/knapen_AOT/AOT_stimuli/rescaled_final/1480_fw.mp4	0.0	472.8454530239105	
68	331.42467308044434	pulse	1	t		66.0	2.5	/experiments/knapen_AOT/AOT_stimuli/rescaled_final/1480_fw.mp4	0.0	474.44577407836914	
68	331.54094791412354	fix_post	2		12	66.0	2.5	/experiments/knapen_AOT/AOT_stimuli/rescaled_final/1480_fw.mp4	0.0	474.56204891204834	0.10006308555603027
69	331.64101099967957	fix_pre	0		120	67.0	2.5	/experiments/knapen_AOT/AOT_stimuli/rescaled_final/1430_rv.mp4	0.0	474.66211199760437	1.0001518726348877
69	332.64116287231445	movie	1		243	67.0	2.5	/experiments/knapen_AOT/AOT_stimuli/rescaled_final/1430_rv.mp4	0.0	475.66226387023926	2.4920201301574707
69	333.02574586868286	pulse	1	t		67.0	2.5	/experiments/knapen_AOT/AOT_stimuli/rescaled_final/1430_rv.mp4	0.0	476.04684686660767	
69	334.62509393692017	pulse	1	t		67.0	2.5	/experiments/knapen_AOT/AOT_stimuli/rescaled_final/1430_rv.mp4	0.0	477.64619493484497	
69	335.1331830024719	fix_post	2		12	67.0	2.5	/experiments/knapen_AOT/AOT_stimuli/rescaled_final/1430_rv.mp4	0.0	478.15428400039673	0.10002398490905762
70	335.233206987381	fix_pre	0		120	68.0	2.5	/experiments/knapen_AOT/AOT_stimuli/rescaled_final/0010_fw.mp4	0.0	478.2543079853058	1.00016188621521
70	336.2253348827362	pulse	0	t		68.0	2.5	/experiments/knapen_AOT/AOT_stimuli/rescaled_final/0010_fw.mp4	0.0	479.246435880661	
70	336.2333688735962	movie	1		246	68.0	2.5	/experiments/knapen_AOT/AOT_stimuli/rescaled_final/0010_fw.mp4	0.0	479.254469871521	2.5086541175842285
70	337.82589888572693	pulse	1	t		68.0	2.5	/experiments/knapen_AOT/AOT_stimuli/rescaled_final/0010_fw.mp4	0.0	480.84699988365173	
70	338.7420229911804	fix_post	2		12	68.0	2.5	/experiments/knapen_AOT/AOT_stimuli/rescaled_final/0010_fw.mp4	0.0	481.7631239891052	0.10011792182922363
71	338.84214091300964	fix_pre	0		120	69.0	2.5	blank	1.0	481.86324191093445	1.0001540184020996
71	339.41821098327637	pulse	0	t		69.0	2.5	blank	1.0	482.4393119812012	
71	339.84229493141174	movie	1		300	69.0	2.5	blank	1.0	482.86339592933655	2.5003750324249268
71	341.0183880329132	pulse	1	t		69.0	2.5	blank	1.0	484.039489030838	
71	342.34266996383667	fix_post	2		12	69.0	2.5	blank	1.0	485.3637709617615	0.09995007514953613
72	342.4426200389862	fix_pre	0		120	70.0	2.5	/experiments/knapen_AOT/AOT_stimuli/rescaled_final/1341_fw.mp4	0.0	485.463721036911	1.00016188621521
72	342.6185579299927	pulse	0	t		70.0	2.5	/experiments/knapen_AOT/AOT_stimuli/rescaled_final/1341_fw.mp4	0.0	485.6396589279175	
72	343.4427819252014	movie	1		244	70.0	2.5	/experiments/knapen_AOT/AOT_stimuli/rescaled_final/1341_fw.mp4	0.0	486.4638829231262	2.500369071960449
72	344.2188820838928	pulse	1	t		70.0	2.5	/experiments/knapen_AOT/AOT_stimuli/rescaled_final/1341_fw.mp4	0.0	487.2399830818176	
72	345.81831097602844	pulse	1	t		70.0	2.5	/experiments/knapen_AOT/AOT_stimuli/rescaled_final/1341_fw.mp4	0.0	488.83941197395325	
72	345.94315099716187	fix_post	2		12	70.0	2.5	/experiments/knapen_AOT/AOT_stimuli/rescaled_final/1341_fw.mp4	0.0	488.96425199508667	0.09998607635498047
73	346.04313707351685	fix_pre	0		120	71.0	2.5	/experiments/knapen_AOT/AOT_stimuli/rescaled_final/1984_rv.mp4	0.0	489.06423807144165	1.0001788139343262
73	347.0433158874512	movie	1		243	71.0	2.5	/experiments/knapen_AOT/AOT_stimuli/rescaled_final/1984_rv.mp4	0.0	490.064416885376	2.492072105407715
73	347.4185130596161	pulse	1	t		71.0	2.5	/experiments/knapen_AOT/AOT_stimuli/rescaled_final/1984_rv.mp4	0.0	490.4396140575409	
73	349.018807888031	pulse	1	t		71.0	2.5	/experiments/knapen_AOT/AOT_stimuli/rescaled_final/1984_rv.mp4	0.0	492.0399088859558	
73	349.5353879928589	fix_post	2		12	71.0	2.5	/experiments/knapen_AOT/AOT_stimuli/rescaled_final/1984_rv.mp4	0.0	492.5564889907837	0.09995889663696289
74	349.63534688949585	fix_pre	0		119	72.0	2.5	/experiments/knapen_AOT/AOT_stimuli/rescaled_final/0305_rv.mp4	0.0	492.65644788742065	0.9918160438537598
74	350.619019985199	pulse	0	t		72.0	2.5	/experiments/knapen_AOT/AOT_stimuli/rescaled_final/0305_rv.mp4	0.0	493.6401209831238	
74	350.6271629333496	movie	1		244	72.0	2.5	/experiments/knapen_AOT/AOT_stimuli/rescaled_final/0305_rv.mp4	0.0	493.6482639312744	2.5086710453033447
74	352.2208318710327	pulse	1	t		72.0	2.5	/experiments/knapen_AOT/AOT_stimuli/rescaled_final/0305_rv.mp4	0.0	495.2419328689575	
74	353.13583397865295	fix_post	2		12	72.0	2.5	/experiments/knapen_AOT/AOT_stimuli/rescaled_final/0305_rv.mp4	0.0	496.15693497657776	0.10013604164123535
75	353.2359700202942	fix_pre	0		120	73.0	2.5	/experiments/knapen_AOT/AOT_stimuli/rescaled_final/1493_rv.mp4	0.0	496.257071018219	1.0000829696655273
75	353.81954288482666	pulse	0	t		73.0	2.5	/experiments/knapen_AOT/AOT_stimuli/rescaled_final/1493_rv.mp4	0.0	496.84064388275146	
75	354.2360529899597	movie	1		244	73.0	2.5	/experiments/knapen_AOT/AOT_stimuli/rescaled_final/1493_rv.mp4	0.0	497.2571539878845	2.5003669261932373
75	355.41982197761536	pulse	1	t		73.0	2.5	/experiments/knapen_AOT/AOT_stimuli/rescaled_final/1493_rv.mp4	0.0	498.44092297554016	
75	356.73641991615295	fix_post	2		12	73.0	2.5	/experiments/knapen_AOT/AOT_stimuli/rescaled_final/1493_rv.mp4	0.0	499.75752091407776	0.09999799728393555
76	356.8364179134369	fix_pre	0		120	74.0	2.5	/experiments/knapen_AOT/AOT_stimuli/rescaled_final/0484_rv.mp4	0.0	499.8575189113617	1.0001721382141113
76	357.019926071167	pulse	0	t		74.0	2.5	/experiments/knapen_AOT/AOT_stimuli/rescaled_final/0484_rv.mp4	0.0	500.0410270690918	
76	357.836590051651	movie	1		244	74.0	2.5	/experiments/knapen_AOT/AOT_stimuli/rescaled_final/0484_rv.mp4	0.0	500.8576910495758	2.500321865081787
76	358.6203010082245	pulse	1	t		74.0	2.5	/experiments/knapen_AOT/AOT_stimuli/rescaled_final/0484_rv.mp4	0.0	501.6414020061493	
76	360.2205090522766	pulse	1	t		74.0	2.5	/experiments/knapen_AOT/AOT_stimuli/rescaled_final/0484_rv.mp4	0.0	503.2416100502014	
76	360.3369119167328	fix_post	2		12	74.0	2.5	/experiments/knapen_AOT/AOT_stimuli/rescaled_final/0484_rv.mp4	0.0	503.3580129146576	0.1000680923461914
77	360.436980009079	fix_pre	0		120	75.0	2.5	blank	1.0	503.4580810070038	1.0001220703125
77	361.4371020793915	movie	1		299	75.0	2.5	blank	1.0	504.4582030773163	2.492043972015381
77	361.8206639289856	pulse	1	t		75.0	2.5	blank	1.0	504.8417649269104	
77	363.4210169315338	pulse	1	t		75.0	2.5	blank	1.0	506.4421179294586	
77	363.92914605140686	fix_post	2		12	75.0	2.5	blank	1.0	506.95024704933167	0.09999680519104004
78	364.0291428565979	fix_pre	0		120	76.0	2.5	/experiments/knapen_AOT/AOT_stimuli/rescaled_final/0874_fw.mp4	0.0	507.0502438545227	1.0001780986785889
78	365.02114605903625	pulse	0	t		76.0	2.5	/experiments/knapen_AOT/AOT_stimuli/rescaled_final/0874_fw.mp4	0.0	508.04224705696106	
78	365.0293209552765	movie	1		241	76.0	2.5	/experiments/knapen_AOT/AOT_stimuli/rescaled_final/0874_fw.mp4	0.0	508.0504219532013	2.5087220668792725
78	366.62548995018005	pulse	1	t		76.0	2.5	/experiments/knapen_AOT/AOT_stimuli/rescaled_final/0874_fw.mp4	0.0	509.64659094810486	
78	367.53804302215576	fix_post	2		12	76.0	2.5	/experiments/knapen_AOT/AOT_stimuli/rescaled_final/0874_fw.mp4	0.0	510.55914402008057	0.10008096694946289
79	367.6381239891052	fix_pre	0		120	77.0	2.5	/experiments/knapen_AOT/AOT_stimuli/rescaled_final/0333_fw.mp4	0.0	510.65922498703003	1.000087022781372
79	368.2216708660126	pulse	0	t		77.0	2.5	/experiments/knapen_AOT/AOT_stimuli/rescaled_final/0333_fw.mp4	0.0	511.2427718639374	
79	368.6382110118866	movie	1		244	77.0	2.5	/experiments/knapen_AOT/AOT_stimuli/rescaled_final/0333_fw.mp4	0.0	511.6593120098114	2.5003020763397217
79	369.8220889568329	pulse	1	t		77.0	2.5	/experiments/knapen_AOT/AOT_stimuli/rescaled_final/0333_fw.mp4	0.0	512.8431899547577	
79	371.1385130882263	fix_post	2		12	77.0	2.5	/experiments/knapen_AOT/AOT_stimuli/rescaled_final/0333_fw.mp4	0.0	514.1596140861511	0.10003876686096191
80	371.2385518550873	fix_pre	0		120	78.0	2.5	/experiments/knapen_AOT/AOT_stimuli/rescaled_final/1854_rv.mp4	0.0	514.2596528530121	1.000195026397705
80	371.42217803001404	pulse	0	t		78.0	2.5	/experiments/knapen_AOT/AOT_stimuli/rescaled_final/1854_rv.mp4	0.0	514.4432790279388	
80	372.238746881485	movie	1		243	78.0	2.5	/experiments/knapen_AOT/AOT_stimuli/rescaled_final/1854_rv.mp4	0.0	515.2598478794098	2.500300168991089
80	373.02238488197327	pulse	1	t		78.0	2.5	/experiments/knapen_AOT/AOT_stimuli/rescaled_final/1854_rv.mp4	0.0	516.0434858798981	
80	374.62239694595337	pulse	1	t		78.0	2.5	/experiments/knapen_AOT/AOT_stimuli/rescaled_final/1854_rv.mp4	0.0	517.6434979438782	
80	374.7390470504761	fix_post	2		12	78.0	2.5	/experiments/knapen_AOT/AOT_stimuli/rescaled_final/1854_rv.mp4	0.0	517.7601480484009	0.10004782676696777
81	374.83909487724304	fix_pre	0		120	79.0	2.5	/experiments/knapen_AOT/AOT_stimuli/rescaled_final/0629_fw.mp4	0.0	517.8601958751678	1.0001680850982666
81	375.8392629623413	movie	1		244	79.0	2.5	/experiments/knapen_AOT/AOT_stimuli/rescaled_final/0629_fw.mp4	0.0	518.8603639602661	2.492069959640503
81	376.2234060764313	pulse	1	t		79.0	2.5	/experiments/knapen_AOT/AOT_stimuli/rescaled_final/0629_fw.mp4	0.0	519.2445070743561	
81	377.82320189476013	pulse	1	t		79.0	2.5	/experiments/knapen_AOT/AOT_stimuli/rescaled_final/0629_fw.mp4	0.0	520.8443028926849	
81	378.3313329219818	fix_post	2		12	79.0	2.5	/experiments/knapen_AOT/AOT_stimuli/rescaled_final/0629_fw.mp4	0.0	521.3524339199066	0.09999299049377441
82	378.4313259124756	fix_pre	0		120	80.0	2.5	/experiments/knapen_AOT/AOT_stimuli/rescaled_final/1318_rv.mp4	0.0	521.4524269104004	1.0001201629638672
82	379.4233310222626	pulse	0	t		80.0	2.5	/experiments/knapen_AOT/AOT_stimuli/rescaled_final/1318_rv.mp4	0.0	522.4444320201874	
82	379.43144607543945	movie	1		245	80.0	2.5	/experiments/knapen_AOT/AOT_stimuli/rescaled_final/1318_rv.mp4	0.0	522.4525470733643	2.5086829662323
82	381.02407598495483	pulse	1	t		80.0	2.5	/experiments/knapen_AOT/AOT_stimuli/rescaled_final/1318_rv.mp4	0.0	524.0451769828796	
82	381.94012904167175	fix_post	2		12	80.0	2.5	/experiments/knapen_AOT/AOT_stimuli/rescaled_final/1318_rv.mp4	0.0	524.9612300395966	0.1000359058380127
83	382.04016494750977	fix_pre	0		120	81.0	2.5	/experiments/knapen_AOT/AOT_stimuli/rescaled_final/2132_rv.mp4	0.0	525.0612659454346	1.0001640319824219
83	382.62382102012634	pulse	0	t		81.0	2.5	/experiments/knapen_AOT/AOT_stimuli/rescaled_final/2132_rv.mp4	0.0	525.6449220180511	
83	383.0403289794922	movie	1		243	81.0	2.5	/experiments/knapen_AOT/AOT_stimuli/rescaled_final/2132_rv.mp4	0.0	526.061429977417	2.5003650188446045
83	384.22422194480896	pulse	1	t		81.0	2.5	/experiments/knapen_AOT/AOT_stimuli/rescaled_final/2132_rv.mp4	0.0	527.2453229427338	
83	385.5406939983368	fix_post	2		12	81.0	2.5	/experiments/knapen_AOT/AOT_stimuli/rescaled_final/2132_rv.mp4	0.0	528.5617949962616	0.09999799728393555
84	385.6406919956207	fix_pre	0		120	82.0	2.5	/experiments/knapen_AOT/AOT_stimuli/rescaled_final/1226_rv.mp4	0.0	528.6617929935455	1.0001749992370605
84	385.8243238925934	pulse	0	t		82.0	2.5	/experiments/knapen_AOT/AOT_stimuli/rescaled_final/1226_rv.mp4	0.0	528.8454248905182	
84	386.6408669948578	movie	1		244	82.0	2.5	/experiments/knapen_AOT/AOT_stimuli/rescaled_final/1226_rv.mp4	0.0	529.6619679927826	2.50034499168396
84	387.42451190948486	pulse	1	t		82.0	2.5	/experiments/knapen_AOT/AOT_stimuli/rescaled_final/1226_rv.mp4	0.0	530.4456129074097	
84	389.02230501174927	pulse	1	t		82.0	2.5	/experiments/knapen_AOT/AOT_stimuli/rescaled_final/1226_rv.mp4	0.0	532.0434060096741	
84	389.14121198654175	fix_post	2		12	82.0	2.5	/experiments/knapen_AOT/AOT_stimuli/rescaled_final/1226_rv.mp4	0.0	532.1623129844666	0.10005903244018555
85	389.24127101898193	fix_pre	0		120	83.0	2.5	blank	1.0	532.2623720169067	1.0000989437103271
85	390.24136996269226	movie	1		299	83.0	2.5	blank	1.0	533.2624709606171	2.492074966430664
85	390.6250879764557	pulse	1	t		83.0	2.5	blank	1.0	533.6461889743805	
85	392.22527289390564	pulse	1	t		83.0	2.5	blank	1.0	535.2463738918304	
85	392.7334449291229	fix_post	2		12	83.0	2.5	blank	1.0	535.7545459270477	0.09999608993530273
87	392.8334410190582	stim	0		1716					535.854542016983	14.302255868911743
87	393.8254768848419	pulse	0	t						536.8465778827667	
87	395.4256429672241	pulse	0	t						538.4467439651489	
87	397.0184540748596	pulse	0	t						540.0395550727844	
87	398.61786007881165	pulse	0	t						541.6389610767365	
87	400.21809697151184	pulse	0	t						543.2391979694366	
87	401.8183329105377	pulse	0	t						544.8394339084625	
87	403.4185230731964	pulse	0	t						546.4396240711212	
87	405.01882791519165	pulse	0	t						548.0399289131165	
87	406.6190140247345	pulse	0	t						549.6401150226593	
