trial_nr	onset	event_type	phase	response	nr_frames	movie_index	movie_duration	movie_file	blank	onset_abs	duration
0	0.14982223510742188	stim	0		21					19.225483894348145	0.18325090408325195
0	0.3171117305755615	response	0	space						19.392773389816284	
1	0.33307313919067383	stim	0		4691					19.408734798431396	39.11035227775574
1	39.42609882354736	pulse	0	t						58.501760482788086	
1	39.44342541694641	stim	1		1714					58.519087076187134	14.297717809677124
1	41.02283549308777	pulse	1	t						60.09849715232849	
1	42.62296795845032	pulse	1	t						61.69862961769104	
1	44.223260164260864	pulse	1	t						63.29892182350159	
1	45.823463439941406	pulse	1	t						64.89912509918213	
1	47.42376375198364	pulse	1	t						66.49942541122437	
1	49.02432870864868	pulse	1	t						68.0999903678894	
1	50.624492168426514	pulse	1	t						69.70015382766724	
1	52.2244291305542	pulse	1	t						71.30009078979492	
2	53.741143226623535	fix_pre	0		11	0.0	2.5	/experiments/knapen_AOT/AOT_stimuli/rescaled_final/1625_fw.mp4	0.0	72.81680488586426	0.11675500869750977
2	53.824697494506836	pulse	0	t		0.0	2.5	/experiments/knapen_AOT/AOT_stimuli/rescaled_final/1625_fw.mp4	0.0	72.90035915374756	
2	53.857898235321045	movie	1		281	0.0	2.5	/experiments/knapen_AOT/AOT_stimuli/rescaled_final/1625_fw.mp4	0.0	72.93355989456177	2.483764886856079
2	55.4231698513031	pulse	1	t		0.0	2.5	/experiments/knapen_AOT/AOT_stimuli/rescaled_final/1625_fw.mp4	0.0	74.49883151054382	
2	56.341663122177124	fix_post	2		12	0.0	2.5	/experiments/knapen_AOT/AOT_stimuli/rescaled_final/1625_fw.mp4	0.0	75.41732478141785	0.09991884231567383
3	56.4415819644928	fix_pre	0		120	1.0	2.5	/experiments/knapen_AOT/AOT_stimuli/rescaled_final/0306_fw.mp4	0.0	75.51724362373352	1.0087165832519531
3	57.025290727615356	pulse	0	t		1.0	2.5	/experiments/knapen_AOT/AOT_stimuli/rescaled_final/0306_fw.mp4	0.0	76.10095238685608	
3	57.45029854774475	movie	1		272	1.0	2.5	/experiments/knapen_AOT/AOT_stimuli/rescaled_final/0306_fw.mp4	0.0	76.52596020698547	2.4918229579925537
3	58.62326216697693	pulse	1	t		1.0	2.5	/experiments/knapen_AOT/AOT_stimuli/rescaled_final/0306_fw.mp4	0.0	77.69892382621765	
3	59.942121505737305	fix_post	2		12	1.0	2.5	/experiments/knapen_AOT/AOT_stimuli/rescaled_final/0306_fw.mp4	0.0	79.01778316497803	0.09999656677246094
4	60.042118072509766	fix_pre	0		120	2.0	2.5	/experiments/knapen_AOT/AOT_stimuli/rescaled_final/1802_rv.mp4	0.0	79.11777973175049	1.0085492134094238
4	60.22563815116882	pulse	0	t		2.0	2.5	/experiments/knapen_AOT/AOT_stimuli/rescaled_final/1802_rv.mp4	0.0	79.30129981040955	
4	61.05066728591919	movie	1		272	2.0	2.5	/experiments/knapen_AOT/AOT_stimuli/rescaled_final/1802_rv.mp4	0.0	80.12632894515991	2.4920947551727295
4	61.82455396652222	pulse	1	t		2.0	2.5	/experiments/knapen_AOT/AOT_stimuli/rescaled_final/1802_rv.mp4	0.0	80.90021562576294	
4	63.424294233322144	pulse	1	t		2.0	2.5	/experiments/knapen_AOT/AOT_stimuli/rescaled_final/1802_rv.mp4	0.0	82.49995589256287	
4	63.54276204109192	fix_post	2		12	2.0	2.5	/experiments/knapen_AOT/AOT_stimuli/rescaled_final/1802_rv.mp4	0.0	82.61842370033264	0.09986448287963867
5	63.64262652397156	fix_pre	0		120	3.0	2.5	/experiments/knapen_AOT/AOT_stimuli/rescaled_final/1491_fw.mp4	0.0	82.71828818321228	1.00850510597229
5	64.65113162994385	movie	1		287	3.0	2.5	/experiments/knapen_AOT/AOT_stimuli/rescaled_final/1491_fw.mp4	0.0	83.72679328918457	2.4920811653137207
5	65.02480435371399	pulse	1	t		3.0	2.5	/experiments/knapen_AOT/AOT_stimuli/rescaled_final/1491_fw.mp4	0.0	84.10046601295471	
5	66.62425208091736	pulse	1	t		3.0	2.5	/experiments/knapen_AOT/AOT_stimuli/rescaled_final/1491_fw.mp4	0.0	85.69991374015808	
5	67.14321279525757	fix_post	2		12	3.0	2.5	/experiments/knapen_AOT/AOT_stimuli/rescaled_final/1491_fw.mp4	0.0	86.21887445449829	0.10003519058227539
6	67.24324798583984	fix_pre	0		119	4.0	2.5	/experiments/knapen_AOT/AOT_stimuli/rescaled_final/0174_rv.mp4	0.0	86.31890964508057	1.000086784362793
6	68.22693753242493	pulse	0	t		4.0	2.5	/experiments/knapen_AOT/AOT_stimuli/rescaled_final/0174_rv.mp4	0.0	87.30259919166565	
6	68.24333477020264	movie	1		276	4.0	2.5	/experiments/knapen_AOT/AOT_stimuli/rescaled_final/0174_rv.mp4	0.0	87.31899642944336	2.5003435611724854
6	69.8268985748291	pulse	1	t		4.0	2.5	/experiments/knapen_AOT/AOT_stimuli/rescaled_final/0174_rv.mp4	0.0	88.90256023406982	
6	70.74367833137512	fix_post	2		12	4.0	2.5	/experiments/knapen_AOT/AOT_stimuli/rescaled_final/0174_rv.mp4	0.0	89.81933999061584	0.10008525848388672
7	70.84376358985901	fix_pre	0		120	5.0	2.5	/experiments/knapen_AOT/AOT_stimuli/rescaled_final/0171_rv.mp4	0.0	89.91942524909973	1.0085155963897705
7	71.41938138008118	pulse	0	t		5.0	2.5	/experiments/knapen_AOT/AOT_stimuli/rescaled_final/0171_rv.mp4	0.0	90.4950430393219	
7	71.85227918624878	movie	1		268	5.0	2.5	/experiments/knapen_AOT/AOT_stimuli/rescaled_final/0171_rv.mp4	0.0	90.9279408454895	2.4921822547912598
7	73.0195689201355	pulse	1	t		5.0	2.5	/experiments/knapen_AOT/AOT_stimuli/rescaled_final/0171_rv.mp4	0.0	92.09523057937622	
7	74.34446144104004	fix_post	2		12	5.0	2.5	/experiments/knapen_AOT/AOT_stimuli/rescaled_final/0171_rv.mp4	0.0	93.42012310028076	0.09983992576599121
8	74.44430136680603	fix_pre	0		120	6.0	2.5	blank	1.0	93.51996302604675	1.0001394748687744
8	74.61991715431213	pulse	0	t		6.0	2.5	blank	1.0	93.69557881355286	
8	75.4444408416748	movie	1		300	6.0	2.5	blank	1.0	94.52010250091553	2.500343084335327
8	76.21990370750427	pulse	1	t		6.0	2.5	blank	1.0	95.295565366745	
8	77.8199372291565	pulse	1	t		6.0	2.5	blank	1.0	96.89559888839722	
8	77.94478392601013	fix_post	2		12	6.0	2.5	blank	1.0	97.02044558525085	0.09999537467956543
9	78.0447793006897	fix_pre	0		120	7.0	2.5	/experiments/knapen_AOT/AOT_stimuli/rescaled_final/0279_fw.mp4	0.0	97.12044095993042	1.008570671081543
9	79.05334997177124	movie	1		279	7.0	2.5	/experiments/knapen_AOT/AOT_stimuli/rescaled_final/0279_fw.mp4	0.0	98.12901163101196	2.492204189300537
9	79.42020893096924	pulse	1	t		7.0	2.5	/experiments/knapen_AOT/AOT_stimuli/rescaled_final/0279_fw.mp4	0.0	98.49587059020996	
9	81.02056860923767	pulse	1	t		7.0	2.5	/experiments/knapen_AOT/AOT_stimuli/rescaled_final/0279_fw.mp4	0.0	100.0962302684784	
9	81.54555416107178	fix_post	2		12	7.0	2.5	/experiments/knapen_AOT/AOT_stimuli/rescaled_final/0279_fw.mp4	0.0	100.6212158203125	0.0998082160949707
10	81.64536237716675	fix_pre	0		118	8.0	2.5	/experiments/knapen_AOT/AOT_stimuli/rescaled_final/1550_rv.mp4	0.0	100.72102403640747	0.9919278621673584
10	82.62067532539368	pulse	0	t		8.0	2.5	/experiments/knapen_AOT/AOT_stimuli/rescaled_final/1550_rv.mp4	0.0	101.6963369846344	
10	82.6372902393341	movie	1		255	8.0	2.5	/experiments/knapen_AOT/AOT_stimuli/rescaled_final/1550_rv.mp4	0.0	101.71295189857483	2.500220775604248
10	84.21942090988159	pulse	1	t		8.0	2.5	/experiments/knapen_AOT/AOT_stimuli/rescaled_final/1550_rv.mp4	0.0	103.29508256912231	
10	85.13751101493835	fix_post	2		12	8.0	2.5	/experiments/knapen_AOT/AOT_stimuli/rescaled_final/1550_rv.mp4	0.0	104.21317267417908	0.10001635551452637
11	85.23752737045288	fix_pre	0		120	9.0	2.5	/experiments/knapen_AOT/AOT_stimuli/rescaled_final/1295_fw.mp4	0.0	104.3131890296936	1.0085594654083252
11	85.82167959213257	pulse	0	t		9.0	2.5	/experiments/knapen_AOT/AOT_stimuli/rescaled_final/1295_fw.mp4	0.0	104.89734125137329	
11	86.2460868358612	movie	1		259	9.0	2.5	/experiments/knapen_AOT/AOT_stimuli/rescaled_final/1295_fw.mp4	0.0	105.32174849510193	2.4919629096984863
11	87.42169237136841	pulse	1	t		9.0	2.5	/experiments/knapen_AOT/AOT_stimuli/rescaled_final/1295_fw.mp4	0.0	106.49735403060913	
11	88.73804974555969	fix_post	2		12	9.0	2.5	/experiments/knapen_AOT/AOT_stimuli/rescaled_final/1295_fw.mp4	0.0	107.81371140480042	0.10001397132873535
12	88.83806371688843	fix_pre	0		120	10.0	2.5	/experiments/knapen_AOT/AOT_stimuli/rescaled_final/1489_rv.mp4	0.0	107.91372537612915	1.0085947513580322
12	89.0218448638916	pulse	0	t		10.0	2.5	/experiments/knapen_AOT/AOT_stimuli/rescaled_final/1489_rv.mp4	0.0	108.09750652313232	
12	89.84665846824646	movie	1		269	10.0	2.5	/experiments/knapen_AOT/AOT_stimuli/rescaled_final/1489_rv.mp4	0.0	108.92232012748718	2.4921140670776367
12	90.61979675292969	pulse	1	t		10.0	2.5	/experiments/knapen_AOT/AOT_stimuli/rescaled_final/1489_rv.mp4	0.0	109.69545841217041	
12	92.22320628166199	pulse	1	t		10.0	2.5	/experiments/knapen_AOT/AOT_stimuli/rescaled_final/1489_rv.mp4	0.0	111.29886794090271	
12	92.3387725353241	fix_post	2		12	10.0	2.5	/experiments/knapen_AOT/AOT_stimuli/rescaled_final/1489_rv.mp4	0.0	111.41443419456482	0.10015344619750977
13	92.4389259815216	fix_pre	0		120	11.0	2.5	/experiments/knapen_AOT/AOT_stimuli/rescaled_final/1389_rv.mp4	0.0	111.51458764076233	1.0082283020019531
13	93.44715428352356	movie	1		266	11.0	2.5	/experiments/knapen_AOT/AOT_stimuli/rescaled_final/1389_rv.mp4	0.0	112.52281594276428	2.492079734802246
13	93.82202672958374	pulse	1	t		11.0	2.5	/experiments/knapen_AOT/AOT_stimuli/rescaled_final/1389_rv.mp4	0.0	112.89768838882446	
13	95.42235493659973	pulse	1	t		11.0	2.5	/experiments/knapen_AOT/AOT_stimuli/rescaled_final/1389_rv.mp4	0.0	114.49801659584045	
13	95.9392340183258	fix_post	2		12	11.0	2.5	/experiments/knapen_AOT/AOT_stimuli/rescaled_final/1389_rv.mp4	0.0	115.01489567756653	0.09991025924682617
14	96.03914427757263	fix_pre	0		119	12.0	2.5	blank	1.0	115.11480593681335	0.9918348789215088
14	97.02306890487671	pulse	0	t		12.0	2.5	blank	1.0	116.09873056411743	
14	97.03097915649414	movie	1		301	12.0	2.5	blank	1.0	116.10664081573486	2.5087013244628906
14	98.62309837341309	pulse	1	t		12.0	2.5	blank	1.0	117.69876003265381	
14	99.53968048095703	fix_post	2		12	12.0	2.5	blank	1.0	118.61534214019775	0.10000944137573242
15	99.63968992233276	fix_pre	0		120	13.0	2.5	/experiments/knapen_AOT/AOT_stimuli/rescaled_final/0311_fw.mp4	0.0	118.71535158157349	1.0171067714691162
15	100.2233316898346	pulse	0	t		13.0	2.5	/experiments/knapen_AOT/AOT_stimuli/rescaled_final/0311_fw.mp4	0.0	119.29899334907532	
15	100.65679669380188	movie	1		277	13.0	2.5	/experiments/knapen_AOT/AOT_stimuli/rescaled_final/0311_fw.mp4	0.0	119.7324583530426	2.483590602874756
15	101.82266569137573	pulse	1	t		13.0	2.5	/experiments/knapen_AOT/AOT_stimuli/rescaled_final/0311_fw.mp4	0.0	120.89832735061646	
15	103.14038729667664	fix_post	2		12	13.0	2.5	/experiments/knapen_AOT/AOT_stimuli/rescaled_final/0311_fw.mp4	0.0	122.21604895591736	0.09992742538452148
16	103.24031472206116	fix_pre	0		120	14.0	2.5	/experiments/knapen_AOT/AOT_stimuli/rescaled_final/1581_fw.mp4	0.0	122.31597638130188	1.008660078048706
16	103.42417025566101	pulse	0	t		14.0	2.5	/experiments/knapen_AOT/AOT_stimuli/rescaled_final/1581_fw.mp4	0.0	122.49983191490173	
16	104.24897480010986	movie	1		273	14.0	2.5	/experiments/knapen_AOT/AOT_stimuli/rescaled_final/1581_fw.mp4	0.0	123.32463645935059	2.491767406463623
16	105.02205562591553	pulse	1	t		14.0	2.5	/experiments/knapen_AOT/AOT_stimuli/rescaled_final/1581_fw.mp4	0.0	124.09771728515625	
16	106.62230801582336	pulse	1	t		14.0	2.5	/experiments/knapen_AOT/AOT_stimuli/rescaled_final/1581_fw.mp4	0.0	125.69796967506409	
16	106.74074220657349	fix_post	2		12	14.0	2.5	/experiments/knapen_AOT/AOT_stimuli/rescaled_final/1581_fw.mp4	0.0	125.81640386581421	0.10021018981933594
17	106.84095239639282	fix_pre	0		120	15.0	2.5	/experiments/knapen_AOT/AOT_stimuli/rescaled_final/1770_rv.mp4	0.0	125.91661405563354	1.0083160400390625
17	107.84926843643188	movie	1		257	15.0	2.5	/experiments/knapen_AOT/AOT_stimuli/rescaled_final/1770_rv.mp4	0.0	126.92493009567261	2.4922194480895996
17	108.22278022766113	pulse	1	t		15.0	2.5	/experiments/knapen_AOT/AOT_stimuli/rescaled_final/1770_rv.mp4	0.0	127.29844188690186	
17	109.82269644737244	pulse	1	t		15.0	2.5	/experiments/knapen_AOT/AOT_stimuli/rescaled_final/1770_rv.mp4	0.0	128.89835810661316	
17	110.34148788452148	fix_post	2		12	15.0	2.5	/experiments/knapen_AOT/AOT_stimuli/rescaled_final/1770_rv.mp4	0.0	129.4171495437622	0.0998225212097168
18	110.4413104057312	fix_pre	0		119	16.0	2.5	/experiments/knapen_AOT/AOT_stimuli/rescaled_final/0518_rv.mp4	0.0	129.51697206497192	1.000166893005371
18	111.42500138282776	pulse	0	t		16.0	2.5	/experiments/knapen_AOT/AOT_stimuli/rescaled_final/0518_rv.mp4	0.0	130.50066304206848	
18	111.44147729873657	movie	1		267	16.0	2.5	/experiments/knapen_AOT/AOT_stimuli/rescaled_final/0518_rv.mp4	0.0	130.5171389579773	2.500584602355957
18	113.02369379997253	pulse	1	t		16.0	2.5	/experiments/knapen_AOT/AOT_stimuli/rescaled_final/0518_rv.mp4	0.0	132.09935545921326	
18	113.94206190109253	fix_post	2		12	16.0	2.5	/experiments/knapen_AOT/AOT_stimuli/rescaled_final/0518_rv.mp4	0.0	133.01772356033325	0.09989094734191895
19	114.04195284843445	fix_pre	0		120	17.0	2.5	/experiments/knapen_AOT/AOT_stimuli/rescaled_final/1553_fw.mp4	0.0	133.11761450767517	1.00852370262146
19	114.6254734992981	pulse	0	t		17.0	2.5	/experiments/knapen_AOT/AOT_stimuli/rescaled_final/1553_fw.mp4	0.0	133.70113515853882	
19	115.05047655105591	movie	1		268	17.0	2.5	/experiments/knapen_AOT/AOT_stimuli/rescaled_final/1553_fw.mp4	0.0	134.12613821029663	2.4918806552886963
19	116.22373843193054	pulse	1	t		17.0	2.5	/experiments/knapen_AOT/AOT_stimuli/rescaled_final/1553_fw.mp4	0.0	135.29940009117126	
19	117.5423572063446	fix_post	2		12	17.0	2.5	/experiments/knapen_AOT/AOT_stimuli/rescaled_final/1553_fw.mp4	0.0	136.61801886558533	0.10002398490905762
20	117.64238119125366	fix_pre	0		120	18.0	2.5	/experiments/knapen_AOT/AOT_stimuli/rescaled_final/1669_rv.mp4	0.0	136.71804285049438	1.0084948539733887
20	117.8198037147522	pulse	0	t		18.0	2.5	/experiments/knapen_AOT/AOT_stimuli/rescaled_final/1669_rv.mp4	0.0	136.89546537399292	
20	118.65087604522705	movie	1		271	18.0	2.5	/experiments/knapen_AOT/AOT_stimuli/rescaled_final/1669_rv.mp4	0.0	137.72653770446777	2.4920289516448975
20	119.42433595657349	pulse	1	t		18.0	2.5	/experiments/knapen_AOT/AOT_stimuli/rescaled_final/1669_rv.mp4	0.0	138.4999976158142	
20	121.02430367469788	pulse	1	t		18.0	2.5	/experiments/knapen_AOT/AOT_stimuli/rescaled_final/1669_rv.mp4	0.0	140.0999653339386	
20	121.14290499687195	fix_post	2		12	18.0	2.5	/experiments/knapen_AOT/AOT_stimuli/rescaled_final/1669_rv.mp4	0.0	140.21856665611267	0.1000211238861084
21	121.24292612075806	fix_pre	0		120	19.0	2.5	/experiments/knapen_AOT/AOT_stimuli/rescaled_final/1527_rv.mp4	0.0	140.31858777999878	1.0085997581481934
21	122.25152587890625	movie	1		259	19.0	2.5	/experiments/knapen_AOT/AOT_stimuli/rescaled_final/1527_rv.mp4	0.0	141.32718753814697	2.4921014308929443
21	122.62492752075195	pulse	1	t		19.0	2.5	/experiments/knapen_AOT/AOT_stimuli/rescaled_final/1527_rv.mp4	0.0	141.70058917999268	
21	124.21928882598877	pulse	1	t		19.0	2.5	/experiments/knapen_AOT/AOT_stimuli/rescaled_final/1527_rv.mp4	0.0	143.2949504852295	
21	124.7436273097992	fix_post	2		12	19.0	2.5	/experiments/knapen_AOT/AOT_stimuli/rescaled_final/1527_rv.mp4	0.0	143.81928896903992	0.09994125366210938
22	124.8435685634613	fix_pre	0		118	20.0	2.5	/experiments/knapen_AOT/AOT_stimuli/rescaled_final/0044_fw.mp4	0.0	143.91923022270203	0.9917244911193848
22	125.81906986236572	pulse	0	t		20.0	2.5	/experiments/knapen_AOT/AOT_stimuli/rescaled_final/0044_fw.mp4	0.0	144.89473152160645	
22	125.83529305458069	movie	1		267	20.0	2.5	/experiments/knapen_AOT/AOT_stimuli/rescaled_final/0044_fw.mp4	0.0	144.9109547138214	2.500358819961548
22	127.41914415359497	pulse	1	t		20.0	2.5	/experiments/knapen_AOT/AOT_stimuli/rescaled_final/0044_fw.mp4	0.0	146.4948058128357	
22	128.33565187454224	fix_post	2		12	20.0	2.5	/experiments/knapen_AOT/AOT_stimuli/rescaled_final/0044_fw.mp4	0.0	147.41131353378296	0.10008788108825684
23	128.4357397556305	fix_pre	0		120	21.0	2.5	blank	1.0	147.51140141487122	1.0000686645507812
23	129.01943850517273	pulse	0	t		21.0	2.5	blank	1.0	148.09510016441345	
23	129.43580842018127	movie	1		300	21.0	2.5	blank	1.0	148.511470079422	2.5003879070281982
23	130.61956238746643	pulse	1	t		21.0	2.5	blank	1.0	149.69522404670715	
23	131.93619632720947	fix_post	2		12	21.0	2.5	blank	1.0	151.0118579864502	0.10001921653747559
24	132.03621554374695	fix_pre	0		120	22.0	2.5	/experiments/knapen_AOT/AOT_stimuli/rescaled_final/0075_fw.mp4	0.0	151.11187720298767	1.008481740951538
24	132.21991229057312	pulse	0	t		22.0	2.5	/experiments/knapen_AOT/AOT_stimuli/rescaled_final/0075_fw.mp4	0.0	151.29557394981384	
24	133.0446972846985	movie	1		268	22.0	2.5	/experiments/knapen_AOT/AOT_stimuli/rescaled_final/0075_fw.mp4	0.0	152.1203589439392	2.49237060546875
24	133.81883692741394	pulse	1	t		22.0	2.5	/experiments/knapen_AOT/AOT_stimuli/rescaled_final/0075_fw.mp4	0.0	152.89449858665466	
24	135.42050051689148	pulse	1	t		22.0	2.5	/experiments/knapen_AOT/AOT_stimuli/rescaled_final/0075_fw.mp4	0.0	154.4961621761322	
24	135.53706789016724	fix_post	2		12	22.0	2.5	/experiments/knapen_AOT/AOT_stimuli/rescaled_final/0075_fw.mp4	0.0	154.61272954940796	0.09967446327209473
25	135.63674235343933	fix_pre	0		120	23.0	2.5	/experiments/knapen_AOT/AOT_stimuli/rescaled_final/1783_fw.mp4	0.0	154.71240401268005	1.0086429119110107
25	136.64538526535034	movie	1		258	23.0	2.5	/experiments/knapen_AOT/AOT_stimuli/rescaled_final/1783_fw.mp4	0.0	155.72104692459106	2.491987943649292
25	137.0190896987915	pulse	1	t		23.0	2.5	/experiments/knapen_AOT/AOT_stimuli/rescaled_final/1783_fw.mp4	0.0	156.09475135803223	
25	138.62103629112244	pulse	1	t		23.0	2.5	/experiments/knapen_AOT/AOT_stimuli/rescaled_final/1783_fw.mp4	0.0	157.69669795036316	
25	139.13737320899963	fix_post	2		12	23.0	2.5	/experiments/knapen_AOT/AOT_stimuli/rescaled_final/1783_fw.mp4	0.0	158.21303486824036	0.10017156600952148
26	139.23754477500916	fix_pre	0		119	24.0	2.5	/experiments/knapen_AOT/AOT_stimuli/rescaled_final/0014_fw.mp4	0.0	158.31320643424988	1.0002918243408203
26	140.2209656238556	pulse	0	t		24.0	2.5	/experiments/knapen_AOT/AOT_stimuli/rescaled_final/0014_fw.mp4	0.0	159.2966272830963	
26	140.23783659934998	movie	1		261	24.0	2.5	/experiments/knapen_AOT/AOT_stimuli/rescaled_final/0014_fw.mp4	0.0	159.3134982585907	2.4999570846557617
26	141.81966161727905	pulse	1	t		24.0	2.5	/experiments/knapen_AOT/AOT_stimuli/rescaled_final/0014_fw.mp4	0.0	160.89532327651978	
26	142.73779368400574	fix_post	2		12	24.0	2.5	/experiments/knapen_AOT/AOT_stimuli/rescaled_final/0014_fw.mp4	0.0	161.81345534324646	0.10004067420959473
27	142.83783435821533	fix_pre	0		120	25.0	2.5	/experiments/knapen_AOT/AOT_stimuli/rescaled_final/0986_rv.mp4	0.0	161.91349601745605	1.0086090564727783
27	143.42156767845154	pulse	0	t		25.0	2.5	/experiments/knapen_AOT/AOT_stimuli/rescaled_final/0986_rv.mp4	0.0	162.49722933769226	
27	143.8464434146881	movie	1		272	25.0	2.5	/experiments/knapen_AOT/AOT_stimuli/rescaled_final/0986_rv.mp4	0.0	162.92210507392883	2.492091655731201
27	145.01985955238342	pulse	1	t		25.0	2.5	/experiments/knapen_AOT/AOT_stimuli/rescaled_final/0986_rv.mp4	0.0	164.09552121162415	
27	146.3385350704193	fix_post	2		12	25.0	2.5	/experiments/knapen_AOT/AOT_stimuli/rescaled_final/0986_rv.mp4	0.0	165.41419672966003	0.09998226165771484
28	146.43851733207703	fix_pre	0		120	26.0	2.5	/experiments/knapen_AOT/AOT_stimuli/rescaled_final/1855_rv.mp4	0.0	165.51417899131775	1.008406639099121
28	146.6221947669983	pulse	0	t		26.0	2.5	/experiments/knapen_AOT/AOT_stimuli/rescaled_final/1855_rv.mp4	0.0	165.697856426239	
28	147.44692397117615	movie	1		261	26.0	2.5	/experiments/knapen_AOT/AOT_stimuli/rescaled_final/1855_rv.mp4	0.0	166.52258563041687	2.492093801498413
28	148.22003388404846	pulse	1	t		26.0	2.5	/experiments/knapen_AOT/AOT_stimuli/rescaled_final/1855_rv.mp4	0.0	167.29569554328918	
28	149.82039785385132	pulse	1	t		26.0	2.5	/experiments/knapen_AOT/AOT_stimuli/rescaled_final/1855_rv.mp4	0.0	168.89605951309204	
28	149.93901777267456	fix_post	2		12	26.0	2.5	/experiments/knapen_AOT/AOT_stimuli/rescaled_final/1855_rv.mp4	0.0	169.01467943191528	0.09988903999328613
29	150.03890681266785	fix_pre	0		120	27.0	2.5	/experiments/knapen_AOT/AOT_stimuli/rescaled_final/1637_fw.mp4	0.0	169.11456847190857	1.0084855556488037
29	151.04739236831665	movie	1		285	27.0	2.5	/experiments/knapen_AOT/AOT_stimuli/rescaled_final/1637_fw.mp4	0.0	170.12305402755737	2.4922170639038086
29	151.42057061195374	pulse	1	t		27.0	2.5	/experiments/knapen_AOT/AOT_stimuli/rescaled_final/1637_fw.mp4	0.0	170.49623227119446	
29	153.0210907459259	pulse	1	t		27.0	2.5	/experiments/knapen_AOT/AOT_stimuli/rescaled_final/1637_fw.mp4	0.0	172.09675240516663	
29	153.53960943222046	fix_post	2		12	27.0	2.5	/experiments/knapen_AOT/AOT_stimuli/rescaled_final/1637_fw.mp4	0.0	172.61527109146118	0.09987711906433105
30	153.6394865512848	fix_pre	0		119	28.0	2.5	blank	1.0	172.7151482105255	0.9917826652526855
30	154.623211145401	pulse	0	t		28.0	2.5	blank	1.0	173.69887280464172	
30	154.63126921653748	movie	1		301	28.0	2.5	blank	1.0	173.7069308757782	2.5086865425109863
30	156.2234103679657	pulse	1	t		28.0	2.5	blank	1.0	175.29907202720642	
30	157.13995575904846	fix_post	2		12	28.0	2.5	blank	1.0	176.21561741828918	0.10003209114074707
31	157.2399878501892	fix_pre	0		120	29.0	2.5	/experiments/knapen_AOT/AOT_stimuli/rescaled_final/1490_rv.mp4	0.0	176.31564950942993	1.0085783004760742
31	157.82360768318176	pulse	0	t		29.0	2.5	/experiments/knapen_AOT/AOT_stimuli/rescaled_final/1490_rv.mp4	0.0	176.89926934242249	
31	158.24856615066528	movie	1		257	29.0	2.5	/experiments/knapen_AOT/AOT_stimuli/rescaled_final/1490_rv.mp4	0.0	177.324227809906	2.492079734802246
31	159.4243574142456	pulse	1	t		29.0	2.5	/experiments/knapen_AOT/AOT_stimuli/rescaled_final/1490_rv.mp4	0.0	178.50001907348633	
31	160.74064588546753	fix_post	2		12	29.0	2.5	/experiments/knapen_AOT/AOT_stimuli/rescaled_final/1490_rv.mp4	0.0	179.81630754470825	0.09987425804138184
32	160.8405201435089	fix_pre	0		120	30.0	2.5	/experiments/knapen_AOT/AOT_stimuli/rescaled_final/0051_rv.mp4	0.0	179.91618180274963	1.0085349082946777
32	161.0240833759308	pulse	0	t		30.0	2.5	/experiments/knapen_AOT/AOT_stimuli/rescaled_final/0051_rv.mp4	0.0	180.0997450351715	
32	161.8490550518036	movie	1		275	30.0	2.5	/experiments/knapen_AOT/AOT_stimuli/rescaled_final/0051_rv.mp4	0.0	180.9247167110443	2.4922540187835693
32	162.62203335762024	pulse	1	t		30.0	2.5	/experiments/knapen_AOT/AOT_stimuli/rescaled_final/0051_rv.mp4	0.0	181.69769501686096	
32	164.22399997711182	pulse	1	t		30.0	2.5	/experiments/knapen_AOT/AOT_stimuli/rescaled_final/0051_rv.mp4	0.0	183.29966163635254	
32	164.34130907058716	fix_post	2		12	30.0	2.5	/experiments/knapen_AOT/AOT_stimuli/rescaled_final/0051_rv.mp4	0.0	183.41697072982788	0.09974050521850586
33	164.44104957580566	fix_pre	0		120	31.0	2.5	/experiments/knapen_AOT/AOT_stimuli/rescaled_final/0963_rv.mp4	0.0	183.5167112350464	1.0086209774017334
33	165.4496705532074	movie	1		273	31.0	2.5	/experiments/knapen_AOT/AOT_stimuli/rescaled_final/0963_rv.mp4	0.0	184.52533221244812	2.492183208465576
33	165.82435250282288	pulse	1	t		31.0	2.5	/experiments/knapen_AOT/AOT_stimuli/rescaled_final/0963_rv.mp4	0.0	184.9000141620636	
33	167.42554378509521	pulse	1	t		31.0	2.5	/experiments/knapen_AOT/AOT_stimuli/rescaled_final/0963_rv.mp4	0.0	186.50120544433594	
33	167.94185376167297	fix_post	2		12	31.0	2.5	/experiments/knapen_AOT/AOT_stimuli/rescaled_final/0963_rv.mp4	0.0	187.0175154209137	0.09977126121520996
34	168.04162502288818	fix_pre	0		119	32.0	2.5	/experiments/knapen_AOT/AOT_stimuli/rescaled_final/0301_fw.mp4	0.0	187.1172866821289	1.0002007484436035
34	169.02535486221313	pulse	0	t		32.0	2.5	/experiments/knapen_AOT/AOT_stimuli/rescaled_final/0301_fw.mp4	0.0	188.10101652145386	
34	169.0418257713318	movie	1		271	32.0	2.5	/experiments/knapen_AOT/AOT_stimuli/rescaled_final/0301_fw.mp4	0.0	188.1174874305725	2.5005555152893066
34	170.6253845691681	pulse	1	t		32.0	2.5	/experiments/knapen_AOT/AOT_stimuli/rescaled_final/0301_fw.mp4	0.0	189.7010462284088	
34	171.5423812866211	fix_post	2		12	32.0	2.5	/experiments/knapen_AOT/AOT_stimuli/rescaled_final/0301_fw.mp4	0.0	190.61804294586182	0.09981226921081543
35	171.6421935558319	fix_pre	0		120	33.0	2.5	/experiments/knapen_AOT/AOT_stimuli/rescaled_final/0137_rv.mp4	0.0	190.71785521507263	1.0085411071777344
35	172.22577381134033	pulse	0	t		33.0	2.5	/experiments/knapen_AOT/AOT_stimuli/rescaled_final/0137_rv.mp4	0.0	191.30143547058105	
35	172.65073466300964	movie	1		279	33.0	2.5	/experiments/knapen_AOT/AOT_stimuli/rescaled_final/0137_rv.mp4	0.0	191.72639632225037	2.492166519165039
35	173.82405543327332	pulse	1	t		33.0	2.5	/experiments/knapen_AOT/AOT_stimuli/rescaled_final/0137_rv.mp4	0.0	192.89971709251404	
35	175.14290118217468	fix_post	2		12	33.0	2.5	/experiments/knapen_AOT/AOT_stimuli/rescaled_final/0137_rv.mp4	0.0	194.2185628414154	0.09982538223266602
36	175.24272656440735	fix_pre	0		120	34.0	2.5	/experiments/knapen_AOT/AOT_stimuli/rescaled_final/1989_rv.mp4	0.0	194.31838822364807	1.0084774494171143
36	175.42632150650024	pulse	0	t		34.0	2.5	/experiments/knapen_AOT/AOT_stimuli/rescaled_final/1989_rv.mp4	0.0	194.50198316574097	
36	176.25120401382446	movie	1		267	34.0	2.5	/experiments/knapen_AOT/AOT_stimuli/rescaled_final/1989_rv.mp4	0.0	195.32686567306519	2.4920272827148438
36	177.0245397090912	pulse	1	t		34.0	2.5	/experiments/knapen_AOT/AOT_stimuli/rescaled_final/1989_rv.mp4	0.0	196.1002013683319	
36	178.6261875629425	pulse	1	t		34.0	2.5	/experiments/knapen_AOT/AOT_stimuli/rescaled_final/1989_rv.mp4	0.0	197.70184922218323	
36	178.7432312965393	fix_post	2		12	34.0	2.5	/experiments/knapen_AOT/AOT_stimuli/rescaled_final/1989_rv.mp4	0.0	197.81889295578003	0.10002875328063965
37	178.84326004981995	fix_pre	0		120	35.0	2.5	blank	1.0	197.91892170906067	1.0002686977386475
37	179.8435287475586	movie	1		300	35.0	2.5	blank	1.0	198.91919040679932	2.5002105236053467
37	180.21958327293396	pulse	1	t		35.0	2.5	blank	1.0	199.29524493217468	
37	181.81909799575806	pulse	1	t		35.0	2.5	blank	1.0	200.89475965499878	
37	182.34373927116394	fix_post	2		12	35.0	2.5	blank	1.0	201.41940093040466	0.10004687309265137
38	182.4437861442566	fix_pre	0		118	36.0	2.5	/experiments/knapen_AOT/AOT_stimuli/rescaled_final/1802_fw.mp4	0.0	201.51944780349731	0.9920511245727539
38	183.41923689842224	pulse	0	t		36.0	2.5	/experiments/knapen_AOT/AOT_stimuli/rescaled_final/1802_fw.mp4	0.0	202.49489855766296	
38	183.43583726882935	movie	1		268	36.0	2.5	/experiments/knapen_AOT/AOT_stimuli/rescaled_final/1802_fw.mp4	0.0	202.51149892807007	2.500239133834839
38	185.0196394920349	pulse	1	t		36.0	2.5	/experiments/knapen_AOT/AOT_stimuli/rescaled_final/1802_fw.mp4	0.0	204.09530115127563	
38	185.93607640266418	fix_post	2		12	36.0	2.5	/experiments/knapen_AOT/AOT_stimuli/rescaled_final/1802_fw.mp4	0.0	205.0117380619049	0.09991669654846191
39	186.03599309921265	fix_pre	0		120	37.0	2.5	/experiments/knapen_AOT/AOT_stimuli/rescaled_final/1205_fw.mp4	0.0	205.11165475845337	1.0087170600891113
39	186.61972975730896	pulse	0	t		37.0	2.5	/experiments/knapen_AOT/AOT_stimuli/rescaled_final/1205_fw.mp4	0.0	205.69539141654968	
39	187.04471015930176	movie	1		276	37.0	2.5	/experiments/knapen_AOT/AOT_stimuli/rescaled_final/1205_fw.mp4	0.0	206.12037181854248	2.4919190406799316
39	188.2198507785797	pulse	1	t		37.0	2.5	/experiments/knapen_AOT/AOT_stimuli/rescaled_final/1205_fw.mp4	0.0	207.29551243782043	
39	189.5366291999817	fix_post	2		12	37.0	2.5	/experiments/knapen_AOT/AOT_stimuli/rescaled_final/1205_fw.mp4	0.0	208.6122908592224	0.0998985767364502
40	189.63652777671814	fix_pre	0		120	38.0	2.5	/experiments/knapen_AOT/AOT_stimuli/rescaled_final/1940_fw.mp4	0.0	208.71218943595886	1.008493423461914
40	189.8201880455017	pulse	0	t		38.0	2.5	/experiments/knapen_AOT/AOT_stimuli/rescaled_final/1940_fw.mp4	0.0	208.89584970474243	
40	190.64502120018005	movie	1		245	38.0	2.5	/experiments/knapen_AOT/AOT_stimuli/rescaled_final/1940_fw.mp4	0.0	209.72068285942078	2.492475748062134
40	191.41944646835327	pulse	1	t		38.0	2.5	/experiments/knapen_AOT/AOT_stimuli/rescaled_final/1940_fw.mp4	0.0	210.495108127594	
40	193.0198471546173	pulse	1	t		38.0	2.5	/experiments/knapen_AOT/AOT_stimuli/rescaled_final/1940_fw.mp4	0.0	212.09550881385803	
40	193.1374969482422	fix_post	2		12	38.0	2.5	/experiments/knapen_AOT/AOT_stimuli/rescaled_final/1940_fw.mp4	0.0	212.2131586074829	0.09981989860534668
41	193.23731684684753	fix_pre	0		120	39.0	2.5	/experiments/knapen_AOT/AOT_stimuli/rescaled_final/0937_rv.mp4	0.0	212.31297850608826	1.00828218460083
41	194.24559903144836	movie	1		268	39.0	2.5	/experiments/knapen_AOT/AOT_stimuli/rescaled_final/0937_rv.mp4	0.0	213.3212606906891	2.492234230041504
41	194.62010049819946	pulse	1	t		39.0	2.5	/experiments/knapen_AOT/AOT_stimuli/rescaled_final/0937_rv.mp4	0.0	213.69576215744019	
41	196.2210772037506	pulse	1	t		39.0	2.5	/experiments/knapen_AOT/AOT_stimuli/rescaled_final/0937_rv.mp4	0.0	215.29673886299133	
41	196.73783326148987	fix_post	2		12	39.0	2.5	/experiments/knapen_AOT/AOT_stimuli/rescaled_final/0937_rv.mp4	0.0	215.8134949207306	0.09982728958129883
42	196.83766055107117	fix_pre	0		119	40.0	2.5	/experiments/knapen_AOT/AOT_stimuli/rescaled_final/1330_rv.mp4	0.0	215.9133222103119	1.0001115798950195
42	197.82130908966064	pulse	0	t		40.0	2.5	/experiments/knapen_AOT/AOT_stimuli/rescaled_final/1330_rv.mp4	0.0	216.89697074890137	
42	197.8377721309662	movie	1		278	40.0	2.5	/experiments/knapen_AOT/AOT_stimuli/rescaled_final/1330_rv.mp4	0.0	216.9134337902069	2.500621795654297
42	199.42150259017944	pulse	1	t		40.0	2.5	/experiments/knapen_AOT/AOT_stimuli/rescaled_final/1330_rv.mp4	0.0	218.49716424942017	
42	200.33839392662048	fix_post	2		12	40.0	2.5	/experiments/knapen_AOT/AOT_stimuli/rescaled_final/1330_rv.mp4	0.0	219.4140555858612	0.09980201721191406
43	200.4381959438324	fix_pre	0		120	41.0	2.5	/experiments/knapen_AOT/AOT_stimuli/rescaled_final/1750_rv.mp4	0.0	219.51385760307312	1.0084259510040283
43	201.0217845439911	pulse	0	t		41.0	2.5	/experiments/knapen_AOT/AOT_stimuli/rescaled_final/1750_rv.mp4	0.0	220.0974462032318	
43	201.44662189483643	movie	1		284	41.0	2.5	/experiments/knapen_AOT/AOT_stimuli/rescaled_final/1750_rv.mp4	0.0	220.52228355407715	2.492401599884033
43	202.6222267150879	pulse	1	t		41.0	2.5	/experiments/knapen_AOT/AOT_stimuli/rescaled_final/1750_rv.mp4	0.0	221.6978883743286	
43	203.93902349472046	fix_post	2		12	41.0	2.5	/experiments/knapen_AOT/AOT_stimuli/rescaled_final/1750_rv.mp4	0.0	223.01468515396118	0.0997171401977539
44	204.0387406349182	fix_pre	0		120	42.0	2.5	blank	1.0	223.11440229415894	1.000216007232666
44	204.22227311134338	pulse	0	t		42.0	2.5	blank	1.0	223.2979347705841	
44	205.03895664215088	movie	1		300	42.0	2.5	blank	1.0	224.1146183013916	2.5002424716949463
44	205.82247495651245	pulse	1	t		42.0	2.5	blank	1.0	224.89813661575317	
44	207.42279052734375	pulse	1	t		42.0	2.5	blank	1.0	226.49845218658447	
44	207.53919911384583	fix_post	2		12	42.0	2.5	blank	1.0	226.61486077308655	0.10007143020629883
45	207.63927054405212	fix_pre	0		120	43.0	2.5	/experiments/knapen_AOT/AOT_stimuli/rescaled_final/1527_fw.mp4	0.0	226.71493220329285	1.0084552764892578
45	208.64772582054138	movie	1		290	43.0	2.5	/experiments/knapen_AOT/AOT_stimuli/rescaled_final/1527_fw.mp4	0.0	227.7233874797821	2.492149829864502
45	209.0210132598877	pulse	1	t		43.0	2.5	/experiments/knapen_AOT/AOT_stimuli/rescaled_final/1527_fw.mp4	0.0	228.09667491912842	
45	210.62110781669617	pulse	1	t		43.0	2.5	/experiments/knapen_AOT/AOT_stimuli/rescaled_final/1527_fw.mp4	0.0	229.6967694759369	
45	211.13987565040588	fix_post	2		12	43.0	2.5	/experiments/knapen_AOT/AOT_stimuli/rescaled_final/1527_fw.mp4	0.0	230.2155373096466	0.09992074966430664
46	211.2397964000702	fix_pre	0		119	44.0	2.5	/experiments/knapen_AOT/AOT_stimuli/rescaled_final/1844_rv.mp4	0.0	230.3154580593109	1.0001378059387207
46	212.22348499298096	pulse	0	t		44.0	2.5	/experiments/knapen_AOT/AOT_stimuli/rescaled_final/1844_rv.mp4	0.0	231.29914665222168	
46	212.2399342060089	movie	1		272	44.0	2.5	/experiments/knapen_AOT/AOT_stimuli/rescaled_final/1844_rv.mp4	0.0	231.31559586524963	2.5003697872161865
46	213.82275009155273	pulse	1	t		44.0	2.5	/experiments/knapen_AOT/AOT_stimuli/rescaled_final/1844_rv.mp4	0.0	232.89841175079346	
46	214.7403039932251	fix_post	2		12	44.0	2.5	/experiments/knapen_AOT/AOT_stimuli/rescaled_final/1844_rv.mp4	0.0	233.81596565246582	0.10004138946533203
47	214.84034538269043	fix_pre	0		120	45.0	2.5	/experiments/knapen_AOT/AOT_stimuli/rescaled_final/1193_rv.mp4	0.0	233.91600704193115	1.008558750152588
47	215.42400312423706	pulse	0	t		45.0	2.5	/experiments/knapen_AOT/AOT_stimuli/rescaled_final/1193_rv.mp4	0.0	234.49966478347778	
47	215.84890413284302	movie	1		280	45.0	2.5	/experiments/knapen_AOT/AOT_stimuli/rescaled_final/1193_rv.mp4	0.0	234.92456579208374	2.4921600818634033
47	217.02240586280823	pulse	1	t		45.0	2.5	/experiments/knapen_AOT/AOT_stimuli/rescaled_final/1193_rv.mp4	0.0	236.09806752204895	
47	218.34106421470642	fix_post	2		12	45.0	2.5	/experiments/knapen_AOT/AOT_stimuli/rescaled_final/1193_rv.mp4	0.0	237.41672587394714	0.0998227596282959
48	218.44088697433472	fix_pre	0		120	46.0	2.5	/experiments/knapen_AOT/AOT_stimuli/rescaled_final/1345_rv.mp4	0.0	237.51654863357544	1.0084505081176758
48	218.6244237422943	pulse	0	t		46.0	2.5	/experiments/knapen_AOT/AOT_stimuli/rescaled_final/1345_rv.mp4	0.0	237.70008540153503	
48	219.4493374824524	movie	1		262	46.0	2.5	/experiments/knapen_AOT/AOT_stimuli/rescaled_final/1345_rv.mp4	0.0	238.52499914169312	2.4922966957092285
48	220.22268342971802	pulse	1	t		46.0	2.5	/experiments/knapen_AOT/AOT_stimuli/rescaled_final/1345_rv.mp4	0.0	239.29834508895874	
48	221.82273077964783	pulse	1	t		46.0	2.5	/experiments/knapen_AOT/AOT_stimuli/rescaled_final/1345_rv.mp4	0.0	240.89839243888855	
48	221.94163417816162	fix_post	2		12	46.0	2.5	/experiments/knapen_AOT/AOT_stimuli/rescaled_final/1345_rv.mp4	0.0	241.01729583740234	0.09999847412109375
49	222.04163265228271	fix_pre	0		105	47.0	2.5	/experiments/knapen_AOT/AOT_stimuli/rescaled_final/0736_fw.mp4	0.0	241.11729431152344	1.008458137512207
49	223.05009078979492	movie	1		271	47.0	2.5	/experiments/knapen_AOT/AOT_stimuli/rescaled_final/0736_fw.mp4	0.0	242.12575244903564	2.4918642044067383
49	223.42411375045776	pulse	1	t		47.0	2.5	/experiments/knapen_AOT/AOT_stimuli/rescaled_final/0736_fw.mp4	0.0	242.4997754096985	
49	225.02345180511475	pulse	1	t		47.0	2.5	/experiments/knapen_AOT/AOT_stimuli/rescaled_final/0736_fw.mp4	0.0	244.09911346435547	
49	225.54195499420166	fix_post	2		12	47.0	2.5	/experiments/knapen_AOT/AOT_stimuli/rescaled_final/0736_fw.mp4	0.0	244.61761665344238	0.09997916221618652
50	225.64193415641785	fix_pre	0		119	48.0	2.5	blank	1.0	244.71759581565857	0.9919342994689941
50	226.62599968910217	pulse	0	t		48.0	2.5	blank	1.0	245.7016613483429	
50	226.63386845588684	movie	1		301	48.0	2.5	blank	1.0	245.70953011512756	2.508582830429077
50	228.22585725784302	pulse	1	t		48.0	2.5	blank	1.0	247.30151891708374	
50	229.14245128631592	fix_post	2		12	48.0	2.5	blank	1.0	248.21811294555664	0.10003900527954102
51	229.24249029159546	fix_pre	0		120	49.0	2.5	/experiments/knapen_AOT/AOT_stimuli/rescaled_final/0144_fw.mp4	0.0	248.31815195083618	1.0084691047668457
51	229.82626366615295	pulse	0	t		49.0	2.5	/experiments/knapen_AOT/AOT_stimuli/rescaled_final/0144_fw.mp4	0.0	248.90192532539368	
51	230.2509593963623	movie	1		273	49.0	2.5	/experiments/knapen_AOT/AOT_stimuli/rescaled_final/0144_fw.mp4	0.0	249.32662105560303	2.4922616481781006
51	231.4249291419983	pulse	1	t		49.0	2.5	/experiments/knapen_AOT/AOT_stimuli/rescaled_final/0144_fw.mp4	0.0	250.500590801239	
51	232.7432210445404	fix_post	2		12	49.0	2.5	/experiments/knapen_AOT/AOT_stimuli/rescaled_final/0144_fw.mp4	0.0	251.81888270378113	0.0997915267944336
52	232.84301257133484	fix_pre	0		120	50.0	2.5	/experiments/knapen_AOT/AOT_stimuli/rescaled_final/1631_fw.mp4	0.0	251.91867423057556	1.0086455345153809
52	233.02688217163086	pulse	0	t		50.0	2.5	/experiments/knapen_AOT/AOT_stimuli/rescaled_final/1631_fw.mp4	0.0	252.10254383087158	
52	233.85165810585022	movie	1		276	50.0	2.5	/experiments/knapen_AOT/AOT_stimuli/rescaled_final/1631_fw.mp4	0.0	252.92731976509094	2.492048740386963
52	234.62681412696838	pulse	1	t		50.0	2.5	/experiments/knapen_AOT/AOT_stimuli/rescaled_final/1631_fw.mp4	0.0	253.7024757862091	
52	236.2253816127777	pulse	1	t		50.0	2.5	/experiments/knapen_AOT/AOT_stimuli/rescaled_final/1631_fw.mp4	0.0	255.30104327201843	
52	236.34370684623718	fix_post	2		12	50.0	2.5	/experiments/knapen_AOT/AOT_stimuli/rescaled_final/1631_fw.mp4	0.0	255.4193685054779	0.10000371932983398
53	236.44371056556702	fix_pre	0		120	51.0	2.5	/experiments/knapen_AOT/AOT_stimuli/rescaled_final/1671_fw.mp4	0.0	255.51937222480774	1.0084092617034912
53	237.4521198272705	movie	1		280	51.0	2.5	/experiments/knapen_AOT/AOT_stimuli/rescaled_final/1671_fw.mp4	0.0	256.52778148651123	2.492119550704956
53	237.82585048675537	pulse	1	t		51.0	2.5	/experiments/knapen_AOT/AOT_stimuli/rescaled_final/1671_fw.mp4	0.0	256.9015121459961	
53	239.41964960098267	pulse	1	t		51.0	2.5	/experiments/knapen_AOT/AOT_stimuli/rescaled_final/1671_fw.mp4	0.0	258.4953112602234	
53	239.94423937797546	fix_post	2		12	51.0	2.5	/experiments/knapen_AOT/AOT_stimuli/rescaled_final/1671_fw.mp4	0.0	259.0199010372162	0.09985804557800293
54	240.04409742355347	fix_pre	0		118	52.0	2.5	/experiments/knapen_AOT/AOT_stimuli/rescaled_final/0707_fw.mp4	0.0	259.1197590827942	0.9918224811553955
54	241.01964163780212	pulse	0	t		52.0	2.5	/experiments/knapen_AOT/AOT_stimuli/rescaled_final/0707_fw.mp4	0.0	260.09530329704285	
54	241.03591990470886	movie	1		272	52.0	2.5	/experiments/knapen_AOT/AOT_stimuli/rescaled_final/0707_fw.mp4	0.0	260.1115815639496	2.5005760192871094
54	242.61971759796143	pulse	1	t		52.0	2.5	/experiments/knapen_AOT/AOT_stimuli/rescaled_final/0707_fw.mp4	0.0	261.69537925720215	
54	243.53649592399597	fix_post	2		12	52.0	2.5	/experiments/knapen_AOT/AOT_stimuli/rescaled_final/0707_fw.mp4	0.0	262.6121575832367	0.09994077682495117
55	243.63643670082092	fix_pre	0		120	53.0	2.5	/experiments/knapen_AOT/AOT_stimuli/rescaled_final/1375_rv.mp4	0.0	262.71209836006165	1.0083701610565186
55	244.220032453537	pulse	0	t		53.0	2.5	/experiments/knapen_AOT/AOT_stimuli/rescaled_final/1375_rv.mp4	0.0	263.2956941127777	
55	244.64480686187744	movie	1		278	53.0	2.5	/experiments/knapen_AOT/AOT_stimuli/rescaled_final/1375_rv.mp4	0.0	263.72046852111816	2.492088794708252
55	245.82037806510925	pulse	1	t		53.0	2.5	/experiments/knapen_AOT/AOT_stimuli/rescaled_final/1375_rv.mp4	0.0	264.89603972435	
55	247.1368956565857	fix_post	2		12	53.0	2.5	/experiments/knapen_AOT/AOT_stimuli/rescaled_final/1375_rv.mp4	0.0	266.2125573158264	0.09995818138122559
56	247.23685383796692	fix_pre	0		120	54.0	2.5	/experiments/knapen_AOT/AOT_stimuli/rescaled_final/0414_fw.mp4	0.0	266.31251549720764	1.0087285041809082
56	247.42052602767944	pulse	0	t		54.0	2.5	/experiments/knapen_AOT/AOT_stimuli/rescaled_final/0414_fw.mp4	0.0	266.49618768692017	
56	248.24558234214783	movie	1		284	54.0	2.5	/experiments/knapen_AOT/AOT_stimuli/rescaled_final/0414_fw.mp4	0.0	267.32124400138855	2.492051839828491
56	249.02084279060364	pulse	1	t		54.0	2.5	/experiments/knapen_AOT/AOT_stimuli/rescaled_final/0414_fw.mp4	0.0	268.09650444984436	
56	250.62089657783508	pulse	1	t		54.0	2.5	/experiments/knapen_AOT/AOT_stimuli/rescaled_final/0414_fw.mp4	0.0	269.6965582370758	
56	250.73763418197632	fix_post	2		12	54.0	2.5	/experiments/knapen_AOT/AOT_stimuli/rescaled_final/0414_fw.mp4	0.0	269.81329584121704	0.09977436065673828
57	250.83740854263306	fix_pre	0		120	55.0	2.5	blank	1.0	269.9130702018738	1.0001888275146484
57	251.8375973701477	movie	1		300	55.0	2.5	blank	1.0	270.9132590293884	2.50063419342041
57	252.22162890434265	pulse	1	t		55.0	2.5	blank	1.0	271.2972905635834	
57	253.82156658172607	pulse	1	t		55.0	2.5	blank	1.0	272.8972282409668	
57	254.33823156356812	fix_post	2		12	55.0	2.5	blank	1.0	273.41389322280884	0.09983062744140625
58	254.43806219100952	fix_pre	0		119	56.0	2.5	/experiments/knapen_AOT/AOT_stimuli/rescaled_final/0394_fw.mp4	0.0	273.51372385025024	1.0001869201660156
58	255.4216411113739	pulse	0	t		56.0	2.5	/experiments/knapen_AOT/AOT_stimuli/rescaled_final/0394_fw.mp4	0.0	274.4973027706146	
58	255.43824911117554	movie	1		281	56.0	2.5	/experiments/knapen_AOT/AOT_stimuli/rescaled_final/0394_fw.mp4	0.0	274.51391077041626	2.500356912612915
58	257.02037286758423	pulse	1	t		56.0	2.5	/experiments/knapen_AOT/AOT_stimuli/rescaled_final/0394_fw.mp4	0.0	276.09603452682495	
58	257.93860602378845	fix_post	2		12	56.0	2.5	/experiments/knapen_AOT/AOT_stimuli/rescaled_final/0394_fw.mp4	0.0	277.0142676830292	0.10000085830688477
59	258.03860688209534	fix_pre	0		120	57.0	2.5	/experiments/knapen_AOT/AOT_stimuli/rescaled_final/1056_rv.mp4	0.0	277.11426854133606	1.0083625316619873
59	258.62227392196655	pulse	0	t		57.0	2.5	/experiments/knapen_AOT/AOT_stimuli/rescaled_final/1056_rv.mp4	0.0	277.6979355812073	
59	259.0469694137573	movie	1		290	57.0	2.5	/experiments/knapen_AOT/AOT_stimuli/rescaled_final/1056_rv.mp4	0.0	278.12263107299805	2.4920995235443115
59	260.22051906585693	pulse	1	t		57.0	2.5	/experiments/knapen_AOT/AOT_stimuli/rescaled_final/1056_rv.mp4	0.0	279.29618072509766	
59	261.53906893730164	fix_post	2		12	57.0	2.5	/experiments/knapen_AOT/AOT_stimuli/rescaled_final/1056_rv.mp4	0.0	280.61473059654236	0.0999593734741211
60	261.63902831077576	fix_pre	0		120	58.0	2.5	/experiments/knapen_AOT/AOT_stimuli/rescaled_final/1119_rv.mp4	0.0	280.7146899700165	1.00856614112854
60	261.8225722312927	pulse	0	t		58.0	2.5	/experiments/knapen_AOT/AOT_stimuli/rescaled_final/1119_rv.mp4	0.0	280.89823389053345	
60	262.6475944519043	movie	1		270	58.0	2.5	/experiments/knapen_AOT/AOT_stimuli/rescaled_final/1119_rv.mp4	0.0	281.723256111145	2.4921107292175293
60	263.4230670928955	pulse	1	t		58.0	2.5	/experiments/knapen_AOT/AOT_stimuli/rescaled_final/1119_rv.mp4	0.0	282.49872875213623	
60	265.0209469795227	pulse	1	t		58.0	2.5	/experiments/knapen_AOT/AOT_stimuli/rescaled_final/1119_rv.mp4	0.0	284.0966086387634	
60	265.1397051811218	fix_post	2		12	58.0	2.5	/experiments/knapen_AOT/AOT_stimuli/rescaled_final/1119_rv.mp4	0.0	284.21536684036255	0.09989094734191895
61	265.23959612846375	fix_pre	0		120	59.0	2.5	/experiments/knapen_AOT/AOT_stimuli/rescaled_final/0814_fw.mp4	0.0	284.31525778770447	1.0085937976837158
61	266.24818992614746	movie	1		272	59.0	2.5	/experiments/knapen_AOT/AOT_stimuli/rescaled_final/0814_fw.mp4	0.0	285.3238515853882	2.491992712020874
61	266.6218466758728	pulse	1	t		59.0	2.5	/experiments/knapen_AOT/AOT_stimuli/rescaled_final/0814_fw.mp4	0.0	285.6975083351135	
61	268.22376680374146	pulse	1	t		59.0	2.5	/experiments/knapen_AOT/AOT_stimuli/rescaled_final/0814_fw.mp4	0.0	287.2994284629822	
61	268.74018263816833	fix_post	2		12	59.0	2.5	/experiments/knapen_AOT/AOT_stimuli/rescaled_final/0814_fw.mp4	0.0	287.81584429740906	0.09991598129272461
62	268.84009861946106	fix_pre	0		119	60.0	2.5	/experiments/knapen_AOT/AOT_stimuli/rescaled_final/1770_fw.mp4	0.0	287.9157602787018	1.000192403793335
62	269.82411909103394	pulse	0	t		60.0	2.5	/experiments/knapen_AOT/AOT_stimuli/rescaled_final/1770_fw.mp4	0.0	288.89978075027466	
62	269.8402910232544	movie	1		283	60.0	2.5	/experiments/knapen_AOT/AOT_stimuli/rescaled_final/1770_fw.mp4	0.0	288.9159526824951	2.5006537437438965
62	271.4250581264496	pulse	1	t		60.0	2.5	/experiments/knapen_AOT/AOT_stimuli/rescaled_final/1770_fw.mp4	0.0	290.5007197856903	
62	272.3409447669983	fix_post	2		12	60.0	2.5	/experiments/knapen_AOT/AOT_stimuli/rescaled_final/1770_fw.mp4	0.0	291.416606426239	0.09975838661193848
63	272.44070315361023	fix_pre	0		120	61.0	2.5	blank	1.0	291.51636481285095	1.0000791549682617
63	273.024395942688	pulse	0	t		61.0	2.5	blank	1.0	292.1000576019287	
63	273.4407823085785	movie	1		300	61.0	2.5	blank	1.0	292.5164439678192	2.500356435775757
63	274.62472701072693	pulse	1	t		61.0	2.5	blank	1.0	293.70038866996765	
63	275.94113874435425	fix_post	2		12	61.0	2.5	blank	1.0	295.01680040359497	0.10014772415161133
64	276.04128646850586	fix_pre	0		120	62.0	2.5	/experiments/knapen_AOT/AOT_stimuli/rescaled_final/0763_rv.mp4	0.0	295.1169481277466	1.008389949798584
64	276.2250602245331	pulse	0	t		62.0	2.5	/experiments/knapen_AOT/AOT_stimuli/rescaled_final/0763_rv.mp4	0.0	295.3007218837738	
64	277.04967641830444	movie	1		270	62.0	2.5	/experiments/knapen_AOT/AOT_stimuli/rescaled_final/0763_rv.mp4	0.0	296.12533807754517	2.492093801498413
64	277.8253319263458	pulse	1	t		62.0	2.5	/experiments/knapen_AOT/AOT_stimuli/rescaled_final/0763_rv.mp4	0.0	296.90099358558655	
64	279.4230089187622	pulse	1	t		62.0	2.5	/experiments/knapen_AOT/AOT_stimuli/rescaled_final/0763_rv.mp4	0.0	298.49867057800293	
64	279.54177021980286	fix_post	2		12	62.0	2.5	/experiments/knapen_AOT/AOT_stimuli/rescaled_final/0763_rv.mp4	0.0	298.6174318790436	0.09996700286865234
65	279.6417372226715	fix_pre	0		120	63.0	2.5	/experiments/knapen_AOT/AOT_stimuli/rescaled_final/1625_fw.mp4	0.0	298.71739888191223	1.0087320804595947
65	280.6504693031311	movie	1		281	63.0	2.5	/experiments/knapen_AOT/AOT_stimuli/rescaled_final/1625_fw.mp4	0.0	299.7261309623718	2.4920153617858887
65	281.0250997543335	pulse	1	t		63.0	2.5	/experiments/knapen_AOT/AOT_stimuli/rescaled_final/1625_fw.mp4	0.0	300.1007614135742	
65	282.6239929199219	pulse	1	t		63.0	2.5	/experiments/knapen_AOT/AOT_stimuli/rescaled_final/1625_fw.mp4	0.0	301.6996545791626	
65	283.142484664917	fix_post	2		12	63.0	2.5	/experiments/knapen_AOT/AOT_stimuli/rescaled_final/1625_fw.mp4	0.0	302.2181463241577	0.09980154037475586
66	283.24228620529175	fix_pre	0		119	64.0	2.5	/experiments/knapen_AOT/AOT_stimuli/rescaled_final/1785_fw.mp4	0.0	302.31794786453247	1.0086500644683838
66	284.2260856628418	pulse	0	t		64.0	2.5	/experiments/knapen_AOT/AOT_stimuli/rescaled_final/1785_fw.mp4	0.0	303.3017473220825	
66	284.25093626976013	movie	1		266	64.0	2.5	/experiments/knapen_AOT/AOT_stimuli/rescaled_final/1785_fw.mp4	0.0	303.32659792900085	2.500217914581299
66	285.8257257938385	pulse	1	t		64.0	2.5	/experiments/knapen_AOT/AOT_stimuli/rescaled_final/1785_fw.mp4	0.0	304.9013874530792	
66	286.75115418434143	fix_post	2		11	64.0	2.5	/experiments/knapen_AOT/AOT_stimuli/rescaled_final/1785_fw.mp4	0.0	305.82681584358215	0.09178352355957031
67	286.842937707901	fix_pre	0		120	65.0	2.5	/experiments/knapen_AOT/AOT_stimuli/rescaled_final/0125_rv.mp4	0.0	305.9185993671417	1.0084989070892334
67	287.42652893066406	pulse	0	t		65.0	2.5	/experiments/knapen_AOT/AOT_stimuli/rescaled_final/0125_rv.mp4	0.0	306.5021905899048	
67	287.85143661499023	movie	1		279	65.0	2.5	/experiments/knapen_AOT/AOT_stimuli/rescaled_final/0125_rv.mp4	0.0	306.92709827423096	2.492344617843628
67	289.0245563983917	pulse	1	t		65.0	2.5	/experiments/knapen_AOT/AOT_stimuli/rescaled_final/0125_rv.mp4	0.0	308.10021805763245	
67	290.34378123283386	fix_post	2		12	65.0	2.5	/experiments/knapen_AOT/AOT_stimuli/rescaled_final/0125_rv.mp4	0.0	309.4194428920746	0.09957504272460938
68	290.4433562755585	fix_pre	0		120	66.0	2.5	/experiments/knapen_AOT/AOT_stimuli/rescaled_final/1161_fw.mp4	0.0	309.5190179347992	1.008514642715454
68	290.6190724372864	pulse	0	t		66.0	2.5	/experiments/knapen_AOT/AOT_stimuli/rescaled_final/1161_fw.mp4	0.0	309.6947340965271	
68	291.4518709182739	movie	1		274	66.0	2.5	/experiments/knapen_AOT/AOT_stimuli/rescaled_final/1161_fw.mp4	0.0	310.52753257751465	2.4922149181365967
68	292.21909070014954	pulse	1	t		66.0	2.5	/experiments/knapen_AOT/AOT_stimuli/rescaled_final/1161_fw.mp4	0.0	311.29475235939026	
68	293.81916999816895	pulse	1	t		66.0	2.5	/experiments/knapen_AOT/AOT_stimuli/rescaled_final/1161_fw.mp4	0.0	312.89483165740967	
68	293.9440858364105	fix_post	2		12	66.0	2.5	/experiments/knapen_AOT/AOT_stimuli/rescaled_final/1161_fw.mp4	0.0	313.01974749565125	0.09979891777038574
69	294.0438847541809	fix_pre	0		120	67.0	2.5	/experiments/knapen_AOT/AOT_stimuli/rescaled_final/2107_rv.mp4	0.0	313.11954641342163	1.0085399150848389
69	295.05242466926575	movie	1		281	67.0	2.5	/experiments/knapen_AOT/AOT_stimuli/rescaled_final/2107_rv.mp4	0.0	314.12808632850647	2.492004632949829
69	295.4197075366974	pulse	1	t		67.0	2.5	/experiments/knapen_AOT/AOT_stimuli/rescaled_final/2107_rv.mp4	0.0	314.4953691959381	
69	297.01955580711365	pulse	1	t		67.0	2.5	/experiments/knapen_AOT/AOT_stimuli/rescaled_final/2107_rv.mp4	0.0	316.09521746635437	
69	297.5444293022156	fix_post	2		12	67.0	2.5	/experiments/knapen_AOT/AOT_stimuli/rescaled_final/2107_rv.mp4	0.0	316.6200909614563	0.10009264945983887
70	297.6445219516754	fix_pre	0		118	68.0	2.5	blank	1.0	316.72018361091614	0.9834251403808594
70	298.61994981765747	pulse	0	t		68.0	2.5	blank	1.0	317.6956114768982	
70	298.6279470920563	movie	1		301	68.0	2.5	blank	1.0	317.703608751297	2.5086722373962402
70	300.2200412750244	pulse	1	t		68.0	2.5	blank	1.0	319.29570293426514	
70	301.1366193294525	fix_post	2		12	68.0	2.5	blank	1.0	320.21228098869324	0.10005521774291992
71	301.23667454719543	fix_pre	0		120	69.0	2.5	/experiments/knapen_AOT/AOT_stimuli/rescaled_final/1968_rv.mp4	0.0	320.31233620643616	1.0084483623504639
71	301.82030987739563	pulse	0	t		69.0	2.5	/experiments/knapen_AOT/AOT_stimuli/rescaled_final/1968_rv.mp4	0.0	320.89597153663635	
71	302.2451229095459	movie	1		282	69.0	2.5	/experiments/knapen_AOT/AOT_stimuli/rescaled_final/1968_rv.mp4	0.0	321.3207845687866	2.492053747177124
71	303.42062163352966	pulse	1	t		69.0	2.5	/experiments/knapen_AOT/AOT_stimuli/rescaled_final/1968_rv.mp4	0.0	322.4962832927704	
71	304.737176656723	fix_post	2		12	69.0	2.5	/experiments/knapen_AOT/AOT_stimuli/rescaled_final/1968_rv.mp4	0.0	323.81283831596375	0.10002779960632324
72	304.83720445632935	fix_pre	0		120	70.0	2.5	/experiments/knapen_AOT/AOT_stimuli/rescaled_final/1740_rv.mp4	0.0	323.91286611557007	1.008455753326416
72	305.020751953125	pulse	0	t		70.0	2.5	/experiments/knapen_AOT/AOT_stimuli/rescaled_final/1740_rv.mp4	0.0	324.0964136123657	
72	305.84566020965576	movie	1		266	70.0	2.5	/experiments/knapen_AOT/AOT_stimuli/rescaled_final/1740_rv.mp4	0.0	324.9213218688965	2.4923293590545654
72	306.6192364692688	pulse	1	t		70.0	2.5	/experiments/knapen_AOT/AOT_stimuli/rescaled_final/1740_rv.mp4	0.0	325.6948981285095	
72	308.21937131881714	pulse	1	t		70.0	2.5	/experiments/knapen_AOT/AOT_stimuli/rescaled_final/1740_rv.mp4	0.0	327.29503297805786	
72	308.3379895687103	fix_post	2		12	70.0	2.5	/experiments/knapen_AOT/AOT_stimuli/rescaled_final/1740_rv.mp4	0.0	327.41365122795105	0.10004973411560059
73	308.4380393028259	fix_pre	0		120	71.0	2.5	/experiments/knapen_AOT/AOT_stimuli/rescaled_final/1408_rv.mp4	0.0	327.51370096206665	1.008157730102539
73	309.44619703292847	movie	1		259	71.0	2.5	/experiments/knapen_AOT/AOT_stimuli/rescaled_final/1408_rv.mp4	0.0	328.5218586921692	2.492549180984497
73	309.8200469017029	pulse	1	t		71.0	2.5	/experiments/knapen_AOT/AOT_stimuli/rescaled_final/1408_rv.mp4	0.0	328.8957085609436	
73	311.42088890075684	pulse	1	t		71.0	2.5	/experiments/knapen_AOT/AOT_stimuli/rescaled_final/1408_rv.mp4	0.0	330.49655055999756	
73	311.93874621391296	fix_post	2		12	71.0	2.5	/experiments/knapen_AOT/AOT_stimuli/rescaled_final/1408_rv.mp4	0.0	331.0144078731537	0.09957456588745117
74	312.0383207798004	fix_pre	0		119	72.0	2.5	/experiments/knapen_AOT/AOT_stimuli/rescaled_final/2011_rv.mp4	0.0	331.11398243904114	1.0002307891845703
74	313.02206349372864	pulse	0	t		72.0	2.5	/experiments/knapen_AOT/AOT_stimuli/rescaled_final/2011_rv.mp4	0.0	332.09772515296936	
74	313.038551568985	movie	1		266	72.0	2.5	/experiments/knapen_AOT/AOT_stimuli/rescaled_final/2011_rv.mp4	0.0	332.1142132282257	2.5003678798675537
74	314.62053966522217	pulse	1	t		72.0	2.5	/experiments/knapen_AOT/AOT_stimuli/rescaled_final/2011_rv.mp4	0.0	333.6962013244629	
74	315.53891944885254	fix_post	2		12	72.0	2.5	/experiments/knapen_AOT/AOT_stimuli/rescaled_final/2011_rv.mp4	0.0	334.61458110809326	0.09986662864685059
75	315.6387860774994	fix_pre	0		120	73.0	2.5	/experiments/knapen_AOT/AOT_stimuli/rescaled_final/0335_fw.mp4	0.0	334.7144477367401	1.008636236190796
75	316.22253370285034	pulse	0	t		73.0	2.5	/experiments/knapen_AOT/AOT_stimuli/rescaled_final/0335_fw.mp4	0.0	335.29819536209106	
75	316.6474223136902	movie	1		268	73.0	2.5	/experiments/knapen_AOT/AOT_stimuli/rescaled_final/0335_fw.mp4	0.0	335.7230839729309	2.491971969604492
75	317.8208863735199	pulse	1	t		73.0	2.5	/experiments/knapen_AOT/AOT_stimuli/rescaled_final/0335_fw.mp4	0.0	336.8965480327606	
75	319.1393942832947	fix_post	2		12	73.0	2.5	/experiments/knapen_AOT/AOT_stimuli/rescaled_final/0335_fw.mp4	0.0	338.2150559425354	0.09998917579650879
76	319.2393834590912	fix_pre	0		120	74.0	2.5	/experiments/knapen_AOT/AOT_stimuli/rescaled_final/1037_fw.mp4	0.0	338.3150451183319	1.0084459781646729
76	319.4229784011841	pulse	0	t		74.0	2.5	/experiments/knapen_AOT/AOT_stimuli/rescaled_final/1037_fw.mp4	0.0	338.4986400604248	
76	320.24782943725586	movie	1		279	74.0	2.5	/experiments/knapen_AOT/AOT_stimuli/rescaled_final/1037_fw.mp4	0.0	339.3234910964966	2.492392063140869
76	321.02157855033875	pulse	1	t		74.0	2.5	/experiments/knapen_AOT/AOT_stimuli/rescaled_final/1037_fw.mp4	0.0	340.09724020957947	
76	322.6212754249573	pulse	1	t		74.0	2.5	/experiments/knapen_AOT/AOT_stimuli/rescaled_final/1037_fw.mp4	0.0	341.696937084198	
76	322.74022150039673	fix_post	2		12	74.0	2.5	/experiments/knapen_AOT/AOT_stimuli/rescaled_final/1037_fw.mp4	0.0	341.81588315963745	0.0997319221496582
77	322.8399534225464	fix_pre	0		120	75.0	2.5	blank	1.0	341.9156150817871	1.000091552734375
77	323.84004497528076	movie	1		300	75.0	2.5	blank	1.0	342.9157066345215	2.5003631114959717
77	324.2237551212311	pulse	1	t		75.0	2.5	blank	1.0	343.2994167804718	
77	325.8238503932953	pulse	1	t		75.0	2.5	blank	1.0	344.899512052536	
77	326.34040808677673	fix_post	2		12	75.0	2.5	blank	1.0	345.41606974601746	0.10003662109375
78	326.4404447078705	fix_pre	0		119	76.0	2.5	/experiments/knapen_AOT/AOT_stimuli/rescaled_final/2011_fw.mp4	0.0	345.5161063671112	1.0001585483551025
78	327.4243395328522	pulse	0	t		76.0	2.5	/experiments/knapen_AOT/AOT_stimuli/rescaled_final/2011_fw.mp4	0.0	346.5000011920929	
78	327.4406032562256	movie	1		269	76.0	2.5	/experiments/knapen_AOT/AOT_stimuli/rescaled_final/2011_fw.mp4	0.0	346.5162649154663	2.5003821849823
78	329.02268052101135	pulse	1	t		76.0	2.5	/experiments/knapen_AOT/AOT_stimuli/rescaled_final/2011_fw.mp4	0.0	348.0983421802521	
78	329.9409854412079	fix_post	2		12	76.0	2.5	/experiments/knapen_AOT/AOT_stimuli/rescaled_final/2011_fw.mp4	0.0	349.0166471004486	0.09998536109924316
79	330.04097080230713	fix_pre	0		120	77.0	2.5	/experiments/knapen_AOT/AOT_stimuli/rescaled_final/1192_fw.mp4	0.0	349.11663246154785	1.008538007736206
79	330.6245930194855	pulse	0	t		77.0	2.5	/experiments/knapen_AOT/AOT_stimuli/rescaled_final/1192_fw.mp4	0.0	349.7002546787262	
79	331.04950881004333	movie	1		276	77.0	2.5	/experiments/knapen_AOT/AOT_stimuli/rescaled_final/1192_fw.mp4	0.0	350.12517046928406	2.4921932220458984
79	332.2228436470032	pulse	1	t		77.0	2.5	/experiments/knapen_AOT/AOT_stimuli/rescaled_final/1192_fw.mp4	0.0	351.2985053062439	
79	333.54170203208923	fix_post	2		12	77.0	2.5	/experiments/knapen_AOT/AOT_stimuli/rescaled_final/1192_fw.mp4	0.0	352.61736369132996	0.09984350204467773
80	333.6415455341339	fix_pre	0		120	78.0	2.5	/experiments/knapen_AOT/AOT_stimuli/rescaled_final/1361_fw.mp4	0.0	352.71720719337463	1.0084869861602783
80	333.82510638237	pulse	0	t		78.0	2.5	/experiments/knapen_AOT/AOT_stimuli/rescaled_final/1361_fw.mp4	0.0	352.9007680416107	
80	334.6500325202942	movie	1		264	78.0	2.5	/experiments/knapen_AOT/AOT_stimuli/rescaled_final/1361_fw.mp4	0.0	353.7256941795349	2.4920220375061035
80	335.4244349002838	pulse	1	t		78.0	2.5	/experiments/knapen_AOT/AOT_stimuli/rescaled_final/1361_fw.mp4	0.0	354.50009655952454	
80	337.02670335769653	pulse	1	t		78.0	2.5	/experiments/knapen_AOT/AOT_stimuli/rescaled_final/1361_fw.mp4	0.0	356.10236501693726	
80	337.1420545578003	fix_post	2		12	78.0	2.5	/experiments/knapen_AOT/AOT_stimuli/rescaled_final/1361_fw.mp4	0.0	356.217716217041	0.10000777244567871
81	337.242062330246	fix_pre	0		120	79.0	2.5	/experiments/knapen_AOT/AOT_stimuli/rescaled_final/0518_fw.mp4	0.0	356.3177239894867	1.0085549354553223
81	338.2506172657013	movie	1		269	79.0	2.5	/experiments/knapen_AOT/AOT_stimuli/rescaled_final/0518_fw.mp4	0.0	357.326278924942	2.4920120239257812
81	338.6256330013275	pulse	1	t		79.0	2.5	/experiments/knapen_AOT/AOT_stimuli/rescaled_final/0518_fw.mp4	0.0	357.70129466056824	
81	340.2241861820221	pulse	1	t		79.0	2.5	/experiments/knapen_AOT/AOT_stimuli/rescaled_final/0518_fw.mp4	0.0	359.2998478412628	
81	340.7426292896271	fix_post	2		12	79.0	2.5	/experiments/knapen_AOT/AOT_stimuli/rescaled_final/0518_fw.mp4	0.0	359.8182909488678	0.10001540184020996
82	340.8426446914673	fix_pre	0		119	80.0	2.5	/experiments/knapen_AOT/AOT_stimuli/rescaled_final/0736_fw.mp4	0.0	359.918306350708	1.000121831893921
82	341.8264322280884	pulse	0	t		80.0	2.5	/experiments/knapen_AOT/AOT_stimuli/rescaled_final/0736_fw.mp4	0.0	360.9020938873291	
82	341.8427665233612	movie	1		277	80.0	2.5	/experiments/knapen_AOT/AOT_stimuli/rescaled_final/0736_fw.mp4	0.0	360.91842818260193	2.5003507137298584
82	343.425128698349	pulse	1	t		80.0	2.5	/experiments/knapen_AOT/AOT_stimuli/rescaled_final/0736_fw.mp4	0.0	362.5007903575897	
82	344.34311723709106	fix_post	2		12	80.0	2.5	/experiments/knapen_AOT/AOT_stimuli/rescaled_final/0736_fw.mp4	0.0	363.4187788963318	0.10001707077026367
83	344.4431343078613	fix_pre	0		120	81.0	2.5	/experiments/knapen_AOT/AOT_stimuli/rescaled_final/1387_rv.mp4	0.0	363.51879596710205	1.008730411529541
83	345.02007818222046	pulse	0	t		81.0	2.5	/experiments/knapen_AOT/AOT_stimuli/rescaled_final/1387_rv.mp4	0.0	364.0957398414612	
83	345.45186471939087	movie	1		272	81.0	2.5	/experiments/knapen_AOT/AOT_stimuli/rescaled_final/1387_rv.mp4	0.0	364.5275263786316	2.491837501525879
83	346.6257815361023	pulse	1	t		81.0	2.5	/experiments/knapen_AOT/AOT_stimuli/rescaled_final/1387_rv.mp4	0.0	365.701443195343	
83	347.94370222091675	fix_post	2		12	81.0	2.5	/experiments/knapen_AOT/AOT_stimuli/rescaled_final/1387_rv.mp4	0.0	367.01936388015747	0.09997034072875977
84	348.0436725616455	fix_pre	0		120	82.0	2.5	/experiments/knapen_AOT/AOT_stimuli/rescaled_final/0306_rv.mp4	0.0	367.11933422088623	1.0085630416870117
84	348.219434261322	pulse	0	t		82.0	2.5	/experiments/knapen_AOT/AOT_stimuli/rescaled_final/0306_rv.mp4	0.0	367.29509592056274	
84	349.0522356033325	movie	1		282	82.0	2.5	/experiments/knapen_AOT/AOT_stimuli/rescaled_final/0306_rv.mp4	0.0	368.12789726257324	2.4920897483825684
84	349.81977009773254	pulse	1	t		82.0	2.5	/experiments/knapen_AOT/AOT_stimuli/rescaled_final/0306_rv.mp4	0.0	368.89543175697327	
84	351.419469833374	pulse	1	t		82.0	2.5	/experiments/knapen_AOT/AOT_stimuli/rescaled_final/0306_rv.mp4	0.0	370.49513149261475	
84	351.5443253517151	fix_post	2		12	82.0	2.5	/experiments/knapen_AOT/AOT_stimuli/rescaled_final/0306_rv.mp4	0.0	370.6199870109558	0.10014533996582031
85	351.6444706916809	fix_pre	0		120	83.0	2.5	blank	1.0	370.72013235092163	0.9999048709869385
85	352.64437556266785	movie	1		300	83.0	2.5	blank	1.0	371.72003722190857	2.5003695487976074
85	353.0196452140808	pulse	1	t		83.0	2.5	blank	1.0	372.09530687332153	
85	354.6199493408203	pulse	1	t		83.0	2.5	blank	1.0	373.69561100006104	
85	355.14474511146545	fix_post	2		12	83.0	2.5	blank	1.0	374.2204067707062	0.10039734840393066
87	355.2451424598694	stim	0		1715					374.3208041191101	14.293450355529785
87	356.2201495170593	pulse	0	t						375.29581117630005	
87	357.8205840587616	pulse	0	t						376.8962457180023	
87	359.4211709499359	pulse	0	t						378.49683260917664	
87	361.0211491584778	pulse	0	t						380.0968108177185	
87	362.6213231086731	pulse	0	t						381.6969847679138	
87	364.2214026451111	pulse	0	t						383.2970643043518	
87	365.8217182159424	pulse	0	t						384.8973798751831	
87	367.4218409061432	pulse	0	t						386.4975025653839	
87	369.02222299575806	pulse	0	t						388.0978846549988	
