trial_nr	onset	event_type	phase	response	nr_frames	movie_index	movie_duration	movie_file	blank	onset_abs	duration
0	0.20827603340148926	stim	0		25					21.302824020385742	0.20831799507141113
0	0.4012949466705322	response	0	space						21.495842933654785	
1	0.4165940284729004	stim	0		5208					21.511142015457153	43.41789698600769
1	43.82435607910156	pulse	0	t						64.91890406608582	
1	43.83449101448059	stim	1		1715					64.92903900146484	14.299118995666504
1	45.415239095687866	pulse	1	t						66.50978708267212	
1	47.01540207862854	pulse	1	t						68.1099500656128	
1	48.61577391624451	pulse	1	t						69.71032190322876	
1	50.21585392951965	pulse	1	t						71.3104019165039	
1	51.81619596481323	pulse	1	t						72.91074395179749	
1	53.41633892059326	pulse	1	t						74.51088690757751	
1	55.016655921936035	pulse	1	t						76.11120390892029	
1	56.61681008338928	pulse	1	t						77.71135807037354	
2	58.133610010147095	fix_pre	0		11	0.0	2.5	/experiments/knapen_AOT/AOT_stimuli/rescaled_final/0108_fw.mp4	0.0	79.22815799713135	0.09165501594543457
2	58.21708011627197	pulse	0	t		0.0	2.5	/experiments/knapen_AOT/AOT_stimuli/rescaled_final/0108_fw.mp4	0.0	79.31162810325623	
2	58.22526502609253	movie	1		249	0.0	2.5	/experiments/knapen_AOT/AOT_stimuli/rescaled_final/0108_fw.mp4	0.0	79.31981301307678	2.508673906326294
2	59.81779909133911	pulse	1	t		0.0	2.5	/experiments/knapen_AOT/AOT_stimuli/rescaled_final/0108_fw.mp4	0.0	80.91234707832336	
2	60.73393893241882	fix_post	2		12	0.0	2.5	/experiments/knapen_AOT/AOT_stimuli/rescaled_final/0108_fw.mp4	0.0	81.82848691940308	0.100067138671875
3	60.8340060710907	fix_pre	0		120	1.0	2.5	/experiments/knapen_AOT/AOT_stimuli/rescaled_final/1678_rv.mp4	0.0	81.92855405807495	1.000126838684082
3	61.417712926864624	pulse	0	t		1.0	2.5	/experiments/knapen_AOT/AOT_stimuli/rescaled_final/1678_rv.mp4	0.0	82.51226091384888	
3	61.83413290977478	movie	1		243	1.0	2.5	/experiments/knapen_AOT/AOT_stimuli/rescaled_final/1678_rv.mp4	0.0	82.92868089675903	2.5003600120544434
3	63.01792597770691	pulse	1	t		1.0	2.5	/experiments/knapen_AOT/AOT_stimuli/rescaled_final/1678_rv.mp4	0.0	84.11247396469116	
3	64.33449292182922	fix_post	2		12	1.0	2.5	/experiments/knapen_AOT/AOT_stimuli/rescaled_final/1678_rv.mp4	0.0	85.42904090881348	0.1000051498413086
4	64.43449807167053	fix_pre	0		120	2.0	2.5	/experiments/knapen_AOT/AOT_stimuli/rescaled_final/0305_rv.mp4	0.0	85.52904605865479	1.000180959701538
4	64.61805391311646	pulse	0	t		2.0	2.5	/experiments/knapen_AOT/AOT_stimuli/rescaled_final/0305_rv.mp4	0.0	85.71260190010071	
4	65.43467903137207	movie	1		243	2.0	2.5	/experiments/knapen_AOT/AOT_stimuli/rescaled_final/0305_rv.mp4	0.0	86.52922701835632	2.500339984893799
4	66.21838212013245	pulse	1	t		2.0	2.5	/experiments/knapen_AOT/AOT_stimuli/rescaled_final/0305_rv.mp4	0.0	87.3129301071167	
4	67.8185510635376	pulse	1	t		2.0	2.5	/experiments/knapen_AOT/AOT_stimuli/rescaled_final/0305_rv.mp4	0.0	88.91309905052185	
4	67.93501901626587	fix_post	2		12	2.0	2.5	/experiments/knapen_AOT/AOT_stimuli/rescaled_final/0305_rv.mp4	0.0	89.02956700325012	0.10011100769042969
5	68.0351300239563	fix_pre	0		120	3.0	2.5	/experiments/knapen_AOT/AOT_stimuli/rescaled_final/1881_fw.mp4	0.0	89.12967801094055	1.0000638961791992
5	69.0351939201355	movie	1		244	3.0	2.5	/experiments/knapen_AOT/AOT_stimuli/rescaled_final/1881_fw.mp4	0.0	90.12974190711975	2.492049217224121
5	69.41932106018066	pulse	1	t		3.0	2.5	/experiments/knapen_AOT/AOT_stimuli/rescaled_final/1881_fw.mp4	0.0	90.51386904716492	
5	71.01897192001343	pulse	1	t		3.0	2.5	/experiments/knapen_AOT/AOT_stimuli/rescaled_final/1881_fw.mp4	0.0	92.11351990699768	
5	71.52724313735962	fix_post	2		12	3.0	2.5	/experiments/knapen_AOT/AOT_stimuli/rescaled_final/1881_fw.mp4	0.0	92.62179112434387	0.0999917984008789
6	71.6272349357605	fix_pre	0		120	4.0	2.5	/experiments/knapen_AOT/AOT_stimuli/rescaled_final/2097_rv.mp4	0.0	92.72178292274475	1.0001590251922607
6	72.61924600601196	pulse	0	t		4.0	2.5	/experiments/knapen_AOT/AOT_stimuli/rescaled_final/2097_rv.mp4	0.0	93.71379399299622	
6	72.62739396095276	movie	1		244	4.0	2.5	/experiments/knapen_AOT/AOT_stimuli/rescaled_final/2097_rv.mp4	0.0	93.72194194793701	2.5087151527404785
6	74.21994400024414	pulse	1	t		4.0	2.5	/experiments/knapen_AOT/AOT_stimuli/rescaled_final/2097_rv.mp4	0.0	95.3144919872284	
6	75.13610911369324	fix_post	2		12	4.0	2.5	/experiments/knapen_AOT/AOT_stimuli/rescaled_final/2097_rv.mp4	0.0	96.23065710067749	0.10000491142272949
7	75.23611402511597	fix_pre	0		120	5.0	2.5	blank	1.0	96.33066201210022	1.0001471042633057
7	75.8197979927063	pulse	0	t		5.0	2.5	blank	1.0	96.91434597969055	
7	76.23626112937927	movie	1		300	5.0	2.5	blank	1.0	97.33080911636353	2.5003809928894043
7	77.41995811462402	pulse	1	t		5.0	2.5	blank	1.0	98.51450610160828	
7	78.73664212226868	fix_post	2		12	5.0	2.5	blank	1.0	99.83119010925293	0.10000896453857422
8	78.83665108680725	fix_pre	0		120	6.0	2.5	/experiments/knapen_AOT/AOT_stimuli/rescaled_final/1641_rv.mp4	0.0	99.9311990737915	1.0001509189605713
8	79.02018713951111	pulse	0	t		6.0	2.5	/experiments/knapen_AOT/AOT_stimuli/rescaled_final/1641_rv.mp4	0.0	100.11473512649536	
8	79.83680200576782	movie	1		243	6.0	2.5	/experiments/knapen_AOT/AOT_stimuli/rescaled_final/1641_rv.mp4	0.0	100.93134999275208	2.500807046890259
8	80.62052512168884	pulse	1	t		6.0	2.5	/experiments/knapen_AOT/AOT_stimuli/rescaled_final/1641_rv.mp4	0.0	101.7150731086731	
8	82.22059798240662	pulse	1	t		6.0	2.5	/experiments/knapen_AOT/AOT_stimuli/rescaled_final/1641_rv.mp4	0.0	103.31514596939087	
8	82.33760905265808	fix_post	2		10	6.0	2.5	/experiments/knapen_AOT/AOT_stimuli/rescaled_final/1641_rv.mp4	0.0	103.43215703964233	0.09958600997924805
9	82.43719506263733	fix_pre	0		119	7.0	2.5	/experiments/knapen_AOT/AOT_stimuli/rescaled_final/2097_fw.mp4	0.0	103.53174304962158	0.9918229579925537
9	83.42901802062988	movie	1		243	7.0	2.5	/experiments/knapen_AOT/AOT_stimuli/rescaled_final/2097_fw.mp4	0.0	104.52356600761414	2.5003819465637207
9	83.81445407867432	pulse	1	t		7.0	2.5	/experiments/knapen_AOT/AOT_stimuli/rescaled_final/2097_fw.mp4	0.0	104.90900206565857	
9	85.41374897956848	pulse	1	t		7.0	2.5	/experiments/knapen_AOT/AOT_stimuli/rescaled_final/2097_fw.mp4	0.0	106.50829696655273	
9	85.9293999671936	fix_post	2		12	7.0	2.5	/experiments/knapen_AOT/AOT_stimuli/rescaled_final/2097_fw.mp4	0.0	107.02394795417786	0.10008597373962402
10	86.02948594093323	fix_pre	0		120	8.0	2.5	/experiments/knapen_AOT/AOT_stimuli/rescaled_final/1939_fw.mp4	0.0	107.12403392791748	1.0000700950622559
10	87.01402401924133	pulse	0	t		8.0	2.5	/experiments/knapen_AOT/AOT_stimuli/rescaled_final/1939_fw.mp4	0.0	108.10857200622559	
10	87.02955603599548	movie	1		245	8.0	2.5	/experiments/knapen_AOT/AOT_stimuli/rescaled_final/1939_fw.mp4	0.0	108.12410402297974	2.5087060928344727
10	88.62242293357849	pulse	1	t		8.0	2.5	/experiments/knapen_AOT/AOT_stimuli/rescaled_final/1939_fw.mp4	0.0	109.71697092056274	
10	89.53826212882996	fix_post	2		12	8.0	2.5	/experiments/knapen_AOT/AOT_stimuli/rescaled_final/1939_fw.mp4	0.0	110.63281011581421	0.09998893737792969
11	89.63825106620789	fix_pre	0		120	9.0	2.5	/experiments/knapen_AOT/AOT_stimuli/rescaled_final/1303_rv.mp4	0.0	110.73279905319214	1.000166893005371
11	90.21351099014282	pulse	0	t		9.0	2.5	/experiments/knapen_AOT/AOT_stimuli/rescaled_final/1303_rv.mp4	0.0	111.30805897712708	
11	90.63841795921326	movie	1		243	9.0	2.5	/experiments/knapen_AOT/AOT_stimuli/rescaled_final/1303_rv.mp4	0.0	111.73296594619751	2.5003821849823
11	91.81422305107117	pulse	1	t		9.0	2.5	/experiments/knapen_AOT/AOT_stimuli/rescaled_final/1303_rv.mp4	0.0	112.90877103805542	
11	93.13880014419556	fix_post	2		12	9.0	2.5	/experiments/knapen_AOT/AOT_stimuli/rescaled_final/1303_rv.mp4	0.0	114.23334813117981	0.09999585151672363
12	93.23879599571228	fix_pre	0		120	10.0	2.5	/experiments/knapen_AOT/AOT_stimuli/rescaled_final/0797_rv.mp4	0.0	114.33334398269653	1.000162124633789
12	93.41398096084595	pulse	0	t		10.0	2.5	/experiments/knapen_AOT/AOT_stimuli/rescaled_final/0797_rv.mp4	0.0	114.5085289478302	
12	94.23895812034607	movie	1		244	10.0	2.5	/experiments/knapen_AOT/AOT_stimuli/rescaled_final/0797_rv.mp4	0.0	115.33350610733032	2.500372886657715
12	95.01438093185425	pulse	1	t		10.0	2.5	/experiments/knapen_AOT/AOT_stimuli/rescaled_final/0797_rv.mp4	0.0	116.1089289188385	
12	96.61453413963318	pulse	1	t		10.0	2.5	/experiments/knapen_AOT/AOT_stimuli/rescaled_final/0797_rv.mp4	0.0	117.70908212661743	
12	96.73933100700378	fix_post	2		11	10.0	2.5	/experiments/knapen_AOT/AOT_stimuli/rescaled_final/0797_rv.mp4	0.0	117.83387899398804	0.09166908264160156
13	96.83100008964539	fix_pre	0		120	11.0	2.5	/experiments/knapen_AOT/AOT_stimuli/rescaled_final/0028_rv.mp4	0.0	117.92554807662964	1.000175952911377
13	97.83117604255676	movie	1		243	11.0	2.5	/experiments/knapen_AOT/AOT_stimuli/rescaled_final/0028_rv.mp4	0.0	118.92572402954102	2.500396966934204
13	98.2152030467987	pulse	1	t		11.0	2.5	/experiments/knapen_AOT/AOT_stimuli/rescaled_final/0028_rv.mp4	0.0	119.30975103378296	
13	99.81501197814941	pulse	1	t		11.0	2.5	/experiments/knapen_AOT/AOT_stimuli/rescaled_final/0028_rv.mp4	0.0	120.90955996513367	
13	100.33157300949097	fix_post	2		12	11.0	2.5	/experiments/knapen_AOT/AOT_stimuli/rescaled_final/0028_rv.mp4	0.0	121.42612099647522	0.1000211238861084
14	100.43159413337708	fix_pre	0		119	12.0	2.5	/experiments/knapen_AOT/AOT_stimuli/rescaled_final/0980_fw.mp4	0.0	121.52614212036133	0.9917798042297363
14	101.41530895233154	pulse	0	t		12.0	2.5	/experiments/knapen_AOT/AOT_stimuli/rescaled_final/0980_fw.mp4	0.0	122.5098569393158	
14	101.42337393760681	movie	1		244	12.0	2.5	/experiments/knapen_AOT/AOT_stimuli/rescaled_final/0980_fw.mp4	0.0	122.51792192459106	2.5087130069732666
14	103.0162091255188	pulse	1	t		12.0	2.5	/experiments/knapen_AOT/AOT_stimuli/rescaled_final/0980_fw.mp4	0.0	124.11075711250305	
14	103.93208694458008	fix_post	2		12	12.0	2.5	/experiments/knapen_AOT/AOT_stimuli/rescaled_final/0980_fw.mp4	0.0	125.02663493156433	0.10001802444458008
15	104.03210496902466	fix_pre	0		120	13.0	2.5	blank	1.0	125.12665295600891	1.0001440048217773
15	104.61573791503906	pulse	0	t		13.0	2.5	blank	1.0	125.71028590202332	
15	105.03224897384644	movie	1		300	13.0	2.5	blank	1.0	126.12679696083069	2.5004000663757324
15	106.2158989906311	pulse	1	t		13.0	2.5	blank	1.0	127.31044697761536	
15	107.53264904022217	fix_post	2		12	13.0	2.5	blank	1.0	128.62719702720642	0.1000518798828125
16	107.63270092010498	fix_pre	0		120	14.0	2.5	/experiments/knapen_AOT/AOT_stimuli/rescaled_final/0743_fw.mp4	0.0	128.72724890708923	1.0000710487365723
16	107.81627297401428	pulse	0	t		14.0	2.5	/experiments/knapen_AOT/AOT_stimuli/rescaled_final/0743_fw.mp4	0.0	128.91082096099854	
16	108.63277196884155	movie	1		244	14.0	2.5	/experiments/knapen_AOT/AOT_stimuli/rescaled_final/0743_fw.mp4	0.0	129.7273199558258	2.5003840923309326
16	109.41647005081177	pulse	1	t		14.0	2.5	/experiments/knapen_AOT/AOT_stimuli/rescaled_final/0743_fw.mp4	0.0	130.51101803779602	
16	111.01673197746277	pulse	1	t		14.0	2.5	/experiments/knapen_AOT/AOT_stimuli/rescaled_final/0743_fw.mp4	0.0	132.11127996444702	
16	111.13315606117249	fix_post	2		12	14.0	2.5	/experiments/knapen_AOT/AOT_stimuli/rescaled_final/0743_fw.mp4	0.0	132.22770404815674	0.10007786750793457
17	111.23323392868042	fix_pre	0		120	15.0	2.5	/experiments/knapen_AOT/AOT_stimuli/rescaled_final/1753_rv.mp4	0.0	132.32778191566467	1.0000970363616943
17	112.23333096504211	movie	1		242	15.0	2.5	/experiments/knapen_AOT/AOT_stimuli/rescaled_final/1753_rv.mp4	0.0	133.32787895202637	2.4920711517333984
17	112.61748814582825	pulse	1	t		15.0	2.5	/experiments/knapen_AOT/AOT_stimuli/rescaled_final/1753_rv.mp4	0.0	133.7120361328125	
17	114.21720314025879	pulse	1	t		15.0	2.5	/experiments/knapen_AOT/AOT_stimuli/rescaled_final/1753_rv.mp4	0.0	135.31175112724304	
17	114.72540211677551	fix_post	2		12	15.0	2.5	/experiments/knapen_AOT/AOT_stimuli/rescaled_final/1753_rv.mp4	0.0	135.81995010375977	0.09998583793640137
18	114.82538795471191	fix_pre	0		120	16.0	2.5	/experiments/knapen_AOT/AOT_stimuli/rescaled_final/2043_fw.mp4	0.0	135.91993594169617	1.0001230239868164
18	115.81746912002563	pulse	0	t		16.0	2.5	/experiments/knapen_AOT/AOT_stimuli/rescaled_final/2043_fw.mp4	0.0	136.9120171070099	
18	115.82551097869873	movie	1		245	16.0	2.5	/experiments/knapen_AOT/AOT_stimuli/rescaled_final/2043_fw.mp4	0.0	136.92005896568298	2.508681058883667
18	117.4188129901886	pulse	1	t		16.0	2.5	/experiments/knapen_AOT/AOT_stimuli/rescaled_final/2043_fw.mp4	0.0	138.51336097717285	
18	118.3341920375824	fix_post	2		12	16.0	2.5	/experiments/knapen_AOT/AOT_stimuli/rescaled_final/2043_fw.mp4	0.0	139.42874002456665	0.10006093978881836
19	118.43425297737122	fix_pre	0		120	17.0	2.5	/experiments/knapen_AOT/AOT_stimuli/rescaled_final/1599_fw.mp4	0.0	139.52880096435547	1.0001270771026611
19	119.0177891254425	pulse	0	t		17.0	2.5	/experiments/knapen_AOT/AOT_stimuli/rescaled_final/1599_fw.mp4	0.0	140.11233711242676	
19	119.43438005447388	movie	1		243	17.0	2.5	/experiments/knapen_AOT/AOT_stimuli/rescaled_final/1599_fw.mp4	0.0	140.52892804145813	2.5003490447998047
19	120.61814904212952	pulse	1	t		17.0	2.5	/experiments/knapen_AOT/AOT_stimuli/rescaled_final/1599_fw.mp4	0.0	141.71269702911377	
19	121.93472909927368	fix_post	2		12	17.0	2.5	/experiments/knapen_AOT/AOT_stimuli/rescaled_final/1599_fw.mp4	0.0	143.02927708625793	0.10004186630249023
20	122.03477096557617	fix_pre	0		120	18.0	2.5	/experiments/knapen_AOT/AOT_stimuli/rescaled_final/0876_rv.mp4	0.0	143.12931895256042	1.0001790523529053
20	122.21843099594116	pulse	0	t		18.0	2.5	/experiments/knapen_AOT/AOT_stimuli/rescaled_final/0876_rv.mp4	0.0	143.31297898292542	
20	123.03495001792908	movie	1		243	18.0	2.5	/experiments/knapen_AOT/AOT_stimuli/rescaled_final/0876_rv.mp4	0.0	144.12949800491333	2.500375986099243
20	123.8186559677124	pulse	1	t		18.0	2.5	/experiments/knapen_AOT/AOT_stimuli/rescaled_final/0876_rv.mp4	0.0	144.91320395469666	
20	125.41880798339844	pulse	1	t		18.0	2.5	/experiments/knapen_AOT/AOT_stimuli/rescaled_final/0876_rv.mp4	0.0	146.5133559703827	
20	125.53532600402832	fix_post	2		12	18.0	2.5	/experiments/knapen_AOT/AOT_stimuli/rescaled_final/0876_rv.mp4	0.0	146.62987399101257	0.10001111030578613
21	125.6353371143341	fix_pre	0		120	19.0	2.5	/experiments/knapen_AOT/AOT_stimuli/rescaled_final/2164_fw.mp4	0.0	146.72988510131836	1.0001559257507324
21	126.63549304008484	movie	1		242	19.0	2.5	/experiments/knapen_AOT/AOT_stimuli/rescaled_final/2164_fw.mp4	0.0	147.7300410270691	2.4920499324798584
21	127.0198290348053	pulse	1	t		19.0	2.5	/experiments/knapen_AOT/AOT_stimuli/rescaled_final/2164_fw.mp4	0.0	148.11437702178955	
21	128.61939692497253	pulse	1	t		19.0	2.5	/experiments/knapen_AOT/AOT_stimuli/rescaled_final/2164_fw.mp4	0.0	149.7139449119568	
21	129.1275429725647	fix_post	2		12	19.0	2.5	/experiments/knapen_AOT/AOT_stimuli/rescaled_final/2164_fw.mp4	0.0	150.22209095954895	0.10000395774841309
22	129.2275469303131	fix_pre	0		120	20.0	2.5	blank	1.0	150.32209491729736	1.0001170635223389
22	130.2195270061493	pulse	0	t		20.0	2.5	blank	1.0	151.31407499313354	
22	130.22766399383545	movie	1		301	20.0	2.5	blank	1.0	151.3222119808197	2.50872802734375
22	131.81973314285278	pulse	1	t		20.0	2.5	blank	1.0	152.91428112983704	
22	132.7363920211792	fix_post	2		12	20.0	2.5	blank	1.0	153.83094000816345	0.09997797012329102
23	132.8363699913025	fix_pre	0		120	21.0	2.5	/experiments/knapen_AOT/AOT_stimuli/rescaled_final/1191_rv.mp4	0.0	153.93091797828674	1.0001780986785889
23	133.41997408866882	pulse	0	t		21.0	2.5	/experiments/knapen_AOT/AOT_stimuli/rescaled_final/1191_rv.mp4	0.0	154.51452207565308	
23	133.83654808998108	movie	1		243	21.0	2.5	/experiments/knapen_AOT/AOT_stimuli/rescaled_final/1191_rv.mp4	0.0	154.93109607696533	2.5005240440368652
23	135.02044796943665	pulse	1	t		21.0	2.5	/experiments/knapen_AOT/AOT_stimuli/rescaled_final/1191_rv.mp4	0.0	156.1149959564209	
23	136.33707213401794	fix_post	2		12	21.0	2.5	/experiments/knapen_AOT/AOT_stimuli/rescaled_final/1191_rv.mp4	0.0	157.4316201210022	0.09986686706542969
24	136.43693900108337	fix_pre	0		120	22.0	2.5	/experiments/knapen_AOT/AOT_stimuli/rescaled_final/1450_fw.mp4	0.0	157.53148698806763	1.0001349449157715
24	136.6206181049347	pulse	0	t		22.0	2.5	/experiments/knapen_AOT/AOT_stimuli/rescaled_final/1450_fw.mp4	0.0	157.71516609191895	
24	137.43707394599915	movie	1		243	22.0	2.5	/experiments/knapen_AOT/AOT_stimuli/rescaled_final/1450_fw.mp4	0.0	158.5316219329834	2.5003950595855713
24	138.22077107429504	pulse	1	t		22.0	2.5	/experiments/knapen_AOT/AOT_stimuli/rescaled_final/1450_fw.mp4	0.0	159.3153190612793	
24	139.82077407836914	pulse	1	t		22.0	2.5	/experiments/knapen_AOT/AOT_stimuli/rescaled_final/1450_fw.mp4	0.0	160.9153220653534	
24	139.93746900558472	fix_post	2		12	22.0	2.5	/experiments/knapen_AOT/AOT_stimuli/rescaled_final/1450_fw.mp4	0.0	161.03201699256897	0.09999704360961914
25	140.03746604919434	fix_pre	0		120	23.0	2.5	/experiments/knapen_AOT/AOT_stimuli/rescaled_final/0077_fw.mp4	0.0	161.1320140361786	1.000180959701538
25	141.03764700889587	movie	1		238	23.0	2.5	/experiments/knapen_AOT/AOT_stimuli/rescaled_final/0077_fw.mp4	0.0	162.13219499588013	2.491997003555298
25	141.42146611213684	pulse	1	t		23.0	2.5	/experiments/knapen_AOT/AOT_stimuli/rescaled_final/0077_fw.mp4	0.0	162.5160140991211	
25	143.0140619277954	pulse	1	t		23.0	2.5	/experiments/knapen_AOT/AOT_stimuli/rescaled_final/0077_fw.mp4	0.0	164.10860991477966	
25	143.52964401245117	fix_post	2		12	23.0	2.5	/experiments/knapen_AOT/AOT_stimuli/rescaled_final/0077_fw.mp4	0.0	164.62419199943542	0.10000395774841309
26	143.62964797019958	fix_pre	0		120	24.0	2.5	/experiments/knapen_AOT/AOT_stimuli/rescaled_final/0436_rv.mp4	0.0	164.72419595718384	1.000175952911377
26	144.61428594589233	pulse	0	t		24.0	2.5	/experiments/knapen_AOT/AOT_stimuli/rescaled_final/0436_rv.mp4	0.0	165.7088339328766	
26	144.62982392311096	movie	1		245	24.0	2.5	/experiments/knapen_AOT/AOT_stimuli/rescaled_final/0436_rv.mp4	0.0	165.72437191009521	2.508721113204956
26	146.22693705558777	pulse	1	t		24.0	2.5	/experiments/knapen_AOT/AOT_stimuli/rescaled_final/0436_rv.mp4	0.0	167.32148504257202	
26	147.13854503631592	fix_post	2		12	24.0	2.5	/experiments/knapen_AOT/AOT_stimuli/rescaled_final/0436_rv.mp4	0.0	168.23309302330017	0.10001993179321289
27	147.23856496810913	fix_pre	0		120	25.0	2.5	/experiments/knapen_AOT/AOT_stimuli/rescaled_final/0159_rv.mp4	0.0	168.33311295509338	1.0001039505004883
27	147.8146779537201	pulse	0	t		25.0	2.5	/experiments/knapen_AOT/AOT_stimuli/rescaled_final/0159_rv.mp4	0.0	168.90922594070435	
27	148.23866891860962	movie	1		243	25.0	2.5	/experiments/knapen_AOT/AOT_stimuli/rescaled_final/0159_rv.mp4	0.0	169.33321690559387	2.500354051589966
27	149.41475296020508	pulse	1	t		25.0	2.5	/experiments/knapen_AOT/AOT_stimuli/rescaled_final/0159_rv.mp4	0.0	170.50930094718933	
27	150.73902297019958	fix_post	2		12	25.0	2.5	/experiments/knapen_AOT/AOT_stimuli/rescaled_final/0159_rv.mp4	0.0	171.83357095718384	0.10005402565002441
28	150.8390769958496	fix_pre	0		120	26.0	2.5	blank	1.0	171.93362498283386	1.0001380443572998
28	151.01427507400513	pulse	0	t		26.0	2.5	blank	1.0	172.10882306098938	
28	151.8392150402069	movie	1		300	26.0	2.5	blank	1.0	172.93376302719116	2.50039005279541
28	152.61450791358948	pulse	1	t		26.0	2.5	blank	1.0	173.70905590057373	
28	154.21474814414978	pulse	1	t		26.0	2.5	blank	1.0	175.30929613113403	
28	154.33960509300232	fix_post	2		12	26.0	2.5	blank	1.0	175.43415307998657	0.09999895095825195
29	154.43960404396057	fix_pre	0		119	27.0	2.5	/experiments/knapen_AOT/AOT_stimuli/rescaled_final/0892_fw.mp4	0.0	175.53415203094482	0.991818904876709
29	155.43142294883728	movie	1		243	27.0	2.5	/experiments/knapen_AOT/AOT_stimuli/rescaled_final/0892_fw.mp4	0.0	176.52597093582153	2.5003881454467773
29	155.81631803512573	pulse	1	t		27.0	2.5	/experiments/knapen_AOT/AOT_stimuli/rescaled_final/0892_fw.mp4	0.0	176.91086602210999	
29	157.41533493995667	pulse	1	t		27.0	2.5	/experiments/knapen_AOT/AOT_stimuli/rescaled_final/0892_fw.mp4	0.0	178.50988292694092	
29	157.93181109428406	fix_post	2		12	27.0	2.5	/experiments/knapen_AOT/AOT_stimuli/rescaled_final/0892_fw.mp4	0.0	179.0263590812683	0.10003399848937988
30	158.03184509277344	fix_pre	0		119	28.0	2.5	/experiments/knapen_AOT/AOT_stimuli/rescaled_final/1053_rv.mp4	0.0	179.1263930797577	0.9918019771575928
30	159.01548790931702	pulse	0	t		28.0	2.5	/experiments/knapen_AOT/AOT_stimuli/rescaled_final/1053_rv.mp4	0.0	180.11003589630127	
30	159.02364706993103	movie	1		244	28.0	2.5	/experiments/knapen_AOT/AOT_stimuli/rescaled_final/1053_rv.mp4	0.0	180.11819505691528	2.508707046508789
30	160.6164939403534	pulse	1	t		28.0	2.5	/experiments/knapen_AOT/AOT_stimuli/rescaled_final/1053_rv.mp4	0.0	181.71104192733765	
30	161.53235411643982	fix_post	2		12	28.0	2.5	/experiments/knapen_AOT/AOT_stimuli/rescaled_final/1053_rv.mp4	0.0	182.62690210342407	0.10003495216369629
31	161.63238906860352	fix_pre	0		120	29.0	2.5	/experiments/knapen_AOT/AOT_stimuli/rescaled_final/1326_fw.mp4	0.0	182.72693705558777	1.0001418590545654
31	162.21590399742126	pulse	0	t		29.0	2.5	/experiments/knapen_AOT/AOT_stimuli/rescaled_final/1326_fw.mp4	0.0	183.31045198440552	
31	162.63253092765808	movie	1		243	29.0	2.5	/experiments/knapen_AOT/AOT_stimuli/rescaled_final/1326_fw.mp4	0.0	183.72707891464233	2.5003371238708496
31	163.81624603271484	pulse	1	t		29.0	2.5	/experiments/knapen_AOT/AOT_stimuli/rescaled_final/1326_fw.mp4	0.0	184.9107940196991	
31	165.13286805152893	fix_post	2		12	29.0	2.5	/experiments/knapen_AOT/AOT_stimuli/rescaled_final/1326_fw.mp4	0.0	186.22741603851318	0.1000509262084961
32	165.23291897773743	fix_pre	0		120	30.0	2.5	/experiments/knapen_AOT/AOT_stimuli/rescaled_final/0949_fw.mp4	0.0	186.32746696472168	1.000136137008667
32	165.41654109954834	pulse	0	t		30.0	2.5	/experiments/knapen_AOT/AOT_stimuli/rescaled_final/0949_fw.mp4	0.0	186.5110890865326	
32	166.2330551147461	movie	1		244	30.0	2.5	/experiments/knapen_AOT/AOT_stimuli/rescaled_final/0949_fw.mp4	0.0	187.32760310173035	2.5003409385681152
32	167.01688408851624	pulse	1	t		30.0	2.5	/experiments/knapen_AOT/AOT_stimuli/rescaled_final/0949_fw.mp4	0.0	188.1114320755005	
32	168.6170690059662	pulse	1	t		30.0	2.5	/experiments/knapen_AOT/AOT_stimuli/rescaled_final/0949_fw.mp4	0.0	189.71161699295044	
32	168.7333960533142	fix_post	2		12	30.0	2.5	/experiments/knapen_AOT/AOT_stimuli/rescaled_final/0949_fw.mp4	0.0	189.82794404029846	0.10005593299865723
33	168.83345198631287	fix_pre	0		120	31.0	2.5	/experiments/knapen_AOT/AOT_stimuli/rescaled_final/0891_fw.mp4	0.0	189.92799997329712	1.0001461505889893
33	169.83359813690186	movie	1		242	31.0	2.5	/experiments/knapen_AOT/AOT_stimuli/rescaled_final/0891_fw.mp4	0.0	190.9281461238861	2.4920239448547363
33	170.2189519405365	pulse	1	t		31.0	2.5	/experiments/knapen_AOT/AOT_stimuli/rescaled_final/0891_fw.mp4	0.0	191.31349992752075	
33	171.81754302978516	pulse	1	t		31.0	2.5	/experiments/knapen_AOT/AOT_stimuli/rescaled_final/0891_fw.mp4	0.0	192.9120910167694	
33	172.3256220817566	fix_post	2		12	31.0	2.5	/experiments/knapen_AOT/AOT_stimuli/rescaled_final/0891_fw.mp4	0.0	193.42017006874084	0.09999799728393555
34	172.42562007904053	fix_pre	0		120	32.0	2.5	/experiments/knapen_AOT/AOT_stimuli/rescaled_final/1186_rv.mp4	0.0	193.52016806602478	1.0001440048217773
34	173.41770100593567	pulse	0	t		32.0	2.5	/experiments/knapen_AOT/AOT_stimuli/rescaled_final/1186_rv.mp4	0.0	194.51224899291992	
34	173.4257640838623	movie	1		245	32.0	2.5	/experiments/knapen_AOT/AOT_stimuli/rescaled_final/1186_rv.mp4	0.0	194.52031207084656	2.508739948272705
34	175.0189700126648	pulse	1	t		32.0	2.5	/experiments/knapen_AOT/AOT_stimuli/rescaled_final/1186_rv.mp4	0.0	196.11351799964905	
34	175.934504032135	fix_post	2		12	32.0	2.5	/experiments/knapen_AOT/AOT_stimuli/rescaled_final/1186_rv.mp4	0.0	197.02905201911926	0.09999704360961914
35	176.03450107574463	fix_pre	0		120	33.0	2.5	/experiments/knapen_AOT/AOT_stimuli/rescaled_final/2134_fw.mp4	0.0	197.12904906272888	1.0001509189605713
35	176.6182200908661	pulse	0	t		33.0	2.5	/experiments/knapen_AOT/AOT_stimuli/rescaled_final/2134_fw.mp4	0.0	197.71276807785034	
35	177.0346519947052	movie	1		244	33.0	2.5	/experiments/knapen_AOT/AOT_stimuli/rescaled_final/2134_fw.mp4	0.0	198.12919998168945	2.50034499168396
35	178.21844005584717	pulse	1	t		33.0	2.5	/experiments/knapen_AOT/AOT_stimuli/rescaled_final/2134_fw.mp4	0.0	199.31298804283142	
35	179.53499698638916	fix_post	2		12	33.0	2.5	/experiments/knapen_AOT/AOT_stimuli/rescaled_final/2134_fw.mp4	0.0	200.6295449733734	0.10003399848937988
36	179.63503098487854	fix_pre	0		120	34.0	2.5	/experiments/knapen_AOT/AOT_stimuli/rescaled_final/2133_rv.mp4	0.0	200.7295789718628	1.0001919269561768
36	179.8186731338501	pulse	0	t		34.0	2.5	/experiments/knapen_AOT/AOT_stimuli/rescaled_final/2133_rv.mp4	0.0	200.91322112083435	
36	180.63522291183472	movie	1		243	34.0	2.5	/experiments/knapen_AOT/AOT_stimuli/rescaled_final/2133_rv.mp4	0.0	201.72977089881897	2.500420093536377
36	181.4188449382782	pulse	1	t		34.0	2.5	/experiments/knapen_AOT/AOT_stimuli/rescaled_final/2133_rv.mp4	0.0	202.51339292526245	
36	183.01886892318726	pulse	1	t		34.0	2.5	/experiments/knapen_AOT/AOT_stimuli/rescaled_final/2133_rv.mp4	0.0	204.1134169101715	
36	183.1356430053711	fix_post	2		12	34.0	2.5	/experiments/knapen_AOT/AOT_stimuli/rescaled_final/2133_rv.mp4	0.0	204.23019099235535	0.09994196891784668
37	183.23558497428894	fix_pre	0		120	35.0	2.5	blank	1.0	204.3301329612732	1.0001530647277832
37	184.23573803901672	movie	1		299	35.0	2.5	blank	1.0	205.33028602600098	2.492047071456909
37	184.61931109428406	pulse	1	t		35.0	2.5	blank	1.0	205.7138590812683	
37	186.21956300735474	pulse	1	t		35.0	2.5	blank	1.0	207.314110994339	
37	186.72778511047363	fix_post	2		12	35.0	2.5	blank	1.0	207.82233309745789	0.10001182556152344
38	186.82779693603516	fix_pre	0		120	36.0	2.5	/experiments/knapen_AOT/AOT_stimuli/rescaled_final/1985_rv.mp4	0.0	207.9223449230194	1.0001170635223389
38	187.81994104385376	pulse	0	t		36.0	2.5	/experiments/knapen_AOT/AOT_stimuli/rescaled_final/1985_rv.mp4	0.0	208.914489030838	
38	187.8279139995575	movie	1		246	36.0	2.5	/experiments/knapen_AOT/AOT_stimuli/rescaled_final/1985_rv.mp4	0.0	208.92246198654175	2.5087380409240723
38	189.42041206359863	pulse	1	t		36.0	2.5	/experiments/knapen_AOT/AOT_stimuli/rescaled_final/1985_rv.mp4	0.0	210.51496005058289	
38	190.33665204048157	fix_post	2		12	36.0	2.5	/experiments/knapen_AOT/AOT_stimuli/rescaled_final/1985_rv.mp4	0.0	211.43120002746582	0.09998893737792969
39	190.4366409778595	fix_pre	0		120	37.0	2.5	/experiments/knapen_AOT/AOT_stimuli/rescaled_final/0724_fw.mp4	0.0	211.53118896484375	1.0001561641693115
39	191.02037000656128	pulse	0	t		37.0	2.5	/experiments/knapen_AOT/AOT_stimuli/rescaled_final/0724_fw.mp4	0.0	212.11491799354553	
39	191.4367971420288	movie	1		247	37.0	2.5	/experiments/knapen_AOT/AOT_stimuli/rescaled_final/0724_fw.mp4	0.0	212.53134512901306	2.5003788471221924
39	192.61709213256836	pulse	1	t		37.0	2.5	/experiments/knapen_AOT/AOT_stimuli/rescaled_final/0724_fw.mp4	0.0	213.7116401195526	
39	193.937175989151	fix_post	2		12	37.0	2.5	/experiments/knapen_AOT/AOT_stimuli/rescaled_final/0724_fw.mp4	0.0	215.03172397613525	0.1000361442565918
40	194.0372121334076	fix_pre	0		120	38.0	2.5	/experiments/knapen_AOT/AOT_stimuli/rescaled_final/0637_rv.mp4	0.0	215.13176012039185	1.000152826309204
40	194.22078704833984	pulse	0	t		38.0	2.5	/experiments/knapen_AOT/AOT_stimuli/rescaled_final/0637_rv.mp4	0.0	215.3153350353241	
40	195.0373649597168	movie	1		244	38.0	2.5	/experiments/knapen_AOT/AOT_stimuli/rescaled_final/0637_rv.mp4	0.0	216.13191294670105	2.500373125076294
40	195.8136420249939	pulse	1	t		38.0	2.5	/experiments/knapen_AOT/AOT_stimuli/rescaled_final/0637_rv.mp4	0.0	216.90819001197815	
40	197.42097902297974	pulse	1	t		38.0	2.5	/experiments/knapen_AOT/AOT_stimuli/rescaled_final/0637_rv.mp4	0.0	218.515527009964	
40	197.5377380847931	fix_post	2		12	38.0	2.5	/experiments/knapen_AOT/AOT_stimuli/rescaled_final/0637_rv.mp4	0.0	218.63228607177734	0.10000085830688477
41	197.63773894309998	fix_pre	0		120	39.0	2.5	/experiments/knapen_AOT/AOT_stimuli/rescaled_final/1690_fw.mp4	0.0	218.73228693008423	1.0001840591430664
41	198.63792300224304	movie	1		243	39.0	2.5	/experiments/knapen_AOT/AOT_stimuli/rescaled_final/1690_fw.mp4	0.0	219.7324709892273	2.49200701713562
41	199.02213406562805	pulse	1	t		39.0	2.5	/experiments/knapen_AOT/AOT_stimuli/rescaled_final/1690_fw.mp4	0.0	220.1166820526123	
41	200.6144299507141	pulse	1	t		39.0	2.5	/experiments/knapen_AOT/AOT_stimuli/rescaled_final/1690_fw.mp4	0.0	221.70897793769836	
41	201.12993001937866	fix_post	2		12	39.0	2.5	/experiments/knapen_AOT/AOT_stimuli/rescaled_final/1690_fw.mp4	0.0	222.22447800636292	0.09999489784240723
42	201.22992491722107	fix_pre	0		117	40.0	2.5	blank	1.0	222.32447290420532	1.0001561641693115
42	202.2144501209259	pulse	0	t		40.0	2.5	blank	1.0	223.30899810791016	
42	202.23008108139038	movie	1		301	40.0	2.5	blank	1.0	223.32462906837463	2.508723020553589
42	203.8137891292572	pulse	1	t		40.0	2.5	blank	1.0	224.90833711624146	
42	204.73880410194397	fix_post	2		12	40.0	2.5	blank	1.0	225.83335208892822	0.09999203681945801
43	204.83879613876343	fix_pre	0		120	41.0	2.5	/experiments/knapen_AOT/AOT_stimuli/rescaled_final/1051_fw.mp4	0.0	225.93334412574768	1.0001649856567383
43	205.4141161441803	pulse	0	t		41.0	2.5	/experiments/knapen_AOT/AOT_stimuli/rescaled_final/1051_fw.mp4	0.0	226.50866413116455	
43	205.83896112442017	movie	1		244	41.0	2.5	/experiments/knapen_AOT/AOT_stimuli/rescaled_final/1051_fw.mp4	0.0	226.93350911140442	2.5003409385681152
43	207.01489400863647	pulse	1	t		41.0	2.5	/experiments/knapen_AOT/AOT_stimuli/rescaled_final/1051_fw.mp4	0.0	228.10944199562073	
43	208.33930206298828	fix_post	2		12	41.0	2.5	/experiments/knapen_AOT/AOT_stimuli/rescaled_final/1051_fw.mp4	0.0	229.43385004997253	0.10003995895385742
44	208.43934202194214	fix_pre	0		120	42.0	2.5	/experiments/knapen_AOT/AOT_stimuli/rescaled_final/1519_fw.mp4	0.0	229.5338900089264	1.000169038772583
44	208.61458897590637	pulse	0	t		42.0	2.5	/experiments/knapen_AOT/AOT_stimuli/rescaled_final/1519_fw.mp4	0.0	229.70913696289062	
44	209.43951106071472	movie	1		242	42.0	2.5	/experiments/knapen_AOT/AOT_stimuli/rescaled_final/1519_fw.mp4	0.0	230.53405904769897	2.492025852203369
44	210.21481204032898	pulse	1	t		42.0	2.5	/experiments/knapen_AOT/AOT_stimuli/rescaled_final/1519_fw.mp4	0.0	231.30936002731323	
44	211.815092086792	pulse	1	t		42.0	2.5	/experiments/knapen_AOT/AOT_stimuli/rescaled_final/1519_fw.mp4	0.0	232.90964007377625	
44	211.9315369129181	fix_post	2		12	42.0	2.5	/experiments/knapen_AOT/AOT_stimuli/rescaled_final/1519_fw.mp4	0.0	233.02608489990234	0.10002303123474121
45	212.03155994415283	fix_pre	0		120	43.0	2.5	/experiments/knapen_AOT/AOT_stimuli/rescaled_final/1425_rv.mp4	0.0	233.12610793113708	1.0001471042633057
45	213.03170704841614	movie	1		247	43.0	2.5	/experiments/knapen_AOT/AOT_stimuli/rescaled_final/1425_rv.mp4	0.0	234.1262550354004	2.5003669261932373
45	213.41549396514893	pulse	1	t		43.0	2.5	/experiments/knapen_AOT/AOT_stimuli/rescaled_final/1425_rv.mp4	0.0	234.51004195213318	
45	215.0156319141388	pulse	1	t		43.0	2.5	/experiments/knapen_AOT/AOT_stimuli/rescaled_final/1425_rv.mp4	0.0	236.11017990112305	
45	215.53207397460938	fix_post	2		12	43.0	2.5	/experiments/knapen_AOT/AOT_stimuli/rescaled_final/1425_rv.mp4	0.0	236.62662196159363	0.10001206398010254
46	215.63208603858948	fix_pre	0		119	44.0	2.5	/experiments/knapen_AOT/AOT_stimuli/rescaled_final/0917_rv.mp4	0.0	236.72663402557373	0.991919994354248
46	216.6157259941101	pulse	0	t		44.0	2.5	/experiments/knapen_AOT/AOT_stimuli/rescaled_final/0917_rv.mp4	0.0	237.71027398109436	
46	216.62400603294373	movie	1		244	44.0	2.5	/experiments/knapen_AOT/AOT_stimuli/rescaled_final/0917_rv.mp4	0.0	237.71855401992798	2.5086820125579834
46	218.216628074646	pulse	1	t		44.0	2.5	/experiments/knapen_AOT/AOT_stimuli/rescaled_final/0917_rv.mp4	0.0	239.31117606163025	
46	219.1326880455017	fix_post	2		12	44.0	2.5	/experiments/knapen_AOT/AOT_stimuli/rescaled_final/0917_rv.mp4	0.0	240.22723603248596	0.09993100166320801
47	219.23261904716492	fix_pre	0		120	45.0	2.5	/experiments/knapen_AOT/AOT_stimuli/rescaled_final/1933_rv.mp4	0.0	240.32716703414917	1.0001790523529053
47	219.81631898880005	pulse	0	t		45.0	2.5	/experiments/knapen_AOT/AOT_stimuli/rescaled_final/1933_rv.mp4	0.0	240.9108669757843	
47	220.23279809951782	movie	1		244	45.0	2.5	/experiments/knapen_AOT/AOT_stimuli/rescaled_final/1933_rv.mp4	0.0	241.32734608650208	2.500337839126587
47	221.4165380001068	pulse	1	t		45.0	2.5	/experiments/knapen_AOT/AOT_stimuli/rescaled_final/1933_rv.mp4	0.0	242.51108598709106	
47	222.7331359386444	fix_post	2		12	45.0	2.5	/experiments/knapen_AOT/AOT_stimuli/rescaled_final/1933_rv.mp4	0.0	243.82768392562866	0.10001015663146973
48	222.83314609527588	fix_pre	0		120	46.0	2.5	/experiments/knapen_AOT/AOT_stimuli/rescaled_final/0253_fw.mp4	0.0	243.92769408226013	1.0001640319824219
48	223.01674795150757	pulse	0	t		46.0	2.5	/experiments/knapen_AOT/AOT_stimuli/rescaled_final/0253_fw.mp4	0.0	244.11129593849182	
48	223.8333101272583	movie	1		245	46.0	2.5	/experiments/knapen_AOT/AOT_stimuli/rescaled_final/0253_fw.mp4	0.0	244.92785811424255	2.5003609657287598
48	224.61689114570618	pulse	1	t		46.0	2.5	/experiments/knapen_AOT/AOT_stimuli/rescaled_final/0253_fw.mp4	0.0	245.71143913269043	
48	226.2146611213684	pulse	1	t		46.0	2.5	/experiments/knapen_AOT/AOT_stimuli/rescaled_final/0253_fw.mp4	0.0	247.30920910835266	
48	226.33367109298706	fix_post	2		12	46.0	2.5	/experiments/knapen_AOT/AOT_stimuli/rescaled_final/0253_fw.mp4	0.0	247.4282190799713	0.10003185272216797
49	226.43370294570923	fix_pre	0		119	47.0	2.5	blank	1.0	247.52825093269348	0.9918019771575928
49	227.42550492286682	movie	1		300	47.0	2.5	blank	1.0	248.52005290985107	2.50039005279541
49	227.81755304336548	pulse	1	t		47.0	2.5	blank	1.0	248.91210103034973	
49	229.41779398918152	pulse	1	t		47.0	2.5	blank	1.0	250.51234197616577	
49	229.92589497566223	fix_post	2		12	47.0	2.5	blank	1.0	251.02044296264648	0.10003399848937988
50	230.0259289741516	fix_pre	0		120	48.0	2.5	/experiments/knapen_AOT/AOT_stimuli/rescaled_final/0910_fw.mp4	0.0	251.12047696113586	1.0001590251922607
50	231.01788902282715	pulse	0	t		48.0	2.5	/experiments/knapen_AOT/AOT_stimuli/rescaled_final/0910_fw.mp4	0.0	252.1124370098114	
50	231.02608799934387	movie	1		244	48.0	2.5	/experiments/knapen_AOT/AOT_stimuli/rescaled_final/0910_fw.mp4	0.0	252.12063598632812	2.5086560249328613
50	232.61847400665283	pulse	1	t		48.0	2.5	/experiments/knapen_AOT/AOT_stimuli/rescaled_final/0910_fw.mp4	0.0	253.71302199363708	
50	233.53474402427673	fix_post	2		12	48.0	2.5	/experiments/knapen_AOT/AOT_stimuli/rescaled_final/0910_fw.mp4	0.0	254.629292011261	0.10001611709594727
51	233.63476014137268	fix_pre	0		120	49.0	2.5	/experiments/knapen_AOT/AOT_stimuli/rescaled_final/1007_fw.mp4	0.0	254.72930812835693	1.000201940536499
51	234.21845412254333	pulse	0	t		49.0	2.5	/experiments/knapen_AOT/AOT_stimuli/rescaled_final/1007_fw.mp4	0.0	255.3130021095276	
51	234.63496208190918	movie	1		244	49.0	2.5	/experiments/knapen_AOT/AOT_stimuli/rescaled_final/1007_fw.mp4	0.0	255.72951006889343	2.5003209114074707
51	235.8188099861145	pulse	1	t		49.0	2.5	/experiments/knapen_AOT/AOT_stimuli/rescaled_final/1007_fw.mp4	0.0	256.91335797309875	
51	237.13528299331665	fix_post	2		12	49.0	2.5	/experiments/knapen_AOT/AOT_stimuli/rescaled_final/1007_fw.mp4	0.0	258.2298309803009	0.10009312629699707
52	237.23537611961365	fix_pre	0		120	50.0	2.5	/experiments/knapen_AOT/AOT_stimuli/rescaled_final/0306_fw.mp4	0.0	258.3299241065979	1.000074863433838
52	237.4188470840454	pulse	0	t		50.0	2.5	/experiments/knapen_AOT/AOT_stimuli/rescaled_final/0306_fw.mp4	0.0	258.51339507102966	
52	238.23545098304749	movie	1		247	50.0	2.5	/experiments/knapen_AOT/AOT_stimuli/rescaled_final/0306_fw.mp4	0.0	259.32999897003174	2.5003910064697266
52	239.01914596557617	pulse	1	t		50.0	2.5	/experiments/knapen_AOT/AOT_stimuli/rescaled_final/0306_fw.mp4	0.0	260.1136939525604	
52	240.61946201324463	pulse	1	t		50.0	2.5	/experiments/knapen_AOT/AOT_stimuli/rescaled_final/0306_fw.mp4	0.0	261.7140100002289	
52	240.7358419895172	fix_post	2		12	50.0	2.5	/experiments/knapen_AOT/AOT_stimuli/rescaled_final/0306_fw.mp4	0.0	261.83038997650146	0.1000070571899414
53	240.83584904670715	fix_pre	0		119	51.0	2.5	/experiments/knapen_AOT/AOT_stimuli/rescaled_final/1011_fw.mp4	0.0	261.9303970336914	0.9918248653411865
53	241.82767391204834	movie	1		244	51.0	2.5	/experiments/knapen_AOT/AOT_stimuli/rescaled_final/1011_fw.mp4	0.0	262.9222218990326	2.500352144241333
53	242.21975898742676	pulse	1	t		51.0	2.5	/experiments/knapen_AOT/AOT_stimuli/rescaled_final/1011_fw.mp4	0.0	263.314306974411	
53	243.81983494758606	pulse	1	t		51.0	2.5	/experiments/knapen_AOT/AOT_stimuli/rescaled_final/1011_fw.mp4	0.0	264.9143829345703	
53	244.32802605628967	fix_post	2		12	51.0	2.5	/experiments/knapen_AOT/AOT_stimuli/rescaled_final/1011_fw.mp4	0.0	265.4225740432739	0.1000819206237793
54	244.42810797691345	fix_pre	0		120	52.0	2.5	/experiments/knapen_AOT/AOT_stimuli/rescaled_final/0494_rv.mp4	0.0	265.5226559638977	1.0000989437103271
54	245.4200210571289	pulse	0	t		52.0	2.5	/experiments/knapen_AOT/AOT_stimuli/rescaled_final/0494_rv.mp4	0.0	266.51456904411316	
54	245.42820692062378	movie	1		244	52.0	2.5	/experiments/knapen_AOT/AOT_stimuli/rescaled_final/0494_rv.mp4	0.0	266.52275490760803	2.508683204650879
54	247.02124404907227	pulse	1	t		52.0	2.5	/experiments/knapen_AOT/AOT_stimuli/rescaled_final/0494_rv.mp4	0.0	268.1157920360565	
54	247.93689012527466	fix_post	2		12	52.0	2.5	/experiments/knapen_AOT/AOT_stimuli/rescaled_final/0494_rv.mp4	0.0	269.0314381122589	0.10001897811889648
55	248.03690910339355	fix_pre	0		120	53.0	2.5	/experiments/knapen_AOT/AOT_stimuli/rescaled_final/0990_fw.mp4	0.0	269.1314570903778	1.0001850128173828
55	248.62068796157837	pulse	0	t		53.0	2.5	/experiments/knapen_AOT/AOT_stimuli/rescaled_final/0990_fw.mp4	0.0	269.7152359485626	
55	249.03709411621094	movie	1		244	53.0	2.5	/experiments/knapen_AOT/AOT_stimuli/rescaled_final/0990_fw.mp4	0.0	270.1316421031952	2.5003268718719482
55	250.21617007255554	pulse	1	t		53.0	2.5	/experiments/knapen_AOT/AOT_stimuli/rescaled_final/0990_fw.mp4	0.0	271.3107180595398	
55	251.53742098808289	fix_post	2		12	53.0	2.5	/experiments/knapen_AOT/AOT_stimuli/rescaled_final/0990_fw.mp4	0.0	272.63196897506714	0.10004401206970215
56	251.6374650001526	fix_pre	0		120	54.0	2.5	blank	1.0	272.73201298713684	1.0001640319824219
56	251.82097792625427	pulse	0	t		54.0	2.5	blank	1.0	272.9155259132385	
56	252.637629032135	movie	1		300	54.0	2.5	blank	1.0	273.73217701911926	2.5003631114959717
56	253.42126202583313	pulse	1	t		54.0	2.5	blank	1.0	274.5158100128174	
56	255.02163100242615	pulse	1	t		54.0	2.5	blank	1.0	276.1161789894104	
56	255.13799214363098	fix_post	2		12	54.0	2.5	blank	1.0	276.23254013061523	0.10003495216369629
57	255.23802709579468	fix_pre	0		120	55.0	2.5	/experiments/knapen_AOT/AOT_stimuli/rescaled_final/2149_rv.mp4	0.0	276.33257508277893	1.0001330375671387
57	256.2381601333618	movie	1		243	55.0	2.5	/experiments/knapen_AOT/AOT_stimuli/rescaled_final/2149_rv.mp4	0.0	277.33270812034607	2.4920599460601807
57	256.6222789287567	pulse	1	t		55.0	2.5	/experiments/knapen_AOT/AOT_stimuli/rescaled_final/2149_rv.mp4	0.0	277.71682691574097	
57	258.21471214294434	pulse	1	t		55.0	2.5	/experiments/knapen_AOT/AOT_stimuli/rescaled_final/2149_rv.mp4	0.0	279.3092601299286	
57	258.730220079422	fix_post	2		12	55.0	2.5	/experiments/knapen_AOT/AOT_stimuli/rescaled_final/2149_rv.mp4	0.0	279.82476806640625	0.10005593299865723
58	258.83027601242065	fix_pre	0		120	56.0	2.5	/experiments/knapen_AOT/AOT_stimuli/rescaled_final/0005_rv.mp4	0.0	279.9248239994049	1.0001029968261719
58	259.81463098526	pulse	0	t		56.0	2.5	/experiments/knapen_AOT/AOT_stimuli/rescaled_final/0005_rv.mp4	0.0	280.90917897224426	
58	259.8303790092468	movie	1		244	56.0	2.5	/experiments/knapen_AOT/AOT_stimuli/rescaled_final/0005_rv.mp4	0.0	280.9249269962311	2.5086700916290283
58	261.4230089187622	pulse	1	t		56.0	2.5	/experiments/knapen_AOT/AOT_stimuli/rescaled_final/0005_rv.mp4	0.0	282.51755690574646	
58	262.33904910087585	fix_post	2		12	56.0	2.5	/experiments/knapen_AOT/AOT_stimuli/rescaled_final/0005_rv.mp4	0.0	283.4335970878601	0.1000528335571289
59	262.439101934433	fix_pre	0		117	57.0	2.5	/experiments/knapen_AOT/AOT_stimuli/rescaled_final/0500_fw.mp4	0.0	283.53364992141724	1.0001552104949951
59	263.01523208618164	pulse	0	t		57.0	2.5	/experiments/knapen_AOT/AOT_stimuli/rescaled_final/0500_fw.mp4	0.0	284.1097800731659	
59	263.439257144928	movie	1		245	57.0	2.5	/experiments/knapen_AOT/AOT_stimuli/rescaled_final/0500_fw.mp4	0.0	284.53380513191223	2.500332832336426
59	264.6183350086212	pulse	1	t		57.0	2.5	/experiments/knapen_AOT/AOT_stimuli/rescaled_final/0500_fw.mp4	0.0	285.71288299560547	
59	265.9395899772644	fix_post	2		12	57.0	2.5	/experiments/knapen_AOT/AOT_stimuli/rescaled_final/0500_fw.mp4	0.0	287.03413796424866	0.10000896453857422
60	266.039598941803	fix_pre	0		120	58.0	2.5	/experiments/knapen_AOT/AOT_stimuli/rescaled_final/0726_rv.mp4	0.0	287.13414692878723	1.0001521110534668
60	266.21479201316833	pulse	0	t		58.0	2.5	/experiments/knapen_AOT/AOT_stimuli/rescaled_final/0726_rv.mp4	0.0	287.3093400001526	
60	267.03975105285645	movie	1		247	58.0	2.5	/experiments/knapen_AOT/AOT_stimuli/rescaled_final/0726_rv.mp4	0.0	288.1342990398407	2.5003669261932373
60	267.815062046051	pulse	1	t		58.0	2.5	/experiments/knapen_AOT/AOT_stimuli/rescaled_final/0726_rv.mp4	0.0	288.9096100330353	
60	269.41526913642883	pulse	1	t		58.0	2.5	/experiments/knapen_AOT/AOT_stimuli/rescaled_final/0726_rv.mp4	0.0	290.5098171234131	
60	269.5401179790497	fix_post	2		11	58.0	2.5	/experiments/knapen_AOT/AOT_stimuli/rescaled_final/0726_rv.mp4	0.0	290.63466596603394	0.09168505668640137
61	269.6318030357361	fix_pre	0		120	59.0	2.5	/experiments/knapen_AOT/AOT_stimuli/rescaled_final/1774_rv.mp4	0.0	290.72635102272034	1.000166893005371
61	270.63196992874146	movie	1		244	59.0	2.5	/experiments/knapen_AOT/AOT_stimuli/rescaled_final/1774_rv.mp4	0.0	291.7265179157257	2.5004050731658936
61	271.01690196990967	pulse	1	t		59.0	2.5	/experiments/knapen_AOT/AOT_stimuli/rescaled_final/1774_rv.mp4	0.0	292.1114499568939	
61	272.61600613594055	pulse	1	t		59.0	2.5	/experiments/knapen_AOT/AOT_stimuli/rescaled_final/1774_rv.mp4	0.0	293.7105541229248	
61	273.13237500190735	fix_post	2		12	59.0	2.5	/experiments/knapen_AOT/AOT_stimuli/rescaled_final/1774_rv.mp4	0.0	294.2269229888916	0.10000300407409668
62	273.23237800598145	fix_pre	0		119	60.0	2.5	/experiments/knapen_AOT/AOT_stimuli/rescaled_final/1338_rv.mp4	0.0	294.3269259929657	0.9917850494384766
62	274.21591997146606	pulse	0	t		60.0	2.5	/experiments/knapen_AOT/AOT_stimuli/rescaled_final/1338_rv.mp4	0.0	295.3104679584503	
62	274.2241630554199	movie	1		244	60.0	2.5	/experiments/knapen_AOT/AOT_stimuli/rescaled_final/1338_rv.mp4	0.0	295.3187110424042	2.5087180137634277
62	275.8169069290161	pulse	1	t		60.0	2.5	/experiments/knapen_AOT/AOT_stimuli/rescaled_final/1338_rv.mp4	0.0	296.91145491600037	
62	276.73288106918335	fix_post	2		12	60.0	2.5	/experiments/knapen_AOT/AOT_stimuli/rescaled_final/1338_rv.mp4	0.0	297.8274290561676	0.1000359058380127
63	276.83291697502136	fix_pre	0		120	61.0	2.5	/experiments/knapen_AOT/AOT_stimuli/rescaled_final/0005_rv.mp4	0.0	297.9274649620056	1.0001261234283447
63	277.41647005081177	pulse	0	t		61.0	2.5	/experiments/knapen_AOT/AOT_stimuli/rescaled_final/0005_rv.mp4	0.0	298.511018037796	
63	277.8330430984497	movie	1		243	61.0	2.5	/experiments/knapen_AOT/AOT_stimuli/rescaled_final/0005_rv.mp4	0.0	298.92759108543396	2.5003650188446045
63	279.01690196990967	pulse	1	t		61.0	2.5	/experiments/knapen_AOT/AOT_stimuli/rescaled_final/0005_rv.mp4	0.0	300.1114499568939	
63	280.3334081172943	fix_post	2		12	61.0	2.5	/experiments/knapen_AOT/AOT_stimuli/rescaled_final/0005_rv.mp4	0.0	301.42795610427856	0.1000208854675293
64	280.43342900276184	fix_pre	0		120	62.0	2.5	/experiments/knapen_AOT/AOT_stimuli/rescaled_final/2134_rv.mp4	0.0	301.5279769897461	1.0001769065856934
64	280.6169729232788	pulse	0	t		62.0	2.5	/experiments/knapen_AOT/AOT_stimuli/rescaled_final/2134_rv.mp4	0.0	301.71152091026306	
64	281.43360590934753	movie	1		244	62.0	2.5	/experiments/knapen_AOT/AOT_stimuli/rescaled_final/2134_rv.mp4	0.0	302.5281538963318	2.5003581047058105
64	282.21729707717896	pulse	1	t		62.0	2.5	/experiments/knapen_AOT/AOT_stimuli/rescaled_final/2134_rv.mp4	0.0	303.3118450641632	
64	283.8175570964813	pulse	1	t		62.0	2.5	/experiments/knapen_AOT/AOT_stimuli/rescaled_final/2134_rv.mp4	0.0	304.9121050834656	
64	283.93396401405334	fix_post	2		12	62.0	2.5	/experiments/knapen_AOT/AOT_stimuli/rescaled_final/2134_rv.mp4	0.0	305.0285120010376	0.1000370979309082
65	284.03400111198425	fix_pre	0		120	63.0	2.5	blank	1.0	305.1285490989685	1.0001130104064941
65	285.03411412239075	movie	1		299	63.0	2.5	blank	1.0	306.128662109375	2.4920339584350586
65	285.4177839756012	pulse	1	t		63.0	2.5	blank	1.0	306.51233196258545	
65	287.01787209510803	pulse	1	t		63.0	2.5	blank	1.0	308.1124200820923	
65	287.5261480808258	fix_post	2		12	63.0	2.5	blank	1.0	308.62069606781006	0.10005688667297363
66	287.6262049674988	fix_pre	0		120	64.0	2.5	/experiments/knapen_AOT/AOT_stimuli/rescaled_final/1667_rv.mp4	0.0	308.72075295448303	1.0001230239868164
66	288.6182429790497	pulse	0	t		64.0	2.5	/experiments/knapen_AOT/AOT_stimuli/rescaled_final/1667_rv.mp4	0.0	309.71279096603394	
66	288.6263279914856	movie	1		245	64.0	2.5	/experiments/knapen_AOT/AOT_stimuli/rescaled_final/1667_rv.mp4	0.0	309.72087597846985	2.508690118789673
66	290.2188911437988	pulse	1	t		64.0	2.5	/experiments/knapen_AOT/AOT_stimuli/rescaled_final/1667_rv.mp4	0.0	311.3134391307831	
66	291.13501811027527	fix_post	2		12	64.0	2.5	/experiments/knapen_AOT/AOT_stimuli/rescaled_final/1667_rv.mp4	0.0	312.2295660972595	0.10001897811889648
67	291.23503708839417	fix_pre	0		120	65.0	2.5	/experiments/knapen_AOT/AOT_stimuli/rescaled_final/1053_rv.mp4	0.0	312.3295850753784	1.0001509189605713
67	291.8186480998993	pulse	0	t		65.0	2.5	/experiments/knapen_AOT/AOT_stimuli/rescaled_final/1053_rv.mp4	0.0	312.91319608688354	
67	292.23518800735474	movie	1		243	65.0	2.5	/experiments/knapen_AOT/AOT_stimuli/rescaled_final/1053_rv.mp4	0.0	313.329735994339	2.5003790855407715
67	293.4189660549164	pulse	1	t		65.0	2.5	/experiments/knapen_AOT/AOT_stimuli/rescaled_final/1053_rv.mp4	0.0	314.51351404190063	
67	294.7355670928955	fix_post	2		12	65.0	2.5	/experiments/knapen_AOT/AOT_stimuli/rescaled_final/1053_rv.mp4	0.0	315.83011507987976	0.10000991821289062
68	294.8355770111084	fix_pre	0		120	66.0	2.5	/experiments/knapen_AOT/AOT_stimuli/rescaled_final/0293_fw.mp4	0.0	315.93012499809265	1.0001609325408936
68	295.01917695999146	pulse	0	t		66.0	2.5	/experiments/knapen_AOT/AOT_stimuli/rescaled_final/0293_fw.mp4	0.0	316.1137249469757	
68	295.8357379436493	movie	1		243	66.0	2.5	/experiments/knapen_AOT/AOT_stimuli/rescaled_final/0293_fw.mp4	0.0	316.93028593063354	2.5003561973571777
68	296.61949491500854	pulse	1	t		66.0	2.5	/experiments/knapen_AOT/AOT_stimuli/rescaled_final/0293_fw.mp4	0.0	317.7140429019928	
68	298.2194929122925	pulse	1	t		66.0	2.5	/experiments/knapen_AOT/AOT_stimuli/rescaled_final/0293_fw.mp4	0.0	319.31404089927673	
68	298.33609414100647	fix_post	2		12	66.0	2.5	/experiments/knapen_AOT/AOT_stimuli/rescaled_final/0293_fw.mp4	0.0	319.4306421279907	0.10004687309265137
69	298.4361410140991	fix_pre	0		120	67.0	2.5	/experiments/knapen_AOT/AOT_stimuli/rescaled_final/1103_fw.mp4	0.0	319.5306890010834	1.0001161098480225
69	299.43625712394714	movie	1		242	67.0	2.5	/experiments/knapen_AOT/AOT_stimuli/rescaled_final/1103_fw.mp4	0.0	320.5308051109314	2.4920599460601807
69	299.82110691070557	pulse	1	t		67.0	2.5	/experiments/knapen_AOT/AOT_stimuli/rescaled_final/1103_fw.mp4	0.0	320.9156548976898	
69	301.4201760292053	pulse	1	t		67.0	2.5	/experiments/knapen_AOT/AOT_stimuli/rescaled_final/1103_fw.mp4	0.0	322.5147240161896	
69	301.9283170700073	fix_post	2		12	67.0	2.5	/experiments/knapen_AOT/AOT_stimuli/rescaled_final/1103_fw.mp4	0.0	323.0228650569916	0.10007905960083008
70	302.02839612960815	fix_pre	0		120	68.0	2.5	blank	1.0	323.1229441165924	1.0000720024108887
70	303.0203969478607	pulse	0	t		68.0	2.5	blank	1.0	324.11494493484497	
70	303.02846813201904	movie	1		301	68.0	2.5	blank	1.0	324.1230161190033	2.5087008476257324
70	304.6206650733948	pulse	1	t		68.0	2.5	blank	1.0	325.715213060379	
70	305.5371689796448	fix_post	2		12	68.0	2.5	blank	1.0	326.631716966629	0.10006093978881836
71	305.6372299194336	fix_pre	0		120	69.0	2.5	/experiments/knapen_AOT/AOT_stimuli/rescaled_final/1715_rv.mp4	0.0	326.73177790641785	1.0001120567321777
71	306.22077798843384	pulse	0	t		69.0	2.5	/experiments/knapen_AOT/AOT_stimuli/rescaled_final/1715_rv.mp4	0.0	327.3153259754181	
71	306.63734197616577	movie	1		246	69.0	2.5	/experiments/knapen_AOT/AOT_stimuli/rescaled_final/1715_rv.mp4	0.0	327.73188996315	2.5004489421844482
71	307.8173270225525	pulse	1	t		69.0	2.5	/experiments/knapen_AOT/AOT_stimuli/rescaled_final/1715_rv.mp4	0.0	328.91187500953674	
71	309.1377909183502	fix_post	2		12	69.0	2.5	/experiments/knapen_AOT/AOT_stimuli/rescaled_final/1715_rv.mp4	0.0	330.2323389053345	0.09994006156921387
72	309.23773097991943	fix_pre	0		120	70.0	2.5	/experiments/knapen_AOT/AOT_stimuli/rescaled_final/0160_fw.mp4	0.0	330.3322789669037	1.0001490116119385
72	309.42141103744507	pulse	0	t		70.0	2.5	/experiments/knapen_AOT/AOT_stimuli/rescaled_final/0160_fw.mp4	0.0	330.5159590244293	
72	310.2378799915314	movie	1		243	70.0	2.5	/experiments/knapen_AOT/AOT_stimuli/rescaled_final/0160_fw.mp4	0.0	331.3324279785156	2.5003700256347656
72	311.0143539905548	pulse	1	t		70.0	2.5	/experiments/knapen_AOT/AOT_stimuli/rescaled_final/0160_fw.mp4	0.0	332.10890197753906	
72	312.6216380596161	pulse	1	t		70.0	2.5	/experiments/knapen_AOT/AOT_stimuli/rescaled_final/0160_fw.mp4	0.0	333.71618604660034	
72	312.73825001716614	fix_post	2		12	70.0	2.5	/experiments/knapen_AOT/AOT_stimuli/rescaled_final/0160_fw.mp4	0.0	333.8327980041504	0.10002899169921875
73	312.83827900886536	fix_pre	0		120	71.0	2.5	/experiments/knapen_AOT/AOT_stimuli/rescaled_final/2015_fw.mp4	0.0	333.9328269958496	1.0001299381256104
73	313.83840894699097	movie	1		242	71.0	2.5	/experiments/knapen_AOT/AOT_stimuli/rescaled_final/2015_fw.mp4	0.0	334.9329569339752	2.4920780658721924
73	314.22243309020996	pulse	1	t		71.0	2.5	/experiments/knapen_AOT/AOT_stimuli/rescaled_final/2015_fw.mp4	0.0	335.3169810771942	
73	315.8148601055145	pulse	1	t		71.0	2.5	/experiments/knapen_AOT/AOT_stimuli/rescaled_final/2015_fw.mp4	0.0	336.9094080924988	
73	316.33048701286316	fix_post	2		12	71.0	2.5	/experiments/knapen_AOT/AOT_stimuli/rescaled_final/2015_fw.mp4	0.0	337.4250349998474	0.09998202323913574
74	316.4304690361023	fix_pre	0		119	72.0	2.5	/experiments/knapen_AOT/AOT_stimuli/rescaled_final/1367_rv.mp4	0.0	337.52501702308655	0.9918069839477539
74	317.41417503356934	pulse	0	t		72.0	2.5	/experiments/knapen_AOT/AOT_stimuli/rescaled_final/1367_rv.mp4	0.0	338.5087230205536	
74	317.42227602005005	movie	1		244	72.0	2.5	/experiments/knapen_AOT/AOT_stimuli/rescaled_final/1367_rv.mp4	0.0	338.5168240070343	2.508729934692383
74	319.0148410797119	pulse	1	t		72.0	2.5	/experiments/knapen_AOT/AOT_stimuli/rescaled_final/1367_rv.mp4	0.0	340.10938906669617	
74	319.93100595474243	fix_post	2		12	72.0	2.5	/experiments/knapen_AOT/AOT_stimuli/rescaled_final/1367_rv.mp4	0.0	341.0255539417267	0.1000370979309082
75	320.03104305267334	fix_pre	0		120	73.0	2.5	/experiments/knapen_AOT/AOT_stimuli/rescaled_final/0694_rv.mp4	0.0	341.1255910396576	1.0000979900360107
75	320.61465096473694	pulse	0	t		73.0	2.5	/experiments/knapen_AOT/AOT_stimuli/rescaled_final/0694_rv.mp4	0.0	341.7091989517212	
75	321.03114104270935	movie	1		243	73.0	2.5	/experiments/knapen_AOT/AOT_stimuli/rescaled_final/0694_rv.mp4	0.0	342.1256890296936	2.500375986099243
75	322.21490502357483	pulse	1	t		73.0	2.5	/experiments/knapen_AOT/AOT_stimuli/rescaled_final/0694_rv.mp4	0.0	343.3094530105591	
75	323.5315170288086	fix_post	2		12	73.0	2.5	/experiments/knapen_AOT/AOT_stimuli/rescaled_final/0694_rv.mp4	0.0	344.62606501579285	0.10007405281066895
76	323.63159108161926	fix_pre	0		120	74.0	2.5	/experiments/knapen_AOT/AOT_stimuli/rescaled_final/0892_rv.mp4	0.0	344.7261390686035	1.0001029968261719
76	323.8151171207428	pulse	0	t		74.0	2.5	/experiments/knapen_AOT/AOT_stimuli/rescaled_final/0892_rv.mp4	0.0	344.90966510772705	
76	324.63169407844543	movie	1		240	74.0	2.5	/experiments/knapen_AOT/AOT_stimuli/rescaled_final/0892_rv.mp4	0.0	345.7262420654297	2.500412940979004
76	325.41547298431396	pulse	1	t		74.0	2.5	/experiments/knapen_AOT/AOT_stimuli/rescaled_final/0892_rv.mp4	0.0	346.5100209712982	
76	327.0156099796295	pulse	1	t		74.0	2.5	/experiments/knapen_AOT/AOT_stimuli/rescaled_final/0892_rv.mp4	0.0	348.11015796661377	
76	327.13210701942444	fix_post	2		12	74.0	2.5	/experiments/knapen_AOT/AOT_stimuli/rescaled_final/0892_rv.mp4	0.0	348.2266550064087	0.10000300407409668
77	327.23211002349854	fix_pre	0		120	75.0	2.5	/experiments/knapen_AOT/AOT_stimuli/rescaled_final/0206_rv.mp4	0.0	348.3266580104828	1.0001099109649658
77	328.2322199344635	movie	1		243	75.0	2.5	/experiments/knapen_AOT/AOT_stimuli/rescaled_final/0206_rv.mp4	0.0	349.32676792144775	2.4920530319213867
77	328.619754076004	pulse	1	t		75.0	2.5	/experiments/knapen_AOT/AOT_stimuli/rescaled_final/0206_rv.mp4	0.0	349.7143020629883	
77	330.2160770893097	pulse	1	t		75.0	2.5	/experiments/knapen_AOT/AOT_stimuli/rescaled_final/0206_rv.mp4	0.0	351.31062507629395	
77	330.7242729663849	fix_post	2		12	75.0	2.5	/experiments/knapen_AOT/AOT_stimuli/rescaled_final/0206_rv.mp4	0.0	351.81882095336914	0.10000395774841309
78	330.8242769241333	fix_pre	0		120	76.0	2.5	blank	1.0	351.91882491111755	1.0001351833343506
78	331.8164179325104	pulse	0	t		76.0	2.5	blank	1.0	352.91096591949463	
78	331.82441210746765	movie	1		301	76.0	2.5	blank	1.0	352.9189600944519	2.50874400138855
78	333.41665291786194	pulse	1	t		76.0	2.5	blank	1.0	354.5112009048462	
78	334.3331561088562	fix_post	2		12	76.0	2.5	blank	1.0	355.42770409584045	0.1000819206237793
79	334.43323802948	fix_pre	0		120	77.0	2.5	/experiments/knapen_AOT/AOT_stimuli/rescaled_final/0105_rv.mp4	0.0	355.52778601646423	1.0001330375671387
79	335.0167899131775	pulse	0	t		77.0	2.5	/experiments/knapen_AOT/AOT_stimuli/rescaled_final/0105_rv.mp4	0.0	356.11133790016174	
79	335.4333710670471	movie	1		244	77.0	2.5	/experiments/knapen_AOT/AOT_stimuli/rescaled_final/0105_rv.mp4	0.0	356.5279190540314	2.5002989768981934
79	336.61705708503723	pulse	1	t		77.0	2.5	/experiments/knapen_AOT/AOT_stimuli/rescaled_final/0105_rv.mp4	0.0	357.7116050720215	
79	337.9336700439453	fix_post	2		12	77.0	2.5	/experiments/knapen_AOT/AOT_stimuli/rescaled_final/0105_rv.mp4	0.0	359.02821803092957	0.10000205039978027
80	338.0336720943451	fix_pre	0		120	78.0	2.5	/experiments/knapen_AOT/AOT_stimuli/rescaled_final/1770_fw.mp4	0.0	359.12822008132935	1.00016188621521
80	338.21728897094727	pulse	0	t		78.0	2.5	/experiments/knapen_AOT/AOT_stimuli/rescaled_final/1770_fw.mp4	0.0	359.3118369579315	
80	339.0338339805603	movie	1		243	78.0	2.5	/experiments/knapen_AOT/AOT_stimuli/rescaled_final/1770_fw.mp4	0.0	360.12838196754456	2.500359058380127
80	339.81756711006165	pulse	1	t		78.0	2.5	/experiments/knapen_AOT/AOT_stimuli/rescaled_final/1770_fw.mp4	0.0	360.9121150970459	
80	341.41787791252136	pulse	1	t		78.0	2.5	/experiments/knapen_AOT/AOT_stimuli/rescaled_final/1770_fw.mp4	0.0	362.5124258995056	
80	341.53419303894043	fix_post	2		12	78.0	2.5	/experiments/knapen_AOT/AOT_stimuli/rescaled_final/1770_fw.mp4	0.0	362.6287410259247	0.1000208854675293
81	341.63421392440796	fix_pre	0		120	79.0	2.5	/experiments/knapen_AOT/AOT_stimuli/rescaled_final/1774_fw.mp4	0.0	362.7287619113922	1.0001800060272217
81	342.6343939304352	movie	1		243	79.0	2.5	/experiments/knapen_AOT/AOT_stimuli/rescaled_final/1774_fw.mp4	0.0	363.72894191741943	2.491986036300659
81	343.0193250179291	pulse	1	t		79.0	2.5	/experiments/knapen_AOT/AOT_stimuli/rescaled_final/1774_fw.mp4	0.0	364.11387300491333	
81	344.6182749271393	pulse	1	t		79.0	2.5	/experiments/knapen_AOT/AOT_stimuli/rescaled_final/1774_fw.mp4	0.0	365.71282291412354	
81	345.12637996673584	fix_post	2		12	79.0	2.5	/experiments/knapen_AOT/AOT_stimuli/rescaled_final/1774_fw.mp4	0.0	366.2209279537201	0.10007214546203613
82	345.2264521121979	fix_pre	0		120	80.0	2.5	/experiments/knapen_AOT/AOT_stimuli/rescaled_final/0077_rv.mp4	0.0	366.32100009918213	1.0001280307769775
82	346.2185010910034	pulse	0	t		80.0	2.5	/experiments/knapen_AOT/AOT_stimuli/rescaled_final/0077_rv.mp4	0.0	367.31304907798767	
82	346.22658014297485	movie	1		244	80.0	2.5	/experiments/knapen_AOT/AOT_stimuli/rescaled_final/0077_rv.mp4	0.0	367.3211281299591	2.5086748600006104
82	347.81924700737	pulse	1	t		80.0	2.5	/experiments/knapen_AOT/AOT_stimuli/rescaled_final/0077_rv.mp4	0.0	368.91379499435425	
82	348.73525500297546	fix_post	2		12	80.0	2.5	/experiments/knapen_AOT/AOT_stimuli/rescaled_final/0077_rv.mp4	0.0	369.8298029899597	0.100067138671875
83	348.83532214164734	fix_pre	0		120	81.0	2.5	/experiments/knapen_AOT/AOT_stimuli/rescaled_final/0108_rv.mp4	0.0	369.9298701286316	1.0002079010009766
83	349.4188530445099	pulse	0	t		81.0	2.5	/experiments/knapen_AOT/AOT_stimuli/rescaled_final/0108_rv.mp4	0.0	370.51340103149414	
83	349.8355300426483	movie	1		246	81.0	2.5	/experiments/knapen_AOT/AOT_stimuli/rescaled_final/0108_rv.mp4	0.0	370.93007802963257	2.5002799034118652
83	351.0192849636078	pulse	1	t		81.0	2.5	/experiments/knapen_AOT/AOT_stimuli/rescaled_final/0108_rv.mp4	0.0	372.11383295059204	
83	352.3358099460602	fix_post	2		12	81.0	2.5	/experiments/knapen_AOT/AOT_stimuli/rescaled_final/0108_rv.mp4	0.0	373.43035793304443	0.10002017021179199
84	352.435830116272	fix_pre	0		120	82.0	2.5	/experiments/knapen_AOT/AOT_stimuli/rescaled_final/0990_rv.mp4	0.0	373.5303781032562	1.0001578330993652
84	352.61948704719543	pulse	0	t		82.0	2.5	/experiments/knapen_AOT/AOT_stimuli/rescaled_final/0990_rv.mp4	0.0	373.7140350341797	
84	353.43598794937134	movie	1		243	82.0	2.5	/experiments/knapen_AOT/AOT_stimuli/rescaled_final/0990_rv.mp4	0.0	374.5305359363556	2.5003859996795654
84	354.2196729183197	pulse	1	t		82.0	2.5	/experiments/knapen_AOT/AOT_stimuli/rescaled_final/0990_rv.mp4	0.0	375.31422090530396	
84	355.81996393203735	pulse	1	t		82.0	2.5	/experiments/knapen_AOT/AOT_stimuli/rescaled_final/0990_rv.mp4	0.0	376.9145119190216	
84	355.9363739490509	fix_post	2		12	82.0	2.5	/experiments/knapen_AOT/AOT_stimuli/rescaled_final/0990_rv.mp4	0.0	377.03092193603516	0.10002017021179199
85	356.0363941192627	fix_pre	0		120	83.0	2.5	blank	1.0	377.13094210624695	1.0001978874206543
85	357.03659200668335	movie	1		299	83.0	2.5	blank	1.0	378.1311399936676	2.4919841289520264
85	357.4201509952545	pulse	1	t		83.0	2.5	blank	1.0	378.51469898223877	
85	359.02027702331543	pulse	1	t		83.0	2.5	blank	1.0	380.1148250102997	
85	359.5285761356354	fix_post	2		12	83.0	2.5	blank	1.0	380.62312412261963	0.10001778602600098
87	359.6285939216614	stim	0		1716					380.72314190864563	14.302211999893188
87	360.6206841468811	pulse	0	t						381.71523213386536	
87	362.2208459377289	pulse	0	t						383.31539392471313	
87	363.8137059211731	pulse	0	t						384.90825390815735	
87	365.41397500038147	pulse	0	t						386.5085229873657	
87	367.0142891407013	pulse	0	t						388.10883712768555	
87	368.6144299507141	pulse	0	t						389.70897793769836	
87	370.2146110534668	pulse	0	t						391.30915904045105	
87	371.8138120174408	pulse	0	t						392.90836000442505	
87	373.4141409397125	pulse	0	t						394.5086889266968	
