trial_nr	onset	event_type	phase	response	nr_frames	movie_index	movie_duration	movie_file	blank	onset_abs	duration
0	0.15787982940673828	stim	0		40					20.63077688217163	0.33371400833129883
0	0.48360180854797363	response	0	space						20.956498861312866	
1	0.4915938377380371	stim	0		4701					20.96449089050293	39.17490196228027
1	39.660228967666626	pulse	0	t						60.13312602043152	
1	39.66649580001831	stim	1		1717					60.1393928527832	14.308184146881104
1	41.258261919021606	pulse	1	t						61.7311589717865	
1	42.85832190513611	pulse	1	t						63.331218957901	
1	44.45819282531738	pulse	1	t						64.93108987808228	
1	46.0578248500824	pulse	1	t						66.53072190284729	
1	47.65813493728638	pulse	1	t						68.13103199005127	
1	49.25818085670471	pulse	1	t						69.7310779094696	
1	50.858213901519775	pulse	1	t						71.33111095428467	
1	52.458239793777466	pulse	1	t						72.93113684654236	
2	53.974679946899414	fix_pre	0		11	0.0	2.5	/experiments/AOT/AOT_stimuli/rescaled_final/0602_rv.mp4	0.0	74.4475769996643	0.09166193008422852
2	54.058119773864746	pulse	0	t		0.0	2.5	/experiments/AOT/AOT_stimuli/rescaled_final/0602_rv.mp4	0.0	74.53101682662964	
2	54.06634187698364	movie	1		243	0.0	2.5	/experiments/AOT/AOT_stimuli/rescaled_final/0602_rv.mp4	0.0	74.53923892974854	2.5083909034729004
2	55.65792894363403	pulse	1	t		0.0	2.5	/experiments/AOT/AOT_stimuli/rescaled_final/0602_rv.mp4	0.0	76.13082599639893	
2	56.57473278045654	fix_post	2		12	0.0	2.5	/experiments/AOT/AOT_stimuli/rescaled_final/0602_rv.mp4	0.0	77.04762983322144	0.09990501403808594
3	56.67463779449463	fix_pre	0		120	1.0	2.5	/experiments/AOT/AOT_stimuli/rescaled_final/0820_rv.mp4	0.0	77.14753484725952	1.0000121593475342
3	57.2581307888031	pulse	0	t		1.0	2.5	/experiments/AOT/AOT_stimuli/rescaled_final/0820_rv.mp4	0.0	77.731027841568	
3	57.67464995384216	movie	1		244	1.0	2.5	/experiments/AOT/AOT_stimuli/rescaled_final/0820_rv.mp4	0.0	78.14754700660706	2.500044822692871
3	58.858240842819214	pulse	1	t		1.0	2.5	/experiments/AOT/AOT_stimuli/rescaled_final/0820_rv.mp4	0.0	79.3311378955841	
3	60.174694776535034	fix_post	2		12	1.0	2.5	/experiments/AOT/AOT_stimuli/rescaled_final/0820_rv.mp4	0.0	80.64759182929993	0.10000920295715332
4	60.27470397949219	fix_pre	0		120	2.0	2.5	/experiments/AOT/AOT_stimuli/rescaled_final/1362_rv.mp4	0.0	80.74760103225708	0.9999308586120605
4	60.45821285247803	pulse	0	t		2.0	2.5	/experiments/AOT/AOT_stimuli/rescaled_final/1362_rv.mp4	0.0	80.93110990524292	
4	61.27463483810425	movie	1		243	2.0	2.5	/experiments/AOT/AOT_stimuli/rescaled_final/1362_rv.mp4	0.0	81.74753189086914	2.4996249675750732
4	62.05813193321228	pulse	1	t		2.0	2.5	/experiments/AOT/AOT_stimuli/rescaled_final/1362_rv.mp4	0.0	82.53102898597717	
4	63.656569957733154	pulse	1	t		2.0	2.5	/experiments/AOT/AOT_stimuli/rescaled_final/1362_rv.mp4	0.0	84.12946701049805	
4	63.77425980567932	fix_post	2		12	2.0	2.5	/experiments/AOT/AOT_stimuli/rescaled_final/1362_rv.mp4	0.0	84.24715685844421	0.10042619705200195
5	63.87468600273132	fix_pre	0		120	3.0	2.5	/experiments/AOT/AOT_stimuli/rescaled_final/1044_fw.mp4	0.0	84.34758305549622	0.9999878406524658
5	64.87467384338379	movie	1		245	3.0	2.5	/experiments/AOT/AOT_stimuli/rescaled_final/1044_fw.mp4	0.0	85.34757089614868	2.49995493888855
5	65.2579448223114	pulse	1	t		3.0	2.5	/experiments/AOT/AOT_stimuli/rescaled_final/1044_fw.mp4	0.0	85.7308418750763	
5	66.85811877250671	pulse	1	t		3.0	2.5	/experiments/AOT/AOT_stimuli/rescaled_final/1044_fw.mp4	0.0	87.3310158252716	
5	67.37462878227234	fix_post	2		12	3.0	2.5	/experiments/AOT/AOT_stimuli/rescaled_final/1044_fw.mp4	0.0	87.84752583503723	0.10002708435058594
6	67.47465586662292	fix_pre	0		119	4.0	2.5	/experiments/AOT/AOT_stimuli/rescaled_final/0706_fw.mp4	0.0	87.94755291938782	0.9917049407958984
6	68.45813083648682	pulse	0	t		4.0	2.5	/experiments/AOT/AOT_stimuli/rescaled_final/0706_fw.mp4	0.0	88.93102788925171	
6	68.46636080741882	movie	1		246	4.0	2.5	/experiments/AOT/AOT_stimuli/rescaled_final/0706_fw.mp4	0.0	88.93925786018372	2.5082271099090576
6	70.05792188644409	pulse	1	t		4.0	2.5	/experiments/AOT/AOT_stimuli/rescaled_final/0706_fw.mp4	0.0	90.53081893920898	
6	70.97458791732788	fix_post	2		12	4.0	2.5	/experiments/AOT/AOT_stimuli/rescaled_final/0706_fw.mp4	0.0	91.44748497009277	0.09995508193969727
7	71.07454299926758	fix_pre	0		120	5.0	2.5	/experiments/AOT/AOT_stimuli/rescaled_final/0097_fw.mp4	0.0	91.54744005203247	1.0001029968261719
7	71.65939378738403	pulse	0	t		5.0	2.5	/experiments/AOT/AOT_stimuli/rescaled_final/0097_fw.mp4	0.0	92.13229084014893	
7	72.07464599609375	movie	1		246	5.0	2.5	/experiments/AOT/AOT_stimuli/rescaled_final/0097_fw.mp4	0.0	92.54754304885864	2.4994959831237793
7	73.25819778442383	pulse	1	t		5.0	2.5	/experiments/AOT/AOT_stimuli/rescaled_final/0097_fw.mp4	0.0	93.73109483718872	
7	74.57414197921753	fix_post	2		12	5.0	2.5	/experiments/AOT/AOT_stimuli/rescaled_final/0097_fw.mp4	0.0	95.04703903198242	0.1000368595123291
8	74.67417883872986	fix_pre	0		120	6.0	2.5	blank	1.0	95.14707589149475	1.0003960132598877
8	74.85812187194824	pulse	0	t		6.0	2.5	blank	1.0	95.33101892471313	
8	75.67457485198975	movie	1		300	6.0	2.5	blank	1.0	96.14747190475464	2.499990940093994
8	76.45814085006714	pulse	1	t		6.0	2.5	blank	1.0	96.93103790283203	
8	78.05808687210083	pulse	1	t		6.0	2.5	blank	1.0	98.53098392486572	
8	78.17456579208374	fix_post	2		12	6.0	2.5	blank	1.0	98.64746284484863	0.10003113746643066
9	78.27459692955017	fix_pre	0		120	7.0	2.5	/experiments/AOT/AOT_stimuli/rescaled_final/1215_fw.mp4	0.0	98.74749398231506	0.9999818801879883
9	79.27457880973816	movie	1		245	7.0	2.5	/experiments/AOT/AOT_stimuli/rescaled_final/1215_fw.mp4	0.0	99.74747586250305	2.49997615814209
9	79.65751600265503	pulse	1	t		7.0	2.5	/experiments/AOT/AOT_stimuli/rescaled_final/1215_fw.mp4	0.0	100.13041305541992	
9	81.25806498527527	pulse	1	t		7.0	2.5	/experiments/AOT/AOT_stimuli/rescaled_final/1215_fw.mp4	0.0	101.73096203804016	
9	81.77455496788025	fix_post	2		12	7.0	2.5	/experiments/AOT/AOT_stimuli/rescaled_final/1215_fw.mp4	0.0	102.24745202064514	0.09996891021728516
10	81.87452387809753	fix_pre	0		119	8.0	2.5	/experiments/AOT/AOT_stimuli/rescaled_final/1061_fw.mp4	0.0	102.34742093086243	0.9916529655456543
10	82.85809087753296	pulse	0	t		8.0	2.5	/experiments/AOT/AOT_stimuli/rescaled_final/1061_fw.mp4	0.0	103.33098793029785	
10	82.86617684364319	movie	1		246	8.0	2.5	/experiments/AOT/AOT_stimuli/rescaled_final/1061_fw.mp4	0.0	103.33907389640808	2.5079081058502197
10	84.45743489265442	pulse	1	t		8.0	2.5	/experiments/AOT/AOT_stimuli/rescaled_final/1061_fw.mp4	0.0	104.93033194541931	
10	85.37408494949341	fix_post	2		12	8.0	2.5	/experiments/AOT/AOT_stimuli/rescaled_final/1061_fw.mp4	0.0	105.8469820022583	0.10044193267822266
11	85.47452688217163	fix_pre	0		120	9.0	2.5	/experiments/AOT/AOT_stimuli/rescaled_final/1459_rv.mp4	0.0	105.94742393493652	1.000006914138794
11	86.05799698829651	pulse	0	t		9.0	2.5	/experiments/AOT/AOT_stimuli/rescaled_final/1459_rv.mp4	0.0	106.5308940410614	
11	86.47453379631042	movie	1		246	9.0	2.5	/experiments/AOT/AOT_stimuli/rescaled_final/1459_rv.mp4	0.0	106.94743084907532	2.499566078186035
11	87.65808987617493	pulse	1	t		9.0	2.5	/experiments/AOT/AOT_stimuli/rescaled_final/1459_rv.mp4	0.0	108.13098692893982	
11	88.97409987449646	fix_post	2		12	9.0	2.5	/experiments/AOT/AOT_stimuli/rescaled_final/1459_rv.mp4	0.0	109.44699692726135	0.10036897659301758
12	89.07446885108948	fix_pre	0		120	10.0	2.5	/experiments/AOT/AOT_stimuli/rescaled_final/0578_rv.mp4	0.0	109.54736590385437	1.0000500679016113
12	89.25808000564575	pulse	0	t		10.0	2.5	/experiments/AOT/AOT_stimuli/rescaled_final/0578_rv.mp4	0.0	109.73097705841064	
12	90.07451891899109	movie	1		242	10.0	2.5	/experiments/AOT/AOT_stimuli/rescaled_final/0578_rv.mp4	0.0	110.54741597175598	2.500019073486328
12	90.858069896698	pulse	1	t		10.0	2.5	/experiments/AOT/AOT_stimuli/rescaled_final/0578_rv.mp4	0.0	111.33096694946289	
12	92.45650887489319	pulse	1	t		10.0	2.5	/experiments/AOT/AOT_stimuli/rescaled_final/0578_rv.mp4	0.0	112.92940592765808	
12	92.57453799247742	fix_post	2		12	10.0	2.5	/experiments/AOT/AOT_stimuli/rescaled_final/0578_rv.mp4	0.0	113.04743504524231	0.09993481636047363
13	92.67447280883789	fix_pre	0		120	11.0	2.5	/experiments/AOT/AOT_stimuli/rescaled_final/2128_rv.mp4	0.0	113.14736986160278	0.9999229907989502
13	93.67439579963684	movie	1		246	11.0	2.5	/experiments/AOT/AOT_stimuli/rescaled_final/2128_rv.mp4	0.0	114.14729285240173	2.5001461505889893
13	94.05888986587524	pulse	1	t		11.0	2.5	/experiments/AOT/AOT_stimuli/rescaled_final/2128_rv.mp4	0.0	114.53178691864014	
13	95.65798592567444	pulse	1	t		11.0	2.5	/experiments/AOT/AOT_stimuli/rescaled_final/2128_rv.mp4	0.0	116.13088297843933	
13	96.17454195022583	fix_post	2		12	11.0	2.5	/experiments/AOT/AOT_stimuli/rescaled_final/2128_rv.mp4	0.0	116.64743900299072	0.09991884231567383
14	96.2744607925415	fix_pre	0		119	12.0	2.5	/experiments/AOT/AOT_stimuli/rescaled_final/0188_fw.mp4	0.0	116.7473578453064	0.9917590618133545
14	97.25812697410583	pulse	0	t		12.0	2.5	/experiments/AOT/AOT_stimuli/rescaled_final/0188_fw.mp4	0.0	117.73102402687073	
14	97.26621985435486	movie	1		245	12.0	2.5	/experiments/AOT/AOT_stimuli/rescaled_final/0188_fw.mp4	0.0	117.73911690711975	2.5077970027923584
14	98.85807490348816	pulse	1	t		12.0	2.5	/experiments/AOT/AOT_stimuli/rescaled_final/0188_fw.mp4	0.0	119.33097195625305	
14	99.77401685714722	fix_post	2		12	12.0	2.5	/experiments/AOT/AOT_stimuli/rescaled_final/0188_fw.mp4	0.0	120.24691390991211	0.1004641056060791
15	99.8744809627533	fix_pre	0		120	13.0	2.5	blank	1.0	120.34737801551819	1.0000770092010498
15	100.4580008983612	pulse	0	t		13.0	2.5	blank	1.0	120.9308979511261	
15	100.87455797195435	movie	1		300	13.0	2.5	blank	1.0	121.34745502471924	2.5000720024108887
15	102.0575909614563	pulse	1	t		13.0	2.5	blank	1.0	122.53048801422119	
15	103.37462997436523	fix_post	2		12	13.0	2.5	blank	1.0	123.84752702713013	0.10004591941833496
16	103.47467589378357	fix_pre	0		120	14.0	2.5	/experiments/AOT/AOT_stimuli/rescaled_final/2096_fw.mp4	0.0	123.94757294654846	1.0001471042633057
16	103.65818881988525	pulse	0	t		14.0	2.5	/experiments/AOT/AOT_stimuli/rescaled_final/2096_fw.mp4	0.0	124.13108587265015	
16	104.47482299804688	movie	1		246	14.0	2.5	/experiments/AOT/AOT_stimuli/rescaled_final/2096_fw.mp4	0.0	124.94772005081177	2.4991819858551025
16	105.2579448223114	pulse	1	t		14.0	2.5	/experiments/AOT/AOT_stimuli/rescaled_final/2096_fw.mp4	0.0	125.7308418750763	
16	106.85652184486389	pulse	1	t		14.0	2.5	/experiments/AOT/AOT_stimuli/rescaled_final/2096_fw.mp4	0.0	127.32941889762878	
16	106.97400498390198	fix_post	2		12	14.0	2.5	/experiments/AOT/AOT_stimuli/rescaled_final/2096_fw.mp4	0.0	127.44690203666687	0.1004798412322998
17	107.07448482513428	fix_pre	0		120	15.0	2.5	/experiments/AOT/AOT_stimuli/rescaled_final/1316_rv.mp4	0.0	127.54738187789917	1.000014066696167
17	108.07449889183044	movie	1		246	15.0	2.5	/experiments/AOT/AOT_stimuli/rescaled_final/1316_rv.mp4	0.0	128.54739594459534	2.4998979568481445
17	108.45784282684326	pulse	1	t		15.0	2.5	/experiments/AOT/AOT_stimuli/rescaled_final/1316_rv.mp4	0.0	128.93073987960815	
17	110.05784583091736	pulse	1	t		15.0	2.5	/experiments/AOT/AOT_stimuli/rescaled_final/1316_rv.mp4	0.0	130.53074288368225	
17	110.57439684867859	fix_post	2		12	15.0	2.5	/experiments/AOT/AOT_stimuli/rescaled_final/1316_rv.mp4	0.0	131.04729390144348	0.1000051498413086
18	110.6744019985199	fix_pre	0		119	16.0	2.5	/experiments/AOT/AOT_stimuli/rescaled_final/1467_fw.mp4	0.0	131.1472990512848	0.9916689395904541
18	111.65782880783081	pulse	0	t		16.0	2.5	/experiments/AOT/AOT_stimuli/rescaled_final/1467_fw.mp4	0.0	132.1307258605957	
18	111.66607093811035	movie	1		246	16.0	2.5	/experiments/AOT/AOT_stimuli/rescaled_final/1467_fw.mp4	0.0	132.13896799087524	2.5083799362182617
18	113.25763297080994	pulse	1	t		16.0	2.5	/experiments/AOT/AOT_stimuli/rescaled_final/1467_fw.mp4	0.0	133.73053002357483	
18	114.17445087432861	fix_post	2		12	16.0	2.5	/experiments/AOT/AOT_stimuli/rescaled_final/1467_fw.mp4	0.0	134.6473479270935	0.09992599487304688
19	114.27437686920166	fix_pre	0		120	17.0	2.5	/experiments/AOT/AOT_stimuli/rescaled_final/0530_fw.mp4	0.0	134.74727392196655	1.0000641345977783
19	114.85782480239868	pulse	0	t		17.0	2.5	/experiments/AOT/AOT_stimuli/rescaled_final/0530_fw.mp4	0.0	135.33072185516357	
19	115.27444100379944	movie	1		245	17.0	2.5	/experiments/AOT/AOT_stimuli/rescaled_final/0530_fw.mp4	0.0	135.74733805656433	2.4995179176330566
19	116.45791482925415	pulse	1	t		17.0	2.5	/experiments/AOT/AOT_stimuli/rescaled_final/0530_fw.mp4	0.0	136.93081188201904	
19	117.7739589214325	fix_post	2		12	17.0	2.5	/experiments/AOT/AOT_stimuli/rescaled_final/0530_fw.mp4	0.0	138.2468559741974	0.10043907165527344
20	117.87439799308777	fix_pre	0		120	18.0	2.5	/experiments/AOT/AOT_stimuli/rescaled_final/1886_fw.mp4	0.0	138.34729504585266	0.9999608993530273
20	118.05783987045288	pulse	0	t		18.0	2.5	/experiments/AOT/AOT_stimuli/rescaled_final/1886_fw.mp4	0.0	138.53073692321777	
20	118.8743588924408	movie	1		243	18.0	2.5	/experiments/AOT/AOT_stimuli/rescaled_final/1886_fw.mp4	0.0	139.3472559452057	2.4999680519104004
20	119.6580798625946	pulse	1	t		18.0	2.5	/experiments/AOT/AOT_stimuli/rescaled_final/1886_fw.mp4	0.0	140.1309769153595	
20	121.25620484352112	pulse	1	t		18.0	2.5	/experiments/AOT/AOT_stimuli/rescaled_final/1886_fw.mp4	0.0	141.729101896286	
20	121.3743269443512	fix_post	2		12	18.0	2.5	/experiments/AOT/AOT_stimuli/rescaled_final/1886_fw.mp4	0.0	141.8472239971161	0.10006189346313477
21	121.47438883781433	fix_pre	0		120	19.0	2.5	/experiments/AOT/AOT_stimuli/rescaled_final/0239_fw.mp4	0.0	141.94728589057922	0.9999830722808838
21	122.47437191009521	movie	1		244	19.0	2.5	/experiments/AOT/AOT_stimuli/rescaled_final/0239_fw.mp4	0.0	142.9472689628601	2.499640941619873
21	122.858815908432	pulse	1	t		19.0	2.5	/experiments/AOT/AOT_stimuli/rescaled_final/0239_fw.mp4	0.0	143.3317129611969	
21	124.45782494544983	pulse	1	t		19.0	2.5	/experiments/AOT/AOT_stimuli/rescaled_final/0239_fw.mp4	0.0	144.93072199821472	
21	124.97401285171509	fix_post	2		12	19.0	2.5	/experiments/AOT/AOT_stimuli/rescaled_final/0239_fw.mp4	0.0	145.44690990447998	0.10029196739196777
22	125.07430481910706	fix_pre	0		119	20.0	2.5	blank	1.0	145.54720187187195	0.9917030334472656
22	126.05779600143433	pulse	0	t		20.0	2.5	blank	1.0	146.53069305419922	
22	126.06600785255432	movie	1		301	20.0	2.5	blank	1.0	146.5389049053192	2.5082859992980957
22	127.65789198875427	pulse	1	t		20.0	2.5	blank	1.0	148.13078904151917	
22	128.57429385185242	fix_post	2		12	20.0	2.5	blank	1.0	149.0471909046173	0.100006103515625
23	128.67429995536804	fix_pre	0		120	21.0	2.5	/experiments/AOT/AOT_stimuli/rescaled_final/1408_rv.mp4	0.0	149.14719700813293	0.9999959468841553
23	129.25787997245789	pulse	0	t		21.0	2.5	/experiments/AOT/AOT_stimuli/rescaled_final/1408_rv.mp4	0.0	149.73077702522278	
23	129.6742959022522	movie	1		244	21.0	2.5	/experiments/AOT/AOT_stimuli/rescaled_final/1408_rv.mp4	0.0	150.1471929550171	2.500066041946411
23	130.85791277885437	pulse	1	t		21.0	2.5	/experiments/AOT/AOT_stimuli/rescaled_final/1408_rv.mp4	0.0	151.33080983161926	
23	132.1743619441986	fix_post	2		12	21.0	2.5	/experiments/AOT/AOT_stimuli/rescaled_final/1408_rv.mp4	0.0	152.6472589969635	0.09991192817687988
24	132.2742738723755	fix_pre	0		120	22.0	2.5	/experiments/AOT/AOT_stimuli/rescaled_final/1345_rv.mp4	0.0	152.74717092514038	0.999967098236084
24	132.4578218460083	pulse	0	t		22.0	2.5	/experiments/AOT/AOT_stimuli/rescaled_final/1345_rv.mp4	0.0	152.9307188987732	
24	133.27424097061157	movie	1		243	22.0	2.5	/experiments/AOT/AOT_stimuli/rescaled_final/1345_rv.mp4	0.0	153.74713802337646	2.5000619888305664
24	134.05775785446167	pulse	1	t		22.0	2.5	/experiments/AOT/AOT_stimuli/rescaled_final/1345_rv.mp4	0.0	154.53065490722656	
24	135.65603685379028	pulse	1	t		22.0	2.5	/experiments/AOT/AOT_stimuli/rescaled_final/1345_rv.mp4	0.0	156.12893390655518	
24	135.77430295944214	fix_post	2		12	22.0	2.5	/experiments/AOT/AOT_stimuli/rescaled_final/1345_rv.mp4	0.0	156.24720001220703	0.09990382194519043
25	135.87420678138733	fix_pre	0		120	23.0	2.5	/experiments/AOT/AOT_stimuli/rescaled_final/0166_rv.mp4	0.0	156.34710383415222	1.0000932216644287
25	136.87430000305176	movie	1		244	23.0	2.5	/experiments/AOT/AOT_stimuli/rescaled_final/0166_rv.mp4	0.0	157.34719705581665	2.4999139308929443
25	137.25764679908752	pulse	1	t		23.0	2.5	/experiments/AOT/AOT_stimuli/rescaled_final/0166_rv.mp4	0.0	157.73054385185242	
25	138.85780477523804	pulse	1	t		23.0	2.5	/experiments/AOT/AOT_stimuli/rescaled_final/0166_rv.mp4	0.0	159.33070182800293	
25	139.3742139339447	fix_post	2		12	23.0	2.5	/experiments/AOT/AOT_stimuli/rescaled_final/0166_rv.mp4	0.0	159.8471109867096	0.10011005401611328
26	139.47432398796082	fix_pre	0		119	24.0	2.5	/experiments/AOT/AOT_stimuli/rescaled_final/1178_rv.mp4	0.0	159.9472210407257	0.9916458129882812
26	140.45775699615479	pulse	0	t		24.0	2.5	/experiments/AOT/AOT_stimuli/rescaled_final/1178_rv.mp4	0.0	160.93065404891968	
26	140.4659698009491	movie	1		244	24.0	2.5	/experiments/AOT/AOT_stimuli/rescaled_final/1178_rv.mp4	0.0	160.938866853714	2.508261203765869
26	142.05757093429565	pulse	1	t		24.0	2.5	/experiments/AOT/AOT_stimuli/rescaled_final/1178_rv.mp4	0.0	162.53046798706055	
26	142.97423100471497	fix_post	2		12	24.0	2.5	/experiments/AOT/AOT_stimuli/rescaled_final/1178_rv.mp4	0.0	163.44712805747986	0.10001778602600098
27	143.07424879074097	fix_pre	0		120	25.0	2.5	/experiments/AOT/AOT_stimuli/rescaled_final/1207_rv.mp4	0.0	163.54714584350586	1.000040054321289
27	143.65774297714233	pulse	0	t		25.0	2.5	/experiments/AOT/AOT_stimuli/rescaled_final/1207_rv.mp4	0.0	164.13064002990723	
27	144.07428884506226	movie	1		243	25.0	2.5	/experiments/AOT/AOT_stimuli/rescaled_final/1207_rv.mp4	0.0	164.54718589782715	2.4999871253967285
27	145.25779581069946	pulse	1	t		25.0	2.5	/experiments/AOT/AOT_stimuli/rescaled_final/1207_rv.mp4	0.0	165.73069286346436	
27	146.57427597045898	fix_post	2		12	25.0	2.5	/experiments/AOT/AOT_stimuli/rescaled_final/1207_rv.mp4	0.0	167.04717302322388	0.09991097450256348
28	146.67418694496155	fix_pre	0		120	26.0	2.5	blank	1.0	167.14708399772644	0.999802827835083
28	146.85770297050476	pulse	0	t		26.0	2.5	blank	1.0	167.33060002326965	
28	147.67398977279663	movie	1		300	26.0	2.5	blank	1.0	168.14688682556152	2.5003111362457275
28	148.45778489112854	pulse	1	t		26.0	2.5	blank	1.0	168.93068194389343	
28	150.0577118396759	pulse	1	t		26.0	2.5	blank	1.0	170.5306088924408	
28	150.17430090904236	fix_post	2		12	26.0	2.5	blank	1.0	170.64719796180725	0.09998607635498047
29	150.27428698539734	fix_pre	0		120	27.0	2.5	/experiments/AOT/AOT_stimuli/rescaled_final/0438_fw.mp4	0.0	170.74718403816223	0.9999699592590332
29	151.27425694465637	movie	1		244	27.0	2.5	/experiments/AOT/AOT_stimuli/rescaled_final/0438_fw.mp4	0.0	171.74715399742126	2.4999468326568604
29	151.65740299224854	pulse	1	t		27.0	2.5	/experiments/AOT/AOT_stimuli/rescaled_final/0438_fw.mp4	0.0	172.13030004501343	
29	153.25775480270386	pulse	1	t		27.0	2.5	/experiments/AOT/AOT_stimuli/rescaled_final/0438_fw.mp4	0.0	173.73065185546875	
29	153.77420377731323	fix_post	2		12	27.0	2.5	/experiments/AOT/AOT_stimuli/rescaled_final/0438_fw.mp4	0.0	174.24710083007812	0.09998202323913574
30	153.87418580055237	fix_pre	0		119	28.0	2.5	/experiments/AOT/AOT_stimuli/rescaled_final/1504_fw.mp4	0.0	174.34708285331726	0.9916601181030273
30	154.85778999328613	pulse	0	t		28.0	2.5	/experiments/AOT/AOT_stimuli/rescaled_final/1504_fw.mp4	0.0	175.33068704605103	
30	154.8658459186554	movie	1		247	28.0	2.5	/experiments/AOT/AOT_stimuli/rescaled_final/1504_fw.mp4	0.0	175.3387429714203	2.508007049560547
30	156.45741081237793	pulse	1	t		28.0	2.5	/experiments/AOT/AOT_stimuli/rescaled_final/1504_fw.mp4	0.0	176.93030786514282	
30	157.37385296821594	fix_post	2		12	28.0	2.5	/experiments/AOT/AOT_stimuli/rescaled_final/1504_fw.mp4	0.0	177.84675002098083	0.09997296333312988
31	157.47382593154907	fix_pre	0		120	29.0	2.5	/experiments/AOT/AOT_stimuli/rescaled_final/1647_fw.mp4	0.0	177.94672298431396	1.0004310607910156
31	158.05739378929138	pulse	0	t		29.0	2.5	/experiments/AOT/AOT_stimuli/rescaled_final/1647_fw.mp4	0.0	178.53029084205627	
31	158.4742569923401	movie	1		243	29.0	2.5	/experiments/AOT/AOT_stimuli/rescaled_final/1647_fw.mp4	0.0	178.94715404510498	2.499952793121338
31	159.6576008796692	pulse	1	t		29.0	2.5	/experiments/AOT/AOT_stimuli/rescaled_final/1647_fw.mp4	0.0	180.13049793243408	
31	160.97420978546143	fix_post	2		12	29.0	2.5	/experiments/AOT/AOT_stimuli/rescaled_final/1647_fw.mp4	0.0	181.44710683822632	0.1000220775604248
32	161.07423186302185	fix_pre	0		120	30.0	2.5	/experiments/AOT/AOT_stimuli/rescaled_final/1201_fw.mp4	0.0	181.54712891578674	0.9995520114898682
32	161.2577419281006	pulse	0	t		30.0	2.5	/experiments/AOT/AOT_stimuli/rescaled_final/1201_fw.mp4	0.0	181.73063898086548	
32	162.07378387451172	movie	1		244	30.0	2.5	/experiments/AOT/AOT_stimuli/rescaled_final/1201_fw.mp4	0.0	182.5466809272766	2.499979019165039
32	162.85762977600098	pulse	1	t		30.0	2.5	/experiments/AOT/AOT_stimuli/rescaled_final/1201_fw.mp4	0.0	183.33052682876587	
32	164.4563229084015	pulse	1	t		30.0	2.5	/experiments/AOT/AOT_stimuli/rescaled_final/1201_fw.mp4	0.0	184.92921996116638	
32	164.57376289367676	fix_post	2		12	30.0	2.5	/experiments/AOT/AOT_stimuli/rescaled_final/1201_fw.mp4	0.0	185.04665994644165	0.09995293617248535
33	164.67371582984924	fix_pre	0		120	31.0	2.5	/experiments/AOT/AOT_stimuli/rescaled_final/1916_fw.mp4	0.0	185.14661288261414	1.0004379749298096
33	165.67415380477905	movie	1		244	31.0	2.5	/experiments/AOT/AOT_stimuli/rescaled_final/1916_fw.mp4	0.0	186.14705085754395	2.499927043914795
33	166.05691480636597	pulse	1	t		31.0	2.5	/experiments/AOT/AOT_stimuli/rescaled_final/1916_fw.mp4	0.0	186.52981185913086	
33	167.65758085250854	pulse	1	t		31.0	2.5	/experiments/AOT/AOT_stimuli/rescaled_final/1916_fw.mp4	0.0	188.13047790527344	
33	168.17408084869385	fix_post	2		12	31.0	2.5	/experiments/AOT/AOT_stimuli/rescaled_final/1916_fw.mp4	0.0	188.64697790145874	0.10004615783691406
34	168.27412700653076	fix_pre	0		119	32.0	2.5	/experiments/AOT/AOT_stimuli/rescaled_final/0391_fw.mp4	0.0	188.74702405929565	0.9916679859161377
34	169.2576048374176	pulse	0	t		32.0	2.5	/experiments/AOT/AOT_stimuli/rescaled_final/0391_fw.mp4	0.0	189.7305018901825	
34	169.2657949924469	movie	1		245	32.0	2.5	/experiments/AOT/AOT_stimuli/rescaled_final/0391_fw.mp4	0.0	189.7386920452118	2.5083069801330566
34	170.85708093643188	pulse	1	t		32.0	2.5	/experiments/AOT/AOT_stimuli/rescaled_final/0391_fw.mp4	0.0	191.32997798919678	
34	171.77410197257996	fix_post	2		12	32.0	2.5	/experiments/AOT/AOT_stimuli/rescaled_final/0391_fw.mp4	0.0	192.24699902534485	0.10000991821289062
35	171.87411189079285	fix_pre	0		120	33.0	2.5	/experiments/AOT/AOT_stimuli/rescaled_final/2058_rv.mp4	0.0	192.34700894355774	1.000046968460083
35	172.45761895179749	pulse	0	t		33.0	2.5	/experiments/AOT/AOT_stimuli/rescaled_final/2058_rv.mp4	0.0	192.93051600456238	
35	172.87415885925293	movie	1		245	33.0	2.5	/experiments/AOT/AOT_stimuli/rescaled_final/2058_rv.mp4	0.0	193.34705591201782	2.500011920928955
35	174.05765390396118	pulse	1	t		33.0	2.5	/experiments/AOT/AOT_stimuli/rescaled_final/2058_rv.mp4	0.0	194.53055095672607	
35	175.37417078018188	fix_post	2		12	33.0	2.5	/experiments/AOT/AOT_stimuli/rescaled_final/2058_rv.mp4	0.0	195.84706783294678	0.09995913505554199
36	175.47412991523743	fix_pre	0		120	34.0	2.5	blank	1.0	195.94702696800232	1.0000848770141602
36	175.6576337814331	pulse	0	t		34.0	2.5	blank	1.0	196.130530834198	
36	176.4742147922516	movie	1		300	34.0	2.5	blank	1.0	196.94711184501648	2.499955177307129
36	177.25756096839905	pulse	1	t		34.0	2.5	blank	1.0	197.73045802116394	
36	178.85759377479553	pulse	1	t		34.0	2.5	blank	1.0	199.33049082756042	
36	178.97416996955872	fix_post	2		12	34.0	2.5	blank	1.0	199.4470670223236	0.09984493255615234
37	179.07401490211487	fix_pre	0		120	35.0	2.5	/experiments/AOT/AOT_stimuli/rescaled_final/0819_fw.mp4	0.0	199.54691195487976	1.000114917755127
37	180.07412981987	movie	1		243	35.0	2.5	/experiments/AOT/AOT_stimuli/rescaled_final/0819_fw.mp4	0.0	200.5470268726349	2.4999871253967285
37	180.45773482322693	pulse	1	t		35.0	2.5	/experiments/AOT/AOT_stimuli/rescaled_final/0819_fw.mp4	0.0	200.93063187599182	
37	182.05758786201477	pulse	1	t		35.0	2.5	/experiments/AOT/AOT_stimuli/rescaled_final/0819_fw.mp4	0.0	202.53048491477966	
37	182.57411694526672	fix_post	2		12	35.0	2.5	/experiments/AOT/AOT_stimuli/rescaled_final/0819_fw.mp4	0.0	203.04701399803162	0.10004591941833496
38	182.67416286468506	fix_pre	0		119	36.0	2.5	/experiments/AOT/AOT_stimuli/rescaled_final/1201_fw.mp4	0.0	203.14705991744995	0.9915900230407715
38	183.65751194953918	pulse	0	t		36.0	2.5	/experiments/AOT/AOT_stimuli/rescaled_final/1201_fw.mp4	0.0	204.13040900230408	
38	183.66575288772583	movie	1		245	36.0	2.5	/experiments/AOT/AOT_stimuli/rescaled_final/1201_fw.mp4	0.0	204.13864994049072	2.508378028869629
38	185.25687384605408	pulse	1	t		36.0	2.5	/experiments/AOT/AOT_stimuli/rescaled_final/1201_fw.mp4	0.0	205.72977089881897	
38	186.17413091659546	fix_post	2		12	36.0	2.5	/experiments/AOT/AOT_stimuli/rescaled_final/1201_fw.mp4	0.0	206.64702796936035	0.09993600845336914
39	186.27406692504883	fix_pre	0		120	37.0	2.5	/experiments/AOT/AOT_stimuli/rescaled_final/1700_fw.mp4	0.0	206.74696397781372	1.0000500679016113
39	186.85756397247314	pulse	0	t		37.0	2.5	/experiments/AOT/AOT_stimuli/rescaled_final/1700_fw.mp4	0.0	207.33046102523804	
39	187.27411699295044	movie	1		243	37.0	2.5	/experiments/AOT/AOT_stimuli/rescaled_final/1700_fw.mp4	0.0	207.74701404571533	2.4998679161071777
39	188.4576427936554	pulse	1	t		37.0	2.5	/experiments/AOT/AOT_stimuli/rescaled_final/1700_fw.mp4	0.0	208.9305398464203	
39	189.77398490905762	fix_post	2		12	37.0	2.5	/experiments/AOT/AOT_stimuli/rescaled_final/1700_fw.mp4	0.0	210.2468819618225	0.10002708435058594
40	189.8740119934082	fix_pre	0		120	38.0	2.5	/experiments/AOT/AOT_stimuli/rescaled_final/0152_fw.mp4	0.0	210.3469090461731	0.9995629787445068
40	190.05750489234924	pulse	0	t		38.0	2.5	/experiments/AOT/AOT_stimuli/rescaled_final/0152_fw.mp4	0.0	210.53040194511414	
40	190.8735749721527	movie	1		242	38.0	2.5	/experiments/AOT/AOT_stimuli/rescaled_final/0152_fw.mp4	0.0	211.3464720249176	2.5004968643188477
40	191.65753293037415	pulse	1	t		38.0	2.5	/experiments/AOT/AOT_stimuli/rescaled_final/0152_fw.mp4	0.0	212.13042998313904	
40	193.2559609413147	pulse	1	t		38.0	2.5	/experiments/AOT/AOT_stimuli/rescaled_final/0152_fw.mp4	0.0	213.7288579940796	
40	193.37407183647156	fix_post	2		12	38.0	2.5	/experiments/AOT/AOT_stimuli/rescaled_final/0152_fw.mp4	0.0	213.84696888923645	0.09994101524353027
41	193.4740128517151	fix_pre	0		120	39.0	2.5	/experiments/AOT/AOT_stimuli/rescaled_final/1093_fw.mp4	0.0	213.94690990447998	1.0000300407409668
41	194.47404289245605	movie	1		247	39.0	2.5	/experiments/AOT/AOT_stimuli/rescaled_final/1093_fw.mp4	0.0	214.94693994522095	2.499530076980591
41	194.85714292526245	pulse	1	t		39.0	2.5	/experiments/AOT/AOT_stimuli/rescaled_final/1093_fw.mp4	0.0	215.33003997802734	
41	196.4575159549713	pulse	1	t		39.0	2.5	/experiments/AOT/AOT_stimuli/rescaled_final/1093_fw.mp4	0.0	216.9304130077362	
41	196.97357296943665	fix_post	2		12	39.0	2.5	/experiments/AOT/AOT_stimuli/rescaled_final/1093_fw.mp4	0.0	217.44647002220154	0.10006499290466309
42	197.0736379623413	fix_pre	0		119	40.0	2.5	/experiments/AOT/AOT_stimuli/rescaled_final/0175_fw.mp4	0.0	217.5465350151062	0.991940975189209
42	198.05753588676453	pulse	0	t		40.0	2.5	/experiments/AOT/AOT_stimuli/rescaled_final/0175_fw.mp4	0.0	218.53043293952942	
42	198.06557893753052	movie	1		247	40.0	2.5	/experiments/AOT/AOT_stimuli/rescaled_final/0175_fw.mp4	0.0	218.5384759902954	2.508357048034668
42	199.65717196464539	pulse	1	t		40.0	2.5	/experiments/AOT/AOT_stimuli/rescaled_final/0175_fw.mp4	0.0	220.13006901741028	
42	200.57393598556519	fix_post	2		12	40.0	2.5	/experiments/AOT/AOT_stimuli/rescaled_final/0175_fw.mp4	0.0	221.04683303833008	0.10009193420410156
43	200.6740279197693	fix_pre	0		120	41.0	2.5	blank	1.0	221.14692497253418	0.9995288848876953
43	201.2575089931488	pulse	0	t		41.0	2.5	blank	1.0	221.7304060459137	
43	201.67355680465698	movie	1		300	41.0	2.5	blank	1.0	222.14645385742188	2.5004470348358154
43	202.85751795768738	pulse	1	t		41.0	2.5	blank	1.0	223.33041501045227	
43	204.1740038394928	fix_post	2		12	41.0	2.5	blank	1.0	224.6469008922577	0.09991598129272461
44	204.27391982078552	fix_pre	0		120	42.0	2.5	/experiments/AOT/AOT_stimuli/rescaled_final/0126_fw.mp4	0.0	224.74681687355042	1.0000581741333008
44	204.45761489868164	pulse	0	t		42.0	2.5	/experiments/AOT/AOT_stimuli/rescaled_final/0126_fw.mp4	0.0	224.93051195144653	
44	205.27397799491882	movie	1		243	42.0	2.5	/experiments/AOT/AOT_stimuli/rescaled_final/0126_fw.mp4	0.0	225.74687504768372	2.499558925628662
44	206.05744194984436	pulse	1	t		42.0	2.5	/experiments/AOT/AOT_stimuli/rescaled_final/0126_fw.mp4	0.0	226.53033900260925	
44	207.65605878829956	pulse	1	t		42.0	2.5	/experiments/AOT/AOT_stimuli/rescaled_final/0126_fw.mp4	0.0	228.12895584106445	
44	207.77353692054749	fix_post	2		12	42.0	2.5	/experiments/AOT/AOT_stimuli/rescaled_final/0126_fw.mp4	0.0	228.24643397331238	0.10047388076782227
45	207.8740108013153	fix_pre	0		120	43.0	2.5	/experiments/AOT/AOT_stimuli/rescaled_final/2003_rv.mp4	0.0	228.3469078540802	0.9999661445617676
45	208.87397694587708	movie	1		243	43.0	2.5	/experiments/AOT/AOT_stimuli/rescaled_final/2003_rv.mp4	0.0	229.34687399864197	2.4995510578155518
45	209.2570309638977	pulse	1	t		43.0	2.5	/experiments/AOT/AOT_stimuli/rescaled_final/2003_rv.mp4	0.0	229.7299280166626	
45	210.85743594169617	pulse	1	t		43.0	2.5	/experiments/AOT/AOT_stimuli/rescaled_final/2003_rv.mp4	0.0	231.33033299446106	
45	211.37352800369263	fix_post	2		12	43.0	2.5	/experiments/AOT/AOT_stimuli/rescaled_final/2003_rv.mp4	0.0	231.84642505645752	0.10057187080383301
46	211.47409987449646	fix_pre	0		119	44.0	2.5	/experiments/AOT/AOT_stimuli/rescaled_final/1459_fw.mp4	0.0	231.94699692726135	0.9915730953216553
46	212.45747995376587	pulse	0	t		44.0	2.5	/experiments/AOT/AOT_stimuli/rescaled_final/1459_fw.mp4	0.0	232.93037700653076	
46	212.46567296981812	movie	1		247	44.0	2.5	/experiments/AOT/AOT_stimuli/rescaled_final/1459_fw.mp4	0.0	232.938570022583	2.508049964904785
46	214.05718779563904	pulse	1	t		44.0	2.5	/experiments/AOT/AOT_stimuli/rescaled_final/1459_fw.mp4	0.0	234.53008484840393	
46	214.9737229347229	fix_post	2		12	44.0	2.5	/experiments/AOT/AOT_stimuli/rescaled_final/1459_fw.mp4	0.0	235.4466199874878	0.09996891021728516
47	215.07369184494019	fix_pre	0		120	45.0	2.5	/experiments/AOT/AOT_stimuli/rescaled_final/0239_rv.mp4	0.0	235.54658889770508	1.0005431175231934
47	215.65768384933472	pulse	0	t		45.0	2.5	/experiments/AOT/AOT_stimuli/rescaled_final/0239_rv.mp4	0.0	236.1305809020996	
47	216.07423496246338	movie	1		247	45.0	2.5	/experiments/AOT/AOT_stimuli/rescaled_final/0239_rv.mp4	0.0	236.54713201522827	2.4996209144592285
47	217.25751900672913	pulse	1	t		45.0	2.5	/experiments/AOT/AOT_stimuli/rescaled_final/0239_rv.mp4	0.0	237.73041605949402	
47	218.5738558769226	fix_post	2		12	45.0	2.5	/experiments/AOT/AOT_stimuli/rescaled_final/0239_rv.mp4	0.0	239.0467529296875	0.10009503364562988
48	218.67395091056824	fix_pre	0		120	46.0	2.5	/experiments/AOT/AOT_stimuli/rescaled_final/1967_fw.mp4	0.0	239.14684796333313	0.9999508857727051
48	218.85742783546448	pulse	0	t		46.0	2.5	/experiments/AOT/AOT_stimuli/rescaled_final/1967_fw.mp4	0.0	239.33032488822937	
48	219.67390179634094	movie	1		247	46.0	2.5	/experiments/AOT/AOT_stimuli/rescaled_final/1967_fw.mp4	0.0	240.14679884910583	2.499951124191284
48	220.457279920578	pulse	1	t		46.0	2.5	/experiments/AOT/AOT_stimuli/rescaled_final/1967_fw.mp4	0.0	240.9301769733429	
48	222.05738592147827	pulse	1	t		46.0	2.5	/experiments/AOT/AOT_stimuli/rescaled_final/1967_fw.mp4	0.0	242.53028297424316	
48	222.17385292053223	fix_post	2		12	46.0	2.5	/experiments/AOT/AOT_stimuli/rescaled_final/1967_fw.mp4	0.0	242.64674997329712	0.0999748706817627
49	222.273827791214	fix_pre	0		120	47.0	2.5	/experiments/AOT/AOT_stimuli/rescaled_final/1422_fw.mp4	0.0	242.74672484397888	0.9999861717224121
49	223.2738139629364	movie	1		245	47.0	2.5	/experiments/AOT/AOT_stimuli/rescaled_final/1422_fw.mp4	0.0	243.7467110157013	2.5000410079956055
49	223.65682888031006	pulse	1	t		47.0	2.5	/experiments/AOT/AOT_stimuli/rescaled_final/1422_fw.mp4	0.0	244.12972593307495	
49	225.25735688209534	pulse	1	t		47.0	2.5	/experiments/AOT/AOT_stimuli/rescaled_final/1422_fw.mp4	0.0	245.73025393486023	
49	225.773854970932	fix_post	2		12	47.0	2.5	/experiments/AOT/AOT_stimuli/rescaled_final/1422_fw.mp4	0.0	246.2467520236969	0.09993100166320801
50	225.87378597259521	fix_pre	0		119	48.0	2.5	/experiments/AOT/AOT_stimuli/rescaled_final/1969_fw.mp4	0.0	246.3466830253601	0.9916889667510986
50	226.8574059009552	pulse	0	t		48.0	2.5	/experiments/AOT/AOT_stimuli/rescaled_final/1969_fw.mp4	0.0	247.3303029537201	
50	226.8654749393463	movie	1		247	48.0	2.5	/experiments/AOT/AOT_stimuli/rescaled_final/1969_fw.mp4	0.0	247.3383719921112	2.5083959102630615
50	228.45847177505493	pulse	1	t		48.0	2.5	/experiments/AOT/AOT_stimuli/rescaled_final/1969_fw.mp4	0.0	248.93136882781982	
50	229.37387084960938	fix_post	2		12	48.0	2.5	/experiments/AOT/AOT_stimuli/rescaled_final/1969_fw.mp4	0.0	249.84676790237427	0.1000981330871582
51	229.47396898269653	fix_pre	0		120	49.0	2.5	blank	1.0	249.94686603546143	0.9999198913574219
51	230.05750489234924	pulse	0	t		49.0	2.5	blank	1.0	250.53040194511414	
51	230.47388887405396	movie	1		300	49.0	2.5	blank	1.0	250.94678592681885	2.4999279975891113
51	231.65734100341797	pulse	1	t		49.0	2.5	blank	1.0	252.13023805618286	
51	232.97381687164307	fix_post	2		12	49.0	2.5	blank	1.0	253.44671392440796	0.10003495216369629
52	233.07385182380676	fix_pre	0		120	50.0	2.5	/experiments/AOT/AOT_stimuli/rescaled_final/0574_rv.mp4	0.0	253.54674887657166	0.9995391368865967
52	233.25738787651062	pulse	0	t		50.0	2.5	/experiments/AOT/AOT_stimuli/rescaled_final/0574_rv.mp4	0.0	253.7302849292755	
52	234.07339096069336	movie	1		246	50.0	2.5	/experiments/AOT/AOT_stimuli/rescaled_final/0574_rv.mp4	0.0	254.54628801345825	2.5004589557647705
52	234.85727882385254	pulse	1	t		50.0	2.5	/experiments/AOT/AOT_stimuli/rescaled_final/0574_rv.mp4	0.0	255.33017587661743	
52	236.4570209980011	pulse	1	t		50.0	2.5	/experiments/AOT/AOT_stimuli/rescaled_final/0574_rv.mp4	0.0	256.929918050766	
52	236.57384991645813	fix_post	2		12	50.0	2.5	/experiments/AOT/AOT_stimuli/rescaled_final/0574_rv.mp4	0.0	257.046746969223	0.09956789016723633
53	236.67341780662537	fix_pre	0		120	51.0	2.5	/experiments/AOT/AOT_stimuli/rescaled_final/1628_fw.mp4	0.0	257.14631485939026	1.0003540515899658
53	237.67377185821533	movie	1		245	51.0	2.5	/experiments/AOT/AOT_stimuli/rescaled_final/1628_fw.mp4	0.0	258.1466689109802	2.4995460510253906
53	238.0569839477539	pulse	1	t		51.0	2.5	/experiments/AOT/AOT_stimuli/rescaled_final/1628_fw.mp4	0.0	258.5298810005188	
53	239.657301902771	pulse	1	t		51.0	2.5	/experiments/AOT/AOT_stimuli/rescaled_final/1628_fw.mp4	0.0	260.1301989555359	
53	240.17331790924072	fix_post	2		12	51.0	2.5	/experiments/AOT/AOT_stimuli/rescaled_final/1628_fw.mp4	0.0	260.6462149620056	0.10050606727600098
54	240.27382397651672	fix_pre	0		119	52.0	2.5	/experiments/AOT/AOT_stimuli/rescaled_final/0097_rv.mp4	0.0	260.7467210292816	0.9916179180145264
54	241.2573218345642	pulse	0	t		52.0	2.5	/experiments/AOT/AOT_stimuli/rescaled_final/0097_rv.mp4	0.0	261.7302188873291	
54	241.26544189453125	movie	1		245	52.0	2.5	/experiments/AOT/AOT_stimuli/rescaled_final/0097_rv.mp4	0.0	261.73833894729614	2.507927894592285
54	242.8572437763214	pulse	1	t		52.0	2.5	/experiments/AOT/AOT_stimuli/rescaled_final/0097_rv.mp4	0.0	263.3301408290863	
54	243.77336978912354	fix_post	2		12	52.0	2.5	/experiments/AOT/AOT_stimuli/rescaled_final/0097_rv.mp4	0.0	264.2462668418884	0.10040116310119629
55	243.87377095222473	fix_pre	0		120	53.0	2.5	/experiments/AOT/AOT_stimuli/rescaled_final/1726_rv.mp4	0.0	264.3466680049896	1.0000109672546387
55	244.45729684829712	pulse	0	t		53.0	2.5	/experiments/AOT/AOT_stimuli/rescaled_final/1726_rv.mp4	0.0	264.930193901062	
55	244.87378191947937	movie	1		244	53.0	2.5	/experiments/AOT/AOT_stimuli/rescaled_final/1726_rv.mp4	0.0	265.34667897224426	2.4995338916778564
55	246.05726885795593	pulse	1	t		53.0	2.5	/experiments/AOT/AOT_stimuli/rescaled_final/1726_rv.mp4	0.0	266.5301659107208	
55	247.37331581115723	fix_post	2		12	53.0	2.5	/experiments/AOT/AOT_stimuli/rescaled_final/1726_rv.mp4	0.0	267.8462128639221	0.10044407844543457
56	247.47375988960266	fix_pre	0		120	54.0	2.5	/experiments/AOT/AOT_stimuli/rescaled_final/0467_fw.mp4	0.0	267.94665694236755	0.9999899864196777
56	247.65721988677979	pulse	0	t		54.0	2.5	/experiments/AOT/AOT_stimuli/rescaled_final/0467_fw.mp4	0.0	268.1301169395447	
56	248.47374987602234	movie	1		244	54.0	2.5	/experiments/AOT/AOT_stimuli/rescaled_final/0467_fw.mp4	0.0	268.94664692878723	2.500046968460083
56	249.2571678161621	pulse	1	t		54.0	2.5	/experiments/AOT/AOT_stimuli/rescaled_final/0467_fw.mp4	0.0	269.730064868927	
56	250.85579085350037	pulse	1	t		54.0	2.5	/experiments/AOT/AOT_stimuli/rescaled_final/0467_fw.mp4	0.0	271.32868790626526	
56	250.97379684448242	fix_post	2		12	54.0	2.5	/experiments/AOT/AOT_stimuli/rescaled_final/0467_fw.mp4	0.0	271.4466938972473	0.09995412826538086
57	251.0737509727478	fix_pre	0		120	55.0	2.5	/experiments/AOT/AOT_stimuli/rescaled_final/0095_fw.mp4	0.0	271.5466480255127	0.9995718002319336
57	252.07332277297974	movie	1		245	55.0	2.5	/experiments/AOT/AOT_stimuli/rescaled_final/0095_fw.mp4	0.0	272.54621982574463	2.499974012374878
57	252.4568338394165	pulse	1	t		55.0	2.5	/experiments/AOT/AOT_stimuli/rescaled_final/0095_fw.mp4	0.0	272.9297308921814	
57	254.0572509765625	pulse	1	t		55.0	2.5	/experiments/AOT/AOT_stimuli/rescaled_final/0095_fw.mp4	0.0	274.5301480293274	
57	254.57329678535461	fix_post	2		12	55.0	2.5	/experiments/AOT/AOT_stimuli/rescaled_final/0095_fw.mp4	0.0	275.0461938381195	0.10041213035583496
58	254.67370891571045	fix_pre	0		119	56.0	2.5	blank	1.0	275.14660596847534	0.9916188716888428
58	255.65720677375793	pulse	0	t		56.0	2.5	blank	1.0	276.1301038265228	
58	255.6653277873993	movie	1		301	56.0	2.5	blank	1.0	276.1382248401642	2.508514165878296
58	257.2572247982025	pulse	1	t		56.0	2.5	blank	1.0	277.7301218509674	
58	258.1738419532776	fix_post	2		12	56.0	2.5	blank	1.0	278.6467390060425	0.09984898567199707
59	258.2736909389496	fix_pre	0		120	57.0	2.5	/experiments/AOT/AOT_stimuli/rescaled_final/0276_fw.mp4	0.0	278.7465879917145	0.9999878406524658
59	258.8572418689728	pulse	0	t		57.0	2.5	/experiments/AOT/AOT_stimuli/rescaled_final/0276_fw.mp4	0.0	279.33013892173767	
59	259.27367877960205	movie	1		243	57.0	2.5	/experiments/AOT/AOT_stimuli/rescaled_final/0276_fw.mp4	0.0	279.74657583236694	2.4999771118164062
59	260.4572319984436	pulse	1	t		57.0	2.5	/experiments/AOT/AOT_stimuli/rescaled_final/0276_fw.mp4	0.0	280.9301290512085	
59	261.77365589141846	fix_post	2		12	57.0	2.5	/experiments/AOT/AOT_stimuli/rescaled_final/0276_fw.mp4	0.0	282.24655294418335	0.10007691383361816
60	261.8737328052521	fix_pre	0		120	58.0	2.5	/experiments/AOT/AOT_stimuli/rescaled_final/1860_rv.mp4	0.0	282.34662985801697	1.000028133392334
60	262.05719900131226	pulse	0	t		58.0	2.5	/experiments/AOT/AOT_stimuli/rescaled_final/1860_rv.mp4	0.0	282.53009605407715	
60	262.8737609386444	movie	1		244	58.0	2.5	/experiments/AOT/AOT_stimuli/rescaled_final/1860_rv.mp4	0.0	283.3466579914093	2.499886989593506
60	263.65719389915466	pulse	1	t		58.0	2.5	/experiments/AOT/AOT_stimuli/rescaled_final/1860_rv.mp4	0.0	284.13009095191956	
60	265.25581979751587	pulse	1	t		58.0	2.5	/experiments/AOT/AOT_stimuli/rescaled_final/1860_rv.mp4	0.0	285.72871685028076	
60	265.3736479282379	fix_post	2		12	58.0	2.5	/experiments/AOT/AOT_stimuli/rescaled_final/1860_rv.mp4	0.0	285.8465449810028	0.09999299049377441
61	265.4736409187317	fix_pre	0		120	59.0	2.5	/experiments/AOT/AOT_stimuli/rescaled_final/1971_fw.mp4	0.0	285.9465379714966	1.0000879764556885
61	266.4737288951874	movie	1		245	59.0	2.5	/experiments/AOT/AOT_stimuli/rescaled_final/1971_fw.mp4	0.0	286.94662594795227	2.4999749660491943
61	266.8566827774048	pulse	1	t		59.0	2.5	/experiments/AOT/AOT_stimuli/rescaled_final/1971_fw.mp4	0.0	287.3295798301697	
61	268.45728182792664	pulse	1	t		59.0	2.5	/experiments/AOT/AOT_stimuli/rescaled_final/1971_fw.mp4	0.0	288.9301788806915	
61	268.9737038612366	fix_post	2		12	59.0	2.5	/experiments/AOT/AOT_stimuli/rescaled_final/1971_fw.mp4	0.0	289.44660091400146	0.0995490550994873
62	269.07325291633606	fix_pre	0		119	60.0	2.5	/experiments/AOT/AOT_stimuli/rescaled_final/0579_fw.mp4	0.0	289.54614996910095	0.9917669296264648
62	270.0571539402008	pulse	0	t		60.0	2.5	/experiments/AOT/AOT_stimuli/rescaled_final/0579_fw.mp4	0.0	290.5300509929657	
62	270.0650198459625	movie	1		246	60.0	2.5	/experiments/AOT/AOT_stimuli/rescaled_final/0579_fw.mp4	0.0	290.5379168987274	2.508625030517578
62	271.6565728187561	pulse	1	t		60.0	2.5	/experiments/AOT/AOT_stimuli/rescaled_final/0579_fw.mp4	0.0	292.129469871521	
62	272.5736448764801	fix_post	2		12	60.0	2.5	/experiments/AOT/AOT_stimuli/rescaled_final/0579_fw.mp4	0.0	293.046541929245	0.10000991821289062
63	272.673654794693	fix_pre	0		120	61.0	2.5	/experiments/AOT/AOT_stimuli/rescaled_final/1343_fw.mp4	0.0	293.1465518474579	1.0000150203704834
63	273.2571928501129	pulse	0	t		61.0	2.5	/experiments/AOT/AOT_stimuli/rescaled_final/1343_fw.mp4	0.0	293.7300899028778	
63	273.6736698150635	movie	1		245	61.0	2.5	/experiments/AOT/AOT_stimuli/rescaled_final/1343_fw.mp4	0.0	294.14656686782837	2.499937057495117
63	274.85724091529846	pulse	1	t		61.0	2.5	/experiments/AOT/AOT_stimuli/rescaled_final/1343_fw.mp4	0.0	295.33013796806335	
63	276.1736068725586	fix_post	2		12	61.0	2.5	/experiments/AOT/AOT_stimuli/rescaled_final/1343_fw.mp4	0.0	296.6465039253235	0.10004305839538574
64	276.273649930954	fix_pre	0		120	62.0	2.5	/experiments/AOT/AOT_stimuli/rescaled_final/2091_rv.mp4	0.0	296.7465469837189	0.9999039173126221
64	276.45713686943054	pulse	0	t		62.0	2.5	/experiments/AOT/AOT_stimuli/rescaled_final/2091_rv.mp4	0.0	296.93003392219543	
64	277.2735538482666	movie	1		245	62.0	2.5	/experiments/AOT/AOT_stimuli/rescaled_final/2091_rv.mp4	0.0	297.7464509010315	2.500030040740967
64	278.0572009086609	pulse	1	t		62.0	2.5	/experiments/AOT/AOT_stimuli/rescaled_final/2091_rv.mp4	0.0	298.5300979614258	
64	279.6554899215698	pulse	1	t		62.0	2.5	/experiments/AOT/AOT_stimuli/rescaled_final/2091_rv.mp4	0.0	300.1283869743347	
64	279.77358388900757	fix_post	2		12	62.0	2.5	/experiments/AOT/AOT_stimuli/rescaled_final/2091_rv.mp4	0.0	300.24648094177246	0.09995198249816895
65	279.87353587150574	fix_pre	0		120	63.0	2.5	blank	1.0	300.34643292427063	1.000025987625122
65	280.87356185913086	movie	1		300	63.0	2.5	blank	1.0	301.34645891189575	2.499985933303833
65	281.2570848464966	pulse	1	t		63.0	2.5	blank	1.0	301.7299818992615	
65	282.8569757938385	pulse	1	t		63.0	2.5	blank	1.0	303.3298728466034	
65	283.3735477924347	fix_post	2		12	63.0	2.5	blank	1.0	303.8464448451996	0.09961700439453125
66	283.4731647968292	fix_pre	0		119	64.0	2.5	/experiments/AOT/AOT_stimuli/rescaled_final/0732_rv.mp4	0.0	303.9460618495941	0.9921941757202148
66	284.45707082748413	pulse	0	t		64.0	2.5	/experiments/AOT/AOT_stimuli/rescaled_final/0732_rv.mp4	0.0	304.929967880249	
66	284.46535897254944	movie	1		249	64.0	2.5	/experiments/AOT/AOT_stimuli/rescaled_final/0732_rv.mp4	0.0	304.93825602531433	2.5081958770751953
66	286.0567409992218	pulse	1	t		64.0	2.5	/experiments/AOT/AOT_stimuli/rescaled_final/0732_rv.mp4	0.0	306.5296380519867	
66	286.97355484962463	fix_post	2		12	64.0	2.5	/experiments/AOT/AOT_stimuli/rescaled_final/0732_rv.mp4	0.0	307.4464519023895	0.0999751091003418
67	287.073529958725	fix_pre	0		120	65.0	2.5	/experiments/AOT/AOT_stimuli/rescaled_final/0920_rv.mp4	0.0	307.54642701148987	1.0000698566436768
67	287.6570568084717	pulse	0	t		65.0	2.5	/experiments/AOT/AOT_stimuli/rescaled_final/0920_rv.mp4	0.0	308.1299538612366	
67	288.07359981536865	movie	1		245	65.0	2.5	/experiments/AOT/AOT_stimuli/rescaled_final/0920_rv.mp4	0.0	308.54649686813354	2.4999821186065674
67	289.25708985328674	pulse	1	t		65.0	2.5	/experiments/AOT/AOT_stimuli/rescaled_final/0920_rv.mp4	0.0	309.72998690605164	
67	290.5735819339752	fix_post	2		12	65.0	2.5	/experiments/AOT/AOT_stimuli/rescaled_final/0920_rv.mp4	0.0	311.0464789867401	0.10010385513305664
68	290.6736857891083	fix_pre	0		120	66.0	2.5	/experiments/AOT/AOT_stimuli/rescaled_final/2062_fw.mp4	0.0	311.14658284187317	0.9997789859771729
68	290.8571047782898	pulse	0	t		66.0	2.5	/experiments/AOT/AOT_stimuli/rescaled_final/2062_fw.mp4	0.0	311.3300018310547	
68	291.67346477508545	movie	1		244	66.0	2.5	/experiments/AOT/AOT_stimuli/rescaled_final/2062_fw.mp4	0.0	312.14636182785034	2.500091075897217
68	292.45708990097046	pulse	1	t		66.0	2.5	/experiments/AOT/AOT_stimuli/rescaled_final/2062_fw.mp4	0.0	312.92998695373535	
68	294.0558898448944	pulse	1	t		66.0	2.5	/experiments/AOT/AOT_stimuli/rescaled_final/2062_fw.mp4	0.0	314.5287868976593	
68	294.17355585098267	fix_post	2		12	66.0	2.5	/experiments/AOT/AOT_stimuli/rescaled_final/2062_fw.mp4	0.0	314.64645290374756	0.09990406036376953
69	294.27345991134644	fix_pre	0		120	67.0	2.5	/experiments/AOT/AOT_stimuli/rescaled_final/2062_rv.mp4	0.0	314.7463569641113	1.0001249313354492
69	295.2735848426819	movie	1		244	67.0	2.5	/experiments/AOT/AOT_stimuli/rescaled_final/2062_rv.mp4	0.0	315.7464818954468	2.4998669624328613
69	295.6568109989166	pulse	1	t		67.0	2.5	/experiments/AOT/AOT_stimuli/rescaled_final/2062_rv.mp4	0.0	316.1297080516815	
69	297.2570049762726	pulse	1	t		67.0	2.5	/experiments/AOT/AOT_stimuli/rescaled_final/2062_rv.mp4	0.0	317.7299020290375	
69	297.77345180511475	fix_post	2		12	67.0	2.5	/experiments/AOT/AOT_stimuli/rescaled_final/2062_rv.mp4	0.0	318.24634885787964	0.10004496574401855
70	297.87349677085876	fix_pre	0		119	68.0	2.5	blank	1.0	318.34639382362366	0.9916751384735107
70	298.8569669723511	pulse	0	t		68.0	2.5	blank	1.0	319.32986402511597	
70	298.8651719093323	movie	1		301	68.0	2.5	blank	1.0	319.33806896209717	2.5078909397125244
70	300.45700097084045	pulse	1	t		68.0	2.5	blank	1.0	320.92989802360535	
70	301.3730628490448	fix_post	2		12	68.0	2.5	blank	1.0	321.8459599018097	0.10043811798095703
71	301.47350096702576	fix_pre	0		120	69.0	2.5	/experiments/AOT/AOT_stimuli/rescaled_final/2028_fw.mp4	0.0	321.94639801979065	0.9999678134918213
71	302.0569489002228	pulse	0	t		69.0	2.5	/experiments/AOT/AOT_stimuli/rescaled_final/2028_fw.mp4	0.0	322.52984595298767	
71	302.4734687805176	movie	1		245	69.0	2.5	/experiments/AOT/AOT_stimuli/rescaled_final/2028_fw.mp4	0.0	322.94636583328247	2.4999611377716064
71	303.6570158004761	pulse	1	t		69.0	2.5	/experiments/AOT/AOT_stimuli/rescaled_final/2028_fw.mp4	0.0	324.12991285324097	
71	304.9734299182892	fix_post	2		12	69.0	2.5	/experiments/AOT/AOT_stimuli/rescaled_final/2028_fw.mp4	0.0	325.4463269710541	0.10005903244018555
72	305.07348895072937	fix_pre	0		120	70.0	2.5	/experiments/AOT/AOT_stimuli/rescaled_final/0819_fw.mp4	0.0	325.54638600349426	0.9999699592590332
72	305.256963968277	pulse	0	t		70.0	2.5	/experiments/AOT/AOT_stimuli/rescaled_final/0819_fw.mp4	0.0	325.72986102104187	
72	306.0734589099884	movie	1		246	70.0	2.5	/experiments/AOT/AOT_stimuli/rescaled_final/0819_fw.mp4	0.0	326.5463559627533	2.5000250339508057
72	306.8569378852844	pulse	1	t		70.0	2.5	/experiments/AOT/AOT_stimuli/rescaled_final/0819_fw.mp4	0.0	327.3298349380493	
72	308.455552816391	pulse	1	t		70.0	2.5	/experiments/AOT/AOT_stimuli/rescaled_final/0819_fw.mp4	0.0	328.9284498691559	
72	308.5734839439392	fix_post	2		12	70.0	2.5	/experiments/AOT/AOT_stimuli/rescaled_final/0819_fw.mp4	0.0	329.0463809967041	0.09958291053771973
73	308.67306685447693	fix_pre	0		120	71.0	2.5	/experiments/AOT/AOT_stimuli/rescaled_final/1916_rv.mp4	0.0	329.1459639072418	1.0003669261932373
73	309.67343378067017	movie	1		244	71.0	2.5	/experiments/AOT/AOT_stimuli/rescaled_final/1916_rv.mp4	0.0	330.14633083343506	2.4999840259552
73	310.057235956192	pulse	1	t		71.0	2.5	/experiments/AOT/AOT_stimuli/rescaled_final/1916_rv.mp4	0.0	330.5301330089569	
73	311.65688490867615	pulse	1	t		71.0	2.5	/experiments/AOT/AOT_stimuli/rescaled_final/1916_rv.mp4	0.0	332.12978196144104	
73	312.17341780662537	fix_post	2		12	71.0	2.5	/experiments/AOT/AOT_stimuli/rescaled_final/1916_rv.mp4	0.0	332.64631485939026	0.09998106956481934
74	312.2733988761902	fix_pre	0		119	72.0	2.5	/experiments/AOT/AOT_stimuli/rescaled_final/1967_fw.mp4	0.0	332.7462959289551	0.9916949272155762
74	313.25688791275024	pulse	0	t		72.0	2.5	/experiments/AOT/AOT_stimuli/rescaled_final/1967_fw.mp4	0.0	333.72978496551514	
74	313.26509380340576	movie	1		246	72.0	2.5	/experiments/AOT/AOT_stimuli/rescaled_final/1967_fw.mp4	0.0	333.73799085617065	2.5082671642303467
74	314.85699486732483	pulse	1	t		72.0	2.5	/experiments/AOT/AOT_stimuli/rescaled_final/1967_fw.mp4	0.0	335.3298919200897	
74	315.7733609676361	fix_post	2		12	72.0	2.5	/experiments/AOT/AOT_stimuli/rescaled_final/1967_fw.mp4	0.0	336.246258020401	0.10012602806091309
75	315.873486995697	fix_pre	0		120	73.0	2.5	/experiments/AOT/AOT_stimuli/rescaled_final/0767_rv.mp4	0.0	336.3463840484619	0.9999489784240723
75	316.45689487457275	pulse	0	t		73.0	2.5	/experiments/AOT/AOT_stimuli/rescaled_final/0767_rv.mp4	0.0	336.92979192733765	
75	316.8734359741211	movie	1		244	73.0	2.5	/experiments/AOT/AOT_stimuli/rescaled_final/0767_rv.mp4	0.0	337.346333026886	2.5000250339508057
75	318.056921005249	pulse	1	t		73.0	2.5	/experiments/AOT/AOT_stimuli/rescaled_final/0767_rv.mp4	0.0	338.5298180580139	
75	319.3734610080719	fix_post	2		12	73.0	2.5	/experiments/AOT/AOT_stimuli/rescaled_final/0767_rv.mp4	0.0	339.8463580608368	0.09995484352111816
76	319.473415851593	fix_pre	0		120	74.0	2.5	/experiments/AOT/AOT_stimuli/rescaled_final/0790_rv.mp4	0.0	339.9463129043579	1.000082015991211
76	319.65684485435486	pulse	0	t		74.0	2.5	/experiments/AOT/AOT_stimuli/rescaled_final/0790_rv.mp4	0.0	340.12974190711975	
76	320.47349786758423	movie	1		244	74.0	2.5	/experiments/AOT/AOT_stimuli/rescaled_final/0790_rv.mp4	0.0	340.9463949203491	2.499498128890991
76	321.2568597793579	pulse	1	t		74.0	2.5	/experiments/AOT/AOT_stimuli/rescaled_final/0790_rv.mp4	0.0	341.7297568321228	
76	322.8553719520569	pulse	1	t		74.0	2.5	/experiments/AOT/AOT_stimuli/rescaled_final/0790_rv.mp4	0.0	343.3282690048218	
76	322.9729959964752	fix_post	2		12	74.0	2.5	/experiments/AOT/AOT_stimuli/rescaled_final/0790_rv.mp4	0.0	343.4458930492401	0.10042190551757812
77	323.0734179019928	fix_pre	0		120	75.0	2.5	/experiments/AOT/AOT_stimuli/rescaled_final/0838_fw.mp4	0.0	343.5463149547577	0.9995689392089844
77	324.0729868412018	movie	1		243	75.0	2.5	/experiments/AOT/AOT_stimuli/rescaled_final/0838_fw.mp4	0.0	344.5458838939667	2.5005669593811035
77	324.45787477493286	pulse	1	t		75.0	2.5	/experiments/AOT/AOT_stimuli/rescaled_final/0838_fw.mp4	0.0	344.93077182769775	
77	326.0569269657135	pulse	1	t		75.0	2.5	/experiments/AOT/AOT_stimuli/rescaled_final/0838_fw.mp4	0.0	346.5298240184784	
77	326.5735538005829	fix_post	2		12	75.0	2.5	/experiments/AOT/AOT_stimuli/rescaled_final/0838_fw.mp4	0.0	347.0464508533478	0.09956002235412598
78	326.673113822937	fix_pre	0		119	76.0	2.5	blank	1.0	347.1460108757019	0.9918310642242432
78	327.6567289829254	pulse	0	t		76.0	2.5	blank	1.0	348.1296260356903	
78	327.66494488716125	movie	1		301	76.0	2.5	blank	1.0	348.13784193992615	2.508481979370117
78	329.2568829059601	pulse	1	t		76.0	2.5	blank	1.0	349.729779958725	
78	330.1734268665314	fix_post	2		12	76.0	2.5	blank	1.0	350.64632391929626	0.09998297691345215
79	330.2734098434448	fix_pre	0		120	77.0	2.5	/experiments/AOT/AOT_stimuli/rescaled_final/1528_rv.mp4	0.0	350.7463068962097	0.9999361038208008
79	330.85685992240906	pulse	0	t		77.0	2.5	/experiments/AOT/AOT_stimuli/rescaled_final/1528_rv.mp4	0.0	351.32975697517395	
79	331.2733459472656	movie	1		246	77.0	2.5	/experiments/AOT/AOT_stimuli/rescaled_final/1528_rv.mp4	0.0	351.7462430000305	2.4995758533477783
79	332.45689392089844	pulse	1	t		77.0	2.5	/experiments/AOT/AOT_stimuli/rescaled_final/1528_rv.mp4	0.0	352.92979097366333	
79	333.7729218006134	fix_post	2		12	77.0	2.5	/experiments/AOT/AOT_stimuli/rescaled_final/1528_rv.mp4	0.0	354.2458188533783	0.10038518905639648
80	333.8733069896698	fix_pre	0		120	78.0	2.5	/experiments/AOT/AOT_stimuli/rescaled_final/0884_rv.mp4	0.0	354.3462040424347	1.0000147819519043
80	334.056921005249	pulse	0	t		78.0	2.5	/experiments/AOT/AOT_stimuli/rescaled_final/0884_rv.mp4	0.0	354.5298180580139	
80	334.8733217716217	movie	1		245	78.0	2.5	/experiments/AOT/AOT_stimuli/rescaled_final/0884_rv.mp4	0.0	355.3462188243866	2.4995980262756348
80	335.6567659378052	pulse	1	t		78.0	2.5	/experiments/AOT/AOT_stimuli/rescaled_final/0884_rv.mp4	0.0	356.12966299057007	
80	337.2555949687958	pulse	1	t		78.0	2.5	/experiments/AOT/AOT_stimuli/rescaled_final/0884_rv.mp4	0.0	357.72849202156067	
80	337.37291979789734	fix_post	2		12	78.0	2.5	/experiments/AOT/AOT_stimuli/rescaled_final/0884_rv.mp4	0.0	357.84581685066223	0.10036301612854004
81	337.4732828140259	fix_pre	0		120	79.0	2.5	/experiments/AOT/AOT_stimuli/rescaled_final/1828_fw.mp4	0.0	357.94617986679077	1.0000810623168945
81	338.4733638763428	movie	1		245	79.0	2.5	/experiments/AOT/AOT_stimuli/rescaled_final/1828_fw.mp4	0.0	358.94626092910767	2.499929904937744
81	338.85803985595703	pulse	1	t		79.0	2.5	/experiments/AOT/AOT_stimuli/rescaled_final/1828_fw.mp4	0.0	359.3309369087219	
81	340.45668292045593	pulse	1	t		79.0	2.5	/experiments/AOT/AOT_stimuli/rescaled_final/1828_fw.mp4	0.0	360.9295799732208	
81	340.9732937812805	fix_post	2		12	79.0	2.5	/experiments/AOT/AOT_stimuli/rescaled_final/1828_fw.mp4	0.0	361.4461908340454	0.1000971794128418
82	341.07339096069336	fix_pre	0		119	80.0	2.5	/experiments/AOT/AOT_stimuli/rescaled_final/2058_fw.mp4	0.0	361.54628801345825	0.9915728569030762
82	342.0568268299103	pulse	0	t		80.0	2.5	/experiments/AOT/AOT_stimuli/rescaled_final/2058_fw.mp4	0.0	362.52972388267517	
82	342.06496381759644	movie	1		243	80.0	2.5	/experiments/AOT/AOT_stimuli/rescaled_final/2058_fw.mp4	0.0	362.5378608703613	2.507899045944214
82	343.6580719947815	pulse	1	t		80.0	2.5	/experiments/AOT/AOT_stimuli/rescaled_final/2058_fw.mp4	0.0	364.1309690475464	
82	344.57286286354065	fix_post	2		12	80.0	2.5	/experiments/AOT/AOT_stimuli/rescaled_final/2058_fw.mp4	0.0	365.04575991630554	0.10037112236022949
83	344.6732339859009	fix_pre	0		120	81.0	2.5	/experiments/AOT/AOT_stimuli/rescaled_final/0714_rv.mp4	0.0	365.14613103866577	0.99965500831604
83	345.2568337917328	pulse	0	t		81.0	2.5	/experiments/AOT/AOT_stimuli/rescaled_final/0714_rv.mp4	0.0	365.7297308444977	
83	345.6728889942169	movie	1		244	81.0	2.5	/experiments/AOT/AOT_stimuli/rescaled_final/0714_rv.mp4	0.0	366.1457860469818	2.5003108978271484
83	346.8568398952484	pulse	1	t		81.0	2.5	/experiments/AOT/AOT_stimuli/rescaled_final/0714_rv.mp4	0.0	367.3297369480133	
83	348.17319989204407	fix_post	2		12	81.0	2.5	/experiments/AOT/AOT_stimuli/rescaled_final/0714_rv.mp4	0.0	368.64609694480896	0.1000680923461914
84	348.27326798439026	fix_pre	0		120	82.0	2.5	/experiments/AOT/AOT_stimuli/rescaled_final/0960_fw.mp4	0.0	368.74616503715515	1.0000288486480713
84	348.45678997039795	pulse	0	t		82.0	2.5	/experiments/AOT/AOT_stimuli/rescaled_final/0960_fw.mp4	0.0	368.92968702316284	
84	349.27329683303833	movie	1		243	82.0	2.5	/experiments/AOT/AOT_stimuli/rescaled_final/0960_fw.mp4	0.0	369.7461938858032	2.499514102935791
84	350.0567238330841	pulse	1	t		82.0	2.5	/experiments/AOT/AOT_stimuli/rescaled_final/0960_fw.mp4	0.0	370.529620885849	
84	351.6651539802551	pulse	1	t		82.0	2.5	/experiments/AOT/AOT_stimuli/rescaled_final/0960_fw.mp4	0.0	372.13805103302	
84	351.7728109359741	fix_post	2		12	82.0	2.5	/experiments/AOT/AOT_stimuli/rescaled_final/0960_fw.mp4	0.0	372.245707988739	0.10043907165527344
85	351.8732500076294	fix_pre	0		120	83.0	2.5	blank	1.0	372.3461470603943	0.9999699592590332
85	352.8732199668884	movie	1		300	83.0	2.5	blank	1.0	373.3461170196533	2.5000619888305664
85	353.25672793388367	pulse	1	t		83.0	2.5	blank	1.0	373.72962498664856	
85	354.85678696632385	pulse	1	t		83.0	2.5	blank	1.0	375.32968401908875	
85	355.373281955719	fix_post	2		12	83.0	2.5	blank	1.0	375.8461790084839	0.09993600845336914
87	355.47321796417236	stim	0		1716					375.94611501693726	14.300025939941406
87	356.4566738605499	pulse	0	t						376.9295709133148	
87	358.0567388534546	pulse	0	t						378.5296359062195	
87	359.6566698551178	pulse	0	t						380.1295669078827	
87	361.25660490989685	pulse	0	t						381.72950196266174	
87	362.8566129207611	pulse	0	t						383.329509973526	
87	364.45669984817505	pulse	0	t						384.92959690093994	
87	366.05663084983826	pulse	0	t						386.52952790260315	
87	367.65659189224243	pulse	0	t						388.1294889450073	
87	369.25663590431213	pulse	0	t						389.729532957077	
