trial_nr	onset	event_type	phase	response	nr_frames	movie_index	movie_duration	movie_file	blank	onset_abs	duration
0	0.21675682067871094	stim	0		22					105.00218391418457	0.183135986328125
0	0.3918628692626953	response	0	space						105.17728996276855	
1	0.39989280700683594	stim	0		4264					105.1853199005127	35.54928016662598
1	35.9392249584198	pulse	0	t						140.72465205192566	
1	35.94917297363281	stim	1		1715					140.73460006713867	14.29981780052185
1	37.53061890602112	pulse	1	t						142.31604599952698	
1	39.13080596923828	pulse	1	t						143.91623306274414	
1	40.73120379447937	pulse	1	t						145.51663088798523	
1	42.32374382019043	pulse	1	t						147.1091709136963	
1	43.92415380477905	pulse	1	t						148.7095808982849	
1	45.52432894706726	pulse	1	t						150.30975604057312	
1	47.12445688247681	pulse	1	t						151.90988397598267	
1	48.72390079498291	pulse	1	t						153.50932788848877	
2	50.24899077415466	fix_pre	0		10	0.0	2.5	/experiments/knapen_AOT/AOT_stimuli/rescaled_final/0637_rv.mp4	0.0	155.03441786766052	0.15847301483154297
2	50.324217796325684	pulse	0	t		0.0	2.5	/experiments/knapen_AOT/AOT_stimuli/rescaled_final/0637_rv.mp4	0.0	155.10964488983154	
2	50.407463788986206	movie	1		239	0.0	2.5	/experiments/knapen_AOT/AOT_stimuli/rescaled_final/0637_rv.mp4	0.0	155.19289088249207	2.433626174926758
2	51.9245069026947	pulse	1	t		0.0	2.5	/experiments/knapen_AOT/AOT_stimuli/rescaled_final/0637_rv.mp4	0.0	156.70993399620056	
2	52.841089963912964	fix_post	2		12	0.0	2.5	/experiments/knapen_AOT/AOT_stimuli/rescaled_final/0637_rv.mp4	0.0	157.62651705741882	0.09997391700744629
3	52.94106388092041	fix_pre	0		120	1.0	2.5	/experiments/knapen_AOT/AOT_stimuli/rescaled_final/0896_fw.mp4	0.0	157.72649097442627	1.0502650737762451
3	53.52463483810425	pulse	0	t		1.0	2.5	/experiments/knapen_AOT/AOT_stimuli/rescaled_final/0896_fw.mp4	0.0	158.3100619316101	
3	53.991328954696655	movie	1		240	1.0	2.5	/experiments/knapen_AOT/AOT_stimuli/rescaled_final/0896_fw.mp4	0.0	158.77675604820251	2.4502580165863037
3	55.12443280220032	pulse	1	t		1.0	2.5	/experiments/knapen_AOT/AOT_stimuli/rescaled_final/0896_fw.mp4	0.0	159.90985989570618	
3	56.44158697128296	fix_post	2		12	1.0	2.5	/experiments/knapen_AOT/AOT_stimuli/rescaled_final/0896_fw.mp4	0.0	161.22701406478882	0.1000208854675293
4	56.54160785675049	fix_pre	0		120	2.0	2.5	/experiments/knapen_AOT/AOT_stimuli/rescaled_final/1626_fw.mp4	0.0	161.32703495025635	1.0835721492767334
4	56.72527289390564	pulse	0	t		2.0	2.5	/experiments/knapen_AOT/AOT_stimuli/rescaled_final/1626_fw.mp4	0.0	161.5106999874115	
4	57.62518000602722	movie	1		227	2.0	2.5	/experiments/knapen_AOT/AOT_stimuli/rescaled_final/1626_fw.mp4	0.0	162.41060709953308	2.4169797897338867
4	58.32598400115967	pulse	1	t		2.0	2.5	/experiments/knapen_AOT/AOT_stimuli/rescaled_final/1626_fw.mp4	0.0	163.11141109466553	
4	59.92437696456909	pulse	1	t		2.0	2.5	/experiments/knapen_AOT/AOT_stimuli/rescaled_final/1626_fw.mp4	0.0	164.70980405807495	
4	60.04215979576111	fix_post	2		12	2.0	2.5	/experiments/knapen_AOT/AOT_stimuli/rescaled_final/1626_fw.mp4	0.0	164.82758688926697	0.10005903244018555
5	60.142218828201294	fix_pre	0		120	3.0	2.5	/experiments/knapen_AOT/AOT_stimuli/rescaled_final/1207_rv.mp4	0.0	164.92764592170715	1.0751781463623047
5	61.2173969745636	movie	1		220	3.0	2.5	/experiments/knapen_AOT/AOT_stimuli/rescaled_final/1207_rv.mp4	0.0	166.00282406806946	2.4169728755950928
5	61.52435898780823	pulse	1	t		3.0	2.5	/experiments/knapen_AOT/AOT_stimuli/rescaled_final/1207_rv.mp4	0.0	166.3097860813141	
5	63.126091957092285	pulse	1	t		3.0	2.5	/experiments/knapen_AOT/AOT_stimuli/rescaled_final/1207_rv.mp4	0.0	167.91151905059814	
5	63.63436985015869	fix_post	2		12	3.0	2.5	/experiments/knapen_AOT/AOT_stimuli/rescaled_final/1207_rv.mp4	0.0	168.41979694366455	0.09996294975280762
6	63.7343327999115	fix_pre	0		120	4.0	2.5	/experiments/knapen_AOT/AOT_stimuli/rescaled_final/0291_rv.mp4	0.0	168.51975989341736	1.0752310752868652
6	64.72647595405579	pulse	0	t		4.0	2.5	/experiments/knapen_AOT/AOT_stimuli/rescaled_final/0291_rv.mp4	0.0	169.51190304756165	
6	64.80956387519836	movie	1		227	4.0	2.5	/experiments/knapen_AOT/AOT_stimuli/rescaled_final/0291_rv.mp4	0.0	169.59499096870422	2.433645009994507
6	66.32483577728271	pulse	1	t		4.0	2.5	/experiments/knapen_AOT/AOT_stimuli/rescaled_final/0291_rv.mp4	0.0	171.11026287078857	
6	67.24320888519287	fix_post	2		12	4.0	2.5	/experiments/knapen_AOT/AOT_stimuli/rescaled_final/0291_rv.mp4	0.0	172.02863597869873	0.10004711151123047
7	67.3432559967041	fix_pre	0		120	5.0	2.5	/experiments/knapen_AOT/AOT_stimuli/rescaled_final/1649_fw.mp4	0.0	172.12868309020996	1.0584959983825684
7	67.92681097984314	pulse	0	t		5.0	2.5	/experiments/knapen_AOT/AOT_stimuli/rescaled_final/1649_fw.mp4	0.0	172.712238073349	
7	68.40175199508667	movie	1		234	5.0	2.5	/experiments/knapen_AOT/AOT_stimuli/rescaled_final/1649_fw.mp4	0.0	173.18717908859253	2.441983938217163
7	69.52707386016846	pulse	1	t		5.0	2.5	/experiments/knapen_AOT/AOT_stimuli/rescaled_final/1649_fw.mp4	0.0	174.31250095367432	
7	70.84373593330383	fix_post	2		12	5.0	2.5	/experiments/knapen_AOT/AOT_stimuli/rescaled_final/1649_fw.mp4	0.0	175.6291630268097	0.10001897811889648
8	70.94375491142273	fix_pre	0		120	6.0	2.5	blank	1.0	175.7291820049286	1.0001580715179443
8	71.12724781036377	pulse	0	t		6.0	2.5	blank	1.0	175.91267490386963	
8	71.94391298294067	movie	1		300	6.0	2.5	blank	1.0	176.72934007644653	2.500382900238037
8	72.72762179374695	pulse	1	t		6.0	2.5	blank	1.0	177.5130488872528	
8	74.32769083976746	pulse	1	t		6.0	2.5	blank	1.0	179.11311793327332	
8	74.44429588317871	fix_post	2		12	6.0	2.5	blank	1.0	179.22972297668457	0.10005998611450195
9	74.54435586929321	fix_pre	0		120	7.0	2.5	/experiments/knapen_AOT/AOT_stimuli/rescaled_final/1191_fw.mp4	0.0	179.32978296279907	1.0835731029510498
9	75.62792897224426	movie	1		250	7.0	2.5	/experiments/knapen_AOT/AOT_stimuli/rescaled_final/1191_fw.mp4	0.0	180.41335606575012	2.4085278511047363
9	75.92714190483093	pulse	1	t		7.0	2.5	/experiments/knapen_AOT/AOT_stimuli/rescaled_final/1191_fw.mp4	0.0	180.7125689983368	
9	77.52649784088135	pulse	1	t		7.0	2.5	/experiments/knapen_AOT/AOT_stimuli/rescaled_final/1191_fw.mp4	0.0	182.3119249343872	
9	78.036456823349	fix_post	2		12	7.0	2.5	/experiments/knapen_AOT/AOT_stimuli/rescaled_final/1191_fw.mp4	0.0	182.82188391685486	0.10004997253417969
10	78.13650679588318	fix_pre	0		120	8.0	2.5	/experiments/knapen_AOT/AOT_stimuli/rescaled_final/0171_rv.mp4	0.0	182.92193388938904	1.0919501781463623
10	79.12862086296082	pulse	0	t		8.0	2.5	/experiments/knapen_AOT/AOT_stimuli/rescaled_final/0171_rv.mp4	0.0	183.91404795646667	
10	79.22845697402954	movie	1		248	8.0	2.5	/experiments/knapen_AOT/AOT_stimuli/rescaled_final/0171_rv.mp4	0.0	184.0138840675354	2.4169178009033203
10	80.72778582572937	pulse	1	t		8.0	2.5	/experiments/knapen_AOT/AOT_stimuli/rescaled_final/0171_rv.mp4	0.0	185.51321291923523	
10	81.64537477493286	fix_post	2		12	8.0	2.5	/experiments/knapen_AOT/AOT_stimuli/rescaled_final/0171_rv.mp4	0.0	186.43080186843872	0.09999823570251465
11	81.74537301063538	fix_pre	0		120	9.0	2.5	/experiments/knapen_AOT/AOT_stimuli/rescaled_final/1353_rv.mp4	0.0	186.53080010414124	1.06687593460083
11	82.32896399497986	pulse	0	t		9.0	2.5	/experiments/knapen_AOT/AOT_stimuli/rescaled_final/1353_rv.mp4	0.0	187.11439108848572	
11	82.8122489452362	movie	1		229	9.0	2.5	/experiments/knapen_AOT/AOT_stimuli/rescaled_final/1353_rv.mp4	0.0	187.59767603874207	2.4336440563201904
11	83.92798280715942	pulse	1	t		9.0	2.5	/experiments/knapen_AOT/AOT_stimuli/rescaled_final/1353_rv.mp4	0.0	188.71340990066528	
11	85.2458930015564	fix_post	2		12	9.0	2.5	/experiments/knapen_AOT/AOT_stimuli/rescaled_final/1353_rv.mp4	0.0	190.03132009506226	0.09999990463256836
12	85.34589290618896	fix_pre	0		120	10.0	2.5	/experiments/knapen_AOT/AOT_stimuli/rescaled_final/1355_fw.mp4	0.0	190.13131999969482	1.0502419471740723
12	85.52959084510803	pulse	0	t		10.0	2.5	/experiments/knapen_AOT/AOT_stimuli/rescaled_final/1355_fw.mp4	0.0	190.3150179386139	
12	86.39613485336304	movie	1		234	10.0	2.5	/experiments/knapen_AOT/AOT_stimuli/rescaled_final/1355_fw.mp4	0.0	191.1815619468689	2.4503390789031982
12	87.12815499305725	pulse	1	t		10.0	2.5	/experiments/knapen_AOT/AOT_stimuli/rescaled_final/1355_fw.mp4	0.0	191.9135820865631	
12	88.7294909954071	pulse	1	t		10.0	2.5	/experiments/knapen_AOT/AOT_stimuli/rescaled_final/1355_fw.mp4	0.0	193.51491808891296	
12	88.84647393226624	fix_post	2		12	10.0	2.5	/experiments/knapen_AOT/AOT_stimuli/rescaled_final/1355_fw.mp4	0.0	193.6319010257721	0.09995698928833008
13	88.94643092155457	fix_pre	0		120	11.0	2.5	/experiments/knapen_AOT/AOT_stimuli/rescaled_final/1908_fw.mp4	0.0	193.73185801506042	1.0502049922943115
13	89.99663591384888	movie	1		216	11.0	2.5	/experiments/knapen_AOT/AOT_stimuli/rescaled_final/1908_fw.mp4	0.0	194.78206300735474	2.4503629207611084
13	90.32975792884827	pulse	1	t		11.0	2.5	/experiments/knapen_AOT/AOT_stimuli/rescaled_final/1908_fw.mp4	0.0	195.11518502235413	
13	91.92889499664307	pulse	1	t		11.0	2.5	/experiments/knapen_AOT/AOT_stimuli/rescaled_final/1908_fw.mp4	0.0	196.71432209014893	
13	92.44699883460999	fix_post	2		11	11.0	2.5	/experiments/knapen_AOT/AOT_stimuli/rescaled_final/1908_fw.mp4	0.0	197.23242592811584	0.09165716171264648
14	92.53865599632263	fix_pre	0		120	12.0	2.5	/experiments/knapen_AOT/AOT_stimuli/rescaled_final/0337_rv.mp4	0.0	197.3240830898285	1.083603858947754
14	93.53064894676208	pulse	0	t		12.0	2.5	/experiments/knapen_AOT/AOT_stimuli/rescaled_final/0337_rv.mp4	0.0	198.31607604026794	
14	93.62225985527039	movie	1		219	12.0	2.5	/experiments/knapen_AOT/AOT_stimuli/rescaled_final/0337_rv.mp4	0.0	198.40768694877625	2.4335970878601074
14	95.13061380386353	pulse	1	t		12.0	2.5	/experiments/knapen_AOT/AOT_stimuli/rescaled_final/0337_rv.mp4	0.0	199.91604089736938	
14	96.0558569431305	fix_post	2		11	12.0	2.5	/experiments/knapen_AOT/AOT_stimuli/rescaled_final/0337_rv.mp4	0.0	200.84128403663635	0.0916738510131836
15	96.14753079414368	fix_pre	0		120	13.0	2.5	/experiments/knapen_AOT/AOT_stimuli/rescaled_final/0171_fw.mp4	0.0	200.93295788764954	1.0751910209655762
15	96.72361397743225	pulse	0	t		13.0	2.5	/experiments/knapen_AOT/AOT_stimuli/rescaled_final/0171_fw.mp4	0.0	201.5090410709381	
15	97.22272181510925	movie	1		227	13.0	2.5	/experiments/knapen_AOT/AOT_stimuli/rescaled_final/0171_fw.mp4	0.0	202.0081489086151	2.4336600303649902
15	98.32977199554443	pulse	1	t		13.0	2.5	/experiments/knapen_AOT/AOT_stimuli/rescaled_final/0171_fw.mp4	0.0	203.1151990890503	
15	99.65638184547424	fix_post	2		11	13.0	2.5	/experiments/knapen_AOT/AOT_stimuli/rescaled_final/0171_fw.mp4	0.0	204.4418089389801	0.09166312217712402
16	99.74804496765137	fix_pre	0		120	14.0	2.5	blank	1.0	204.53347206115723	1.0002148151397705
16	99.92417597770691	pulse	0	t		14.0	2.5	blank	1.0	204.70960307121277	
16	100.74825978279114	movie	1		300	14.0	2.5	blank	1.0	205.533686876297	2.5003230571746826
16	101.52365899085999	pulse	1	t		14.0	2.5	blank	1.0	206.30908608436584	
16	103.12367796897888	pulse	1	t		14.0	2.5	blank	1.0	207.90910506248474	
16	103.24858283996582	fix_post	2		12	14.0	2.5	blank	1.0	208.03400993347168	0.10001301765441895
17	103.34859585762024	fix_pre	0		120	15.0	2.5	/experiments/knapen_AOT/AOT_stimuli/rescaled_final/0070_fw.mp4	0.0	208.1340229511261	1.0502009391784668
17	104.3987967967987	movie	1		233	15.0	2.5	/experiments/knapen_AOT/AOT_stimuli/rescaled_final/0070_fw.mp4	0.0	209.18422389030457	2.4502811431884766
17	104.72395396232605	pulse	1	t		15.0	2.5	/experiments/knapen_AOT/AOT_stimuli/rescaled_final/0070_fw.mp4	0.0	209.5093810558319	
17	106.32430481910706	pulse	1	t		15.0	2.5	/experiments/knapen_AOT/AOT_stimuli/rescaled_final/0070_fw.mp4	0.0	211.10973191261292	
17	106.84907793998718	fix_post	2		11	15.0	2.5	/experiments/knapen_AOT/AOT_stimuli/rescaled_final/0070_fw.mp4	0.0	211.63450503349304	0.09169983863830566
18	106.94077777862549	fix_pre	0		119	16.0	2.5	/experiments/knapen_AOT/AOT_stimuli/rescaled_final/0896_rv.mp4	0.0	211.72620487213135	1.050218105316162
18	107.9244499206543	pulse	0	t		16.0	2.5	/experiments/knapen_AOT/AOT_stimuli/rescaled_final/0896_rv.mp4	0.0	212.70987701416016	
18	107.99099588394165	movie	1		226	16.0	2.5	/experiments/knapen_AOT/AOT_stimuli/rescaled_final/0896_rv.mp4	0.0	212.7764229774475	2.450340986251831
18	109.52376890182495	pulse	1	t		16.0	2.5	/experiments/knapen_AOT/AOT_stimuli/rescaled_final/0896_rv.mp4	0.0	214.3091959953308	
18	110.44133687019348	fix_post	2		12	16.0	2.5	/experiments/knapen_AOT/AOT_stimuli/rescaled_final/0896_rv.mp4	0.0	215.22676396369934	0.09996700286865234
19	110.54130387306213	fix_pre	0		120	17.0	2.5	/experiments/knapen_AOT/AOT_stimuli/rescaled_final/2156_fw.mp4	0.0	215.326730966568	1.0502331256866455
19	111.12489581108093	pulse	0	t		17.0	2.5	/experiments/knapen_AOT/AOT_stimuli/rescaled_final/2156_fw.mp4	0.0	215.9103229045868	
19	111.59153699874878	movie	1		227	17.0	2.5	/experiments/knapen_AOT/AOT_stimuli/rescaled_final/2156_fw.mp4	0.0	216.37696409225464	2.450363874435425
19	112.72521591186523	pulse	1	t		17.0	2.5	/experiments/knapen_AOT/AOT_stimuli/rescaled_final/2156_fw.mp4	0.0	217.5106430053711	
19	114.0419008731842	fix_post	2		12	17.0	2.5	/experiments/knapen_AOT/AOT_stimuli/rescaled_final/2156_fw.mp4	0.0	218.82732796669006	0.09990501403808594
20	114.14180588722229	fix_pre	0		120	18.0	2.5	/experiments/knapen_AOT/AOT_stimuli/rescaled_final/0531_rv.mp4	0.0	218.92723298072815	1.0756559371948242
20	114.32546186447144	pulse	0	t		18.0	2.5	/experiments/knapen_AOT/AOT_stimuli/rescaled_final/0531_rv.mp4	0.0	219.1108889579773	
20	115.21746182441711	movie	1		229	18.0	2.5	/experiments/knapen_AOT/AOT_stimuli/rescaled_final/0531_rv.mp4	0.0	220.00288891792297	2.42492413520813
20	115.92527294158936	pulse	1	t		18.0	2.5	/experiments/knapen_AOT/AOT_stimuli/rescaled_final/0531_rv.mp4	0.0	220.71070003509521	
20	117.52453684806824	pulse	1	t		18.0	2.5	/experiments/knapen_AOT/AOT_stimuli/rescaled_final/0531_rv.mp4	0.0	222.3099639415741	
20	117.64238595962524	fix_post	2		12	18.0	2.5	/experiments/knapen_AOT/AOT_stimuli/rescaled_final/0531_rv.mp4	0.0	222.4278130531311	0.10001087188720703
21	117.74239683151245	fix_pre	0		120	19.0	2.5	/experiments/knapen_AOT/AOT_stimuli/rescaled_final/1674_fw.mp4	0.0	222.5278239250183	1.0585670471191406
21	118.80096387863159	movie	1		228	19.0	2.5	/experiments/knapen_AOT/AOT_stimuli/rescaled_final/1674_fw.mp4	0.0	223.58639097213745	2.433627128601074
21	119.12524199485779	pulse	1	t		19.0	2.5	/experiments/knapen_AOT/AOT_stimuli/rescaled_final/1674_fw.mp4	0.0	223.91066908836365	
21	120.72640800476074	pulse	1	t		19.0	2.5	/experiments/knapen_AOT/AOT_stimuli/rescaled_final/1674_fw.mp4	0.0	225.5118350982666	
21	121.23459100723267	fix_post	2		12	19.0	2.5	/experiments/knapen_AOT/AOT_stimuli/rescaled_final/1674_fw.mp4	0.0	226.02001810073853	0.10002899169921875
22	121.33461999893188	fix_pre	0		120	20.0	2.5	blank	1.0	226.12004709243774	1.0002069473266602
22	122.32654190063477	pulse	0	t		20.0	2.5	blank	1.0	227.11196899414062	
22	122.33482694625854	movie	1		301	20.0	2.5	blank	1.0	227.1202540397644	2.508638858795166
22	123.92714500427246	pulse	1	t		20.0	2.5	blank	1.0	228.71257209777832	
22	124.84346580505371	fix_post	2		12	20.0	2.5	blank	1.0	229.62889289855957	0.10001301765441895
23	124.94347882270813	fix_pre	0		120	21.0	2.5	/experiments/knapen_AOT/AOT_stimuli/rescaled_final/0060_rv.mp4	0.0	229.728905916214	1.09194016456604
23	125.5271508693695	pulse	0	t		21.0	2.5	/experiments/knapen_AOT/AOT_stimuli/rescaled_final/0060_rv.mp4	0.0	230.31257796287537	
23	126.03541898727417	movie	1		238	21.0	2.5	/experiments/knapen_AOT/AOT_stimuli/rescaled_final/0060_rv.mp4	0.0	230.82084608078003	2.408629894256592
23	127.12582492828369	pulse	1	t		21.0	2.5	/experiments/knapen_AOT/AOT_stimuli/rescaled_final/0060_rv.mp4	0.0	231.91125202178955	
23	128.44404888153076	fix_post	2		12	21.0	2.5	/experiments/knapen_AOT/AOT_stimuli/rescaled_final/0060_rv.mp4	0.0	233.22947597503662	0.0999290943145752
24	128.54397797584534	fix_pre	0		120	22.0	2.5	/experiments/knapen_AOT/AOT_stimuli/rescaled_final/1052_rv.mp4	0.0	233.3294050693512	1.0752158164978027
24	128.7276427745819	pulse	0	t		22.0	2.5	/experiments/knapen_AOT/AOT_stimuli/rescaled_final/1052_rv.mp4	0.0	233.51306986808777	
24	129.61919379234314	movie	1		231	22.0	2.5	/experiments/knapen_AOT/AOT_stimuli/rescaled_final/1052_rv.mp4	0.0	234.404620885849	2.433673143386841
24	130.3274438381195	pulse	1	t		22.0	2.5	/experiments/knapen_AOT/AOT_stimuli/rescaled_final/1052_rv.mp4	0.0	235.11287093162537	
24	131.92667198181152	pulse	1	t		22.0	2.5	/experiments/knapen_AOT/AOT_stimuli/rescaled_final/1052_rv.mp4	0.0	236.71209907531738	
24	132.05286693572998	fix_post	2		11	22.0	2.5	/experiments/knapen_AOT/AOT_stimuli/rescaled_final/1052_rv.mp4	0.0	236.83829402923584	0.09166288375854492
25	132.14452981948853	fix_pre	0		120	23.0	2.5	/experiments/knapen_AOT/AOT_stimuli/rescaled_final/0473_rv.mp4	0.0	236.92995691299438	1.0668561458587646
25	133.2113859653473	movie	1		234	23.0	2.5	/experiments/knapen_AOT/AOT_stimuli/rescaled_final/0473_rv.mp4	0.0	237.99681305885315	2.4253439903259277
25	133.52665400505066	pulse	1	t		23.0	2.5	/experiments/knapen_AOT/AOT_stimuli/rescaled_final/0473_rv.mp4	0.0	238.31208109855652	
25	135.12797498703003	pulse	1	t		23.0	2.5	/experiments/knapen_AOT/AOT_stimuli/rescaled_final/0473_rv.mp4	0.0	239.9134020805359	
25	135.63672995567322	fix_post	2		12	23.0	2.5	/experiments/knapen_AOT/AOT_stimuli/rescaled_final/0473_rv.mp4	0.0	240.42215704917908	0.10003185272216797
26	135.73676180839539	fix_pre	0		120	24.0	2.5	/experiments/knapen_AOT/AOT_stimuli/rescaled_final/0298_fw.mp4	0.0	240.52218890190125	1.0752360820770264
26	136.7287049293518	pulse	0	t		24.0	2.5	/experiments/knapen_AOT/AOT_stimuli/rescaled_final/0298_fw.mp4	0.0	241.51413202285767	
26	136.8119978904724	movie	1		249	24.0	2.5	/experiments/knapen_AOT/AOT_stimuli/rescaled_final/0298_fw.mp4	0.0	241.59742498397827	2.433605909347534
26	138.32737588882446	pulse	1	t		24.0	2.5	/experiments/knapen_AOT/AOT_stimuli/rescaled_final/0298_fw.mp4	0.0	243.11280298233032	
26	139.24560379981995	fix_post	2		12	24.0	2.5	/experiments/knapen_AOT/AOT_stimuli/rescaled_final/0298_fw.mp4	0.0	244.0310308933258	0.1000051498413086
27	139.34560894966125	fix_pre	0		120	25.0	2.5	/experiments/knapen_AOT/AOT_stimuli/rescaled_final/1941_rv.mp4	0.0	244.13103604316711	1.0502629280090332
27	139.92921996116638	pulse	0	t		25.0	2.5	/experiments/knapen_AOT/AOT_stimuli/rescaled_final/1941_rv.mp4	0.0	244.71464705467224	
27	140.3958718776703	movie	1		234	25.0	2.5	/experiments/knapen_AOT/AOT_stimuli/rescaled_final/1941_rv.mp4	0.0	245.18129897117615	2.4503490924835205
27	141.52847480773926	pulse	1	t		25.0	2.5	/experiments/knapen_AOT/AOT_stimuli/rescaled_final/1941_rv.mp4	0.0	246.31390190124512	
27	142.8462209701538	fix_post	2		12	25.0	2.5	/experiments/knapen_AOT/AOT_stimuli/rescaled_final/1941_rv.mp4	0.0	247.63164806365967	0.09992194175720215
28	142.946142911911	fix_pre	0		120	26.0	2.5	/experiments/knapen_AOT/AOT_stimuli/rescaled_final/0342_rv.mp4	0.0	247.73157000541687	1.0585448741912842
28	143.1296558380127	pulse	0	t		26.0	2.5	/experiments/knapen_AOT/AOT_stimuli/rescaled_final/0342_rv.mp4	0.0	247.91508293151855	
28	144.0046877861023	movie	1		243	26.0	2.5	/experiments/knapen_AOT/AOT_stimuli/rescaled_final/0342_rv.mp4	0.0	248.79011487960815	2.4420130252838135
28	144.72914695739746	pulse	1	t		26.0	2.5	/experiments/knapen_AOT/AOT_stimuli/rescaled_final/0342_rv.mp4	0.0	249.51457405090332	
28	146.32872581481934	pulse	1	t		26.0	2.5	/experiments/knapen_AOT/AOT_stimuli/rescaled_final/0342_rv.mp4	0.0	251.1141529083252	
28	146.4467008113861	fix_post	2		12	26.0	2.5	/experiments/knapen_AOT/AOT_stimuli/rescaled_final/0342_rv.mp4	0.0	251.23212790489197	0.10000419616699219
29	146.5467050075531	fix_pre	0		119	27.0	2.5	/experiments/knapen_AOT/AOT_stimuli/rescaled_final/0881_rv.mp4	0.0	251.33213210105896	1.041825771331787
29	147.5885307788849	movie	1		253	27.0	2.5	/experiments/knapen_AOT/AOT_stimuli/rescaled_final/0881_rv.mp4	0.0	252.37395787239075	2.4503681659698486
29	147.93057894706726	pulse	1	t		27.0	2.5	/experiments/knapen_AOT/AOT_stimuli/rescaled_final/0881_rv.mp4	0.0	252.71600604057312	
29	149.52913188934326	pulse	1	t		27.0	2.5	/experiments/knapen_AOT/AOT_stimuli/rescaled_final/0881_rv.mp4	0.0	254.31455898284912	
29	150.03889894485474	fix_post	2		12	27.0	2.5	/experiments/knapen_AOT/AOT_stimuli/rescaled_final/0881_rv.mp4	0.0	254.8243260383606	0.09998893737792969
30	150.13888788223267	fix_pre	0		120	28.0	2.5	blank	1.0	254.92431497573853	1.0002870559692383
30	151.12332391738892	pulse	0	t		28.0	2.5	blank	1.0	255.90875101089478	
30	151.1391749382019	movie	1		301	28.0	2.5	blank	1.0	255.92460203170776	2.50858998298645
30	152.72356486320496	pulse	1	t		28.0	2.5	blank	1.0	257.5089919567108	
30	153.64776492118835	fix_post	2		12	28.0	2.5	blank	1.0	258.4331920146942	0.0999898910522461
31	153.7477548122406	fix_pre	0		120	29.0	2.5	/experiments/knapen_AOT/AOT_stimuli/rescaled_final/1699_rv.mp4	0.0	258.53318190574646	1.0668551921844482
31	154.32388281822205	pulse	0	t		29.0	2.5	/experiments/knapen_AOT/AOT_stimuli/rescaled_final/1699_rv.mp4	0.0	259.1093099117279	
31	154.81461000442505	movie	1		233	29.0	2.5	/experiments/knapen_AOT/AOT_stimuli/rescaled_final/1699_rv.mp4	0.0	259.6000370979309	2.433764934539795
31	155.92328882217407	pulse	1	t		29.0	2.5	/experiments/knapen_AOT/AOT_stimuli/rescaled_final/1699_rv.mp4	0.0	260.70871591567993	
31	157.24837493896484	fix_post	2		12	29.0	2.5	/experiments/knapen_AOT/AOT_stimuli/rescaled_final/1699_rv.mp4	0.0	262.0338020324707	0.10001087188720703
32	157.34838581085205	fix_pre	0		115	30.0	2.5	/experiments/knapen_AOT/AOT_stimuli/rescaled_final/0223_rv.mp4	0.0	262.1338129043579	1.066892147064209
32	157.523521900177	pulse	0	t		30.0	2.5	/experiments/knapen_AOT/AOT_stimuli/rescaled_final/0223_rv.mp4	0.0	262.30894899368286	
32	158.41527795791626	movie	1		238	30.0	2.5	/experiments/knapen_AOT/AOT_stimuli/rescaled_final/0223_rv.mp4	0.0	263.2007050514221	2.4336118698120117
32	159.12376499176025	pulse	1	t		30.0	2.5	/experiments/knapen_AOT/AOT_stimuli/rescaled_final/0223_rv.mp4	0.0	263.9091920852661	
32	160.7239248752594	pulse	1	t		30.0	2.5	/experiments/knapen_AOT/AOT_stimuli/rescaled_final/0223_rv.mp4	0.0	265.50935196876526	
32	160.84888982772827	fix_post	2		11	30.0	2.5	/experiments/knapen_AOT/AOT_stimuli/rescaled_final/0223_rv.mp4	0.0	265.63431692123413	0.09173703193664551
33	160.94062685966492	fix_pre	0		120	31.0	2.5	/experiments/knapen_AOT/AOT_stimuli/rescaled_final/1470_rv.mp4	0.0	265.7260539531708	1.058459997177124
33	161.99908685684204	movie	1		232	31.0	2.5	/experiments/knapen_AOT/AOT_stimuli/rescaled_final/1470_rv.mp4	0.0	266.7845139503479	2.4419620037078857
33	162.3234989643097	pulse	1	t		31.0	2.5	/experiments/knapen_AOT/AOT_stimuli/rescaled_final/1470_rv.mp4	0.0	267.10892605781555	
33	163.92324686050415	pulse	1	t		31.0	2.5	/experiments/knapen_AOT/AOT_stimuli/rescaled_final/1470_rv.mp4	0.0	268.70867395401	
33	164.44104886054993	fix_post	2		12	31.0	2.5	/experiments/knapen_AOT/AOT_stimuli/rescaled_final/1470_rv.mp4	0.0	269.2264759540558	0.09998512268066406
34	164.5410339832306	fix_pre	0		119	32.0	2.5	/experiments/knapen_AOT/AOT_stimuli/rescaled_final/1677_fw.mp4	0.0	269.32646107673645	1.0501999855041504
34	165.5246570110321	pulse	0	t		32.0	2.5	/experiments/knapen_AOT/AOT_stimuli/rescaled_final/1677_fw.mp4	0.0	270.31008410453796	
34	165.59123396873474	movie	1		245	32.0	2.5	/experiments/knapen_AOT/AOT_stimuli/rescaled_final/1677_fw.mp4	0.0	270.3766610622406	2.450331926345825
34	167.125324010849	pulse	1	t		32.0	2.5	/experiments/knapen_AOT/AOT_stimuli/rescaled_final/1677_fw.mp4	0.0	271.91075110435486	
34	168.04156589508057	fix_post	2		12	32.0	2.5	/experiments/knapen_AOT/AOT_stimuli/rescaled_final/1677_fw.mp4	0.0	272.8269929885864	0.10000300407409668
35	168.14156889915466	fix_pre	0		120	33.0	2.5	/experiments/knapen_AOT/AOT_stimuli/rescaled_final/0606_rv.mp4	0.0	272.9269959926605	1.0752170085906982
35	168.72526788711548	pulse	0	t		33.0	2.5	/experiments/knapen_AOT/AOT_stimuli/rescaled_final/0606_rv.mp4	0.0	273.51069498062134	
35	169.21678590774536	movie	1		244	33.0	2.5	/experiments/knapen_AOT/AOT_stimuli/rescaled_final/0606_rv.mp4	0.0	274.0022130012512	2.42535400390625
35	170.3237919807434	pulse	1	t		33.0	2.5	/experiments/knapen_AOT/AOT_stimuli/rescaled_final/0606_rv.mp4	0.0	275.10921907424927	
35	171.6421399116516	fix_post	2		12	33.0	2.5	/experiments/knapen_AOT/AOT_stimuli/rescaled_final/0606_rv.mp4	0.0	276.42756700515747	0.10002803802490234
36	171.7421679496765	fix_pre	0		120	34.0	2.5	blank	1.0	276.5275950431824	1.0001120567321777
36	171.92567682266235	pulse	0	t		34.0	2.5	blank	1.0	276.7111039161682	
36	172.7422800064087	movie	1		300	34.0	2.5	blank	1.0	277.52770709991455	2.5003738403320312
36	173.52588391304016	pulse	1	t		34.0	2.5	blank	1.0	278.311311006546	
36	175.1261579990387	pulse	1	t		34.0	2.5	blank	1.0	279.91158509254456	
36	175.24265384674072	fix_post	2		12	34.0	2.5	blank	1.0	280.0280809402466	0.10000395774841309
37	175.34265780448914	fix_pre	0		120	35.0	2.5	/experiments/knapen_AOT/AOT_stimuli/rescaled_final/1894_rv.mp4	0.0	280.128084897995	1.058568000793457
37	176.4012258052826	movie	1		228	35.0	2.5	/experiments/knapen_AOT/AOT_stimuli/rescaled_final/1894_rv.mp4	0.0	281.18665289878845	2.4336140155792236
37	176.72600483894348	pulse	1	t		35.0	2.5	/experiments/knapen_AOT/AOT_stimuli/rescaled_final/1894_rv.mp4	0.0	281.51143193244934	
37	178.32503581047058	pulse	1	t		35.0	2.5	/experiments/knapen_AOT/AOT_stimuli/rescaled_final/1894_rv.mp4	0.0	283.11046290397644	
37	178.83483982086182	fix_post	2		12	35.0	2.5	/experiments/knapen_AOT/AOT_stimuli/rescaled_final/1894_rv.mp4	0.0	283.6202669143677	0.09996199607849121
38	178.9348018169403	fix_pre	0		120	36.0	2.5	/experiments/knapen_AOT/AOT_stimuli/rescaled_final/1699_rv.mp4	0.0	283.72022891044617	1.0586631298065186
38	179.9268298149109	pulse	0	t		36.0	2.5	/experiments/knapen_AOT/AOT_stimuli/rescaled_final/1699_rv.mp4	0.0	284.71225690841675	
38	179.99346494674683	movie	1		232	36.0	2.5	/experiments/knapen_AOT/AOT_stimuli/rescaled_final/1699_rv.mp4	0.0	284.7788920402527	2.450253963470459
38	181.52684783935547	pulse	1	t		36.0	2.5	/experiments/knapen_AOT/AOT_stimuli/rescaled_final/1699_rv.mp4	0.0	286.3122749328613	
38	182.44371891021729	fix_post	2		12	36.0	2.5	/experiments/knapen_AOT/AOT_stimuli/rescaled_final/1699_rv.mp4	0.0	287.22914600372314	0.09999990463256836
39	182.54371881484985	fix_pre	0		120	37.0	2.5	/experiments/knapen_AOT/AOT_stimuli/rescaled_final/0632_fw.mp4	0.0	287.3291459083557	1.0585591793060303
39	183.1272749900818	pulse	0	t		37.0	2.5	/experiments/knapen_AOT/AOT_stimuli/rescaled_final/0632_fw.mp4	0.0	287.91270208358765	
39	183.60227799415588	movie	1		227	37.0	2.5	/experiments/knapen_AOT/AOT_stimuli/rescaled_final/0632_fw.mp4	0.0	288.38770508766174	2.4420039653778076
39	184.72705578804016	pulse	1	t		37.0	2.5	/experiments/knapen_AOT/AOT_stimuli/rescaled_final/0632_fw.mp4	0.0	289.512482881546	
39	186.0442819595337	fix_post	2		12	37.0	2.5	/experiments/knapen_AOT/AOT_stimuli/rescaled_final/0632_fw.mp4	0.0	290.82970905303955	0.09998798370361328
40	186.1442699432373	fix_pre	0		120	38.0	2.5	/experiments/knapen_AOT/AOT_stimuli/rescaled_final/0375_fw.mp4	0.0	290.92969703674316	1.0671050548553467
40	186.32778596878052	pulse	0	t		38.0	2.5	/experiments/knapen_AOT/AOT_stimuli/rescaled_final/0375_fw.mp4	0.0	291.1132130622864	
40	187.21137499809265	movie	1		225	38.0	2.5	/experiments/knapen_AOT/AOT_stimuli/rescaled_final/0375_fw.mp4	0.0	291.9968020915985	2.4250948429107666
40	187.9282088279724	pulse	1	t		38.0	2.5	/experiments/knapen_AOT/AOT_stimuli/rescaled_final/0375_fw.mp4	0.0	292.71363592147827	
40	189.52675199508667	pulse	1	t		38.0	2.5	/experiments/knapen_AOT/AOT_stimuli/rescaled_final/0375_fw.mp4	0.0	294.31217908859253	
40	189.63646984100342	fix_post	2		13	38.0	2.5	/experiments/knapen_AOT/AOT_stimuli/rescaled_final/0375_fw.mp4	0.0	294.4218969345093	0.10836505889892578
41	189.74483489990234	fix_pre	0		120	39.0	2.5	/experiments/knapen_AOT/AOT_stimuli/rescaled_final/0448_rv.mp4	0.0	294.5302619934082	1.0751969814300537
41	190.8200318813324	movie	1		216	39.0	2.5	/experiments/knapen_AOT/AOT_stimuli/rescaled_final/0448_rv.mp4	0.0	295.60545897483826	2.4169609546661377
41	191.12724900245667	pulse	1	t		39.0	2.5	/experiments/knapen_AOT/AOT_stimuli/rescaled_final/0448_rv.mp4	0.0	295.9126760959625	
41	192.7287929058075	pulse	1	t		39.0	2.5	/experiments/knapen_AOT/AOT_stimuli/rescaled_final/0448_rv.mp4	0.0	297.51421999931335	
41	193.23699283599854	fix_post	2		12	39.0	2.5	/experiments/knapen_AOT/AOT_stimuli/rescaled_final/0448_rv.mp4	0.0	298.0224199295044	0.10003209114074707
42	193.33702492713928	fix_pre	0		120	40.0	2.5	/experiments/knapen_AOT/AOT_stimuli/rescaled_final/0673_rv.mp4	0.0	298.12245202064514	1.0751910209655762
42	194.32910990715027	pulse	0	t		40.0	2.5	/experiments/knapen_AOT/AOT_stimuli/rescaled_final/0673_rv.mp4	0.0	299.1145370006561	
42	194.41221594810486	movie	1		225	40.0	2.5	/experiments/knapen_AOT/AOT_stimuli/rescaled_final/0673_rv.mp4	0.0	299.1976430416107	2.433666944503784
42	195.92785000801086	pulse	1	t		40.0	2.5	/experiments/knapen_AOT/AOT_stimuli/rescaled_final/0673_rv.mp4	0.0	300.7132771015167	
42	196.84588289260864	fix_post	2		12	40.0	2.5	/experiments/knapen_AOT/AOT_stimuli/rescaled_final/0673_rv.mp4	0.0	301.6313099861145	0.10003304481506348
43	196.9459159374237	fix_pre	0		120	41.0	2.5	/experiments/knapen_AOT/AOT_stimuli/rescaled_final/2005_rv.mp4	0.0	301.73134303092957	1.0835959911346436
43	197.52952194213867	pulse	0	t		41.0	2.5	/experiments/knapen_AOT/AOT_stimuli/rescaled_final/2005_rv.mp4	0.0	302.31494903564453	
43	198.02951192855835	movie	1		235	41.0	2.5	/experiments/knapen_AOT/AOT_stimuli/rescaled_final/2005_rv.mp4	0.0	302.8149390220642	2.4168848991394043
43	199.1283597946167	pulse	1	t		41.0	2.5	/experiments/knapen_AOT/AOT_stimuli/rescaled_final/2005_rv.mp4	0.0	303.91378688812256	
43	200.44639682769775	fix_post	2		12	41.0	2.5	/experiments/knapen_AOT/AOT_stimuli/rescaled_final/2005_rv.mp4	0.0	305.2318239212036	0.10003495216369629
44	200.54643177986145	fix_pre	0		120	42.0	2.5	blank	1.0	305.3318588733673	1.0001611709594727
44	200.7300889492035	pulse	0	t		42.0	2.5	blank	1.0	305.51551604270935	
44	201.54659295082092	movie	1		300	42.0	2.5	blank	1.0	306.3320200443268	2.500349998474121
44	202.33020687103271	pulse	1	t		42.0	2.5	blank	1.0	307.1156339645386	
44	203.93049883842468	pulse	1	t		42.0	2.5	blank	1.0	308.71592593193054	
44	204.04694294929504	fix_post	2		12	42.0	2.5	blank	1.0	308.8323700428009	0.10004401206970215
45	204.14698696136475	fix_pre	0		120	43.0	2.5	/experiments/knapen_AOT/AOT_stimuli/rescaled_final/1124_rv.mp4	0.0	308.9324140548706	1.0835378170013428
45	205.2305247783661	movie	1		237	43.0	2.5	/experiments/knapen_AOT/AOT_stimuli/rescaled_final/1124_rv.mp4	0.0	310.01595187187195	2.408612012863159
45	205.5307159423828	pulse	1	t		43.0	2.5	/experiments/knapen_AOT/AOT_stimuli/rescaled_final/1124_rv.mp4	0.0	310.3161430358887	
45	207.12953877449036	pulse	1	t		43.0	2.5	/experiments/knapen_AOT/AOT_stimuli/rescaled_final/1124_rv.mp4	0.0	311.9149658679962	
45	207.63913679122925	fix_post	2		12	43.0	2.5	/experiments/knapen_AOT/AOT_stimuli/rescaled_final/1124_rv.mp4	0.0	312.4245638847351	0.10005712509155273
46	207.7391939163208	fix_pre	0		120	44.0	2.5	/experiments/knapen_AOT/AOT_stimuli/rescaled_final/0881_rv.mp4	0.0	312.52462100982666	1.0752110481262207
46	208.73130583763123	pulse	0	t		44.0	2.5	/experiments/knapen_AOT/AOT_stimuli/rescaled_final/0881_rv.mp4	0.0	313.5167329311371	
46	208.81440496444702	movie	1		228	44.0	2.5	/experiments/knapen_AOT/AOT_stimuli/rescaled_final/0881_rv.mp4	0.0	313.5998320579529	2.4336369037628174
46	210.32988595962524	pulse	1	t		44.0	2.5	/experiments/knapen_AOT/AOT_stimuli/rescaled_final/0881_rv.mp4	0.0	315.1153130531311	
46	211.24804186820984	fix_post	2		12	44.0	2.5	/experiments/knapen_AOT/AOT_stimuli/rescaled_final/0881_rv.mp4	0.0	316.0334689617157	0.10001611709594727
47	211.3480579853058	fix_pre	0		120	45.0	2.5	/experiments/knapen_AOT/AOT_stimuli/rescaled_final/1470_fw.mp4	0.0	316.13348507881165	1.0585968494415283
47	211.92404198646545	pulse	0	t		45.0	2.5	/experiments/knapen_AOT/AOT_stimuli/rescaled_final/1470_fw.mp4	0.0	316.7094690799713	
47	212.40665483474731	movie	1		235	45.0	2.5	/experiments/knapen_AOT/AOT_stimuli/rescaled_final/1470_fw.mp4	0.0	317.1920819282532	2.441905975341797
47	213.53198194503784	pulse	1	t		45.0	2.5	/experiments/knapen_AOT/AOT_stimuli/rescaled_final/1470_fw.mp4	0.0	318.3174090385437	
47	214.8485608100891	fix_post	2		12	45.0	2.5	/experiments/knapen_AOT/AOT_stimuli/rescaled_final/1470_fw.mp4	0.0	319.63398790359497	0.09998703002929688
48	214.9485478401184	fix_pre	0		120	46.0	2.5	/experiments/knapen_AOT/AOT_stimuli/rescaled_final/0787_fw.mp4	0.0	319.73397493362427	1.083644151687622
48	215.12453198432922	pulse	0	t		46.0	2.5	/experiments/knapen_AOT/AOT_stimuli/rescaled_final/0787_fw.mp4	0.0	319.9099590778351	
48	216.03219199180603	movie	1		238	46.0	2.5	/experiments/knapen_AOT/AOT_stimuli/rescaled_final/0787_fw.mp4	0.0	320.8176190853119	2.4169609546661377
48	216.7239978313446	pulse	1	t		46.0	2.5	/experiments/knapen_AOT/AOT_stimuli/rescaled_final/0787_fw.mp4	0.0	321.50942492485046	
48	218.32471990585327	pulse	1	t		46.0	2.5	/experiments/knapen_AOT/AOT_stimuli/rescaled_final/0787_fw.mp4	0.0	323.11014699935913	
48	218.44915294647217	fix_post	2		12	46.0	2.5	/experiments/knapen_AOT/AOT_stimuli/rescaled_final/0787_fw.mp4	0.0	323.234580039978	0.09994983673095703
49	218.54910278320312	fix_pre	0		120	47.0	2.5	blank	1.0	323.334529876709	1.0001461505889893
49	219.54924893379211	movie	1		299	47.0	2.5	blank	1.0	324.334676027298	2.492079973220825
49	219.92455101013184	pulse	1	t		47.0	2.5	blank	1.0	324.7099781036377	
49	221.5247039794922	pulse	1	t		47.0	2.5	blank	1.0	326.31013107299805	
49	222.04132890701294	fix_post	2		12	47.0	2.5	blank	1.0	326.8267560005188	0.09997797012329102
50	222.14130687713623	fix_pre	0		119	48.0	2.5	/experiments/knapen_AOT/AOT_stimuli/rescaled_final/1068_rv.mp4	0.0	326.9267339706421	1.0835680961608887
50	223.12511777877808	pulse	0	t		48.0	2.5	/experiments/knapen_AOT/AOT_stimuli/rescaled_final/1068_rv.mp4	0.0	327.91054487228394	
50	223.22487497329712	movie	1		241	48.0	2.5	/experiments/knapen_AOT/AOT_stimuli/rescaled_final/1068_rv.mp4	0.0	328.010302066803	2.416958808898926
50	224.72541093826294	pulse	1	t		48.0	2.5	/experiments/knapen_AOT/AOT_stimuli/rescaled_final/1068_rv.mp4	0.0	329.5108380317688	
50	225.64183378219604	fix_post	2		12	48.0	2.5	/experiments/knapen_AOT/AOT_stimuli/rescaled_final/1068_rv.mp4	0.0	330.4272608757019	0.09999203681945801
51	225.7418258190155	fix_pre	0		120	49.0	2.5	/experiments/knapen_AOT/AOT_stimuli/rescaled_final/1740_fw.mp4	0.0	330.52725291252136	1.0836331844329834
51	226.32549285888672	pulse	0	t		49.0	2.5	/experiments/knapen_AOT/AOT_stimuli/rescaled_final/1740_fw.mp4	0.0	331.1109199523926	
51	226.8254590034485	movie	1		231	49.0	2.5	/experiments/knapen_AOT/AOT_stimuli/rescaled_final/1740_fw.mp4	0.0	331.61088609695435	2.4252429008483887
51	227.92421579360962	pulse	1	t		49.0	2.5	/experiments/knapen_AOT/AOT_stimuli/rescaled_final/1740_fw.mp4	0.0	332.7096428871155	
51	229.25070190429688	fix_post	2		11	49.0	2.5	/experiments/knapen_AOT/AOT_stimuli/rescaled_final/1740_fw.mp4	0.0	334.03612899780273	0.09167599678039551
52	229.34237790107727	fix_pre	0		120	50.0	2.5	/experiments/knapen_AOT/AOT_stimuli/rescaled_final/0810_fw.mp4	0.0	334.12780499458313	1.066857099533081
52	229.5259850025177	pulse	0	t		50.0	2.5	/experiments/knapen_AOT/AOT_stimuli/rescaled_final/0810_fw.mp4	0.0	334.31141209602356	
52	230.40923500061035	movie	1		241	50.0	2.5	/experiments/knapen_AOT/AOT_stimuli/rescaled_final/0810_fw.mp4	0.0	335.1946620941162	2.433790922164917
52	231.12632989883423	pulse	1	t		50.0	2.5	/experiments/knapen_AOT/AOT_stimuli/rescaled_final/0810_fw.mp4	0.0	335.9117569923401	
52	232.72483897209167	pulse	1	t		50.0	2.5	/experiments/knapen_AOT/AOT_stimuli/rescaled_final/0810_fw.mp4	0.0	337.51026606559753	
52	232.84302592277527	fix_post	2		12	50.0	2.5	/experiments/knapen_AOT/AOT_stimuli/rescaled_final/0810_fw.mp4	0.0	337.6284530162811	0.099884033203125
53	232.9429099559784	fix_pre	0		120	51.0	2.5	/experiments/knapen_AOT/AOT_stimuli/rescaled_final/1362_rv.mp4	0.0	337.72833704948425	1.0920460224151611
53	234.03495597839355	movie	1		220	51.0	2.5	/experiments/knapen_AOT/AOT_stimuli/rescaled_final/1362_rv.mp4	0.0	338.8203830718994	2.4084928035736084
53	234.32669281959534	pulse	1	t		51.0	2.5	/experiments/knapen_AOT/AOT_stimuli/rescaled_final/1362_rv.mp4	0.0	339.1121199131012	
53	235.9253158569336	pulse	1	t		51.0	2.5	/experiments/knapen_AOT/AOT_stimuli/rescaled_final/1362_rv.mp4	0.0	340.71074295043945	
53	236.44344878196716	fix_post	2		11	51.0	2.5	/experiments/knapen_AOT/AOT_stimuli/rescaled_final/1362_rv.mp4	0.0	341.228875875473	0.09172606468200684
54	236.53517484664917	fix_pre	0		120	52.0	2.5	/experiments/knapen_AOT/AOT_stimuli/rescaled_final/0602_rv.mp4	0.0	341.32060194015503	1.0584750175476074
54	237.52727890014648	pulse	0	t		52.0	2.5	/experiments/knapen_AOT/AOT_stimuli/rescaled_final/0602_rv.mp4	0.0	342.31270599365234	
54	237.59364986419678	movie	1		246	52.0	2.5	/experiments/knapen_AOT/AOT_stimuli/rescaled_final/0602_rv.mp4	0.0	342.37907695770264	2.450324058532715
54	239.1268048286438	pulse	1	t		52.0	2.5	/experiments/knapen_AOT/AOT_stimuli/rescaled_final/0602_rv.mp4	0.0	343.91223192214966	
54	240.0439739227295	fix_post	2		12	52.0	2.5	/experiments/knapen_AOT/AOT_stimuli/rescaled_final/0602_rv.mp4	0.0	344.82940101623535	0.10008096694946289
55	240.14405488967896	fix_pre	0		120	53.0	2.5	/experiments/knapen_AOT/AOT_stimuli/rescaled_final/1232_rv.mp4	0.0	344.9294819831848	1.0752079486846924
55	240.72762084007263	pulse	0	t		53.0	2.5	/experiments/knapen_AOT/AOT_stimuli/rescaled_final/1232_rv.mp4	0.0	345.5130479335785	
55	241.21926283836365	movie	1		236	53.0	2.5	/experiments/knapen_AOT/AOT_stimuli/rescaled_final/1232_rv.mp4	0.0	346.0046899318695	2.425251007080078
55	242.32621598243713	pulse	1	t		53.0	2.5	/experiments/knapen_AOT/AOT_stimuli/rescaled_final/1232_rv.mp4	0.0	347.111643075943	
55	243.64451384544373	fix_post	2		12	53.0	2.5	/experiments/knapen_AOT/AOT_stimuli/rescaled_final/1232_rv.mp4	0.0	348.4299409389496	0.10003399848937988
56	243.7445478439331	fix_pre	0		120	54.0	2.5	/experiments/knapen_AOT/AOT_stimuli/rescaled_final/1958_rv.mp4	0.0	348.52997493743896	1.0672881603240967
56	243.92822790145874	pulse	0	t		54.0	2.5	/experiments/knapen_AOT/AOT_stimuli/rescaled_final/1958_rv.mp4	0.0	348.7136549949646	
56	244.8118360042572	movie	1		230	54.0	2.5	/experiments/knapen_AOT/AOT_stimuli/rescaled_final/1958_rv.mp4	0.0	349.59726309776306	2.4332218170166016
56	245.52839994430542	pulse	1	t		54.0	2.5	/experiments/knapen_AOT/AOT_stimuli/rescaled_final/1958_rv.mp4	0.0	350.3138270378113	
56	247.12700295448303	pulse	1	t		54.0	2.5	/experiments/knapen_AOT/AOT_stimuli/rescaled_final/1958_rv.mp4	0.0	351.9124300479889	
56	247.2450578212738	fix_post	2		12	54.0	2.5	/experiments/knapen_AOT/AOT_stimuli/rescaled_final/1958_rv.mp4	0.0	352.03048491477966	0.10003304481506348
57	247.34509086608887	fix_pre	0		120	55.0	2.5	blank	1.0	352.1305179595947	1.0003149509429932
57	248.34540581703186	movie	1		299	55.0	2.5	blank	1.0	353.1308329105377	2.4918770790100098
57	248.72876596450806	pulse	1	t		55.0	2.5	blank	1.0	353.5141930580139	
57	250.32897877693176	pulse	1	t		55.0	2.5	blank	1.0	355.1144058704376	
57	250.83728289604187	fix_post	2		12	55.0	2.5	blank	1.0	355.62270998954773	0.10001111030578613
58	250.93729400634766	fix_pre	0		120	56.0	2.5	/experiments/knapen_AOT/AOT_stimuli/rescaled_final/0551_fw.mp4	0.0	355.7227210998535	1.05861496925354
58	251.9293029308319	pulse	0	t		56.0	2.5	/experiments/knapen_AOT/AOT_stimuli/rescaled_final/0551_fw.mp4	0.0	356.71473002433777	
58	251.9959089756012	movie	1		252	56.0	2.5	/experiments/knapen_AOT/AOT_stimuli/rescaled_final/0551_fw.mp4	0.0	356.78133606910706	2.4502148628234863
58	253.52846479415894	pulse	1	t		56.0	2.5	/experiments/knapen_AOT/AOT_stimuli/rescaled_final/0551_fw.mp4	0.0	358.3138918876648	
58	254.44612383842468	fix_post	2		12	56.0	2.5	/experiments/knapen_AOT/AOT_stimuli/rescaled_final/0551_fw.mp4	0.0	359.23155093193054	0.10004711151123047
59	254.5461709499359	fix_pre	0		120	57.0	2.5	/experiments/knapen_AOT/AOT_stimuli/rescaled_final/0310_rv.mp4	0.0	359.3315980434418	1.0918889045715332
59	255.1297209262848	pulse	0	t		57.0	2.5	/experiments/knapen_AOT/AOT_stimuli/rescaled_final/0310_rv.mp4	0.0	359.91514801979065	
59	255.63805985450745	movie	1		239	57.0	2.5	/experiments/knapen_AOT/AOT_stimuli/rescaled_final/0310_rv.mp4	0.0	360.4234869480133	2.408616065979004
59	256.7284438610077	pulse	1	t		57.0	2.5	/experiments/knapen_AOT/AOT_stimuli/rescaled_final/0310_rv.mp4	0.0	361.51387095451355	
59	258.04667592048645	fix_post	2		12	57.0	2.5	/experiments/knapen_AOT/AOT_stimuli/rescaled_final/0310_rv.mp4	0.0	362.8321030139923	0.10000896453857422
60	258.146684885025	fix_pre	0		120	58.0	2.5	/experiments/knapen_AOT/AOT_stimuli/rescaled_final/2005_rv.mp4	0.0	362.9321119785309	1.0835959911346436
60	258.3303987979889	pulse	0	t		58.0	2.5	/experiments/knapen_AOT/AOT_stimuli/rescaled_final/2005_rv.mp4	0.0	363.11582589149475	
60	259.23028087615967	movie	1		233	58.0	2.5	/experiments/knapen_AOT/AOT_stimuli/rescaled_final/2005_rv.mp4	0.0	364.0157079696655	2.416923999786377
60	259.92946600914	pulse	1	t		58.0	2.5	/experiments/knapen_AOT/AOT_stimuli/rescaled_final/2005_rv.mp4	0.0	364.7148931026459	
60	261.53076696395874	pulse	1	t		58.0	2.5	/experiments/knapen_AOT/AOT_stimuli/rescaled_final/2005_rv.mp4	0.0	366.3161940574646	
60	261.64720487594604	fix_post	2		12	58.0	2.5	/experiments/knapen_AOT/AOT_stimuli/rescaled_final/2005_rv.mp4	0.0	366.4326319694519	0.10004091262817383
61	261.7472457885742	fix_pre	0		120	59.0	2.5	/experiments/knapen_AOT/AOT_stimuli/rescaled_final/0285_fw.mp4	0.0	366.5326728820801	1.0667860507965088
61	262.8140318393707	movie	1		245	59.0	2.5	/experiments/knapen_AOT/AOT_stimuli/rescaled_final/0285_fw.mp4	0.0	367.5994589328766	2.425443172454834
61	263.12932991981506	pulse	1	t		59.0	2.5	/experiments/knapen_AOT/AOT_stimuli/rescaled_final/0285_fw.mp4	0.0	367.9147570133209	
61	264.72618198394775	pulse	1	t		59.0	2.5	/experiments/knapen_AOT/AOT_stimuli/rescaled_final/0285_fw.mp4	0.0	369.5116090774536	
61	265.23947501182556	fix_post	2		12	59.0	2.5	/experiments/knapen_AOT/AOT_stimuli/rescaled_final/0285_fw.mp4	0.0	370.0249021053314	0.09997296333312988
62	265.3394479751587	fix_pre	0		120	60.0	2.5	/experiments/knapen_AOT/AOT_stimuli/rescaled_final/0054_fw.mp4	0.0	370.12487506866455	1.0585780143737793
62	266.3239018917084	pulse	0	t		60.0	2.5	/experiments/knapen_AOT/AOT_stimuli/rescaled_final/0054_fw.mp4	0.0	371.10932898521423	
62	266.39802598953247	movie	1		230	60.0	2.5	/experiments/knapen_AOT/AOT_stimuli/rescaled_final/0054_fw.mp4	0.0	371.18345308303833	2.4502627849578857
62	267.9313488006592	pulse	1	t		60.0	2.5	/experiments/knapen_AOT/AOT_stimuli/rescaled_final/0054_fw.mp4	0.0	372.71677589416504	
62	268.84828877449036	fix_post	2		12	60.0	2.5	/experiments/knapen_AOT/AOT_stimuli/rescaled_final/0054_fw.mp4	0.0	373.6337158679962	0.1000370979309082
63	268.94832587242126	fix_pre	0		120	61.0	2.5	/experiments/knapen_AOT/AOT_stimuli/rescaled_final/1050_fw.mp4	0.0	373.7337529659271	1.0502209663391113
63	269.524356842041	pulse	0	t		61.0	2.5	/experiments/knapen_AOT/AOT_stimuli/rescaled_final/1050_fw.mp4	0.0	374.3097839355469	
63	269.9985468387604	movie	1		231	61.0	2.5	/experiments/knapen_AOT/AOT_stimuli/rescaled_final/1050_fw.mp4	0.0	374.78397393226624	2.450277090072632
63	271.13222885131836	pulse	1	t		61.0	2.5	/experiments/knapen_AOT/AOT_stimuli/rescaled_final/1050_fw.mp4	0.0	375.9176559448242	
63	272.448823928833	fix_post	2		12	61.0	2.5	/experiments/knapen_AOT/AOT_stimuli/rescaled_final/1050_fw.mp4	0.0	377.23425102233887	0.10002684593200684
64	272.548850774765	fix_pre	0		120	62.0	2.5	/experiments/knapen_AOT/AOT_stimuli/rescaled_final/1376_rv.mp4	0.0	377.3342778682709	1.0919151306152344
64	272.723995923996	pulse	0	t		62.0	2.5	/experiments/knapen_AOT/AOT_stimuli/rescaled_final/1376_rv.mp4	0.0	377.50942301750183	
64	273.64076590538025	movie	1		222	62.0	2.5	/experiments/knapen_AOT/AOT_stimuli/rescaled_final/1376_rv.mp4	0.0	378.4261929988861	2.4086239337921143
64	274.32430696487427	pulse	1	t		62.0	2.5	/experiments/knapen_AOT/AOT_stimuli/rescaled_final/1376_rv.mp4	0.0	379.1097340583801	
64	275.92440581321716	pulse	1	t		62.0	2.5	/experiments/knapen_AOT/AOT_stimuli/rescaled_final/1376_rv.mp4	0.0	380.709832906723	
64	276.04938983917236	fix_post	2		12	62.0	2.5	/experiments/knapen_AOT/AOT_stimuli/rescaled_final/1376_rv.mp4	0.0	380.8348169326782	0.09999895095825195
65	276.1493887901306	fix_pre	0		120	63.0	2.5	blank	1.0	380.9348158836365	1.0001590251922607
65	277.1495478153229	movie	1		299	63.0	2.5	blank	1.0	381.93497490882874	2.4920060634613037
65	277.52472496032715	pulse	1	t		63.0	2.5	blank	1.0	382.310152053833	
65	279.12499380111694	pulse	1	t		63.0	2.5	blank	1.0	383.9104208946228	
65	279.6415538787842	fix_post	2		12	63.0	2.5	blank	1.0	384.42698097229004	0.10001111030578613
66	279.74156498908997	fix_pre	0		119	64.0	2.5	/experiments/knapen_AOT/AOT_stimuli/rescaled_final/0375_rv.mp4	0.0	384.5269920825958	1.0752778053283691
66	280.72520899772644	pulse	0	t		64.0	2.5	/experiments/knapen_AOT/AOT_stimuli/rescaled_final/0375_rv.mp4	0.0	385.5106360912323	
66	280.81684279441833	movie	1		222	64.0	2.5	/experiments/knapen_AOT/AOT_stimuli/rescaled_final/0375_rv.mp4	0.0	385.6022698879242	2.4252450466156006
66	282.3256199359894	pulse	1	t		64.0	2.5	/experiments/knapen_AOT/AOT_stimuli/rescaled_final/0375_rv.mp4	0.0	387.11104702949524	
66	283.24208784103394	fix_post	2		12	64.0	2.5	/experiments/knapen_AOT/AOT_stimuli/rescaled_final/0375_rv.mp4	0.0	388.0275149345398	0.10001897811889648
67	283.34210681915283	fix_pre	0		120	65.0	2.5	/experiments/knapen_AOT/AOT_stimuli/rescaled_final/2075_rv.mp4	0.0	388.1275339126587	1.0669009685516357
67	283.9257459640503	pulse	0	t		65.0	2.5	/experiments/knapen_AOT/AOT_stimuli/rescaled_final/2075_rv.mp4	0.0	388.71117305755615	
67	284.40900778770447	movie	1		225	65.0	2.5	/experiments/knapen_AOT/AOT_stimuli/rescaled_final/2075_rv.mp4	0.0	389.1944348812103	2.433629035949707
67	285.52469778060913	pulse	1	t		65.0	2.5	/experiments/knapen_AOT/AOT_stimuli/rescaled_final/2075_rv.mp4	0.0	390.310124874115	
67	286.8426368236542	fix_post	2		12	65.0	2.5	/experiments/knapen_AOT/AOT_stimuli/rescaled_final/2075_rv.mp4	0.0	391.62806391716003	0.1000370979309082
68	286.9426739215851	fix_pre	0		120	66.0	2.5	/experiments/knapen_AOT/AOT_stimuli/rescaled_final/0841_rv.mp4	0.0	391.72810101509094	1.0669128894805908
68	287.1261727809906	pulse	0	t		66.0	2.5	/experiments/knapen_AOT/AOT_stimuli/rescaled_final/0841_rv.mp4	0.0	391.91159987449646	
68	288.0095868110657	movie	1		235	66.0	2.5	/experiments/knapen_AOT/AOT_stimuli/rescaled_final/0841_rv.mp4	0.0	392.79501390457153	2.4335970878601074
68	288.7252719402313	pulse	1	t		66.0	2.5	/experiments/knapen_AOT/AOT_stimuli/rescaled_final/0841_rv.mp4	0.0	393.5106990337372	
68	290.3254849910736	pulse	1	t		66.0	2.5	/experiments/knapen_AOT/AOT_stimuli/rescaled_final/0841_rv.mp4	0.0	395.11091208457947	
68	290.4431838989258	fix_post	2		12	66.0	2.5	/experiments/knapen_AOT/AOT_stimuli/rescaled_final/0841_rv.mp4	0.0	395.22861099243164	0.10001897811889648
69	290.5432028770447	fix_pre	0		119	67.0	2.5	/experiments/knapen_AOT/AOT_stimuli/rescaled_final/1450_rv.mp4	0.0	395.32862997055054	1.05861496925354
69	291.6018178462982	movie	1		228	67.0	2.5	/experiments/knapen_AOT/AOT_stimuli/rescaled_final/1450_rv.mp4	0.0	396.3872449398041	2.4335711002349854
69	291.92660784721375	pulse	1	t		67.0	2.5	/experiments/knapen_AOT/AOT_stimuli/rescaled_final/1450_rv.mp4	0.0	396.7120349407196	
69	293.5257987976074	pulse	1	t		67.0	2.5	/experiments/knapen_AOT/AOT_stimuli/rescaled_final/1450_rv.mp4	0.0	398.3112258911133	
69	294.0353889465332	fix_post	2		12	67.0	2.5	/experiments/knapen_AOT/AOT_stimuli/rescaled_final/1450_rv.mp4	0.0	398.82081604003906	0.10000300407409668
70	294.1353919506073	fix_pre	0		120	68.0	2.5	/experiments/knapen_AOT/AOT_stimuli/rescaled_final/0223_fw.mp4	0.0	398.92081904411316	1.0586168766021729
70	295.12739992141724	pulse	0	t		68.0	2.5	/experiments/knapen_AOT/AOT_stimuli/rescaled_final/0223_fw.mp4	0.0	399.9128270149231	
70	295.1940088272095	movie	1		231	68.0	2.5	/experiments/knapen_AOT/AOT_stimuli/rescaled_final/0223_fw.mp4	0.0	399.97943592071533	2.4502251148223877
70	296.72667694091797	pulse	1	t		68.0	2.5	/experiments/knapen_AOT/AOT_stimuli/rescaled_final/0223_fw.mp4	0.0	401.5121040344238	
70	297.64423394203186	fix_post	2		12	68.0	2.5	/experiments/knapen_AOT/AOT_stimuli/rescaled_final/0223_fw.mp4	0.0	402.4296610355377	0.10002684593200684
71	297.74426078796387	fix_pre	0		120	69.0	2.5	blank	1.0	402.5296878814697	1.0001611709594727
71	298.32792496681213	pulse	0	t		69.0	2.5	blank	1.0	403.113352060318	
71	298.74442195892334	movie	1		300	69.0	2.5	blank	1.0	403.5298490524292	2.500401020050049
71	299.9282670021057	pulse	1	t		69.0	2.5	blank	1.0	404.7136940956116	
71	301.2448229789734	fix_post	2		12	69.0	2.5	blank	1.0	406.03025007247925	0.09996294975280762
72	301.3447859287262	fix_pre	0		120	70.0	2.5	/experiments/knapen_AOT/AOT_stimuli/rescaled_final/1026_rv.mp4	0.0	406.13021302223206	1.075411081314087
72	301.5283319950104	pulse	0	t		70.0	2.5	/experiments/knapen_AOT/AOT_stimuli/rescaled_final/1026_rv.mp4	0.0	406.31375908851624	
72	302.4201970100403	movie	1		221	70.0	2.5	/experiments/knapen_AOT/AOT_stimuli/rescaled_final/1026_rv.mp4	0.0	407.20562410354614	2.416825771331787
72	303.1286678314209	pulse	1	t		70.0	2.5	/experiments/knapen_AOT/AOT_stimuli/rescaled_final/1026_rv.mp4	0.0	407.91409492492676	
72	304.72717785835266	pulse	1	t		70.0	2.5	/experiments/knapen_AOT/AOT_stimuli/rescaled_final/1026_rv.mp4	0.0	409.5126049518585	
72	304.83702278137207	fix_post	2		9	70.0	2.5	/experiments/knapen_AOT/AOT_stimuli/rescaled_final/1026_rv.mp4	0.0	409.62244987487793	0.10833311080932617
73	304.9453558921814	fix_pre	0		120	71.0	2.5	/experiments/knapen_AOT/AOT_stimuli/rescaled_final/1343_rv.mp4	0.0	409.73078298568726	1.0835990905761719
73	306.02895498275757	movie	1		213	71.0	2.5	/experiments/knapen_AOT/AOT_stimuli/rescaled_final/1343_rv.mp4	0.0	410.8143820762634	2.408576011657715
73	306.32773184776306	pulse	1	t		71.0	2.5	/experiments/knapen_AOT/AOT_stimuli/rescaled_final/1343_rv.mp4	0.0	411.1131589412689	
73	307.9278438091278	pulse	1	t		71.0	2.5	/experiments/knapen_AOT/AOT_stimuli/rescaled_final/1343_rv.mp4	0.0	412.71327090263367	
73	308.4375309944153	fix_post	2		12	71.0	2.5	/experiments/knapen_AOT/AOT_stimuli/rescaled_final/1343_rv.mp4	0.0	413.22295808792114	0.09999680519104004
74	308.5375277996063	fix_pre	0		120	72.0	2.5	/experiments/knapen_AOT/AOT_stimuli/rescaled_final/1355_fw.mp4	0.0	413.3229548931122	1.0918910503387451
74	309.5295310020447	pulse	0	t		72.0	2.5	/experiments/knapen_AOT/AOT_stimuli/rescaled_final/1355_fw.mp4	0.0	414.31495809555054	
74	309.62941884994507	movie	1		260	72.0	2.5	/experiments/knapen_AOT/AOT_stimuli/rescaled_final/1355_fw.mp4	0.0	414.4148459434509	2.4169671535491943
74	311.1287479400635	pulse	1	t		72.0	2.5	/experiments/knapen_AOT/AOT_stimuli/rescaled_final/1355_fw.mp4	0.0	415.91417503356934	
74	312.04638600349426	fix_post	2		12	72.0	2.5	/experiments/knapen_AOT/AOT_stimuli/rescaled_final/1355_fw.mp4	0.0	416.8318130970001	0.10002779960632324
75	312.1464138031006	fix_pre	0		120	73.0	2.5	/experiments/knapen_AOT/AOT_stimuli/rescaled_final/0302_rv.mp4	0.0	416.93184089660645	1.0502049922943115
75	312.73000478744507	pulse	0	t		73.0	2.5	/experiments/knapen_AOT/AOT_stimuli/rescaled_final/0302_rv.mp4	0.0	417.5154318809509	
75	313.1966187953949	movie	1		245	73.0	2.5	/experiments/knapen_AOT/AOT_stimuli/rescaled_final/0302_rv.mp4	0.0	417.98204588890076	2.4503471851348877
75	314.33041286468506	pulse	1	t		73.0	2.5	/experiments/knapen_AOT/AOT_stimuli/rescaled_final/0302_rv.mp4	0.0	419.1158399581909	
75	315.6469659805298	fix_post	2		12	73.0	2.5	/experiments/knapen_AOT/AOT_stimuli/rescaled_final/0302_rv.mp4	0.0	420.43239307403564	0.10000491142272949
76	315.7469708919525	fix_pre	0		120	74.0	2.5	/experiments/knapen_AOT/AOT_stimuli/rescaled_final/0070_rv.mp4	0.0	420.5323979854584	1.083556890487671
76	315.9304859638214	pulse	0	t		74.0	2.5	/experiments/knapen_AOT/AOT_stimuli/rescaled_final/0070_rv.mp4	0.0	420.71591305732727	
76	316.8305277824402	movie	1		253	74.0	2.5	/experiments/knapen_AOT/AOT_stimuli/rescaled_final/0070_rv.mp4	0.0	421.61595487594604	2.4169561862945557
76	317.52964091300964	pulse	1	t		74.0	2.5	/experiments/knapen_AOT/AOT_stimuli/rescaled_final/0070_rv.mp4	0.0	422.3150680065155	
76	319.13103890419006	pulse	1	t		74.0	2.5	/experiments/knapen_AOT/AOT_stimuli/rescaled_final/0070_rv.mp4	0.0	423.9164659976959	
76	319.24748396873474	fix_post	2		12	74.0	2.5	/experiments/knapen_AOT/AOT_stimuli/rescaled_final/0070_rv.mp4	0.0	424.0329110622406	0.09999895095825195
77	319.347482919693	fix_pre	0		119	75.0	2.5	blank	1.0	424.13291001319885	0.9918789863586426
77	320.33936190605164	movie	1		300	75.0	2.5	blank	1.0	425.1247889995575	2.5003609657287598
77	320.7313368320465	pulse	1	t		75.0	2.5	blank	1.0	425.51676392555237	
77	322.3314139842987	pulse	1	t		75.0	2.5	blank	1.0	427.11684107780457	
77	322.8397228717804	fix_post	2		12	75.0	2.5	blank	1.0	427.62514996528625	0.0999751091003418
78	322.93969798088074	fix_pre	0		120	76.0	2.5	/experiments/knapen_AOT/AOT_stimuli/rescaled_final/1336_rv.mp4	0.0	427.7251250743866	1.0753419399261475
78	323.9243018627167	pulse	0	t		76.0	2.5	/experiments/knapen_AOT/AOT_stimuli/rescaled_final/1336_rv.mp4	0.0	428.70972895622253	
78	324.0150399208069	movie	1		244	76.0	2.5	/experiments/knapen_AOT/AOT_stimuli/rescaled_final/1336_rv.mp4	0.0	428.80046701431274	2.4335179328918457
78	325.53019881248474	pulse	1	t		76.0	2.5	/experiments/knapen_AOT/AOT_stimuli/rescaled_final/1336_rv.mp4	0.0	430.3156259059906	
78	326.44855785369873	fix_post	2		12	76.0	2.5	/experiments/knapen_AOT/AOT_stimuli/rescaled_final/1336_rv.mp4	0.0	431.2339849472046	0.09999704360961914
79	326.54855489730835	fix_pre	0		120	77.0	2.5	/experiments/knapen_AOT/AOT_stimuli/rescaled_final/0641_rv.mp4	0.0	431.3339819908142	1.0585908889770508
79	327.12463879585266	pulse	0	t		77.0	2.5	/experiments/knapen_AOT/AOT_stimuli/rescaled_final/0641_rv.mp4	0.0	431.9100658893585	
79	327.6071457862854	movie	1		254	77.0	2.5	/experiments/knapen_AOT/AOT_stimuli/rescaled_final/0641_rv.mp4	0.0	432.39257287979126	2.44197416305542
79	328.73197889328003	pulse	1	t		77.0	2.5	/experiments/knapen_AOT/AOT_stimuli/rescaled_final/0641_rv.mp4	0.0	433.5174059867859	
79	330.0491199493408	fix_post	2		12	77.0	2.5	/experiments/knapen_AOT/AOT_stimuli/rescaled_final/0641_rv.mp4	0.0	434.8345470428467	0.09999394416809082
80	330.1491138935089	fix_pre	0		120	78.0	2.5	/experiments/knapen_AOT/AOT_stimuli/rescaled_final/1035_fw.mp4	0.0	434.93454098701477	1.0502090454101562
80	330.32511281967163	pulse	0	t		78.0	2.5	/experiments/knapen_AOT/AOT_stimuli/rescaled_final/1035_fw.mp4	0.0	435.1105399131775	
80	331.19932293891907	movie	1		247	78.0	2.5	/experiments/knapen_AOT/AOT_stimuli/rescaled_final/1035_fw.mp4	0.0	435.9847500324249	2.450317859649658
80	331.9244689941406	pulse	1	t		78.0	2.5	/experiments/knapen_AOT/AOT_stimuli/rescaled_final/1035_fw.mp4	0.0	436.7098960876465	
80	333.52475595474243	pulse	1	t		78.0	2.5	/experiments/knapen_AOT/AOT_stimuli/rescaled_final/1035_fw.mp4	0.0	438.3101830482483	
80	333.6496407985687	fix_post	2		12	78.0	2.5	/experiments/knapen_AOT/AOT_stimuli/rescaled_final/1035_fw.mp4	0.0	438.4350678920746	0.09997820854187012
81	333.7496190071106	fix_pre	0		119	79.0	2.5	/experiments/knapen_AOT/AOT_stimuli/rescaled_final/1398_fw.mp4	0.0	438.53504610061646	1.041949987411499
81	334.7915689945221	movie	1		262	79.0	2.5	/experiments/knapen_AOT/AOT_stimuli/rescaled_final/1398_fw.mp4	0.0	439.57699608802795	2.450267791748047
81	335.1243507862091	pulse	1	t		79.0	2.5	/experiments/knapen_AOT/AOT_stimuli/rescaled_final/1398_fw.mp4	0.0	439.90977787971497	
81	336.72523379325867	pulse	1	t		79.0	2.5	/experiments/knapen_AOT/AOT_stimuli/rescaled_final/1398_fw.mp4	0.0	441.5106608867645	
81	337.24183678627014	fix_post	2		12	79.0	2.5	/experiments/knapen_AOT/AOT_stimuli/rescaled_final/1398_fw.mp4	0.0	442.027263879776	0.09999799728393555
82	337.3418347835541	fix_pre	0		119	80.0	2.5	/experiments/knapen_AOT/AOT_stimuli/rescaled_final/1381_fw.mp4	0.0	442.12726187705994	1.0503051280975342
82	338.3256049156189	pulse	0	t		80.0	2.5	/experiments/knapen_AOT/AOT_stimuli/rescaled_final/1381_fw.mp4	0.0	443.11103200912476	
82	338.3921399116516	movie	1		240	80.0	2.5	/experiments/knapen_AOT/AOT_stimuli/rescaled_final/1381_fw.mp4	0.0	443.17756700515747	2.4502429962158203
82	339.9255290031433	pulse	1	t		80.0	2.5	/experiments/knapen_AOT/AOT_stimuli/rescaled_final/1381_fw.mp4	0.0	444.71095609664917	
82	340.84238290786743	fix_post	2		12	80.0	2.5	/experiments/knapen_AOT/AOT_stimuli/rescaled_final/1381_fw.mp4	0.0	445.6278100013733	0.10002398490905762
83	340.9424068927765	fix_pre	0		120	81.0	2.5	/experiments/knapen_AOT/AOT_stimuli/rescaled_final/0190_rv.mp4	0.0	445.72783398628235	1.083561897277832
83	341.52597093582153	pulse	0	t		81.0	2.5	/experiments/knapen_AOT/AOT_stimuli/rescaled_final/0190_rv.mp4	0.0	446.3113980293274	
83	342.0259687900543	movie	1		227	81.0	2.5	/experiments/knapen_AOT/AOT_stimuli/rescaled_final/0190_rv.mp4	0.0	446.8113958835602	2.416961193084717
83	343.1246027946472	pulse	1	t		81.0	2.5	/experiments/knapen_AOT/AOT_stimuli/rescaled_final/0190_rv.mp4	0.0	447.9100298881531	
83	344.44292998313904	fix_post	2		12	81.0	2.5	/experiments/knapen_AOT/AOT_stimuli/rescaled_final/0190_rv.mp4	0.0	449.2283570766449	0.0999748706817627
84	344.5429048538208	fix_pre	0		120	82.0	2.5	/experiments/knapen_AOT/AOT_stimuli/rescaled_final/1977_rv.mp4	0.0	449.32833194732666	1.0753819942474365
84	344.72658491134644	pulse	0	t		82.0	2.5	/experiments/knapen_AOT/AOT_stimuli/rescaled_final/1977_rv.mp4	0.0	449.5120120048523	
84	345.61828684806824	movie	1		218	82.0	2.5	/experiments/knapen_AOT/AOT_stimuli/rescaled_final/1977_rv.mp4	0.0	450.4037139415741	2.4251410961151123
84	346.3268258571625	pulse	1	t		82.0	2.5	/experiments/knapen_AOT/AOT_stimuli/rescaled_final/1977_rv.mp4	0.0	451.11225295066833	
84	347.92535185813904	pulse	1	t		82.0	2.5	/experiments/knapen_AOT/AOT_stimuli/rescaled_final/1977_rv.mp4	0.0	452.7107789516449	
84	348.04342794418335	fix_post	2		12	82.0	2.5	/experiments/knapen_AOT/AOT_stimuli/rescaled_final/1977_rv.mp4	0.0	452.8288550376892	0.10002684593200684
85	348.14345479011536	fix_pre	0		120	83.0	2.5	blank	1.0	452.9288818836212	1.0001380443572998
85	349.14359283447266	movie	1		299	83.0	2.5	blank	1.0	453.9290199279785	2.4920430183410645
85	349.5272579193115	pulse	1	t		83.0	2.5	blank	1.0	454.3126850128174	
85	351.12754797935486	pulse	1	t		83.0	2.5	blank	1.0	455.9129750728607	
85	351.6356358528137	fix_post	2		12	83.0	2.5	blank	1.0	456.4210629463196	0.10002398490905762
87	351.7356598377228	stim	0		1716					456.52108693122864	14.30223298072815
87	352.72767400741577	pulse	0	t						457.51310110092163	
87	354.32794094085693	pulse	0	t						459.1133680343628	
87	355.9281008243561	pulse	0	t						460.71352791786194	
87	357.5284478664398	pulse	0	t						462.3138749599457	
87	359.12857389450073	pulse	0	t						463.9140009880066	
87	360.72872281074524	pulse	0	t						465.5141499042511	
87	362.32909178733826	pulse	0	t						467.1145188808441	
87	363.9293580055237	pulse	0	t						468.71478509902954	
87	365.529581785202	pulse	0	t						470.3150088787079	
