trial_nr	onset	event_type	phase	response	nr_frames	movie_index	movie_duration	movie_file	blank	onset_abs	duration
0	0.20827913284301758	stim	0		15					17.654398202896118	0.1250138282775879
0	0.3251791000366211	response	0	space						17.77129817008972	
1	0.33329296112060547	stim	0		4811					17.779412031173706	40.11072301864624
1	40.42926907539368	pulse	0	t						57.87538814544678	
1	40.444015979766846	stim	1		1715					57.890135049819946	14.297340154647827
1	42.0230610370636	pulse	1	t						59.4691801071167	
1	43.62330198287964	pulse	1	t						61.06942105293274	
1	45.22346115112305	pulse	1	t						62.66958022117615	
1	46.82359504699707	pulse	1	t						64.26971411705017	
1	48.42394304275513	pulse	1	t						65.87006211280823	
1	50.02418613433838	pulse	1	t						67.47030520439148	
1	51.62438201904297	pulse	1	t						69.07050108909607	
1	53.22459411621094	pulse	1	t						70.67071318626404	
2	54.74135613441467	fix_pre	0		11	0.0	2.5	/experiments/knapen_AOT/AOT_stimuli/rescaled_final/1595_rv.mp4	0.0	72.18747520446777	0.09164786338806152
2	54.82488298416138	pulse	0	t		0.0	2.5	/experiments/knapen_AOT/AOT_stimuli/rescaled_final/1595_rv.mp4	0.0	72.27100205421448	
2	54.833003997802734	movie	1		243	0.0	2.5	/experiments/knapen_AOT/AOT_stimuli/rescaled_final/1595_rv.mp4	0.0	72.27912306785583	2.508679151535034
2	56.425610065460205	pulse	1	t		0.0	2.5	/experiments/knapen_AOT/AOT_stimuli/rescaled_final/1595_rv.mp4	0.0	73.8717291355133	
2	57.34168314933777	fix_post	2		12	0.0	2.5	/experiments/knapen_AOT/AOT_stimuli/rescaled_final/1595_rv.mp4	0.0	74.78780221939087	0.10002994537353516
3	57.441713094711304	fix_pre	0		120	1.0	2.5	/experiments/knapen_AOT/AOT_stimuli/rescaled_final/1964_fw.mp4	0.0	74.8878321647644	1.0001399517059326
3	58.025371074676514	pulse	0	t		1.0	2.5	/experiments/knapen_AOT/AOT_stimuli/rescaled_final/1964_fw.mp4	0.0	75.47149014472961	
3	58.441853046417236	movie	1		244	1.0	2.5	/experiments/knapen_AOT/AOT_stimuli/rescaled_final/1964_fw.mp4	0.0	75.88797211647034	2.500370979309082
3	59.62116599082947	pulse	1	t		1.0	2.5	/experiments/knapen_AOT/AOT_stimuli/rescaled_final/1964_fw.mp4	0.0	77.06728506088257	
3	60.94222402572632	fix_post	2		12	1.0	2.5	/experiments/knapen_AOT/AOT_stimuli/rescaled_final/1964_fw.mp4	0.0	78.38834309577942	0.1000669002532959
4	61.042290925979614	fix_pre	0		120	2.0	2.5	/experiments/knapen_AOT/AOT_stimuli/rescaled_final/1216_fw.mp4	0.0	78.48840999603271	1.0001270771026611
4	61.22576093673706	pulse	0	t		2.0	2.5	/experiments/knapen_AOT/AOT_stimuli/rescaled_final/1216_fw.mp4	0.0	78.67188000679016	
4	62.042418003082275	movie	1		242	2.0	2.5	/experiments/knapen_AOT/AOT_stimuli/rescaled_final/1216_fw.mp4	0.0	79.48853707313538	2.5005500316619873
4	62.82616996765137	pulse	1	t		2.0	2.5	/experiments/knapen_AOT/AOT_stimuli/rescaled_final/1216_fw.mp4	0.0	80.27228903770447	
4	64.42620015144348	pulse	1	t		2.0	2.5	/experiments/knapen_AOT/AOT_stimuli/rescaled_final/1216_fw.mp4	0.0	81.87231922149658	
4	64.54296803474426	fix_post	2		12	2.0	2.5	/experiments/knapen_AOT/AOT_stimuli/rescaled_final/1216_fw.mp4	0.0	81.98908710479736	0.09979391098022461
5	64.64276194572449	fix_pre	0		120	3.0	2.5	/experiments/knapen_AOT/AOT_stimuli/rescaled_final/0165_fw.mp4	0.0	82.08888101577759	1.0001649856567383
5	65.64292693138123	movie	1		241	3.0	2.5	/experiments/knapen_AOT/AOT_stimuli/rescaled_final/0165_fw.mp4	0.0	83.08904600143433	2.492125988006592
5	66.02731895446777	pulse	1	t		3.0	2.5	/experiments/knapen_AOT/AOT_stimuli/rescaled_final/0165_fw.mp4	0.0	83.47343802452087	
5	67.61958408355713	pulse	1	t		3.0	2.5	/experiments/knapen_AOT/AOT_stimuli/rescaled_final/0165_fw.mp4	0.0	85.06570315361023	
5	68.13505291938782	fix_post	2		12	3.0	2.5	/experiments/knapen_AOT/AOT_stimuli/rescaled_final/0165_fw.mp4	0.0	85.58117198944092	0.0999460220336914
6	68.23499894142151	fix_pre	0		120	4.0	2.5	/experiments/knapen_AOT/AOT_stimuli/rescaled_final/0368_fw.mp4	0.0	85.68111801147461	1.000169038772583
6	69.21965003013611	pulse	0	t		4.0	2.5	/experiments/knapen_AOT/AOT_stimuli/rescaled_final/0368_fw.mp4	0.0	86.66576910018921	
6	69.23516798019409	movie	1		244	4.0	2.5	/experiments/knapen_AOT/AOT_stimuli/rescaled_final/0368_fw.mp4	0.0	86.68128705024719	2.5087151527404785
6	70.82820892333984	pulse	1	t		4.0	2.5	/experiments/knapen_AOT/AOT_stimuli/rescaled_final/0368_fw.mp4	0.0	88.27432799339294	
6	71.74388313293457	fix_post	2		12	4.0	2.5	/experiments/knapen_AOT/AOT_stimuli/rescaled_final/0368_fw.mp4	0.0	89.19000220298767	0.10000395774841309
7	71.84388709068298	fix_pre	0		120	5.0	2.5	/experiments/knapen_AOT/AOT_stimuli/rescaled_final/1591_fw.mp4	0.0	89.29000616073608	1.0001230239868164
7	72.4193000793457	pulse	0	t		5.0	2.5	/experiments/knapen_AOT/AOT_stimuli/rescaled_final/1591_fw.mp4	0.0	89.8654191493988	
7	72.8440101146698	movie	1		243	5.0	2.5	/experiments/knapen_AOT/AOT_stimuli/rescaled_final/1591_fw.mp4	0.0	90.2901291847229	2.5004308223724365
7	74.0206389427185	pulse	1	t		5.0	2.5	/experiments/knapen_AOT/AOT_stimuli/rescaled_final/1591_fw.mp4	0.0	91.4667580127716	
7	75.34444093704224	fix_post	2		12	5.0	2.5	/experiments/knapen_AOT/AOT_stimuli/rescaled_final/1591_fw.mp4	0.0	92.79056000709534	0.09994006156921387
8	75.44438099861145	fix_pre	0		120	6.0	2.5	blank	1.0	92.89050006866455	1.0002059936523438
8	75.61954998970032	pulse	0	t		6.0	2.5	blank	1.0	93.06566905975342	
8	76.4445869922638	movie	1		300	6.0	2.5	blank	1.0	93.8907060623169	2.5003440380096436
8	77.21997213363647	pulse	1	t		6.0	2.5	blank	1.0	94.66609120368958	
8	78.82014203071594	pulse	1	t		6.0	2.5	blank	1.0	96.26626110076904	
8	78.94493103027344	fix_post	2		12	6.0	2.5	blank	1.0	96.39105010032654	0.10000896453857422
9	79.04493999481201	fix_pre	0		119	7.0	2.5	/experiments/knapen_AOT/AOT_stimuli/rescaled_final/0796_fw.mp4	0.0	96.49105906486511	0.9919049739837646
9	80.03684496879578	movie	1		242	7.0	2.5	/experiments/knapen_AOT/AOT_stimuli/rescaled_final/0796_fw.mp4	0.0	97.48296403884888	2.500413179397583
9	80.42469906806946	pulse	1	t		7.0	2.5	/experiments/knapen_AOT/AOT_stimuli/rescaled_final/0796_fw.mp4	0.0	97.87081813812256	
9	82.02055311203003	pulse	1	t		7.0	2.5	/experiments/knapen_AOT/AOT_stimuli/rescaled_final/0796_fw.mp4	0.0	99.46667218208313	
9	82.53725814819336	fix_post	2		9	7.0	2.5	/experiments/knapen_AOT/AOT_stimuli/rescaled_final/0796_fw.mp4	0.0	99.98337721824646	0.09990787506103516
10	82.6371660232544	fix_pre	0		119	8.0	2.5	/experiments/knapen_AOT/AOT_stimuli/rescaled_final/1563_rv.mp4	0.0	100.0832850933075	0.9918138980865479
10	83.62078094482422	pulse	0	t		8.0	2.5	/experiments/knapen_AOT/AOT_stimuli/rescaled_final/1563_rv.mp4	0.0	101.06690001487732	
10	83.62897992134094	movie	1		244	8.0	2.5	/experiments/knapen_AOT/AOT_stimuli/rescaled_final/1563_rv.mp4	0.0	101.07509899139404	2.5086350440979004
10	85.22150111198425	pulse	1	t		8.0	2.5	/experiments/knapen_AOT/AOT_stimuli/rescaled_final/1563_rv.mp4	0.0	102.66762018203735	
10	86.13761496543884	fix_post	2		12	8.0	2.5	/experiments/knapen_AOT/AOT_stimuli/rescaled_final/1563_rv.mp4	0.0	103.58373403549194	0.10004711151123047
11	86.23766207695007	fix_pre	0		120	9.0	2.5	/experiments/knapen_AOT/AOT_stimuli/rescaled_final/0635_fw.mp4	0.0	103.68378114700317	1.0001718997955322
11	86.82139611244202	pulse	0	t		9.0	2.5	/experiments/knapen_AOT/AOT_stimuli/rescaled_final/0635_fw.mp4	0.0	104.26751518249512	
11	87.2378339767456	movie	1		242	9.0	2.5	/experiments/knapen_AOT/AOT_stimuli/rescaled_final/0635_fw.mp4	0.0	104.6839530467987	2.500486135482788
11	88.42173099517822	pulse	1	t		9.0	2.5	/experiments/knapen_AOT/AOT_stimuli/rescaled_final/0635_fw.mp4	0.0	105.86785006523132	
11	89.7383201122284	fix_post	2		12	9.0	2.5	/experiments/knapen_AOT/AOT_stimuli/rescaled_final/0635_fw.mp4	0.0	107.1844391822815	0.09989595413208008
12	89.83821606636047	fix_pre	0		120	10.0	2.5	/experiments/knapen_AOT/AOT_stimuli/rescaled_final/1021_rv.mp4	0.0	107.28433513641357	1.0001368522644043
12	90.02177596092224	pulse	0	t		10.0	2.5	/experiments/knapen_AOT/AOT_stimuli/rescaled_final/1021_rv.mp4	0.0	107.46789503097534	
12	90.83835291862488	movie	1		243	10.0	2.5	/experiments/knapen_AOT/AOT_stimuli/rescaled_final/1021_rv.mp4	0.0	108.28447198867798	2.5003581047058105
12	91.6219789981842	pulse	1	t		10.0	2.5	/experiments/knapen_AOT/AOT_stimuli/rescaled_final/1021_rv.mp4	0.0	109.0680980682373	
12	93.22217011451721	pulse	1	t		10.0	2.5	/experiments/knapen_AOT/AOT_stimuli/rescaled_final/1021_rv.mp4	0.0	110.66828918457031	
12	93.33871102333069	fix_post	2		12	10.0	2.5	/experiments/knapen_AOT/AOT_stimuli/rescaled_final/1021_rv.mp4	0.0	110.78483009338379	0.10005402565002441
13	93.43876504898071	fix_pre	0		120	11.0	2.5	/experiments/knapen_AOT/AOT_stimuli/rescaled_final/1918_rv.mp4	0.0	110.88488411903381	1.0001220703125
13	94.43888711929321	movie	1		241	11.0	2.5	/experiments/knapen_AOT/AOT_stimuli/rescaled_final/1918_rv.mp4	0.0	111.88500618934631	2.4922029972076416
13	94.8229341506958	pulse	1	t		11.0	2.5	/experiments/knapen_AOT/AOT_stimuli/rescaled_final/1918_rv.mp4	0.0	112.2690532207489	
13	96.42277598381042	pulse	1	t		11.0	2.5	/experiments/knapen_AOT/AOT_stimuli/rescaled_final/1918_rv.mp4	0.0	113.86889505386353	
13	96.93109011650085	fix_post	2		12	11.0	2.5	/experiments/knapen_AOT/AOT_stimuli/rescaled_final/1918_rv.mp4	0.0	114.37720918655396	0.09986495971679688
14	97.03095507621765	fix_pre	0		120	12.0	2.5	/experiments/knapen_AOT/AOT_stimuli/rescaled_final/1430_fw.mp4	0.0	114.47707414627075	1.0002329349517822
14	98.02297115325928	pulse	0	t		12.0	2.5	/experiments/knapen_AOT/AOT_stimuli/rescaled_final/1430_fw.mp4	0.0	115.46909022331238	
14	98.03118801116943	movie	1		244	12.0	2.5	/experiments/knapen_AOT/AOT_stimuli/rescaled_final/1430_fw.mp4	0.0	115.47730708122253	2.508604049682617
14	99.62410092353821	pulse	1	t		12.0	2.5	/experiments/knapen_AOT/AOT_stimuli/rescaled_final/1430_fw.mp4	0.0	117.07021999359131	
14	100.53979206085205	fix_post	2		12	12.0	2.5	/experiments/knapen_AOT/AOT_stimuli/rescaled_final/1430_fw.mp4	0.0	117.98591113090515	0.10006499290466309
15	100.63985705375671	fix_pre	0		120	13.0	2.5	/experiments/knapen_AOT/AOT_stimuli/rescaled_final/0053_fw.mp4	0.0	118.08597612380981	1.0001208782196045
15	101.22345614433289	pulse	0	t		13.0	2.5	/experiments/knapen_AOT/AOT_stimuli/rescaled_final/0053_fw.mp4	0.0	118.66957521438599	
15	101.63997793197632	movie	1		243	13.0	2.5	/experiments/knapen_AOT/AOT_stimuli/rescaled_final/0053_fw.mp4	0.0	119.08609700202942	2.500369071960449
15	102.82375192642212	pulse	1	t		13.0	2.5	/experiments/knapen_AOT/AOT_stimuli/rescaled_final/0053_fw.mp4	0.0	120.26987099647522	
15	104.14034700393677	fix_post	2		12	13.0	2.5	/experiments/knapen_AOT/AOT_stimuli/rescaled_final/0053_fw.mp4	0.0	121.58646607398987	0.10010099411010742
16	104.24044799804688	fix_pre	0		120	14.0	2.5	blank	1.0	121.68656706809998	1.0000700950622559
16	104.42397594451904	pulse	0	t		14.0	2.5	blank	1.0	121.87009501457214	
16	105.24051809310913	movie	1		300	14.0	2.5	blank	1.0	122.68663716316223	2.5004329681396484
16	106.02418303489685	pulse	1	t		14.0	2.5	blank	1.0	123.47030210494995	
16	107.62443113327026	pulse	1	t		14.0	2.5	blank	1.0	125.07055020332336	
16	107.74095106124878	fix_post	2		12	14.0	2.5	blank	1.0	125.18707013130188	0.1000220775604248
17	107.8409731388092	fix_pre	0		120	15.0	2.5	/experiments/knapen_AOT/AOT_stimuli/rescaled_final/0817_fw.mp4	0.0	125.2870922088623	1.0000720024108887
17	108.84104514122009	movie	1		241	15.0	2.5	/experiments/knapen_AOT/AOT_stimuli/rescaled_final/0817_fw.mp4	0.0	126.2871642112732	2.492161989212036
17	109.22882604598999	pulse	1	t		15.0	2.5	/experiments/knapen_AOT/AOT_stimuli/rescaled_final/0817_fw.mp4	0.0	126.67494511604309	
17	110.82485103607178	pulse	1	t		15.0	2.5	/experiments/knapen_AOT/AOT_stimuli/rescaled_final/0817_fw.mp4	0.0	128.27097010612488	
17	111.33320713043213	fix_post	2		12	15.0	2.5	/experiments/knapen_AOT/AOT_stimuli/rescaled_final/0817_fw.mp4	0.0	128.77932620048523	0.09990882873535156
18	111.43311595916748	fix_pre	0		120	16.0	2.5	/experiments/knapen_AOT/AOT_stimuli/rescaled_final/1630_fw.mp4	0.0	128.87923502922058	1.0001449584960938
18	112.42512392997742	pulse	0	t		16.0	2.5	/experiments/knapen_AOT/AOT_stimuli/rescaled_final/1630_fw.mp4	0.0	129.87124300003052	
18	112.43326091766357	movie	1		243	16.0	2.5	/experiments/knapen_AOT/AOT_stimuli/rescaled_final/1630_fw.mp4	0.0	129.87937998771667	2.5086781978607178
18	114.02585411071777	pulse	1	t		16.0	2.5	/experiments/knapen_AOT/AOT_stimuli/rescaled_final/1630_fw.mp4	0.0	131.47197318077087	
18	114.94193911552429	fix_post	2		12	16.0	2.5	/experiments/knapen_AOT/AOT_stimuli/rescaled_final/1630_fw.mp4	0.0	132.3880581855774	0.10008001327514648
19	115.04201912879944	fix_pre	0		120	17.0	2.5	/experiments/knapen_AOT/AOT_stimuli/rescaled_final/0234_fw.mp4	0.0	132.48813819885254	1.0001318454742432
19	115.62552213668823	pulse	0	t		17.0	2.5	/experiments/knapen_AOT/AOT_stimuli/rescaled_final/0234_fw.mp4	0.0	133.07164120674133	
19	116.04215097427368	movie	1		243	17.0	2.5	/experiments/knapen_AOT/AOT_stimuli/rescaled_final/0234_fw.mp4	0.0	133.48827004432678	2.5005149841308594
19	117.22593402862549	pulse	1	t		17.0	2.5	/experiments/knapen_AOT/AOT_stimuli/rescaled_final/0234_fw.mp4	0.0	134.6720530986786	
19	118.54266595840454	fix_post	2		12	17.0	2.5	/experiments/knapen_AOT/AOT_stimuli/rescaled_final/0234_fw.mp4	0.0	135.98878502845764	0.09981608390808105
20	118.64248204231262	fix_pre	0		120	18.0	2.5	/experiments/knapen_AOT/AOT_stimuli/rescaled_final/1804_rv.mp4	0.0	136.08860111236572	1.000195026397705
20	118.82612204551697	pulse	0	t		18.0	2.5	/experiments/knapen_AOT/AOT_stimuli/rescaled_final/1804_rv.mp4	0.0	136.27224111557007	
20	119.64267706871033	movie	1		244	18.0	2.5	/experiments/knapen_AOT/AOT_stimuli/rescaled_final/1804_rv.mp4	0.0	137.08879613876343	2.5003669261932373
20	120.41892910003662	pulse	1	t		18.0	2.5	/experiments/knapen_AOT/AOT_stimuli/rescaled_final/1804_rv.mp4	0.0	137.86504817008972	
20	122.02655792236328	pulse	1	t		18.0	2.5	/experiments/knapen_AOT/AOT_stimuli/rescaled_final/1804_rv.mp4	0.0	139.47267699241638	
20	122.14304399490356	fix_post	2		12	18.0	2.5	/experiments/knapen_AOT/AOT_stimuli/rescaled_final/1804_rv.mp4	0.0	139.58916306495667	0.10010695457458496
21	122.24315094947815	fix_pre	0		120	19.0	2.5	/experiments/knapen_AOT/AOT_stimuli/rescaled_final/0642_fw.mp4	0.0	139.68927001953125	1.0000321865081787
21	123.24318313598633	movie	1		241	19.0	2.5	/experiments/knapen_AOT/AOT_stimuli/rescaled_final/0642_fw.mp4	0.0	140.68930220603943	2.492064952850342
21	123.62711095809937	pulse	1	t		19.0	2.5	/experiments/knapen_AOT/AOT_stimuli/rescaled_final/0642_fw.mp4	0.0	141.07323002815247	
21	125.21962714195251	pulse	1	t		19.0	2.5	/experiments/knapen_AOT/AOT_stimuli/rescaled_final/0642_fw.mp4	0.0	142.66574621200562	
21	125.73524808883667	fix_post	2		12	19.0	2.5	/experiments/knapen_AOT/AOT_stimuli/rescaled_final/0642_fw.mp4	0.0	143.18136715888977	0.09996390342712402
22	125.8352119922638	fix_pre	0		119	20.0	2.5	blank	1.0	143.2813310623169	0.9918689727783203
22	126.81897497177124	pulse	0	t		20.0	2.5	blank	1.0	144.26509404182434	
22	126.82708096504211	movie	1		301	20.0	2.5	blank	1.0	144.27320003509521	2.5086801052093506
22	128.41909909248352	pulse	1	t		20.0	2.5	blank	1.0	145.86521816253662	
22	129.33576107025146	fix_post	2		12	20.0	2.5	blank	1.0	146.78188014030457	0.10000085830688477
23	129.43576192855835	fix_pre	0		120	21.0	2.5	/experiments/knapen_AOT/AOT_stimuli/rescaled_final/0767_rv.mp4	0.0	146.88188099861145	1.00018310546875
23	130.01943111419678	pulse	0	t		21.0	2.5	/experiments/knapen_AOT/AOT_stimuli/rescaled_final/0767_rv.mp4	0.0	147.46555018424988	
23	130.4359450340271	movie	1		243	21.0	2.5	/experiments/knapen_AOT/AOT_stimuli/rescaled_final/0767_rv.mp4	0.0	147.8820641040802	2.5003929138183594
23	131.61969709396362	pulse	1	t		21.0	2.5	/experiments/knapen_AOT/AOT_stimuli/rescaled_final/0767_rv.mp4	0.0	149.06581616401672	
23	132.93633794784546	fix_post	2		12	21.0	2.5	/experiments/knapen_AOT/AOT_stimuli/rescaled_final/0767_rv.mp4	0.0	150.38245701789856	0.09997701644897461
24	133.03631496429443	fix_pre	0		120	22.0	2.5	/experiments/knapen_AOT/AOT_stimuli/rescaled_final/1083_fw.mp4	0.0	150.48243403434753	1.0001411437988281
24	133.21998810768127	pulse	0	t		22.0	2.5	/experiments/knapen_AOT/AOT_stimuli/rescaled_final/1083_fw.mp4	0.0	150.66610717773438	
24	134.03645610809326	movie	1		243	22.0	2.5	/experiments/knapen_AOT/AOT_stimuli/rescaled_final/1083_fw.mp4	0.0	151.48257517814636	2.5004940032958984
24	134.8201460838318	pulse	1	t		22.0	2.5	/experiments/knapen_AOT/AOT_stimuli/rescaled_final/1083_fw.mp4	0.0	152.2662651538849	
24	136.4202380180359	pulse	1	t		22.0	2.5	/experiments/knapen_AOT/AOT_stimuli/rescaled_final/1083_fw.mp4	0.0	153.866357088089	
24	136.53695011138916	fix_post	2		12	22.0	2.5	/experiments/knapen_AOT/AOT_stimuli/rescaled_final/1083_fw.mp4	0.0	153.98306918144226	0.09990286827087402
25	136.63685297966003	fix_pre	0		120	23.0	2.5	/experiments/knapen_AOT/AOT_stimuli/rescaled_final/1241_rv.mp4	0.0	154.08297204971313	1.0001449584960938
25	137.63699793815613	movie	1		242	23.0	2.5	/experiments/knapen_AOT/AOT_stimuli/rescaled_final/1241_rv.mp4	0.0	155.08311700820923	2.4921650886535645
25	138.0218689441681	pulse	1	t		23.0	2.5	/experiments/knapen_AOT/AOT_stimuli/rescaled_final/1241_rv.mp4	0.0	155.4679880142212	
25	139.62094402313232	pulse	1	t		23.0	2.5	/experiments/knapen_AOT/AOT_stimuli/rescaled_final/1241_rv.mp4	0.0	157.06706309318542	
25	140.1291630268097	fix_post	2		12	23.0	2.5	/experiments/knapen_AOT/AOT_stimuli/rescaled_final/1241_rv.mp4	0.0	157.5752820968628	0.09993505477905273
26	140.22909808158875	fix_pre	0		120	24.0	2.5	/experiments/knapen_AOT/AOT_stimuli/rescaled_final/1203_rv.mp4	0.0	157.67521715164185	1.0001108646392822
26	141.22115111351013	pulse	0	t		24.0	2.5	/experiments/knapen_AOT/AOT_stimuli/rescaled_final/1203_rv.mp4	0.0	158.66727018356323	
26	141.22920894622803	movie	1		244	24.0	2.5	/experiments/knapen_AOT/AOT_stimuli/rescaled_final/1203_rv.mp4	0.0	158.67532801628113	2.508733034133911
26	142.821594953537	pulse	1	t		24.0	2.5	/experiments/knapen_AOT/AOT_stimuli/rescaled_final/1203_rv.mp4	0.0	160.2677140235901	
26	143.73794198036194	fix_post	2		12	24.0	2.5	/experiments/knapen_AOT/AOT_stimuli/rescaled_final/1203_rv.mp4	0.0	161.18406105041504	0.09999394416809082
27	143.83793592453003	fix_pre	0		117	25.0	2.5	/experiments/knapen_AOT/AOT_stimuli/rescaled_final/1753_fw.mp4	0.0	161.28405499458313	1.0002100467681885
27	144.42151808738708	pulse	0	t		25.0	2.5	/experiments/knapen_AOT/AOT_stimuli/rescaled_final/1753_fw.mp4	0.0	161.86763715744019	
27	144.83814597129822	movie	1		242	25.0	2.5	/experiments/knapen_AOT/AOT_stimuli/rescaled_final/1753_fw.mp4	0.0	162.28426504135132	2.5003931522369385
27	146.02194499969482	pulse	1	t		25.0	2.5	/experiments/knapen_AOT/AOT_stimuli/rescaled_final/1753_fw.mp4	0.0	163.46806406974792	
27	147.33853912353516	fix_post	2		12	25.0	2.5	/experiments/knapen_AOT/AOT_stimuli/rescaled_final/1753_fw.mp4	0.0	164.78465819358826	0.0999298095703125
28	147.43846893310547	fix_pre	0		120	26.0	2.5	/experiments/knapen_AOT/AOT_stimuli/rescaled_final/1563_rv.mp4	0.0	164.88458800315857	1.0001800060272217
28	147.62212014198303	pulse	0	t		26.0	2.5	/experiments/knapen_AOT/AOT_stimuli/rescaled_final/1563_rv.mp4	0.0	165.06823921203613	
28	148.4386489391327	movie	1		243	26.0	2.5	/experiments/knapen_AOT/AOT_stimuli/rescaled_final/1563_rv.mp4	0.0	165.8847680091858	2.5003750324249268
28	149.2223551273346	pulse	1	t		26.0	2.5	/experiments/knapen_AOT/AOT_stimuli/rescaled_final/1563_rv.mp4	0.0	166.6684741973877	
28	150.82216095924377	pulse	1	t		26.0	2.5	/experiments/knapen_AOT/AOT_stimuli/rescaled_final/1563_rv.mp4	0.0	168.26828002929688	
28	150.93902397155762	fix_post	2		12	26.0	2.5	/experiments/knapen_AOT/AOT_stimuli/rescaled_final/1563_rv.mp4	0.0	168.38514304161072	0.10002613067626953
29	151.0390501022339	fix_pre	0		120	27.0	2.5	/experiments/knapen_AOT/AOT_stimuli/rescaled_final/1312_rv.mp4	0.0	168.485169172287	1.0001368522644043
29	152.0391869544983	movie	1		242	27.0	2.5	/experiments/knapen_AOT/AOT_stimuli/rescaled_final/1312_rv.mp4	0.0	169.4853060245514	2.492122173309326
29	152.42326307296753	pulse	1	t		27.0	2.5	/experiments/knapen_AOT/AOT_stimuli/rescaled_final/1312_rv.mp4	0.0	169.86938214302063	
29	154.02303910255432	pulse	1	t		27.0	2.5	/experiments/knapen_AOT/AOT_stimuli/rescaled_final/1312_rv.mp4	0.0	171.46915817260742	
29	154.53130912780762	fix_post	2		12	27.0	2.5	/experiments/knapen_AOT/AOT_stimuli/rescaled_final/1312_rv.mp4	0.0	171.97742819786072	0.09990787506103516
30	154.63121700286865	fix_pre	0		120	28.0	2.5	blank	1.0	172.07733607292175	1.0001599788665771
30	155.62334895133972	pulse	0	t		28.0	2.5	blank	1.0	173.06946802139282	
30	155.63137698173523	movie	1		301	28.0	2.5	blank	1.0	173.07749605178833	2.5087051391601562
30	157.22350811958313	pulse	1	t		28.0	2.5	blank	1.0	174.66962718963623	
30	158.14008212089539	fix_post	2		12	28.0	2.5	blank	1.0	175.5862011909485	0.1000368595123291
31	158.24011898040771	fix_pre	0		120	29.0	2.5	/experiments/knapen_AOT/AOT_stimuli/rescaled_final/0140_fw.mp4	0.0	175.68623805046082	1.0001020431518555
31	158.82367706298828	pulse	0	t		29.0	2.5	/experiments/knapen_AOT/AOT_stimuli/rescaled_final/0140_fw.mp4	0.0	176.26979613304138	
31	159.24022102355957	movie	1		243	29.0	2.5	/experiments/knapen_AOT/AOT_stimuli/rescaled_final/0140_fw.mp4	0.0	176.68634009361267	2.500411033630371
31	160.4240801334381	pulse	1	t		29.0	2.5	/experiments/knapen_AOT/AOT_stimuli/rescaled_final/0140_fw.mp4	0.0	177.8701992034912	
31	161.74063205718994	fix_post	2		12	29.0	2.5	/experiments/knapen_AOT/AOT_stimuli/rescaled_final/0140_fw.mp4	0.0	179.18675112724304	0.10002493858337402
32	161.84065699577332	fix_pre	0		120	30.0	2.5	/experiments/knapen_AOT/AOT_stimuli/rescaled_final/1876_fw.mp4	0.0	179.28677606582642	1.0001039505004883
32	162.02423691749573	pulse	0	t		30.0	2.5	/experiments/knapen_AOT/AOT_stimuli/rescaled_final/1876_fw.mp4	0.0	179.47035598754883	
32	162.8407609462738	movie	1		242	30.0	2.5	/experiments/knapen_AOT/AOT_stimuli/rescaled_final/1876_fw.mp4	0.0	180.2868800163269	2.5004780292510986
32	163.6244339942932	pulse	1	t		30.0	2.5	/experiments/knapen_AOT/AOT_stimuli/rescaled_final/1876_fw.mp4	0.0	181.0705530643463	
32	165.22452807426453	pulse	1	t		30.0	2.5	/experiments/knapen_AOT/AOT_stimuli/rescaled_final/1876_fw.mp4	0.0	182.67064714431763	
32	165.3412389755249	fix_post	2		12	30.0	2.5	/experiments/knapen_AOT/AOT_stimuli/rescaled_final/1876_fw.mp4	0.0	182.787358045578	0.0999140739440918
33	165.441153049469	fix_pre	0		120	31.0	2.5	/experiments/knapen_AOT/AOT_stimuli/rescaled_final/0753_rv.mp4	0.0	182.8872721195221	1.0002200603485107
33	166.4413731098175	movie	1		242	31.0	2.5	/experiments/knapen_AOT/AOT_stimuli/rescaled_final/0753_rv.mp4	0.0	183.8874921798706	2.4920120239257812
33	166.8292109966278	pulse	1	t		31.0	2.5	/experiments/knapen_AOT/AOT_stimuli/rescaled_final/0753_rv.mp4	0.0	184.2753300666809	
33	168.42526507377625	pulse	1	t		31.0	2.5	/experiments/knapen_AOT/AOT_stimuli/rescaled_final/0753_rv.mp4	0.0	185.87138414382935	
33	168.9333851337433	fix_post	2		12	31.0	2.5	/experiments/knapen_AOT/AOT_stimuli/rescaled_final/0753_rv.mp4	0.0	186.3795042037964	0.0999758243560791
34	169.03336095809937	fix_pre	0		120	32.0	2.5	/experiments/knapen_AOT/AOT_stimuli/rescaled_final/1621_rv.mp4	0.0	186.47948002815247	1.0002331733703613
34	170.02551198005676	pulse	0	t		32.0	2.5	/experiments/knapen_AOT/AOT_stimuli/rescaled_final/1621_rv.mp4	0.0	187.47163105010986	
34	170.03359413146973	movie	1		243	32.0	2.5	/experiments/knapen_AOT/AOT_stimuli/rescaled_final/1621_rv.mp4	0.0	187.47971320152283	2.508620023727417
34	171.6261420249939	pulse	1	t		32.0	2.5	/experiments/knapen_AOT/AOT_stimuli/rescaled_final/1621_rv.mp4	0.0	189.072261095047	
34	172.54221415519714	fix_post	2		12	32.0	2.5	/experiments/knapen_AOT/AOT_stimuli/rescaled_final/1621_rv.mp4	0.0	189.98833322525024	0.1000509262084961
35	172.64226508140564	fix_pre	0		120	33.0	2.5	/experiments/knapen_AOT/AOT_stimuli/rescaled_final/0435_fw.mp4	0.0	190.08838415145874	1.0001139640808105
35	173.2258539199829	pulse	0	t		33.0	2.5	/experiments/knapen_AOT/AOT_stimuli/rescaled_final/0435_fw.mp4	0.0	190.671972990036	
35	173.64237904548645	movie	1		243	33.0	2.5	/experiments/knapen_AOT/AOT_stimuli/rescaled_final/0435_fw.mp4	0.0	191.08849811553955	2.5004639625549316
35	174.82625794410706	pulse	1	t		33.0	2.5	/experiments/knapen_AOT/AOT_stimuli/rescaled_final/0435_fw.mp4	0.0	192.27237701416016	
35	176.14284300804138	fix_post	2		12	33.0	2.5	/experiments/knapen_AOT/AOT_stimuli/rescaled_final/0435_fw.mp4	0.0	193.58896207809448	0.09990906715393066
36	176.2427520751953	fix_pre	0		120	34.0	2.5	blank	1.0	193.6888711452484	1.000166893005371
36	176.42637014389038	pulse	0	t		34.0	2.5	blank	1.0	193.87248921394348	
36	177.24291896820068	movie	1		300	34.0	2.5	blank	1.0	194.68903803825378	2.500365972518921
36	178.02657008171082	pulse	1	t		34.0	2.5	blank	1.0	195.47268915176392	
36	179.61921215057373	pulse	1	t		34.0	2.5	blank	1.0	197.06533122062683	
36	179.7432849407196	fix_post	2		12	34.0	2.5	blank	1.0	197.1894040107727	0.10000109672546387
37	179.84328603744507	fix_pre	0		120	35.0	2.5	/experiments/knapen_AOT/AOT_stimuli/rescaled_final/2167_rv.mp4	0.0	197.28940510749817	1.0002179145812988
37	180.84350395202637	movie	1		241	35.0	2.5	/experiments/knapen_AOT/AOT_stimuli/rescaled_final/2167_rv.mp4	0.0	198.28962302207947	2.4920849800109863
37	181.22773504257202	pulse	1	t		35.0	2.5	/experiments/knapen_AOT/AOT_stimuli/rescaled_final/2167_rv.mp4	0.0	198.67385411262512	
37	182.81989693641663	pulse	1	t		35.0	2.5	/experiments/knapen_AOT/AOT_stimuli/rescaled_final/2167_rv.mp4	0.0	200.26601600646973	
37	183.33558893203735	fix_post	2		12	35.0	2.5	/experiments/knapen_AOT/AOT_stimuli/rescaled_final/2167_rv.mp4	0.0	200.78170800209045	0.09996414184570312
38	183.43555307388306	fix_pre	0		120	36.0	2.5	/experiments/knapen_AOT/AOT_stimuli/rescaled_final/1101_fw.mp4	0.0	200.88167214393616	1.0001170635223389
38	184.41993498802185	pulse	0	t		36.0	2.5	/experiments/knapen_AOT/AOT_stimuli/rescaled_final/1101_fw.mp4	0.0	201.86605405807495	
38	184.4356701374054	movie	1		243	36.0	2.5	/experiments/knapen_AOT/AOT_stimuli/rescaled_final/1101_fw.mp4	0.0	201.8817892074585	2.508678913116455
38	186.02829098701477	pulse	1	t		36.0	2.5	/experiments/knapen_AOT/AOT_stimuli/rescaled_final/1101_fw.mp4	0.0	203.47441005706787	
38	186.94434905052185	fix_post	2		12	36.0	2.5	/experiments/knapen_AOT/AOT_stimuli/rescaled_final/1101_fw.mp4	0.0	204.39046812057495	0.10005688667297363
39	187.04440593719482	fix_pre	0		120	37.0	2.5	/experiments/knapen_AOT/AOT_stimuli/rescaled_final/1868_rv.mp4	0.0	204.49052500724792	1.0001311302185059
39	187.61966395378113	pulse	0	t		37.0	2.5	/experiments/knapen_AOT/AOT_stimuli/rescaled_final/1868_rv.mp4	0.0	205.06578302383423	
39	188.04453706741333	movie	1		243	37.0	2.5	/experiments/knapen_AOT/AOT_stimuli/rescaled_final/1868_rv.mp4	0.0	205.49065613746643	2.5005249977111816
39	189.2204029560089	pulse	1	t		37.0	2.5	/experiments/knapen_AOT/AOT_stimuli/rescaled_final/1868_rv.mp4	0.0	206.666522026062	
39	190.5450620651245	fix_post	2		12	37.0	2.5	/experiments/knapen_AOT/AOT_stimuli/rescaled_final/1868_rv.mp4	0.0	207.9911811351776	0.09986996650695801
40	190.64493203163147	fix_pre	0		120	38.0	2.5	/experiments/knapen_AOT/AOT_stimuli/rescaled_final/1670_rv.mp4	0.0	208.09105110168457	1.0001249313354492
40	190.82018995285034	pulse	0	t		38.0	2.5	/experiments/knapen_AOT/AOT_stimuli/rescaled_final/1670_rv.mp4	0.0	208.26630902290344	
40	191.64505696296692	movie	1		242	38.0	2.5	/experiments/knapen_AOT/AOT_stimuli/rescaled_final/1670_rv.mp4	0.0	209.09117603302002	2.492150068283081
40	192.42058897018433	pulse	1	t		38.0	2.5	/experiments/knapen_AOT/AOT_stimuli/rescaled_final/1670_rv.mp4	0.0	209.86670804023743	
40	194.02060198783875	pulse	1	t		38.0	2.5	/experiments/knapen_AOT/AOT_stimuli/rescaled_final/1670_rv.mp4	0.0	211.46672105789185	
40	194.13720703125	fix_post	2		12	38.0	2.5	/experiments/knapen_AOT/AOT_stimuli/rescaled_final/1670_rv.mp4	0.0	211.5833261013031	0.09991097450256348
41	194.23711800575256	fix_pre	0		120	39.0	2.5	/experiments/knapen_AOT/AOT_stimuli/rescaled_final/1015_rv.mp4	0.0	211.68323707580566	1.0001490116119385
41	195.2372670173645	movie	1		243	39.0	2.5	/experiments/knapen_AOT/AOT_stimuli/rescaled_final/1015_rv.mp4	0.0	212.6833860874176	2.500541925430298
41	195.62217211723328	pulse	1	t		39.0	2.5	/experiments/knapen_AOT/AOT_stimuli/rescaled_final/1015_rv.mp4	0.0	213.06829118728638	
41	197.22105598449707	pulse	1	t		39.0	2.5	/experiments/knapen_AOT/AOT_stimuli/rescaled_final/1015_rv.mp4	0.0	214.66717505455017	
41	197.7378089427948	fix_post	2		12	39.0	2.5	/experiments/knapen_AOT/AOT_stimuli/rescaled_final/1015_rv.mp4	0.0	215.1839280128479	0.09983515739440918
42	197.8376441001892	fix_pre	0		119	40.0	2.5	/experiments/knapen_AOT/AOT_stimuli/rescaled_final/0485_rv.mp4	0.0	215.2837631702423	0.991926908493042
42	198.82133102416992	pulse	0	t		40.0	2.5	/experiments/knapen_AOT/AOT_stimuli/rescaled_final/0485_rv.mp4	0.0	216.26745009422302	
42	198.82957100868225	movie	1		244	40.0	2.5	/experiments/knapen_AOT/AOT_stimuli/rescaled_final/0485_rv.mp4	0.0	216.27569007873535	2.508631944656372
42	200.42227697372437	pulse	1	t		40.0	2.5	/experiments/knapen_AOT/AOT_stimuli/rescaled_final/0485_rv.mp4	0.0	217.86839604377747	
42	201.33820295333862	fix_post	2		12	40.0	2.5	/experiments/knapen_AOT/AOT_stimuli/rescaled_final/0485_rv.mp4	0.0	218.78432202339172	0.10001516342163086
43	201.43821811676025	fix_pre	0		120	41.0	2.5	/experiments/knapen_AOT/AOT_stimuli/rescaled_final/1944_rv.mp4	0.0	218.88433718681335	1.0001168251037598
43	202.02180099487305	pulse	0	t		41.0	2.5	/experiments/knapen_AOT/AOT_stimuli/rescaled_final/1944_rv.mp4	0.0	219.46792006492615	
43	202.438334941864	movie	1		243	41.0	2.5	/experiments/knapen_AOT/AOT_stimuli/rescaled_final/1944_rv.mp4	0.0	219.88445401191711	2.5004022121429443
43	203.62221097946167	pulse	1	t		41.0	2.5	/experiments/knapen_AOT/AOT_stimuli/rescaled_final/1944_rv.mp4	0.0	221.06833004951477	
43	204.93873715400696	fix_post	2		12	41.0	2.5	/experiments/knapen_AOT/AOT_stimuli/rescaled_final/1944_rv.mp4	0.0	222.38485622406006	0.09998679161071777
44	205.03872394561768	fix_pre	0		120	42.0	2.5	blank	1.0	222.48484301567078	1.0001490116119385
44	205.22230005264282	pulse	0	t		42.0	2.5	blank	1.0	222.66841912269592	
44	206.03887295722961	movie	1		296	42.0	2.5	blank	1.0	223.48499202728271	2.5003721714019775
44	206.82253003120422	pulse	1	t		42.0	2.5	blank	1.0	224.26864910125732	
44	208.42284893989563	pulse	1	t		42.0	2.5	blank	1.0	225.86896800994873	
44	208.5392451286316	fix_post	2		12	42.0	2.5	blank	1.0	225.9853641986847	0.10002779960632324
45	208.63927292823792	fix_pre	0		119	43.0	2.5	/experiments/knapen_AOT/AOT_stimuli/rescaled_final/0545_rv.mp4	0.0	226.08539199829102	0.9918181896209717
45	209.6310911178589	movie	1		243	43.0	2.5	/experiments/knapen_AOT/AOT_stimuli/rescaled_final/0545_rv.mp4	0.0	227.077210187912	2.500458002090454
45	210.02321195602417	pulse	1	t		43.0	2.5	/experiments/knapen_AOT/AOT_stimuli/rescaled_final/0545_rv.mp4	0.0	227.46933102607727	
45	211.62323808670044	pulse	1	t		43.0	2.5	/experiments/knapen_AOT/AOT_stimuli/rescaled_final/0545_rv.mp4	0.0	229.06935715675354	
45	212.13154911994934	fix_post	2		12	43.0	2.5	/experiments/knapen_AOT/AOT_stimuli/rescaled_final/0545_rv.mp4	0.0	229.57766819000244	0.0999000072479248
46	212.23144912719727	fix_pre	0		120	44.0	2.5	/experiments/knapen_AOT/AOT_stimuli/rescaled_final/1312_rv.mp4	0.0	229.67756819725037	1.0002179145812988
46	213.22343397140503	pulse	0	t		44.0	2.5	/experiments/knapen_AOT/AOT_stimuli/rescaled_final/1312_rv.mp4	0.0	230.66955304145813	
46	213.23166704177856	movie	1		244	44.0	2.5	/experiments/knapen_AOT/AOT_stimuli/rescaled_final/1312_rv.mp4	0.0	230.67778611183167	2.508687973022461
46	214.82492995262146	pulse	1	t		44.0	2.5	/experiments/knapen_AOT/AOT_stimuli/rescaled_final/1312_rv.mp4	0.0	232.27104902267456	
46	215.74035501480103	fix_post	2		12	44.0	2.5	/experiments/knapen_AOT/AOT_stimuli/rescaled_final/1312_rv.mp4	0.0	233.18647408485413	0.09998297691345215
47	215.84033799171448	fix_pre	0		120	45.0	2.5	/experiments/knapen_AOT/AOT_stimuli/rescaled_final/0545_fw.mp4	0.0	233.28645706176758	1.000195026397705
47	216.42404508590698	pulse	0	t		45.0	2.5	/experiments/knapen_AOT/AOT_stimuli/rescaled_final/0545_fw.mp4	0.0	233.87016415596008	
47	216.84053301811218	movie	1		243	45.0	2.5	/experiments/knapen_AOT/AOT_stimuli/rescaled_final/0545_fw.mp4	0.0	234.28665208816528	2.5005569458007812
47	218.01988697052002	pulse	1	t		45.0	2.5	/experiments/knapen_AOT/AOT_stimuli/rescaled_final/0545_fw.mp4	0.0	235.46600604057312	
47	219.34108996391296	fix_post	2		12	45.0	2.5	/experiments/knapen_AOT/AOT_stimuli/rescaled_final/0545_fw.mp4	0.0	236.78720903396606	0.09981799125671387
48	219.44090795516968	fix_pre	0		120	46.0	2.5	/experiments/knapen_AOT/AOT_stimuli/rescaled_final/0194_fw.mp4	0.0	236.88702702522278	1.0000829696655273
48	219.62437415122986	pulse	0	t		46.0	2.5	/experiments/knapen_AOT/AOT_stimuli/rescaled_final/0194_fw.mp4	0.0	237.07049322128296	
48	220.4409909248352	movie	1		246	46.0	2.5	/experiments/knapen_AOT/AOT_stimuli/rescaled_final/0194_fw.mp4	0.0	237.8871099948883	2.500401020050049
48	221.22472310066223	pulse	1	t		46.0	2.5	/experiments/knapen_AOT/AOT_stimuli/rescaled_final/0194_fw.mp4	0.0	238.67084217071533	
48	222.8249020576477	pulse	1	t		46.0	2.5	/experiments/knapen_AOT/AOT_stimuli/rescaled_final/0194_fw.mp4	0.0	240.2710211277008	
48	222.94139194488525	fix_post	2		12	46.0	2.5	/experiments/knapen_AOT/AOT_stimuli/rescaled_final/0194_fw.mp4	0.0	240.38751101493835	0.10002708435058594
49	223.04141902923584	fix_pre	0		119	47.0	2.5	/experiments/knapen_AOT/AOT_stimuli/rescaled_final/1162_rv.mp4	0.0	240.48753809928894	0.9917879104614258
49	224.03320693969727	movie	1		243	47.0	2.5	/experiments/knapen_AOT/AOT_stimuli/rescaled_final/1162_rv.mp4	0.0	241.47932600975037	2.5005550384521484
49	224.42531299591064	pulse	1	t		47.0	2.5	/experiments/knapen_AOT/AOT_stimuli/rescaled_final/1162_rv.mp4	0.0	241.87143206596375	
49	226.02536702156067	pulse	1	t		47.0	2.5	/experiments/knapen_AOT/AOT_stimuli/rescaled_final/1162_rv.mp4	0.0	243.47148609161377	
49	226.5337619781494	fix_post	2		12	47.0	2.5	/experiments/knapen_AOT/AOT_stimuli/rescaled_final/1162_rv.mp4	0.0	243.97988104820251	0.09984302520751953
50	226.63360500335693	fix_pre	0		120	48.0	2.5	/experiments/knapen_AOT/AOT_stimuli/rescaled_final/0884_fw.mp4	0.0	244.07972407341003	1.0001461505889893
50	227.62560606002808	pulse	0	t		48.0	2.5	/experiments/knapen_AOT/AOT_stimuli/rescaled_final/0884_fw.mp4	0.0	245.07172513008118	
50	227.63375115394592	movie	1		244	48.0	2.5	/experiments/knapen_AOT/AOT_stimuli/rescaled_final/0884_fw.mp4	0.0	245.07987022399902	2.5087709426879883
50	229.22654604911804	pulse	1	t		48.0	2.5	/experiments/knapen_AOT/AOT_stimuli/rescaled_final/0884_fw.mp4	0.0	246.67266511917114	
50	230.1425220966339	fix_post	2		12	48.0	2.5	/experiments/knapen_AOT/AOT_stimuli/rescaled_final/0884_fw.mp4	0.0	247.588641166687	0.10003304481506348
51	230.24255514144897	fix_pre	0		120	49.0	2.5	blank	1.0	247.68867421150208	1.000128984451294
51	230.82609295845032	pulse	0	t		49.0	2.5	blank	1.0	248.27221202850342	
51	231.24268412590027	movie	1		300	49.0	2.5	blank	1.0	248.68880319595337	2.5003418922424316
51	232.42635011672974	pulse	1	t		49.0	2.5	blank	1.0	249.87246918678284	
51	233.7430260181427	fix_post	2		12	49.0	2.5	blank	1.0	251.1891450881958	0.10002899169921875
52	233.84305500984192	fix_pre	0		120	50.0	2.5	/experiments/knapen_AOT/AOT_stimuli/rescaled_final/1730_fw.mp4	0.0	251.28917407989502	1.0001389980316162
52	234.01907896995544	pulse	0	t		50.0	2.5	/experiments/knapen_AOT/AOT_stimuli/rescaled_final/1730_fw.mp4	0.0	251.46519804000854	
52	234.84319400787354	movie	1		243	50.0	2.5	/experiments/knapen_AOT/AOT_stimuli/rescaled_final/1730_fw.mp4	0.0	252.28931307792664	2.5003650188446045
52	235.61953496932983	pulse	1	t		50.0	2.5	/experiments/knapen_AOT/AOT_stimuli/rescaled_final/1730_fw.mp4	0.0	253.06565403938293	
52	237.22667598724365	pulse	1	t		50.0	2.5	/experiments/knapen_AOT/AOT_stimuli/rescaled_final/1730_fw.mp4	0.0	254.67279505729675	
52	237.34355902671814	fix_post	2		12	50.0	2.5	/experiments/knapen_AOT/AOT_stimuli/rescaled_final/1730_fw.mp4	0.0	254.78967809677124	0.0999910831451416
53	237.44355010986328	fix_pre	0		120	51.0	2.5	/experiments/knapen_AOT/AOT_stimuli/rescaled_final/0529_rv.mp4	0.0	254.88966917991638	1.0002000331878662
53	238.44375014305115	movie	1		241	51.0	2.5	/experiments/knapen_AOT/AOT_stimuli/rescaled_final/0529_rv.mp4	0.0	255.88986921310425	2.4921979904174805
53	238.82787203788757	pulse	1	t		51.0	2.5	/experiments/knapen_AOT/AOT_stimuli/rescaled_final/0529_rv.mp4	0.0	256.2739911079407	
53	240.4194130897522	pulse	1	t		51.0	2.5	/experiments/knapen_AOT/AOT_stimuli/rescaled_final/0529_rv.mp4	0.0	257.8655321598053	
53	240.93594813346863	fix_post	2		12	51.0	2.5	/experiments/knapen_AOT/AOT_stimuli/rescaled_final/0529_rv.mp4	0.0	258.38206720352173	0.09981989860534668
54	241.03576803207397	fix_pre	0		119	52.0	2.5	/experiments/knapen_AOT/AOT_stimuli/rescaled_final/2032_fw.mp4	0.0	258.4818871021271	0.9919259548187256
54	242.01940298080444	pulse	0	t		52.0	2.5	/experiments/knapen_AOT/AOT_stimuli/rescaled_final/2032_fw.mp4	0.0	259.46552205085754	
54	242.0276939868927	movie	1		243	52.0	2.5	/experiments/knapen_AOT/AOT_stimuli/rescaled_final/2032_fw.mp4	0.0	259.4738130569458	2.508599042892456
54	243.62092804908752	pulse	1	t		52.0	2.5	/experiments/knapen_AOT/AOT_stimuli/rescaled_final/2032_fw.mp4	0.0	261.0670471191406	
54	244.53629302978516	fix_post	2		12	52.0	2.5	/experiments/knapen_AOT/AOT_stimuli/rescaled_final/2032_fw.mp4	0.0	261.98241209983826	0.10003089904785156
55	244.636323928833	fix_pre	0		120	53.0	2.5	/experiments/knapen_AOT/AOT_stimuli/rescaled_final/0642_fw.mp4	0.0	262.0824429988861	1.0001270771026611
55	245.2200391292572	pulse	0	t		53.0	2.5	/experiments/knapen_AOT/AOT_stimuli/rescaled_final/0642_fw.mp4	0.0	262.6661581993103	
55	245.63645100593567	movie	1		242	53.0	2.5	/experiments/knapen_AOT/AOT_stimuli/rescaled_final/0642_fw.mp4	0.0	263.08257007598877	2.5004780292510986
55	246.82036209106445	pulse	1	t		53.0	2.5	/experiments/knapen_AOT/AOT_stimuli/rescaled_final/0642_fw.mp4	0.0	264.26648116111755	
55	248.13692903518677	fix_post	2		12	53.0	2.5	/experiments/knapen_AOT/AOT_stimuli/rescaled_final/0642_fw.mp4	0.0	265.58304810523987	0.09994292259216309
56	248.23687195777893	fix_pre	0		120	54.0	2.5	/experiments/knapen_AOT/AOT_stimuli/rescaled_final/0728_rv.mp4	0.0	265.68299102783203	1.0001370906829834
56	248.42043113708496	pulse	0	t		54.0	2.5	/experiments/knapen_AOT/AOT_stimuli/rescaled_final/0728_rv.mp4	0.0	265.86655020713806	
56	249.2370090484619	movie	1		243	54.0	2.5	/experiments/knapen_AOT/AOT_stimuli/rescaled_final/0728_rv.mp4	0.0	266.683128118515	2.500343084335327
56	250.02065515518188	pulse	1	t		54.0	2.5	/experiments/knapen_AOT/AOT_stimuli/rescaled_final/0728_rv.mp4	0.0	267.466774225235	
56	251.62069702148438	pulse	1	t		54.0	2.5	/experiments/knapen_AOT/AOT_stimuli/rescaled_final/0728_rv.mp4	0.0	269.0668160915375	
56	251.73735213279724	fix_post	2		12	54.0	2.5	/experiments/knapen_AOT/AOT_stimuli/rescaled_final/0728_rv.mp4	0.0	269.18347120285034	0.1000518798828125
57	251.83740401268005	fix_pre	0		120	55.0	2.5	/experiments/knapen_AOT/AOT_stimuli/rescaled_final/0136_fw.mp4	0.0	269.28352308273315	1.0001471042633057
57	252.83755111694336	movie	1		241	55.0	2.5	/experiments/knapen_AOT/AOT_stimuli/rescaled_final/0136_fw.mp4	0.0	270.28367018699646	2.4921319484710693
57	253.22171211242676	pulse	1	t		55.0	2.5	/experiments/knapen_AOT/AOT_stimuli/rescaled_final/0136_fw.mp4	0.0	270.66783118247986	
57	254.82139205932617	pulse	1	t		55.0	2.5	/experiments/knapen_AOT/AOT_stimuli/rescaled_final/0136_fw.mp4	0.0	272.2675111293793	
57	255.32968306541443	fix_post	2		12	55.0	2.5	/experiments/knapen_AOT/AOT_stimuli/rescaled_final/0136_fw.mp4	0.0	272.77580213546753	0.09989094734191895
58	255.42957401275635	fix_pre	0		120	56.0	2.5	blank	1.0	272.87569308280945	1.000175952911377
58	256.4215681552887	pulse	0	t		56.0	2.5	blank	1.0	273.8676872253418	
58	256.4297499656677	movie	1		301	56.0	2.5	blank	1.0	273.8758690357208	2.508687973022461
58	258.02185702323914	pulse	1	t		56.0	2.5	blank	1.0	275.46797609329224	
58	258.9384379386902	fix_post	2		12	56.0	2.5	blank	1.0	276.3845570087433	0.10008502006530762
59	259.0385229587555	fix_pre	0		120	57.0	2.5	/experiments/knapen_AOT/AOT_stimuli/rescaled_final/0065_rv.mp4	0.0	276.4846420288086	1.0000779628753662
59	259.62206506729126	pulse	0	t		57.0	2.5	/experiments/knapen_AOT/AOT_stimuli/rescaled_final/0065_rv.mp4	0.0	277.06818413734436	
59	260.03860092163086	movie	1		242	57.0	2.5	/experiments/knapen_AOT/AOT_stimuli/rescaled_final/0065_rv.mp4	0.0	277.48471999168396	2.5005440711975098
59	261.2223930358887	pulse	1	t		57.0	2.5	/experiments/knapen_AOT/AOT_stimuli/rescaled_final/0065_rv.mp4	0.0	278.6685121059418	
59	262.53914499282837	fix_post	2		12	57.0	2.5	/experiments/knapen_AOT/AOT_stimuli/rescaled_final/0065_rv.mp4	0.0	279.98526406288147	0.09987306594848633
60	262.63901805877686	fix_pre	0		120	58.0	2.5	/experiments/knapen_AOT/AOT_stimuli/rescaled_final/1531_fw.mp4	0.0	280.08513712882996	1.0001299381256104
60	262.822536945343	pulse	0	t		58.0	2.5	/experiments/knapen_AOT/AOT_stimuli/rescaled_final/1531_fw.mp4	0.0	280.2686560153961	
60	263.63914799690247	movie	1		243	58.0	2.5	/experiments/knapen_AOT/AOT_stimuli/rescaled_final/1531_fw.mp4	0.0	281.08526706695557	2.5004191398620605
60	264.42280411720276	pulse	1	t		58.0	2.5	/experiments/knapen_AOT/AOT_stimuli/rescaled_final/1531_fw.mp4	0.0	281.86892318725586	
60	266.02353596687317	pulse	1	t		58.0	2.5	/experiments/knapen_AOT/AOT_stimuli/rescaled_final/1531_fw.mp4	0.0	283.46965503692627	
60	266.1395671367645	fix_post	2		12	58.0	2.5	/experiments/knapen_AOT/AOT_stimuli/rescaled_final/1531_fw.mp4	0.0	283.5856862068176	0.09991884231567383
61	266.2394859790802	fix_pre	0		119	59.0	2.5	/experiments/knapen_AOT/AOT_stimuli/rescaled_final/0181_rv.mp4	0.0	283.6856050491333	0.9918661117553711
61	267.23135209083557	movie	1		244	59.0	2.5	/experiments/knapen_AOT/AOT_stimuli/rescaled_final/0181_rv.mp4	0.0	284.6774711608887	2.500385046005249
61	267.62350511550903	pulse	1	t		59.0	2.5	/experiments/knapen_AOT/AOT_stimuli/rescaled_final/0181_rv.mp4	0.0	285.06962418556213	
61	269.22353315353394	pulse	1	t		59.0	2.5	/experiments/knapen_AOT/AOT_stimuli/rescaled_final/0181_rv.mp4	0.0	286.66965222358704	
61	269.7317371368408	fix_post	2		12	59.0	2.5	/experiments/knapen_AOT/AOT_stimuli/rescaled_final/0181_rv.mp4	0.0	287.1778562068939	0.10005593299865723
62	269.8317930698395	fix_pre	0		120	60.0	2.5	/experiments/knapen_AOT/AOT_stimuli/rescaled_final/0690_rv.mp4	0.0	287.2779121398926	1.0000889301300049
62	270.8237450122833	pulse	0	t		60.0	2.5	/experiments/knapen_AOT/AOT_stimuli/rescaled_final/0690_rv.mp4	0.0	288.2698640823364	
62	270.8318819999695	movie	1		240	60.0	2.5	/experiments/knapen_AOT/AOT_stimuli/rescaled_final/0690_rv.mp4	0.0	288.2780010700226	2.5086770057678223
62	272.4245021343231	pulse	1	t		60.0	2.5	/experiments/knapen_AOT/AOT_stimuli/rescaled_final/0690_rv.mp4	0.0	289.8706212043762	
62	273.3405590057373	fix_post	2		12	60.0	2.5	/experiments/knapen_AOT/AOT_stimuli/rescaled_final/0690_rv.mp4	0.0	290.7866780757904	0.10004901885986328
63	273.44060802459717	fix_pre	0		120	61.0	2.5	/experiments/knapen_AOT/AOT_stimuli/rescaled_final/1972_rv.mp4	0.0	290.88672709465027	1.0001559257507324
63	274.02432203292847	pulse	0	t		61.0	2.5	/experiments/knapen_AOT/AOT_stimuli/rescaled_final/1972_rv.mp4	0.0	291.47044110298157	
63	274.4407639503479	movie	1		244	61.0	2.5	/experiments/knapen_AOT/AOT_stimuli/rescaled_final/1972_rv.mp4	0.0	291.886883020401	2.5003461837768555
63	275.62463212013245	pulse	1	t		61.0	2.5	/experiments/knapen_AOT/AOT_stimuli/rescaled_final/1972_rv.mp4	0.0	293.07075119018555	
63	276.94111013412476	fix_post	2		12	61.0	2.5	/experiments/knapen_AOT/AOT_stimuli/rescaled_final/1972_rv.mp4	0.0	294.38722920417786	0.10004901885986328
64	277.0411591529846	fix_pre	0		120	62.0	2.5	/experiments/knapen_AOT/AOT_stimuli/rescaled_final/1876_fw.mp4	0.0	294.4872782230377	1.0001389980316162
64	277.22483015060425	pulse	0	t		62.0	2.5	/experiments/knapen_AOT/AOT_stimuli/rescaled_final/1876_fw.mp4	0.0	294.67094922065735	
64	278.04129815101624	movie	1		243	62.0	2.5	/experiments/knapen_AOT/AOT_stimuli/rescaled_final/1876_fw.mp4	0.0	295.48741722106934	2.500412940979004
64	278.8249740600586	pulse	1	t		62.0	2.5	/experiments/knapen_AOT/AOT_stimuli/rescaled_final/1876_fw.mp4	0.0	296.2710931301117	
64	280.425311088562	pulse	1	t		62.0	2.5	/experiments/knapen_AOT/AOT_stimuli/rescaled_final/1876_fw.mp4	0.0	297.8714301586151	
64	280.54171109199524	fix_post	2		12	62.0	2.5	/experiments/knapen_AOT/AOT_stimuli/rescaled_final/1876_fw.mp4	0.0	297.98783016204834	0.09996795654296875
65	280.6416790485382	fix_pre	0		120	63.0	2.5	blank	1.0	298.0877981185913	1.0001819133758545
65	281.64186096191406	movie	1		299	63.0	2.5	blank	1.0	299.08798003196716	2.4920079708099365
65	282.02545499801636	pulse	1	t		63.0	2.5	blank	1.0	299.47157406806946	
65	283.62565302848816	pulse	1	t		63.0	2.5	blank	1.0	301.07177209854126	
65	284.133868932724	fix_post	2		12	63.0	2.5	blank	1.0	301.5799880027771	0.10002303123474121
66	284.23389196395874	fix_pre	0		120	64.0	2.5	/experiments/knapen_AOT/AOT_stimuli/rescaled_final/0368_rv.mp4	0.0	301.68001103401184	1.0001909732818604
66	285.2259781360626	pulse	0	t		64.0	2.5	/experiments/knapen_AOT/AOT_stimuli/rescaled_final/0368_rv.mp4	0.0	302.6720972061157	
66	285.2340829372406	movie	1		244	64.0	2.5	/experiments/knapen_AOT/AOT_stimuli/rescaled_final/0368_rv.mp4	0.0	302.6802020072937	2.5086750984191895
66	286.8266911506653	pulse	1	t		64.0	2.5	/experiments/knapen_AOT/AOT_stimuli/rescaled_final/0368_rv.mp4	0.0	304.2728102207184	
66	287.7427580356598	fix_post	2		12	64.0	2.5	/experiments/knapen_AOT/AOT_stimuli/rescaled_final/0368_rv.mp4	0.0	305.1888771057129	0.10002589225769043
67	287.8427839279175	fix_pre	0		120	65.0	2.5	/experiments/knapen_AOT/AOT_stimuli/rescaled_final/0488_fw.mp4	0.0	305.2889029979706	1.0001211166381836
67	288.4264180660248	pulse	0	t		65.0	2.5	/experiments/knapen_AOT/AOT_stimuli/rescaled_final/0488_fw.mp4	0.0	305.8725371360779	
67	288.84290504455566	movie	1		243	65.0	2.5	/experiments/knapen_AOT/AOT_stimuli/rescaled_final/0488_fw.mp4	0.0	306.28902411460876	2.500430107116699
67	290.02673411369324	pulse	1	t		65.0	2.5	/experiments/knapen_AOT/AOT_stimuli/rescaled_final/0488_fw.mp4	0.0	307.47285318374634	
67	291.34333515167236	fix_post	2		12	65.0	2.5	/experiments/knapen_AOT/AOT_stimuli/rescaled_final/0488_fw.mp4	0.0	308.78945422172546	0.09996294975280762
68	291.44329810142517	fix_pre	0		120	66.0	2.5	/experiments/knapen_AOT/AOT_stimuli/rescaled_final/1015_rv.mp4	0.0	308.88941717147827	1.0001330375671387
68	291.62690806388855	pulse	0	t		66.0	2.5	/experiments/knapen_AOT/AOT_stimuli/rescaled_final/1015_rv.mp4	0.0	309.07302713394165	
68	292.4434311389923	movie	1		243	66.0	2.5	/experiments/knapen_AOT/AOT_stimuli/rescaled_final/1015_rv.mp4	0.0	309.8895502090454	2.5003929138183594
68	293.21972012519836	pulse	1	t		66.0	2.5	/experiments/knapen_AOT/AOT_stimuli/rescaled_final/1015_rv.mp4	0.0	310.66583919525146	
68	294.82714104652405	pulse	1	t		66.0	2.5	/experiments/knapen_AOT/AOT_stimuli/rescaled_final/1015_rv.mp4	0.0	312.27326011657715	
68	294.94382405281067	fix_post	2		12	66.0	2.5	/experiments/knapen_AOT/AOT_stimuli/rescaled_final/1015_rv.mp4	0.0	312.38994312286377	0.10002589225769043
69	295.04384994506836	fix_pre	0		120	67.0	2.5	/experiments/knapen_AOT/AOT_stimuli/rescaled_final/0271_fw.mp4	0.0	312.48996901512146	1.000128984451294
69	296.04397892951965	movie	1		243	67.0	2.5	/experiments/knapen_AOT/AOT_stimuli/rescaled_final/0271_fw.mp4	0.0	313.49009799957275	2.4920151233673096
69	296.42805099487305	pulse	1	t		67.0	2.5	/experiments/knapen_AOT/AOT_stimuli/rescaled_final/0271_fw.mp4	0.0	313.87417006492615	
69	298.02037501335144	pulse	1	t		67.0	2.5	/experiments/knapen_AOT/AOT_stimuli/rescaled_final/0271_fw.mp4	0.0	315.46649408340454	
69	298.53599405288696	fix_post	2		12	67.0	2.5	/experiments/knapen_AOT/AOT_stimuli/rescaled_final/0271_fw.mp4	0.0	315.98211312294006	0.1000208854675293
70	298.6360149383545	fix_pre	0		120	68.0	2.5	blank	1.0	316.0821340084076	1.0001850128173828
70	299.62052392959595	pulse	0	t		68.0	2.5	blank	1.0	317.06664299964905	
70	299.6361999511719	movie	1		301	68.0	2.5	blank	1.0	317.082319021225	2.508721113204956
70	301.2201421260834	pulse	1	t		68.0	2.5	blank	1.0	318.6662611961365	
70	302.14492106437683	fix_post	2		12	68.0	2.5	blank	1.0	319.59104013442993	0.0999910831451416
71	302.244912147522	fix_pre	0		120	69.0	2.5	/experiments/knapen_AOT/AOT_stimuli/rescaled_final/1780_rv.mp4	0.0	319.6910312175751	1.0001208782196045
71	302.8201560974121	pulse	0	t		69.0	2.5	/experiments/knapen_AOT/AOT_stimuli/rescaled_final/1780_rv.mp4	0.0	320.2662751674652	
71	303.2450330257416	movie	1		244	69.0	2.5	/experiments/knapen_AOT/AOT_stimuli/rescaled_final/1780_rv.mp4	0.0	320.6911520957947	2.500446081161499
71	304.4216079711914	pulse	1	t		69.0	2.5	/experiments/knapen_AOT/AOT_stimuli/rescaled_final/1780_rv.mp4	0.0	321.8677270412445	
71	305.7454791069031	fix_post	2		12	69.0	2.5	/experiments/knapen_AOT/AOT_stimuli/rescaled_final/1780_rv.mp4	0.0	323.1915981769562	0.0999448299407959
72	305.8454239368439	fix_pre	0		120	70.0	2.5	/experiments/knapen_AOT/AOT_stimuli/rescaled_final/0903_rv.mp4	0.0	323.291543006897	1.000176191329956
72	306.02070808410645	pulse	0	t		70.0	2.5	/experiments/knapen_AOT/AOT_stimuli/rescaled_final/0903_rv.mp4	0.0	323.46682715415955	
72	306.8456001281738	movie	1		244	70.0	2.5	/experiments/knapen_AOT/AOT_stimuli/rescaled_final/0903_rv.mp4	0.0	324.29171919822693	2.5002918243408203
72	307.62102007865906	pulse	1	t		70.0	2.5	/experiments/knapen_AOT/AOT_stimuli/rescaled_final/0903_rv.mp4	0.0	325.06713914871216	
72	309.22117710113525	pulse	1	t		70.0	2.5	/experiments/knapen_AOT/AOT_stimuli/rescaled_final/0903_rv.mp4	0.0	326.66729617118835	
72	309.34589195251465	fix_post	2		12	70.0	2.5	/experiments/knapen_AOT/AOT_stimuli/rescaled_final/0903_rv.mp4	0.0	326.79201102256775	0.10008001327514648
73	309.4459719657898	fix_pre	0		120	71.0	2.5	/experiments/knapen_AOT/AOT_stimuli/rescaled_final/1966_fw.mp4	0.0	326.8920910358429	1.000157117843628
73	310.4461290836334	movie	1		241	71.0	2.5	/experiments/knapen_AOT/AOT_stimuli/rescaled_final/1966_fw.mp4	0.0	327.8922481536865	2.4921300411224365
73	310.82132601737976	pulse	1	t		71.0	2.5	/experiments/knapen_AOT/AOT_stimuli/rescaled_final/1966_fw.mp4	0.0	328.26744508743286	
73	312.421767950058	pulse	1	t		71.0	2.5	/experiments/knapen_AOT/AOT_stimuli/rescaled_final/1966_fw.mp4	0.0	329.8678870201111	
73	312.93825912475586	fix_post	2		12	71.0	2.5	/experiments/knapen_AOT/AOT_stimuli/rescaled_final/1966_fw.mp4	0.0	330.38437819480896	0.0999288558959961
74	313.03818798065186	fix_pre	0		119	72.0	2.5	/experiments/knapen_AOT/AOT_stimuli/rescaled_final/0839_rv.mp4	0.0	330.48430705070496	0.9918911457061768
74	314.02195596694946	pulse	0	t		72.0	2.5	/experiments/knapen_AOT/AOT_stimuli/rescaled_final/0839_rv.mp4	0.0	331.46807503700256	
74	314.03007912635803	movie	1		244	72.0	2.5	/experiments/knapen_AOT/AOT_stimuli/rescaled_final/0839_rv.mp4	0.0	331.47619819641113	2.508636951446533
74	315.6227180957794	pulse	1	t		72.0	2.5	/experiments/knapen_AOT/AOT_stimuli/rescaled_final/0839_rv.mp4	0.0	333.0688371658325	
74	316.53871607780457	fix_post	2		12	72.0	2.5	/experiments/knapen_AOT/AOT_stimuli/rescaled_final/0839_rv.mp4	0.0	333.98483514785767	0.09998703002929688
75	316.63870310783386	fix_pre	0		120	73.0	2.5	/experiments/knapen_AOT/AOT_stimuli/rescaled_final/1476_rv.mp4	0.0	334.08482217788696	1.0001649856567383
75	317.2223780155182	pulse	0	t		73.0	2.5	/experiments/knapen_AOT/AOT_stimuli/rescaled_final/1476_rv.mp4	0.0	334.6684970855713	
75	317.6388680934906	movie	1		243	73.0	2.5	/experiments/knapen_AOT/AOT_stimuli/rescaled_final/1476_rv.mp4	0.0	335.0849871635437	2.500385046005249
75	318.822674036026	pulse	1	t		73.0	2.5	/experiments/knapen_AOT/AOT_stimuli/rescaled_final/1476_rv.mp4	0.0	336.2687931060791	
75	320.13925313949585	fix_post	2		12	73.0	2.5	/experiments/knapen_AOT/AOT_stimuli/rescaled_final/1476_rv.mp4	0.0	337.58537220954895	0.09999895095825195
76	320.2392520904541	fix_pre	0		120	74.0	2.5	/experiments/knapen_AOT/AOT_stimuli/rescaled_final/0934_rv.mp4	0.0	337.6853711605072	1.0001280307769775
76	320.4229371547699	pulse	0	t		74.0	2.5	/experiments/knapen_AOT/AOT_stimuli/rescaled_final/0934_rv.mp4	0.0	337.869056224823	
76	321.2393801212311	movie	1		242	74.0	2.5	/experiments/knapen_AOT/AOT_stimuli/rescaled_final/0934_rv.mp4	0.0	338.6854991912842	2.500563859939575
76	322.0231330394745	pulse	1	t		74.0	2.5	/experiments/knapen_AOT/AOT_stimuli/rescaled_final/0934_rv.mp4	0.0	339.4692521095276	
76	323.6239171028137	pulse	1	t		74.0	2.5	/experiments/knapen_AOT/AOT_stimuli/rescaled_final/0934_rv.mp4	0.0	341.0700361728668	
76	323.73994398117065	fix_post	2		12	74.0	2.5	/experiments/knapen_AOT/AOT_stimuli/rescaled_final/0934_rv.mp4	0.0	341.18606305122375	0.09986209869384766
77	323.8398060798645	fix_pre	0		120	75.0	2.5	/experiments/knapen_AOT/AOT_stimuli/rescaled_final/1129_rv.mp4	0.0	341.2859251499176	1.0000889301300049
77	324.8398950099945	movie	1		241	75.0	2.5	/experiments/knapen_AOT/AOT_stimuli/rescaled_final/1129_rv.mp4	0.0	342.2860140800476	2.492272138595581
77	325.224848985672	pulse	1	t		75.0	2.5	/experiments/knapen_AOT/AOT_stimuli/rescaled_final/1129_rv.mp4	0.0	342.6709680557251	
77	326.8238561153412	pulse	1	t		75.0	2.5	/experiments/knapen_AOT/AOT_stimuli/rescaled_final/1129_rv.mp4	0.0	344.2699751853943	
77	327.3321671485901	fix_post	2		12	75.0	2.5	/experiments/knapen_AOT/AOT_stimuli/rescaled_final/1129_rv.mp4	0.0	344.7782862186432	0.09985494613647461
78	327.43202209472656	fix_pre	0		120	76.0	2.5	blank	1.0	344.87814116477966	1.0001919269561768
78	328.4240939617157	pulse	0	t		76.0	2.5	blank	1.0	345.8702130317688	
78	328.43221402168274	movie	1		301	76.0	2.5	blank	1.0	345.87833309173584	2.5086820125579834
78	330.02431297302246	pulse	1	t		76.0	2.5	blank	1.0	347.47043204307556	
78	330.9408960342407	fix_post	2		12	76.0	2.5	blank	1.0	348.3870151042938	0.09997892379760742
79	331.04087495803833	fix_pre	0		120	77.0	2.5	/experiments/knapen_AOT/AOT_stimuli/rescaled_final/1021_rv.mp4	0.0	348.48699402809143	1.0001161098480225
79	331.62450098991394	pulse	0	t		77.0	2.5	/experiments/knapen_AOT/AOT_stimuli/rescaled_final/1021_rv.mp4	0.0	349.07062005996704	
79	332.04099106788635	movie	1		243	77.0	2.5	/experiments/knapen_AOT/AOT_stimuli/rescaled_final/1021_rv.mp4	0.0	349.48711013793945	2.500411033630371
79	333.2202670574188	pulse	1	t		77.0	2.5	/experiments/knapen_AOT/AOT_stimuli/rescaled_final/1021_rv.mp4	0.0	350.6663861274719	
79	334.5414021015167	fix_post	2		12	77.0	2.5	/experiments/knapen_AOT/AOT_stimuli/rescaled_final/1021_rv.mp4	0.0	351.9875211715698	0.10004186630249023
80	334.6414439678192	fix_pre	0		120	78.0	2.5	/experiments/knapen_AOT/AOT_stimuli/rescaled_final/1335_fw.mp4	0.0	352.0875630378723	1.000110149383545
80	334.82502603530884	pulse	0	t		78.0	2.5	/experiments/knapen_AOT/AOT_stimuli/rescaled_final/1335_fw.mp4	0.0	352.27114510536194	
80	335.64155411720276	movie	1		238	78.0	2.5	/experiments/knapen_AOT/AOT_stimuli/rescaled_final/1335_fw.mp4	0.0	353.08767318725586	2.5005569458007812
80	336.4251940250397	pulse	1	t		78.0	2.5	/experiments/knapen_AOT/AOT_stimuli/rescaled_final/1335_fw.mp4	0.0	353.8713130950928	
80	338.0252821445465	pulse	1	t		78.0	2.5	/experiments/knapen_AOT/AOT_stimuli/rescaled_final/1335_fw.mp4	0.0	355.4714012145996	
80	338.14211106300354	fix_post	2		12	78.0	2.5	/experiments/knapen_AOT/AOT_stimuli/rescaled_final/1335_fw.mp4	0.0	355.58823013305664	0.0998530387878418
81	338.2419641017914	fix_pre	0		120	79.0	2.5	/experiments/knapen_AOT/AOT_stimuli/rescaled_final/0376_fw.mp4	0.0	355.6880831718445	1.0001509189605713
81	339.24211502075195	movie	1		242	79.0	2.5	/experiments/knapen_AOT/AOT_stimuli/rescaled_final/0376_fw.mp4	0.0	356.68823409080505	2.4921159744262695
81	339.62628412246704	pulse	1	t		79.0	2.5	/experiments/knapen_AOT/AOT_stimuli/rescaled_final/0376_fw.mp4	0.0	357.07240319252014	
81	341.22606205940247	pulse	1	t		79.0	2.5	/experiments/knapen_AOT/AOT_stimuli/rescaled_final/0376_fw.mp4	0.0	358.67218112945557	
81	341.7342309951782	fix_post	2		12	79.0	2.5	/experiments/knapen_AOT/AOT_stimuli/rescaled_final/0376_fw.mp4	0.0	359.1803500652313	0.09993696212768555
82	341.8341679573059	fix_pre	0		120	80.0	2.5	/experiments/knapen_AOT/AOT_stimuli/rescaled_final/0921_fw.mp4	0.0	359.280287027359	1.0001261234283447
82	342.82621002197266	pulse	0	t		80.0	2.5	/experiments/knapen_AOT/AOT_stimuli/rescaled_final/0921_fw.mp4	0.0	360.27232909202576	
82	342.83429408073425	movie	1		245	80.0	2.5	/experiments/knapen_AOT/AOT_stimuli/rescaled_final/0921_fw.mp4	0.0	360.28041315078735	2.508697986602783
82	344.42703104019165	pulse	1	t		80.0	2.5	/experiments/knapen_AOT/AOT_stimuli/rescaled_final/0921_fw.mp4	0.0	361.87315011024475	
82	345.34299206733704	fix_post	2		12	80.0	2.5	/experiments/knapen_AOT/AOT_stimuli/rescaled_final/0921_fw.mp4	0.0	362.78911113739014	0.10005497932434082
83	345.4430470466614	fix_pre	0		120	81.0	2.5	/experiments/knapen_AOT/AOT_stimuli/rescaled_final/1670_fw.mp4	0.0	362.8891661167145	1.0001308917999268
83	346.0266749858856	pulse	0	t		81.0	2.5	/experiments/knapen_AOT/AOT_stimuli/rescaled_final/1670_fw.mp4	0.0	363.4727940559387	
83	346.4431779384613	movie	1		244	81.0	2.5	/experiments/knapen_AOT/AOT_stimuli/rescaled_final/1670_fw.mp4	0.0	363.8892970085144	2.5003480911254883
83	347.62338399887085	pulse	1	t		81.0	2.5	/experiments/knapen_AOT/AOT_stimuli/rescaled_final/1670_fw.mp4	0.0	365.06950306892395	
83	348.9435260295868	fix_post	2		12	81.0	2.5	/experiments/knapen_AOT/AOT_stimuli/rescaled_final/1670_fw.mp4	0.0	366.3896450996399	0.1000211238861084
84	349.0435471534729	fix_pre	0		120	82.0	2.5	/experiments/knapen_AOT/AOT_stimuli/rescaled_final/1272_rv.mp4	0.0	366.489666223526	1.000180959701538
84	349.21955394744873	pulse	0	t		82.0	2.5	/experiments/knapen_AOT/AOT_stimuli/rescaled_final/1272_rv.mp4	0.0	366.66567301750183	
84	350.04372811317444	movie	1		245	82.0	2.5	/experiments/knapen_AOT/AOT_stimuli/rescaled_final/1272_rv.mp4	0.0	367.48984718322754	2.5003108978271484
84	350.81985306739807	pulse	1	t		82.0	2.5	/experiments/knapen_AOT/AOT_stimuli/rescaled_final/1272_rv.mp4	0.0	368.2659721374512	
84	352.42512607574463	pulse	1	t		82.0	2.5	/experiments/knapen_AOT/AOT_stimuli/rescaled_final/1272_rv.mp4	0.0	369.87124514579773	
84	352.5440390110016	fix_post	2		12	82.0	2.5	/experiments/knapen_AOT/AOT_stimuli/rescaled_final/1272_rv.mp4	0.0	369.9901580810547	0.10007095336914062
85	352.6441099643707	fix_pre	0		120	83.0	2.5	blank	1.0	370.0902290344238	1.0001270771026611
85	353.6442370414734	movie	1		299	83.0	2.5	blank	1.0	371.0903561115265	2.4920859336853027
85	354.01962995529175	pulse	1	t		83.0	2.5	blank	1.0	371.46574902534485	
85	355.6196310520172	pulse	1	t		83.0	2.5	blank	1.0	373.0657501220703	
85	356.1363229751587	fix_post	2		12	83.0	2.5	blank	1.0	373.5824420452118	0.09996294975280762
87	356.2362859249115	stim	0		1716					373.6824049949646	14.302146196365356
87	357.21991300582886	pulse	0	t						374.66603207588196	
87	358.82032203674316	pulse	0	t						376.26644110679626	
87	360.4203839302063	pulse	0	t						377.8665030002594	
87	362.0206561088562	pulse	0	t						379.4667751789093	
87	363.6208119392395	pulse	0	t						381.0669310092926	
87	365.22116899490356	pulse	0	t						382.66728806495667	
87	366.8213770389557	pulse	0	t						384.2674961090088	
87	368.4215431213379	pulse	0	t						385.867662191391	
87	370.021870136261	pulse	0	t						387.4679892063141	
